block,trial,freq_trials,correct_response,actual_response,acc,rts,probe_trials,fast_rt_trigger,slow_rt_trigger,rt_triggered,rts_runningavg,rts_runningstd,rts_runningfastthresh,rts_runningslowthresh,rts_runningstd,rts_trailingavg,trials_colorind0,trials_colorind1,trials_colorind2,trials_colorind3,trials_colorind4,trials_colorind5,wholereport_resp0,wholereport_resp1,wholereport_resp2,wholereport_resp3,wholereport_resp4,wholereport_resp5,wholereport_respacc0,wholereport_respacc1,wholereport_respacc2,wholereport_respacc3,wholereport_respacc4,wholereport_respacc5,wholereport_respacc_total,wholereport_respcolorind0,wholereport_respcolorind1,wholereport_respcolorind2,wholereport_respcolorind3,wholereport_respcolorind4,wholereport_respcolorind5,wholereport_resporder0,wholereport_resporder1,wholereport_resporder2,wholereport_resporder3,wholereport_resporder4,wholereport_resporder5,wholereport_rts0,wholereport_rts1,wholereport_rts2,wholereport_rts3,wholereport_rts4,wholereport_rts5,time_blockstart,time_encarray_offset,time_encarray_onset,time_response,time_iti_offset,time_iti_onset,time_memprobe_offset,time_memprobe_onset
1,1,1,1,nan,nan,nan,0,nan,nan,nan,nan,nan,nan,nan,nan,nan,2,7,8,5,6,1,nan,nan,nan,nan,nan,nan,nan,nan,nan,nan,nan,nan,0.0,nan,nan,nan,nan,nan,nan,nan,nan,nan,nan,nan,nan,nan,nan,nan,nan,nan,nan,786.1522517944686,787.1697788033634,nan,nan,nan,nan,nan,nan
1,2,1,1,1.0,1.0,0.25314335501752794,0,nan,nan,nan,nan,nan,nan,nan,nan,nan,2,1,8,3,0,5,nan,nan,nan,nan,nan,nan,nan,nan,nan,nan,nan,nan,0.0,nan,nan,nan,nan,nan,nan,nan,nan,nan,nan,nan,nan,nan,nan,nan,nan,nan,nan,786.1522517944686,788.1951024045702,nan,788.4482457595877,nan,nan,nan,nan
1,3,1,1,1.0,1.0,0.18847557180561125,0,nan,nan,nan,nan,nan,nan,nan,nan,nan,0,8,3,5,6,4,nan,nan,nan,nan,nan,nan,nan,nan,nan,nan,nan,nan,0.0,nan,nan,nan,nan,nan,nan,nan,nan,nan,nan,nan,nan,nan,nan,nan,nan,nan,nan,786.1522517944686,789.2117584371008,nan,789.4002340089064,nan,nan,nan,nan
1,4,1,1,1.0,1.0,0.20333377225324512,0,nan,nan,nan,nan,nan,nan,nan,nan,nan,2,3,7,0,1,8,nan,nan,nan,nan,nan,nan,nan,nan,nan,nan,nan,nan,0.0,nan,nan,nan,nan,nan,nan,nan,nan,nan,nan,nan,nan,nan,nan,nan,nan,nan,nan,786.1522517944686,790.2368699249346,nan,790.4402036971878,nan,nan,nan,nan
1,5,1,1,1.0,1.0,0.41008844319730997,1,nan,nan,nan,nan,nan,nan,nan,nan,nan,8,2,1,6,7,4,1.0,1.0,1.0,1.0,1.0,1.0,0.0,0.0,0.0,0.0,0.0,1.0,1.0,2.0,5.0,6.0,8.0,5.0,4.0,2.0,1.0,6.0,5.0,4.0,3.0,3.3113875805865973,1.86265601310879,7.205360823543742,6.5332598919048905,5.7891407639253885,4.469664079602808,786.1522517944686,791.2621068560984,792.070419362979,791.6721952992957,800.3298480024096,801.3267692222726,793.0872279233299,800.3215268286876
1,6,1,1,nan,nan,nan,0,nan,nan,nan,nan,nan,nan,nan,nan,nan,0,6,8,4,2,5,nan,nan,nan,nan,nan,nan,nan,nan,nan,nan,nan,nan,0.0,nan,nan,nan,nan,nan,nan,nan,nan,nan,nan,nan,nan,nan,nan,nan,nan,nan,nan,786.1522517944686,801.5467071393505,nan,nan,nan,nan,nan,nan
1,7,1,1,1.0,1.0,0.16418545320630074,0,nan,nan,nan,nan,nan,nan,nan,nan,nan,8,4,3,2,5,1,nan,nan,nan,nan,nan,nan,nan,nan,nan,nan,nan,nan,0.0,nan,nan,nan,nan,nan,nan,nan,nan,nan,nan,nan,nan,nan,nan,nan,nan,nan,nan,786.1522517944686,802.5718451412395,nan,802.7360305944458,nan,nan,nan,nan
1,8,1,1,1.0,1.0,0.5869433947373182,0,nan,nan,nan,nan,nan,nan,nan,nan,nan,0,2,1,7,3,5,nan,nan,nan,nan,nan,nan,nan,nan,nan,nan,nan,nan,0.0,nan,nan,nan,nan,nan,nan,nan,nan,nan,nan,nan,nan,nan,nan,nan,nan,nan,nan,786.1522517944686,803.5970595497638,nan,804.1840029445011,nan,nan,nan,nan
1,9,1,1,1.0,1.0,0.7058340874500573,0,nan,nan,nan,nan,nan,nan,nan,nan,nan,1,3,5,4,6,8,nan,nan,nan,nan,nan,nan,nan,nan,nan,nan,nan,nan,0.0,nan,nan,nan,nan,nan,nan,nan,nan,nan,nan,nan,nan,nan,nan,nan,nan,nan,nan,786.1522517944686,804.622125136666,nan,805.3279592241161,nan,nan,nan,nan
1,10,1,1,1.0,1.0,0.5447482264135033,0,nan,nan,nan,nan,nan,nan,nan,nan,nan,4,8,6,0,2,5,nan,nan,nan,nan,nan,nan,nan,nan,nan,nan,nan,nan,0.0,nan,nan,nan,nan,nan,nan,nan,nan,nan,nan,nan,nan,nan,nan,nan,nan,nan,nan,786.1522517944686,805.6472354840953,nan,806.1919837105088,nan,nan,nan,nan
1,11,1,1,1.0,1.0,0.4795709722675383,0,nan,nan,nan,nan,nan,nan,nan,nan,nan,0,3,1,4,5,7,nan,nan,nan,nan,nan,nan,nan,nan,nan,nan,nan,nan,0.0,nan,nan,nan,nan,nan,nan,nan,nan,nan,nan,nan,nan,nan,nan,nan,nan,nan,nan,786.1522517944686,806.6723914472386,nan,807.1519624195062,nan,nan,nan,nan
1,12,1,1,1.0,1.0,0.5744312710594386,0,nan,nan,nan,nan,nan,nan,nan,nan,nan,3,7,4,2,0,6,nan,nan,nan,nan,nan,nan,nan,nan,nan,nan,nan,nan,0.0,nan,nan,nan,nan,nan,nan,nan,nan,nan,nan,nan,nan,nan,nan,nan,nan,nan,nan,786.1522517944686,807.6975083518773,nan,808.2719396229368,nan,nan,nan,nan
1,13,1,1,1.0,1.0,0.6215723303612322,0,nan,nan,nan,nan,nan,nan,nan,nan,nan,1,2,8,4,6,5,nan,nan,nan,nan,nan,nan,nan,nan,nan,nan,nan,nan,0.0,nan,nan,nan,nan,nan,nan,nan,nan,nan,nan,nan,nan,nan,nan,nan,nan,nan,nan,786.1522517944686,808.7143462772947,nan,809.3359186076559,nan,nan,nan,nan
1,14,1,1,1.0,1.0,0.7004725225269794,0,nan,nan,nan,nan,nan,nan,nan,nan,nan,7,6,0,2,4,3,nan,nan,nan,nan,nan,nan,nan,nan,nan,nan,nan,nan,0.0,nan,nan,nan,nan,nan,nan,nan,nan,nan,nan,nan,nan,nan,nan,nan,nan,nan,nan,786.1522517944686,809.7394757263828,nan,810.4399482489098,nan,nan,nan,nan
1,15,1,1,1.0,1.0,0.7552855859976262,0,nan,nan,nan,nan,nan,nan,nan,nan,nan,4,2,1,3,5,0,nan,nan,nan,nan,nan,nan,nan,nan,nan,nan,nan,nan,0.0,nan,nan,nan,nan,nan,nan,nan,nan,nan,nan,nan,nan,nan,nan,nan,nan,nan,nan,786.1522517944686,810.7646103072912,nan,811.5198958932888,nan,nan,nan,nan
1,16,1,1,1.0,1.0,0.7380593563430011,0,nan,nan,nan,nan,nan,nan,nan,nan,nan,8,6,4,0,2,1,nan,nan,nan,nan,nan,nan,nan,nan,nan,nan,nan,nan,0.0,nan,nan,nan,nan,nan,nan,nan,nan,nan,nan,nan,nan,nan,nan,nan,nan,nan,nan,786.1522517944686,811.7898287069984,nan,812.5278880633414,nan,nan,nan,nan
1,17,1,1,nan,nan,nan,0,nan,nan,nan,nan,nan,nan,nan,nan,nan,6,1,2,3,8,0,nan,nan,nan,nan,nan,nan,nan,nan,nan,nan,nan,nan,0.0,nan,nan,nan,nan,nan,nan,nan,nan,nan,nan,nan,nan,nan,nan,nan,nan,nan,nan,786.1522517944686,812.814882604871,nan,nan,nan,nan,nan,nan
1,18,1,1,nan,nan,nan,0,nan,nan,nan,nan,nan,nan,nan,nan,nan,2,4,1,5,6,7,nan,nan,nan,nan,nan,nan,nan,nan,nan,nan,nan,nan,0.0,nan,nan,nan,nan,nan,nan,nan,nan,nan,nan,nan,nan,nan,nan,nan,nan,nan,nan,786.1522517944686,813.8400137645658,nan,nan,nan,nan,nan,nan
1,19,0,0,nan,nan,nan,0,nan,nan,nan,nan,nan,nan,nan,nan,nan,7,5,3,4,8,0,nan,nan,nan,nan,nan,nan,nan,nan,nan,nan,nan,nan,0.0,nan,nan,nan,nan,nan,nan,nan,nan,nan,nan,nan,nan,nan,nan,nan,nan,nan,nan,786.1522517944686,814.8651537622791,nan,nan,nan,nan,nan,nan
1,20,1,1,0.0,0.0,0.005498412298038602,0,nan,nan,nan,nan,nan,nan,nan,nan,nan,1,7,2,6,3,4,nan,nan,nan,nan,nan,nan,nan,nan,nan,nan,nan,nan,0.0,nan,nan,nan,nan,nan,nan,nan,nan,nan,nan,nan,nan,nan,nan,nan,nan,nan,nan,786.1522517944686,815.8902886281721,nan,815.8957870404702,nan,nan,nan,nan
1,21,1,1,1.0,1.0,0.7803118294104934,0,nan,nan,nan,nan,nan,nan,nan,nan,nan,3,1,6,8,4,7,nan,nan,nan,nan,nan,nan,nan,nan,nan,nan,nan,nan,0.0,nan,nan,nan,nan,nan,nan,nan,nan,nan,nan,nan,nan,nan,nan,nan,nan,nan,nan,786.1522517944686,816.9154805138241,nan,817.6957923432346,nan,nan,nan,nan
1,22,1,1,1.0,1.0,0.7231951688881963,0,nan,nan,nan,nan,nan,nan,nan,nan,nan,8,0,4,6,3,5,nan,nan,nan,nan,nan,nan,nan,nan,nan,nan,nan,nan,0.0,nan,nan,nan,nan,nan,nan,nan,nan,nan,nan,nan,nan,nan,nan,nan,nan,nan,nan,786.1522517944686,817.9405862996355,nan,818.6637814685237,nan,nan,nan,nan
1,23,0,0,0.0,1.0,0.6980799748562276,0,nan,nan,nan,nan,nan,nan,nan,nan,nan,6,4,7,0,2,3,nan,nan,nan,nan,nan,nan,nan,nan,nan,nan,nan,nan,0.0,nan,nan,nan,nan,nan,nan,nan,nan,nan,nan,nan,nan,nan,nan,nan,nan,nan,nan,786.1522517944686,818.9656886642333,nan,819.6637686390895,nan,nan,nan,nan
1,24,1,1,1.0,1.0,0.45690876664593816,0,nan,nan,nan,nan,nan,nan,nan,nan,nan,1,7,3,8,0,4,nan,nan,nan,nan,nan,nan,nan,nan,nan,nan,nan,nan,0.0,nan,nan,nan,nan,nan,nan,nan,nan,nan,nan,nan,nan,nan,nan,nan,nan,nan,nan,786.1522517944686,819.9908528954256,nan,820.4477616620716,nan,nan,nan,nan
1,25,1,1,1.0,1.0,0.34378618956543505,0,nan,nan,nan,nan,nan,nan,nan,nan,nan,4,3,1,5,7,8,nan,nan,nan,nan,nan,nan,nan,nan,nan,nan,nan,nan,0.0,nan,nan,nan,nan,nan,nan,nan,nan,nan,nan,nan,nan,nan,nan,nan,nan,nan,nan,786.1522517944686,821.0159889017232,nan,821.3597750912886,nan,nan,nan,nan
1,26,1,1,1.0,1.0,0.3109285719692707,0,nan,nan,nan,nan,nan,nan,nan,nan,nan,6,2,8,7,1,0,nan,nan,nan,nan,nan,nan,nan,nan,nan,nan,nan,nan,0.0,nan,nan,nan,nan,nan,nan,nan,nan,nan,nan,nan,nan,nan,nan,nan,nan,nan,nan,786.1522517944686,822.0327966066543,nan,822.3437251786236,nan,nan,nan,nan
1,27,0,0,0.0,1.0,0.46979408455081284,0,nan,nan,nan,nan,nan,nan,nan,nan,nan,3,0,6,5,2,1,nan,nan,nan,nan,nan,nan,nan,nan,nan,nan,nan,nan,0.0,nan,nan,nan,nan,nan,nan,nan,nan,nan,nan,nan,nan,nan,nan,nan,nan,nan,nan,786.1522517944686,823.0579294769559,nan,823.5277235615067,nan,nan,nan,nan
1,28,1,1,1.0,1.0,0.3406389858573675,0,nan,nan,nan,nan,nan,nan,nan,nan,nan,1,8,4,2,5,7,nan,nan,nan,nan,nan,nan,nan,nan,nan,nan,nan,nan,0.0,nan,nan,nan,nan,nan,nan,nan,nan,nan,nan,nan,nan,nan,nan,nan,nan,nan,nan,786.1522517944686,824.0830632024445,nan,824.4237021883018,nan,nan,nan,nan
1,29,1,1,1.0,1.0,0.5473936568014324,0,nan,nan,nan,nan,nan,nan,nan,nan,nan,6,0,1,7,4,5,nan,nan,nan,nan,nan,nan,nan,nan,nan,nan,nan,nan,0.0,nan,nan,nan,nan,nan,nan,nan,nan,nan,nan,nan,nan,nan,nan,nan,nan,nan,nan,786.1522517944686,825.1082901551854,nan,825.6556838119868,nan,nan,nan,nan
1,30,1,1,1.0,1.0,0.4023320497944951,0,nan,nan,nan,nan,nan,nan,nan,nan,nan,7,5,4,2,6,1,nan,nan,nan,nan,nan,nan,nan,nan,nan,nan,nan,nan,0.0,nan,nan,nan,nan,nan,nan,nan,nan,nan,nan,nan,nan,nan,nan,nan,nan,nan,nan,786.1522517944686,826.1333377808332,nan,826.5356698306277,nan,nan,nan,nan
1,31,1,1,1.0,1.0,0.4412383201997727,0,nan,nan,nan,nan,nan,nan,nan,nan,nan,4,8,3,0,2,6,nan,nan,nan,nan,nan,nan,nan,nan,nan,nan,nan,nan,0.0,nan,nan,nan,nan,nan,nan,nan,nan,nan,nan,nan,nan,nan,nan,nan,nan,nan,nan,786.1522517944686,827.1584381498396,nan,827.5996764700394,nan,nan,nan,nan
1,32,1,1,1.0,1.0,0.360021986765787,0,nan,nan,nan,nan,nan,nan,nan,nan,nan,8,1,7,6,0,5,nan,nan,nan,nan,nan,nan,nan,nan,nan,nan,nan,nan,0.0,nan,nan,nan,nan,nan,nan,nan,nan,nan,nan,nan,nan,nan,nan,nan,nan,nan,nan,786.1522517944686,828.1836154954508,nan,828.5436374822166,nan,nan,nan,nan
1,33,1,1,1.0,1.0,0.35887047345750034,0,nan,nan,nan,nan,nan,nan,nan,nan,nan,5,6,1,3,2,7,nan,nan,nan,nan,nan,nan,nan,nan,nan,nan,nan,nan,0.0,nan,nan,nan,nan,nan,nan,nan,nan,nan,nan,nan,nan,nan,nan,nan,nan,nan,nan,786.1522517944686,829.2087594845798,nan,829.5676299580373,nan,nan,nan,nan
1,34,1,1,1.0,1.0,0.29372999677434564,0,nan,nan,nan,nan,nan,nan,nan,nan,nan,1,3,5,2,8,4,nan,nan,nan,nan,nan,nan,nan,nan,nan,nan,nan,nan,0.0,nan,nan,nan,nan,nan,nan,nan,nan,nan,nan,nan,nan,nan,nan,nan,nan,nan,nan,786.1522517944686,830.2338715426158,nan,830.5276015393902,nan,nan,nan,nan
1,35,1,1,1.0,1.0,0.2525825658813119,0,nan,nan,nan,nan,nan,nan,nan,nan,nan,6,8,7,4,5,0,nan,nan,nan,nan,nan,nan,nan,nan,nan,nan,nan,nan,0.0,nan,nan,nan,nan,nan,nan,nan,nan,nan,nan,nan,nan,nan,nan,nan,nan,nan,nan,786.1522517944686,831.2590209485497,nan,831.511603514431,nan,nan,nan,nan
1,36,1,1,1.0,1.0,0.32343071745708585,0,nan,nan,nan,nan,nan,nan,nan,nan,nan,7,1,4,2,8,5,nan,nan,nan,nan,nan,nan,nan,nan,nan,nan,nan,nan,0.0,nan,nan,nan,nan,nan,nan,nan,nan,nan,nan,nan,nan,nan,nan,nan,nan,nan,nan,786.1522517944686,832.2841543888208,nan,832.6075851062778,nan,nan,nan,nan
1,37,0,0,0.0,1.0,0.3862989579793066,0,nan,nan,nan,nan,nan,nan,nan,nan,nan,0,4,5,8,3,7,nan,nan,nan,nan,nan,nan,nan,nan,nan,nan,nan,nan,0.0,nan,nan,nan,nan,nan,nan,nan,nan,nan,nan,nan,nan,nan,nan,nan,nan,nan,nan,786.1522517944686,833.3092787060887,nan,833.695577664068,nan,nan,nan,nan
1,38,1,1,1.0,1.0,0.31343686976470053,0,nan,nan,nan,nan,nan,nan,nan,nan,nan,3,2,0,6,7,4,nan,nan,nan,nan,nan,nan,nan,nan,nan,nan,nan,nan,0.0,nan,nan,nan,nan,nan,nan,nan,nan,nan,nan,nan,nan,nan,nan,nan,nan,nan,nan,786.1522517944686,834.3261197677348,nan,834.6395566374995,nan,nan,nan,nan
1,39,1,1,1.0,1.0,0.3042966073844582,0,nan,nan,nan,nan,nan,nan,nan,nan,nan,1,0,6,3,4,8,nan,nan,nan,nan,nan,nan,nan,nan,nan,nan,nan,nan,0.0,nan,nan,nan,nan,nan,nan,nan,nan,nan,nan,nan,nan,nan,nan,nan,nan,nan,nan,786.1522517944686,835.35123325116,nan,835.6555298585445,nan,nan,nan,nan
1,40,0,0,0.0,1.0,0.5031645947601646,0,nan,nan,nan,nan,nan,nan,nan,nan,nan,4,8,0,1,2,6,nan,nan,nan,nan,nan,nan,nan,nan,nan,nan,nan,nan,0.0,nan,nan,nan,nan,nan,nan,nan,nan,nan,nan,nan,nan,nan,nan,nan,nan,nan,nan,786.1522517944686,836.3763627002481,nan,836.8795272950083,nan,nan,nan,nan
1,41,1,1,1.0,1.0,0.31799417128786445,0,nan,nan,nan,nan,nan,nan,nan,nan,nan,2,7,6,0,4,3,nan,nan,nan,nan,nan,nan,nan,nan,nan,nan,nan,nan,0.0,nan,nan,nan,nan,nan,nan,nan,nan,nan,nan,nan,nan,nan,nan,nan,nan,nan,nan,786.1522517944686,837.401518948609,nan,837.7195131198969,nan,nan,nan,nan
1,42,1,1,1.0,1.0,0.6528359616640955,0,nan,nan,nan,nan,nan,nan,nan,nan,nan,3,8,7,6,0,2,nan,nan,nan,nan,nan,nan,nan,nan,nan,nan,nan,nan,0.0,nan,nan,nan,nan,nan,nan,nan,nan,nan,nan,nan,nan,nan,nan,nan,nan,nan,nan,786.1522517944686,838.4266538145021,nan,839.0794897761662,nan,nan,nan,nan
1,43,1,1,1.0,1.0,0.33968875207938254,0,nan,nan,nan,nan,nan,nan,nan,nan,nan,2,0,8,3,5,4,nan,nan,nan,nan,nan,nan,nan,nan,nan,nan,nan,nan,0.0,nan,nan,nan,nan,nan,nan,nan,nan,nan,nan,nan,nan,nan,nan,nan,nan,nan,nan,786.1522517944686,839.4517852591816,nan,839.791474011261,nan,nan,nan,nan
1,44,1,1,1.0,1.0,0.3144980068318546,0,nan,nan,nan,nan,nan,nan,nan,nan,nan,5,2,0,7,1,6,nan,nan,nan,nan,nan,nan,nan,nan,nan,nan,nan,nan,0.0,nan,nan,nan,nan,nan,nan,nan,nan,nan,nan,nan,nan,nan,nan,nan,nan,nan,nan,786.1522517944686,840.4769643153995,nan,840.7914623222314,nan,nan,nan,nan
1,45,1,1,1.0,1.0,0.35338403517380357,0,nan,nan,nan,nan,nan,nan,nan,nan,nan,4,6,8,2,7,1,nan,nan,nan,nan,nan,nan,nan,nan,nan,nan,nan,nan,0.0,nan,nan,nan,nan,nan,nan,nan,nan,nan,nan,nan,nan,nan,nan,nan,nan,nan,nan,786.1522517944686,841.5020641142037,nan,841.8554481493775,nan,nan,nan,nan
1,46,1,1,1.0,1.0,0.2965593156404793,0,nan,nan,nan,nan,nan,nan,nan,nan,nan,7,5,2,8,1,3,nan,nan,nan,nan,nan,nan,nan,nan,nan,nan,nan,nan,0.0,nan,nan,nan,nan,nan,nan,nan,nan,nan,nan,nan,nan,nan,nan,nan,nan,nan,nan,786.1522517944686,842.5188735297415,nan,842.815432845382,nan,nan,nan,nan
1,47,1,1,1.0,1.0,0.25540532753802836,0,nan,nan,nan,nan,nan,nan,nan,nan,nan,2,8,3,4,6,1,nan,nan,nan,nan,nan,nan,nan,nan,nan,nan,nan,nan,0.0,nan,nan,nan,nan,nan,nan,nan,nan,nan,nan,nan,nan,nan,nan,nan,nan,nan,nan,786.1522517944686,843.5440055446234,nan,843.7994108721614,nan,nan,nan,nan
1,48,1,1,1.0,1.0,0.2622833321802318,0,nan,nan,nan,nan,nan,nan,nan,nan,nan,5,7,8,1,0,3,nan,nan,nan,nan,nan,nan,nan,nan,nan,nan,nan,nan,0.0,nan,nan,nan,nan,nan,nan,nan,nan,nan,nan,nan,nan,nan,nan,nan,nan,nan,nan,786.1522517944686,844.5691341382917,nan,844.8314174704719,nan,nan,nan,nan
1,49,1,1,1.0,1.0,0.23708061268553138,0,nan,nan,nan,nan,nan,nan,nan,nan,nan,3,1,7,0,2,6,nan,nan,nan,nan,nan,nan,nan,nan,nan,nan,nan,nan,0.0,nan,nan,nan,nan,nan,nan,nan,nan,nan,nan,nan,nan,nan,nan,nan,nan,nan,nan,786.1522517944686,845.594299224671,nan,845.8313798373565,nan,nan,nan,nan
1,50,1,1,1.0,1.0,0.23592710378579795,0,nan,nan,nan,nan,nan,nan,nan,nan,nan,8,2,3,4,0,1,nan,nan,nan,nan,nan,nan,nan,nan,nan,nan,nan,nan,0.0,nan,nan,nan,nan,nan,nan,nan,nan,nan,nan,nan,nan,nan,nan,nan,nan,nan,nan,786.1522517944686,846.6194526220206,nan,846.8553797258064,nan,nan,nan,nan
1,51,1,1,1.0,1.0,0.282813569996506,0,nan,nan,nan,nan,nan,nan,nan,nan,nan,0,3,4,6,8,2,nan,nan,nan,nan,nan,nan,nan,nan,nan,nan,nan,nan,0.0,nan,nan,nan,nan,nan,nan,nan,nan,nan,nan,nan,nan,nan,nan,nan,nan,nan,nan,786.1522517944686,847.6445444379933,nan,847.9273580079898,nan,nan,nan,nan
1,52,1,1,1.0,1.0,0.2336676970589906,0,nan,nan,nan,nan,nan,nan,nan,nan,nan,2,4,8,5,0,7,nan,nan,nan,nan,nan,nan,nan,nan,nan,nan,nan,nan,0.0,nan,nan,nan,nan,nan,nan,nan,nan,nan,nan,nan,nan,nan,nan,nan,nan,nan,nan,786.1522517944686,848.6696750274859,nan,848.9033427245449,nan,nan,nan,nan
1,53,1,1,1.0,1.0,0.28850955585949123,0,nan,nan,nan,nan,nan,nan,nan,nan,nan,7,8,5,0,6,1,nan,nan,nan,nan,nan,nan,nan,nan,nan,nan,nan,nan,0.0,nan,nan,nan,nan,nan,nan,nan,nan,nan,nan,nan,nan,nan,nan,nan,nan,nan,nan,786.1522517944686,849.6948241482023,nan,849.9833337040618,nan,nan,nan,nan
1,54,1,1,1.0,1.0,0.335355537943542,0,nan,nan,nan,nan,nan,nan,nan,nan,nan,1,6,7,4,0,5,nan,nan,nan,nan,nan,nan,nan,nan,nan,nan,nan,nan,0.0,nan,nan,nan,nan,nan,nan,nan,nan,nan,nan,nan,nan,nan,nan,nan,nan,nan,nan,786.1522517944686,850.7199610099196,nan,851.0553165478632,nan,nan,nan,nan
1,55,0,0,1.0,0.0,0.3022045537363738,0,nan,nan,nan,nan,nan,nan,nan,nan,nan,4,3,0,1,5,6,nan,nan,nan,nan,nan,nan,nan,nan,nan,nan,nan,nan,0.0,nan,nan,nan,nan,nan,nan,nan,nan,nan,nan,nan,nan,nan,nan,nan,nan,nan,nan,786.1522517944686,851.7450935950037,nan,852.0472981487401,nan,nan,nan,nan
1,56,1,1,1.0,1.0,0.45305679901503026,0,nan,nan,nan,nan,nan,nan,nan,nan,nan,2,4,5,0,8,3,nan,nan,nan,nan,nan,nan,nan,nan,nan,nan,nan,nan,0.0,nan,nan,nan,nan,nan,nan,nan,nan,nan,nan,nan,nan,nan,nan,nan,nan,nan,nan,786.1522517944686,852.7702258951031,nan,853.2232826941181,nan,nan,nan,nan
1,57,1,1,1.0,1.0,0.4118951135315001,1,nan,nan,nan,nan,nan,nan,nan,nan,nan,3,0,6,8,2,5,1.0,1.0,1.0,1.0,1.0,1.0,1.0,0.0,1.0,1.0,0.0,1.0,4.0,3.0,5.0,6.0,8.0,4.0,5.0,1.0,3.0,4.0,5.0,6.0,2.0,1.7377523053437471,4.016260600881651,6.2222506371326745,8.358542039990425,9.646688094828278,2.7530700848437846,786.1522517944686,853.7953704542015,854.6037958601955,854.207265567733,865.3135477730539,866.3154835929163,855.6289384237025,865.3052134846803
1,58,1,1,1.0,1.0,0.42833133484236896,0,nan,nan,nan,nan,nan,nan,nan,nan,nan,4,3,0,7,5,6,nan,nan,nan,nan,nan,nan,nan,nan,nan,nan,nan,nan,0.0,nan,nan,nan,nan,nan,nan,nan,nan,nan,nan,nan,nan,nan,nan,nan,nan,nan,nan,786.1522517944686,866.5387466151733,nan,866.9670779500157,nan,nan,nan,nan
1,59,1,1,1.0,1.0,0.3071709719952196,1,nan,nan,nan,nan,nan,nan,nan,nan,nan,6,5,8,3,1,0,1.0,1.0,1.0,1.0,1.0,1.0,0.0,1.0,0.0,0.0,0.0,0.0,1.0,4.0,5.0,4.0,4.0,3.0,3.0,4.0,5.0,6.0,2.0,1.0,3.0,6.223221968160942,6.950646290089935,8.749950820347294,4.3594948393292725,3.536019646562636,5.342578511917964,786.1522517944686,867.5638823362533,868.3723000446334,867.8710533082485,878.1819359792862,879.1853047048207,869.3891034731641,878.1736088183243
1,60,1,1,1.0,1.0,0.5997411874122918,0,nan,nan,nan,nan,nan,nan,nan,nan,nan,1,2,3,8,7,5,nan,nan,nan,nan,nan,nan,nan,nan,nan,nan,nan,nan,0.0,nan,nan,nan,nan,nan,nan,nan,nan,nan,nan,nan,nan,nan,nan,nan,nan,nan,nan,786.1522517944686,879.4071422340348,nan,880.0068834214471,nan,nan,nan,nan
1,61,1,1,1.0,1.0,0.5745507273823023,0,nan,nan,nan,nan,nan,nan,nan,nan,nan,7,0,6,2,5,8,nan,nan,nan,nan,nan,nan,nan,nan,nan,nan,nan,nan,0.0,nan,nan,nan,nan,nan,nan,nan,nan,nan,nan,nan,nan,nan,nan,nan,nan,nan,nan,786.1522517944686,880.4322751041036,nan,881.0068258314859,nan,nan,nan,nan
1,62,0,0,0.0,1.0,0.5893385084345937,0,nan,nan,nan,nan,nan,nan,nan,nan,nan,6,7,2,4,3,0,nan,nan,nan,nan,nan,nan,nan,nan,nan,nan,nan,nan,0.0,nan,nan,nan,nan,nan,nan,nan,nan,nan,nan,nan,nan,nan,nan,nan,nan,nan,nan,786.1522517944686,881.4575083290692,nan,882.0468468375038,nan,nan,nan,nan
1,63,1,1,1.0,1.0,0.5162785619031638,0,nan,nan,nan,nan,nan,nan,nan,nan,nan,2,3,5,6,7,1,nan,nan,nan,nan,nan,nan,nan,nan,nan,nan,nan,nan,0.0,nan,nan,nan,nan,nan,nan,nan,nan,nan,nan,nan,nan,nan,nan,nan,nan,nan,nan,786.1522517944686,882.4825499677099,nan,882.9988285296131,nan,nan,nan,nan
1,64,1,1,1.0,1.0,0.33112895069643855,0,nan,nan,nan,nan,nan,nan,nan,nan,nan,7,0,1,5,2,3,nan,nan,nan,nan,nan,nan,nan,nan,nan,nan,nan,nan,0.0,nan,nan,nan,nan,nan,nan,nan,nan,nan,nan,nan,nan,nan,nan,nan,nan,nan,nan,786.1522517944686,883.5076859740075,nan,883.8388149247039,nan,nan,nan,nan
1,65,1,1,1.0,1.0,0.28200617083348334,0,nan,nan,nan,nan,nan,nan,nan,nan,nan,3,2,8,0,6,5,nan,nan,nan,nan,nan,nan,nan,nan,nan,nan,nan,nan,0.0,nan,nan,nan,nan,nan,nan,nan,nan,nan,nan,nan,nan,nan,nan,nan,nan,nan,nan,786.1522517944686,884.5327980320435,nan,884.814804202877,nan,nan,nan,nan
1,66,1,1,1.0,1.0,0.22483876231126487,0,nan,nan,nan,nan,nan,nan,nan,nan,nan,2,6,5,4,8,3,nan,nan,nan,nan,nan,nan,nan,nan,nan,nan,nan,nan,0.0,nan,nan,nan,nan,nan,nan,nan,nan,nan,nan,nan,nan,nan,nan,nan,nan,nan,nan,786.1522517944686,885.5579562762287,nan,885.7827950385399,nan,nan,nan,nan
1,67,1,1,1.0,1.0,0.23966873809695244,0,nan,nan,nan,nan,nan,nan,nan,nan,nan,8,4,1,6,3,7,nan,nan,nan,nan,nan,nan,nan,nan,nan,nan,nan,nan,0.0,nan,nan,nan,nan,nan,nan,nan,nan,nan,nan,nan,nan,nan,nan,nan,nan,nan,nan,786.1522517944686,886.5831068225671,nan,886.822775560664,nan,nan,nan,nan
1,68,1,1,1.0,1.0,0.1985369878821075,0,nan,nan,nan,nan,nan,nan,nan,nan,nan,4,5,0,7,8,3,nan,nan,nan,nan,nan,nan,nan,nan,nan,nan,nan,nan,0.0,nan,nan,nan,nan,nan,nan,nan,nan,nan,nan,nan,nan,nan,nan,nan,nan,nan,nan,786.1522517944686,887.6082362714224,nan,887.8067732593045,nan,nan,nan,nan
1,69,1,1,1.0,1.0,0.1493777153082192,0,nan,nan,nan,nan,nan,nan,nan,nan,nan,0,8,3,5,1,2,nan,nan,nan,nan,nan,nan,nan,nan,nan,nan,nan,nan,0.0,nan,nan,nan,nan,nan,nan,nan,nan,nan,nan,nan,nan,nan,nan,nan,nan,nan,nan,786.1522517944686,888.6333711373154,nan,888.7827488526236,nan,nan,nan,nan
1,70,1,1,1.0,1.0,0.20422926731407642,0,nan,nan,nan,nan,nan,nan,nan,nan,nan,5,6,0,3,4,7,nan,nan,nan,nan,nan,nan,nan,nan,nan,nan,nan,nan,0.0,nan,nan,nan,nan,nan,nan,nan,nan,nan,nan,nan,nan,nan,nan,nan,nan,nan,nan,786.1522517944686,889.6585162668489,nan,889.862745534163,nan,nan,nan,nan
1,71,1,1,1.0,1.0,0.22707165498286486,0,nan,nan,nan,nan,nan,nan,nan,nan,nan,4,8,1,7,2,6,nan,nan,nan,nan,nan,nan,nan,nan,nan,nan,nan,nan,0.0,nan,nan,nan,nan,nan,nan,nan,nan,nan,nan,nan,nan,nan,nan,nan,nan,nan,nan,786.1522517944686,890.6836440053303,nan,890.9107156603131,nan,nan,nan,nan
1,72,1,1,1.0,1.0,0.2179142867680639,0,nan,nan,nan,nan,nan,nan,nan,nan,nan,6,5,8,4,0,3,nan,nan,nan,nan,nan,nan,nan,nan,nan,nan,nan,nan,0.0,nan,nan,nan,nan,nan,nan,nan,nan,nan,nan,nan,nan,nan,nan,nan,nan,nan,nan,786.1522517944686,891.708789705066,nan,891.9267039918341,nan,nan,nan,nan
1,73,1,1,1.0,1.0,0.24877735460177064,0,nan,nan,nan,nan,nan,nan,nan,nan,nan,1,3,5,2,4,8,nan,nan,nan,nan,nan,nan,nan,nan,nan,nan,nan,nan,0.0,nan,nan,nan,nan,nan,nan,nan,nan,nan,nan,nan,nan,nan,nan,nan,nan,nan,nan,786.1522517944686,892.7339154477231,nan,892.9826928023249,nan,nan,nan,nan
1,74,1,1,1.0,1.0,0.20764332334510982,1,nan,nan,nan,nan,nan,nan,nan,nan,nan,6,2,3,5,0,1,1.0,1.0,1.0,1.0,1.0,1.0,0.0,0.0,0.0,0.0,0.0,0.0,0.0,5.0,5.0,1.0,4.0,6.0,8.0,1.0,6.0,5.0,4.0,3.0,2.0,1.3164859996177256,6.274972502142191,4.851469027576968,3.9956884533166885,3.052842176752165,2.3955350131727755,786.1522517944686,893.7590371991973,894.5674694473855,893.9666805225424,901.8934469509404,902.8969730506651,895.5759402981494,901.8851169389673
1,75,1,1,1.0,1.0,0.25593618117272854,0,nan,nan,nan,nan,nan,nan,nan,nan,nan,5,6,7,8,2,0,nan,nan,nan,nan,nan,nan,nan,nan,nan,nan,nan,nan,0.0,nan,nan,nan,nan,nan,nan,nan,nan,nan,nan,nan,nan,nan,nan,nan,nan,nan,nan,786.1522517944686,903.1186075897422,nan,903.3745437709149,nan,nan,nan,nan
1,76,1,1,1.0,1.0,0.30273398174904287,0,nan,nan,nan,nan,nan,nan,nan,nan,nan,1,4,2,7,8,5,nan,nan,nan,nan,nan,nan,nan,nan,nan,nan,nan,nan,0.0,nan,nan,nan,nan,nan,nan,nan,nan,nan,nan,nan,nan,nan,nan,nan,nan,nan,nan,786.1522517944686,904.1437775227241,nan,904.4465115044732,nan,nan,nan,nan
1,77,1,1,1.0,1.0,0.2695690277032554,0,nan,nan,nan,nan,nan,nan,nan,nan,nan,8,7,1,0,3,6,nan,nan,nan,nan,nan,nan,nan,nan,nan,nan,nan,nan,0.0,nan,nan,nan,nan,nan,nan,nan,nan,nan,nan,nan,nan,nan,nan,nan,nan,nan,nan,786.1522517944686,905.1689252180513,nan,905.4384942457546,nan,nan,nan,nan
1,78,0,0,1.0,0.0,0.2924290916416794,0,nan,nan,nan,nan,nan,nan,nan,nan,nan,7,6,5,4,0,2,nan,nan,nan,nan,nan,nan,nan,nan,nan,nan,nan,nan,0.0,nan,nan,nan,nan,nan,nan,nan,nan,nan,nan,nan,nan,nan,nan,nan,nan,nan,nan,786.1522517944686,906.1940549521241,nan,906.4864840437658,nan,nan,nan,nan
1,79,1,1,1.0,1.0,0.4192851549014449,0,nan,nan,nan,nan,nan,nan,nan,nan,nan,4,0,3,2,1,7,nan,nan,nan,nan,nan,nan,nan,nan,nan,nan,nan,nan,0.0,nan,nan,nan,nan,nan,nan,nan,nan,nan,nan,nan,nan,nan,nan,nan,nan,nan,nan,786.1522517944686,907.2191835460253,nan,907.6384687009268,nan,nan,nan,nan
1,80,0,0,0.0,1.0,0.4420987479388714,0,nan,nan,nan,nan,nan,nan,nan,nan,nan,1,7,4,6,8,2,nan,nan,nan,nan,nan,nan,nan,nan,nan,nan,nan,nan,0.0,nan,nan,nan,nan,nan,nan,nan,nan,nan,nan,nan,nan,nan,nan,nan,nan,nan,nan,786.1522517944686,908.244355189614,nan,908.6864539375529,nan,nan,nan,nan
1,81,1,1,1.0,1.0,0.3129427938256413,0,0.0,0.0,0.0,0.381918656785662,0.16732383936035125,0.21459481742531075,0.5492424961460133,0.16732383936035125,0.3914422322219859,6,8,7,4,3,1,nan,nan,nan,nan,nan,nan,nan,nan,nan,nan,nan,nan,0.0,nan,nan,nan,nan,nan,nan,nan,nan,nan,nan,nan,nan,nan,nan,nan,nan,nan,nan,786.1522517944686,909.269497753121,nan,909.5824405469466,nan,nan,nan,nan
1,82,1,1,1.0,1.0,0.3357692160643637,0,0.0,0.0,0.0,0.3810110796414512,0.16640510612286868,0.21460597351858252,0.5474161857643198,0.16640510612286868,0.3636035859429588,4,2,1,7,5,0,nan,nan,nan,nan,nan,nan,nan,nan,nan,nan,nan,nan,0.0,nan,nan,nan,nan,nan,nan,nan,nan,nan,nan,nan,nan,nan,nan,nan,nan,nan,nan,786.1522517944686,910.2946557120886,nan,910.6304249281529,nan,nan,nan,nan
1,83,1,1,1.0,1.0,0.3507004017010331,0,0.0,0.0,0.0,0.38042352297161885,0.16540035467648453,0.21502316829513432,0.5458238776481034,0.16540035467648453,0.33313747053034604,2,5,3,0,6,1,nan,nan,nan,nan,nan,nan,nan,nan,nan,nan,nan,nan,0.0,nan,nan,nan,nan,nan,nan,nan,nan,nan,nan,nan,nan,nan,nan,nan,nan,nan,nan,786.1522517944686,911.3197118907701,nan,911.6704122924712,nan,nan,nan,nan
1,84,1,1,1.0,1.0,0.3095198995433748,0,0.0,0.0,0.0,0.3800424573143037,0.16437069158493442,0.21567176572936927,0.5444131488992381,0.16437069158493442,0.33199650576959056,6,7,4,2,5,3,nan,nan,nan,nan,nan,nan,nan,nan,nan,nan,nan,nan,0.0,nan,nan,nan,nan,nan,nan,nan,nan,nan,nan,nan,nan,nan,nan,nan,nan,nan,nan,786.1522517944686,912.3448781175539,nan,912.6543980170973,nan,nan,nan,nan
1,85,1,1,1.0,1.0,0.2603660437744111,0,0.0,0.0,0.0,0.37914976670960837,0.16351723355908004,0.21563253315052833,0.5426670002686884,0.16351723355908004,0.306862115006273,5,2,1,7,6,0,nan,nan,nan,nan,nan,nan,nan,nan,nan,nan,nan,nan,0.0,nan,nan,nan,nan,nan,nan,nan,nan,nan,nan,nan,nan,nan,nan,nan,nan,nan,nan,786.1522517944686,913.3700229618698,nan,913.6303890056442,nan,nan,nan,nan
1,86,1,1,1.0,1.0,0.30720461369492114,0,0.0,0.0,0.0,0.3776649701729184,0.16302707486673343,0.21463789530618496,0.5406920450396518,0.16302707486673343,0.2923635190042357,1,4,3,5,7,2,nan,nan,nan,nan,nan,nan,nan,nan,nan,nan,nan,nan,0.0,nan,nan,nan,nan,nan,nan,nan,nan,nan,nan,nan,nan,nan,nan,nan,nan,nan,nan,786.1522517944686,914.3951492747292,nan,914.7023538884241,nan,nan,nan,nan
1,87,1,1,1.0,1.0,0.2733377465046942,0,0.0,0.0,0.0,0.3767950892287456,0.16220431944142283,0.21459076978732278,0.5389994086701684,0.16220431944142283,0.2803028013246755,8,5,7,0,1,3,nan,nan,nan,nan,nan,nan,nan,nan,nan,nan,nan,nan,0.0,nan,nan,nan,nan,nan,nan,nan,nan,nan,nan,nan,nan,nan,nan,nan,nan,nan,nan,786.1522517944686,915.4370145839639,nan,915.7103523304686,nan,nan,nan,nan
1,88,1,1,1.0,1.0,0.5522520227823406,0,0.0,0.0,0.0,0.37553341431747667,0.1616116405306888,0.21392177378678787,0.5371450548481654,0.1616116405306888,0.377598127660652,5,2,3,8,7,0,nan,nan,nan,nan,nan,nan,nan,nan,nan,nan,nan,nan,0.0,nan,nan,nan,nan,nan,nan,nan,nan,nan,nan,nan,nan,nan,nan,nan,nan,nan,nan,786.1522517944686,916.4620815962553,nan,917.0143336190376,nan,nan,nan,nan
1,89,1,1,1.0,1.0,0.3910814872942865,0,0.0,0.0,0.0,0.37766255417849914,0.16178803778199774,0.2158745163965014,0.5394505919604968,0.16178803778199774,0.4055570855271071,8,1,2,5,6,3,nan,nan,nan,nan,nan,nan,nan,nan,nan,nan,nan,nan,0.0,nan,nan,nan,nan,nan,nan,nan,nan,nan,nan,nan,nan,nan,nan,nan,nan,nan,nan,786.1522517944686,917.4872415510472,nan,917.8783230383415,nan,nan,nan,nan
1,90,1,1,1.0,1.0,0.31792546273209155,0,0.0,0.0,0.0,0.37782230338225853,0.16082871564397708,0.21699358773828145,0.5386510190262356,0.16082871564397708,0.4204196576029062,0,7,6,1,5,2,nan,nan,nan,nan,nan,nan,nan,nan,nan,nan,nan,nan,0.0,nan,nan,nan,nan,nan,nan,nan,nan,nan,nan,nan,nan,nan,nan,nan,nan,nan,nan,786.1522517944686,918.5123729957268,nan,918.8302984584589,nan,nan,nan,nan
1,91,1,1,1.0,1.0,0.3247971951495856,0,0.0,0.0,0.0,0.3771176346687271,0.16001025662891258,0.21710737803981453,0.5371278912976397,0.16001025662891258,0.34460138172532123,4,0,1,2,6,8,nan,nan,nan,nan,nan,nan,nan,nan,nan,nan,nan,nan,0.0,nan,nan,nan,nan,nan,nan,nan,nan,nan,nan,nan,nan,nan,nan,nan,nan,nan,nan,786.1522517944686,919.5374970277771,nan,919.8622942229267,nan,nan,nan,nan
1,92,1,1,1.0,1.0,0.29963182378560305,0,0.0,0.0,0.0,0.3765092574650162,0.15917609771033953,0.21733315975467665,0.5356853551753558,0.15917609771033953,0.3141181605557601,6,5,8,1,2,4,nan,nan,nan,nan,nan,nan,nan,nan,nan,nan,nan,nan,0.0,nan,nan,nan,nan,nan,nan,nan,nan,nan,nan,nan,nan,nan,nan,nan,nan,nan,nan,786.1522517944686,920.5626307532657,nan,920.8622625770513,nan,nan,nan,nan
1,93,1,1,1.0,1.0,0.25846814224496484,0,0.0,0.0,0.0,0.37562560880203444,0.15847066497615675,0.2171549438258777,0.5340962737781911,0.15847066497615675,0.29429905372671783,2,7,4,6,3,1,nan,nan,nan,nan,nan,nan,nan,nan,nan,nan,nan,nan,0.0,nan,nan,nan,nan,nan,nan,nan,nan,nan,nan,nan,nan,nan,nan,nan,nan,nan,nan,786.1522517944686,921.5877818698063,nan,921.8462500120513,nan,nan,nan,nan
1,94,1,1,1.0,1.0,0.21731814555823803,0,0.0,0.0,0.0,0.374294273954795,0.1580562576195344,0.21623801633526057,0.5323505315743293,0.1580562576195344,0.2584727038629353,8,3,5,1,7,0,nan,nan,nan,nan,nan,nan,nan,nan,nan,nan,nan,nan,0.0,nan,nan,nan,nan,nan,nan,nan,nan,nan,nan,nan,nan,nan,nan,nan,nan,nan,nan,786.1522517944686,922.6129164507147,nan,922.8302345962729,nan,nan,nan,nan
1,95,1,1,1.0,1.0,0.2161791764665395,0,0.0,0.0,0.0,0.37253049723123816,0.15803432013978438,0.21449617709145377,0.5305648173710226,0.15803432013978438,0.2306551547565808,5,6,4,8,2,7,nan,nan,nan,nan,nan,nan,nan,nan,nan,nan,nan,nan,0.0,nan,nan,nan,nan,nan,nan,nan,nan,nan,nan,nan,nan,nan,nan,nan,nan,nan,nan,786.1522517944686,923.6380484655965,nan,923.854227642063,nan,nan,nan,nan
1,96,1,1,1.0,1.0,0.29503603372722864,0,0.0,0.0,0.0,0.3707932603338526,0.15800616867927733,0.2127870916545753,0.5287994290131299,0.15800616867927733,0.2428444519173354,8,4,0,2,3,6,nan,nan,nan,nan,nan,nan,nan,nan,nan,nan,nan,nan,0.0,nan,nan,nan,nan,nan,nan,nan,nan,nan,nan,nan,nan,nan,nan,nan,nan,nan,nan,786.1522517944686,924.6631665106397,nan,924.9582025443669,nan,nan,nan,nan
1,97,1,1,1.0,1.0,0.2858661210630089,0,0.0,0.0,0.0,0.36996076333817546,0.15733395330109518,0.21262681003708028,0.5272947166392706,0.15733395330109518,0.26569377708559233,3,7,5,8,2,4,nan,nan,nan,nan,nan,nan,nan,nan,nan,nan,nan,nan,0.0,nan,nan,nan,nan,nan,nan,nan,nan,nan,nan,nan,nan,nan,nan,nan,nan,nan,nan,786.1522517944686,925.6883296014275,nan,925.9741957224905,nan,nan,nan,nan
1,98,0,0,1.0,0.0,0.29302665847353637,0,0.0,0.0,0.0,0.3690466911395323,0.1567193063585959,0.2123273847809364,0.5257659974981282,0.1567193063585959,0.291309604421258,4,6,8,3,0,2,nan,nan,nan,nan,nan,nan,nan,nan,nan,nan,nan,nan,0.0,nan,nan,nan,nan,nan,nan,nan,nan,nan,nan,nan,nan,nan,nan,nan,nan,nan,nan,786.1522517944686,926.7051455741748,nan,926.9981722326484,nan,nan,nan,nan
1,99,1,1,1.0,1.0,0.4838981991633773,0,0.0,0.0,0.0,0.36822927143344636,0.15607151227457491,0.21215775915887145,0.5243007837080212,0.15607151227457491,0.35426365956664085,8,3,6,1,7,0,nan,nan,nan,nan,nan,nan,nan,nan,nan,nan,nan,nan,0.0,nan,nan,nan,nan,nan,nan,nan,nan,nan,nan,nan,nan,nan,nan,nan,nan,nan,nan,786.1522517944686,927.7302564918064,nan,928.2141546909697,nan,nan,nan,nan
1,100,1,1,1.0,1.0,0.4747422565706074,0,0.0,0.0,0.0,0.3694597919412116,0.1556920188041763,0.2137677731370353,0.5251518107453879,0.1556920188041763,0.417222371402507,4,0,3,8,5,1,nan,nan,nan,nan,nan,nan,nan,nan,nan,nan,nan,nan,0.0,nan,nan,nan,nan,nan,nan,nan,nan,nan,nan,nan,nan,nan,nan,nan,nan,nan,nan,786.1522517944686,928.7554013361223,nan,929.2301435926929,nan,nan,nan,nan
1,101,1,1,1.0,1.0,0.42559695383533835,0,0.0,0.0,0.0,0.3705680284109947,0.15524270177294675,0.21532532663804793,0.5258107301839414,0.15524270177294675,0.461412469856441,5,1,2,0,8,3,nan,nan,nan,nan,nan,nan,nan,nan,nan,nan,nan,nan,0.0,nan,nan,nan,nan,nan,nan,nan,nan,nan,nan,nan,nan,nan,nan,nan,nan,nan,nan,786.1522517944686,929.7805419040378,nan,930.2061388578732,nan,nan,nan,nan
1,102,0,0,1.0,0.0,0.35245689447037876,0,0.0,0.0,0.0,0.37114124638416496,0.15453306018224733,0.21660818620191763,0.5256743065664122,0.15453306018224733,0.4175987016254415,6,3,7,1,4,2,nan,nan,nan,nan,nan,nan,nan,nan,nan,nan,nan,nan,0.0,nan,nan,nan,nan,nan,nan,nan,nan,nan,nan,nan,nan,nan,nan,nan,nan,nan,nan,786.1522517944686,930.8056548174936,nan,931.158111711964,nan,nan,nan,nan
1,103,1,1,1.0,1.0,0.4392928071320057,0,0.0,0.0,0.0,0.3709486241994867,0.15374601857748665,0.21720260562200006,0.5246946427769734,0.15374601857748665,0.40578221847924095,7,0,5,4,3,8,nan,nan,nan,nan,nan,nan,nan,nan,nan,nan,nan,nan,0.0,nan,nan,nan,nan,nan,nan,nan,nan,nan,nan,nan,nan,nan,nan,nan,nan,nan,nan,786.1522517944686,931.8308047936298,nan,932.2700976007618,nan,nan,nan,nan
1,104,1,1,1.0,1.0,0.46210668515414,0,0.0,0.0,0.0,0.3716460138212471,0.15311372234103263,0.2185322914802145,0.5247597361622798,0.15311372234103263,0.4179521289188415,5,4,6,3,1,0,nan,nan,nan,nan,nan,nan,nan,nan,nan,nan,nan,nan,0.0,nan,nan,nan,nan,nan,nan,nan,nan,nan,nan,nan,nan,nan,nan,nan,nan,nan,nan,786.1522517944686,932.8559678841848,nan,933.3180745693389,nan,nan,nan,nan
1,105,1,1,1.0,1.0,0.4049803309608251,0,0.0,0.0,0.0,0.37255975797612484,0.1526067782535123,0.21995297972261255,0.5251665362296372,0.1526067782535123,0.4354599410823236,8,0,4,5,6,2,nan,nan,nan,nan,nan,nan,nan,nan,nan,nan,nan,nan,0.0,nan,nan,nan,nan,nan,nan,nan,nan,nan,nan,nan,nan,nan,nan,nan,nan,nan,nan,786.1522517944686,933.8810916312505,nan,934.2860719622113,nan,nan,nan,nan
1,106,1,1,1.0,1.0,0.555806347168982,0,0.0,0.0,0.0,0.3728839637059718,0.15187608866243169,0.22100787504354014,0.5247600523684035,0.15187608866243169,0.4742977877613157,0,4,3,7,8,1,nan,nan,nan,nan,nan,nan,nan,nan,nan,nan,nan,nan,0.0,nan,nan,nan,nan,nan,nan,nan,nan,nan,nan,nan,nan,nan,nan,nan,nan,nan,nan,786.1522517944686,934.9062350501772,nan,935.4620413973462,nan,nan,nan,nan
1,107,0,0,0.0,1.0,0.4826910914853215,0,0.0,0.0,0.0,0.3746950764135264,0.1522037435969808,0.2224913328165456,0.5268988200105071,0.1522037435969808,0.4811592565383762,2,3,0,6,7,5,nan,nan,nan,nan,nan,nan,nan,nan,nan,nan,nan,nan,0.0,nan,nan,nan,nan,nan,nan,nan,nan,nan,nan,nan,nan,nan,nan,nan,nan,nan,nan,786.1522517944686,935.9313388403971,nan,936.4140299318824,nan,nan,nan,nan
1,108,1,1,1.0,1.0,0.4175015778746456,0,0.0,0.0,0.0,0.37575386087501456,0.1518291328972974,0.22392472797771715,0.527582993772312,0.1518291328972974,0.4853330055096497,0,8,3,2,5,6,nan,nan,nan,nan,nan,nan,nan,nan,nan,nan,nan,nan,0.0,nan,nan,nan,nan,nan,nan,nan,nan,nan,nan,nan,nan,nan,nan,nan,nan,nan,nan,786.1522517944686,936.9565104839858,nan,937.3740120618604,nan,nan,nan,nan
1,109,1,1,1.0,1.0,0.6003541497047991,0,0.0,0.0,0.0,0.3761591785157877,0.15114574338644812,0.22501343512933955,0.5273049219022358,0.15114574338644812,0.5001822730215887,4,5,6,3,1,2,nan,nan,nan,nan,nan,nan,nan,nan,nan,nan,nan,nan,0.0,nan,nan,nan,nan,nan,nan,nan,nan,nan,nan,nan,nan,nan,nan,nan,nan,nan,nan,786.1522517944686,937.9816399328411,nan,938.5819940825459,nan,nan,nan,nan
1,110,0,0,0.0,1.0,0.6071052853949368,0,0.0,0.0,0.0,0.3783148993926051,0.15200008745386848,0.22631481193873662,0.5303149868464736,0.15200008745386848,0.5416536709914604,7,2,3,4,5,6,nan,nan,nan,nan,nan,nan,nan,nan,nan,nan,nan,nan,0.0,nan,nan,nan,nan,nan,nan,nan,nan,nan,nan,nan,nan,nan,nan,nan,nan,nan,nan,786.1522517944686,939.0068725876044,nan,939.6139778729994,nan,nan,nan,nan
1,111,1,1,1.0,1.0,0.4380509175825864,1,0.0,1.0,1.0,0.38049385544977016,0.1528978894080869,0.22759596604168325,0.5333917448578571,0.1528978894080869,0.5485034508941075,2,6,5,0,7,4,1.0,1.0,1.0,1.0,1.0,1.0,0.0,0.0,0.0,1.0,0.0,0.0,1.0,3.0,1.0,1.0,0.0,5.0,6.0,4.0,5.0,6.0,1.0,2.0,3.0,4.281330486759543,4.928937169257551,5.9607270925771445,1.7951272651553154,2.5228680465370417,3.386263035237789,786.1522517944686,940.0319222090766,940.8403364962433,940.4699731266592,947.8662314349785,948.8695003760513,941.8654770641588,947.8578965764027
1,112,1,1,1.0,1.0,0.6023866178002208,0,0.0,0.0,0.0,0.3810368466019666,0.15227664880940028,0.2287601977925663,0.5333134954113669,0.15227664880940028,0.549180940259248,1,4,0,6,2,3,nan,nan,nan,nan,nan,nan,nan,nan,nan,nan,nan,nan,0.0,nan,nan,nan,nan,nan,nan,nan,nan,nan,nan,nan,nan,nan,nan,nan,nan,nan,nan,786.1522517944686,949.091457646573,nan,949.6938442643732,nan,nan,nan,nan
1,113,1,1,nan,nan,nan,0,0.0,0.0,0.0,0.0,0.0,0.0,0.0,0.0,0.0,5,2,7,4,0,6,nan,nan,nan,nan,nan,nan,nan,nan,nan,nan,nan,nan,0.0,nan,nan,nan,nan,nan,nan,nan,nan,nan,nan,nan,nan,nan,nan,nan,nan,nan,nan,786.1522517944686,950.1166042014956,nan,nan,nan,nan,nan,nan
1,114,1,1,1.0,1.0,0.7520793669391423,1,0.0,1.0,1.0,0.38310553605241754,0.1530525736187288,0.23005296243368875,0.5361581096711463,0.1530525736187288,0.6772329923696816,2,3,0,1,4,8,1.0,1.0,1.0,1.0,1.0,1.0,1.0,0.0,0.0,0.0,0.0,0.0,1.0,2.0,0.0,5.0,3.0,6.0,0.0,1.0,3.0,6.0,5.0,4.0,2.0,1.1568059602286667,3.172238919651136,7.83533130469732,4.954767105868086,4.116289452649653,2.1633461229503155,786.1522517944686,951.1417330803815,951.9501544949599,951.8938124473207,960.8429987472482,961.8485499029048,952.9669587786775,960.8346789989155
1,115,1,1,1.0,1.0,0.5774476146325469,0,0.0,0.0,0.0,0.3865219604124798,0.1563876291008864,0.23013433131159342,0.5429095895133662,0.1563876291008864,0.6647634907858446,7,1,3,8,0,4,nan,nan,nan,nan,nan,nan,nan,nan,nan,nan,nan,nan,0.0,nan,nan,nan,nan,nan,nan,nan,nan,nan,nan,nan,nan,nan,nan,nan,nan,nan,nan,786.1522517944686,962.0681916021276,nan,962.6456392167602,nan,nan,nan,nan
1,116,1,1,1.0,1.0,0.4722767237108201,0,0.0,0.0,0.0,0.3882735719190859,0.15672929843641834,0.23154427348266757,0.5450028703555042,0.15672929843641834,0.6006012350941697,0,7,2,6,4,8,nan,nan,nan,nan,nan,nan,nan,nan,nan,nan,nan,nan,0.0,nan,nan,nan,nan,nan,nan,nan,nan,nan,nan,nan,nan,nan,nan,nan,nan,nan,nan,786.1522517944686,963.0933461398818,nan,963.5656228635926,nan,nan,nan,nan
1,117,1,1,1.0,1.0,0.447053762152791,0,0.0,0.0,0.0,0.3890372369353744,0.15621885391320844,0.23281838302216595,0.5452560908485828,0.15621885391320844,0.49892603349871933,3,1,4,5,0,6,nan,nan,nan,nan,nan,nan,nan,nan,nan,nan,nan,nan,0.0,nan,nan,nan,nan,nan,nan,nan,nan,nan,nan,nan,nan,nan,nan,nan,nan,nan,nan,786.1522517944686,964.1185699566267,nan,964.5656237187795,nan,nan,nan,nan
1,118,1,1,1.0,1.0,0.2939803134649992,0,0.0,0.0,0.0,0.3895599083337295,0.15561015994862124,0.23394974838510826,0.5451700682823507,0.15561015994862124,0.40443693310953677,0,7,2,3,5,4,nan,nan,nan,nan,nan,nan,nan,nan,nan,nan,nan,nan,0.0,nan,nan,nan,nan,nan,nan,nan,nan,nan,nan,nan,nan,nan,nan,nan,nan,nan,nan,786.1522517944686,965.1436175822746,nan,965.4375978957396,nan,nan,nan,nan
1,119,1,1,1.0,1.0,0.3088413649238646,0,0.0,0.0,0.0,0.38870651909383014,0.15517460847589779,0.23353191061793235,0.543881127569728,0.15517460847589779,0.3499584801805516,6,1,3,4,2,5,nan,nan,nan,nan,nan,nan,nan,nan,nan,nan,nan,nan,0.0,nan,nan,nan,nan,nan,nan,nan,nan,nan,nan,nan,nan,nan,nan,nan,nan,nan,nan,786.1522517944686,966.1687447505537,nan,966.4775861154776,nan,nan,nan,nan
1,120,1,1,1.0,1.0,0.3316994330380112,0,0.0,0.0,0.0,0.38799974781798974,0.15466743704879,0.23333231076919975,0.5426671848667797,0.15466743704879,0.31150703714229167,2,4,7,8,6,0,nan,nan,nan,nan,nan,nan,nan,nan,nan,nan,nan,nan,0.0,nan,nan,nan,nan,nan,nan,nan,nan,nan,nan,nan,nan,nan,nan,nan,nan,nan,nan,786.1522517944686,967.1938799016643,nan,967.5255793347023,nan,nan,nan,nan
1,121,1,1,1.0,1.0,0.2985370447859168,0,0.0,0.0,0.0,0.38750588540763903,0.1540770409437356,0.23342884446390344,0.5415829263513746,0.1540770409437356,0.31302594758259755,6,0,5,7,8,3,nan,nan,nan,nan,nan,nan,nan,nan,nan,nan,nan,nan,0.0,nan,nan,nan,nan,nan,nan,nan,nan,nan,nan,nan,nan,nan,nan,nan,nan,nan,nan,786.1522517944686,968.2190170483664,nan,968.5175540931523,nan,nan,nan,nan
1,122,0,0,0.0,1.0,0.7293826646637172,0,0.0,0.0,0.0,0.3867322433152762,0.15362790628525577,0.23310433703002045,0.540360149600532,0.15362790628525577,0.45320638082921505,3,5,1,0,7,8,nan,nan,nan,nan,nan,nan,nan,nan,nan,nan,nan,nan,0.0,nan,nan,nan,nan,nan,nan,nan,nan,nan,nan,nan,nan,nan,nan,nan,nan,nan,nan,786.1522517944686,969.2441521992441,nan,969.9735348639078,nan,nan,nan,nan
1,123,1,1,1.0,1.0,0.7842159701976925,1,0.0,1.0,1.0,0.3896861262579352,0.15620978171550742,0.23347634454242777,0.5458959079734427,0.15620978171550742,0.6040452265491089,6,0,8,2,5,3,1.0,1.0,1.0,1.0,1.0,1.0,1.0,1.0,1.0,0.0,0.0,0.0,3.0,6.0,0.0,8.0,5.0,1.0,2.0,4.0,1.0,2.0,3.0,6.0,5.0,4.7873694463633,1.2367065635044128,2.0831262092106044,3.0275473706424236,7.64299464202486,6.988066056277603,786.1522517944686,970.2692919119727,971.0777056287043,971.0535078821704,979.7788675196934,980.7866544188,972.0945196058601,979.7705443501472
1,124,1,1,1.0,1.0,0.32898215809836984,0,0.0,0.0,0.0,0.39305817620613825,0.15972457459178596,0.2333336016143523,0.5527827507979242,0.15972457459178596,0.6141935976532599,5,3,1,4,2,6,nan,nan,nan,nan,nan,nan,nan,nan,nan,nan,nan,nan,0.0,nan,nan,nan,nan,nan,nan,nan,nan,nan,nan,nan,nan,nan,nan,nan,nan,nan,nan,786.1522517944686,981.0123943779618,nan,981.3413765360601,nan,nan,nan,nan
1,125,1,1,1.0,1.0,0.28780080028809607,0,0.0,0.0,0.0,0.3925151591035301,0.15915475599427592,0.23336040310925416,0.5516699150978059,0.15915475599427592,0.4669996428613861,0,1,2,5,3,8,nan,nan,nan,nan,nan,nan,nan,nan,nan,nan,nan,nan,0.0,nan,nan,nan,nan,nan,nan,nan,nan,nan,nan,nan,nan,nan,nan,nan,nan,nan,nan,786.1522517944686,982.037542643724,nan,982.3253434440121,nan,nan,nan,nan
1,126,1,1,1.0,1.0,0.2626656494103372,0,0.0,0.0,0.0,0.39163520650844236,0.15877262541688936,0.232862581091553,0.5504078319253317,0.15877262541688936,0.2931495359322677,8,0,6,7,5,2,nan,nan,nan,nan,nan,nan,nan,nan,nan,nan,nan,nan,0.0,nan,nan,nan,nan,nan,nan,nan,nan,nan,nan,nan,nan,nan,nan,nan,nan,nan,nan,786.1522517944686,983.0626780798193,nan,983.3253437292296,nan,nan,nan,nan
1,127,1,1,1.0,1.0,0.3735248283483088,0,0.0,0.0,0.0,0.3905604601992915,0.15854377366975156,0.23201668652953997,0.5491042338690431,0.15854377366975156,0.30799709268224734,5,3,8,0,6,4,nan,nan,nan,nan,nan,nan,nan,nan,nan,nan,nan,nan,0.0,nan,nan,nan,nan,nan,nan,nan,nan,nan,nan,nan,nan,nan,nan,nan,nan,nan,nan,786.1522517944686,984.0877921334468,nan,984.4613169617951,nan,nan,nan,nan
1,128,1,1,1.0,1.0,0.34033050923608243,0,0.0,0.0,0.0,0.39041966985341564,0.15789480739904885,0.2325248624543668,0.5483144772524645,0.15789480739904885,0.3255069956649095,1,6,2,4,8,0,nan,nan,nan,nan,nan,nan,nan,nan,nan,nan,nan,nan,0.0,nan,nan,nan,nan,nan,nan,nan,nan,nan,nan,nan,nan,nan,nan,nan,nan,nan,nan,786.1522517944686,985.1129546537995,nan,985.4532851630356,nan,nan,nan,nan
1,129,1,1,1.0,1.0,0.31518851569853723,0,0.0,0.0,0.0,0.3900091029631096,0.15731120752789615,0.23269789543521344,0.5473203104910057,0.15731120752789615,0.34301461776097614,6,7,5,3,0,8,nan,nan,nan,nan,nan,nan,nan,nan,nan,nan,nan,nan,0.0,nan,nan,nan,nan,nan,nan,nan,nan,nan,nan,nan,nan,nan,nan,nan,nan,nan,nan,786.1522517944686,986.1380920857191,nan,986.4532806014176,nan,nan,nan,nan
1,130,1,1,1.0,1.0,0.321935374988243,0,0.0,0.0,0.0,0.3894008055056741,0.15681443025103212,0.23258637525464196,0.5462152357567062,0.15681443025103212,0.3258181333076209,2,6,4,5,7,3,nan,nan,nan,nan,nan,nan,nan,nan,nan,nan,nan,nan,0.0,nan,nan,nan,nan,nan,nan,nan,nan,nan,nan,nan,nan,nan,nan,nan,nan,nan,nan,786.1522517944686,987.1633438421413,nan,987.4852792171296,nan,nan,nan,nan
1,131,1,1,1.0,1.0,0.34489322756417096,0,0.0,0.0,0.0,0.3888567294531141,0.15629735511531576,0.23255937433779836,0.5451540845684298,0.15629735511531576,0.3273390394169837,5,7,6,0,8,4,nan,nan,nan,nan,nan,nan,nan,nan,nan,nan,nan,nan,0.0,nan,nan,nan,nan,nan,nan,nan,nan,nan,nan,nan,nan,nan,nan,nan,nan,nan,nan,786.1522517944686,988.1883720811456,nan,988.5332653087098,nan,nan,nan,nan
1,132,1,1,1.0,1.0,0.29574393341317773,0,0.0,0.0,0.0,0.3885050214380026,0.1557201686608822,0.23278485277712038,0.5442251900988848,0.1557201686608822,0.3208575119885306,7,8,2,1,5,3,nan,nan,nan,nan,nan,nan,nan,nan,nan,nan,nan,nan,0.0,nan,nan,nan,nan,nan,nan,nan,nan,nan,nan,nan,nan,nan,nan,nan,nan,nan,nan,786.1522517944686,989.2135063768364,nan,989.5092503102496,nan,nan,nan,nan
1,133,0,0,1.0,0.0,0.3425853541120887,0,0.0,0.0,0.0,0.38776882232669446,0.15531924866638752,0.23244957366030694,0.543088070993082,0.15531924866638752,0.32774083836314577,3,0,5,8,2,6,nan,nan,nan,nan,nan,nan,nan,nan,nan,nan,nan,nan,0.0,nan,nan,nan,nan,nan,nan,nan,nan,nan,nan,nan,nan,nan,nan,nan,nan,nan,nan,786.1522517944686,990.2386452341452,nan,990.5812305882573,nan,nan,nan,nan
1,134,1,1,1.0,1.0,0.3733973891939968,0,0.0,0.0,0.0,0.387413046986422,0.1547580831320774,0.2326549638543446,0.5421711301184994,0.1547580831320774,0.33724222557308775,5,1,4,0,3,7,nan,nan,nan,nan,nan,nan,nan,nan,nan,nan,nan,nan,0.0,nan,nan,nan,nan,nan,nan,nan,nan,nan,nan,nan,nan,nan,nan,nan,nan,nan,nan,786.1522517944686,991.2638126013335,nan,991.6372099905275,nan,nan,nan,nan
1,135,1,1,1.0,1.0,0.34029088052920997,0,0.0,0.0,0.0,0.38730354965991864,0.15415731284893838,0.23314623681098026,0.541460862508857,0.15415731284893838,0.35209120794509846,6,4,3,2,8,1,nan,nan,nan,nan,nan,nan,nan,nan,nan,nan,nan,nan,0.0,nan,nan,nan,nan,nan,nan,nan,nan,nan,nan,nan,nan,nan,nan,nan,nan,nan,nan,786.1522517944686,992.2889115447178,nan,992.6292024252471,nan,nan,nan,nan
1,136,1,1,1.0,1.0,0.2671473999507725,0,0.0,0.0,0.0,0.38693911036433176,0.15361398634263915,0.23332512402169261,0.5405530967069709,0.15361398634263915,0.32694522322465974,4,3,0,1,7,8,nan,nan,nan,nan,nan,nan,nan,nan,nan,nan,nan,nan,0.0,nan,nan,nan,nan,nan,nan,nan,nan,nan,nan,nan,nan,nan,nan,nan,nan,nan,nan,786.1522517944686,993.3140563890338,nan,993.5812037889846,nan,nan,nan,nan
1,137,1,1,1.0,1.0,0.34598829154856503,0,0.0,0.0,0.0,0.38601763566884284,0.1533795141286376,0.23263812154020524,0.5393971497974804,0.1533795141286376,0.3178088573428492,1,5,4,7,8,0,nan,nan,nan,nan,nan,nan,nan,nan,nan,nan,nan,nan,0.0,nan,nan,nan,nan,nan,nan,nan,nan,nan,nan,nan,nan,nan,nan,nan,nan,nan,nan,786.1522517944686,994.3391875487287,nan,994.6851758402772,nan,nan,nan,nan
1,138,1,1,1.0,1.0,0.34485302888788283,0,0.0,0.0,0.0,0.3857120681564743,0.1528326908593958,0.2328793772970785,0.5385447590158701,0.1528326908593958,0.3193295734624068,6,4,8,3,0,5,nan,nan,nan,nan,nan,nan,nan,nan,nan,nan,nan,nan,0.0,nan,nan,nan,nan,nan,nan,nan,nan,nan,nan,nan,nan,nan,nan,nan,nan,nan,nan,786.1522517944686,995.3642970407382,nan,995.709150069626,nan,nan,nan,nan
1,139,1,1,1.0,1.0,0.4076391609851271,0,0.0,0.0,0.0,0.3854025299801971,0.15229389267398188,0.2331086373062152,0.5376964226541789,0.15229389267398188,0.3661601604738583,5,8,1,6,2,4,nan,nan,nan,nan,nan,nan,nan,nan,nan,nan,nan,nan,0.0,nan,nan,nan,nan,nan,nan,nan,nan,nan,nan,nan,nan,nan,nan,nan,nan,nan,nan,786.1522517944686,996.3895097386558,nan,996.7971488996409,nan,nan,nan,nan
1,140,1,1,1.0,1.0,0.342524342937395,0,0.0,0.0,0.0,0.3855697226945199,0.15173243853991045,0.23383728415460944,0.5373021612344303,0.15173243853991045,0.3650055109368016,4,6,8,3,5,1,nan,nan,nan,nan,nan,nan,nan,nan,nan,nan,nan,nan,0.0,nan,nan,nan,nan,nan,nan,nan,nan,nan,nan,nan,nan,nan,nan,nan,nan,nan,nan,786.1522517944686,997.4145935720298,nan,997.7571179149672,nan,nan,nan,nan
1,141,1,1,1.0,1.0,0.32537936652079225,0,0.0,0.0,0.0,0.3852484885172279,0.1512106012203906,0.23403788729683733,0.5364590897376185,0.1512106012203906,0.3585142901477714,5,3,7,0,1,6,nan,nan,nan,nan,nan,nan,nan,nan,nan,nan,nan,nan,0.0,nan,nan,nan,nan,nan,nan,nan,nan,nan,nan,nan,nan,nan,nan,nan,nan,nan,nan,786.1522517944686,998.4397361355368,nan,998.7651155020576,nan,nan,nan,nan
1,142,1,1,1.0,1.0,0.5882400234695524,0,0.0,0.0,0.0,0.38480501353947655,0.1507369628238386,0.23406805071563794,0.5355419763633151,0.1507369628238386,0.41871457764257985,7,8,5,1,3,2,nan,nan,nan,nan,nan,nan,nan,nan,nan,nan,nan,nan,0.0,nan,nan,nan,nan,nan,nan,nan,nan,nan,nan,nan,nan,nan,nan,nan,nan,nan,nan,786.1522517944686,999.4648450573441,nan,1000.0530850808136,nan,nan,nan,nan
1,143,1,1,1.0,1.0,0.5070664549712092,0,0.0,0.0,0.0,0.3863008592007271,0.15118409625624687,0.23511676294448022,0.537484955456974,0.15118409625624687,0.47356194832051796,4,0,2,8,5,6,nan,nan,nan,nan,nan,nan,nan,nan,nan,nan,nan,nan,0.0,nan,nan,nan,nan,nan,nan,nan,nan,nan,nan,nan,nan,nan,nan,nan,nan,nan,nan,786.1522517944686,1000.4900095735211,nan,1000.9970760284923,nan,nan,nan,nan
1,144,1,1,1.0,1.0,0.4179198178462684,0,0.0,0.0,0.0,0.3871823598997817,0.15098169475829637,0.23620066514148536,0.5381640546580782,0.15098169475829637,0.50440876542901,8,5,7,0,1,4,nan,nan,nan,nan,nan,nan,nan,nan,nan,nan,nan,nan,0.0,nan,nan,nan,nan,nan,nan,nan,nan,nan,nan,nan,nan,nan,nan,nan,nan,nan,nan,786.1522517944686,1001.5151427288074,nan,1001.9330625466537,nan,nan,nan,nan
1,145,1,1,1.0,1.0,0.3767652593087405,0,0.0,0.0,0.0,0.3874050951022925,0.15045625368932025,0.23694884141297223,0.5378613487916127,0.15045625368932025,0.433917177375406,1,4,8,7,3,0,nan,nan,nan,nan,nan,nan,nan,nan,nan,nan,nan,nan,0.0,nan,nan,nan,nan,nan,nan,nan,nan,nan,nan,nan,nan,nan,nan,nan,nan,nan,nan,786.1522517944686,1002.540284722345,nan,1002.9170499816537,nan,nan,nan,nan
1,146,1,1,1.0,1.0,0.3516169940121472,0,0.0,0.0,0.0,0.3873285495210439,0.14991676399261353,0.23741178552843037,0.5372453135136575,0.14991676399261353,0.38210069038905203,8,1,3,6,0,2,nan,nan,nan,nan,nan,nan,nan,nan,nan,nan,nan,nan,0.0,nan,nan,nan,nan,nan,nan,nan,nan,nan,nan,nan,nan,nan,nan,nan,nan,nan,nan,786.1522517944686,1003.5654190180358,nan,1003.9170360120479,nan,nan,nan,nan
1,147,1,1,1.0,1.0,0.30246085743419826,0,0.0,0.0,0.0,0.38707346698169465,0.1494106571863257,0.23766280979536894,0.5364841241680204,0.1494106571863257,0.34361437025169533,5,2,0,7,1,6,nan,nan,nan,nan,nan,nan,nan,nan,nan,nan,nan,nan,0.0,nan,nan,nan,nan,nan,nan,nan,nan,nan,nan,nan,nan,nan,nan,nan,nan,nan,nan,786.1522517944686,1004.5905550243333,nan,1004.8930158817675,nan,nan,nan,nan
1,148,1,1,1.0,1.0,0.3012069936376065,0,0.0,0.0,0.0,0.3864733775522798,0.14904910766458354,0.23742426988769624,0.5355224852168633,0.14904910766458354,0.31842828169465065,0,1,3,5,4,2,nan,nan,nan,nan,nan,nan,nan,nan,nan,nan,nan,nan,0.0,nan,nan,nan,nan,nan,nan,nan,nan,nan,nan,nan,nan,nan,nan,nan,nan,nan,nan,786.1522517944686,1005.6157948065083,nan,1005.917001800146,nan,nan,nan,nan
1,149,1,1,1.0,1.0,0.30814771982841194,0,0.0,0.0,0.0,0.3858729100599229,0.1486944097193824,0.23717850034054053,0.5345673197793053,0.1486944097193824,0.30393852363340557,4,2,6,3,5,7,nan,nan,nan,nan,nan,nan,nan,nan,nan,nan,nan,nan,0.0,nan,nan,nan,nan,nan,nan,nan,nan,nan,nan,nan,nan,nan,nan,nan,nan,nan,nan,786.1522517944686,1006.6408344495576,nan,1006.948982169386,nan,nan,nan,nan
1,150,1,1,1.0,1.0,0.3149977847933769,0,0.0,0.0,0.0,0.38532937726110117,0.1483150790286742,0.23701429823242698,0.5336444562897753,0.1483150790286742,0.30811749941979844,3,6,1,5,7,8,nan,nan,nan,nan,nan,nan,nan,nan,nan,nan,nan,nan,0.0,nan,nan,nan,nan,nan,nan,nan,nan,nan,nan,nan,nan,nan,nan,nan,nan,nan,nan,786.1522517944686,1007.6659673196264,nan,1007.9809651044197,nan,nan,nan,nan
1,151,1,1,1.0,1.0,0.2978476763237268,0,0.0,0.0,0.0,0.38484096342451973,0.14791455499425643,0.2369264084302633,0.5327555184187762,0.14791455499425643,0.3069977269818385,2,0,5,1,4,6,nan,nan,nan,nan,nan,nan,nan,nan,nan,nan,nan,nan,0.0,nan,nan,nan,nan,nan,nan,nan,nan,nan,nan,nan,nan,nan,nan,nan,nan,nan,nan,786.1522517944686,1008.6911107385531,nan,1008.9889584148768,nan,nan,nan,nan
1,152,1,1,1.0,1.0,0.26468557328917086,0,0.0,0.0,0.0,0.38424100972037634,0.14757933421005878,0.23666167551031755,0.5318203439304351,0.14757933421005878,0.29251034480209154,8,6,2,0,3,4,nan,nan,nan,nan,nan,nan,nan,nan,nan,nan,nan,nan,0.0,nan,nan,nan,nan,nan,nan,nan,nan,nan,nan,nan,nan,nan,nan,nan,nan,nan,nan,786.1522517944686,1009.7162495958619,nan,1009.980935169151,nan,nan,nan,nan
1,153,1,1,1.0,1.0,0.2635511658154428,0,0.0,0.0,0.0,0.38342213686810783,0.14740323701237917,0.23601889985572866,0.530825373880487,0.14740323701237917,0.2753614718094468,0,8,6,3,1,2,nan,nan,nan,nan,nan,nan,nan,nan,nan,nan,nan,nan,0.0,nan,nan,nan,nan,nan,nan,nan,nan,nan,nan,nan,nan,nan,nan,nan,nan,nan,nan,786.1522517944686,1010.7413838915527,nan,1011.0049350573681,nan,nan,nan,nan
1,154,1,1,1.0,1.0,0.25441261427477,0,0.0,0.0,0.0,0.38260668808543663,0.1472310781808147,0.23537560990462192,0.5298377662662513,0.1472310781808147,0.2608831177931279,4,6,1,7,5,3,nan,nan,nan,nan,nan,nan,nan,nan,nan,nan,nan,nan,0.0,nan,nan,nan,nan,nan,nan,nan,nan,nan,nan,nan,nan,nan,nan,nan,nan,nan,nan,786.1522517944686,1011.7665113448165,nan,1012.0209239590913,nan,nan,nan,nan
1,155,1,1,1.0,1.0,0.2372525273822248,0,0.0,0.0,0.0,0.38174051191104025,0.14710816640255575,0.2346323455084845,0.5288486783135959,0.14710816640255575,0.2517387691574792,7,1,5,4,3,0,nan,nan,nan,nan,nan,nan,nan,nan,nan,nan,nan,nan,0.0,nan,nan,nan,nan,nan,nan,nan,nan,nan,nan,nan,nan,nan,nan,nan,nan,nan,nan,786.1522517944686,1012.791654193541,nan,1013.0289067209233,nan,nan,nan,nan
1,156,1,1,1.0,1.0,0.2680853744968772,0,0.0,0.0,0.0,0.3807707938940683,0.1470875403219226,0.23368325357214573,0.5278583342159909,0.1470875403219226,0.2532501720512907,5,4,7,2,6,8,nan,nan,nan,nan,nan,nan,nan,nan,nan,nan,nan,nan,0.0,nan,nan,nan,nan,nan,nan,nan,nan,nan,nan,nan,nan,nan,nan,nan,nan,nan,nan,786.1522517944686,1013.8168001782615,nan,1014.0848855527584,nan,nan,nan,nan
1,157,1,1,1.0,1.0,0.36293084803037345,0,0.0,0.0,0.0,0.3800195577647537,0.1468829530286264,0.23313660473612732,0.5269025107933801,0.1468829530286264,0.28942291663649183,3,8,4,5,7,0,nan,nan,nan,nan,nan,nan,nan,nan,nan,nan,nan,nan,0.0,nan,nan,nan,nan,nan,nan,nan,nan,nan,nan,nan,nan,nan,nan,nan,nan,nan,nan,786.1522517944686,1014.8419264913537,nan,1015.204857339384,nan,nan,nan,nan
1,158,1,1,1.0,1.0,0.29778866097331047,0,0.0,0.0,0.0,0.3799063875016121,0.1464023389788017,0.2335040485228104,0.5263087264804138,0.1464023389788017,0.30960162783352035,8,5,3,1,2,7,nan,nan,nan,nan,nan,nan,nan,nan,nan,nan,nan,nan,0.0,nan,nan,nan,nan,nan,nan,nan,nan,nan,nan,nan,nan,nan,nan,nan,nan,nan,nan,786.1522517944686,1015.8670616422314,nan,1016.1648503032047,nan,nan,nan,nan
1,159,1,1,1.0,1.0,0.2646316895261407,0,0.0,0.0,0.0,0.379366139300768,0.14607089416760105,0.23329524513316696,0.5254370334683691,0.14607089416760105,0.3084503995099415,6,0,2,7,1,4,nan,nan,nan,nan,nan,nan,nan,nan,nan,nan,nan,nan,0.0,nan,nan,nan,nan,nan,nan,nan,nan,nan,nan,nan,nan,nan,nan,nan,nan,nan,nan,786.1522517944686,1016.8922050611582,nan,1017.1568367506843,nan,nan,nan,nan
1,160,1,1,1.0,1.0,0.2474753090646118,0,0.0,0.0,0.0,0.378616240936228,0.1458860080886207,0.23273023284760727,0.5245022490248487,0.1458860080886207,0.26996521985468763,4,3,6,1,7,2,nan,nan,nan,nan,nan,nan,nan,nan,nan,nan,nan,nan,0.0,nan,nan,nan,nan,nan,nan,nan,nan,nan,nan,nan,nan,nan,nan,nan,nan,nan,nan,786.1522517944686,1017.917336220853,nan,1018.1648115299176,nan,nan,nan,nan
1,161,1,1,1.0,1.0,0.23761716834269464,0,0.0,0.0,0.0,0.37776467644355516,0.14579258426538672,0.23197209217816844,0.5235572607089418,0.14579258426538672,0.24990805564448237,8,6,5,7,0,3,nan,nan,nan,nan,nan,nan,nan,nan,nan,nan,nan,nan,0.0,nan,nan,nan,nan,nan,nan,nan,nan,nan,nan,nan,nan,nan,nan,nan,nan,nan,nan,786.1522517944686,1018.9591693137772,nan,1019.1967864821199,nan,nan,nan,nan
1,162,1,1,1.0,1.0,0.26049262774176896,0,0.0,0.0,0.0,0.3768604989719367,0.14575406064904953,0.23110643832288716,0.5226145596209862,0.14575406064904953,0.24852836838302514,0,4,7,2,3,5,nan,nan,nan,nan,nan,nan,nan,nan,nan,nan,nan,nan,0.0,nan,nan,nan,nan,nan,nan,nan,nan,nan,nan,nan,nan,nan,nan,nan,nan,nan,nan,786.1522517944686,1019.9842956266366,nan,1020.2447882543784,nan,nan,nan,nan
1,163,1,1,1.0,1.0,0.24324729619547725,0,0.0,0.0,0.0,0.3761145510794356,0.14558266744489362,0.23053188363454197,0.5216972185243292,0.14558266744489362,0.2471190307599803,2,5,0,8,7,1,nan,nan,nan,nan,nan,nan,nan,nan,nan,nan,nan,nan,0.0,nan,nan,nan,nan,nan,nan,nan,nan,nan,nan,nan,nan,nan,nan,nan,nan,nan,nan,786.1522517944686,1021.0095140265767,nan,1021.2527613227721,nan,nan,nan,nan
1,164,1,1,1.0,1.0,0.23419741028919816,0,0.0,0.0,0.0,0.37526826283176706,0.14550273271761008,0.22976553011415699,0.5207709955493771,0.14550273271761008,0.2459791114088148,6,1,8,3,4,2,nan,nan,nan,nan,nan,nan,nan,nan,nan,nan,nan,nan,0.0,nan,nan,nan,nan,nan,nan,nan,nan,nan,nan,nan,nan,nan,nan,nan,nan,nan,nan,786.1522517944686,1022.03456649906,nan,1022.2687639093492,nan,nan,nan,nan
1,165,1,1,1.0,1.0,0.29703828133642673,0,0.0,0.0,0.0,0.37437540933466223,0.14547236743731123,0.228903041897351,0.5198477767719735,0.14547236743731123,0.2581609959403674,4,0,2,1,6,5,nan,nan,nan,nan,nan,nan,nan,nan,nan,nan,nan,nan,0.0,nan,nan,nan,nan,nan,nan,nan,nan,nan,nan,nan,nan,nan,nan,nan,nan,nan,nan,786.1522517944686,1023.0597070667427,nan,1023.3567453480791,nan,nan,nan,nan
1,166,1,1,1.0,1.0,0.27987619885243475,0,0.0,0.0,0.0,0.3738890123032268,0.14514301222176715,0.22874600008145965,0.519032024524994,0.14514301222176715,0.2703706301593532,7,6,1,0,5,3,nan,nan,nan,nan,nan,nan,nan,nan,nan,nan,nan,nan,0.0,nan,nan,nan,nan,nan,nan,nan,nan,nan,nan,nan,nan,nan,nan,nan,nan,nan,nan,786.1522517944686,1024.0848499154672,nan,1024.3647261143196,nan,nan,nan,nan
1,167,1,1,1.0,1.0,0.2627144013531506,0,0.0,0.0,0.0,0.37330143221915935,0.1448783048485992,0.22842312737056014,0.5181797370677586,0.1448783048485992,0.27987629384733737,3,5,8,6,4,0,nan,nan,nan,nan,nan,nan,nan,nan,nan,nan,nan,nan,0.0,nan,nan,nan,nan,nan,nan,nan,nan,nan,nan,nan,nan,nan,nan,nan,nan,nan,nan,786.1522517944686,1025.1099876323715,nan,1025.3727020337246,nan,nan,nan,nan
1,168,1,1,1.0,1.0,0.2775765932165086,0,0.0,0.0,0.0,0.37261455625104745,0.14468876956918192,0.22792578668186553,0.5173033258202293,0.14468876956918192,0.27338906447403133,8,4,0,5,3,1,nan,nan,nan,nan,nan,nan,nan,nan,nan,nan,nan,nan,0.0,nan,nan,nan,nan,nan,nan,nan,nan,nan,nan,nan,nan,nan,nan,nan,nan,nan,nan,786.1522517944686,1026.1351196472533,nan,1026.4126962404698,nan,nan,nan,nan
1,169,1,1,1.0,1.0,0.4124373709782958,0,0.0,0.0,0.0,0.37202790215824166,0.1444334548460102,0.22759444731223147,0.5164613570042519,0.1444334548460102,0.3175761218493183,4,8,6,3,0,7,nan,nan,nan,nan,nan,nan,nan,nan,nan,nan,nan,nan,0.0,nan,nan,nan,nan,nan,nan,nan,nan,nan,nan,nan,nan,nan,nan,nan,nan,nan,nan,786.1522517944686,1027.1602453901432,nan,1027.5726827611215,nan,nan,nan,nan
1,170,0,0,0.0,1.0,0.5232740270439535,0,0.0,0.0,0.0,0.3722758130098984,0.1440242952745883,0.22825151773531013,0.5163001082844867,0.1440242952745883,0.40442933041291934,2,7,5,6,4,0,nan,nan,nan,nan,nan,nan,nan,nan,nan,nan,nan,nan,0.0,nan,nan,nan,nan,nan,nan,nan,nan,nan,nan,nan,nan,nan,nan,nan,nan,nan,nan,786.1522517944686,1028.1853868132457,nan,1028.7086608402897,nan,nan,nan,nan
1,171,1,1,1.0,1.0,0.4741375623270869,0,0.0,0.0,0.0,0.37319653382717927,0.14406489998847727,0.229131633838702,0.5172614338156565,0.14406489998847727,0.46994965344977874,7,6,1,3,2,5,nan,nan,nan,nan,nan,nan,nan,nan,nan,nan,nan,nan,0.0,nan,nan,nan,nan,nan,nan,nan,nan,nan,nan,nan,nan,nan,nan,nan,nan,nan,nan,786.1522517944686,1029.2105233897455,nan,1029.6846609520726,nan,nan,nan,nan
1,172,1,1,1.0,1.0,0.4649622328579426,0,0.0,0.0,0.0,0.3738082976362696,0.1438411873874813,0.2299671102487883,0.517649485023751,0.1438411873874813,0.48745794074299437,5,3,0,7,1,4,nan,nan,nan,nan,nan,nan,nan,nan,nan,nan,nan,nan,0.0,nan,nan,nan,nan,nan,nan,nan,nan,nan,nan,nan,nan,nan,nan,nan,nan,nan,nan,786.1522517944686,1030.2356807785109,nan,1030.7006430113688,nan,nan,nan,nan
1,173,1,1,1.0,1.0,0.5437386923003942,0,0.0,0.0,0.0,0.37435741772796644,0.14358063876846883,0.2307767789594976,0.5179380564964353,0.14358063876846883,0.4942794958284746,8,0,2,4,3,5,nan,nan,nan,nan,nan,nan,nan,nan,nan,nan,nan,nan,0.0,nan,nan,nan,nan,nan,nan,nan,nan,nan,nan,nan,nan,nan,nan,nan,nan,nan,nan,786.1522517944686,1031.2608755151741,nan,1031.8046142074745,nan,nan,nan,nan
1,174,1,1,1.0,1.0,0.4066601323429495,0,0.0,0.0,0.0,0.3753716768571427,0.14374533767628064,0.23162633918086203,0.5191170145334233,0.14374533767628064,0.4717870191670954,0,4,5,7,2,8,nan,nan,nan,nan,nan,nan,nan,nan,nan,nan,nan,nan,0.0,nan,nan,nan,nan,nan,nan,nan,nan,nan,nan,nan,nan,nan,nan,nan,nan,nan,nan,786.1522517944686,1032.2859442380723,nan,1032.6926043704152,nan,nan,nan,nan
1,175,1,1,1.0,1.0,0.3015240232925862,0,0.0,0.0,0.0,0.3755579176636058,0.14333709293737754,0.23222082472622826,0.5188950106009833,0.14333709293737754,0.4173076159786433,5,1,3,6,8,7,nan,nan,nan,nan,nan,nan,nan,nan,nan,nan,nan,nan,0.0,nan,nan,nan,nan,nan,nan,nan,nan,nan,nan,nan,nan,nan,nan,nan,nan,nan,nan,786.1522517944686,1033.3110682703555,nan,1033.612592293648,nan,nan,nan,nan
1,176,1,1,1.0,1.0,0.27627796889282763,0,0.0,0.0,0.0,0.3751198472827122,0.1430251419332922,0.23209470534942,0.5181449892160044,0.1430251419332922,0.32815404150945443,4,0,1,2,5,3,nan,nan,nan,nan,nan,nan,nan,nan,nan,nan,nan,nan,0.0,nan,nan,nan,nan,nan,nan,nan,nan,nan,nan,nan,nan,nan,nan,nan,nan,nan,nan,786.1522517944686,1034.3363071971107,nan,1034.6125851660036,nan,nan,nan,nan
1,177,1,1,1.0,1.0,0.2672015686985105,0,0.0,0.0,0.0,0.37453842446865404,0.14280403201244715,0.2317343924562069,0.5173424564811012,0.14280403201244715,0.2816678536279748,2,3,6,5,4,1,nan,nan,nan,nan,nan,nan,nan,nan,nan,nan,nan,nan,0.0,nan,nan,nan,nan,nan,nan,nan,nan,nan,nan,nan,nan,nan,nan,nan,nan,nan,nan,786.1522517944686,1035.3613516867626,nan,1035.6285532554612,nan,nan,nan,nan
1,178,1,1,1.0,1.0,0.26605376158840954,0,0.0,0.0,0.0,0.37391072355771754,0.14262088112244786,0.23128984243526968,0.5165316046801653,0.14262088112244786,0.2698444330599159,0,2,4,6,8,7,nan,nan,nan,nan,nan,nan,nan,nan,nan,nan,nan,nan,0.0,nan,nan,nan,nan,nan,nan,nan,nan,nan,nan,nan,nan,nan,nan,nan,nan,nan,nan,786.1522517944686,1036.3864996673074,nan,1036.6525534288958,nan,nan,nan,nan
1,179,1,1,1.0,1.0,0.22490319493226707,0,0.0,0.0,0.0,0.3732836481974309,0.14244190737537663,0.23084174082205425,0.5157255555728075,0.14244190737537663,0.25271950840639573,4,1,2,7,3,5,nan,nan,nan,nan,nan,nan,nan,nan,nan,nan,nan,nan,0.0,nan,nan,nan,nan,nan,nan,nan,nan,nan,nan,nan,nan,nan,nan,nan,nan,nan,nan,786.1522517944686,1037.41162426956,nan,1037.6365274644922,nan,nan,nan,nan
1,180,1,1,1.0,1.0,0.23975626355968416,0,0.0,0.0,0.0,0.37242595771612935,0.14247436387201642,0.22995159384411293,0.5149003215881458,0.14247436387201642,0.24357107336012027,1,8,6,0,7,2,nan,nan,nan,nan,nan,nan,nan,nan,nan,nan,nan,nan,0.0,nan,nan,nan,nan,nan,nan,nan,nan,nan,nan,nan,nan,nan,nan,nan,nan,nan,nan,786.1522517944686,1038.436755999457,nan,1038.6765122630168,nan,nan,nan,nan
1,181,1,1,1.0,1.0,0.2945713228546083,0,0.0,0.0,0.0,0.3716634882094831,0.1424179026578583,0.22924558555162478,0.5140813908673414,0.1424179026578583,0.2530769271155198,3,4,5,7,1,8,nan,nan,nan,nan,nan,nan,nan,nan,nan,nan,nan,nan,0.0,nan,nan,nan,nan,nan,nan,nan,nan,nan,nan,nan,nan,nan,nan,nan,nan,nan,nan,786.1522517944686,1039.4619230814278,nan,1039.7564944042824,nan,nan,nan,nan
1,182,1,1,1.0,1.0,0.24544626218266785,0,0.0,0.0,0.0,0.37122296155031237,0.14212925116373373,0.22909371038657864,0.5133522127140461,0.14212925116373373,0.25992461619898677,8,7,4,3,2,0,nan,nan,nan,nan,nan,nan,nan,nan,nan,nan,nan,nan,0.0,nan,nan,nan,nan,nan,nan,nan,nan,nan,nan,nan,nan,nan,nan,nan,nan,nan,nan,786.1522517944686,1040.4870339990593,nan,1040.732480261242,nan,nan,nan,nan
1,183,1,1,1.0,1.0,0.20430795452557504,0,0.0,0.0,0.0,0.3705083212129962,0.14203985914981362,0.22846846206318258,0.5125481803628098,0.14203985914981362,0.24810851318761706,3,4,7,1,5,8,nan,nan,nan,nan,nan,nan,nan,nan,nan,nan,nan,nan,0.0,nan,nan,nan,nan,nan,nan,nan,nan,nan,nan,nan,nan,nan,nan,nan,nan,nan,nan,786.1522517944686,1041.5121611673385,nan,1041.716469121864,nan,nan,nan,nan
1,184,1,1,1.0,1.0,0.243155779549852,0,0.0,0.0,0.0,0.36956933609046844,0.14218479067112583,0.2273845454193426,0.5117541267615943,0.14218479067112583,0.2309699987526983,8,7,2,6,1,5,nan,nan,nan,nan,nan,nan,nan,nan,nan,nan,nan,nan,0.0,nan,nan,nan,nan,nan,nan,nan,nan,nan,nan,nan,nan,nan,nan,nan,nan,nan,nan,786.1522517944686,1042.5373080074787,nan,1042.7804637870286,nan,nan,nan,nan
1,185,0,0,1.0,0.0,0.13798232283443213,0,0.0,0.0,0.0,0.3688591475705773,0.1420993028195462,0.22675984475103111,0.5109584503901234,0.1420993028195462,0.19514868563661972,2,0,5,7,3,4,nan,nan,nan,nan,nan,nan,nan,nan,nan,nan,nan,nan,0.0,nan,nan,nan,nan,nan,nan,nan,nan,nan,nan,nan,nan,nan,nan,nan,nan,nan,nan,786.1522517944686,1043.5624522815924,nan,1043.7004346044268,nan,nan,nan,nan
1,186,1,1,0.0,0.0,0.04084750707261264,1,1.0,0.0,1.0,0.3675693329072469,0.14274288388933432,0.2248264490179126,0.5103122167965812,0.14274288388933432,0.14066186981896558,4,1,0,3,6,7,1.0,1.0,1.0,1.0,1.0,1.0,0.0,1.0,1.0,0.0,0.0,0.0,2.0,7.0,1.0,0.0,6.0,2.0,4.0,6.0,2.0,1.0,3.0,4.0,5.0,9.65191053156741,2.788630152354017,1.846401684684679,6.580387551803142,7.435703985625878,8.53169184946455,786.1522517944686,1044.5875780242495,1045.3960020048544,1044.6284255313221,1056.105756768724,1057.1164160363842,1046.412804007763,1056.097432743758
1,187,1,1,1.0,1.0,0.3929369093384594,0,0.0,0.0,0.0,0.36575421165261,0.14440248811016537,0.22135172354244464,0.5101566997627753,0.14440248811016537,0.1905889130818347,7,4,3,8,5,2,nan,nan,nan,nan,nan,nan,nan,nan,nan,nan,nan,nan,0.0,nan,nan,nan,nan,nan,nan,nan,nan,nan,nan,nan,nan,nan,nan,nan,nan,nan,nan,786.1522517944686,1057.3392881886102,nan,1057.7322250979487,nan,nan,nan,nan
1,188,1,1,1.0,1.0,0.2398058706894517,0,0.0,0.0,0.0,0.3659043923028081,0.1440171291180329,0.22188726318477517,0.509921521420841,0.1440171291180329,0.22453009570017457,0,6,8,3,1,7,nan,nan,nan,nan,nan,nan,nan,nan,nan,nan,nan,nan,0.0,nan,nan,nan,nan,nan,nan,nan,nan,nan,nan,nan,nan,nan,nan,nan,nan,nan,nan,786.1522517944686,1058.3644193480723,nan,1058.6042252187617,nan,nan,nan,nan
1,189,1,1,1.0,1.0,0.23894601315259933,0,0.0,0.0,0.0,0.3652115432829545,0.14392310274510106,0.22128844053785346,0.5091346460280556,0.14392310274510106,0.2905629310601701,4,5,3,0,2,1,nan,nan,nan,nan,nan,nan,nan,nan,nan,nan,nan,nan,0.0,nan,nan,nan,nan,nan,nan,nan,nan,nan,nan,nan,nan,nan,nan,nan,nan,nan,nan,786.1522517944686,1059.3812581289094,nan,1059.620204142062,nan,nan,nan,nan
1,190,1,1,1.0,1.0,0.25382702169008553,0,0.0,0.0,0.0,0.36452156770847166,0.1438308488471125,0.22069071886135916,0.5083524165555842,0.1438308488471125,0.24419296851071218,5,8,6,3,0,2,nan,nan,nan,nan,nan,nan,nan,nan,nan,nan,nan,nan,0.0,nan,nan,nan,nan,nan,nan,nan,nan,nan,nan,nan,nan,nan,nan,nan,nan,nan,nan,786.1522517944686,1060.406363059301,nan,1060.660190080991,nan,nan,nan,nan
1,191,1,1,1.0,1.0,0.3006550425197929,0,0.0,0.0,0.0,0.3639199669148935,0.1436701570749725,0.22024980983992098,0.5075901239898659,0.1436701570749725,0.2644760257874926,4,3,2,7,8,0,nan,nan,nan,nan,nan,nan,nan,nan,nan,nan,nan,nan,0.0,nan,nan,nan,nan,nan,nan,nan,nan,nan,nan,nan,nan,nan,nan,nan,nan,nan,nan,786.1522517944686,1061.4315022018272,nan,1061.732157244347,nan,nan,nan,nan
1,192,0,0,1.0,0.0,0.26751232612878084,0,0.0,0.0,0.0,0.3635779943505957,0.14335640330227786,0.22022159104831782,0.5069343976528735,0.14335640330227786,0.27399813011288643,5,4,1,0,6,2,nan,nan,nan,nan,nan,nan,nan,nan,nan,nan,nan,nan,0.0,nan,nan,nan,nan,nan,nan,nan,nan,nan,nan,nan,nan,nan,nan,nan,nan,nan,nan,786.1522517944686,1062.4566444803495,nan,1062.7241568064783,nan,nan,nan,nan
1,193,1,1,1.0,1.0,0.3383562013041228,0,0.0,0.0,0.0,0.36306151226338157,0.14314299930396432,0.21991851295941725,0.5062045115673459,0.14314299930396432,0.3021745233175655,0,1,5,8,7,6,nan,nan,nan,nan,nan,nan,nan,nan,nan,nan,nan,nan,0.0,nan,nan,nan,nan,nan,nan,nan,nan,nan,nan,nan,nan,nan,nan,nan,nan,nan,nan,786.1522517944686,1063.4817750696093,nan,1063.8201312709134,nan,nan,nan,nan
1,194,0,0,0.0,1.0,0.48120515746995807,0,0.0,0.0,0.0,0.3629293983010326,0.14277112087817828,0.22015827742285432,0.5057005191792109,0.14277112087817828,0.36235789496762055,1,5,7,2,8,0,nan,nan,nan,nan,nan,nan,nan,nan,nan,nan,nan,nan,0.0,nan,nan,nan,nan,nan,nan,nan,nan,nan,nan,nan,nan,nan,nan,nan,nan,nan,nan,786.1522517944686,1064.5069193439558,nan,1064.9881245014258,nan,nan,nan,nan
1,195,1,1,1.0,1.0,0.3440524716861546,0,0.0,0.0,0.0,0.3635585246795907,0.14265056673584164,0.22090795794374907,0.5062090914154324,0.14265056673584164,0.3878712768200785,7,8,2,0,4,5,nan,nan,nan,nan,nan,nan,nan,nan,nan,nan,nan,nan,0.0,nan,nan,nan,nan,nan,nan,nan,nan,nan,nan,nan,nan,nan,nan,nan,nan,nan,nan,786.1522517944686,1065.5320513588376,nan,1065.8761038305238,nan,nan,nan,nan
1,196,0,0,0.0,1.0,0.43089408660307527,0,0.0,0.0,0.0,0.3634553180499958,0.14227972115244442,0.2211755968975514,0.5057350392024402,0.14227972115244442,0.418717238586396,5,6,1,2,8,4,nan,nan,nan,nan,nan,nan,nan,nan,nan,nan,nan,nan,0.0,nan,nan,nan,nan,nan,nan,nan,nan,nan,nan,nan,nan,nan,nan,nan,nan,nan,nan,786.1522517944686,1066.5571999093518,nan,1066.9880939959548,nan,nan,nan,nan
1,197,1,1,1.0,1.0,0.30173984286375344,0,0.0,0.0,0.0,0.3638102589371173,0.14198867915227933,0.221821579784838,0.5057989380893967,0.14198867915227933,0.35889546705099445,6,7,2,3,0,5,nan,nan,nan,nan,nan,nan,nan,nan,nan,nan,nan,nan,0.0,nan,nan,nan,nan,nan,nan,nan,nan,nan,nan,nan,nan,nan,nan,nan,nan,nan,nan,786.1522517944686,1067.5823256522417,nan,1067.8840654951055,nan,nan,nan,nan
1,198,1,1,1.0,1.0,0.5085840348619968,0,0.0,0.0,0.0,0.3634852829367332,0.14168732104659001,0.2217979618901432,0.5051726039833232,0.14168732104659001,0.41373932144294184,7,0,1,5,8,6,nan,nan,nan,nan,nan,nan,nan,nan,nan,nan,nan,nan,0.0,nan,nan,nan,nan,nan,nan,nan,nan,nan,nan,nan,nan,nan,nan,nan,nan,nan,nan,786.1522517944686,1068.6074733475689,nan,1069.1160573824309,nan,nan,nan,nan
1,199,1,1,1.0,1.0,0.3074312668759376,0,0.0,0.0,0.0,0.3642410056030106,0.1417032865039924,0.2225377190990182,0.505944292107003,0.1417032865039924,0.3725850482005626,4,2,6,7,0,1,nan,nan,nan,nan,nan,nan,nan,nan,nan,nan,nan,nan,0.0,nan,nan,nan,nan,nan,nan,nan,nan,nan,nan,nan,nan,nan,nan,nan,nan,nan,nan,786.1522517944686,1069.632605077466,nan,1069.940036344342,nan,nan,nan,nan
1,200,1,1,1.0,1.0,0.2662781341932714,0,0.0,0.0,0.0,0.36394665462515013,0.14139454105537752,0.2225521135697726,0.5053411956805276,0.14139454105537752,0.36076447864373523,5,6,1,8,7,0,nan,nan,nan,nan,nan,nan,nan,nan,nan,nan,nan,nan,0.0,nan,nan,nan,nan,nan,nan,nan,nan,nan,nan,nan,nan,nan,nan,nan,nan,nan,nan,786.1522517944686,1070.6577442197595,nan,1070.9240223539528,nan,nan,nan,nan
1,201,1,1,1.0,1.0,0.24903422826901078,0,0.0,0.0,0.0,0.3634432086435425,0.14120297417046612,0.2222402344730764,0.5046461828140086,0.14120297417046612,0.27424787644607324,3,4,7,2,5,1,nan,nan,nan,nan,nan,nan,nan,nan,nan,nan,nan,nan,0.0,nan,nan,nan,nan,nan,nan,nan,nan,nan,nan,nan,nan,nan,nan,nan,nan,nan,nan,786.1522517944686,1071.682984287152,nan,1071.932018515421,nan,nan,nan,nan
1,202,1,1,1.0,1.0,0.24798164423555136,0,0.0,0.0,0.0,0.36285649592367314,0.14107733091293273,0.2217791650107404,0.5039338268366058,0.14107733091293273,0.2544313355659445,4,0,8,1,3,7,nan,nan,nan,nan,nan,nan,nan,nan,nan,nan,nan,nan,0.0,nan,nan,nan,nan,nan,nan,nan,nan,nan,nan,nan,nan,nan,nan,nan,nan,nan,nan,786.1522517944686,1072.708018227946,nan,1072.9559998721816,nan,nan,nan,nan
1,203,1,1,1.0,1.0,0.2948167927097529,0,0.0,0.0,0.0,0.36227039974159086,0.1409547889749422,0.22131561076664866,0.5032251887165331,0.1409547889749422,0.263944221738105,1,8,4,6,7,2,nan,nan,nan,nan,nan,nan,nan,nan,nan,nan,nan,nan,0.0,nan,nan,nan,nan,nan,nan,nan,nan,nan,nan,nan,nan,nan,nan,nan,nan,nan,nan,786.1522517944686,1073.733164497884,nan,1074.0279812905937,nan,nan,nan,nan
1,204,1,1,1.0,1.0,0.3339936218690127,0,0.0,0.0,0.0,0.36192799564498257,0.14067827697268065,0.22124971867230192,0.5026062726176632,0.14067827697268065,0.29226401960477233,6,0,3,5,2,1,nan,nan,nan,nan,nan,nan,nan,nan,nan,nan,nan,nan,0.0,nan,nan,nan,nan,nan,nan,nan,nan,nan,nan,nan,nan,nan,nan,nan,nan,nan,nan,786.1522517944686,1074.7499653603882,nan,1075.0839589822572,nan,nan,nan,nan
1,205,1,1,1.0,1.0,0.3568642344325781,0,0.0,0.0,0.0,0.36178691294914433,0.14033655034364081,0.22145036260550352,0.5021234632927851,0.14033655034364081,0.3285582163371146,8,7,4,3,1,5,nan,nan,nan,nan,nan,nan,nan,nan,nan,nan,nan,nan,0.0,nan,nan,nan,nan,nan,nan,nan,nan,nan,nan,nan,nan,nan,nan,nan,nan,nan,nan,786.1522517944686,1075.775091958465,nan,1076.1319561928976,nan,nan,nan,nan
1,206,1,1,1.0,1.0,0.31571680353954434,0,0.0,0.0,0.0,0.3617621758711716,0.13998393462627215,0.22177824124489945,0.5017461104974438,0.13998393462627215,0.3355248866137117,2,6,3,1,5,0,nan,nan,nan,nan,nan,nan,nan,nan,nan,nan,nan,nan,0.0,nan,nan,nan,nan,nan,nan,nan,nan,nan,nan,nan,nan,nan,nan,nan,nan,nan,nan,786.1522517944686,1076.8002248287667,nan,1077.1159416323062,nan,nan,nan,nan
1,207,1,1,1.0,1.0,0.3065383380744606,0,0.0,0.0,0.0,0.36153194900951346,0.1396713009921621,0.22186064801735136,0.5012032500016755,0.1396713009921621,0.32637312534886104,8,3,1,2,0,6,nan,nan,nan,nan,nan,nan,nan,nan,nan,nan,nan,nan,0.0,nan,nan,nan,nan,nan,nan,nan,nan,nan,nan,nan,nan,nan,nan,nan,nan,nan,nan,786.1522517944686,1077.825377655914,nan,1078.1319159939885,nan,nan,nan,nan
1,208,1,1,1.0,1.0,0.2894090418703854,0,0.0,0.0,0.0,0.3612583489551102,0.13937714530231876,0.22188120365279146,0.5006354942574289,0.13937714530231876,0.30388806116146344,7,4,6,3,5,0,nan,nan,nan,nan,nan,nan,nan,nan,nan,nan,nan,nan,0.0,nan,nan,nan,nan,nan,nan,nan,nan,nan,nan,nan,nan,nan,nan,nan,nan,nan,nan,786.1522517944686,1078.8505016879644,nan,1079.1399107298348,nan,nan,nan,nan
1,209,0,0,1.0,0.0,0.2635876585263759,0,0.0,0.0,0.0,0.36090265931607696,0.13912314656824212,0.22177951274783483,0.5000258058843191,0.13912314656824212,0.2865116794904073,4,7,5,2,8,1,nan,nan,nan,nan,nan,nan,nan,nan,nan,nan,nan,nan,0.0,nan,nan,nan,nan,nan,nan,nan,nan,nan,nan,nan,nan,nan,nan,nan,nan,nan,nan,786.1522517944686,1079.8922860291786,nan,1080.155873687705,nan,nan,nan,nan
1,210,1,1,1.0,1.0,0.27042603422887623,0,0.0,0.0,0.0,0.3604232750757336,0.13894720335743055,0.22147607171830302,0.4993704784331641,0.13894720335743055,0.2744742448752125,8,3,0,1,4,5,nan,nan,nan,nan,nan,nan,nan,nan,nan,nan,nan,nan,0.0,nan,nan,nan,nan,nan,nan,nan,nan,nan,nan,nan,nan,nan,nan,nan,nan,nan,nan,786.1522517944686,1080.917444273131,nan,1081.1878703073598,nan,nan,nan,nan
1,211,0,0,1.0,0.0,0.2932079811580479,0,0.0,0.0,0.0,0.3599821121304059,0.13874867673004374,0.22123343540036214,0.49873078886044964,0.13874867673004374,0.27574055797110003,4,1,5,8,7,3,nan,nan,nan,nan,nan,nan,nan,nan,nan,nan,nan,nan,0.0,nan,nan,nan,nan,nan,nan,nan,nan,nan,nan,nan,nan,nan,nan,nan,nan,nan,nan,786.1522517944686,1081.9426421457902,nan,1082.2358501269482,nan,nan,nan,nan
1,212,1,1,1.0,1.0,0.28412644914351404,0,0.0,0.0,0.0,0.35965638466224803,0.1384880178746387,0.22116836678760932,0.49814440253688674,0.1384880178746387,0.2825868215101461,2,5,8,6,1,0,nan,nan,nan,nan,nan,nan,nan,nan,nan,nan,nan,nan,0.0,nan,nan,nan,nan,nan,nan,nan,nan,nan,nan,nan,nan,nan,nan,nan,nan,nan,nan,786.1522517944686,1082.9677142901346,nan,1083.2518407392781,nan,nan,nan,nan
1,213,1,1,1.0,1.0,0.4829893046990037,0,0.0,0.0,0.0,0.359289734489827,0.13825117764099398,0.221038556848833,0.49754091213082097,0.13825117764099398,0.35344124500018853,8,2,1,0,4,5,nan,nan,nan,nan,nan,nan,nan,nan,nan,nan,nan,nan,0.0,nan,nan,nan,nan,nan,nan,nan,nan,nan,nan,nan,nan,nan,nan,nan,nan,nan,nan,786.1522517944686,1083.9928257779684,nan,1084.4758150826674,nan,nan,nan,nan
1,214,1,1,1.0,1.0,0.4818115623202175,0,0.0,0.0,0.0,0.35988731695460563,0.13818327141905487,0.22170404553555076,0.49807058837366047,0.13818327141905487,0.4163091053875784,0,4,7,1,3,8,nan,nan,nan,nan,nan,nan,nan,nan,nan,nan,nan,nan,0.0,nan,nan,nan,nan,nan,nan,nan,nan,nan,nan,nan,nan,nan,nan,nan,nan,nan,nan,786.1522517944686,1085.0179925749544,nan,1085.4998041372746,nan,nan,nan,nan
1,215,0,0,0.0,1.0,0.4486511698924005,0,0.0,0.0,0.0,0.36047349121117106,0.1381084382390587,0.22236505297211237,0.4985819294502297,0.1381084382390587,0.4711506789705406,5,3,8,0,7,2,nan,nan,nan,nan,nan,nan,nan,nan,nan,nan,nan,nan,0.0,nan,nan,nan,nan,nan,nan,nan,nan,nan,nan,nan,nan,nan,nan,nan,nan,nan,nan,786.1522517944686,1086.0431388446596,nan,1086.491790014552,nan,nan,nan,nan
1,216,1,1,1.0,1.0,0.35151264793239534,0,0.0,0.0,0.0,0.36089539397998077,0.13791193655171513,0.22298345742826564,0.4988073305316959,0.13791193655171513,0.42732512671500444,1,8,0,6,4,5,nan,nan,nan,nan,nan,nan,nan,nan,nan,nan,nan,nan,0.0,nan,nan,nan,nan,nan,nan,nan,nan,nan,nan,nan,nan,nan,nan,nan,nan,nan,nan,786.1522517944686,1087.0682694341522,nan,1087.4197820820846,nan,nan,nan,nan
1,217,1,1,1.0,1.0,0.3823531926609576,0,0.0,0.0,0.0,0.360850714236897,0.1375846992043978,0.2232660150324992,0.49843541344129483,0.1375846992043978,0.3941723368285845,3,2,1,4,0,8,nan,nan,nan,nan,nan,nan,nan,nan,nan,nan,nan,nan,0.0,nan,nan,nan,nan,nan,nan,nan,nan,nan,nan,nan,nan,nan,nan,nan,nan,nan,nan,786.1522517944686,1088.0934040150605,nan,1088.4757572077215,nan,nan,nan,nan
1,218,1,1,1.0,1.0,0.4852030957117677,0,0.0,0.0,0.0,0.36095262171757975,0.13726622610426711,0.22368639561331263,0.4982188478218469,0.13726622610426711,0.40635631210170686,1,0,4,5,2,7,nan,nan,nan,nan,nan,nan,nan,nan,nan,nan,nan,nan,0.0,nan,nan,nan,nan,nan,nan,nan,nan,nan,nan,nan,nan,nan,nan,nan,nan,nan,nan,786.1522517944686,1089.1185451529454,nan,1089.6037482486572,nan,nan,nan,nan
1,219,1,1,1.0,1.0,0.5640254558529705,0,0.0,0.0,0.0,0.3615387088590618,0.13720647760958377,0.22433223124947804,0.4987451864686456,0.13720647760958377,0.4771939147418986,5,3,0,8,7,1,nan,nan,nan,nan,nan,nan,nan,nan,nan,nan,nan,nan,0.0,nan,nan,nan,nan,nan,nan,nan,nan,nan,nan,nan,nan,nan,nan,nan,nan,nan,nan,786.1522517944686,1090.1437025417108,nan,1090.7077279975638,nan,nan,nan,nan
1,220,1,1,1.0,1.0,0.4589127250947058,1,0.0,1.0,1.0,0.362489350863728,0.1375820591652374,0.2249072916984906,0.5000714100289654,0.1375820591652374,0.5027137588864813,7,5,4,3,2,6,1.0,1.0,1.0,1.0,1.0,1.0,1.0,1.0,0.0,0.0,0.0,0.0,2.0,7.0,5.0,3.0,1.0,3.0,0.0,1.0,2.0,3.0,4.0,5.0,6.0,2.0806096435990185,3.3591512956190854,4.535428637405857,7.303061845479533,9.589746199548244,10.421890671597794,786.1522517944686,1091.1688123189379,1091.97724143113,1091.6277250440326,1103.4537541503087,1104.4617123936769,1092.994050846668,1103.4454429547768
1,221,1,1,1.0,1.0,0.6362235492561013,0,0.0,0.0,0.0,0.3629399273788261,0.13741766134286124,0.22552226603596484,0.5003575887216873,0.13741766134286124,0.5530539100679258,1,4,7,6,5,8,nan,nan,nan,nan,nan,nan,nan,nan,nan,nan,nan,nan,0.0,nan,nan,nan,nan,nan,nan,nan,nan,nan,nan,nan,nan,nan,nan,nan,nan,nan,nan,786.1522517944686,1104.6873021058273,nan,1105.3235256550834,nan,nan,nan,nan
1,222,1,1,1.0,1.0,0.36307197203859687,0,0.0,0.0,0.0,0.36421101399220873,0.13835293412150554,0.2258580798707032,0.5025639481137143,0.13835293412150554,0.48606941546313465,3,6,1,2,7,4,nan,nan,nan,nan,nan,nan,nan,nan,nan,nan,nan,nan,0.0,nan,nan,nan,nan,nan,nan,nan,nan,nan,nan,nan,nan,nan,nan,nan,nan,nan,nan,786.1522517944686,1105.712435546331,nan,1106.0755075183697,nan,nan,nan,nan
1,223,1,1,1.0,1.0,0.34582863631658256,0,0.0,0.0,0.0,0.3642057406498309,0.13803232282352332,0.2261734178263076,0.5022380634733542,0.13803232282352332,0.4483747192037602,1,0,8,4,2,6,nan,nan,nan,nan,nan,nan,nan,nan,nan,nan,nan,nan,0.0,nan,nan,nan,nan,nan,nan,nan,nan,nan,nan,nan,nan,nan,nan,nan,nan,nan,nan,786.1522517944686,1106.737671622308,nan,1107.0835002586246,nan,nan,nan,nan
1,224,1,1,1.0,1.0,0.4407664821483195,0,0.0,0.0,0.0,0.3641210535330878,0.13771953307935247,0.22640152045373535,0.5018405866124402,0.13771953307935247,0.3832223635011663,5,6,0,8,4,7,nan,nan,nan,nan,nan,nan,nan,nan,nan,nan,nan,nan,0.0,nan,nan,nan,nan,nan,nan,nan,nan,nan,nan,nan,nan,nan,nan,nan,nan,nan,nan,786.1522517944686,1107.7627135459334,nan,1108.2034800280817,nan,nan,nan,nan
1,225,1,1,1.0,1.0,0.42362179048359394,0,0.0,0.0,0.0,0.36447263806802005,0.1375008743784763,0.22697176368954375,0.5019735124464964,0.1375008743784763,0.40340563631616533,3,4,6,7,0,1,nan,nan,nan,nan,nan,nan,nan,nan,nan,nan,nan,nan,0.0,nan,nan,nan,nan,nan,nan,nan,nan,nan,nan,nan,nan,nan,nan,nan,nan,nan,nan,786.1522517944686,1108.7878458460327,nan,1109.2114676365163,nan,nan,nan,nan
1,226,1,1,1.0,1.0,0.55848114262335,0,0.0,0.0,0.0,0.36474272552197246,0.13724453338821538,0.22749819213375708,0.5019872589101878,0.13724453338821538,0.47428980508508783,0,5,1,4,8,6,nan,nan,nan,nan,nan,nan,nan,nan,nan,nan,nan,nan,0.0,nan,nan,nan,nan,nan,nan,nan,nan,nan,nan,nan,nan,nan,nan,nan,nan,nan,nan,786.1522517944686,1109.812963035889,nan,1110.3714441785123,nan,nan,nan,nan
1,227,1,1,1.0,1.0,0.38931644172407687,0,0.0,0.0,0.0,0.3656233546906151,0.13755100753908092,0.22807234715153415,0.503174362229696,0.13755100753908092,0.4571397916103403,1,6,7,8,3,2,nan,nan,nan,nan,nan,nan,nan,nan,nan,nan,nan,nan,0.0,nan,nan,nan,nan,nan,nan,nan,nan,nan,nan,nan,nan,nan,nan,nan,nan,nan,nan,786.1522517944686,1110.8381258414593,nan,1111.2274422831833,nan,nan,nan,nan
1,228,1,1,1.0,1.0,0.45208917441777885,0,0.0,0.0,0.0,0.36573056322922803,0.13724866541192782,0.22848189781730022,0.5029792286411559,0.13724866541192782,0.4666289195884019,6,2,3,5,0,1,nan,nan,nan,nan,nan,nan,nan,nan,nan,nan,nan,nan,0.0,nan,nan,nan,nan,nan,nan,nan,nan,nan,nan,nan,nan,nan,nan,nan,nan,nan,nan,786.1522517944686,1111.8633345477283,nan,1112.315423722146,nan,nan,nan,nan
1,229,1,1,1.0,1.0,0.3470035276841372,0,0.0,0.0,0.0,0.36611956598232964,0.13706125031086183,0.2290583156714678,0.5031808162931914,0.13706125031086183,0.39613638127533096,8,5,2,1,3,4,nan,nan,nan,nan,nan,nan,nan,nan,nan,nan,nan,nan,0.0,nan,nan,nan,nan,nan,nan,nan,nan,nan,nan,nan,nan,nan,nan,nan,nan,nan,nan,786.1522517944686,1112.8884055516683,nan,1113.2354090793524,nan,nan,nan,nan
1,230,0,0,0.0,1.0,0.6578397278208286,0,0.0,0.0,0.0,0.36603384383749465,0.13675955711378623,0.22927428672370842,0.5027934009512809,0.13675955711378623,0.48564414330758154,4,2,5,7,6,3,nan,nan,nan,nan,nan,nan,nan,nan,nan,nan,nan,nan,0.0,nan,nan,nan,nan,nan,nan,nan,nan,nan,nan,nan,nan,nan,nan,nan,nan,nan,nan,786.1522517944686,1113.9135372815654,nan,1114.5713770093862,nan,nan,nan,nan
1,231,1,1,1.0,1.0,0.5846919708419591,1,0.0,1.0,1.0,0.367336548676706,0.1378336680051191,0.22950288067158692,0.505170216681825,0.1378336680051191,0.529845075448975,7,1,0,6,4,5,1.0,1.0,1.0,1.0,1.0,1.0,1.0,1.0,0.0,0.0,0.0,0.0,2.0,7.0,1.0,5.0,4.0,3.0,0.0,1.0,2.0,3.0,4.0,5.0,6.0,1.5085640780162066,2.4053002116270363,3.4277733967173845,5.340274344664067,5.908127534901723,7.075477012665942,786.1522517944686,1114.9386804152746,1115.7470907110255,1115.5233723861165,1123.8814981819596,1124.8818519893102,1116.7638955649454,1123.8732112199068
1,232,1,1,1.0,1.0,0.4325231402181089,0,0.0,0.0,0.0,0.3683025727752182,0.13828492802866355,0.23001764474655467,0.5065875008038818,0.13828492802866355,0.5583516129602989,1,7,6,3,0,8,nan,nan,nan,nan,nan,nan,nan,nan,nan,nan,nan,nan,0.0,nan,nan,nan,nan,nan,nan,nan,nan,nan,nan,nan,nan,nan,nan,nan,nan,nan,nan,786.1522517944686,1125.1067004450597,nan,1125.5392235852778,nan,nan,nan,nan
1,233,1,1,1.0,1.0,0.36737239989452064,0,0.0,0.0,0.0,0.36858673457806285,0.13804447034574321,0.23054226423231963,0.5066312049238061,0.13804447034574321,0.46152917031819624,5,0,8,7,4,6,nan,nan,nan,nan,nan,nan,nan,nan,nan,nan,nan,nan,0.0,nan,nan,nan,nan,nan,nan,nan,nan,nan,nan,nan,nan,nan,nan,nan,nan,nan,nan,786.1522517944686,1126.1318287537433,nan,1126.4992011536378,nan,nan,nan,nan
1,234,0,0,1.0,0.0,0.32614000979810953,0,0.0,0.0,0.0,0.36858138508606486,0.1377400955022981,0.23084128958376676,0.5063214805883629,0.1377400955022981,0.3753451833035797,0,6,7,5,3,4,nan,nan,nan,nan,nan,nan,nan,nan,nan,nan,nan,nan,0.0,nan,nan,nan,nan,nan,nan,nan,nan,nan,nan,nan,nan,nan,nan,nan,nan,nan,nan,786.1522517944686,1127.157045157859,nan,1127.4831851676572,nan,nan,nan,nan
1,235,1,1,1.0,1.0,0.4450597823597491,0,0.0,0.0,0.0,0.368395238703223,0.13746631433253087,0.23092892437069212,0.5058615530357539,0.13746631433253087,0.37952406401745975,4,8,2,1,5,3,nan,nan,nan,nan,nan,nan,nan,nan,nan,nan,nan,nan,0.0,nan,nan,nan,nan,nan,nan,nan,nan,nan,nan,nan,nan,nan,nan,nan,nan,nan,nan,786.1522517944686,1128.1821121703833,nan,1128.627171952743,nan,nan,nan,nan
1,236,1,1,1.0,1.0,0.4519038600847125,0,0.0,0.0,0.0,0.36873001836984537,0.1372589582967523,0.23147106007309307,0.5059889766665977,0.1372589582967523,0.40770121741419035,7,1,3,2,8,4,nan,nan,nan,nan,nan,nan,nan,nan,nan,nan,nan,nan,0.0,nan,nan,nan,nan,nan,nan,nan,nan,nan,nan,nan,nan,nan,nan,nan,nan,nan,nan,786.1522517944686,1129.2072598657105,nan,1129.6591637257952,nan,nan,nan,nan
1,237,1,1,1.0,1.0,0.3627726184204221,0,0.0,0.0,0.0,0.36909164376860565,0.13706952796272268,0.23202211580588297,0.5061611717313284,0.13706952796272268,0.41991208695496124,5,0,2,8,3,1,nan,nan,nan,nan,nan,nan,nan,nan,nan,nan,nan,nan,0.0,nan,nan,nan,nan,nan,nan,nan,nan,nan,nan,nan,nan,nan,nan,nan,nan,nan,nan,786.1522517944686,1130.2323787661735,nan,1130.595151384594,nan,nan,nan,nan
1,238,1,1,1.0,1.0,0.37761371303349733,0,0.0,0.0,0.0,0.36906428868051827,0.13677314806475124,0.23229114061576703,0.5058374367452695,0.13677314806475124,0.39743006384621066,6,3,5,4,0,2,nan,nan,nan,nan,nan,nan,nan,nan,nan,nan,nan,nan,0.0,nan,nan,nan,nan,nan,nan,nan,nan,nan,nan,nan,nan,nan,nan,nan,nan,nan,nan,786.1522517944686,1131.2575173382647,nan,1131.6351310512982,nan,nan,nan,nan
1,239,1,1,1.0,1.0,0.4403681990224868,0,0.0,0.0,0.0,0.369101139647557,0.13647920927443333,0.23262193037312365,0.5055803489219903,0.13647920927443333,0.3935848434921354,2,4,0,7,6,5,nan,nan,nan,nan,nan,nan,nan,nan,nan,nan,nan,nan,0.0,nan,nan,nan,nan,nan,nan,nan,nan,nan,nan,nan,nan,nan,nan,nan,nan,nan,nan,786.1522517944686,1132.2827528440394,nan,1132.7231210430618,nan,nan,nan,nan
1,240,1,1,1.0,1.0,0.3353199006523937,0,0.0,0.0,0.0,0.3694070068551747,0.13626568491651977,0.23314132193865492,0.5056726917716945,0.13626568491651977,0.38443393756945926,5,3,7,0,4,1,nan,nan,nan,nan,nan,nan,nan,nan,nan,nan,nan,nan,0.0,nan,nan,nan,nan,nan,nan,nan,nan,nan,nan,nan,nan,nan,nan,nan,nan,nan,nan,786.1522517944686,1133.3077950528823,nan,1133.6431149535347,nan,nan,nan,nan
1,241,1,1,1.0,1.0,0.3341472898609936,0,0.0,0.0,0.0,0.3692613354611457,0.1359923869739001,0.2332689484872456,0.5052537224350457,0.1359923869739001,0.3699451298452914,1,0,3,6,8,4,nan,nan,nan,nan,nan,nan,nan,nan,nan,nan,nan,nan,0.0,nan,nan,nan,nan,nan,nan,nan,nan,nan,nan,nan,nan,nan,nan,nan,nan,nan,nan,786.1522517944686,1134.3329473098274,nan,1134.6670945996884,nan,nan,nan,nan
1,242,1,1,1.0,1.0,0.30900586675852537,0,0.0,0.0,0.0,0.3691119139905068,0.13572198130319263,0.23338993268731417,0.5048338952936995,0.13572198130319263,0.32615768575730425,3,6,7,2,0,5,nan,nan,nan,nan,nan,nan,nan,nan,nan,nan,nan,nan,0.0,nan,nan,nan,nan,nan,nan,nan,nan,nan,nan,nan,nan,nan,nan,nan,nan,nan,nan,786.1522517944686,1135.3580776141025,nan,1135.667083480861,nan,nan,nan,nan
1,243,1,1,1.0,1.0,0.30784950661472976,0,0.0,0.0,0.0,0.3688572273496933,0.13549039364580506,0.23336683370388822,0.5043476209954983,0.13549039364580506,0.3170008877447496,4,7,1,3,8,2,nan,nan,nan,nan,nan,nan,nan,nan,nan,nan,nan,nan,0.0,nan,nan,nan,nan,nan,nan,nan,nan,nan,nan,nan,nan,nan,nan,nan,nan,nan,nan,786.1522517944686,1136.3832121950109,nan,1136.6910617016256,nan,nan,nan,nan
1,244,1,1,1.0,1.0,0.2827020965050906,0,0.0,0.0,0.0,0.3685998108065078,0.1352620659253976,0.23333774488111017,0.5038618767319054,0.1352620659253976,0.2998524899594486,2,1,3,4,7,6,nan,nan,nan,nan,nan,nan,nan,nan,nan,nan,nan,nan,0.0,nan,nan,nan,nan,nan,nan,nan,nan,nan,nan,nan,nan,nan,nan,nan,nan,nan,nan,786.1522517944686,1137.4083396482747,nan,1137.6910417447798,nan,nan,nan,nan
1,245,1,1,1.0,1.0,0.24953514663502574,0,0.0,0.0,0.0,0.36823889604053545,0.13509191223717082,0.23314698380336463,0.5033308082777063,0.13509191223717082,0.2800289165849487,3,6,2,5,1,0,nan,nan,nan,nan,nan,nan,nan,nan,nan,nan,nan,nan,0.0,nan,nan,nan,nan,nan,nan,nan,nan,nan,nan,nan,nan,nan,nan,nan,nan,nan,nan,786.1522517944686,1138.4334930456243,nan,1138.6830281922594,nan,nan,nan,nan
1,246,1,1,1.0,1.0,0.3123891323339194,0,0.0,0.0,0.0,0.36774222763298103,0.13502657284844366,0.23271565478453737,0.5027688004814247,0.13502657284844366,0.2815421251580119,2,4,5,7,3,8,nan,nan,nan,nan,nan,nan,nan,nan,nan,nan,nan,nan,0.0,nan,nan,nan,nan,nan,nan,nan,nan,nan,nan,nan,nan,nan,nan,nan,nan,nan,nan,786.1522517944686,1139.4586233498994,nan,1139.7710124822333,nan,nan,nan,nan
1,247,1,1,1.0,1.0,0.2632338509429246,0,0.0,0.0,0.0,0.3675115897359016,0.13479214111162582,0.23271944862427577,0.5023037308475274,0.13479214111162582,0.27505270997062325,6,3,7,1,8,5,nan,nan,nan,nan,nan,nan,nan,nan,nan,nan,nan,nan,0.0,nan,nan,nan,nan,nan,nan,nan,nan,nan,nan,nan,nan,nan,nan,nan,nan,nan,nan,786.1522517944686,1140.4837604966015,nan,1140.7469943475444,nan,nan,nan,nan
1,248,1,1,1.0,1.0,0.2540970097761601,0,0.0,0.0,0.0,0.3670789020230677,0.13467911518916748,0.23239978683390022,0.5017580172122351,0.13467911518916748,0.27657333101766807,5,6,0,3,4,2,nan,nan,nan,nan,nan,nan,nan,nan,nan,nan,nan,nan,0.0,nan,nan,nan,nan,nan,nan,nan,nan,nan,nan,nan,nan,nan,nan,nan,nan,nan,nan,786.1522517944686,1141.5088899456896,nan,1141.7629869554657,nan,nan,nan,nan
1,249,0,0,1.0,0.0,0.29290919774211943,0,0.0,0.0,0.0,0.36661203469973336,0.13459584438532243,0.23201619031441092,0.5012078790850558,0.13459584438532243,0.27008001948706806,3,1,8,6,2,7,nan,nan,nan,nan,nan,nan,nan,nan,nan,nan,nan,nan,0.0,nan,nan,nan,nan,nan,nan,nan,nan,nan,nan,nan,nan,nan,nan,nan,nan,nan,nan,786.1522517944686,1142.5340593084693,nan,1142.8269685062114,nan,nan,nan,nan
1,250,1,1,1.0,1.0,0.29177963687106967,0,0.0,0.0,0.0,0.3663087308439407,0.13440145861115818,0.23190727223278254,0.5007101894550989,0.13440145861115818,0.2795952814631164,6,8,2,1,5,0,nan,nan,nan,nan,nan,nan,nan,nan,nan,nan,nan,nan,0.0,nan,nan,nan,nan,nan,nan,nan,nan,nan,nan,nan,nan,nan,nan,nan,nan,nan,nan,786.1522517944686,1143.5591665199026,nan,1143.8509461567737,nan,nan,nan,nan
1,251,1,1,1.0,1.0,0.362627788214013,0,0.0,0.0,0.0,0.3660032837374945,0.1342102518594072,0.23179303187808734,0.5002135355969017,0.1342102518594072,0.3157722076090674,4,6,1,7,2,8,nan,nan,nan,nan,nan,nan,nan,nan,nan,nan,nan,nan,0.0,nan,nan,nan,nan,nan,nan,nan,nan,nan,nan,nan,nan,nan,nan,nan,nan,nan,nan,786.1522517944686,1144.5843013857957,nan,1144.9469291740097,nan,nan,nan,nan
1,252,1,1,1.0,1.0,0.30542046623304486,0,0.0,0.0,0.0,0.3659895062047456,0.13393624623008432,0.23205325997466125,0.4999257524348299,0.13393624623008432,0.3199426304393758,8,0,7,6,5,1,nan,nan,nan,nan,nan,nan,nan,nan,nan,nan,nan,nan,0.0,nan,nan,nan,nan,nan,nan,nan,nan,nan,nan,nan,nan,nan,nan,nan,nan,nan,nan,786.1522517944686,1145.609499258455,nan,1145.914919724688,nan,nan,nan,nan
1,253,1,1,1.0,1.0,0.2803326416760683,0,0.0,0.0,0.0,0.3657432905951045,0.13371928822749055,0.23202400236761397,0.49946257882259504,0.13371928822749055,0.3161269653743754,2,6,8,7,4,3,nan,nan,nan,nan,nan,nan,nan,nan,nan,nan,nan,nan,0.0,nan,nan,nan,nan,nan,nan,nan,nan,nan,nan,nan,nan,nan,nan,nan,nan,nan,nan,786.1522517944686,1146.6345845172182,nan,1146.9149171588942,nan,nan,nan,nan
1,254,1,1,1.0,1.0,0.31117176124826074,0,0.0,0.0,0.0,0.36539749849421777,0.13355849168912126,0.2318390068050965,0.498955990183339,0.13355849168912126,0.2989749563857913,8,4,0,5,2,7,nan,nan,nan,nan,nan,nan,nan,nan,nan,nan,nan,nan,0.0,nan,nan,nan,nan,nan,nan,nan,nan,nan,nan,nan,nan,nan,nan,nan,nan,nan,nan,786.1522517944686,1147.6597125406843,nan,1147.9708843019325,nan,nan,nan,nan
1,255,1,1,1.0,1.0,0.2940153805539012,0,0.0,0.0,0.0,0.36517884632790343,0.133333238805742,0.23184560752216143,0.4985120851336454,0.133333238805742,0.29517326115941006,2,8,5,6,1,3,nan,nan,nan,nan,nan,nan,nan,nan,nan,nan,nan,nan,0.0,nan,nan,nan,nan,nan,nan,nan,nan,nan,nan,nan,nan,nan,nan,nan,nan,nan,nan,786.1522517944686,1148.6848596658092,nan,1148.978875046363,nan,nan,nan,nan
1,256,1,1,1.0,1.0,0.31686774687841535,0,0.0,0.0,0.0,0.3648930492766022,0.13314132567495596,0.23175172360164625,0.49803437495155817,0.13314132567495596,0.3073516295601924,6,5,3,1,7,0,nan,nan,nan,nan,nan,nan,nan,nan,nan,nan,nan,nan,0.0,nan,nan,nan,nan,nan,nan,nan,nan,nan,nan,nan,nan,nan,nan,nan,nan,nan,nan,786.1522517944686,1149.709998523118,nan,1150.0268662699964,nan,nan,nan,nan
1,257,1,1,1.0,1.0,0.3236562304664403,0,0.0,0.0,0.0,0.3647009480670094,0.13290934868504084,0.23179159938196858,0.49761029675205026,0.13290934868504084,0.31151311929958564,3,8,4,2,0,1,nan,nan,nan,nan,nan,nan,nan,nan,nan,nan,nan,nan,0.0,nan,nan,nan,nan,nan,nan,nan,nan,nan,nan,nan,nan,nan,nan,nan,nan,nan,nan,786.1522517944686,1150.7351938299835,nan,1151.05885006045,nan,nan,nan,nan
1,258,1,1,1.0,1.0,0.29850967531092465,0,0.0,0.0,0.0,0.36453742329569244,0.13266952169955695,0.2318679015961355,0.4972069449952494,0.13266952169955695,0.3130112175519268,4,7,8,6,3,2,nan,nan,nan,nan,nan,nan,nan,nan,nan,nan,nan,nan,0.0,nan,nan,nan,nan,nan,nan,nan,nan,nan,nan,nan,nan,nan,nan,nan,nan,nan,nan,786.1522517944686,1151.7603175770491,nan,1152.05882725236,nan,nan,nan,nan
1,259,1,1,1.0,1.0,0.26536524831317365,0,0.0,0.0,0.0,0.36427540842273703,0.13247108193322968,0.23180432648950736,0.49674649035596674,0.13247108193322968,0.29584371803017956,1,3,2,0,6,8,nan,nan,nan,nan,nan,nan,nan,nan,nan,nan,nan,nan,0.0,nan,nan,nan,nan,nan,nan,nan,nan,nan,nan,nan,nan,nan,nan,nan,nan,nan,nan,786.1522517944686,1152.7854550089687,nan,1153.0508202572819,nan,nan,nan,nan
1,260,1,1,1.0,1.0,0.20026782155036926,0,0.0,0.0,0.0,0.3638844591732921,0.132354605337258,0.23152985383603408,0.4962390645105501,0.132354605337258,0.2547142483914892,5,8,7,2,3,6,nan,nan,nan,nan,nan,nan,nan,nan,nan,nan,nan,nan,0.0,nan,nan,nan,nan,nan,nan,nan,nan,nan,nan,nan,nan,nan,nan,nan,nan,nan,nan,786.1522517944686,1153.8105451143347,nan,1154.010812935885,nan,nan,nan,nan
1,261,1,1,1.0,1.0,0.2151009333319962,1,1.0,0.0,1.0,0.36324029918265066,0.13249058237178502,0.23074971681086565,0.4957308815544357,0.13249058237178502,0.22691133439851305,1,5,4,8,6,3,1.0,1.0,1.0,1.0,1.0,1.0,0.0,1.0,0.0,0.0,0.0,1.0,2.0,6.0,5.0,1.0,7.0,8.0,3.0,4.0,1.0,2.0,3.0,6.0,5.0,4.779399513732642,2.0524267880246043,2.6442710284609348,3.2751677946653217,7.290103542152792,6.251187863526866,786.1522517944686,1154.8356811206322,1155.644103675615,1155.0507820539642,1163.978538344847,1164.988925628597,1156.6525719603524,1163.9702066222671
1,262,1,1,1.0,1.0,0.694551593856886,0,0.0,0.0,0.0,0.36265936049304026,0.13255428534722719,0.23010507514581308,0.49521364584026745,0.13255428534722719,0.3699734495797505,3,1,7,2,5,4,nan,nan,nan,nan,nan,nan,nan,nan,nan,nan,nan,nan,0.0,nan,nan,nan,nan,nan,nan,nan,nan,nan,nan,nan,nan,nan,nan,nan,nan,nan,nan,786.1522517944686,1165.2120666287374,nan,1165.9066182225943,nan,nan,nan,nan
1,263,1,1,1.0,1.0,0.4293950377032161,0,0.0,0.0,0.0,0.3639558145296178,0.13390521083814538,0.2300506036914724,0.49786102536776317,0.13390521083814538,0.4463491882973661,1,8,2,4,3,7,nan,nan,nan,nan,nan,nan,nan,nan,nan,nan,nan,nan,0.0,nan,nan,nan,nan,nan,nan,nan,nan,nan,nan,nan,nan,nan,nan,nan,nan,nan,nan,786.1522517944686,1166.2372091922443,nan,1166.6666042299476,nan,nan,nan,nan
1,264,1,1,1.0,1.0,0.23626095429062843,0,0.0,0.0,0.0,0.3642104418571415,0.13370652331164884,0.23050391854549268,0.49791696516879036,0.13370652331164884,0.45340252861691016,7,3,5,2,1,0,nan,nan,nan,nan,nan,nan,nan,nan,nan,nan,nan,nan,0.0,nan,nan,nan,nan,nan,nan,nan,nan,nan,nan,nan,nan,nan,nan,nan,nan,nan,nan,786.1522517944686,1167.2623434879351,nan,1167.4986044422258,nan,nan,nan,nan
1,265,1,1,1.0,1.0,0.30707118730060756,0,0.0,0.0,0.0,0.3637145136107597,0.13368376795615308,0.2300307456546066,0.4973982815669128,0.13368376795615308,0.32424239309815067,3,5,4,1,0,6,nan,nan,nan,nan,nan,nan,nan,nan,nan,nan,nan,nan,0.0,nan,nan,nan,nan,nan,nan,nan,nan,nan,nan,nan,nan,nan,nan,nan,nan,nan,nan,786.1522517944686,1168.2875025873072,nan,1168.5945737746079,nan,nan,nan,nan
1,266,1,1,1.0,1.0,0.2899638437665999,0,0.0,0.0,0.0,0.3634958135091761,0.13347167690488243,0.23002413660429366,0.4969674904140585,0.13347167690488243,0.277765328452612,4,8,1,7,2,0,nan,nan,nan,nan,nan,nan,nan,nan,nan,nan,nan,nan,0.0,nan,nan,nan,nan,nan,nan,nan,nan,nan,nan,nan,nan,nan,nan,nan,nan,nan,nan,786.1522517944686,1169.3125981094781,nan,1169.6025619532447,nan,nan,nan,nan
1,267,1,1,1.0,1.0,0.20879369648173451,0,0.0,0.0,0.0,0.3632129982409354,0.13329248471779037,0.22992051352314502,0.49650548295872576,0.13329248471779037,0.26860957584964734,0,7,8,1,6,3,nan,nan,nan,nan,nan,nan,nan,nan,nan,nan,nan,nan,0.0,nan,nan,nan,nan,nan,nan,nan,nan,nan,nan,nan,nan,nan,nan,nan,nan,nan,nan,786.1522517944686,1170.337754357839,nan,1170.5465480543207,nan,nan,nan,nan
1,268,1,1,1.0,1.0,0.18364029889926314,1,1.0,0.0,1.0,0.36262135340660895,0.1333785044856839,0.22924284892092506,0.49599985789229284,0.1333785044856839,0.2274659463825325,1,8,2,6,0,4,1.0,1.0,1.0,1.0,1.0,1.0,0.0,0.0,0.0,1.0,0.0,0.0,1.0,4.0,7.0,4.0,6.0,1.0,6.0,3.0,1.0,2.0,5.0,6.0,4.0,3.788013198878616,2.0456283260136843,2.8427815020550042,5.7629456161521375,7.002315571065992,4.963627971243113,786.1522517944686,1171.3628917897586,1172.1713203317486,1171.5465320886578,1180.230728900293,1181.2282753414474,1173.1881174880546,1180.2223960373085
1,269,1,1,1.0,1.0,0.4828057012055069,0,0.0,0.0,0.0,0.3619382196107794,0.13358041284945424,0.22835780676132514,0.49551863246023364,0.13358041284945424,0.2917465655288349,8,0,5,7,3,1,nan,nan,nan,nan,nan,nan,nan,nan,nan,nan,nan,nan,0.0,nan,nan,nan,nan,nan,nan,nan,nan,nan,nan,nan,nan,nan,nan,nan,nan,nan,nan,786.1522517944686,1181.4475754927844,nan,1181.93038119399,nan,nan,nan,nan
1,270,1,1,1.0,1.0,0.281692277174443,0,0.0,0.0,0.0,0.3623977917841434,0.13353357612257363,0.22886421566156975,0.495931367906717,0.13353357612257363,0.31604609242640436,0,3,7,1,4,6,nan,nan,nan,nan,nan,nan,nan,nan,nan,nan,nan,nan,0.0,nan,nan,nan,nan,nan,nan,nan,nan,nan,nan,nan,nan,nan,nan,nan,nan,nan,nan,786.1522517944686,1182.4726875505876,nan,1182.754379827762,nan,nan,nan,nan
1,271,1,1,1.0,1.0,0.2483833481092006,0,0.0,0.0,0.0,0.36209208907728846,0.1333726055363151,0.22871948354097335,0.49546469461360354,0.1333726055363151,0.33762710882971686,6,2,8,7,0,4,nan,nan,nan,nan,nan,nan,nan,nan,nan,nan,nan,nan,0.0,nan,nan,nan,nan,nan,nan,nan,nan,nan,nan,nan,nan,nan,nan,nan,nan,nan,nan,786.1522517944686,1183.497971808305,nan,1183.7463551564142,nan,nan,nan,nan
1,272,0,0,1.0,0.0,0.2473387469071895,0,0.0,0.0,0.0,0.36166299948872965,0.13330316405716575,0.2283598354315639,0.4949661635458954,0.13330316405716575,0.25913812406361103,3,8,0,4,1,5,nan,nan,nan,nan,nan,nan,nan,nan,nan,nan,nan,nan,0.0,nan,nan,nan,nan,nan,nan,nan,nan,nan,nan,nan,nan,nan,nan,nan,nan,nan,nan,786.1522517944686,1184.522999477107,nan,1184.7703382240143,nan,nan,nan,nan
1,273,1,1,1.0,1.0,0.4061857280321419,0,0.0,0.0,0.0,0.3612332090654908,0.13323618422624384,0.22799702483924694,0.4944693932917346,0.13323618422624384,0.30063594101617735,5,2,1,8,7,0,nan,nan,nan,nan,nan,nan,nan,nan,nan,nan,nan,nan,0.0,nan,nan,nan,nan,nan,nan,nan,nan,nan,nan,nan,nan,nan,nan,nan,nan,nan,nan,786.1522517944686,1185.5481371940114,nan,1185.9543229220435,nan,nan,nan,nan
1,274,1,1,1.0,1.0,0.24506280454806983,0,0.0,0.0,0.0,0.36140157055974786,0.1330147896662056,0.22838678089354225,0.4944163602259535,0.1330147896662056,0.29952909316246706,4,7,8,6,1,5,nan,nan,nan,nan,nan,nan,nan,nan,nan,nan,nan,nan,0.0,nan,nan,nan,nan,nan,nan,nan,nan,nan,nan,nan,nan,nan,nan,nan,nan,nan,nan,786.1522517944686,1186.5732623664662,nan,1186.8183251710143,nan,nan,nan,nan
1,275,1,1,1.0,1.0,0.22787819895893335,0,0.0,0.0,0.0,0.36096747068657,0.13295574473997485,0.22801172594659513,0.4939232154265448,0.13295574473997485,0.2930422438463817,0,3,1,4,2,8,nan,nan,nan,nan,nan,nan,nan,nan,nan,nan,nan,nan,0.0,nan,nan,nan,nan,nan,nan,nan,nan,nan,nan,nan,nan,nan,nan,nan,nan,nan,nan,786.1522517944686,1187.5984060706105,nan,1187.8262842695694,nan,nan,nan,nan
