block,trial,freq_trials,correct_response,actual_response,acc,rts,probe_trials,fast_rt_trigger,slow_rt_trigger,rt_triggered,rts_runningavg,rts_runningstd,rts_runningfastthresh,rts_runningslowthresh,rts_runningstd,rts_trailingavg,trials_colorind0,trials_colorind1,trials_colorind2,trials_colorind3,trials_colorind4,trials_colorind5,wholereport_resp0,wholereport_resp1,wholereport_resp2,wholereport_resp3,wholereport_resp4,wholereport_resp5,wholereport_respacc0,wholereport_respacc1,wholereport_respacc2,wholereport_respacc3,wholereport_respacc4,wholereport_respacc5,wholereport_respacc_total,wholereport_respcolorind0,wholereport_respcolorind1,wholereport_respcolorind2,wholereport_respcolorind3,wholereport_respcolorind4,wholereport_respcolorind5,wholereport_resporder0,wholereport_resporder1,wholereport_resporder2,wholereport_resporder3,wholereport_resporder4,wholereport_resporder5,wholereport_rts0,wholereport_rts1,wholereport_rts2,wholereport_rts3,wholereport_rts4,wholereport_rts5,time_blockstart,time_encarray_offset,time_encarray_onset,time_response,time_iti_offset,time_iti_onset,time_memprobe_offset,time_memprobe_onset
1,1,1,1,1.0,1.0,0.3762554354034364,0,nan,nan,nan,nan,nan,nan,nan,nan,nan,2,7,0,8,4,5,nan,nan,nan,nan,nan,nan,nan,nan,nan,nan,nan,nan,0.0,nan,nan,nan,nan,nan,nan,nan,nan,nan,nan,nan,nan,nan,nan,nan,nan,nan,nan,1417.0625297215884,1418.0782783300383,nan,1418.4545337654417,nan,nan,nan,nan
1,2,1,1,1.0,1.0,0.4474413465359248,0,nan,nan,nan,nan,nan,nan,nan,nan,nan,1,5,4,0,8,7,nan,nan,nan,nan,nan,nan,nan,nan,nan,nan,nan,nan,0.0,nan,nan,nan,nan,nan,nan,nan,nan,nan,nan,nan,nan,nan,nan,nan,nan,nan,nan,1417.0625297215884,1419.0951006229734,nan,1419.5425419695093,nan,nan,nan,nan
1,3,1,1,1.0,1.0,0.3986708093434572,0,nan,nan,nan,nan,nan,nan,nan,nan,nan,8,0,7,6,4,5,nan,nan,nan,nan,nan,nan,nan,nan,nan,nan,nan,nan,0.0,nan,nan,nan,nan,nan,nan,nan,nan,nan,nan,nan,nan,nan,nan,nan,nan,nan,nan,1417.0625297215884,1420.1119006781955,nan,1420.510571487539,nan,nan,nan,nan
1,4,1,1,1.0,1.0,0.6938168772030622,0,nan,nan,nan,nan,nan,nan,nan,nan,nan,6,1,3,4,5,0,nan,nan,nan,nan,nan,nan,nan,nan,nan,nan,nan,nan,0.0,nan,nan,nan,nan,nan,nan,nan,nan,nan,nan,nan,nan,nan,nan,nan,nan,nan,nan,1417.0625297215884,1421.1286927505862,nan,1421.8225096277893,nan,nan,nan,nan
1,5,0,0,0.0,1.0,0.6210033333627507,0,nan,nan,nan,nan,nan,nan,nan,nan,nan,8,0,1,5,2,7,nan,nan,nan,nan,nan,nan,nan,nan,nan,nan,nan,nan,0.0,nan,nan,nan,nan,nan,nan,nan,nan,nan,nan,nan,nan,nan,nan,nan,nan,nan,nan,1417.0625297215884,1422.1454959419207,nan,1422.7664992752834,nan,nan,nan,nan
1,6,1,1,1.0,1.0,0.6682146615930833,0,nan,nan,nan,nan,nan,nan,nan,nan,nan,1,8,7,2,0,4,nan,nan,nan,nan,nan,nan,nan,nan,nan,nan,nan,nan,0.0,nan,nan,nan,nan,nan,nan,nan,nan,nan,nan,nan,nan,nan,nan,nan,nan,nan,nan,1417.0625297215884,1423.1623108222848,nan,1423.8305254838779,nan,nan,nan,nan
1,7,1,1,1.0,1.0,0.6913681580335833,0,nan,nan,nan,nan,nan,nan,nan,nan,nan,7,1,4,3,5,6,nan,nan,nan,nan,nan,nan,nan,nan,nan,nan,nan,nan,0.0,nan,nan,nan,nan,nan,nan,nan,nan,nan,nan,nan,nan,nan,nan,nan,nan,nan,nan,1417.0625297215884,1424.17910403508,nan,1424.8704721931135,nan,nan,nan,nan
1,8,1,1,1.0,1.0,0.5945466747507453,0,nan,nan,nan,nan,nan,nan,nan,nan,nan,3,6,5,8,2,1,nan,nan,nan,nan,nan,nan,nan,nan,nan,nan,nan,nan,0.0,nan,nan,nan,nan,nan,nan,nan,nan,nan,nan,nan,nan,nan,nan,nan,nan,nan,nan,1417.0625297215884,1425.1959060859517,nan,1425.7904527607025,nan,nan,nan,nan
1,9,1,1,1.0,1.0,0.521732275665272,0,nan,nan,nan,nan,nan,nan,nan,nan,nan,8,2,3,1,4,5,nan,nan,nan,nan,nan,nan,nan,nan,nan,nan,nan,nan,0.0,nan,nan,nan,nan,nan,nan,nan,nan,nan,nan,nan,nan,nan,nan,nan,nan,nan,nan,1417.0625297215884,1426.2127126984415,nan,1426.7344449741067,nan,nan,nan,nan
1,10,1,1,1.0,1.0,0.4409219773951918,0,nan,nan,nan,nan,nan,nan,nan,nan,nan,0,7,4,6,1,8,nan,nan,nan,nan,nan,nan,nan,nan,nan,nan,nan,nan,0.0,nan,nan,nan,nan,nan,nan,nan,nan,nan,nan,nan,nan,nan,nan,nan,nan,nan,nan,1417.0625297215884,1427.2295107579557,nan,1427.670432735351,nan,nan,nan,nan
1,11,1,1,1.0,1.0,0.592107648961246,0,nan,nan,nan,nan,nan,nan,nan,nan,nan,5,3,8,4,0,7,nan,nan,nan,nan,nan,nan,nan,nan,nan,nan,nan,nan,0.0,nan,nan,nan,nan,nan,nan,nan,nan,nan,nan,nan,nan,nan,nan,nan,nan,nan,nan,1417.0625297215884,1428.2463153747376,nan,1428.8384230236989,nan,nan,nan,nan
1,12,1,1,1.0,1.0,0.5030058035044931,0,nan,nan,nan,nan,nan,nan,nan,nan,nan,3,2,4,8,7,1,nan,nan,nan,nan,nan,nan,nan,nan,nan,nan,nan,nan,0.0,nan,nan,nan,nan,nan,nan,nan,nan,nan,nan,nan,nan,nan,nan,nan,nan,nan,nan,1417.0625297215884,1429.2714620013721,nan,1429.7744678048766,nan,nan,nan,nan
1,13,1,1,1.0,1.0,0.4621336614363827,0,nan,nan,nan,nan,nan,nan,nan,nan,nan,7,1,8,3,5,0,nan,nan,nan,nan,nan,nan,nan,nan,nan,nan,nan,nan,0.0,nan,nan,nan,nan,nan,nan,nan,nan,nan,nan,nan,nan,nan,nan,nan,nan,nan,nan,1417.0625297215884,1430.2882574949763,nan,1430.7503911564127,nan,nan,nan,nan
1,14,0,0,0.0,1.0,0.4533206673222594,0,nan,nan,nan,nan,nan,nan,nan,nan,nan,0,5,7,8,2,4,nan,nan,nan,nan,nan,nan,nan,nan,nan,nan,nan,nan,0.0,nan,nan,nan,nan,nan,nan,nan,nan,nan,nan,nan,nan,nan,nan,nan,nan,nan,nan,1417.0625297215884,1431.3050635372638,nan,1431.758384204586,nan,nan,nan,nan
1,15,1,1,1.0,1.0,0.4281409691320732,0,nan,nan,nan,nan,nan,nan,nan,nan,nan,1,6,3,2,4,5,nan,nan,nan,nan,nan,nan,nan,nan,nan,nan,nan,nan,0.0,nan,nan,nan,nan,nan,nan,nan,nan,nan,nan,nan,nan,nan,nan,nan,nan,nan,nan,1417.0625297215884,1432.330204176833,nan,1432.758345145965,nan,nan,nan,nan
1,16,1,1,1.0,1.0,0.4513483493356034,0,nan,nan,nan,nan,nan,nan,nan,nan,nan,4,7,5,0,3,1,nan,nan,nan,nan,nan,nan,nan,nan,nan,nan,nan,nan,0.0,nan,nan,nan,nan,nan,nan,nan,nan,nan,nan,nan,nan,nan,nan,nan,nan,nan,nan,1417.0625297215884,1433.3470033766935,nan,1433.798351726029,nan,nan,nan,nan
1,17,1,1,1.0,1.0,0.47453035571379587,0,nan,nan,nan,nan,nan,nan,nan,nan,nan,5,3,0,6,8,4,nan,nan,nan,nan,nan,nan,nan,nan,nan,nan,nan,nan,0.0,nan,nan,nan,nan,nan,nan,nan,nan,nan,nan,nan,nan,nan,nan,nan,nan,nan,nan,1417.0625297215884,1434.3638077083742,nan,1434.838338064088,nan,nan,nan,nan
1,18,1,1,1.0,1.0,0.4497295546461828,0,nan,nan,nan,nan,nan,nan,nan,nan,nan,1,4,8,7,6,5,nan,nan,nan,nan,nan,nan,nan,nan,nan,nan,nan,nan,0.0,nan,nan,nan,nan,nan,nan,nan,nan,nan,nan,nan,nan,nan,nan,nan,nan,nan,nan,1417.0625297215884,1435.3806066231919,nan,1435.830336177838,nan,nan,nan,nan
1,19,1,1,1.0,1.0,0.46488914760993794,0,nan,nan,nan,nan,nan,nan,nan,nan,nan,5,7,3,0,8,1,nan,nan,nan,nan,nan,nan,nan,nan,nan,nan,nan,nan,0.0,nan,nan,nan,nan,nan,nan,nan,nan,nan,nan,nan,nan,nan,nan,nan,nan,nan,nan,1417.0625297215884,1436.3974160866928,nan,1436.8623052343028,nan,nan,nan,nan
1,20,1,1,1.0,1.0,0.44808481592917815,1,nan,nan,nan,nan,nan,nan,nan,nan,nan,0,8,6,2,5,3,1.0,1.0,1.0,1.0,1.0,1.0,0.0,0.0,0.0,0.0,0.0,0.0,0.0,1.0,4.0,0.0,4.0,2.0,8.0,3.0,2.0,1.0,6.0,5.0,4.0,5.876772890915163,3.5251771323382854,2.548965830297675,8.650912261218764,7.699636042059865,6.7798484867671505,1417.0625297215884,1437.4142130058026,1438.2226244658814,1437.8622978217318,1447.9322694942239,1448.943417737959,1439.2394527458819,1447.9239360373467
1,21,1,1,nan,nan,nan,0,nan,nan,nan,nan,nan,nan,nan,nan,nan,8,1,4,5,6,2,nan,nan,nan,nan,nan,nan,nan,nan,nan,nan,nan,nan,0.0,nan,nan,nan,nan,nan,nan,nan,nan,nan,nan,nan,nan,nan,nan,nan,nan,nan,nan,1417.0625297215884,1449.1657998692826,nan,nan,nan,nan,nan,nan
1,22,1,1,1.0,1.0,0.44718931859824806,0,nan,nan,nan,nan,nan,nan,nan,nan,nan,5,8,2,3,4,1,nan,nan,nan,nan,nan,nan,nan,nan,nan,nan,nan,nan,0.0,nan,nan,nan,nan,nan,nan,nan,nan,nan,nan,nan,nan,nan,nan,nan,nan,nan,nan,1417.0625297215884,1450.190919411485,nan,1450.6381087300833,nan,nan,nan,nan
1,23,1,1,1.0,1.0,0.2784275510930456,0,nan,nan,nan,nan,nan,nan,nan,nan,nan,0,7,4,6,3,8,nan,nan,nan,nan,nan,nan,nan,nan,nan,nan,nan,nan,0.0,nan,nan,nan,nan,nan,nan,nan,nan,nan,nan,nan,nan,nan,nan,nan,nan,nan,nan,1417.0625297215884,1451.207719181606,nan,1451.4861467326991,nan,nan,nan,nan
1,24,0,0,1.0,0.0,0.20555983838858083,0,nan,nan,0.0,nan,nan,nan,nan,nan,nan,1,2,8,0,7,5,nan,nan,nan,nan,nan,nan,nan,nan,nan,nan,nan,nan,0.0,nan,nan,nan,nan,nan,nan,nan,nan,nan,nan,nan,nan,nan,nan,nan,nan,nan,nan,1417.0625297215884,1452.2245600059978,nan,1452.4301198443864,nan,nan,nan,nan
1,25,1,1,1.0,1.0,0.5407840462867171,0,nan,nan,nan,nan,nan,nan,nan,nan,nan,6,8,3,1,2,0,nan,nan,nan,nan,nan,nan,nan,nan,nan,nan,nan,nan,0.0,nan,nan,nan,nan,nan,nan,nan,nan,nan,nan,nan,nan,nan,nan,nan,nan,nan,nan,1417.0625297215884,1453.2413552145008,nan,1453.7821392607875,nan,nan,nan,nan
1,26,1,1,1.0,1.0,0.3719413105864078,0,nan,nan,nan,nan,nan,nan,nan,nan,nan,8,0,6,4,1,5,nan,nan,nan,nan,nan,nan,nan,nan,nan,nan,nan,nan,0.0,nan,nan,nan,nan,nan,nan,nan,nan,nan,nan,nan,nan,nan,nan,nan,nan,nan,nan,1417.0625297215884,1454.2581515634083,nan,1454.6300928739947,nan,nan,nan,nan
1,27,1,1,1.0,1.0,0.3470957489917055,0,nan,nan,nan,nan,nan,nan,nan,nan,nan,2,3,1,0,7,8,nan,nan,nan,nan,nan,nan,nan,nan,nan,nan,nan,nan,0.0,nan,nan,nan,nan,nan,nan,nan,nan,nan,nan,nan,nan,nan,nan,nan,nan,nan,nan,1417.0625297215884,1455.2749855454313,nan,1455.622081294423,nan,nan,nan,nan
1,28,1,1,1.0,1.0,0.4023138100747019,0,nan,nan,nan,nan,nan,nan,nan,nan,nan,7,6,0,5,4,1,nan,nan,nan,nan,nan,nan,nan,nan,nan,nan,nan,nan,0.0,nan,nan,nan,nan,nan,nan,nan,nan,nan,nan,nan,nan,nan,nan,nan,nan,nan,nan,1417.0625297215884,1456.2917588013224,nan,1456.6940726113971,nan,nan,nan,nan
1,29,1,1,1.0,1.0,0.5134974631946534,0,nan,nan,nan,nan,nan,nan,nan,nan,nan,2,3,7,1,0,5,nan,nan,nan,nan,nan,nan,nan,nan,nan,nan,nan,nan,0.0,nan,nan,nan,nan,nan,nan,nan,nan,nan,nan,nan,nan,nan,nan,nan,nan,nan,nan,1417.0625297215884,1457.3085694051697,nan,1457.8220668683643,nan,nan,nan,nan
1,30,1,1,1.0,1.0,0.48069021437549964,0,nan,nan,nan,nan,nan,nan,nan,nan,nan,0,1,5,7,6,3,nan,nan,nan,nan,nan,nan,nan,nan,nan,nan,nan,nan,0.0,nan,nan,nan,nan,nan,nan,nan,nan,nan,nan,nan,nan,nan,nan,nan,nan,nan,nan,1417.0625297215884,1458.3253640434705,nan,1458.806054257846,nan,nan,nan,nan
1,31,1,1,1.0,1.0,0.5035204079467803,0,nan,nan,nan,nan,nan,nan,nan,nan,nan,5,0,4,1,7,2,nan,nan,nan,nan,nan,nan,nan,nan,nan,nan,nan,nan,0.0,nan,nan,nan,nan,nan,nan,nan,nan,nan,nan,nan,nan,nan,nan,nan,nan,nan,nan,1417.0625297215884,1459.350517512532,nan,1459.8540379204787,nan,nan,nan,nan
1,32,1,1,1.0,1.0,0.4307259658235125,0,nan,nan,nan,nan,nan,nan,nan,nan,nan,2,7,6,8,4,0,nan,nan,nan,nan,nan,nan,nan,nan,nan,nan,nan,nan,0.0,nan,nan,nan,nan,nan,nan,nan,nan,nan,nan,nan,nan,nan,nan,nan,nan,nan,nan,1417.0625297215884,1460.367318137898,nan,1460.7980441037216,nan,nan,nan,nan
1,33,1,1,1.0,1.0,0.38989345263689756,0,nan,nan,nan,nan,nan,nan,nan,nan,nan,3,6,8,4,7,1,nan,nan,nan,nan,nan,nan,nan,nan,nan,nan,nan,nan,0.0,nan,nan,nan,nan,nan,nan,nan,nan,nan,nan,nan,nan,nan,nan,nan,nan,nan,nan,1417.0625297215884,1461.3841207589721,nan,1461.774014211609,nan,nan,nan,nan
1,34,0,0,1.0,0.0,0.3410624744137749,0,nan,nan,0.0,nan,nan,nan,nan,nan,nan,8,5,2,3,0,6,nan,nan,nan,nan,nan,nan,nan,nan,nan,nan,nan,nan,0.0,nan,nan,nan,nan,nan,nan,nan,nan,nan,nan,nan,nan,nan,nan,nan,nan,nan,nan,1417.0625297215884,1462.400942196662,nan,1462.7420046710758,nan,nan,nan,nan
1,35,1,1,0.0,0.0,0.004242850001901388,0,nan,nan,0.0,nan,nan,nan,nan,nan,nan,2,4,6,7,1,5,nan,nan,nan,nan,nan,nan,nan,nan,nan,nan,nan,nan,0.0,nan,nan,nan,nan,nan,nan,nan,nan,nan,nan,nan,nan,nan,nan,nan,nan,nan,nan,1417.0625297215884,1463.4177376902662,nan,1463.4219805402681,nan,nan,nan,nan
1,36,1,1,1.0,1.0,0.21141749166417867,0,nan,nan,nan,nan,nan,nan,nan,nan,nan,5,0,1,3,7,4,nan,nan,nan,nan,nan,nan,nan,nan,nan,nan,nan,nan,0.0,nan,nan,nan,nan,nan,nan,nan,nan,nan,nan,nan,nan,nan,nan,nan,nan,nan,nan,1417.0625297215884,1464.4345386007335,nan,1464.6459560923977,nan,nan,nan,nan
1,37,0,0,1.0,0.0,0.2026506835827604,0,nan,nan,0.0,nan,nan,nan,nan,nan,nan,0,2,8,5,4,3,nan,nan,nan,nan,nan,nan,nan,nan,nan,nan,nan,nan,0.0,nan,nan,nan,nan,nan,nan,nan,nan,nan,nan,nan,nan,nan,nan,nan,nan,nan,nan,1417.0625297215884,1465.4513278221712,nan,1465.653978505754,nan,nan,nan,nan
1,38,1,1,1.0,1.0,0.497815853159409,1,nan,nan,nan,nan,nan,nan,nan,nan,nan,2,7,4,8,5,6,1.0,1.0,1.0,1.0,1.0,1.0,1.0,0.0,0.0,0.0,0.0,0.0,1.0,2.0,0.0,7.0,0.0,1.0,7.0,3.0,2.0,1.0,6.0,5.0,4.0,3.740905897808261,2.685468024981674,1.6789210012066178,6.396580175089184,5.341147434024606,4.61267557850806,1417.0625297215884,1466.4681210349663,1467.2765493159532,1466.9659368881257,1474.7358801647206,1475.7439239605446,1468.301694231981,1474.7275472780457
1,39,1,1,nan,nan,nan,0,nan,nan,nan,nan,nan,nan,nan,nan,nan,8,6,0,3,7,5,nan,nan,nan,nan,nan,nan,nan,nan,nan,nan,nan,nan,0.0,nan,nan,nan,nan,nan,nan,nan,nan,nan,nan,nan,nan,nan,nan,nan,nan,nan,nan,1417.0625297215884,1475.961081074318,nan,nan,nan,nan,nan,nan
1,40,1,1,1.0,1.0,0.21197029948234558,0,nan,nan,nan,nan,nan,nan,nan,nan,nan,7,8,2,0,5,3,nan,nan,nan,nan,nan,nan,nan,nan,nan,nan,nan,nan,0.0,nan,nan,nan,nan,nan,nan,nan,nan,nan,nan,nan,nan,nan,nan,nan,nan,nan,nan,1417.0625297215884,1476.9778734318097,nan,1477.189843731292,nan,nan,nan,nan
1,41,1,1,1.0,1.0,0.22710765473311767,0,nan,nan,nan,nan,nan,nan,nan,nan,nan,2,3,4,1,6,0,nan,nan,nan,nan,nan,nan,nan,nan,nan,nan,nan,nan,0.0,nan,nan,nan,nan,nan,nan,nan,nan,nan,nan,nan,nan,nan,nan,nan,nan,nan,nan,1417.0625297215884,1477.9947336429614,nan,1478.2218412976945,nan,nan,nan,nan
1,42,1,1,1.0,1.0,0.29832407139474526,0,nan,nan,nan,nan,nan,nan,nan,nan,nan,3,1,5,6,4,7,nan,nan,nan,nan,nan,nan,nan,nan,nan,nan,nan,nan,0.0,nan,nan,nan,nan,nan,nan,nan,nan,nan,nan,nan,nan,nan,nan,nan,nan,nan,nan,1417.0625297215884,1479.011488367396,nan,1479.3098124387907,nan,nan,nan,nan
1,43,1,1,1.0,1.0,0.33750471839448437,0,nan,nan,nan,nan,nan,nan,nan,nan,nan,0,6,7,3,5,4,nan,nan,nan,nan,nan,nan,nan,nan,nan,nan,nan,nan,0.0,nan,nan,nan,nan,nan,nan,nan,nan,nan,nan,nan,nan,nan,nan,nan,nan,nan,nan,1417.0625297215884,1480.0282867119531,nan,1480.3657914303476,nan,nan,nan,nan
1,44,1,1,1.0,1.0,0.3846875366871245,0,nan,nan,nan,nan,nan,nan,nan,nan,nan,4,7,5,6,1,2,nan,nan,nan,nan,nan,nan,nan,nan,nan,nan,nan,nan,0.0,nan,nan,nan,nan,nan,nan,nan,nan,nan,nan,nan,nan,nan,nan,nan,nan,nan,nan,1417.0625297215884,1481.0450784993009,nan,1481.429766035988,nan,nan,nan,nan
1,45,1,1,1.0,1.0,0.3438669976894744,0,nan,nan,nan,nan,nan,nan,nan,nan,nan,3,0,4,1,5,8,nan,nan,nan,nan,nan,nan,nan,nan,nan,nan,nan,nan,0.0,nan,nan,nan,nan,nan,nan,nan,nan,nan,nan,nan,nan,nan,nan,nan,nan,nan,nan,1417.0625297215884,1482.061891098856,nan,1482.4057580965455,nan,nan,nan,nan
1,46,1,1,1.0,1.0,0.447048194357194,0,nan,nan,nan,nan,nan,nan,nan,nan,nan,5,1,8,2,4,6,nan,nan,nan,nan,nan,nan,nan,nan,nan,nan,nan,nan,0.0,nan,nan,nan,nan,nan,nan,nan,nan,nan,nan,nan,nan,nan,nan,nan,nan,nan,nan,1417.0625297215884,1483.078698566649,nan,1483.5257467610063,nan,nan,nan,nan
1,47,1,1,1.0,1.0,0.4222245853743516,0,nan,nan,nan,nan,nan,nan,nan,nan,nan,8,4,7,1,6,0,nan,nan,nan,nan,nan,nan,nan,nan,nan,nan,nan,nan,0.0,nan,nan,nan,nan,nan,nan,nan,nan,nan,nan,nan,nan,nan,nan,nan,nan,nan,nan,1417.0625297215884,1484.0955000473186,nan,1484.517724632693,nan,nan,nan,nan
1,48,1,1,1.0,1.0,0.3574414377217181,0,nan,nan,nan,nan,nan,nan,nan,nan,nan,2,0,6,3,4,8,nan,nan,nan,nan,nan,nan,nan,nan,nan,nan,nan,nan,0.0,nan,nan,nan,nan,nan,nan,nan,nan,nan,nan,nan,nan,nan,nan,nan,nan,nan,nan,1417.0625297215884,1485.112295826024,nan,1485.4697372637456,nan,nan,nan,nan
1,49,0,0,0.0,1.0,0.5166093236766756,0,nan,nan,nan,nan,nan,nan,nan,nan,nan,0,6,7,5,1,2,nan,nan,nan,nan,nan,nan,nan,nan,nan,nan,nan,nan,0.0,nan,nan,nan,nan,nan,nan,nan,nan,nan,nan,nan,nan,nan,nan,nan,nan,nan,nan,1417.0625297215884,1486.1291075702757,nan,1486.6457168939523,nan,nan,nan,nan
1,50,1,1,1.0,1.0,0.5157985007972457,0,nan,nan,nan,nan,nan,nan,nan,nan,nan,2,7,3,6,0,4,nan,nan,nan,nan,nan,nan,nan,nan,nan,nan,nan,nan,0.0,nan,nan,nan,nan,nan,nan,nan,nan,nan,nan,nan,nan,nan,nan,nan,nan,nan,nan,1417.0625297215884,1487.145910191408,nan,1487.6617086922051,nan,nan,nan,nan
1,51,1,1,1.0,1.0,0.46697778621455655,0,nan,nan,nan,nan,nan,nan,nan,nan,nan,5,0,4,2,8,6,nan,nan,nan,nan,nan,nan,nan,nan,nan,nan,nan,nan,0.0,nan,nan,nan,nan,nan,nan,nan,nan,nan,nan,nan,nan,nan,nan,nan,nan,nan,nan,1417.0625297215884,1488.162712812482,nan,1488.6296905986965,nan,nan,nan,nan
1,52,1,1,1.0,1.0,0.3301742413896136,0,nan,nan,nan,nan,nan,nan,nan,nan,nan,0,6,8,1,5,3,nan,nan,nan,nan,nan,nan,nan,nan,nan,nan,nan,nan,0.0,nan,nan,nan,nan,nan,nan,nan,nan,nan,nan,nan,nan,nan,nan,nan,nan,nan,nan,1417.0625297215884,1489.1795174292638,nan,1489.5096916706534,nan,nan,nan,nan
1,53,1,1,1.0,1.0,0.3293186579248868,1,nan,nan,nan,nan,nan,nan,nan,nan,nan,2,0,4,7,1,8,1.0,1.0,1.0,1.0,1.0,1.0,0.0,0.0,0.0,0.0,0.0,0.0,0.0,4.0,2.0,6.0,0.0,4.0,1.0,3.0,2.0,1.0,6.0,5.0,4.0,4.484930783568416,3.460977583192289,1.9162999337422661,7.979698923591059,6.396063289779704,5.485194215434603,1417.0625297215884,1490.1963334500324,1491.0047534630867,1490.5256521079573,1500.0476173098432,1501.0468375628698,1492.0298866900848,1500.0392841380672
1,54,1,1,1.0,1.0,0.7410621322924271,0,nan,nan,nan,nan,nan,nan,nan,nan,nan,0,8,7,6,2,5,nan,nan,nan,nan,nan,nan,nan,nan,nan,nan,nan,nan,0.0,nan,nan,nan,nan,nan,nan,nan,nan,nan,nan,nan,nan,nan,nan,nan,nan,nan,nan,1417.0625297215884,1501.2644841923611,nan,1502.0055463246536,nan,nan,nan,nan
1,55,1,1,1.0,1.0,0.45227150135906413,0,nan,nan,nan,nan,nan,nan,nan,nan,nan,7,6,4,0,3,2,nan,nan,nan,nan,nan,nan,nan,nan,nan,nan,nan,nan,0.0,nan,nan,nan,nan,nan,nan,nan,nan,nan,nan,nan,nan,nan,nan,nan,nan,nan,nan,1417.0625297215884,1502.281250035623,nan,1502.7335215369822,nan,nan,nan,nan
1,56,1,1,1.0,1.0,0.555400809913408,0,nan,nan,nan,nan,nan,nan,nan,nan,nan,4,0,3,1,7,8,nan,nan,nan,nan,nan,nan,nan,nan,nan,nan,nan,nan,0.0,nan,nan,nan,nan,nan,nan,nan,nan,nan,nan,nan,nan,nan,nan,nan,nan,nan,nan,1417.0625297215884,1503.2980999832507,nan,1503.8535007931641,nan,nan,nan,nan
1,57,1,1,1.0,1.0,0.6986005608923733,0,nan,nan,nan,nan,nan,nan,nan,nan,nan,2,6,8,5,4,1,nan,nan,nan,nan,nan,nan,nan,nan,nan,nan,nan,nan,0.0,nan,nan,nan,nan,nan,nan,nan,nan,nan,nan,nan,nan,nan,nan,nan,nan,nan,nan,1417.0625297215884,1504.3148883493268,nan,1505.0134889102192,nan,nan,nan,nan
1,58,1,1,1.0,1.0,0.3854744111886248,0,nan,nan,nan,nan,nan,nan,nan,nan,nan,3,7,0,6,5,2,nan,nan,nan,nan,nan,nan,nan,nan,nan,nan,nan,nan,0.0,nan,nan,nan,nan,nan,nan,nan,nan,nan,nan,nan,nan,nan,nan,nan,nan,nan,nan,1417.0625297215884,1505.340019295516,nan,1505.7254937067046,nan,nan,nan,nan
1,59,1,1,1.0,1.0,0.440289341728203,0,nan,nan,nan,nan,nan,nan,nan,nan,nan,7,0,3,2,6,8,nan,nan,nan,nan,nan,nan,nan,nan,nan,nan,nan,nan,0.0,nan,nan,nan,nan,nan,nan,nan,nan,nan,nan,nan,nan,nan,nan,nan,nan,nan,nan,1417.0625297215884,1506.3651750453282,nan,1506.8054643870564,nan,nan,nan,nan
1,60,0,0,0.0,1.0,0.45516383525682613,0,nan,nan,nan,nan,nan,nan,nan,nan,nan,0,2,6,1,4,3,nan,nan,nan,nan,nan,nan,nan,nan,nan,nan,nan,nan,0.0,nan,nan,nan,nan,nan,nan,nan,nan,nan,nan,nan,nan,nan,nan,nan,nan,nan,nan,1417.0625297215884,1507.3902923067799,nan,1507.8454561420367,nan,nan,nan,nan
1,61,1,1,1.0,1.0,0.28634618828073144,0,nan,nan,nan,nan,nan,nan,nan,nan,nan,7,5,2,6,3,0,nan,nan,nan,nan,nan,nan,nan,nan,nan,nan,nan,nan,0.0,nan,nan,nan,nan,nan,nan,nan,nan,nan,nan,nan,nan,nan,nan,nan,nan,nan,nan,1417.0625297215884,1508.4071091827936,nan,1508.6934553710744,nan,nan,nan,nan
1,62,1,1,1.0,1.0,0.37352817406645045,0,nan,nan,nan,nan,nan,nan,nan,nan,nan,3,8,5,2,4,1,nan,nan,nan,nan,nan,nan,nan,nan,nan,nan,nan,nan,0.0,nan,nan,nan,nan,nan,nan,nan,nan,nan,nan,nan,nan,nan,nan,nan,nan,nan,nan,1417.0625297215884,1509.4239106635214,nan,1509.7974388375878,nan,nan,nan,nan
1,63,1,1,1.0,1.0,0.5087140646646731,0,nan,nan,nan,nan,nan,nan,nan,nan,nan,0,2,3,1,7,8,nan,nan,nan,nan,nan,nan,nan,nan,nan,nan,nan,nan,0.0,nan,nan,nan,nan,nan,nan,nan,nan,nan,nan,nan,nan,nan,nan,nan,nan,nan,nan,1417.0625297215884,1510.4407235481776,nan,1510.9494376128423,nan,nan,nan,nan
1,64,1,1,1.0,1.0,0.42793569748755544,0,nan,nan,nan,nan,nan,nan,nan,nan,nan,7,5,0,4,8,1,nan,nan,nan,nan,nan,nan,nan,nan,nan,nan,nan,nan,0.0,nan,nan,nan,nan,nan,nan,nan,nan,nan,nan,nan,nan,nan,nan,nan,nan,nan,nan,1417.0625297215884,1511.4574933828553,nan,1511.8854290803429,nan,nan,nan,nan
1,65,1,1,1.0,1.0,0.38708408270031214,0,nan,nan,nan,nan,nan,nan,nan,nan,nan,8,3,5,7,6,4,nan,nan,nan,nan,nan,nan,nan,nan,nan,nan,nan,nan,0.0,nan,nan,nan,nan,nan,nan,nan,nan,nan,nan,nan,nan,nan,nan,nan,nan,nan,nan,1417.0625297215884,1512.4743236585637,nan,1512.861407741264,nan,nan,nan,nan
1,66,1,1,1.0,1.0,0.4983019476640038,0,nan,nan,nan,nan,nan,nan,nan,nan,nan,4,7,8,1,0,6,nan,nan,nan,nan,nan,nan,nan,nan,nan,nan,nan,nan,0.0,nan,nan,nan,nan,nan,nan,nan,nan,nan,nan,nan,nan,nan,nan,nan,nan,nan,nan,1417.0625297215884,1513.4910923528369,nan,1513.9893943005009,nan,nan,nan,nan
1,67,1,1,1.0,1.0,0.5134213416022249,0,nan,nan,nan,nan,nan,nan,nan,nan,nan,5,8,3,0,7,2,nan,nan,nan,nan,nan,nan,nan,nan,nan,nan,nan,nan,0.0,nan,nan,nan,nan,nan,nan,nan,nan,nan,nan,nan,nan,nan,nan,nan,nan,nan,nan,1417.0625297215884,1514.5079588362132,nan,1515.0213801778154,nan,nan,nan,nan
1,68,1,1,1.0,1.0,0.4646707614301704,0,nan,nan,nan,nan,nan,nan,nan,nan,nan,0,6,4,3,8,1,nan,nan,nan,nan,nan,nan,nan,nan,nan,nan,nan,nan,0.0,nan,nan,nan,nan,nan,nan,nan,nan,nan,nan,nan,nan,nan,nan,nan,nan,nan,nan,1417.0625297215884,1515.524704722513,nan,1515.9893754839431,nan,nan,nan,nan
1,69,1,1,1.0,1.0,0.43982348922872916,0,nan,nan,nan,nan,nan,nan,nan,nan,nan,3,8,7,0,5,6,nan,nan,nan,nan,nan,nan,nan,nan,nan,nan,nan,nan,0.0,nan,nan,nan,nan,nan,nan,nan,nan,nan,nan,nan,nan,nan,nan,nan,nan,nan,nan,1417.0625297215884,1516.541531577066,nan,1516.9813550662948,nan,nan,nan,nan
1,70,0,0,0.0,1.0,0.5830018577398732,0,nan,nan,nan,nan,nan,nan,nan,nan,nan,5,2,3,1,8,4,nan,nan,nan,nan,nan,nan,nan,nan,nan,nan,nan,nan,0.0,nan,nan,nan,nan,nan,nan,nan,nan,nan,nan,nan,nan,nan,nan,nan,nan,nan,nan,1417.0625297215884,1517.5583407554077,nan,1518.1413426131476,nan,nan,nan,nan
1,71,1,1,1.0,1.0,0.4541842335020192,0,nan,nan,nan,nan,nan,nan,nan,nan,nan,8,1,5,3,0,6,nan,nan,nan,nan,nan,nan,nan,nan,nan,nan,nan,nan,0.0,nan,nan,nan,nan,nan,nan,nan,nan,nan,nan,nan,nan,nan,nan,nan,nan,nan,nan,1417.0625297215884,1518.5751428063377,nan,1519.0293270398397,nan,nan,nan,nan
1,72,1,1,1.0,1.0,0.24534061970189214,1,nan,nan,nan,nan,nan,nan,nan,nan,nan,5,6,2,8,1,4,1.0,1.0,1.0,1.0,1.0,1.0,0.0,1.0,0.0,0.0,1.0,0.0,2.0,0.0,6.0,8.0,5.0,1.0,2.0,5.0,4.0,3.0,2.0,1.0,6.0,6.641130499134306,5.392332478426397,3.3061811270890757,2.2825957050081342,1.3693765559000894,7.408067402080633,1417.0625297215884,1519.5919722267427,1520.4003685765783,1519.8373128464445,1528.8598479621578,1529.8597165312967,1521.4171737635625,1528.8514999652398
1,73,1,1,1.0,1.0,0.7921636425307952,0,nan,nan,nan,nan,nan,nan,nan,nan,nan,1,7,4,0,3,2,nan,nan,nan,nan,nan,nan,nan,nan,nan,nan,nan,nan,0.0,nan,nan,nan,nan,nan,nan,nan,nan,nan,nan,nan,nan,nan,nan,nan,nan,nan,nan,1417.0625297215884,1530.085024353175,nan,1530.8771879957058,nan,nan,nan,nan
1,74,1,1,1.0,1.0,0.38302056019892916,0,nan,nan,nan,nan,nan,nan,nan,nan,nan,4,1,0,5,7,8,nan,nan,nan,nan,nan,nan,nan,nan,nan,nan,nan,nan,0.0,nan,nan,nan,nan,nan,nan,nan,nan,nan,nan,nan,nan,nan,nan,nan,nan,nan,nan,1417.0625297215884,1531.1101567248697,nan,1531.4931772850687,nan,nan,nan,nan
1,75,1,1,1.0,1.0,0.25383430247893557,0,nan,nan,nan,nan,nan,nan,nan,nan,nan,6,3,1,8,4,5,nan,nan,nan,nan,nan,nan,nan,nan,nan,nan,nan,nan,0.0,nan,nan,nan,nan,nan,nan,nan,nan,nan,nan,nan,nan,nan,nan,nan,nan,nan,nan,1417.0625297215884,1532.1353104789741,nan,1532.389144781453,nan,nan,nan,nan
1,76,1,1,1.0,1.0,0.26103705493733287,0,nan,nan,nan,nan,nan,nan,nan,nan,nan,5,0,7,1,3,4,nan,nan,nan,nan,nan,nan,nan,nan,nan,nan,nan,nan,0.0,nan,nan,nan,nan,nan,nan,nan,nan,nan,nan,nan,nan,nan,nan,nan,nan,nan,nan,1417.0625297215884,1533.1521207977785,nan,1533.4131578527158,nan,nan,nan,nan
1,77,1,1,1.0,1.0,0.07623331167269498,0,nan,nan,nan,nan,nan,nan,nan,nan,nan,0,1,2,8,4,7,nan,nan,nan,nan,nan,nan,nan,nan,nan,nan,nan,nan,0.0,nan,nan,nan,nan,nan,nan,nan,nan,nan,nan,nan,nan,nan,nan,nan,nan,nan,nan,1417.0625297215884,1534.1689068831038,nan,1534.2451401947765,nan,nan,nan,nan
1,78,1,1,1.0,1.0,0.16340503393439576,0,nan,nan,nan,nan,nan,nan,nan,nan,nan,6,3,4,1,8,2,nan,nan,nan,nan,nan,nan,nan,nan,nan,nan,nan,nan,0.0,nan,nan,nan,nan,nan,nan,nan,nan,nan,nan,nan,nan,nan,nan,nan,nan,nan,nan,1417.0625297215884,1535.1857234740746,nan,1535.349128508009,nan,nan,nan,nan
1,79,1,1,1.0,1.0,0.282590288145002,0,nan,nan,nan,nan,nan,nan,nan,nan,nan,2,5,6,4,3,1,nan,nan,nan,nan,nan,nan,nan,nan,nan,nan,nan,nan,0.0,nan,nan,nan,nan,nan,nan,nan,nan,nan,nan,nan,nan,nan,nan,nan,nan,nan,nan,1417.0625297215884,1536.2025161166675,nan,1536.4851064048125,nan,nan,nan,nan
1,80,1,1,1.0,1.0,0.3537827564869076,0,nan,nan,nan,nan,nan,nan,nan,nan,nan,8,1,3,2,6,7,nan,nan,nan,nan,nan,nan,nan,nan,nan,nan,nan,nan,0.0,nan,nan,nan,nan,nan,nan,nan,nan,nan,nan,nan,nan,nan,nan,nan,nan,nan,nan,1417.0625297215884,1537.2193193079438,nan,1537.5731020644307,nan,nan,nan,nan
1,81,1,1,1.0,1.0,0.7369589810841717,0,0.0,0.0,0.0,0.42327983346946824,0.14255692730100694,0.2807229061684613,0.5658367607704752,0.14255692730100694,0.4577773419053604,6,0,2,5,4,3,nan,nan,nan,nan,nan,nan,nan,nan,nan,nan,nan,nan,0.0,nan,nan,nan,nan,nan,nan,nan,nan,nan,nan,nan,nan,nan,nan,nan,nan,nan,nan,1417.0625297215884,1538.2361330479034,nan,1538.9730920289876,nan,nan,nan,nan
1,82,1,1,1.0,1.0,0.44015192380174994,0,0.0,0.0,0.0,0.42725045559117336,0.1459279496642183,0.28132250592695507,0.5731784052553917,0.1459279496642183,0.5102978871242764,0,5,1,7,2,4,nan,nan,nan,nan,nan,nan,nan,nan,nan,nan,nan,nan,0.0,nan,nan,nan,nan,nan,nan,nan,nan,nan,nan,nan,nan,nan,nan,nan,nan,nan,nan,1417.0625297215884,1539.252929396811,nan,1539.6930813206127,nan,nan,nan,nan
1,83,0,0,1.0,0.0,0.26331072306493297,0,0.0,0.0,0.0,0.42741172394380555,0.14502011585666622,0.28239160808713937,0.5724318398004717,0.14502011585666622,0.4801405426502849,7,4,3,6,0,1,nan,nan,nan,nan,nan,nan,nan,nan,nan,nan,nan,nan,0.0,nan,nan,nan,nan,nan,nan,nan,nan,nan,nan,nan,nan,nan,nan,nan,nan,nan,nan,1417.0625297215884,1540.2697890378186,nan,1540.5330997608835,nan,nan,nan,nan
1,84,1,1,1.0,1.0,0.31049667741172016,0,0.0,0.0,0.0,0.4253857856613503,0.14525683512682747,0.28012895053452286,0.5706426207881778,0.14525683512682747,0.3379864414261344,4,3,6,8,5,0,nan,nan,nan,nan,nan,nan,nan,nan,nan,nan,nan,nan,0.0,nan,nan,nan,nan,nan,nan,nan,nan,nan,nan,nan,nan,nan,nan,nan,nan,nan,nan,1417.0625297215884,1541.2865377751295,nan,1541.5970344525413,nan,nan,nan,nan
1,85,1,1,1.0,1.0,0.26170019624987617,0,0.0,0.0,0.0,0.4239846989753792,0.14491805665366392,0.2790666423217153,0.5689027556290431,0.14491805665366392,0.2785025322421764,0,4,7,2,6,5,nan,nan,nan,nan,nan,nan,nan,nan,nan,nan,nan,nan,0.0,nan,nan,nan,nan,nan,nan,nan,nan,nan,nan,nan,nan,nan,nan,nan,nan,nan,nan,1417.0625297215884,1542.303350944887,nan,1542.5650511411368,nan,nan,nan,nan
1,86,1,1,1.0,1.0,0.532877383287996,0,0.0,0.0,0.0,0.4220294640027828,0.1451264879678454,0.2769029760349374,0.5671559519706282,0.1451264879678454,0.3683580856498641,7,1,4,3,2,8,nan,nan,nan,nan,nan,nan,nan,nan,nan,nan,nan,nan,0.0,nan,nan,nan,nan,nan,nan,nan,nan,nan,nan,nan,nan,nan,nan,nan,nan,nan,nan,1417.0625297215884,1543.3201521404553,nan,1543.8530295237433,nan,nan,nan,nan
1,87,1,1,1.0,1.0,0.4120727641857229,0,0.0,0.0,0.0,0.42334908208951155,0.1447601414167108,0.2785889406728007,0.5681092235062224,0.1447601414167108,0.40221678124119836,4,6,7,5,8,1,nan,nan,nan,nan,nan,nan,nan,nan,nan,nan,nan,nan,0.0,nan,nan,nan,nan,nan,nan,nan,nan,nan,nan,nan,nan,nan,nan,nan,nan,nan,nan,1417.0625297215884,1544.3369530509808,nan,1544.7490258151665,nan,nan,nan,nan
1,88,1,1,1.0,1.0,0.3792732130968943,0,0.0,0.0,0.0,0.4232164195259376,0.1439112282342654,0.2793051912916722,0.567127647760203,0.1439112282342654,0.4414077868568711,5,2,8,7,4,6,nan,nan,nan,nan,nan,nan,nan,nan,nan,nan,nan,nan,0.0,nan,nan,nan,nan,nan,nan,nan,nan,nan,nan,nan,nan,nan,nan,nan,nan,nan,nan,1417.0625297215884,1545.3537459786749,nan,1545.7330191917717,nan,nan,nan,nan
1,89,1,1,1.0,1.0,0.5301070719724521,0,0.0,0.0,0.0,0.4227054520093208,0.14314962447258675,0.279555827536734,0.5658550764819076,0.14314962447258675,0.44048434975168976,4,1,7,2,8,3,nan,nan,nan,nan,nan,nan,nan,nan,nan,nan,nan,nan,0.0,nan,nan,nan,nan,nan,nan,nan,nan,nan,nan,nan,nan,nan,nan,nan,nan,nan,nan,1417.0625297215884,1546.3788846225361,nan,1546.9089916945086,nan,nan,nan,nan
1,90,1,1,1.0,1.0,0.4332981330808252,0,0.0,0.0,0.0,0.42393995338820734,0.14278424401043882,0.2811557093777685,0.5667241973986461,0.14278424401043882,0.44755947271672386,1,2,3,8,0,4,nan,nan,nan,nan,nan,nan,nan,nan,nan,nan,nan,nan,0.0,nan,nan,nan,nan,nan,nan,nan,nan,nan,nan,nan,nan,nan,nan,nan,nan,nan,nan,1417.0625297215884,1547.39570406446,nan,1547.8290021975408,nan,nan,nan,nan
1,91,1,1,1.0,1.0,0.448477397847455,0,0.0,0.0,0.0,0.42404629633925983,0.14197411694825127,0.2820721793910086,0.5660204132875111,0.14197411694825127,0.4706275343002441,6,5,8,4,3,7,nan,nan,nan,nan,nan,nan,nan,nan,nan,nan,nan,nan,0.0,nan,nan,nan,nan,nan,nan,nan,nan,nan,nan,nan,nan,nan,nan,nan,nan,nan,nan,1417.0625297215884,1548.4124992730212,nan,1548.8609766708687,nan,nan,nan,nan
1,92,1,1,1.0,1.0,0.3996797762811184,0,0.0,0.0,0.0,0.42432080309777886,0.14119774013625763,0.28312306296152123,0.5655185432340365,0.14119774013625763,0.4271517690697995,4,0,7,1,6,2,nan,nan,nan,nan,nan,nan,nan,nan,nan,nan,nan,nan,0.0,nan,nan,nan,nan,nan,nan,nan,nan,nan,nan,nan,nan,nan,nan,nan,nan,nan,nan,1417.0625297215884,1549.4292884944007,nan,1549.8289682706818,nan,nan,nan,nan
1,93,1,1,nan,nan,nan,0,0.0,0.0,0.0,0.4240470139109271,0.14043487204232788,0.2836121418685992,0.564481885953255,0.14043487204232788,0.4240785870642867,2,4,1,3,7,5,nan,nan,nan,nan,nan,nan,nan,nan,nan,nan,nan,nan,0.0,nan,nan,nan,nan,nan,nan,nan,nan,nan,nan,nan,nan,nan,nan,nan,nan,nan,nan,1417.0625297215884,1550.4461124979425,nan,nan,nan,nan,nan,nan
1,94,0,0,0.0,1.0,0.6139733511954546,0,0.0,0.0,0.0,0.4240470139109271,0.14043487204232788,0.2836121418685992,0.564481885953255,0.14043487204232788,0.5068265637382865,6,1,7,8,0,3,nan,nan,nan,nan,nan,nan,nan,nan,nan,nan,nan,nan,0.0,nan,nan,nan,nan,nan,nan,nan,nan,nan,nan,nan,nan,nan,nan,nan,nan,nan,nan,1417.0625297215884,1551.4629119829624,nan,1552.0768853341579,nan,nan,nan,nan
1,95,1,1,1.0,1.0,0.3888890472589992,0,0.0,0.0,0.0,0.42613411651844935,0.14105767714185127,0.2850764393765981,0.5671917936603006,0.14105767714185127,0.5014311992272269,2,4,8,1,3,6,nan,nan,nan,nan,nan,nan,nan,nan,nan,nan,nan,nan,0.0,nan,nan,nan,nan,nan,nan,nan,nan,nan,nan,nan,nan,nan,nan,nan,nan,nan,nan,1417.0625297215884,1552.4880383675336,nan,1552.8769274147926,nan,nan,nan,nan
1,96,1,1,1.0,1.0,0.4280454607796855,0,0.0,0.0,0.0,0.4257292788091075,0.14034211036029998,0.2853871684488075,0.5660713891694075,0.14034211036029998,0.47696928641137976,3,1,4,0,6,7,nan,nan,nan,nan,nan,nan,nan,nan,nan,nan,nan,nan,0.0,nan,nan,nan,nan,nan,nan,nan,nan,nan,nan,nan,nan,nan,nan,nan,nan,nan,nan,1417.0625297215884,1553.5048675028956,nan,1553.9329129636753,nan,nan,nan,nan
1,97,1,1,1.0,1.0,0.4032400982105173,0,0.0,0.0,0.0,0.4257541839915869,0.1395857480142616,0.2861684359773253,0.5653399320058485,0.1395857480142616,0.406724868749734,2,0,7,4,8,1,nan,nan,nan,nan,nan,nan,nan,nan,nan,nan,nan,nan,0.0,nan,nan,nan,nan,nan,nan,nan,nan,nan,nan,nan,nan,nan,nan,nan,nan,nan,nan,1417.0625297215884,1554.5216607156908,nan,1554.9249008139013,nan,nan,nan,nan
1,98,1,1,1.0,1.0,0.44241447298554704,0,0.0,0.0,0.0,0.4255146724407244,0.13886049670343587,0.2866541757372885,0.5643751691441603,0.13886049670343587,0.42456667732524994,8,2,5,1,6,7,nan,nan,nan,nan,nan,nan,nan,nan,nan,nan,nan,nan,0.0,nan,nan,nan,nan,nan,nan,nan,nan,nan,nan,nan,nan,nan,nan,nan,nan,nan,nan,1417.0625297215884,1555.5384687536862,nan,1555.9808832266717,nan,nan,nan,nan
1,99,1,1,1.0,1.0,0.4175845918362029,0,0.0,0.0,0.0,0.4256925650780383,0.13813848604751713,0.2875540790305212,0.5638310511255554,0.13813848604751713,0.42107972101075575,4,8,2,7,1,0,nan,nan,nan,nan,nan,nan,nan,nan,nan,nan,nan,nan,0.0,nan,nan,nan,nan,nan,nan,nan,nan,nan,nan,nan,nan,nan,nan,nan,nan,nan,nan,1417.0625297215884,1556.5552813532413,nan,1556.9728659450775,nan,nan,nan,nan
1,100,1,1,1.0,1.0,0.36077852675225586,0,0.0,0.0,0.0,0.4256081070234359,0.13741959696790854,0.28818851005552737,0.5630277039913444,0.13741959696790854,0.40692586385800195,5,3,6,0,8,2,nan,nan,nan,nan,nan,nan,nan,nan,nan,nan,nan,nan,0.0,nan,nan,nan,nan,nan,nan,nan,nan,nan,nan,nan,nan,nan,nan,nan,nan,nan,nan,1417.0625297215884,1557.57206829387,nan,1557.9328468206222,nan,nan,nan,nan
1,101,1,1,1.0,1.0,0.3199665407300927,0,0.0,0.0,0.0,0.4249397608350732,0.1368661595623348,0.2880736012727384,0.561805920397408,0.1368661595623348,0.36610988643951714,3,5,0,2,7,1,nan,nan,nan,nan,nan,nan,nan,nan,nan,nan,nan,nan,0.0,nan,nan,nan,nan,nan,nan,nan,nan,nan,nan,nan,nan,nan,nan,nan,nan,nan,nan,1417.0625297215884,1558.588873480854,nan,1558.9088400215842,nan,nan,nan,nan
1,102,1,1,1.0,1.0,0.4071476712124422,0,0.0,0.0,0.0,0.4238686055278795,0.1365741355362183,0.2872944699916612,0.5604427410640979,0.1365741355362183,0.3626309128982636,4,0,1,6,5,8,nan,nan,nan,nan,nan,nan,nan,nan,nan,nan,nan,nan,0.0,nan,nan,nan,nan,nan,nan,nan,nan,nan,nan,nan,nan,nan,nan,nan,nan,nan,nan,1417.0625297215884,1559.6056809486472,nan,1560.0128286198596,nan,nan,nan,nan
1,103,1,1,1.0,1.0,0.35835176025284454,0,0.0,0.0,0.0,0.42369970720146094,0.1358929029541821,0.28780680424727884,0.559592610155643,0.1358929029541821,0.36182199073179316,3,5,2,0,4,6,nan,nan,nan,nan,nan,nan,nan,nan,nan,nan,nan,nan,0.0,nan,nan,nan,nan,nan,nan,nan,nan,nan,nan,nan,nan,nan,nan,nan,nan,nan,nan,1417.0625297215884,1560.6224735912401,nan,1560.980825351493,nan,nan,nan,nan
1,104,1,1,1.0,1.0,0.3255222736625001,0,0.0,0.0,0.0,0.4230462277319748,0.1353679754183705,0.28767825231360433,0.5584142031503453,0.1353679754183705,0.3636739017092623,7,0,1,2,5,4,nan,nan,nan,nan,nan,nan,nan,nan,nan,nan,nan,nan,0.0,nan,nan,nan,nan,nan,nan,nan,nan,nan,nan,nan,nan,nan,nan,nan,nan,nan,nan,1417.0625297215884,1561.6392981649842,nan,1561.9648204386467,nan,nan,nan,nan
1,105,1,1,1.0,1.0,0.33273671520873904,0,0.0,0.0,0.0,0.42208064402831663,0.1350418208403441,0.2870388231879725,0.5571224648686608,0.1350418208403441,0.33887024970802787,1,8,6,5,3,0,nan,nan,nan,nan,nan,nan,nan,nan,nan,nan,nan,nan,0.0,nan,nan,nan,nan,nan,nan,nan,nan,nan,nan,nan,nan,nan,nan,nan,nan,nan,nan,1417.0625297215884,1562.6560759824351,nan,1562.9888126976439,nan,nan,nan,nan
1,106,1,1,1.0,1.0,0.37990698916837573,0,0.0,0.0,0.0,0.42120472315753643,0.13466624358195609,0.2865384795755803,0.5558709667394925,0.13466624358195609,0.34605532601320493,4,5,0,8,2,3,nan,nan,nan,nan,nan,nan,nan,nan,nan,nan,nan,nan,0.0,nan,nan,nan,nan,nan,nan,nan,nan,nan,nan,nan,nan,nan,nan,nan,nan,nan,nan,1417.0625297215884,1563.6728843054734,nan,1564.0527912946418,nan,nan,nan,nan
1,107,1,1,1.0,1.0,0.27476088708499447,0,0.0,0.0,0.0,0.4208037742838553,0.1340720953323514,0.28673167895150387,0.5548758696162067,0.1340720953323514,0.32913486382070306,8,7,3,6,0,2,nan,nan,nan,nan,nan,nan,nan,nan,nan,nan,nan,nan,0.0,nan,nan,nan,nan,nan,nan,nan,nan,nan,nan,nan,nan,nan,nan,nan,nan,nan,nan,1417.0625297215884,1564.6980143963592,nan,1564.9727752834442,nan,nan,nan,nan
1,108,1,1,1.0,1.0,0.417917302926071,0,0.0,0.0,0.0,0.41939951575309703,0.13418493616920538,0.2852145795838916,0.5535844519223024,0.13418493616920538,0.3575283930598137,2,5,7,8,1,0,nan,nan,nan,nan,nan,nan,nan,nan,nan,nan,nan,nan,0.0,nan,nan,nan,nan,nan,nan,nan,nan,nan,nan,nan,nan,nan,nan,nan,nan,nan,nan,1417.0625297215884,1565.7148315575323,nan,1566.1327488604584,nan,nan,nan,nan
1,109,1,1,1.0,1.0,0.48911205207696185,0,0.0,0.0,0.0,0.41938539944045866,0.1335445092160303,0.2858408902244284,0.5529299086564889,0.1335445092160303,0.3939300806960091,4,2,1,0,3,7,nan,nan,nan,nan,nan,nan,nan,nan,nan,nan,nan,nan,0.0,nan,nan,nan,nan,nan,nan,nan,nan,nan,nan,nan,nan,nan,nan,nan,nan,nan,nan,1417.0625297215884,1566.7316287617432,nan,1567.2207408138202,nan,nan,nan,nan
1,110,1,1,1.0,1.0,0.36830372671829537,0,0.0,0.0,0.0,0.420043198050237,0.1330838937378222,0.2869593043124148,0.5531270917880592,0.1330838937378222,0.42511102724044275,8,3,4,1,5,0,nan,nan,nan,nan,nan,nan,nan,nan,nan,nan,nan,nan,0.0,nan,nan,nan,nan,nan,nan,nan,nan,nan,nan,nan,nan,nan,nan,nan,nan,nan,nan,1417.0625297215884,1567.7484393655905,nan,1568.1167430923088,nan,nan,nan,nan
1,111,1,1,1.0,1.0,0.2954893276328221,0,0.0,0.0,0.0,0.41955965158919084,0.132554068260647,0.28700558332854387,0.5521137198498378,0.132554068260647,0.3843017021426931,5,4,1,3,2,7,nan,nan,nan,nan,nan,nan,nan,nan,nan,nan,nan,nan,0.0,nan,nan,nan,nan,nan,nan,nan,nan,nan,nan,nan,nan,nan,nan,nan,nan,nan,nan,1417.0625297215884,1568.7652362847002,nan,1569.060725612333,nan,nan,nan,nan
1,112,1,1,1.0,1.0,0.2866763334022835,0,0.0,0.0,0.0,0.4184108522932985,0.13247302596565896,0.28593782632763953,0.5508838782589575,0.13247302596565896,0.31682312925113365,6,8,0,1,3,2,nan,nan,nan,nan,nan,nan,nan,nan,nan,nan,nan,nan,0.0,nan,nan,nan,nan,nan,nan,nan,nan,nan,nan,nan,nan,nan,nan,nan,nan,nan,nan,1417.0625297215884,1569.7820360548212,nan,1570.0687123882235,nan,nan,nan,nan
1,113,1,1,1.0,1.0,0.2218415827373974,0,1.0,0.0,0.0,0.41720227872549104,0.13246075597914464,0.2847415227463464,0.5496630347046356,0.13246075597914464,0.26800241459083435,7,2,8,6,0,1,nan,nan,nan,nan,nan,nan,nan,nan,nan,nan,nan,nan,0.0,nan,nan,nan,nan,nan,nan,nan,nan,nan,nan,nan,nan,nan,nan,nan,nan,nan,nan,1417.0625297215884,1570.798854926601,nan,1571.0206965093384,nan,nan,nan,nan
1,114,1,1,1.0,1.0,0.26105102483415976,1,0.0,0.0,1.0,0.4154262723983265,0.13315461600685213,0.2822716563914744,0.5485808884051786,0.13315461600685213,0.25652298032461357,0,3,4,8,5,7,1.0,1.0,1.0,1.0,1.0,1.0,0.0,0.0,0.0,0.0,0.0,0.0,0.0,4.0,0.0,7.0,5.0,3.0,2.0,4.0,3.0,2.0,1.0,6.0,5.0,5.431996083876584,4.353079701249953,2.7449049877468497,1.7435268170083873,9.479731424886268,6.208124307915568,1417.0625297215884,1571.8156441479805,1572.624078986235,1572.0766951728147,1583.167158083059,1584.1783117437153,1573.6491982433363,1583.1588149328018
1,115,1,1,1.0,1.0,0.5878593820962124,0,0.0,0.0,0.0,0.41403550440225295,0.13335361481804367,0.28068188958420925,0.5473891192202966,0.13335361481804367,0.3569173298892565,4,8,6,0,1,2,nan,nan,nan,nan,nan,nan,nan,nan,nan,nan,nan,nan,0.0,nan,nan,nan,nan,nan,nan,nan,nan,nan,nan,nan,nan,nan,nan,nan,nan,nan,nan,1417.0625297215884,1584.4006867475691,nan,1584.9885461296653,nan,nan,nan,nan
1,116,1,1,1.0,1.0,0.30670456966618076,0,0.0,0.0,0.0,0.41558750331023475,0.13376013569497763,0.2818273676152571,0.5493476390052123,0.13376013569497763,0.38520499219885096,5,1,2,4,7,3,nan,nan,nan,nan,nan,nan,nan,nan,nan,nan,nan,nan,0.0,nan,nan,nan,nan,nan,nan,nan,nan,nan,nan,nan,nan,nan,nan,nan,nan,nan,nan,1417.0625297215884,1585.4258211149136,nan,1585.7325256845797,nan,nan,nan,nan
1,117,1,1,1.0,1.0,0.29757169395452365,0,0.0,0.0,0.0,0.4146239375257741,0.13355683070954474,0.2810671068162294,0.5481807682353188,0.13355683070954474,0.3973785485723056,8,7,6,1,2,4,nan,nan,nan,nan,nan,nan,nan,nan,nan,nan,nan,nan,0.0,nan,nan,nan,nan,nan,nan,nan,nan,nan,nan,nan,nan,nan,nan,nan,nan,nan,nan,1417.0625297215884,1586.4509486398892,nan,1586.7485203338438,nan,nan,nan,nan
1,118,1,1,1.0,1.0,0.2567480188445188,0,0.0,0.0,0.0,0.4135971634593596,0.13341697910745257,0.28018018435190706,0.5470141425668121,0.13341697910745257,0.2870080941550744,0,1,3,7,5,2,nan,nan,nan,nan,nan,nan,nan,nan,nan,nan,nan,nan,0.0,nan,nan,nan,nan,nan,nan,nan,nan,nan,nan,nan,nan,nan,nan,nan,nan,nan,nan,1417.0625297215884,1587.4677526864689,nan,1587.7245007053134,nan,nan,nan,nan
1,119,0,0,1.0,0.0,0.30392969673266634,0,0.0,0.0,0.0,0.41223325785401316,0.13363148621921392,0.27860177163479927,0.545864744073227,0.13363148621921392,0.2860831365105696,3,8,4,2,1,0,nan,nan,nan,nan,nan,nan,nan,nan,nan,nan,nan,nan,0.0,nan,nan,nan,nan,nan,nan,nan,nan,nan,nan,nan,nan,nan,nan,nan,nan,nan,nan,1417.0625297215884,1588.4845538820955,nan,1588.7884835788282,nan,nan,nan,nan
1,120,1,1,1.0,1.0,0.5191062246449292,0,0.0,0.0,0.0,0.41129960646503605,0.13343042117246195,0.2778691852925741,0.544730027637498,0.13343042117246195,0.3599279800740381,4,7,6,8,2,1,nan,nan,nan,nan,nan,nan,nan,nan,nan,nan,nan,nan,0.0,nan,nan,nan,nan,nan,nan,nan,nan,nan,nan,nan,nan,nan,nan,nan,nan,nan,nan,1417.0625297215884,1589.5013559329673,nan,1590.0204621576122,nan,nan,nan,nan
1,121,1,1,1.0,1.0,0.3743030743789859,0,0.0,0.0,0.0,0.4122210305520437,0.13322910982454259,0.2789919207275011,0.5454501403765862,0.13322910982454259,0.3991129985855271,1,5,3,0,8,6,nan,nan,nan,nan,nan,nan,nan,nan,nan,nan,nan,nan,0.0,nan,nan,nan,nan,nan,nan,nan,nan,nan,nan,nan,nan,nan,nan,nan,nan,nan,nan,1417.0625297215884,1590.5181662517716,nan,1590.8924693261506,nan,nan,nan,nan
1,122,1,1,1.0,1.0,0.2774949907907285,0,0.0,0.0,0.0,0.4118996919404076,0.1327089042118773,0.2791907877285303,0.5446085961522849,0.1327089042118773,0.39030142993821454,5,8,7,3,4,1,nan,nan,nan,nan,nan,nan,nan,nan,nan,nan,nan,nan,0.0,nan,nan,nan,nan,nan,nan,nan,nan,nan,nan,nan,nan,nan,nan,nan,nan,nan,nan,1417.0625297215884,1591.53496744734,nan,1591.8124624381308,nan,nan,nan,nan
1,123,1,1,1.0,1.0,0.3406861431431025,0,0.0,0.0,0.0,0.4107702406702422,0.13271843907754866,0.27805180159269355,0.5434886797477909,0.13271843907754866,0.3308280694376056,2,7,1,8,0,6,nan,nan,nan,nan,nan,nan,nan,nan,nan,nan,nan,nan,0.0,nan,nan,nan,nan,nan,nan,nan,nan,nan,nan,nan,nan,nan,nan,nan,nan,nan,nan,1417.0625297215884,1592.5517692131107,nan,1592.8924553562538,nan,nan,nan,nan
1,124,1,1,1.0,1.0,0.2998587617184967,0,0.0,0.0,0.0,0.41018620652418275,0.13231776001009463,0.27786844651408815,0.5425039665342773,0.13231776001009463,0.3060132985507759,4,5,0,1,8,3,nan,nan,nan,nan,nan,nan,nan,nan,nan,nan,nan,nan,0.0,nan,nan,nan,nan,nan,nan,nan,nan,nan,nan,nan,nan,nan,nan,nan,nan,nan,nan,1417.0625297215884,1593.5685715491418,nan,1593.8684303108603,nan,nan,nan,nan
1,125,1,1,1.0,1.0,0.17102859320584685,0,1.0,0.0,0.0,0.4092744094596729,0.13214787304935627,0.27712653641031665,0.5414222825090291,0.13214787304935627,0.27052449935581535,3,8,2,6,7,1,nan,nan,nan,nan,nan,nan,nan,nan,nan,nan,nan,nan,0.0,nan,nan,nan,nan,nan,nan,nan,nan,nan,nan,nan,nan,nan,nan,nan,nan,nan,nan,1417.0625297215884,1594.5854152245447,nan,1594.7564438177506,nan,nan,nan,nan
1,126,0,0,1.0,0.0,0.194225424726028,0,0.0,0.0,0.0,0.40732157490021537,0.13334677203941744,0.2739748028607979,0.5406683469396328,0.13334677203941744,0.22170425988345718,0,6,4,7,5,8,nan,nan,nan,nan,nan,nan,nan,nan,nan,nan,nan,nan,0.0,nan,nan,nan,nan,nan,nan,nan,nan,nan,nan,nan,nan,nan,nan,nan,nan,nan,nan,1417.0625297215884,1595.6021802125033,nan,1595.7964056372293,nan,nan,nan,nan
1,127,1,1,1.0,1.0,0.3614254174171947,0,0.0,0.0,0.0,0.40558908587440895,0.1341751948803155,0.2714138909940934,0.5397642807547245,0.1341751948803155,0.24222647844968984,2,3,0,5,8,4,nan,nan,nan,nan,nan,nan,nan,nan,nan,nan,nan,nan,0.0,nan,nan,nan,nan,nan,nan,nan,nan,nan,nan,nan,nan,nan,nan,nan,nan,nan,nan,1417.0625297215884,1596.6189591703587,nan,1596.980384587776,nan,nan,nan,nan
1,128,1,1,1.0,1.0,0.28060171951074153,0,0.0,0.0,0.0,0.4052329272578185,0.13369143576584583,0.2715414914919727,0.5389243630236643,0.13369143576584583,0.27875085388465476,7,5,1,4,3,0,nan,nan,nan,nan,nan,nan,nan,nan,nan,nan,nan,nan,0.0,nan,nan,nan,nan,nan,nan,nan,nan,nan,nan,nan,nan,nan,nan,nan,nan,nan,nan,1417.0625297215884,1597.6357880205614,nan,1597.9163897400722,nan,nan,nan,nan
1,129,1,1,1.0,1.0,0.27976951422169805,0,0.0,0.0,0.0,0.4042358775958419,0.1336176717080631,0.2706182058877788,0.5378535493039049,0.1336176717080631,0.3072655503832114,0,6,4,7,2,8,nan,nan,nan,nan,nan,nan,nan,nan,nan,nan,nan,nan,0.0,nan,nan,nan,nan,nan,nan,nan,nan,nan,nan,nan,nan,nan,nan,nan,nan,nan,nan,1417.0625297215884,1598.65259178204,nan,1598.9323612962617,nan,nan,nan,nan
1,130,1,1,1.0,1.0,0.26296033582184464,0,0.0,0.0,0.0,0.4032480493150947,0.13354385755734366,0.26970419175775107,0.5367919068724384,0.13354385755734366,0.2744438565180947,5,3,7,6,8,0,nan,nan,nan,nan,nan,nan,nan,nan,nan,nan,nan,nan,0.0,nan,nan,nan,nan,nan,nan,nan,nan,nan,nan,nan,nan,nan,nan,nan,nan,nan,nan,1417.0625297215884,1599.6693875607452,nan,1599.932347896567,nan,nan,nan,nan
1,131,1,1,1.0,1.0,0.26213554316200316,0,1.0,0.0,0.0,0.40214342164979355,0.13359372171498846,0.2685496999348051,0.535737143364782,0.13359372171498846,0.2682884644018486,4,6,1,7,5,8,nan,nan,nan,nan,nan,nan,nan,nan,nan,nan,nan,nan,0.0,nan,nan,nan,nan,nan,nan,nan,nan,nan,nan,nan,nan,nan,nan,nan,nan,nan,nan,1417.0625297215884,1600.686201870907,nan,1600.948337414069,nan,nan,nan,nan
1,132,1,1,1.0,1.0,0.2933274184470065,1,0.0,0.0,1.0,0.40104961009910767,0.13364054922905078,0.2674090608700569,0.5346901593281584,0.13364054922905078,0.27280776581028476,2,3,8,1,4,5,1.0,1.0,1.0,1.0,1.0,1.0,0.0,0.0,0.0,0.0,0.0,0.0,0.0,4.0,6.0,0.0,0.0,7.0,2.0,3.0,1.0,2.0,6.0,5.0,4.0,5.128757183090784,3.033166189037729,4.160246417159215,9.77567662653746,8.728073001431767,6.232405942864716,1417.0625297215884,1601.703001641028,1602.5114265008015,1601.996329059475,1613.3545382700395,1614.3639813339687,1603.536563434056,1613.3462076641736
1,133,1,1,1.0,1.0,0.34413755708374083,0,0.0,0.0,0.0,0.4002145543498666,0.13345637894646714,0.2667581754033994,0.5336709332963337,0.13345637894646714,0.29986683956425014,5,1,7,2,8,6,nan,nan,nan,nan,nan,nan,nan,nan,nan,nan,nan,nan,0.0,nan,nan,nan,nan,nan,nan,nan,nan,nan,nan,nan,nan,nan,nan,nan,nan,nan,nan,1417.0625297215884,1614.5880578113138,nan,1614.9321953683975,nan,nan,nan,nan
1,134,1,1,1.0,1.0,0.38328627293230966,0,0.0,0.0,0.0,0.39978319283243485,0.13303234122913477,0.2667508516033001,0.5328155340615697,0.13303234122913477,0.3402504161543523,6,5,3,7,4,2,nan,nan,nan,nan,nan,nan,nan,nan,nan,nan,nan,nan,0.0,nan,nan,nan,nan,nan,nan,nan,nan,nan,nan,nan,nan,nan,nan,nan,nan,nan,nan,1417.0625297215884,1615.6048763979925,nan,1615.9881626709248,nan,nan,nan,nan
1,135,1,1,1.0,1.0,0.4224751878064126,0,0.0,0.0,0.0,0.39965726214617436,0.1325313895290439,0.2671258726171305,0.5321886516752182,0.1325313895290439,0.3832996726074877,2,6,8,0,1,3,nan,nan,nan,nan,nan,nan,nan,nan,nan,nan,nan,nan,0.0,nan,nan,nan,nan,nan,nan,nan,nan,nan,nan,nan,nan,nan,nan,nan,nan,nan,nan,1417.0625297215884,1616.6216773084598,nan,1617.0441524962662,nan,nan,nan,nan
1,136,1,1,1.0,1.0,0.437659299292136,0,0.0,0.0,0.0,0.39983012521935796,0.1320432458982626,0.26778687932109535,0.5318733711176206,0.1320432458982626,0.4144735866769527,7,4,6,2,5,1,nan,nan,nan,nan,nan,nan,nan,nan,nan,nan,nan,nan,0.0,nan,nan,nan,nan,nan,nan,nan,nan,nan,nan,nan,nan,nan,nan,nan,nan,nan,nan,1417.0625297215884,1617.6384796444909,nan,1618.076138943783,nan,nan,nan,nan
1,137,0,0,1.0,0.0,0.3488288684748113,0,0.0,0.0,0.0,0.4001145550996044,0.13158648965643333,0.2685280654431711,0.5317010447560377,0.13158648965643333,0.40298778519111994,3,0,2,4,1,8,nan,nan,nan,nan,nan,nan,nan,nan,nan,nan,nan,nan,0.0,nan,nan,nan,nan,nan,nan,nan,nan,nan,nan,nan,nan,nan,nan,nan,nan,nan,nan,1417.0625297215884,1618.655292244046,nan,1619.0041211125208,nan,nan,nan,nan
1,138,1,1,1.0,1.0,0.5320066895801574,0,0.0,0.0,0.0,0.3997318260949418,0.1311688600571977,0.2685629660377441,0.5309006861521395,0.1311688600571977,0.4394982857823682,6,2,4,1,7,3,nan,nan,nan,nan,nan,nan,nan,nan,nan,nan,nan,nan,0.0,nan,nan,nan,nan,nan,nan,nan,nan,nan,nan,nan,nan,nan,nan,nan,nan,nan,nan,1417.0625297215884,1619.67208260583,nan,1620.20408929541,nan,nan,nan,nan
1,139,1,1,1.0,1.0,0.419195688853506,0,0.0,0.0,0.0,0.400711639898536,0.13117342759645573,0.26953821230208025,0.5318850674949918,0.13117342759645573,0.43334374896949157,1,3,5,4,2,7,nan,nan,nan,nan,nan,nan,nan,nan,nan,nan,nan,nan,0.0,nan,nan,nan,nan,nan,nan,nan,nan,nan,nan,nan,nan,nan,nan,nan,nan,nan,nan,1417.0625297215884,1620.688899767003,nan,1621.1080954558565,nan,nan,nan,nan
1,140,1,1,1.0,1.0,0.3383805439225398,0,0.0,0.0,0.0,0.4008475520232049,0.1306998228530337,0.27014772917017116,0.5315473748762386,0.1306998228530337,0.4298609741187344,0,4,3,7,8,2,nan,nan,nan,nan,nan,nan,nan,nan,nan,nan,nan,nan,0.0,nan,nan,nan,nan,nan,nan,nan,nan,nan,nan,nan,nan,nan,nan,nan,nan,nan,nan,1417.0625297215884,1621.7057078049984,nan,1622.044088348921,nan,nan,nan,nan
1,141,1,1,1.0,1.0,0.3695618705241941,0,0.0,0.0,0.0,0.4003915884604263,0.13033046113854452,0.27006112732188176,0.5307220495989708,0.13033046113854452,0.37571270110008,6,2,0,4,1,7,nan,nan,nan,nan,nan,nan,nan,nan,nan,nan,nan,nan,0.0,nan,nan,nan,nan,nan,nan,nan,nan,nan,nan,nan,nan,nan,nan,nan,nan,nan,nan,1417.0625297215884,1622.722506719816,nan,1623.0920685903402,nan,nan,nan,nan
1,142,1,1,1.0,1.0,0.37673411739524454,0,0.0,0.0,0.0,0.4001681847072652,0.1298837152942933,0.2702844694129719,0.5300519000015584,0.1298837152942933,0.3615588439473261,1,7,8,0,2,6,nan,nan,nan,nan,nan,nan,nan,nan,nan,nan,nan,nan,0.0,nan,nan,nan,nan,nan,nan,nan,nan,nan,nan,nan,nan,nan,nan,nan,nan,nan,nan,1417.0625297215884,1623.7393130471464,nan,1624.1160471645417,nan,nan,nan,nan
1,143,0,0,0.0,1.0,0.5759556248085573,0,0.0,0.0,0.0,0.39999959429494847,0.12943081748508792,0.2705687768098606,0.5294304117800364,0.12943081748508792,0.44075053757599864,0,4,3,7,6,1,nan,nan,nan,nan,nan,nan,nan,nan,nan,nan,nan,nan,0.0,nan,nan,nan,nan,nan,nan,nan,nan,nan,nan,nan,nan,nan,nan,nan,nan,nan,nan,1417.0625297215884,1624.756106545101,nan,1625.3320621699095,nan,nan,nan,nan
1,144,1,1,1.0,1.0,0.4711373871541582,0,0.0,0.0,0.0,0.4012564230843314,0.12981619295963295,0.2714402301246984,0.5310726160439644,0.12981619295963295,0.47460904311932,4,6,1,5,8,0,nan,nan,nan,nan,nan,nan,nan,nan,nan,nan,nan,nan,0.0,nan,nan,nan,nan,nan,nan,nan,nan,nan,nan,nan,nan,nan,nan,nan,nan,nan,nan,1417.0625297215884,1625.7729060300626,nan,1626.2440434172167,nan,nan,nan,nan
1,145,1,1,1.0,1.0,0.21430355339543894,0,0.0,0.0,0.0,0.4017520327585855,0.1294878857142714,0.2722641470443141,0.5312399184728569,0.1294878857142714,0.4204655217860515,5,2,7,8,1,3,nan,nan,nan,nan,nan,nan,nan,nan,nan,nan,nan,nan,0.0,nan,nan,nan,nan,nan,nan,nan,nan,nan,nan,nan,nan,nan,nan,nan,nan,nan,nan,1417.0625297215884,1626.789711787249,nan,1627.0040153406444,nan,nan,nan,nan
1,146,1,1,1.0,1.0,0.08550645638024434,0,1.0,0.0,0.0,0.4004319730447605,0.12997974810622495,0.2704522249385356,0.5304117211509854,0.12997974810622495,0.2569824656432805,8,5,6,3,2,0,nan,nan,nan,nan,nan,nan,nan,nan,nan,nan,nan,nan,0.0,nan,nan,nan,nan,nan,nan,nan,nan,nan,nan,nan,nan,nan,nan,nan,nan,nan,nan,1417.0625297215884,1627.8065161189297,nan,1627.89202257531,nan,nan,nan,nan
1,147,1,1,1.0,1.0,0.23667017527623102,1,0.0,0.0,1.0,0.39822969670444924,0.13215631998343588,0.2660733767210134,0.5303860166878851,0.13215631998343588,0.1788267283506381,5,6,8,0,3,1,1.0,1.0,1.0,1.0,1.0,1.0,0.0,0.0,0.0,1.0,0.0,0.0,1.0,0.0,7.0,3.0,0.0,4.0,2.0,2.0,1.0,6.0,5.0,4.0,3.0,3.4012503891717643,2.513663391058799,8.271924717759248,6.6239007990807295,5.560336736671161,4.144241789414082,1417.0625297215884,1628.8233178847586,1629.6317493017996,1629.0599880600348,1638.9579874601914,1639.9632945863996,1630.6485613311525,1638.9496591350762
1,148,1,1,1.0,1.0,0.5246622426784597,0,0.0,0.0,0.0,0.39710775558341993,0.1323782749318749,0.264729480651545,0.5294860305152949,0.1323782749318749,0.2822796247783117,0,8,1,3,6,5,nan,nan,nan,nan,nan,nan,nan,nan,nan,nan,nan,nan,0.0,nan,nan,nan,nan,nan,nan,nan,nan,nan,nan,nan,nan,nan,nan,nan,nan,nan,nan,1417.0625297215884,1640.183218305232,nan,1640.7078805479105,nan,nan,nan,nan
1,149,0,0,1.0,0.0,0.3318377966643311,0,0.0,0.0,0.0,0.3979874417013168,0.13234268590484513,0.2656447557964716,0.5303301276061619,0.13234268590484513,0.36439007153967395,5,3,7,2,0,4,nan,nan,nan,nan,nan,nan,nan,nan,nan,nan,nan,nan,0.0,nan,nan,nan,nan,nan,nan,nan,nan,nan,nan,nan,nan,nan,nan,nan,nan,nan,nan,1417.0625297215884,1641.2000032501528,nan,1641.5318410468171,nan,nan,nan,nan
1,150,1,1,1.0,1.0,0.46704478457104415,0,0.0,0.0,0.0,0.39753436194078945,0.13200147489802097,0.26553288704276845,0.5295358368388104,0.13200147489802097,0.4411816079712783,2,8,6,4,3,1,nan,nan,nan,nan,nan,nan,nan,nan,nan,nan,nan,nan,0.0,nan,nan,nan,nan,nan,nan,nan,nan,nan,nan,nan,nan,nan,nan,nan,nan,nan,nan,1417.0625297215884,1642.2167810675455,nan,1642.6838258521166,nan,nan,nan,nan
1,151,1,1,1.0,1.0,0.4102096392889507,0,0.0,0.0,0.0,0.3980072219586823,0.13167574270642593,0.2663314792522564,0.5296829646651082,0.13167574270642593,0.4030307401747753,3,2,1,7,8,5,nan,nan,nan,nan,nan,nan,nan,nan,nan,nan,nan,nan,0.0,nan,nan,nan,nan,nan,nan,nan,nan,nan,nan,nan,nan,nan,nan,nan,nan,nan,nan,1417.0625297215884,1643.2336025052355,nan,1643.6438121445244,nan,nan,nan,nan
1,152,1,1,1.0,1.0,0.3774069520877674,0,0.0,0.0,0.0,0.3980896707244274,0.1312339455266279,0.26685572519779954,0.5293236162510553,0.1312339455266279,0.4182204586492541,6,5,7,0,1,4,nan,nan,nan,nan,nan,nan,nan,nan,nan,nan,nan,nan,0.0,nan,nan,nan,nan,nan,nan,nan,nan,nan,nan,nan,nan,nan,nan,nan,nan,nan,nan,1417.0625297215884,1644.2504096879275,nan,1644.6278166400152,nan,nan,nan,nan
1,153,1,1,1.0,1.0,0.3605895058135502,0,0.0,0.0,0.0,0.39795086053223505,0.1308037229252306,0.2671471376070045,0.5287545834574656,0.1308037229252306,0.3827353657300894,5,3,2,4,6,8,nan,nan,nan,nan,nan,nan,nan,nan,nan,nan,nan,nan,0.0,nan,nan,nan,nan,nan,nan,nan,nan,nan,nan,nan,nan,nan,nan,nan,nan,nan,nan,1417.0625297215884,1645.2672125941026,nan,1645.6278020999162,nan,nan,nan,nan
1,154,1,1,1.0,1.0,0.3277685721986927,0,0.0,0.0,0.0,0.3977017848341105,0.13040242944451813,0.2672993553895924,0.5281042142786286,0.13040242944451813,0.35525501003333676,3,5,4,0,1,6,nan,nan,nan,nan,nan,nan,nan,nan,nan,nan,nan,nan,0.0,nan,nan,nan,nan,nan,nan,nan,nan,nan,nan,nan,nan,nan,nan,nan,nan,nan,nan,1417.0625297215884,1646.28401863639,nan,1646.6117872085888,nan,nan,nan,nan
1,155,1,1,1.0,1.0,0.342963517527096,0,0.0,0.0,0.0,0.3972386509755978,0.1300936317560626,0.2671450192195352,0.5273322827316604,0.1300936317560626,0.34377386517977965,4,7,1,5,0,2,nan,nan,nan,nan,nan,nan,nan,nan,nan,nan,nan,nan,0.0,nan,nan,nan,nan,nan,nan,nan,nan,nan,nan,nan,nan,nan,nan,nan,nan,nan,nan,1417.0625297215884,1647.3008127044886,nan,1647.6437762220157,nan,nan,nan,nan
1,156,1,1,1.0,1.0,0.3498121764860116,0,0.0,0.0,0.0,0.39688157772922605,0.129739204916981,0.26714237281224507,0.526620782646207,0.129739204916981,0.3401814220706001,6,4,7,1,3,5,nan,nan,nan,nan,nan,nan,nan,nan,nan,nan,nan,nan,0.0,nan,nan,nan,nan,nan,nan,nan,nan,nan,nan,nan,nan,nan,nan,nan,nan,nan,nan,1417.0625297215884,1648.3259422251722,nan,1648.6757544016582,nan,nan,nan,nan
1,157,1,1,1.0,1.0,0.3729887659428641,0,0.0,0.0,0.0,0.3965739345838456,0.12937013738550968,0.2672037971983359,0.5259440719693553,0.12937013738550968,0.3552548199853239,0,3,2,8,1,4,nan,nan,nan,nan,nan,nan,nan,nan,nan,nan,nan,nan,0.0,nan,nan,nan,nan,nan,nan,nan,nan,nan,nan,nan,nan,nan,nan,nan,nan,nan,nan,1417.0625297215884,1649.3427551098284,nan,1649.7157438757713,nan,nan,nan,nan
1,158,1,1,1.0,1.0,0.36384420114336535,0,0.0,0.0,0.0,0.3964207841381249,0.12896333447806557,0.26745744966005935,0.5253841186161905,0.12896333447806557,0.3622150478574137,5,7,8,4,3,6,nan,nan,nan,nan,nan,nan,nan,nan,nan,nan,nan,nan,0.0,nan,nan,nan,nan,nan,nan,nan,nan,nan,nan,nan,nan,nan,nan,nan,nan,nan,nan,1417.0625297215884,1650.3678971749032,nan,1650.7317413760466,nan,nan,nan,nan
1,159,1,1,1.0,1.0,0.5310307941399515,0,0.0,0.0,0.0,0.3962106126349329,0.1285731070963687,0.2676375055385642,0.5247837197313017,0.1285731070963687,0.42262125374206033,4,5,1,0,6,3,nan,nan,nan,nan,nan,nan,nan,nan,nan,nan,nan,nan,0.0,nan,nan,nan,nan,nan,nan,nan,nan,nan,nan,nan,nan,nan,nan,nan,nan,nan,nan,1417.0625297215884,1651.3847023618873,nan,1651.9157331560273,nan,nan,nan,nan
1,160,1,1,1.0,1.0,0.37820893683237955,0,0.0,0.0,0.0,0.3970748445676574,0.128611215092959,0.2684636294746984,0.5256860596606164,0.128611215092959,0.42436131070523214,7,4,6,3,5,0,nan,nan,nan,nan,nan,nan,nan,nan,nan,nan,nan,nan,0.0,nan,nan,nan,nan,nan,nan,nan,nan,nan,nan,nan,nan,nan,nan,nan,nan,nan,nan,1417.0625297215884,1652.4015007065027,nan,1652.779709643335,nan,nan,nan,nan
1,161,1,1,1.0,1.0,0.4014006365323439,0,0.0,0.0,0.0,0.3969546795502352,0.12820975599303955,0.2687449235571957,0.5251644355432747,0.12820975599303955,0.43688012250155833,3,6,4,1,2,8,nan,nan,nan,nan,nan,nan,nan,nan,nan,nan,nan,nan,0.0,nan,nan,nan,nan,nan,nan,nan,nan,nan,nan,nan,nan,nan,nan,nan,nan,nan,nan,1417.0625297215884,1653.418303897779,nan,1653.8197045343113,nan,nan,nan,nan
1,162,1,1,1.0,1.0,0.37659812497440726,0,0.0,0.0,0.0,0.39698281851847644,0.1278038712474184,0.26917894727105807,0.5247866897658948,0.1278038712474184,0.3854025661130436,7,0,5,2,3,6,nan,nan,nan,nan,nan,nan,nan,nan,nan,nan,nan,nan,0.0,nan,nan,nan,nan,nan,nan,nan,nan,nan,nan,nan,nan,nan,nan,nan,nan,nan,nan,1417.0625297215884,1654.4351045231451,nan,1654.8117026481195,nan,nan,nan,nan
1,163,1,1,1.0,1.0,0.4477700661518611,0,0.0,0.0,0.0,0.39685461289870244,0.12741153014526374,0.2694430827534387,0.5242661430439661,0.12741153014526374,0.4085896092195374,2,7,1,3,4,5,nan,nan,nan,nan,nan,nan,nan,nan,nan,nan,nan,nan,0.0,nan,nan,nan,nan,nan,nan,nan,nan,nan,nan,nan,nan,nan,nan,nan,nan,nan,nan,1417.0625297215884,1655.4519122760394,nan,1655.8996823421912,nan,nan,nan,nan
1,164,1,1,1.0,1.0,0.7669545790995471,0,0.0,1.0,0.0,0.3971728344815347,0.12707611314688247,0.27009672133465223,0.5242489476284171,0.12707611314688247,0.5304409234086052,3,0,4,5,8,2,nan,nan,nan,nan,nan,nan,nan,nan,nan,nan,nan,nan,0.0,nan,nan,nan,nan,nan,nan,nan,nan,nan,nan,nan,nan,nan,nan,nan,nan,nan,nan,1417.0625297215884,1656.4687086249469,nan,1657.2356632040464,nan,nan,nan,nan
1,165,1,1,1.0,1.0,0.4381348451715894,1,0.0,0.0,1.0,0.3994696155040068,0.1299694994358944,0.2695001160681124,0.5294391149399011,0.1299694994358944,0.5509531634743325,4,1,8,3,6,5,1.0,1.0,1.0,1.0,1.0,1.0,0.0,0.0,0.0,0.0,1.0,0.0,1.0,0.0,2.0,4.0,8.0,6.0,1.0,1.0,3.0,2.0,6.0,5.0,4.0,2.227242221648339,4.794822765106801,3.569689138967078,8.657295352779329,7.1063392432406545,5.729885948821902,1417.0625297215884,1657.4855152374366,1658.2939463693765,1657.9236500826082,1667.9952319968143,1668.9945688555017,1659.3024155335734,1667.986902816454
1,166,0,0,1.0,0.0,0.6233810627600178,0,0.0,0.0,0.0,0.3997082897612141,0.12960312562323634,0.27010516413797775,0.5293114153844505,0.12960312562323634,0.6094901623437181,0,2,6,4,3,7,nan,nan,nan,nan,nan,nan,nan,nan,nan,nan,nan,nan,0.0,nan,nan,nan,nan,nan,nan,nan,nan,nan,nan,nan,nan,nan,nan,nan,nan,nan,nan,1417.0625297215884,1669.2121285296744,nan,1669.8355095924344,nan,nan,nan,nan
1,167,1,1,1.0,1.0,0.5186554823885672,0,0.0,0.0,0.0,0.4010805153624337,0.13038008964891828,0.27070042571351544,0.531460605011352,0.13038008964891828,0.5267237967733914,1,3,7,2,5,0,nan,nan,nan,nan,nan,nan,nan,nan,nan,nan,nan,nan,0.0,nan,nan,nan,nan,nan,nan,nan,nan,nan,nan,nan,nan,nan,nan,nan,nan,nan,nan,1417.0625297215884,1670.2288661480998,nan,1670.7475216304883,nan,nan,nan,nan
1,168,1,1,1.0,1.0,0.3177769769099541,0,0.0,0.0,0.0,0.4017974358930809,0.1303038505456461,0.27149358534743484,0.532101286438727,0.1303038505456461,0.4866045073528464,4,6,8,0,2,1,nan,nan,nan,nan,nan,nan,nan,nan,nan,nan,nan,nan,0.0,nan,nan,nan,nan,nan,nan,nan,nan,nan,nan,nan,nan,nan,nan,nan,nan,nan,nan,1417.0625297215884,1671.2457035513362,nan,1671.5634805282461,nan,nan,nan,nan
1,169,1,1,1.0,1.0,0.2689588281791657,0,0.0,0.0,0.0,0.4012882209901529,0.1300719610073591,0.27121625998279375,0.531360181997512,0.1300719610073591,0.36846376249256235,1,8,5,2,6,0,nan,nan,nan,nan,nan,nan,nan,nan,nan,nan,nan,nan,0.0,nan,nan,nan,nan,nan,nan,nan,nan,nan,nan,nan,nan,nan,nan,nan,nan,nan,nan,1417.0625297215884,1672.2625164359924,nan,1672.5314752641716,nan,nan,nan,nan
1,170,1,1,1.0,1.0,0.37213660369161516,0,0.0,0.0,0.0,0.4004910559732192,0.13008323474135483,0.27040782123186435,0.5305742907145741,0.13008323474135483,0.319624136260245,7,0,8,6,3,4,nan,nan,nan,nan,nan,nan,nan,nan,nan,nan,nan,nan,0.0,nan,nan,nan,nan,nan,nan,nan,nan,nan,nan,nan,nan,nan,nan,nan,nan,nan,nan,1417.0625297215884,1673.2793213378754,nan,1673.651457941567,nan,nan,nan,nan
1,171,0,0,1.0,0.0,0.4113303652848117,0,0.0,0.0,0.0,0.4003212688338084,0.12971162677703998,0.2706096420567684,0.5300328956108484,0.12971162677703998,0.3508085990518642,1,6,2,0,5,3,nan,nan,nan,nan,nan,nan,nan,nan,nan,nan,nan,nan,0.0,nan,nan,nan,nan,nan,nan,nan,nan,nan,nan,nan,nan,nan,nan,nan,nan,nan,nan,1417.0625297215884,1674.2961134102661,nan,1674.707443775551,nan,nan,nan,nan
1,172,1,1,1.0,1.0,0.44253792107338086,0,0.0,0.0,0.0,0.4003867991698263,0.12932777665881978,0.2710590225110065,0.5297145758286461,0.12932777665881978,0.40866829668326926,7,8,5,2,0,1,nan,nan,nan,nan,nan,nan,nan,nan,nan,nan,nan,nan,0.0,nan,nan,nan,nan,nan,nan,nan,nan,nan,nan,nan,nan,nan,nan,nan,nan,nan,nan,1417.0625297215884,1675.3129134654882,nan,1675.7554513865616,nan,nan,nan,nan
1,173,1,1,1.0,1.0,0.4016543750767596,0,0.0,0.0,0.0,0.4006362140923325,0.12898510085431442,0.2716511132380181,0.5296213149466469,0.12898510085431442,0.4185075538116507,4,5,1,6,2,7,nan,nan,nan,nan,nan,nan,nan,nan,nan,nan,nan,nan,0.0,nan,nan,nan,nan,nan,nan,nan,nan,nan,nan,nan,nan,nan,nan,nan,nan,nan,nan,1417.0625297215884,1676.3297765276511,nan,1676.7314309027279,nan,nan,nan,nan
1,174,1,1,1.0,1.0,0.4569343028124422,0,0.0,0.0,0.0,0.4006422032745939,0.12860519693824113,0.27203700633635275,0.529247400212835,0.12860519693824113,0.43370886632086086,7,2,8,4,6,1,nan,nan,nan,nan,nan,nan,nan,nan,nan,nan,nan,nan,0.0,nan,nan,nan,nan,nan,nan,nan,nan,nan,nan,nan,nan,nan,nan,nan,nan,nan,nan,1417.0625297215884,1677.3464847808355,nan,1677.803419083648,nan,nan,nan,nan
1,175,1,1,1.0,1.0,0.3600646377308294,0,0.0,0.0,0.0,0.4009713968391427,0.1283004219588153,0.2726709748803274,0.5292718187979579,0.1283004219588153,0.40621777187334374,5,6,1,0,3,4,nan,nan,nan,nan,nan,nan,nan,nan,nan,nan,nan,nan,0.0,nan,nan,nan,nan,nan,nan,nan,nan,nan,nan,nan,nan,nan,nan,nan,nan,nan,nan,1417.0625297215884,1678.3633404304273,nan,1678.7234050681582,nan,nan,nan,nan
1,176,1,1,1.0,1.0,0.3432623017579317,0,0.0,0.0,0.0,0.40073356684432687,0.12796471032151155,0.27276885652281535,0.5286982771658384,0.12796471032151155,0.3867537474337344,3,8,7,2,6,5,nan,nan,nan,nan,nan,nan,nan,nan,nan,nan,nan,nan,0.0,nan,nan,nan,nan,nan,nan,nan,nan,nan,nan,nan,nan,nan,nan,nan,nan,nan,nan,1417.0625297215884,1679.3801282263012,nan,1679.723390528059,nan,nan,nan,nan
1,177,1,1,1.0,1.0,0.3264428597758524,0,0.0,0.0,0.0,0.40040136299989687,0.1276686959067649,0.27273266709313193,0.5280700589066618,0.1276686959067649,0.34325659975487116,4,0,1,3,7,2,nan,nan,nan,nan,nan,nan,nan,nan,nan,nan,nan,nan,0.0,nan,nan,nan,nan,nan,nan,nan,nan,nan,nan,nan,nan,nan,nan,nan,nan,nan,nan,1417.0625297215884,1680.3969302772311,nan,1680.723373137007,nan,nan,nan,nan
1,178,1,1,1.0,1.0,0.3176227381336503,0,0.0,0.0,0.0,0.39997631413079315,0.1274240052411535,0.27255230888963966,0.5274003193719466,0.1274240052411535,0.3291092998891448,7,1,6,8,5,0,nan,nan,nan,nan,nan,nan,nan,nan,nan,nan,nan,nan,0.0,nan,nan,nan,nan,nan,nan,nan,nan,nan,nan,nan,nan,nan,nan,nan,nan,nan,nan,1417.0625297215884,1681.413737174822,nan,1681.7313599129557,nan,nan,nan,nan
1,179,0,0,0.0,1.0,0.5568157584639266,0,0.0,0.0,0.0,0.39950572226795233,0.12721096030929196,0.27229476195866037,0.5267166825772442,0.12721096030929196,0.40029378545780975,8,2,0,1,4,6,nan,nan,nan,nan,nan,nan,nan,nan,nan,nan,nan,nan,0.0,nan,nan,nan,nan,nan,nan,nan,nan,nan,nan,nan,nan,nan,nan,nan,nan,nan,nan,1417.0625297215884,1682.4305466382648,nan,1682.9873623967287,nan,nan,nan,nan
1,180,1,1,1.0,1.0,0.39600455929758027,0,0.0,0.0,0.0,0.4003995292917931,0.12739893090087787,0.2730005983909153,0.527798460192671,0.12739893090087787,0.42348101863171905,7,4,3,0,5,1,nan,nan,nan,nan,nan,nan,nan,nan,nan,nan,nan,nan,0.0,nan,nan,nan,nan,nan,nan,nan,nan,nan,nan,nan,nan,nan,nan,nan,nan,nan,nan,1417.0625297215884,1683.4473432722734,nan,1683.843347831571,nan,nan,nan,nan
1,181,1,1,1.0,1.0,0.2991853568237275,0,0.0,0.0,0.0,0.4003746989528428,0.12703896424604963,0.2733357347067932,0.5274136631988924,0.12703896424604963,0.4173352248617448,0,6,5,1,7,2,nan,nan,nan,nan,nan,nan,nan,nan,nan,nan,nan,nan,0.0,nan,nan,nan,nan,nan,nan,nan,nan,nan,nan,nan,nan,nan,nan,nan,nan,nan,nan,1417.0625297215884,1684.4641504549654,nan,1684.7633358117891,nan,nan,nan,nan
1,182,1,1,1.0,1.0,0.31436775776091963,0,0.0,0.0,0.0,0.3998062195026792,0.12690717615901095,0.2728990433436682,0.5267133956616902,0.12690717615901095,0.33651922462740913,5,7,2,6,1,8,nan,nan,nan,nan,nan,nan,nan,nan,nan,nan,nan,nan,0.0,nan,nan,nan,nan,nan,nan,nan,nan,nan,nan,nan,nan,nan,nan,nan,nan,nan,nan,1417.0625297215884,1685.4809602035093,nan,1685.7953279612702,nan,nan,nan,nan
1,183,1,1,1.0,1.0,0.3295706858043559,0,0.0,0.0,0.0,0.39932890966054646,0.12671231067966401,0.2726165989808824,0.5260412203402105,0.12671231067966401,0.31437460012966767,4,0,5,7,2,6,nan,nan,nan,nan,nan,nan,nan,nan,nan,nan,nan,nan,0.0,nan,nan,nan,nan,nan,nan,nan,nan,nan,nan,nan,nan,nan,nan,nan,nan,nan,nan,1417.0625297215884,1686.497753986565,nan,1686.8273246723693,nan,nan,nan,nan
1,184,1,1,1.0,1.0,0.25673518935218453,0,0.0,0.0,0.0,0.3989413639724565,0.12646617702460283,0.27247518694785366,0.5254075409970593,0.12646617702460283,0.30022454430582,7,8,6,0,3,2,nan,nan,nan,nan,nan,nan,nan,nan,nan,nan,nan,nan,0.0,nan,nan,nan,nan,nan,nan,nan,nan,nan,nan,nan,nan,nan,nan,nan,nan,nan,nan,1417.0625297215884,1687.5145597437513,nan,1687.7712949331035,nan,nan,nan,nan
1,185,1,1,1.0,1.0,0.33590588066726923,0,0.0,0.0,0.0,0.39815569449941635,0.12655607751142592,0.2715996169879904,0.5247117720108423,0.12655607751142592,0.30740391860793653,5,3,2,1,8,4,nan,nan,nan,nan,nan,nan,nan,nan,nan,nan,nan,nan,0.0,nan,nan,nan,nan,nan,nan,nan,nan,nan,nan,nan,nan,nan,nan,nan,nan,nan,nan,1417.0625297215884,1688.5313709178008,nan,1688.867276798468,nan,nan,nan,nan
1,186,0,0,1.0,0.0,0.3031157377990894,0,0.0,0.0,0.0,0.39781366255528366,0.12629177634487113,0.2715218862104125,0.5241054389001548,0.12629177634487113,0.29858560260618106,8,6,4,0,2,5,nan,nan,nan,nan,nan,nan,nan,nan,nan,nan,nan,nan,0.0,nan,nan,nan,nan,nan,nan,nan,nan,nan,nan,nan,nan,nan,nan,nan,nan,nan,nan,1417.0625297215884,1689.5481672667083,nan,1689.8512830045074,nan,nan,nan,nan
1,187,1,1,1.0,1.0,0.5262978582177311,0,0.0,0.0,0.0,0.39729618755661594,0.12613957525895084,0.2711566122976651,0.5234357628155668,0.12613957525895084,0.38843982556136325,3,5,7,2,8,4,nan,nan,nan,nan,nan,nan,nan,nan,nan,nan,nan,nan,0.0,nan,nan,nan,nan,nan,nan,nan,nan,nan,nan,nan,nan,nan,nan,nan,nan,nan,nan,1417.0625297215884,1690.5649621901102,nan,1691.091260048328,nan,nan,nan,nan
1,188,1,1,1.0,1.0,0.6534758755005896,0,0.0,0.0,0.0,0.39799728359281766,0.12615335746157752,0.27184392613124014,0.5241506410543952,0.12615335746157752,0.4942964905058034,5,1,6,7,2,0,nan,nan,nan,nan,nan,nan,nan,nan,nan,nan,nan,nan,0.0,nan,nan,nan,nan,nan,nan,nan,nan,nan,nan,nan,nan,nan,nan,nan,nan,nan,nan,1417.0625297215884,1691.5817725088564,nan,1692.235248384357,nan,nan,nan,nan
1,189,1,1,1.0,1.0,0.7166713042533956,0,0.0,1.0,0.0,0.39937824895448126,0.12719883796047401,0.2721794109940072,0.5265770869149553,0.12719883796047401,0.6321483459905721,8,4,0,2,3,5,nan,nan,nan,nan,nan,nan,nan,nan,nan,nan,nan,nan,0.0,nan,nan,nan,nan,nan,nan,nan,nan,nan,nan,nan,nan,nan,nan,nan,nan,nan,nan,1417.0625297215884,1692.5985774107976,nan,1693.315248715051,nan,nan,nan,nan
1,190,1,1,1.0,1.0,0.7318514243816026,1,0.0,0.0,1.0,0.4010841255958733,0.12896088700515268,0.27212323859072063,0.530045012601026,0.12896088700515268,0.7006662013785293,7,0,6,3,8,4,1.0,1.0,1.0,1.0,1.0,1.0,0.0,1.0,0.0,0.0,0.0,0.0,1.0,2.0,0.0,8.0,7.0,2.0,1.0,5.0,4.0,3.0,2.0,1.0,6.0,6.127558054809924,5.231936384050641,4.248540575965308,3.001219655445311,1.7432479897979647,7.526991505175829,1417.0625297215884,1693.6153817424783,1694.423795198265,1694.34723316686,1702.999946686381,1704.0005476760562,1695.4322783323005,1702.9916163656162
1,191,1,1,1.0,1.0,0.4182770983898081,0,0.0,0.0,0.0,0.40285293468028893,0.13085836062280476,0.2719945740574842,0.5337112953030937,0.13085836062280476,0.6222666090082688,3,4,1,0,7,2,nan,nan,nan,nan,nan,nan,nan,nan,nan,nan,nan,nan,0.0,nan,nan,nan,nan,nan,nan,nan,nan,nan,nan,nan,nan,nan,nan,nan,nan,nan,nan,1417.0625297215884,1704.2168189858203,nan,1704.63509608421,nan,nan,nan,nan
1,192,1,1,1.0,1.0,0.4254504856071435,0,0.0,0.0,0.0,0.40293497810427575,0.1305146912589136,0.2724202868453621,0.5334496693631894,0.1305146912589136,0.5251930027928514,6,2,3,7,5,0,nan,nan,nan,nan,nan,nan,nan,nan,nan,nan,nan,nan,0.0,nan,nan,nan,nan,nan,nan,nan,nan,nan,nan,nan,nan,nan,nan,nan,nan,nan,nan,1417.0625297215884,1705.2336227472988,nan,1705.659073232906,nan,nan,nan,nan
1,193,1,1,1.0,1.0,0.5206511784926988,0,0.0,0.0,0.0,0.40305410777360307,0.13017920446663855,0.2728749033069645,0.5332333122402416,0.13017920446663855,0.4547929208298835,8,5,1,4,6,2,nan,nan,nan,nan,nan,nan,nan,nan,nan,nan,nan,nan,0.0,nan,nan,nan,nan,nan,nan,nan,nan,nan,nan,nan,nan,nan,nan,nan,nan,nan,nan,1417.0625297215884,1706.250430215092,nan,1706.7710813935846,nan,nan,nan,nan
1,194,1,1,1.0,1.0,0.6078645252855495,0,0.0,0.0,0.0,0.4036730397247562,0.13011469562900474,0.27355834409575147,0.533787735353761,0.13011469562900474,0.5179887297951306,2,7,0,8,5,1,nan,nan,nan,nan,nan,nan,nan,nan,nan,nan,nan,nan,0.0,nan,nan,nan,nan,nan,nan,nan,nan,nan,nan,nan,nan,nan,nan,nan,nan,nan,nan,1417.0625297215884,1707.2671949179494,nan,1707.875059443235,nan,nan,nan,nan
1,195,1,1,1.0,1.0,0.543012383626774,0,0.0,1.0,0.0,0.40474210509418446,0.13060760808378089,0.2741344970104036,0.5353497131779653,0.13060760808378089,0.5571760291350074,7,3,1,2,6,4,nan,nan,nan,nan,nan,nan,nan,nan,nan,nan,nan,nan,0.0,nan,nan,nan,nan,nan,nan,nan,nan,nan,nan,nan,nan,nan,nan,nan,nan,nan,nan,1417.0625297215884,1708.2840328913298,nan,1708.8270452749566,nan,nan,nan,nan
1,196,0,0,0.0,1.0,0.6381888430332765,1,0.0,0.0,1.0,0.405462262794875,0.1306466972767231,0.2748155655181519,0.5361089600715981,0.1306466972767231,0.5963552506485333,2,7,8,1,4,3,1.0,1.0,1.0,1.0,1.0,1.0,1.0,0.0,0.0,0.0,0.0,0.0,1.0,2.0,4.0,0.0,3.0,7.0,0.0,2.0,1.0,6.0,5.0,4.0,3.0,6.914108659373596,5.860133916896302,11.345165055477992,9.921442272490822,8.858184691984206,7.994540630665142,1417.0625297215884,1709.3008349422598,1710.1092714910628,1709.939023785293,1722.5109204492765,1723.5159835303784,1711.126059857197,1722.502583856287
1,197,1,1,1.0,1.0,0.5307573837926611,0,0.0,0.0,0.0,0.4066680999981828,0.13137464634560309,0.27529345365257973,0.5380427463437859,0.13137464634560309,0.5706528701509038,3,5,6,4,1,8,nan,nan,nan,nan,nan,nan,nan,nan,nan,nan,nan,nan,0.0,nan,nan,nan,nan,nan,nan,nan,nan,nan,nan,nan,nan,nan,nan,nan,nan,nan,nan,1417.0625297215884,1723.7361139462446,nan,1724.2668713300372,nan,nan,nan,nan
1,198,1,1,1.0,1.0,0.6419093908043578,0,0.0,0.0,0.0,0.4073077354816595,0.13133657154745715,0.27597116393420235,0.5386443070291167,0.13133657154745715,0.6036185392100984,5,2,1,3,6,7,nan,nan,nan,nan,nan,nan,nan,nan,nan,nan,nan,nan,0.0,nan,nan,nan,nan,nan,nan,nan,nan,nan,nan,nan,nan,nan,nan,nan,nan,nan,nan,1417.0625297215884,1724.75292455015,nan,1725.3948339409544,nan,nan,nan,nan
1,199,1,1,1.0,1.0,0.7371405893936753,0,0.0,1.0,0.0,0.40851082089357077,0.1320667843072266,0.2764440365863442,0.5405776052007973,0.1320667843072266,0.6366024546635648,0,8,3,1,4,2,nan,nan,nan,nan,nan,nan,nan,nan,nan,nan,nan,nan,0.0,nan,nan,nan,nan,nan,nan,nan,nan,nan,nan,nan,nan,nan,nan,nan,nan,nan,nan,1417.0625297215884,1725.7697066440596,nan,1726.5068472334533,nan,nan,nan,nan
1,200,1,1,1.0,1.0,0.6722901582252234,1,0.0,0.0,1.0,0.41018750338591825,0.13379403610051976,0.2763934672853985,0.543981539486438,0.13379403610051976,0.6837800461410856,5,1,4,2,3,6,1.0,1.0,1.0,1.0,1.0,1.0,0.0,0.0,0.0,0.0,0.0,0.0,0.0,0.0,2.0,8.0,4.0,7.0,1.0,2.0,1.0,3.0,4.0,5.0,6.0,4.156532711756881,3.2054848572588526,5.091298536746763,6.619878616067581,7.996060780948028,9.371081735764164,1417.0625297215884,1726.7865332135116,1727.5949406822328,1727.4588233717368,1738.0213445404079,1739.0221858688747,1728.6117484350689,1738.0129991093418
1,201,1,1,nan,nan,nan,0,0.0,0.0,0.0,0.4115179737150518,0.1347476401326096,0.2767703335824422,0.5462656138476614,0.1347476401326096,0.7047153738094494,7,5,6,8,4,0,nan,nan,nan,nan,nan,nan,nan,nan,nan,nan,nan,nan,0.0,nan,nan,nan,nan,nan,nan,nan,nan,nan,nan,nan,nan,nan,nan,nan,nan,nan,nan,1417.0625297215884,1739.2465215016273,nan,nan,nan,nan,nan,nan
1,202,1,1,1.0,1.0,0.4669729394954629,0,0.0,0.0,0.0,0.4115179737150518,0.1347476401326096,0.2767703335824422,0.5462656138476614,0.1347476401326096,0.5696315488603432,4,8,7,0,2,6,nan,nan,nan,nan,nan,nan,nan,nan,nan,nan,nan,nan,0.0,nan,nan,nan,nan,nan,nan,nan,nan,nan,nan,nan,nan,nan,nan,nan,nan,nan,nan,1417.0625297215884,1740.2716478861985,nan,1740.738620825694,nan,nan,nan,nan
1,203,1,1,1.0,1.0,0.2981809515040368,0,0.0,0.0,0.0,0.41179804929980135,0.13446441169262888,0.27733363760717245,0.5462624609924303,0.13446441169262888,0.38257694549974985,8,5,1,6,4,2,nan,nan,nan,nan,nan,nan,nan,nan,nan,nan,nan,nan,0.0,nan,nan,nan,nan,nan,nan,nan,nan,nan,nan,nan,nan,nan,nan,nan,nan,nan,nan,1417.0625297215884,1741.2884610559558,nan,1741.58664200746,nan,nan,nan,nan
1,204,1,1,1.0,1.0,0.4173904391354881,0,0.0,0.0,0.0,0.41122710910987287,0.13436652458141302,0.27686058452845985,0.5455936336912859,0.13436652458141302,0.3941814433783293,6,2,5,3,7,1,nan,nan,nan,nan,nan,nan,nan,nan,nan,nan,nan,nan,0.0,nan,nan,nan,nan,nan,nan,nan,nan,nan,nan,nan,nan,nan,nan,nan,nan,nan,nan,1417.0625297215884,1742.305268523749,nan,1742.7226589628845,nan,nan,nan,nan
1,205,1,1,1.0,1.0,0.6965740739833564,0,0.0,0.0,0.0,0.4112579257600009,0.1340308923232481,0.2772270334367528,0.545288818083249,0.1340308923232481,0.4707151548742938,4,8,3,6,0,7,nan,nan,nan,nan,nan,nan,nan,nan,nan,nan,nan,nan,0.0,nan,nan,nan,nan,nan,nan,nan,nan,nan,nan,nan,nan,nan,nan,nan,nan,nan,nan,1417.0625297215884,1743.3220372180222,nan,1744.0186112920055,nan,nan,nan,nan
1,206,1,1,1.0,1.0,0.44739430508343503,0,0.0,0.0,0.0,0.41267740908449524,0.13519575492900657,0.27748165415548864,0.5478731640135018,0.13519575492900657,0.5204529394007599,6,3,1,7,4,2,nan,nan,nan,nan,nan,nan,nan,nan,nan,nan,nan,nan,0.0,nan,nan,nan,nan,nan,nan,nan,nan,nan,nan,nan,nan,nan,nan,nan,nan,nan,nan,1417.0625297215884,1744.3472172013135,nan,1744.794611506397,nan,nan,nan,nan
1,207,0,0,1.0,0.0,0.3185538729885593,0,0.0,0.0,0.0,0.41284927490627216,0.13488270699469104,0.27796656791158114,0.5477319819009632,0.13488270699469104,0.48750741735178355,1,5,8,0,2,3,nan,nan,nan,nan,nan,nan,nan,nan,nan,nan,nan,nan,0.0,nan,nan,nan,nan,nan,nan,nan,nan,nan,nan,nan,nan,nan,nan,nan,nan,nan,nan,1417.0625297215884,1745.364030656172,nan,1745.6825845291605,nan,nan,nan,nan
1,208,1,1,1.0,1.0,0.3577584683080204,0,0.0,0.0,0.0,0.4123847655372194,0.1347119430024351,0.2776728225347843,0.5470967085396545,0.1347119430024351,0.37456888212667155,2,7,6,5,1,8,nan,nan,nan,nan,nan,nan,nan,nan,nan,nan,nan,nan,0.0,nan,nan,nan,nan,nan,nan,nan,nan,nan,nan,nan,nan,nan,nan,nan,nan,nan,nan,1417.0625297215884,1746.3808121798793,nan,1746.7385706481873,nan,nan,nan,nan
1,209,0,0,0.0,1.0,0.596937803842593,0,0.0,0.0,0.0,0.4121169895704096,0.13443550908499569,0.2776814804854139,0.5465524986554053,0.13443550908499569,0.4244167150463909,6,3,4,2,5,7,nan,nan,nan,nan,nan,nan,nan,nan,nan,nan,nan,nan,0.0,nan,nan,nan,nan,nan,nan,nan,nan,nan,nan,nan,nan,nan,nan,nan,nan,nan,nan,1417.0625297215884,1747.3976224986836,nan,1747.9945603025262,nan,nan,nan,nan
1,210,1,1,1.0,1.0,0.6361304250312969,0,0.0,0.0,0.0,0.4130185545180788,0.13472401691517086,0.2782945376029079,0.5477425714332497,0.13472401691517086,0.5302755657273034,1,7,2,6,8,3,nan,nan,nan,nan,nan,nan,nan,nan,nan,nan,nan,nan,0.0,nan,nan,nan,nan,nan,nan,nan,nan,nan,nan,nan,nan,nan,nan,nan,nan,nan,nan,1417.0625297215884,1748.4144353833399,nan,1749.0505658083712,nan,nan,nan,nan
1,211,1,1,1.0,1.0,0.7388471947051585,0,0.0,0.0,0.0,0.41410162185066723,0.13528829719991617,0.27881332465075104,0.5493899190505834,0.13528829719991617,0.6573051411930161,8,4,6,3,1,0,nan,nan,nan,nan,nan,nan,nan,nan,nan,nan,nan,nan,0.0,nan,nan,nan,nan,nan,nan,nan,nan,nan,nan,nan,nan,nan,nan,nan,nan,nan,nan,1417.0625297215884,1749.4316964443424,nan,1750.1705436390475,nan,nan,nan,nan
1,212,1,1,1.0,1.0,0.7064778585918248,0,0.0,1.0,0.0,0.415670441043201,0.13682656662128362,0.2788438744219174,0.5524970076644846,0.13682656662128362,0.6938184927760934,7,2,4,8,3,5,nan,nan,nan,nan,nan,nan,nan,nan,nan,nan,nan,nan,0.0,nan,nan,nan,nan,nan,nan,nan,nan,nan,nan,nan,nan,nan,nan,nan,nan,nan,nan,1417.0625297215884,1750.4480463275104,nan,1751.1545241861022,nan,nan,nan,nan
1,213,1,1,1.0,1.0,0.6976825405727141,1,0.0,0.0,1.0,0.4170685536275694,0.1379714784593612,0.2790970751682082,0.5550400320869306,0.1379714784593612,0.7143358646232324,0,7,8,3,2,4,1.0,1.0,1.0,1.0,1.0,1.0,0.0,0.0,0.0,0.0,0.0,0.0,0.0,4.0,2.0,4.0,0.0,4.0,0.0,2.0,3.0,6.0,5.0,4.0,1.0,4.534135242050979,6.6697008850751445,9.708551386895124,8.637116869096644,7.813015246007126,3.3194707527873106,1417.0625297215884,1751.4648369744536,1752.2732649702812,1752.1625195150264,1763.041366219346,1764.0443215602427,1753.2900675913552,1763.0330515790265
1,214,1,1,1.0,1.0,0.703826148645021,0,0.0,0.0,0.0,0.4184112042828093,0.13899644151780963,0.27941476276499966,0.557407645800619,0.13899644151780963,0.7026621826031866,6,8,5,4,3,0,nan,nan,nan,nan,nan,nan,nan,nan,nan,nan,nan,nan,0.0,nan,nan,nan,nan,nan,nan,nan,nan,nan,nan,nan,nan,nan,nan,nan,nan,nan,nan,1417.0625297215884,1764.2665600014734,nan,1764.9703861501184,nan,nan,nan,nan
1,215,1,1,1.0,1.0,0.4150283901835792,0,0.0,0.0,0.0,0.4197703230654865,0.14005026351733668,0.2797200595481498,0.5598205865828232,0.14005026351733668,0.605512359800438,0,5,1,2,6,4,nan,nan,nan,nan,nan,nan,nan,nan,nan,nan,nan,nan,0.0,nan,nan,nan,nan,nan,nan,nan,nan,nan,nan,nan,nan,nan,nan,nan,nan,nan,nan,1417.0625297215884,1765.2833534993697,nan,1765.6983818895533,nan,nan,nan,nan
1,216,1,1,1.0,1.0,0.35818269627634436,0,0.0,0.0,0.0,0.41974784944993243,0.13971837626794925,0.2800294731819832,0.5594662257178817,0.13971837626794925,0.4923457450349815,4,6,8,5,3,7,nan,nan,nan,nan,nan,nan,nan,nan,nan,nan,nan,nan,0.0,nan,nan,nan,nan,nan,nan,nan,nan,nan,nan,nan,nan,nan,nan,nan,nan,nan,nan,1417.0625297215884,1766.3001683797338,nan,1766.6583510760101,nan,nan,nan,nan
1,217,1,1,1.0,1.0,0.2773704023566097,0,0.0,0.0,0.0,0.4194574477840193,0.13945227753048522,0.28000517025353405,0.5589097253145046,0.13945227753048522,0.3501938296055111,3,5,2,0,8,6,nan,nan,nan,nan,nan,nan,nan,nan,nan,nan,nan,nan,0.0,nan,nan,nan,nan,nan,nan,nan,nan,nan,nan,nan,nan,nan,nan,nan,nan,nan,nan,1417.0625297215884,1767.316969290201,nan,1767.5943396925577,nan,nan,nan,nan
1,218,0,0,1.0,0.0,0.29219129716511816,0,0.0,0.0,0.0,0.4187903724533742,0.13946316827290517,0.279327204180469,0.5582535407262794,0.13946316827290517,0.30924813193269074,6,8,5,2,4,1,nan,nan,nan,nan,nan,nan,nan,nan,nan,nan,nan,nan,0.0,nan,nan,nan,nan,nan,nan,nan,nan,nan,nan,nan,nan,nan,nan,nan,nan,nan,nan,1417.0625297215884,1768.3421210486558,nan,1768.634312345821,nan,nan,nan,nan
1,219,1,1,1.0,1.0,0.4190662537002936,0,0.0,0.0,0.0,0.41819878798941035,0.13940456105724305,0.27879422693216727,0.5576033490466534,0.13940456105724305,0.32954265107400715,7,1,6,4,5,0,nan,nan,nan,nan,nan,nan,nan,nan,nan,nan,nan,nan,0.0,nan,nan,nan,nan,nan,nan,nan,nan,nan,nan,nan,nan,nan,nan,nan,nan,nan,nan,1417.0625297215884,1769.367237454746,nan,1769.7863037084462,nan,nan,nan,nan
1,220,1,1,1.0,1.0,0.6262671244912781,0,0.0,0.0,0.0,0.41820282271364706,0.13907999907563945,0.2791228236380076,0.5572828217892865,0.13907999907563945,0.44584155845222995,6,2,5,8,1,7,nan,nan,nan,nan,nan,nan,nan,nan,nan,nan,nan,nan,0.0,nan,nan,nan,nan,nan,nan,nan,nan,nan,nan,nan,nan,nan,nan,nan,nan,nan,nan,1417.0625297215884,1770.3840312378015,nan,1771.0102983622928,nan,nan,nan,nan
1,221,1,1,1.0,1.0,0.5454260354745202,0,0.0,0.0,0.0,0.419166083370025,0.13947468000397273,0.27969140336605225,0.5586407633739977,0.13947468000397273,0.5302531378886973,8,1,0,4,2,6,nan,nan,nan,nan,nan,nan,nan,nan,nan,nan,nan,nan,0.0,nan,nan,nan,nan,nan,nan,nan,nan,nan,nan,nan,nan,nan,nan,nan,nan,nan,nan,1417.0625297215884,1771.4008549562423,nan,1771.9462809917168,nan,nan,nan,nan
1,222,1,1,1.0,1.0,0.44860654789954424,0,0.0,0.0,0.0,0.4197479264672807,0.13941544133384312,0.28033248513343756,0.5591633678011239,0.13941544133384312,0.5400999026217809,0,4,8,6,7,5,nan,nan,nan,nan,nan,nan,nan,nan,nan,nan,nan,nan,0.0,nan,nan,nan,nan,nan,nan,nan,nan,nan,nan,nan,nan,nan,nan,nan,nan,nan,nan,1417.0625297215884,1772.4176701217075,nan,1772.866276669607,nan,nan,nan,nan
1,223,0,0,0.0,1.0,0.6794418779318221,0,0.0,0.0,0.0,0.4198803054646764,0.13910898252243187,0.28077132294224455,0.5589892879871083,0.13910898252243187,0.5578248204352955,6,8,3,1,0,7,nan,nan,nan,nan,nan,nan,nan,nan,nan,nan,nan,nan,0.0,nan,nan,nan,nan,nan,nan,nan,nan,nan,nan,nan,nan,nan,nan,nan,nan,nan,nan,1417.0625297215884,1773.4428059145575,nan,1774.1222477924894,nan,nan,nan,nan
1,224,1,1,1.0,1.0,0.49465295986738056,0,0.0,0.0,0.0,0.42106551812434373,0.13988987743719053,0.28117564068715317,0.5609553955615343,0.13988987743719053,0.5409004618995823,2,6,7,5,4,0,nan,nan,nan,nan,nan,nan,nan,nan,nan,nan,nan,nan,0.0,nan,nan,nan,nan,nan,nan,nan,nan,nan,nan,nan,nan,nan,nan,nan,nan,nan,nan,1417.0625297215884,1774.4596014081617,nan,1774.954254368029,nan,nan,nan,nan
1,225,1,1,0.0,0.0,0.34950968594057485,0,0.0,0.0,0.0,0.421400006495903,0.1396593328863231,0.2817406736095799,0.5610593393822261,0.1396593328863231,0.5078681745799258,7,5,4,2,8,6,nan,nan,nan,nan,nan,nan,nan,nan,nan,nan,nan,nan,0.0,nan,nan,nan,nan,nan,nan,nan,nan,nan,nan,nan,nan,nan,nan,nan,nan,nan,nan,1417.0625297215884,1775.4847343500587,nan,1775.8342440359993,nan,nan,nan,nan
1,226,1,1,1.0,1.0,0.47667686943896115,0,0.0,0.0,0.0,0.4210747109277793,0.13942651237917217,0.2816481985486071,0.5605012233069515,0.13942651237917217,0.44027983841563884,5,3,8,7,6,1,nan,nan,nan,nan,nan,nan,nan,nan,nan,nan,nan,nan,0.0,nan,nan,nan,nan,nan,nan,nan,nan,nan,nan,nan,nan,nan,nan,nan,nan,nan,nan,1417.0625297215884,1776.5015446688049,nan,1776.9782215382438,nan,nan,nan,nan
1,227,1,1,0.0,0.0,0.47586519131436944,0,0.0,0.0,0.0,0.4213251711012531,0.13916195348636476,0.2821632176148884,0.5604871245876178,0.13916195348636476,0.4340172488979685,3,5,6,4,1,8,nan,nan,nan,nan,nan,nan,nan,nan,nan,nan,nan,nan,0.0,nan,nan,nan,nan,nan,nan,nan,nan,nan,nan,nan,nan,nan,nan,nan,nan,nan,nan,1417.0625297215884,1777.5183413028135,nan,1777.9942064941279,nan,nan,nan,nan
1,228,1,1,1.0,1.0,0.7710477518849075,0,0.0,1.0,0.0,0.4215697451829263,0.1388973912160431,0.28267235396688317,0.5604671363989694,0.1388973912160431,0.5745299375460794,8,6,2,3,0,7,nan,nan,nan,nan,nan,nan,nan,nan,nan,nan,nan,nan,0.0,nan,nan,nan,nan,nan,nan,nan,nan,nan,nan,nan,nan,nan,nan,nan,nan,nan,nan,1417.0625297215884,1778.5351490557077,nan,1779.3061968075926,nan,nan,nan,nan
1,229,1,1,1.0,1.0,0.5142444237135351,1,0.0,0.0,1.0,0.423129914855703,0.14053173655126955,0.28259817830443346,0.5636616514069726,0.14053173655126955,0.587052455637604,2,1,5,8,4,6,1.0,1.0,1.0,1.0,1.0,1.0,1.0,0.0,0.0,1.0,1.0,0.0,3.0,2.0,4.0,7.0,8.0,4.0,0.0,4.0,2.0,3.0,1.0,6.0,5.0,5.741271110193338,2.9180729672079906,4.055242864822503,1.8296345481066965,7.6936210138956085,6.582317048800178,1417.0625297215884,1779.5519511065795,1780.360383664025,1780.066195530293,1789.103213127819,1790.1116130128503,1781.3688685087254,1789.0948773901328
1,230,1,1,nan,nan,nan,0,0.0,0.0,0.0,0.42353486822840447,0.14035001971570293,0.28318484851270154,0.5638848879441074,0.14035001971570293,0.6426460877992213,7,4,8,0,5,2,nan,nan,nan,nan,nan,nan,nan,nan,nan,nan,nan,nan,0.0,nan,nan,nan,nan,nan,nan,nan,nan,nan,nan,nan,nan,nan,nan,nan,nan,nan,nan,1417.0625297215884,1790.336776004231,nan,nan,nan,nan,nan,nan
1,231,1,1,1.0,1.0,0.4245102276909165,0,0.0,0.0,0.0,0.42353486822840447,0.14035001971570293,0.28318484851270154,0.5638848879441074,0.14035001971570293,0.4693773257022258,6,3,5,4,2,1,nan,nan,nan,nan,nan,nan,nan,nan,nan,nan,nan,nan,0.0,nan,nan,nan,nan,nan,nan,nan,nan,nan,nan,nan,nan,nan,nan,nan,nan,nan,nan,1417.0625297215884,1791.3535558173317,nan,1791.7780660450226,nan,nan,nan,nan
1,232,0,0,0.0,1.0,0.5596821483341046,0,0.0,0.0,0.0,0.4235391839782386,0.14003918154010164,0.28350000243813694,0.5635783655183402,0.14003918154010164,0.49209618801251054,5,4,7,3,0,8,nan,nan,nan,nan,nan,nan,nan,nan,nan,nan,nan,nan,0.0,nan,nan,nan,nan,nan,nan,nan,nan,nan,nan,nan,nan,nan,nan,nan,nan,nan,nan,1417.0625297215884,1792.3703478897223,nan,1792.9300300380564,nan,nan,nan,nan
1,233,1,1,1.0,1.0,0.2869101149844937,0,0.0,0.0,0.0,0.4241389327198944,0.1400209708960604,0.284117961823834,0.5641599036159548,0.1400209708960604,0.4237008303365049,8,0,6,4,5,3,nan,nan,nan,nan,nan,nan,nan,nan,nan,nan,nan,nan,0.0,nan,nan,nan,nan,nan,nan,nan,nan,nan,nan,nan,nan,nan,nan,nan,nan,nan,nan,1417.0625297215884,1793.387112592638,nan,1793.6740227076225,nan,nan,nan,nan
1,234,1,1,1.0,1.0,0.45405223249690607,0,0.0,0.0,0.0,0.4235370519403532,0.14000755247505456,0.2835294994652986,0.5635446044154078,0.14000755247505456,0.43354816527183476,2,3,5,7,1,4,nan,nan,nan,nan,nan,nan,nan,nan,nan,nan,nan,nan,0.0,nan,nan,nan,nan,nan,nan,nan,nan,nan,nan,nan,nan,nan,nan,nan,nan,nan,nan,1417.0625297215884,1794.4039508511196,nan,1794.8580030836165,nan,nan,nan,nan
1,235,1,1,1.0,1.0,0.5652167838998139,0,0.0,0.0,0.0,0.4236703060039189,0.13971601379531357,0.28395429220860535,0.5633863197992325,0.13971601379531357,0.4353930437937379,0,8,1,2,4,6,nan,nan,nan,nan,nan,nan,nan,nan,nan,nan,nan,nan,0.0,nan,nan,nan,nan,nan,nan,nan,nan,nan,nan,nan,nan,nan,nan,nan,nan,nan,nan,1417.0625297215884,1795.4207694377983,nan,1795.985986221698,nan,nan,nan,nan
1,236,1,1,1.0,1.0,0.7724179397919215,0,0.0,1.0,0.0,0.4242857254730315,0.1397226689138106,0.2845630565592209,0.5640083943868421,0.1397226689138106,0.5972289853962138,2,3,7,0,5,8,nan,nan,nan,nan,nan,nan,nan,nan,nan,nan,nan,nan,0.0,nan,nan,nan,nan,nan,nan,nan,nan,nan,nan,nan,nan,nan,nan,nan,nan,nan,nan,1417.0625297215884,1796.437558944337,nan,1797.209976884129,nan,nan,nan,nan
1,237,1,1,nan,nan,nan,0,0.0,0.0,0.0,0.4257927913358838,0.1412809204313581,0.28451187090452573,0.567073711767242,0.1412809204313581,0.6688173618458677,5,8,4,1,3,0,nan,nan,nan,nan,nan,nan,nan,nan,nan,nan,nan,nan,0.0,nan,nan,nan,nan,nan,nan,nan,nan,nan,nan,nan,nan,nan,nan,nan,nan,nan,nan,1417.0625297215884,1797.4543641313212,nan,nan,nan,nan,nan,nan
1,238,1,1,1.0,1.0,0.6987627824419178,0,0.0,0.0,0.0,0.4257927913358838,0.1412809204313581,0.28451187090452573,0.567073711767242,0.1412809204313581,0.7355903611169197,3,0,1,8,4,2,nan,nan,nan,nan,nan,nan,nan,nan,nan,nan,nan,nan,0.0,nan,nan,nan,nan,nan,nan,nan,nan,nan,nan,nan,nan,nan,nan,nan,nan,nan,nan,1417.0625297215884,1798.4711630460806,nan,1799.1699258285225,nan,nan,nan,nan
1,239,1,1,1.0,1.0,0.6019700941978954,0,0.0,0.0,0.0,0.42696938612513397,0.14210578243860886,0.2848636036865251,0.5690751685637429,0.14210578243860886,0.6503664383199066,7,3,0,4,6,1,nan,nan,nan,nan,nan,nan,nan,nan,nan,nan,nan,nan,0.0,nan,nan,nan,nan,nan,nan,nan,nan,nan,nan,nan,nan,nan,nan,nan,nan,nan,nan,1417.0625297215884,1799.4879745052895,nan,1800.0899445994874,nan,nan,nan,nan
1,240,1,1,1.0,1.0,0.48915025539463386,0,0.0,1.0,0.0,0.42772046212544623,0.14226123281523279,0.28545922931021345,0.5699816949406791,0.14226123281523279,0.596627710678149,1,0,6,8,2,3,nan,nan,nan,nan,nan,nan,nan,nan,nan,nan,nan,nan,0.0,nan,nan,nan,nan,nan,nan,nan,nan,nan,nan,nan,nan,nan,nan,nan,nan,nan,nan,1417.0625297215884,1800.5047771263635,nan,1800.993927381758,nan,nan,nan,nan
1,241,0,0,0.0,1.0,0.5443312536226586,1,0.0,0.0,1.0,0.4279829826095026,0.1420134773201863,0.2859695052893163,0.569996459929689,0.1420134773201863,0.5451505344050626,0,2,8,4,6,7,1.0,1.0,1.0,1.0,1.0,1.0,1.0,1.0,0.0,0.0,1.0,0.0,3.0,0.0,2.0,5.0,1.0,6.0,2.0,1.0,2.0,5.0,4.0,3.0,6.0,3.18083116755588,4.212878056161571,10.162752726406325,8.458833350276109,6.866927266586572,11.218941551225726,1417.0625297215884,1801.5215843090555,1802.3300083135255,1802.0659155626781,1814.6149817479309,1815.617329826986,1803.3551395447575,1814.6066485761548
1,242,1,1,1.0,1.0,0.4335903599858284,0,0.0,0.0,0.0,0.4284780816350905,0.1419132340183835,0.286564847616707,0.570391315653474,0.1419132340183835,0.4890239563343736,5,7,6,3,2,8,nan,nan,nan,nan,nan,nan,nan,nan,nan,nan,nan,nan,0.0,nan,nan,nan,nan,nan,nan,nan,nan,nan,nan,nan,nan,nan,nan,nan,nan,nan,nan,1417.0625297215884,1815.8401729641482,nan,1816.273763324134,nan,nan,nan,nan
1,243,1,1,1.0,1.0,0.3047741613117978,0,0.0,0.0,0.0,0.4284997438314919,0.14161264056191275,0.28688710326957917,0.5701123843934046,0.14161264056191275,0.42756525830676156,3,8,2,5,1,0,nan,nan,nan,nan,nan,nan,nan,nan,nan,nan,nan,nan,0.0,nan,nan,nan,nan,nan,nan,nan,nan,nan,nan,nan,nan,nan,nan,nan,nan,nan,nan,1417.0625297215884,1816.8569801468402,nan,1817.161754308152,nan,nan,nan,nan
1,244,1,1,1.0,1.0,0.2959417803795077,0,0.0,0.0,0.0,0.4279776949601008,0.14154095382000578,0.286436741140095,0.5695186487801066,0.14154095382000578,0.3447687672257113,6,3,4,7,2,8,nan,nan,nan,nan,nan,nan,nan,nan,nan,nan,nan,nan,0.0,nan,nan,nan,nan,nan,nan,nan,nan,nan,nan,nan,nan,nan,nan,nan,nan,nan,nan,1417.0625297215884,1817.8737816275097,nan,1818.1697234078893,nan,nan,nan,nan
1,245,1,1,1.0,1.0,0.32712225179420784,0,0.0,0.0,0.0,0.4274229222097622,0.141501264863149,0.2859216573466132,0.5689241870729111,0.141501264863149,0.30927939782850444,3,0,8,5,7,1,nan,nan,nan,nan,nan,nan,nan,nan,nan,nan,nan,nan,0.0,nan,nan,nan,nan,nan,nan,nan,nan,nan,nan,nan,nan,nan,nan,nan,nan,nan,nan,1417.0625297215884,1818.890584533685,nan,1819.217706785479,nan,nan,nan,nan
1,246,1,1,1.0,1.0,0.31832607852993533,0,0.0,0.0,0.0,0.4270032541327097,0.1413532745419162,0.28564997959079347,0.5683565286746259,0.1413532745419162,0.31379670356788364,8,3,4,1,5,6,nan,nan,nan,nan,nan,nan,nan,nan,nan,nan,nan,nan,0.0,nan,nan,nan,nan,nan,nan,nan,nan,nan,nan,nan,nan,nan,nan,nan,nan,nan,nan,1417.0625297215884,1819.9073808825924,nan,1820.2257069611223,nan,nan,nan,nan
1,247,1,1,1.0,1.0,0.29349078045925125,0,0.0,0.0,0.0,0.4265504325676981,0.1412320835628054,0.2853183490048927,0.5677825161305035,0.1412320835628054,0.3129797035944648,2,1,0,6,4,5,nan,nan,nan,nan,nan,nan,nan,nan,nan,nan,nan,nan,0.0,nan,nan,nan,nan,nan,nan,nan,nan,nan,nan,nan,nan,nan,nan,nan,nan,nan,nan,1417.0625297215884,1820.924194622552,nan,1821.2176854030113,nan,nan,nan,nan
1,248,0,0,1.0,0.0,0.32471002533566207,0,0.0,0.0,0.0,0.4259983178286589,0.14119807089977363,0.2848002469288853,0.5671963887284325,0.14119807089977363,0.31217562810828287,3,2,6,4,0,7,nan,nan,nan,nan,nan,nan,nan,nan,nan,nan,nan,nan,0.0,nan,nan,nan,nan,nan,nan,nan,nan,nan,nan,nan,nan,nan,nan,nan,nan,nan,nan,1417.0625297215884,1821.9410100731184,nan,1822.265720098454,nan,nan,nan,nan
1,249,1,1,1.0,1.0,0.3398567888652906,0,0.0,0.0,0.0,0.4255797711654647,0.14105576931406358,0.28452400185140114,0.5666355404795282,0.14105576931406358,0.3193525315534013,6,4,8,3,2,5,nan,nan,nan,nan,nan,nan,nan,nan,nan,nan,nan,nan,0.0,nan,nan,nan,nan,nan,nan,nan,nan,nan,nan,nan,nan,nan,nan,nan,nan,nan,nan,1417.0625297215884,1822.9577978690504,nan,1823.2976546579157,nan,nan,nan,nan
1,250,1,1,1.0,1.0,0.2750360080972314,0,0.0,0.0,0.0,0.4252270016909784,0.14087216373130232,0.2843548379596761,0.5660991654222807,0.14087216373130232,0.31320094076606136,8,3,2,4,0,7,nan,nan,nan,nan,nan,nan,nan,nan,nan,nan,nan,nan,0.0,nan,nan,nan,nan,nan,nan,nan,nan,nan,nan,nan,nan,nan,nan,nan,nan,nan,nan,1417.0625297215884,1823.974611323909,nan,1824.2496473320061,nan,nan,nan,nan
1,251,1,1,1.0,1.0,0.4102250346913934,0,0.0,0.0,0.0,0.42461146483198764,0.14091026893446296,0.2837011958975247,0.5655217337664507,0.14091026893446296,0.34170594388463843,2,4,5,0,3,1,nan,nan,nan,nan,nan,nan,nan,nan,nan,nan,nan,nan,0.0,nan,nan,nan,nan,nan,nan,nan,nan,nan,nan,nan,nan,nan,nan,nan,nan,nan,nan,1417.0625297215884,1824.9914156555897,nan,1825.401640690281,nan,nan,nan,nan
1,252,1,1,1.0,1.0,0.31350561702856794,0,0.0,0.0,0.0,0.4245527447089648,0.14062539431669435,0.28392735039227046,0.5651781390256592,0.14062539431669435,0.33292221993906423,4,5,1,8,7,0,nan,nan,nan,nan,nan,nan,nan,nan,nan,nan,nan,nan,0.0,nan,nan,nan,nan,nan,nan,nan,nan,nan,nan,nan,nan,nan,nan,nan,nan,nan,nan,1417.0625297215884,1826.0082134300028,nan,1826.3217190470314,nan,nan,nan,nan
1,253,1,1,1.0,1.0,0.3445754697895609,0,0.0,0.0,0.0,0.4241013336208331,0.14051703612696603,0.28358429749386704,0.5646183697477991,0.14051703612696603,0.35610204050317407,1,3,7,4,8,5,nan,nan,nan,nan,nan,nan,nan,nan,nan,nan,nan,nan,0.0,nan,nan,nan,nan,nan,nan,nan,nan,nan,nan,nan,nan,nan,nan,nan,nan,nan,nan,1417.0625297215884,1827.0250334421871,nan,1827.3696089119767,nan,nan,nan,nan
1,254,1,1,1.0,1.0,0.31177107198163867,0,0.0,0.0,0.0,0.42377936656078746,0.14032319503507942,0.283456171525708,0.5641025615958669,0.14032319503507942,0.32328405293325585,5,7,0,1,2,3,nan,nan,nan,nan,nan,nan,nan,nan,nan,nan,nan,nan,0.0,nan,nan,nan,nan,nan,nan,nan,nan,nan,nan,nan,nan,nan,nan,nan,nan,nan,nan,1417.0625297215884,1828.0418269400834,nan,1828.353598012065,nan,nan,nan,nan
1,255,1,1,1.0,1.0,0.4709506470244378,0,0.0,0.0,0.0,0.42332772021167797,0.14021977621174025,0.2831079439999377,0.5635474964234182,0.14021977621174025,0.37576572959854576,0,6,4,5,3,2,nan,nan,nan,nan,nan,nan,nan,nan,nan,nan,nan,nan,0.0,nan,nan,nan,nan,nan,nan,nan,nan,nan,nan,nan,nan,nan,nan,nan,nan,nan,nan,1417.0625297215884,1829.0586301313597,nan,1829.5295807783841,nan,nan,nan,nan
1,256,1,1,1.0,1.0,0.3581453482620418,0,0.0,0.0,0.0,0.42351897694586577,0.13997033641403459,0.28354864053183115,0.5634893133599004,0.13997033641403459,0.38028902242270607,4,2,0,7,6,3,nan,nan,nan,nan,nan,nan,nan,nan,nan,nan,nan,nan,0.0,nan,nan,nan,nan,nan,nan,nan,nan,nan,nan,nan,nan,nan,nan,nan,nan,nan,nan,1417.0625297215884,1830.075428475975,nan,1830.433573824237,nan,nan,nan,nan
1,257,1,1,1.0,1.0,0.26932318531908095,0,0.0,0.0,0.0,0.4232574824311305,0.1397510456543439,0.28350643677678655,0.5630085280854744,0.1397510456543439,0.3661397268685202,2,5,8,0,3,7,nan,nan,nan,nan,nan,nan,nan,nan,nan,nan,nan,nan,0.0,nan,nan,nan,nan,nan,nan,nan,nan,nan,nan,nan,nan,nan,nan,nan,nan,nan,nan,1417.0625297215884,1831.092231097049,nan,1831.3615542823682,nan,nan,nan,nan
1,258,1,1,1.0,1.0,0.3884616832365282,0,0.0,0.0,0.0,0.4226441983788912,0.13980906235052384,0.2828351360283674,0.562453260729415,0.13980906235052384,0.33864340560588363,5,7,0,2,4,6,nan,nan,nan,nan,nan,nan,nan,nan,nan,nan,nan,nan,0.0,nan,nan,nan,nan,nan,nan,nan,nan,nan,nan,nan,nan,nan,nan,nan,nan,nan,nan,1417.0625297215884,1832.1090827552252,nan,1832.4975444384618,nan,nan,nan,nan
1,259,1,1,1.0,1.0,0.49172897986136377,0,0.0,0.0,0.0,0.42250855347753263,0.1395479359581602,0.2829606175193724,0.5620564894356929,0.1395479359581602,0.38317128280565765,3,4,5,0,2,8,nan,nan,nan,nan,nan,nan,nan,nan,nan,nan,nan,nan,0.0,nan,nan,nan,nan,nan,nan,nan,nan,nan,nan,nan,nan,nan,nan,nan,nan,nan,nan,1417.0625297215884,1833.1258066889131,nan,1833.6175356687745,nan,nan,nan,nan
1,260,1,1,1.0,1.0,0.41888179432135075,0,0.0,0.0,0.0,0.4227821520007889,0.13933958276460198,0.28344256923618694,0.5621217347653908,0.13933958276460198,0.4330241524730809,0,2,6,5,8,1,nan,nan,nan,nan,nan,nan,nan,nan,nan,nan,nan,nan,0.0,nan,nan,nan,nan,nan,nan,nan,nan,nan,nan,nan,nan,nan,nan,nan,nan,nan,nan,1417.0625297215884,1834.1426389603294,nan,1834.5615207546507,nan,nan,nan,nan
1,261,1,1,1.0,1.0,0.5700728828669526,0,0.0,0.0,0.0,0.4227667962618935,0.1390652362369118,0.2837015600249817,0.5618320324988053,0.1390652362369118,0.4935612190165557,3,5,7,0,4,8,nan,nan,nan,nan,nan,nan,nan,nan,nan,nan,nan,nan,0.0,nan,nan,nan,nan,nan,nan,nan,nan,nan,nan,nan,nan,nan,nan,nan,nan,nan,nan,1417.0625297215884,1835.1594487088732,nan,1835.7295215917402,nan,nan,nan,nan
1,262,1,1,1.0,1.0,0.3852665736922063,0,0.0,0.0,0.0,0.42334446718975643,0.13909730732557798,0.2842471598641785,0.5624417745153344,0.13909730732557798,0.4580737502935032,4,6,5,2,0,1,nan,nan,nan,nan,nan,nan,nan,nan,nan,nan,nan,nan,0.0,nan,nan,nan,nan,nan,nan,nan,nan,nan,nan,nan,nan,nan,nan,nan,nan,nan,nan,1417.0625297215884,1836.1762453428819,nan,1836.561511916574,nan,nan,nan,nan
1,263,1,1,1.0,1.0,0.2564190140692517,0,0.0,0.0,0.0,0.42319572541828165,0.13884568481423368,0.284350040604048,0.5620414102325153,0.13884568481423368,0.4039194902094702,2,5,0,3,8,7,nan,nan,nan,nan,nan,nan,nan,nan,nan,nan,nan,nan,0.0,nan,nan,nan,nan,nan,nan,nan,nan,nan,nan,nan,nan,nan,nan,nan,nan,nan,nan,1417.0625297215884,1837.1930664954707,nan,1837.44948550954,nan,nan,nan,nan
1,264,1,1,1.0,1.0,0.3916051897103898,0,0.0,0.0,0.0,0.42254678879824653,0.13896373063419398,0.28358305816405255,0.5615105194324406,0.13896373063419398,0.3444302591572826,3,1,8,2,5,4,nan,nan,nan,nan,nan,nan,nan,nan,nan,nan,nan,nan,0.0,nan,nan,nan,nan,nan,nan,nan,nan,nan,nan,nan,nan,nan,nan,nan,nan,nan,nan,1417.0625297215884,1838.2098702569492,nan,1838.6014754466596,nan,nan,nan,nan
1,265,1,1,1.0,1.0,0.2868006367934868,0,0.0,0.0,0.0,0.4224268601196114,0.13870748470405247,0.2837193754155589,0.5611343448236639,0.13870748470405247,0.31160828019104275,7,8,0,6,1,5,nan,nan,nan,nan,nan,nan,nan,nan,nan,nan,nan,nan,0.0,nan,nan,nan,nan,nan,nan,nan,nan,nan,nan,nan,nan,nan,nan,nan,nan,nan,nan,1417.0625297215884,1839.2266566273756,nan,1839.5134572641691,nan,nan,nan,nan
1,266,1,1,1.0,1.0,0.3419987409724854,0,0.0,0.0,0.0,0.4219032067476959,0.13869473103624705,0.2832084757114488,0.560597937783943,0.13869473103624705,0.340134855825454,5,0,3,1,6,8,nan,nan,nan,nan,nan,nan,nan,nan,nan,nan,nan,nan,0.0,nan,nan,nan,nan,nan,nan,nan,nan,nan,nan,nan,nan,nan,nan,nan,nan,nan,nan,1417.0625297215884,1840.2434629547643,nan,1840.5854616957367,nan,nan,nan,nan
1,267,1,1,1.0,1.0,0.34117309300927445,0,0.0,0.0,0.0,0.42159588187932967,0.13851608247476555,0.2830797994045641,0.5601119643540953,0.13851608247476555,0.3233241569250822,1,3,4,5,2,0,nan,nan,nan,nan,nan,nan,nan,nan,nan,nan,nan,nan,0.0,nan,nan,nan,nan,nan,nan,nan,nan,nan,nan,nan,nan,nan,nan,nan,nan,nan,nan,1417.0625297215884,1841.2602635801304,nan,1841.6014366731397,nan,nan,nan,nan
1,268,0,0,1.0,0.0,0.3003576857736334,0,0.0,0.0,0.0,0.4212877485886398,0.13833972248244414,0.2829480261061957,0.559627471071084,0.13833972248244414,0.32784317325179774,8,4,5,2,1,6,nan,nan,nan,nan,nan,nan,nan,nan,nan,nan,nan,nan,0.0,nan,nan,nan,nan,nan,nan,nan,nan,nan,nan,nan,nan,nan,nan,nan,nan,nan,nan,1417.0625297215884,1842.2770710479235,nan,1842.5774287336972,nan,nan,nan,nan
1,269,1,1,1.0,1.0,0.32351887988625094,0,0.0,0.0,0.0,0.4208261834633917,0.13827667024755091,0.28254951321584076,0.5591028537109426,0.13827667024755091,0.3216832195563863,0,5,2,1,8,7,nan,nan,nan,nan,nan,nan,nan,nan,nan,nan,nan,nan,0.0,nan,nan,nan,nan,nan,nan,nan,nan,nan,nan,nan,nan,nan,nan,nan,nan,nan,nan,1417.0625297215884,1843.2938636905164,nan,1843.6173825704027,nan,nan,nan,nan
1,270,1,1,1.0,1.0,0.2827348335413262,0,0.0,0.0,0.0,0.4204561937159501,0.138143411220403,0.28231278249554714,0.5585996049363531,0.138143411220403,0.30220379973373684,7,1,8,0,2,3,nan,nan,nan,nan,nan,nan,nan,nan,nan,nan,nan,nan,0.0,nan,nan,nan,nan,nan,nan,nan,nan,nan,nan,nan,nan,nan,nan,nan,nan,nan,nan,1417.0625297215884,1844.310674294422,nan,1844.5934091279632,nan,nan,nan,nan
1,271,1,1,1.0,1.0,0.5296021608519368,0,0.0,0.0,0.0,0.41993452189710684,0.13814082996393784,0.281793691933169,0.5580753518610446,0.13814082996393784,0.378618624759838,4,3,2,5,1,6,nan,nan,nan,nan,nan,nan,nan,nan,nan,nan,nan,nan,0.0,nan,nan,nan,nan,nan,nan,nan,nan,nan,nan,nan,nan,nan,nan,nan,nan,nan,nan,1417.0625297215884,1845.335786138894,nan,1845.865388299746,nan,nan,nan,nan
1,272,1,1,1.0,1.0,0.5047996491775848,0,0.0,0.0,0.0,0.4203483620441062,0.13804380322840729,0.28230455881569894,0.5583921652725135,0.13804380322840729,0.43904554785694927,6,1,0,7,5,8,nan,nan,nan,nan,nan,nan,nan,nan,nan,nan,nan,nan,0.0,nan,nan,nan,nan,nan,nan,nan,nan,nan,nan,nan,nan,nan,nan,nan,nan,nan,nan,1417.0625297215884,1846.3525773560395,nan,1846.8573770052171,nan,nan,nan,nan
1,273,1,1,1.0,1.0,0.47995551308849826,0,0.0,0.0,0.0,0.42066584808596136,0.1378809757548737,0.2827848723310876,0.5585468238408351,0.1378809757548737,0.5047857743726732,1,2,5,0,3,4,nan,nan,nan,nan,nan,nan,nan,nan,nan,nan,nan,nan,0.0,nan,nan,nan,nan,nan,nan,nan,nan,nan,nan,nan,nan,nan,nan,nan,nan,nan,nan,1417.0625297215884,1847.3694178953301,nan,1847.8493734084186,nan,nan,nan,nan
