block,trial,time,setsize,freqtrials,trials_colorind,trials_colordeg,colorrgb0,colorrgb1,colorrgb2,correct_response,actual_response,acc,rts,probe_trials,rt_triggered_fast,rt_triggered_slow,rt_strailingavg,rts_runningavg,rts_runningstd,rts_runningslowthresh,rts_runningfastthresh,wm_respdeg,wm_respind,wm_resprgb0,wm_resprgb1,wm_resprgb2,wm_respcolorminusorigcolor,wm_rts,time_blockstart,time_encarray_onset,time_response,time_encarray_offest,time_memprobe_onset,time_memprobe_offset
0,0,4207,6,1,440,309,0.258699398066,0.424657399123,-1.0,1,1.0,1.0,0.328447801992,0,nan,nan,nan,nan,nan,nan,nan,nan,nan,0.0,0.0,0.0,nan,nan,284.295652999,285.319203789,285.647651591,285.819241137,nan,nan
0,1,4208,6,1,87,61,1.0,-0.220959007447,-0.612675615602,1,1.0,1.0,0.271915469319,0,nan,nan,nan,nan,nan,nan,nan,nan,nan,0.0,0.0,0.0,nan,nan,284.295652999,286.327715956,286.599631425,286.827709683,nan,nan
0,2,4209,6,1,166,116,1.0,-0.20036215083,0.21267421211,1,1.0,1.0,0.367797859013,0,nan,nan,nan,nan,nan,nan,nan,nan,nan,0.0,0.0,0.0,nan,nan,284.295652999,287.327812889,287.695610748,287.827828569,nan,nan
0,3,4210,6,0,310,217,-0.032854544558,0.417080732083,0.468828018046,0,0.0,1.0,0.319623739459,0,nan,nan,nan,nan,nan,nan,nan,nan,nan,0.0,0.0,0.0,nan,nan,284.295652999,288.32796399,288.64758773,288.82799079,nan,nan
0,4,4211,6,1,265,186,0.384259149088,0.291568309415,0.649478858709,1,1.0,1.0,0.455510484986,0,nan,nan,nan,nan,nan,nan,nan,nan,nan,0.0,0.0,0.0,nan,nan,284.295652999,289.328060068,289.783570553,289.82809371,nan,nan
0,5,4212,6,1,82,57,1.0,-0.198479155091,-0.679872484948,1,1.0,1.0,0.367373918183,0,nan,nan,nan,nan,nan,nan,nan,nan,nan,0.0,0.0,0.0,nan,nan,284.295652999,290.328186367,290.695560285,290.828253365,nan,nan
0,6,4213,6,1,455,319,0.375608248681,0.394875365091,-1.0,1,1.0,1.0,0.399181141518,0,nan,nan,nan,nan,nan,nan,nan,nan,nan,0.0,0.0,0.0,nan,nan,284.295652999,291.328349728,291.72753087,291.828360276,nan,nan
0,7,4214,6,0,388,272,-0.0739633693698,0.476941921698,-0.268577162136,0,0.0,1.0,0.383045461029,0,nan,nan,nan,nan,nan,nan,nan,nan,nan,0.0,0.0,0.0,nan,nan,284.295652999,292.328475171,292.711520632,292.828497124,nan,nan
0,8,4215,6,1,219,153,0.871627318206,0.0840881726889,0.576959667802,1,1.0,1.0,0.446927330457,0,nan,nan,nan,nan,nan,nan,nan,nan,nan,0.0,0.0,0.0,nan,nan,284.295652999,293.328567257,293.775494588,293.828621712,nan,nan
0,9,4216,6,1,3,2,0.871087178923,0.199335109687,-1.0,1,1.0,1.0,0.374758807011,0,nan,nan,nan,nan,nan,nan,nan,nan,nan,0.0,0.0,0.0,nan,nan,284.295652999,294.328695836,294.703454643,294.82872121,nan,nan
0,10,4221,6,1,375,263,-0.128556699755,0.478682433309,-0.121605159467,1,1.0,1.0,0.294613532722,1,nan,nan,nan,nan,nan,nan,nan,-153.21287327,346.0,-0.174317561957,0.466431294057,0.176670174816,-20.4590017298,2.60066946596,284.295652999,295.328845228,295.623458761,295.828845228,297.162341258,299.771026249
0,11,4222,6,1,186,130,1.0,-0.0967386681424,0.377881386018,1,1.0,1.0,0.595797714777,0,nan,nan,nan,nan,nan,nan,nan,nan,nan,0.0,0.0,0.0,nan,nan,284.295652999,300.979550788,301.575348503,301.47960125,nan,nan
0,12,4223,6,1,506,355,0.797774742377,0.236703125255,-1.0,1,1.0,1.0,0.307683272287,0,nan,nan,nan,nan,nan,nan,nan,nan,nan,0.0,0.0,0.0,nan,nan,284.295652999,301.979667963,302.287351236,302.479685069,nan,nan
0,13,4224,6,1,350,246,-0.175756816429,0.469490941964,0.138247479403,1,1.0,1.0,0.307544144802,0,nan,nan,nan,nan,nan,nan,nan,nan,nan,0.0,0.0,0.0,nan,nan,284.295652999,302.979795687,303.287339832,303.479834461,nan,nan
0,14,4225,6,1,52,36,1.0,-0.0438860552364,-1.0,1,1.0,1.0,0.315392603166,0,nan,nan,nan,nan,nan,nan,nan,nan,nan,0.0,0.0,0.0,nan,nan,284.295652999,303.979925121,304.295317724,304.479959903,nan,nan
0,15,4226,6,1,358,251,-0.170583909915,0.474268316859,0.0585874414746,1,1.0,1.0,0.283240695484,0,nan,nan,nan,nan,nan,nan,nan,nan,nan,0.0,0.0,0.0,nan,nan,284.295652999,304.980049424,305.263290119,305.480085347,nan,nan
0,16,4227,6,1,176,123,1.0,-0.150429669724,0.298675466069,1,1.0,1.0,0.307105093263,0,nan,nan,nan,nan,nan,nan,nan,nan,nan,0.0,0.0,0.0,nan,nan,284.295652999,305.980179429,306.287284522,306.480229036,nan,nan
0,17,4228,6,1,128,90,1.0,-0.310663006781,-0.156689791083,1,1.0,1.0,0.458945058286,0,nan,nan,nan,nan,nan,nan,nan,nan,nan,0.0,0.0,0.0,nan,nan,284.295652999,306.980308007,307.439253066,307.480318842,nan,nan
0,18,4229,6,1,425,298,0.149162615564,0.447529597292,-0.791715667876,1,1.0,1.0,0.32279431168,0,nan,nan,nan,nan,nan,nan,nan,nan,nan,0.0,0.0,0.0,nan,nan,284.295652999,307.980430885,308.303225197,308.48045854,nan,nan
0,19,4234,6,1,198,139,1.0,-0.0302354974571,0.462326941081,1,1.0,1.0,0.346652437933,1,nan,nan,nan,nan,nan,nan,nan,-18.3545901386,154.0,1.0,-0.251813147593,0.102138173725,-30.8641598614,2.07556802873,284.295652999,308.980573434,309.327225872,309.480578566,310.814080012,312.897686373
0,20,4235,6,0,418,293,0.101175887384,0.455961754156,-0.661679309199,0,0.0,1.0,0.525226595812,0,nan,nan,nan,nan,nan,nan,nan,nan,nan,0.0,0.0,0.0,nan,nan,284.295652999,314.097894609,314.623121205,314.597944216,nan,nan
0,21,4236,6,1,248,174,0.568115903494,0.223728204869,0.653295769881,1,1.0,1.0,0.341138646938,0,nan,nan,nan,nan,nan,nan,nan,nan,nan,0.0,0.0,0.0,nan,nan,284.295652999,315.097979568,315.439118215,315.598047136,nan,nan
0,22,4237,6,1,166,116,1.0,-0.20036215083,0.21267421211,1,1.0,1.0,0.388956394047,0,nan,nan,nan,nan,nan,nan,nan,nan,nan,0.0,0.0,0.0,nan,nan,284.295652999,316.098133806,316.4870902,316.598171724,nan,nan
0,23,4238,6,1,102,71,1.0,-0.276610342793,-0.434926949461,1,1.0,1.0,0.340821618214,0,nan,nan,nan,nan,nan,nan,nan,nan,nan,0.0,0.0,0.0,nan,nan,284.295652999,317.098256683,317.439078301,317.598282628,nan,nan
0,24,4239,6,1,6,4,0.895129075663,0.186272780825,-1.0,1,1.0,1.0,0.292639800347,0,nan,nan,nan,nan,nan,nan,nan,nan,nan,0.0,0.0,0.0,nan,nan,284.295652999,318.098410066,318.391049867,318.598404935,nan,nan
0,25,4240,6,1,369,259,-0.147694689129,0.477999187239,-0.0564338676883,1,1.0,1.0,0.292524621822,0,nan,nan,nan,nan,nan,nan,nan,nan,nan,0.0,0.0,0.0,nan,nan,284.295652999,319.098516977,319.391041599,319.598533228,nan,nan
0,26,4241,6,1,510,358,0.830554458933,0.220436700166,-1.0,1,1.0,1.0,0.388385058381,0,nan,nan,nan,nan,nan,nan,nan,nan,nan,0.0,0.0,0.0,nan,nan,284.295652999,320.098634153,320.487019211,320.598664658,nan,nan
0,27,4242,6,1,168,118,1.0,-0.190790017254,0.230361799274,1,1.0,1.0,0.332235896029,0,nan,nan,nan,nan,nan,nan,nan,nan,nan,0.0,0.0,0.0,nan,nan,284.295652999,321.09875475,321.430990646,321.59878668,nan,nan
0,28,4243,6,1,251,176,0.535576518695,0.236509187076,0.655284151108,1,1.0,1.0,0.372075751424,0,nan,nan,nan,nan,nan,nan,nan,nan,nan,0.0,0.0,0.0,nan,nan,284.295652999,322.098889031,322.470964782,322.598921532,nan,nan
0,29,4244,6,1,428,300,0.170378320166,0.443486568519,-0.86866140055,1,1.0,1.0,0.355924960226,0,nan,nan,nan,nan,nan,nan,nan,nan,nan,0.0,0.0,0.0,nan,nan,284.295652999,323.099034715,323.454959676,323.599042698,nan,nan
0,30,4245,6,0,304,213,0.0113092810281,0.404708921832,0.506160370659,0,0.0,1.0,0.451785681769,0,nan,nan,nan,nan,nan,nan,nan,nan,nan,0.0,0.0,0.0,nan,nan,284.295652999,324.099166431,324.550952112,324.599199502,nan,nan
0,31,4246,6,1,451,317,0.343830962376,0.403518361206,-1.0,1,1.0,1.0,0.403656607494,0,nan,nan,nan,nan,nan,nan,nan,nan,nan,0.0,0.0,0.0,nan,nan,284.295652999,325.099281325,325.502937932,325.599320669,nan,nan
0,32,4247,6,0,370,260,-0.144805996584,0.478178727438,-0.0671803333712,0,0.0,1.0,0.451507710852,0,nan,nan,nan,nan,nan,nan,nan,nan,nan,0.0,0.0,0.0,nan,nan,284.295652999,326.099409334,326.550917045,326.599448677,nan,nan
0,33,4248,6,1,440,309,0.258699398066,0.424657399123,-1.0,1,1.0,1.0,0.443354198709,0,nan,nan,nan,nan,nan,nan,nan,nan,nan,0.0,0.0,0.0,nan,nan,284.295652999,327.09953107,327.542885269,327.599571555,nan,nan
0,34,4249,6,1,100,70,1.0,-0.270427092546,-0.457439896749,1,1.0,1.0,0.403206152841,0,nan,nan,nan,nan,nan,nan,nan,nan,nan,0.0,0.0,0.0,nan,nan,284.295652999,328.09967533,328.502881483,328.599695572,nan,nan
0,35,4250,6,1,404,284,0.0124894593597,0.468746268022,-0.463349101315,1,1.0,1.0,0.323085111566,0,nan,nan,nan,nan,nan,nan,nan,nan,nan,0.0,0.0,0.0,nan,nan,284.295652999,329.099792791,329.422877902,329.599823296,nan,nan
0,36,4251,6,1,180,126,1.0,-0.129278616986,0.331238955499,1,1.0,1.0,0.29894160293,0,nan,nan,nan,nan,nan,nan,nan,nan,nan,0.0,0.0,0.0,nan,nan,284.295652999,330.099918518,330.398860121,330.599958432,nan,nan
0,37,4252,6,1,63,44,1.0,-0.102744642793,-1.0,1,1.0,1.0,0.298790786415,0,nan,nan,nan,nan,nan,nan,nan,nan,nan,0.0,0.0,0.0,nan,nan,284.295652999,331.100042821,331.398833607,331.600083306,nan,nan
0,38,4253,6,1,301,211,0.0351599448551,0.39804275895,0.523414514543,1,1.0,1.0,0.305322662927,0,nan,nan,nan,nan,nan,nan,nan,nan,nan,0.0,0.0,0.0,nan,nan,284.295652999,332.133517867,332.43884053,332.633548657,nan,nan
0,39,4254,6,1,435,305,0.221263830514,0.433027056876,-1.0,1,1.0,1.0,0.337154689245,0,nan,nan,nan,nan,nan,nan,nan,nan,nan,0.0,0.0,0.0,nan,nan,284.295652999,333.133638179,333.470792868,333.63365785,nan,nan
0,40,4255,6,1,183,128,1.0,-0.113108999915,0.354902835149,1,1.0,1.0,0.360987441614,0,nan,nan,nan,nan,nan,nan,nan,nan,nan,0.0,0.0,0.0,nan,nan,284.295652999,334.133777591,334.494765033,334.63378757,nan,nan
0,41,4256,6,1,34,23,1.0,0.0514419701458,-1.0,1,1.0,1.0,0.328841237351,0,nan,nan,nan,nan,nan,nan,nan,nan,nan,0.0,0.0,0.0,nan,nan,284.295652999,335.133907596,335.462748833,335.633929264,nan,nan
0,42,4257,6,1,398,279,-0.0220377755791,0.472608796233,-0.387943383198,1,1.0,1.0,0.304715404287,0,nan,nan,nan,nan,nan,nan,nan,nan,nan,0.0,0.0,0.0,nan,nan,284.295652999,336.134018213,336.438733618,336.634059838,nan,nan
0,43,4258,6,1,491,345,0.673033477965,0.292707709811,-1.0,1,1.0,1.0,0.360559795052,0,nan,nan,nan,nan,nan,nan,nan,nan,nan,0.0,0.0,0.0,nan,nan,284.295652999,337.134144227,337.494704022,337.634185567,nan,nan
0,44,4259,6,1,42,29,1.0,0.00954878589686,-1.0,1,1.0,1.0,0.28842719458,0,nan,nan,nan,nan,nan,nan,nan,nan,nan,0.0,0.0,0.0,nan,nan,284.295652999,338.134272521,338.422699716,338.634296469,nan,nan
0,45,4300,6,1,110,77,1.0,-0.296722754836,-0.346921960777,1,1.0,1.0,0.368347812444,0,nan,nan,nan,nan,nan,nan,nan,nan,nan,0.0,0.0,0.0,nan,nan,284.295652999,339.13439882,339.502746632,339.634421912,nan,nan
0,46,4301,6,1,422,296,0.128328379107,0.451313674078,-0.730894888444,1,1.0,1.0,0.320128647611,0,nan,nan,nan,nan,nan,nan,nan,nan,nan,0.0,0.0,0.0,nan,nan,284.295652999,340.134520556,340.454649203,340.634550491,nan,nan
0,47,4302,6,1,208,146,0.97651257568,0.025020743352,0.522574479073,1,1.0,1.0,0.4479933111,0,nan,nan,nan,nan,nan,nan,nan,nan,nan,0.0,0.0,0.0,nan,nan,284.295652999,341.134656548,341.582649859,341.634673083,nan,nan
0,48,4303,6,1,346,243,-0.174317561957,0.466431294057,0.176670174816,1,1.0,1.0,0.343844224699,0,nan,nan,nan,nan,nan,nan,nan,nan,nan,0.0,0.0,0.0,nan,nan,284.295652999,342.134776004,342.478620228,342.634804513,nan,nan
0,49,4304,6,1,158,111,1.0,-0.235949227405,0.139764106,1,1.0,1.0,0.367716035806,0,nan,nan,nan,nan,nan,nan,nan,nan,nan,0.0,0.0,0.0,nan,nan,284.295652999,343.134904583,343.502620619,343.634930527,nan,nan
0,50,4305,6,1,413,290,0.0683106243366,0.461143133648,-0.585495598612,1,1.0,1.0,0.335550159216,0,nan,nan,nan,nan,nan,nan,nan,nan,nan,0.0,0.0,0.0,nan,nan,284.295652999,344.135034302,344.470584461,344.635058821,nan,nan
0,51,4306,6,1,315,221,-0.0657111424032,0.426434809442,0.434956515233,1,1.0,1.0,0.30340965651,0,nan,nan,nan,nan,nan,nan,nan,nan,nan,0.0,0.0,0.0,nan,nan,284.295652999,345.135160886,345.438570542,345.63518626,nan,nan
0,52,4307,6,1,407,286,0.0305886347219,0.46645515455,-0.502577406972,1,1.0,1.0,0.351272447966,0,nan,nan,nan,nan,nan,nan,nan,nan,nan,0.0,0.0,0.0,nan,nan,284.295652999,346.135290891,346.486563339,346.635313698,nan,nan
0,53,4308,6,1,217,152,0.891250405156,0.0735373331823,0.568048345461,1,1.0,1.0,0.367114194669,0,nan,nan,nan,nan,nan,nan,nan,nan,nan,0.0,0.0,0.0,nan,nan,284.295652999,347.135433439,347.502547634,347.63546195,nan,nan
0,54,4309,6,1,144,101,1.0,-0.284423189345,0.00519445478499,1,1.0,1.0,0.342974961735,0,nan,nan,nan,nan,nan,nan,nan,nan,nan,0.0,0.0,0.0,nan,nan,284.295652999,348.135547764,348.478522725,348.635570857,nan,nan
0,55,4310,6,1,39,27,1.0,0.0253789930673,-1.0,1,1.0,1.0,0.293465728872,0,nan,nan,nan,nan,nan,nan,nan,nan,nan,0.0,0.0,0.0,nan,nan,284.295652999,349.169027086,349.462492815,349.669028226,nan,nan
0,56,4311,6,1,109,76,1.0,-0.294638327523,-0.357773695079,1,1.0,1.0,0.277364259586,0,nan,nan,nan,nan,nan,nan,nan,nan,nan,0.0,0.0,0.0,nan,nan,284.295652999,350.169137704,350.446501964,350.669157661,nan,nan
0,57,4312,6,0,53,37,1.0,-0.049257555853,-1.0,0,1.0,0.0,0.269217018969,0,0.0,0.0,nan,nan,nan,nan,nan,nan,nan,0.0,0.0,0.0,nan,nan,284.295652999,351.169283104,351.438500123,351.669316745,nan,nan
0,58,4313,6,1,269,189,0.34171296506,0.305888347675,0.643262349404,1,1.0,1.0,0.333062110469,0,nan,nan,nan,nan,nan,nan,nan,nan,nan,0.0,0.0,0.0,nan,nan,284.295652999,352.169370344,352.502432454,352.669409403,nan,nan
0,59,4318,6,1,452,317,0.351738073422,0.401406211611,-1.0,1,1.0,1.0,0.30143620912,1,nan,nan,nan,nan,nan,nan,nan,151.267418076,425.0,0.149162615564,0.447529597292,-0.791715667876,-19.079918076,1.60885234457,284.295652999,353.184990568,353.486426777,353.686207936,355.011373407,356.6282504
0,60,4319,6,1,156,109,1.0,-0.244060613314,0.121041471254,1,nan,nan,nan,0,nan,nan,nan,nan,nan,nan,nan,nan,nan,0.0,0.0,0.0,nan,nan,284.295652999,357.84511462,nan,358.34517449,nan,nan
0,61,4320,6,1,38,26,1.0,0.0306259494545,-1.0,1,1.0,1.0,0.441092518158,0,nan,nan,nan,nan,nan,nan,nan,nan,nan,0.0,0.0,0.0,nan,nan,284.295652999,358.845237212,359.28632973,359.345289385,nan,nan
0,62,4321,6,1,487,342,0.639529740128,0.306295026098,-1.0,1,1.0,1.0,0.312948743813,0,nan,nan,nan,nan,nan,nan,nan,nan,nan,0.0,0.0,0.0,nan,nan,284.295652999,359.845364081,360.158312825,360.345388029,nan,nan
0,63,4322,6,1,237,166,0.686387300223,0.174031846447,0.636349816437,1,1.0,1.0,0.288822910748,0,nan,nan,nan,nan,nan,nan,nan,nan,nan,0.0,0.0,0.0,nan,nan,284.295652999,360.845487243,361.134310154,361.345526301,nan,nan
0,64,4323,6,1,187,131,1.0,-0.0912463489427,0.385383214542,1,1.0,1.0,0.288660120219,0,nan,nan,nan,nan,nan,nan,nan,nan,nan,0.0,0.0,0.0,nan,nan,284.295652999,361.84562409,362.13428421,362.345651174,nan,nan
0,65,4324,6,1,115,80,1.0,-0.305166285737,-0.293172749504,1,1.0,1.0,0.344522473402,0,nan,nan,nan,nan,nan,nan,nan,nan,nan,0.0,0.0,0.0,nan,nan,284.295652999,362.845744971,363.190267445,363.345767494,nan,nan
0,66,4325,6,1,398,279,-0.0220377755791,0.472608796233,-0.387943383198,1,1.0,1.0,0.264385180548,0,nan,nan,nan,nan,nan,nan,nan,nan,nan,0.0,0.0,0.0,nan,nan,284.295652999,363.84585559,364.110240771,364.345896929,nan,nan
0,67,4326,6,1,337,236,-0.160643365934,0.457858386897,0.259303564052,1,1.0,1.0,0.304248413071,0,nan,nan,nan,nan,nan,nan,nan,nan,nan,0.0,0.0,0.0,nan,nan,284.295652999,364.845998709,365.150247122,365.3460295,nan,nan
0,68,4327,6,1,135,94,1.0,-0.303502321856,-0.0849788702499,1,1.0,1.0,0.28802891355,0,nan,nan,nan,nan,nan,nan,nan,nan,nan,0.0,0.0,0.0,nan,nan,284.295652999,365.846193145,366.134222059,366.346155797,nan,nan
0,69,4328,6,1,82,57,1.0,-0.198479155091,-0.679872484948,1,nan,nan,nan,0,nan,nan,nan,nan,nan,nan,nan,nan,nan,0.0,0.0,0.0,nan,nan,284.295652999,366.846240186,nan,367.346330563,nan,nan
0,70,4329,6,1,379,266,-0.113535935895,0.478614986251,-0.165970515924,1,1.0,1.0,0.303780567832,0,nan,nan,nan,nan,nan,nan,nan,nan,nan,0.0,0.0,0.0,nan,nan,284.295652999,367.846375608,368.150156176,368.346426926,nan,nan
0,71,4330,6,1,235,165,0.707591924495,0.164537776567,0.631659631194,1,1.0,1.0,0.327640404925,0,nan,nan,nan,nan,nan,nan,nan,nan,nan,0.0,0.0,0.0,nan,nan,284.295652999,368.846520723,369.174161128,369.346558926,nan,nan
0,72,4331,6,0,180,126,1.0,-0.129278616986,0.331238955499,0,0.0,1.0,0.367488812655,0,nan,nan,nan,nan,nan,nan,nan,nan,nan,0.0,0.0,0.0,nan,nan,284.295652999,369.846646165,370.214134978,370.346688075,nan,nan
0,73,4339,6,1,36,25,1.0,0.0410699577143,-1.0,1,1.0,1.0,0.31138156075,1,nan,nan,nan,nan,nan,nan,nan,-149.598372702,341.0,-0.168535884224,0.46196150489,0.223260112086,-145.714127298,4.69257531129,284.295652999,370.846753078,371.158134638,371.346792421,372.680299569,377.380910933
0,74,4340,6,1,356,250,-0.17284377641,0.473239407326,0.0788368070227,1,1.0,1.0,0.504565271549,0,nan,nan,nan,nan,nan,nan,nan,nan,nan,0.0,0.0,0.0,nan,nan,284.295652999,378.589421787,379.093987059,379.089484794,nan,nan
0,75,4341,6,1,199,139,1.0,-0.0246761787097,0.468786302982,1,1.0,1.0,0.68839948345,0,nan,nan,nan,nan,nan,nan,nan,nan,nan,0.0,0.0,0.0,nan,nan,284.295652999,379.58954666,380.277946143,380.089610807,nan,nan
0,76,4342,6,1,27,18,1.0,0.0870912575778,-1.0,1,1.0,1.0,0.416277603246,0,nan,nan,nan,nan,nan,nan,nan,nan,nan,0.0,0.0,0.0,nan,nan,284.295652999,380.589678945,381.005956548,381.089716863,nan,nan
0,77,4343,6,1,263,184,0.405698801511,0.284171736334,0.651829885785,1,1.0,1.0,0.328114807606,0,nan,nan,nan,nan,nan,nan,nan,nan,nan,0.0,0.0,0.0,nan,nan,284.295652999,381.589819213,381.917934021,382.089833183,nan,nan
0,78,4344,6,0,504,354,0.78128615449,0.244628286196,-1.0,0,0.0,1.0,0.319982392713,0,nan,nan,nan,nan,nan,nan,nan,nan,nan,0.0,0.0,0.0,nan,nan,284.295652999,382.58994209,382.909924483,383.089977442,nan,nan
0,79,4345,6,1,285,200,0.178734351563,0.356878681702,0.598527012995,1,1.0,1.0,0.279860005714,0,nan,nan,nan,nan,nan,nan,nan,nan,nan,0.0,0.0,0.0,nan,nan,284.295652999,383.590035602,383.869895608,384.090082929,nan,nan
0,80,4346,6,1,41,28,1.0,0.0148395037771,-1.0,1,1.0,1.0,0.271704782732,0,0.0,0.0,0.290515727053,0.354457864884,0.0738120991162,0.428269964,0.280645765768,nan,nan,0.0,0.0,0.0,nan,nan,284.295652999,384.5901887,384.861893483,385.090220346,nan,nan
0,81,4347,6,1,169,118,1.0,-0.185917379452,0.239118302078,1,1.0,1.0,0.311528386548,0,0.0,0.0,0.287697724998,0.353410357515,0.0739246121522,0.427334969667,0.279485745363,nan,nan,0.0,0.0,0.0,nan,nan,284.295652999,385.590316994,385.901845381,386.090332675,nan,nan
0,82,4348,6,1,380,267,-0.109519508899,0.478533032186,-0.177177385375,1,1.0,1.0,0.381387331523,0,0.0,0.0,0.321540166934,0.352886832878,0.0736083544439,0.426495187322,0.279278478434,nan,nan,0.0,0.0,0.0,nan,nan,284.295652999,386.640460284,387.021847616,387.140471119,nan,nan
0,83,4349,6,1,213,149,0.929785093221,0.0521668813814,0.548906519778,1,1.0,1.0,0.333250274882,0,0.0,0.0,0.342055330984,0.353238690886,0.0732202358362,0.426458926722,0.28001845505,nan,nan,0.0,0.0,0.0,nan,nan,284.295652999,387.64058088,387.973831155,388.140602263,nan,nan
0,84,4350,6,1,14,9,0.95801504718,0.150023555696,-1.0,1,1.0,1.0,0.451115416363,0,0.0,0.0,0.388584340923,0.352994929715,0.0728054626555,0.425800392371,0.28018946706,nan,nan,0.0,0.0,0.0,nan,nan,284.295652999,388.690684257,389.141799673,389.190734434,nan,nan
0,85,4351,6,1,343,241,-0.171388175652,0.463836419185,0.204822810802,1,1.0,1.0,0.354976724833,0,0.0,0.0,0.379780805359,0.354177104253,0.0731530609051,0.427330165158,0.281024043348,nan,nan,0.0,0.0,0.0,nan,nan,284.295652999,389.690810841,390.045787565,390.190865864,nan,nan
0,86,4352,6,1,101,71,1.0,-0.273572672894,-0.446152610616,1,1.0,1.0,0.402817564085,0,0.0,0.0,0.40296990176,0.354186623546,0.0727163740259,0.426902997572,0.28147024952,nan,nan,0.0,0.0,0.0,nan,nan,284.295652999,390.690962798,391.093780362,391.190980759,nan,nan
0,87,4353,6,1,184,129,1.0,-0.107671891867,0.362640045218,1,1.0,1.0,0.354676515795,0,0.0,0.0,0.370823601571,0.354758752258,0.0724772997764,0.427236052034,0.282281452482,nan,nan,0.0,0.0,0.0,nan,nan,284.295652999,391.691072561,392.045749077,392.191114755,nan,nan
0,88,4354,6,1,356,250,-0.17284377641,0.473239407326,0.0788368070227,1,1.0,1.0,0.282500010915,0,0.0,0.0,0.346664696932,0.35475779602,0.0720546885511,0.426812484571,0.282703107469,nan,nan,0.0,0.0,0.0,nan,nan,284.295652999,392.69124476,392.973744771,393.191233071,nan,nan
0,89,4355,6,1,235,165,0.707591924495,0.164537776567,0.631659631194,1,1.0,1.0,0.273010815494,0,0.0,0.0,0.303395780735,0.353927246766,0.0720522395168,0.425979486283,0.281875007249,nan,nan,0.0,0.0,0.0,nan,nan,284.295652999,393.724700704,393.99771152,394.22470327,nan,nan
0,90,4356,6,1,393,276,-0.0489456633786,0.475102171109,-0.327443230616,1,1.0,1.0,0.256879980676,0,1.0,0.0,0.270796935695,0.353007741865,0.0721532270968,0.425160968962,0.280854514768,nan,nan,0.0,0.0,0.0,nan,nan,284.295652999,394.724818164,394.981698145,395.224852091,nan,nan
0,91,4401,6,1,305,214,0.00361192545304,0.406859252708,0.500196907155,1,1.0,1.0,0.352744408883,1,0.0,0.0,0.294211735018,0.351927654661,0.0724586267061,0.424386281367,0.279469027955,-171.175215791,371.0,-0.14179360683,0.478331938097,-0.0779732583494,46.7220907909,2.42571405601,284.295652999,395.724939045,396.077683454,396.224990078,397.550148992,399.983798746
0,92,4402,6,1,498,350,0.731507943485,0.267561876527,-1.0,1,1.0,1.0,0.604921700433,0,0.0,0.0,0.404848696664,0.351936729708,0.0720550051977,0.423991734905,0.27988172451,nan,nan,0.0,0.0,0.0,nan,nan,284.295652999,401.200634171,401.805555872,401.700698033,nan,nan
0,93,4403,6,0,185,130,1.0,-0.102214474652,0.370299946716,0,0.0,1.0,0.492731716484,0,0.0,0.0,0.483465941933,0.354716784331,0.0763574030493,0.43107418738,0.278359381282,nan,nan,0.0,0.0,0.0,nan,nan,284.295652999,402.20082034,402.693552056,402.709147478,nan,nan
0,94,4404,6,1,278,195,0.248285521772,0.335802812283,0.621962573991,1,1.0,1.0,0.340653125197,0,0.0,0.0,0.479435514038,0.356216946637,0.0772778934963,0.433494840133,0.278939053141,nan,nan,0.0,0.0,0.0,nan,nan,284.295652999,403.200899312,403.541552437,403.700932954,nan,nan
0,95,4405,6,0,199,139,1.0,-0.0246761787097,0.468786302982,0,0.0,1.0,0.50048780255,0,0.0,0.0,0.444624214744,0.356049593718,0.0768780578638,0.432927651582,0.279171535855,nan,nan,0.0,0.0,0.0,nan,nan,284.295652999,404.201031882,404.701519685,404.701078353,nan,nan
0,96,4406,6,1,53,37,1.0,-0.049257555853,-1.0,1,1.0,1.0,0.356374844909,0,0.0,0.0,0.399171924219,0.357586170408,0.0778905658539,0.435476736262,0.279695604554,nan,nan,0.0,0.0,0.0,nan,nan,284.295652999,405.201144496,405.557519341,405.701186121,nan,nan
0,97,4407,6,1,168,118,1.0,-0.190790017254,0.230361799274,1,1.0,1.0,0.340216070414,0,0.0,0.0,0.399026239291,0.357573419613,0.0774796295996,0.435053049213,0.280093790014,nan,nan,0.0,0.0,0.0,nan,nan,284.295652999,406.201271079,406.54148715,406.701295883,nan,nan
0,98,4408,6,1,505,355,0.789537956352,0.240683140511,-1.0,1,1.0,1.0,0.316077692434,0,0.0,0.0,0.337556202585,0.357392613892,0.0770951775498,0.434487791442,0.280297436343,nan,nan,0.0,0.0,0.0,nan,nan,284.295652999,407.201399944,407.517477636,407.701425603,nan,nan
0,99,4409,6,1,217,152,0.891250405156,0.0735373331823,0.568048345461,1,1.0,1.0,0.323556093499,0,0.0,0.0,0.326616618782,0.356966686867,0.0768102025635,0.433776889431,0.280156484304,nan,nan,0.0,0.0,0.0,nan,nan,284.295652999,408.209892438,408.533448531,408.709886736,nan,nan
0,100,4410,6,1,506,355,0.797774742377,0.236703125255,-1.0,1,1.0,1.0,0.283484454267,0,0.0,0.0,0.307706080067,0.356625762445,0.0764910410515,0.433116803497,0.280134721393,nan,nan,0.0,0.0,0.0,nan,nan,284.295652999,409.209971695,409.493456149,409.710035557,nan,nan
0,101,4412,6,1,367,258,-0.15309091083,0.477560897992,-0.0350816338538,1,1.0,1.0,0.291313240305,0,0.0,0.0,0.29945126269,0.355886961352,0.0764543695349,0.432341330887,0.279432591817,nan,nan,0.0,0.0,0.0,nan,nan,284.295652999,410.210117095,410.501430335,410.710143609,nan,nan
0,102,4413,6,1,246,172,0.589768841079,0.215019897151,0.651339528662,1,1.0,1.0,0.339142106473,0,0.0,0.0,0.304646600348,0.355241224142,0.0763419844693,0.431583208611,0.278899239672,nan,nan,0.0,0.0,0.0,nan,nan,284.295652999,411.210252802,411.549394908,411.710274754,nan,nan
0,103,4414,6,1,457,321,0.391639248186,0.390358177281,-1.0,1,1.0,1.0,0.331001708284,0,0.0,0.0,0.320485685021,0.355081826937,0.0759798354377,0.431061662375,0.279101991499,nan,nan,0.0,0.0,0.0,nan,nan,284.295652999,412.210376249,412.541377957,412.710390504,nan,nan
0,104,4415,6,1,131,92,1.0,-0.308451667147,-0.125800503078,1,1.0,1.0,0.338868127204,0,0.0,0.0,0.336337313987,0.354845747343,0.0756436849869,0.430489432329,0.279202062356,nan,nan,0.0,0.0,0.0,nan,nan,284.295652999,413.210510815,413.549378943,413.710528491,nan,nan
0,105,4416,6,1,175,123,1.0,-0.155629953633,0.290361762956,1,1.0,1.0,0.298712669872,0,0.0,0.0,0.32286083512,0.354690624817,0.0752918881803,0.429982512997,0.279398736637,nan,nan,0.0,0.0,0.0,nan,nan,284.295652999,414.210625424,414.509338094,414.710650513,nan,nan
0,106,4416,6,1,16,11,0.973419431522,0.140652110383,-1.0,1,1.0,1.0,0.274579993449,0,0.0,0.0,0.304053596842,0.35415237525,0.0751278941067,0.429280269357,0.279024481143,nan,nan,0.0,0.0,0.0,nan,nan,284.295652999,415.210760561,415.485340554,415.710783369,nan,nan
0,107,4417,6,1,240,168,0.654373017221,0.188015059697,0.642463954019,1,1.0,1.0,0.298473472707,0,0.0,0.0,0.290588712009,0.353394543042,0.0751676418867,0.428562184929,0.278226901156,nan,nan,0.0,0.0,0.0,nan,nan,284.295652999,416.210892561,416.509366034,416.710908527,nan,nan
0,108,4418,6,1,398,279,-0.0220377755791,0.472608796233,-0.387943383198,1,1.0,1.0,0.346271262504,0,0.0,0.0,0.30644157622,0.352876419737,0.0750003885962,0.427876808334,0.277876031141,nan,nan,0.0,0.0,0.0,nan,nan,284.295652999,417.211017434,417.557288696,417.711055637,nan,nan
0,109,4419,6,1,5,3,0.88714030954,0.190659852496,-1.0,1,1.0,1.0,0.354193560779,0,0.0,0.0,0.332979431997,0.352814689296,0.0746518022554,0.427466491551,0.278162887041,nan,nan,0.0,0.0,0.0,nan,nan,284.295652999,418.2111386,418.565332161,418.711181365,nan,nan
0,110,4420,6,1,244,171,0.611372359265,0.206163547436,0.648880721676,1,1.0,1.0,0.369987410493,0,0.0,0.0,0.356817411259,0.352827456625,0.0743055056743,0.427132962299,0.27852195095,nan,nan,0.0,0.0,0.0,nan,nan,284.295652999,419.21126775,419.58125516,419.711321348,nan,nan
0,111,4422,6,1,317,222,-0.077772836126,0.429938605076,0.420733606481,1,1.0,1.0,0.353853724897,0,0.0,0.0,0.359344898723,0.352984887394,0.0739819619258,0.42696684932,0.279002925468,nan,nan,0.0,0.0,0.0,nan,nan,284.295652999,420.211390627,420.565244352,420.711420277,nan,nan
0,112,4423,6,1,371,260,-0.14179360683,0.478331938097,-0.0779732583494,1,1.0,1.0,0.385702572763,0,0.0,0.0,0.369847902718,0.352992785917,0.0736449586788,0.426637744596,0.279347827238,nan,nan,0.0,0.0,0.0,nan,nan,284.295652999,421.211526903,421.597229476,421.71154401,nan,nan
0,113,4424,6,1,219,153,0.871627318206,0.0840881726889,0.576959667802,1,1.0,1.0,0.39357583411,0,0.0,0.0,0.37771071059,0.353287468681,0.0733775921569,0.426665060838,0.279909876524,nan,nan,0.0,0.0,0.0,nan,nan,284.295652999,422.211643224,422.605219058,422.711673729,nan,nan
0,114,4425,6,1,20,14,1.0,0.121558187834,-1.0,1,1.0,1.0,0.409415298142,0,0.0,0.0,0.396231235005,0.35364718623,0.07314752366,0.42679470989,0.28049966257,nan,nan,0.0,0.0,0.0,nan,nan,284.295652999,423.211778645,423.621193944,423.711815422,nan,nan
0,115,4425,6,1,444,312,0.289241202529,0.417409780569,-1.0,1,1.0,1.0,0.4412789708,0,0.0,0.0,0.414756701017,0.354140709344,0.0730102007556,0.427150910099,0.281130508588,nan,nan,0.0,0.0,0.0,nan,nan,284.295652999,424.211905229,424.6531842,424.71195284,nan,nan
0,116,4426,6,1,91,63,1.0,-0.237709898716,-0.562722318432,1,1.0,1.0,0.369123278186,0,0.0,0.0,0.406605849043,0.354905080058,0.0731420016672,0.428047081726,0.281763078391,nan,nan,0.0,0.0,0.0,nan,nan,284.295652999,425.212032097,425.581155376,425.71206973,nan,nan
0,117,4427,6,0,167,117,1.0,-0.195605812978,0.221546716301,0,0.0,1.0,0.488960727118,0,0.0,0.0,0.433120992035,0.355028716564,0.0728352622297,0.427863978794,0.282193454334,nan,nan,0.0,0.0,0.0,nan,nan,284.295652999,426.212176356,426.701137084,426.720542267,nan,nan
0,118,4429,6,1,76,53,1.0,-0.169674511773,-0.773365826749,1,1.0,1.0,0.390817227773,0,0.0,0.0,0.416300411026,0.356183302862,0.0735700066061,0.429753309468,0.282613296256,nan,nan,0.0,0.0,0.0,nan,nan,284.295652999,427.262304251,427.653121479,427.762319077,nan,nan
0,119,4430,6,1,140,98,1.0,-0.294209249228,-0.0345777392028,1,1.0,1.0,0.430689297616,0,0.0,0.0,0.436822417503,0.356479319314,0.0733242755303,0.429803594844,0.283155043784,nan,nan,0.0,0.0,0.0,nan,nan,284.295652999,428.262410878,428.693100176,428.76242941,nan,nan
0,120,4431,6,1,320,225,-0.0946500390753,0.43494401576,0.398701238857,1,1.0,1.0,0.398544233292,0,0.0,0.0,0.406683586227,0.357108217435,0.0733291296468,0.430437347082,0.283779087788,nan,nan,0.0,0.0,0.0,nan,nan,284.295652999,429.262533755,429.661077988,429.76259277,nan,nan
0,121,4432,6,1,82,57,1.0,-0.198479155091,-0.679872484948,1,1.0,1.0,0.366381207481,0,0.0,0.0,0.39853824613,0.357456419249,0.0731182732093,0.430574692458,0.28433814604,nan,nan,0.0,0.0,0.0,nan,nan,284.295652999,430.262682577,430.629063784,430.762719069,nan,nan
0,122,4433,6,0,463,325,0.440238315199,0.376011795327,-1.0,0,0.0,1.0,0.406221632846,0,0.0,0.0,0.390382357873,0.357530792484,0.0728174962638,0.430348288748,0.284713296221,nan,nan,0.0,0.0,0.0,nan,nan,284.295652999,431.262835674,431.669057307,431.762849644,nan,nan
0,123,4434,6,1,175,123,1.0,-0.155629953633,0.290361762956,1,1.0,1.0,0.334110414609,0,0.0,0.0,0.368904418312,0.357933196124,0.0726498301329,0.430583026257,0.285283365991,nan,nan,0.0,0.0,0.0,nan,nan,284.295652999,432.262927475,432.59703789,432.762951708,nan,nan
0,124,4435,6,1,349,245,-0.175656888649,0.468768509344,0.147945183432,1,1.0,1.0,0.285943137482,0,0.0,0.0,0.342091728312,0.357737927423,0.072383349293,0.430121276716,0.28535457813,nan,nan,0.0,0.0,0.0,nan,nan,284.295652999,433.26307259,433.549015728,433.763074871,nan,nan
0,125,4436,6,1,459,322,0.407758158413,0.385709174134,-1.0,1,1.0,1.0,0.261873183772,0,0.0,0.0,0.293975578621,0.357154229944,0.0723762299007,0.429530459844,0.284778000043,nan,nan,0.0,0.0,0.0,nan,nan,284.295652999,434.263180927,434.525054111,434.763216849,nan,nan
0,126,4437,6,1,163,114,1.0,-0.214247802105,0.185723682048,1,1.0,1.0,0.349674190395,0,0.0,0.0,0.299163503883,0.35638583441,0.0725857923286,0.428971626739,0.283800042081,nan,nan,0.0,0.0,0.0,nan,nan,284.295652999,435.263301238,435.612975429,435.763327182,nan,nan
0,127,4438,6,1,298,209,0.0600896634305,0.391050340636,0.53969689008,1,1.0,1.0,0.301550818607,0,0.0,0.0,0.304366064258,0.356332141258,0.0722973385151,0.428629479773,0.284034802743,nan,nan,0.0,0.0,0.0,nan,nan,284.295652999,436.263404729,436.564955547,436.763484271,nan,nan
0,128,4439,6,1,190,133,1.0,-0.0746884387243,0.407399635172,1,1.0,1.0,0.277448077686,0,0.0,0.0,0.309557695563,0.355897368856,0.0721737498146,0.42807111867,0.283723619041,nan,nan,0.0,0.0,0.0,nan,nan,284.295652999,437.263546708,437.540994786,437.76361,nan,nan
0,129,4440,6,1,136,95,1.0,-0.301914900238,-0.074841205769,1,1.0,1.0,0.26123884134,0,1.0,0.0,0.280079245878,0.355279657902,0.0722226518411,0.427502309743,0.283057006061,nan,nan,0.0,0.0,0.0,nan,nan,284.295652999,438.263690397,438.524929238,438.763722043,nan,nan
0,130,4445,6,1,70,49,1.0,-0.13936984996,-0.906436913284,1,1.0,1.0,0.621059947647,1,0.0,0.0,0.386582288891,0.354544964022,0.072414860392,0.426959824414,0.28213010363,53.6261573146,52.0,1.0,-0.0438860552364,-1.0,-12.8449073146,2.3006119905,284.295652999,439.263816981,439.884876928,439.763849767,441.0890064,443.397657009
0,131,4446,6,0,455,319,0.375608248681,0.394875365091,-1.0,0,0.0,1.0,0.566619949415,0,0.0,0.0,0.482972912801,0.356610971647,0.0758262166125,0.43243718826,0.280784755035,nan,nan,0.0,0.0,0.0,nan,nan,284.295652999,444.606185824,445.172805773,445.106231155,nan,nan
0,132,4447,6,1,179,125,1.0,-0.13461441766,0.323204131591,1,1.0,1.0,0.326513698325,0,0.0,0.0,0.504731198462,0.358226425322,0.0777305435558,0.435956968878,0.280495881767,nan,nan,0.0,0.0,0.0,nan,nan,284.295652999,445.6062762,445.932789898,446.106323526,nan,nan
0,133,4448,6,1,450,316,0.335949728395,0.405598329481,-1.0,1,1.0,1.0,0.342339763418,0,0.0,0.0,0.411824470386,0.357984343437,0.0774824718996,0.435466815337,0.280501871537,nan,nan,0.0,0.0,0.0,nan,nan,284.295652999,446.606424166,446.948763929,447.106443837,nan,nan
0,134,4449,6,0,110,77,1.0,-0.296722754836,-0.346921960777,0,0.0,1.0,0.438234127127,0,0.0,0.0,0.36902919629,0.357865823891,0.0772003385956,0.435066162487,0.280665485296,nan,nan,0.0,0.0,0.0,nan,nan,284.295652999,447.606529937,448.044764064,448.106600641,nan,nan
0,135,4450,6,1,50,35,1.0,-0.033148730948,-1.0,1,1.0,1.0,0.350065628998,0,0.0,0.0,0.376879839847,0.358470096848,0.077222278557,0.435692375405,0.281247818291,nan,nan,0.0,0.0,0.0,nan,nan,284.295652999,448.606679899,448.956745528,449.106720952,nan,nan
0,136,4451,6,1,124,87,1.0,-0.311577186586,-0.198226518473,1,1.0,1.0,0.349917949177,0,0.0,0.0,0.379405901767,0.358407376939,0.0769369963501,0.435344373289,0.281470380589,nan,nan,0.0,0.0,0.0,nan,nan,284.295652999,449.60681475,449.956732699,450.106848962,nan,nan
0,137,4452,6,1,463,325,0.440238315199,0.376011795327,-1.0,1,1.0,1.0,0.349761145189,0,0.0,0.0,0.349914907788,0.358344492289,0.0766549713359,0.434999463625,0.281689520953,nan,nan,0.0,0.0,0.0,nan,nan,284.295652999,450.606938482,450.956699627,451.106976685,nan,nan
0,138,4453,6,1,375,263,-0.128556699755,0.478682433309,-0.121605159467,1,1.0,1.0,0.333609498106,0,0.0,0.0,0.344429530824,0.358281379442,0.0763761520201,0.434657531462,0.281905227422,nan,nan,0.0,0.0,0.0,nan,nan,284.295652999,451.607066492,451.94067599,452.107105834,nan,nan
0,139,4454,6,1,266,187,0.373577590308,0.295207490188,0.648113769863,1,1.0,1.0,0.389472991228,0,0.0,0.0,0.357614544841,0.358101292717,0.0761258713659,0.434227164083,0.281975421351,nan,nan,0.0,0.0,0.0,nan,nan,284.295652999,452.607189938,452.99666293,453.107209611,nan,nan
0,140,4455,6,1,371,260,-0.14179360683,0.478331938097,-0.0779732583494,1,1.0,1.0,0.381355971098,0,0.0,0.0,0.368146153477,0.358328623866,0.0758962090478,0.434224832914,0.282432414818,nan,nan,0.0,0.0,0.0,nan,nan,284.295652999,453.607299701,453.988655672,454.107343892,nan,nan
0,141,4456,6,1,433,304,0.206536295144,0.436163724167,-1.0,1,1.0,1.0,0.285186488181,0,0.0,0.0,0.352005150169,0.358494288234,0.0756477453581,0.434142033593,0.282846542876,nan,nan,0.0,0.0,0.0,nan,nan,284.295652999,454.607445671,454.892632159,455.107460496,nan,nan
0,142,4457,6,1,126,88,1.0,-0.311411754845,-0.177408431044,1,1.0,1.0,0.413032050245,0,0.0,0.0,0.359858169841,0.357970661091,0.0756294755041,0.433600136595,0.282341185587,nan,nan,0.0,0.0,0.0,nan,nan,284.295652999,455.607577386,456.020609437,456.107592212,nan,nan
0,143,4458,6,1,345,242,-0.173519535469,0.465595146217,0.186119282857,1,1.0,1.0,0.332891621627,0,0.0,0.0,0.343703386684,0.358361167397,0.0755023231928,0.43386349059,0.282858844204,nan,nan,0.0,0.0,0.0,nan,nan,284.295652999,456.607726778,456.9406184,457.107722786,nan,nan
0,144,4459,6,1,124,87,1.0,-0.311577186586,-0.198226518473,1,1.0,1.0,0.380743865855,0,0.0,0.0,0.375555845909,0.358181804399,0.0752661401589,0.433447944558,0.28291566424,nan,nan,0.0,0.0,0.0,nan,nan,284.295652999,457.607830268,457.988574134,458.107840816,nan,nan
0,145,4500,6,1,489,343,0.656284860842,0.299572439858,-1.0,1,1.0,1.0,0.396640635096,0,0.0,0.0,0.370092040859,0.358339581052,0.0750260714675,0.43336565252,0.283313509585,nan,nan,0.0,0.0,0.0,nan,nan,284.295652999,458.607930623,459.004571258,459.107987072,nan,nan
0,146,4501,6,1,378,265,-0.117450136118,0.478670924818,-0.154810124165,1,1.0,1.0,0.380443657748,0,0.0,0.0,0.385942719566,0.358605560594,0.0748327354106,0.433438296005,0.283772825184,nan,nan,0.0,0.0,0.0,nan,nan,284.295652999,459.60808372,459.988527378,460.108106528,nan,nan
0,147,4502,6,1,35,24,1.0,0.0462653595507,-1.0,1,1.0,1.0,0.364320805296,0,0.0,0.0,0.380468366047,0.358756168161,0.0745961414888,0.43335230965,0.284160026672,nan,nan,0.0,0.0,0.0,nan,nan,284.295652999,460.608191487,460.972512293,461.108222278,nan,nan
0,148,4503,6,1,259,182,0.44882283482,0.268906983076,0.655011783756,1,1.0,1.0,0.372154723853,0,0.0,0.0,0.372306395633,0.358794282114,0.0743416530041,0.433135935118,0.28445262911,nan,nan,0.0,0.0,0.0,nan,nan,284.295652999,461.60834544,461.980500164,462.108350001,nan,nan
0,149,4504,6,1,469,329,0.489482198204,0.360453357602,-1.0,1,1.0,1.0,0.364018031396,0,0.0,0.0,0.366831186848,0.358885169473,0.0740964974491,0.432981666922,0.284788672024,nan,nan,0.0,0.0,0.0,nan,nan,284.295652999,462.608460905,462.972478936,463.108488559,nan,nan
0,150,4505,6,1,274,192,0.289344050657,0.322900892411,0.632670269059,1,1.0,1.0,0.403908633627,0,0.0,0.0,0.380027129625,0.358919850972,0.0738469443268,0.432766795299,0.285072906645,nan,nan,0.0,0.0,0.0,nan,nan,284.295652999,463.608571808,464.012480441,464.108631678,nan,nan
0,151,4506,6,1,382,268,-0.1011887567,0.478291136399,-0.199732273247,1,1.0,1.0,0.411725730635,0,0.0,0.0,0.393217465219,0.359221789111,0.0736903252974,0.432912114408,0.285531463813,nan,nan,0.0,0.0,0.0,nan,nan,284.295652999,464.608726046,465.020451777,465.108742867,nan,nan
0,152,4507,6,0,230,161,0.760023132926,0.140224214653,0.61781109556,0,0.0,1.0,0.547550610267,0,0.0,0.0,0.45439499151,0.359571815388,0.0735684546727,0.43314027006,0.286003360715,nan,nan,0.0,0.0,0.0,nan,nan,284.295652999,465.608872301,466.156422911,466.108909934,nan,nan
0,153,4508,6,1,32,22,1.0,0.061735800531,-1.0,1,1.0,1.0,0.403447060846,0,0.0,0.0,0.454241133916,0.360816708069,0.0748928436416,0.435709551711,0.285923864427,nan,nan,0.0,0.0,0.0,nan,nan,284.295652999,466.608975221,467.012422282,467.109025398,nan,nan
0,154,4509,6,1,298,209,0.0600896634305,0.391050340636,0.53969689008,1,1.0,1.0,0.276139194146,0,0.0,0.0,0.409045621753,0.361097170916,0.0747255959585,0.435822766875,0.286371574958,nan,nan,0.0,0.0,0.0,nan,nan,284.295652999,467.640274686,467.91641388,468.142468513,nan,nan
0,155,4510,6,1,446,313,0.304696255059,0.41359904426,-1.0,1,1.0,1.0,0.305847812444,0,0.0,0.0,0.328478022479,0.360541890022,0.0747949578602,0.435336847882,0.285746932162,nan,nan,0.0,0.0,0.0,nan,nan,284.295652999,468.642549481,468.948397294,469.142589965,nan,nan
0,156,4511,6,1,262,184,0.416452475899,0.2804144186,0.652815538838,1,1.0,1.0,0.313676883467,0,0.0,0.0,0.298554630019,0.360186733674,0.0746810417942,0.434867775469,0.28550569188,nan,nan,0.0,0.0,0.0,nan,nan,284.295652999,469.642700013,469.956376896,470.142721965,nan,nan
0,157,4512,6,1,157,110,1.0,-0.240048375319,0.130425901556,1,1.0,1.0,0.329543433152,0,0.0,0.0,0.316356043021,0.359886670125,0.0745328220745,0.434419492199,0.28535384805,nan,nan,0.0,0.0,0.0,nan,nan,284.295652999,470.64282403,470.972367464,471.142843987,nan,nan
0,158,4513,6,0,370,260,-0.144805996584,0.478178727438,-0.0671803333712,0,0.0,1.0,0.465367456898,0,0.0,0.0,0.369529257839,0.359692162195,0.0743330064736,0.434025168669,0.285359155722,nan,nan,0.0,0.0,0.0,nan,nan,284.295652999,471.642961447,472.108328904,472.142992808,nan,nan
0,159,4514,6,1,276,194,0.268710435127,0.329430325417,0.627563005949,1,1.0,1.0,0.361242604442,0,0.0,0.0,0.385384498164,0.360365253244,0.0745712966943,0.434936549939,0.28579395655,nan,nan,0.0,0.0,0.0,nan,nan,284.295652999,472.643074347,473.004316951,473.143096584,nan,nan
0,160,4515,6,1,216,151,0.900975005756,0.0682271079607,0.563426584804,1,1.0,1.0,0.281067965552,0,0.0,0.0,0.369226008964,0.3603708061,0.0743349695595,0.43470577566,0.286035836541,nan,nan,0.0,0.0,0.0,nan,nan,284.295652999,473.643235711,473.924303677,474.143222597,nan,nan
0,161,4516,6,1,450,316,0.335949728395,0.405598329481,-1.0,1,1.0,1.0,0.296637442894,0,0.0,0.0,0.312982670963,0.359872046097,0.0743655785298,0.434237624626,0.285506467567,nan,nan,0.0,0.0,0.0,nan,nan,284.295652999,474.651646382,474.948283825,475.151704827,nan,nan
0,162,4517,6,1,405,284,0.018463324075,0.468009379796,-0.476293327428,1,1.0,1.0,0.272461432032,0,1.0,0.0,0.283388946826,0.359476829827,0.0743001374343,0.433776967261,0.285176692392,nan,nan,0.0,0.0,0.0,nan,nan,284.295652999,475.651796059,475.924257491,476.151810599,nan,nan
0,163,4523,6,1,52,36,1.0,-0.0438860552364,-1.0,1,1.0,1.0,0.448354814202,1,0.0,0.0,0.339151229709,0.358936361517,0.0743838591165,0.433320220634,0.284552502401,-23.5286316761,161.0,1.0,-0.223158351501,0.167490545043,76.9661316761,2.60894357599,284.295652999,476.65190069,477.100255504,477.151936327,478.477132874,481.094108795
0,164,4524,6,1,453,318,0.359670421306,0.39926174925,-1.0,1,1.0,1.0,0.621831137687,0,0.0,0.0,0.447549127974,0.359488327275,0.0744839290722,0.433972256347,0.285004398202,nan,nan,0.0,0.0,0.0,nan,nan,284.295652999,482.294295933,482.916127071,482.794371485,nan,nan
0,165,4525,6,1,381,267,-0.105403061426,0.478425078289,-0.188431136224,1,1.0,1.0,0.45369241666,0,0.0,0.0,0.507959456183,0.361097792369,0.0770289619807,0.43812675435,0.284068830388,nan,nan,0.0,0.0,0.0,nan,nan,284.295652999,483.294425082,483.748117499,483.794457014,nan,nan
0,166,4526,6,1,221,155,0.851781464038,0.0945411604707,0.585422935822,1,1.0,1.0,0.29355353862,0,0.0,1.0,0.456359030989,0.361662393737,0.0771313271018,0.438793720839,0.284531066635,nan,nan,0.0,0.0,0.0,nan,nan,284.295652999,484.294555088,484.588108626,484.794588444,nan,nan
0,167,4531,6,1,499,350,0.739831889234,0.263827757734,-1.0,1,1.0,1.0,0.261408474296,1,0.0,0.0,0.336218143192,0.361249612797,0.0770787211869,0.438328333984,0.28417089161,121.22498168,468.0,0.481236483515,0.363131620867,-1.0,-22.0843566803,2.05054670293,284.295652999,485.294692504,485.556100979,485.794734129,487.119878503,489.178467245
0,168,4532,6,1,326,229,-0.12383419111,0.444071765824,0.352223541474,1,1.0,1.0,0.432673294097,0,0.0,0.0,0.329211769005,0.360648160155,0.0772335891676,0.437881749323,0.283414570988,nan,nan,0.0,0.0,0.0,nan,nan,284.295652999,490.395332321,490.828005615,490.89535684,nan,nan
0,169,4533,6,1,463,325,0.440238315199,0.376011795327,-1.0,1,1.0,1.0,0.304524388164,0,0.0,0.0,0.332868718853,0.361079448382,0.0772022418858,0.438281690268,0.283877206497,nan,nan,0.0,0.0,0.0,nan,nan,284.295652999,491.395468598,491.699992986,491.895527328,nan,nan
0,170,4534,6,0,351,246,-0.175686286722,0.4701852659,0.128489978773,0,0.0,1.0,0.504350878298,0,0.0,0.0,0.413849520187,0.360742811119,0.0770949678624,0.437837778982,0.283647843257,nan,nan,0.0,0.0,0.0,nan,nan,284.295652999,492.395606585,492.899957463,492.895654767,nan,nan
0,171,4535,6,1,398,279,-0.0220377755791,0.472608796233,-0.387943383198,1,1.0,1.0,0.392215346918,0,0.0,0.0,0.400363537793,0.361592562996,0.0776516180366,0.439244181033,0.283940944959,nan,nan,0.0,0.0,0.0,nan,nan,284.295652999,493.395725471,493.787940818,493.895762819,nan,nan
0,172,4536,6,1,55,38,1.0,-0.0599996532909,-1.0,1,1.0,1.0,0.432064610533,0,0.0,0.0,0.44287694525,0.361772697019,0.0774583002857,0.439230997305,0.284314396733,nan,nan,0.0,0.0,0.0,nan,nan,284.295652999,494.395850629,494.827915239,494.895895389,nan,nan
0,173,4537,6,1,268,188,0.35230222188,0.302367520405,0.645005310408,1,1.0,1.0,0.39992781356,0,0.0,0.0,0.408069257004,0.362183760841,0.0774172286452,0.439600989486,0.284766532196,nan,nan,0.0,0.0,0.0,nan,nan,284.295652999,495.395979778,495.795907591,495.89600002,nan,nan
0,174,4538,6,0,17,11,0.981069150956,0.135921910835,-1.0,0,0.0,1.0,0.487773580477,0,0.0,0.0,0.439922001523,0.362403203008,0.0772451698519,0.43964837286,0.285158033156,nan,nan,0.0,0.0,0.0,nan,nan,284.295652999,496.396120331,496.883893912,496.904483961,nan,nan
0,175,4539,6,1,65,45,1.0,-0.113312155659,-1.0,1,1.0,1.0,0.591619322076,0,0.0,0.0,0.493106905371,0.363127887271,0.0776057650585,0.440733652329,0.285522122212,nan,nan,0.0,0.0,0.0,nan,nan,284.295652999,497.39623323,497.987852552,497.896296807,nan,nan
0,176,4540,6,1,488,343,0.647907709101,0.302951493728,-1.0,1,1.0,1.0,0.463503202423,0,0.0,0.0,0.514298701659,0.364441056436,0.079286602307,0.443727658743,0.285154454129,nan,nan,0.0,0.0,0.0,nan,nan,284.295652999,498.396359813,498.859863016,498.896406,nan,nan
0,177,4541,6,1,337,236,-0.160643365934,0.457858386897,0.259303564052,1,1.0,1.0,0.311416627839,0,0.0,1.0,0.45551305078,0.365007125842,0.0794115787115,0.444418704553,0.28559554713,nan,nan,0.0,0.0,0.0,nan,nan,284.295652999,499.396488108,499.707904736,499.896530587,nan,nan
0,178,4544,6,1,459,322,0.407758158413,0.385709174134,-1.0,1,1.0,1.0,0.271201870404,1,0.0,0.0,0.348707233556,0.364702634376,0.0792880400345,0.44399067441,0.285414594341,138.089156375,444.0,0.289241202529,0.417409780569,-1.0,-10.8235313753,0.775390242226,284.295652999,500.396613835,500.667815706,500.896640065,502.221804965,503.005233255
0,179,4545,6,1,221,155,0.851781464038,0.0945411604707,0.585422935822,1,nan,nan,nan,0,0.0,0.0,0.291309249122,0.364174381472,0.0793737287471,0.443548110219,0.284800652725,nan,nan,0.0,0.0,0.0,nan,nan,284.295652999,504.213758934,nan,504.713838192,nan,nan
0,180,4547,6,1,475,333,0.539218753276,0.343659807328,-1.0,1,1.0,1.0,0.333853541873,0,0.0,0.0,0.302527706139,0.364174381472,0.0793737287471,0.443548110219,0.284800652725,nan,nan,0.0,0.0,0.0,nan,nan,284.295652999,505.213873544,505.547727086,505.713911177,nan,nan
0,181,4548,6,1,212,149,0.93926288676,0.0467731277665,0.543851001166,1,1.0,1.0,0.349680177867,0,0.0,0.0,0.34176685987,0.364004039677,0.0791828920031,0.44318693168,0.284821147673,nan,nan,0.0,0.0,0.0,nan,nan,284.295652999,506.214024075,506.563704253,506.714042607,nan,nan
0,182,4549,6,1,376,264,-0.124962824795,0.478704673615,-0.132627625282,1,1.0,1.0,0.349554734305,0,0.0,0.0,0.344362818015,0.363924018102,0.0789686181748,0.442892636277,0.284955399927,nan,nan,0.0,0.0,0.0,nan,nan,284.295652999,507.214146667,507.563701401,507.714173752,nan,nan
0,183,4550,6,1,36,25,1.0,0.0410699577143,-1.0,1,1.0,1.0,0.333401376382,0,0.0,0.0,0.344212096184,0.363844188748,0.0787561978065,0.442600386554,0.285087990941,nan,nan,0.0,0.0,0.0,nan,nan,284.295652999,508.214277242,508.547678619,508.714297485,nan,nan
0,184,4551,6,0,321,225,-0.0999433513493,0.43654647086,0.391174984052,0,1.0,0.0,0.293244208209,0,0.0,0.0,0.325400106298,0.363675996414,0.0785707482613,0.442246744676,0.285105248153,nan,nan,0.0,0.0,0.0,nan,nan,284.295652999,509.214420646,509.507664855,509.714451437,nan,nan
0,185,4552,6,1,240,168,0.654373017221,0.188015059697,0.642463954019,1,1.0,1.0,0.485119033605,0,0.0,0.0,0.370588206065,0.363289008567,0.0785273799052,0.441816388472,0.284761628662,nan,nan,0.0,0.0,0.0,nan,nan,284.295652999,510.214520146,510.69963918,510.71454723,nan,nan
0,186,4553,6,1,396,278,-0.0330153705648,0.473684876347,-0.363523780775,1,1.0,1.0,0.340644856915,0,0.0,0.0,0.373002699576,0.363954746409,0.0788258590476,0.442780605456,0.285128887361,nan,nan,0.0,0.0,0.0,nan,nan,284.295652999,511.22298584,511.563630697,511.723015776,nan,nan
0,187,4554,6,1,36,25,1.0,0.0410699577143,-1.0,1,1.0,1.0,0.292486132123,0,0.0,0.0,0.372750007547,0.363828062227,0.0786300444551,0.442458106682,0.285198017772,nan,nan,0.0,0.0,0.0,nan,nan,284.295652999,512.223120977,512.515607109,512.723144925,nan,nan
0,188,4555,6,1,310,217,-0.032854544558,0.417080732083,0.468828018046,1,1.0,1.0,0.31632743869,0,0.0,0.0,0.316486142576,0.363442430172,0.0785915199057,0.442033950078,0.284850910266,nan,nan,0.0,0.0,0.0,nan,nan,284.295652999,513.22326039,513.539587828,513.72327721,nan,nan
0,189,4556,6,1,220,154,0.861731547614,0.0893272636146,0.581247684387,1,1.0,1.0,0.356189530343,0,0.0,0.0,0.321667700385,0.363189123766,0.0784556543154,0.441644778082,0.284733469451,nan,nan,0.0,0.0,0.0,nan,nan,284.295652999,514.223386688,514.579576219,514.723398092,nan,nan
0,190,4557,6,1,385,270,-0.0879796604702,0.477733444059,-0.233926720364,1,1.0,1.0,0.324017667212,0,0.0,0.0,0.332178212081,0.363151692785,0.0782472638944,0.44139895668,0.284904428891,nan,nan,0.0,0.0,0.0,nan,nan,284.295652999,515.223521254,515.547538921,515.723532943,nan,nan
0,191,4558,6,1,318,223,-0.0835627602325,0.431640264478,0.413481556053,1,1.0,1.0,0.363892588764,0,0.0,0.0,0.348033262106,0.362943533075,0.0780907798665,0.441034312941,0.284852753208,nan,nan,0.0,0.0,0.0,nan,nan,284.295652999,516.223632728,516.587525317,516.723652114,nan,nan
0,192,4559,6,1,122,85,1.0,-0.311159539646,-0.219144224573,1,1.0,1.0,0.379762274213,0,0.0,0.0,0.355890843396,0.362948554533,0.0778839469428,0.440832501476,0.285064607591,nan,nan,0.0,0.0,0.0,nan,nan,284.295652999,517.22375646,517.603518734,517.723774991,nan,nan
0,193,4600,6,1,314,220,-0.0594438881467,0.42463230952,0.441925406839,1,1.0,1.0,0.31560186483,0,0.0,0.0,0.353085575936,0.363037047795,0.0776882450785,0.440725292873,0.285348802717,nan,nan,0.0,0.0,0.0,nan,nan,284.295652999,518.22390357,518.539505435,518.723907562,nan,nan
0,194,4601,6,1,499,350,0.739831889234,0.263827757734,-1.0,1,1.0,1.0,0.339470254257,0,0.0,0.0,0.344944797767,0.362788696052,0.0775601899832,0.440348886035,0.285228506069,nan,nan,0.0,0.0,0.0,nan,nan,284.295652999,519.224012477,519.563482732,519.724038422,nan,nan
0,195,4602,6,0,109,76,1.0,-0.294638327523,-0.357773695079,0,0.0,1.0,0.539289331064,0,0.0,0.0,0.398120483384,0.362667245834,0.0773761538724,0.440043399706,0.285291091962,nan,nan,0.0,0.0,0.0,nan,nan,284.295652999,520.224159588,520.763448919,520.724203208,nan,nan
0,196,4603,6,1,306,215,-0.00395437407881,0.408974006242,0.494128827808,1,1.0,1.0,0.35516460333,0,0.0,0.0,0.411308062884,0.363582386172,0.0782102590274,0.441792645199,0.285372127145,nan,nan,0.0,0.0,0.0,nan,nan,284.295652999,521.224275623,521.579440227,521.724302422,nan,nan
0,197,4604,6,1,118,82,1.0,-0.308588151016,-0.261285249573,1,1.0,1.0,0.275056107901,0,0.0,0.0,0.389836680765,0.363538995539,0.0780107547741,0.441549750313,0.285528240765,nan,nan,0.0,0.0,0.0,nan,nan,284.295652999,522.224401636,522.499457744,522.724443831,nan,nan
0,198,4605,6,1,344,241,-0.172543464245,0.464730234515,0.195503824632,1,1.0,1.0,0.410881841555,0,0.0,0.0,0.347034184262,0.363085237141,0.0780667228253,0.441151959966,0.285018514315,nan,nan,0.0,0.0,0.0,nan,nan,284.295652999,523.224531356,523.635413198,523.724567278,nan,nan
0,199,4606,6,1,101,71,1.0,-0.273572672894,-0.446152610616,1,1.0,1.0,0.394743024372,0,0.0,0.0,0.360226991276,0.363329097367,0.0779417442113,0.441270841579,0.285387353156,nan,nan,0.0,0.0,0.0,nan,nan,284.295652999,524.224657369,524.619400393,524.724677896,nan,nan
0,200,4607,6,1,273,191,0.299732959835,0.319577193062,0.635038033336,1,1.0,1.0,0.30658365041,0,0.0,0.0,0.370736172112,0.363488558926,0.0777757175601,0.441264276486,0.285712841366,nan,nan,0.0,0.0,0.0,nan,nan,284.295652999,525.224783667,525.531367318,525.724825292,nan,nan
0,201,4608,6,1,158,111,1.0,-0.235949227405,0.139764106,1,1.0,1.0,0.282455536537,0,0.0,0.0,0.327927403773,0.363201160398,0.0776838671257,0.440885027524,0.285517293272,nan,nan,0.0,0.0,0.0,nan,nan,284.295652999,526.224916237,526.507371774,526.724951875,nan,nan
0,202,4609,6,1,406,285,0.0244967455079,0.467245700284,-0.489366101921,1,1.0,1.0,0.258307466283,0,1.0,0.0,0.28244888441,0.362795403494,0.0776984949887,0.440493898483,0.285096908505,nan,nan,0.0,0.0,0.0,nan,nan,284.295652999,527.225038259,527.483345726,527.725055081,nan,nan
0,203,4613,6,1,285,200,0.178734351563,0.356878681702,0.598527012995,1,1.0,1.0,0.250238911249,1,0.0,0.0,0.26366730469,0.362272963808,0.0778536225539,0.440126586362,0.284419341254,-105.345277212,278.0,0.248285521772,0.335802812283,0.621962573991,-5.04534778833,1.58383187465,284.295652999,528.225163133,528.475402044,528.725181093,530.050353407,531.642216487
0,204,4614,6,1,36,25,1.0,0.0410699577143,-1.0,1,1.0,1.0,0.472122849897,0,0.0,0.0,0.326889742476,0.361715580462,0.0780587383111,0.439774318773,0.283656842151,nan,nan,0.0,0.0,0.0,nan,nan,284.295652999,532.859131739,533.331254589,533.359110928,nan,nan
0,205,4615,6,1,178,125,1.0,-0.139919655122,0.315097826042,1,1.0,1.0,0.344032389112,0,0.0,0.0,0.355464716752,0.362262151103,0.0782499141727,0.440512065275,0.28401223693,nan,nan,0.0,0.0,0.0,nan,nan,284.295652999,533.859212138,534.203244527,534.359242928,nan,nan
0,206,4616,6,1,233,163,0.728670395113,0.154909781369,0.626482233315,1,1.0,1.0,0.279875970446,0,0.0,0.0,0.365343736485,0.362172349319,0.0780673764483,0.440239725768,0.284104972871,nan,nan,0.0,0.0,0.0,nan,nan,284.295652999,534.859329313,535.139205283,535.359366375,nan,nan
0,207,4617,6,0,303,213,0.0191349273956,0.402522842081,0.512018356663,0,1.0,0.0,0.231686741114,0,0.0,0.0,0.28519836689,0.361768935697,0.078087623401,0.439856559098,0.283681312296,nan,nan,0.0,0.0,0.0,nan,nan,284.295652999,535.859517192,536.091203934,536.359526316,nan,nan
0,208,4618,6,1,253,177,0.513865899396,0.244839928328,0.655977188727,1,1.0,1.0,0.327572836541,0,0.0,0.0,0.279711849367,0.361134388407,0.0784223999683,0.439556788375,0.282711988439,nan,nan,0.0,0.0,0.0,nan,nan,284.295652999,536.859588467,537.187161303,537.359620398,nan,nan
0,209,4619,6,1,143,100,1.0,-0.287057525782,-0.00469998909502,1,1.0,1.0,0.351421554573,0,0.0,0.0,0.303560377409,0.360971468252,0.0782665918807,0.439238060133,0.282704876371,nan,nan,0.0,0.0,0.0,nan,nan,284.295652999,537.859724458,538.211146013,538.359741564,nan,nan
0,210,4620,6,1,362,254,-0.164239727892,0.476000155386,0.0174578511848,1,1.0,1.0,0.359302228317,0,0.0,0.0,0.346098873143,0.360925333403,0.0780801210457,0.439005454449,0.282845212358,nan,nan,0.0,0.0,0.0,nan,nan,284.295652999,538.859853323,539.219155551,539.359876131,nan,nan
0,211,4621,6,1,121,85,1.0,-0.310732805591,-0.229640808446,1,1.0,1.0,0.319170719013,0,0.0,0.0,0.343298167301,0.360917530014,0.077892283223,0.438809813237,0.283025246791,nan,nan,0.0,0.0,0.0,nan,nan,284.295652999,539.859987319,540.179158038,540.360018964,nan,nan
0,212,4622,6,1,452,317,0.351738073422,0.401406211611,-1.0,1,1.0,1.0,0.359016845934,0,0.0,0.0,0.345829931088,0.360717784506,0.077759095436,0.438476879942,0.28295868907,nan,nan,0.0,0.0,0.0,nan,nan,284.295652999,540.860090239,541.219107085,541.360139846,nan,nan
0,213,4623,6,1,234,164,0.71814774995,0.15974031316,0.62913160129,1,1.0,1.0,0.350845657289,0,0.0,0.0,0.343011074079,0.360709684799,0.0775738221778,0.438283506977,0.283135862621,nan,nan,0.0,0.0,0.0,nan,nan,284.295652999,541.86024191,542.211087568,542.360272701,nan,nan
0,214,4624,6,1,451,317,0.343830962376,0.403518361206,-1.0,1,1.0,1.0,0.366701942869,0,0.0,0.0,0.358854815364,0.360662935853,0.0773927447472,0.438055680601,0.283270191106,nan,nan,0.0,0.0,0.0,nan,nan,284.295652999,542.860368779,543.227070722,543.36038389,nan,nan
0,215,4625,6,1,9,6,0.918933560847,0.172916688009,-1.0,1,1.0,1.0,0.542552274652,0,0.0,0.0,0.420033291603,0.360691421736,0.0772111076858,0.437902529421,0.28348031405,nan,nan,0.0,0.0,0.0,nan,nan,284.295652999,543.860491087,544.403043361,544.360556944,nan,nan
0,216,4626,6,1,129,90,1.0,-0.310070485259,-0.146368003411,1,1.0,1.0,0.430419595912,0,0.0,1.0,0.446557937811,0.361545228557,0.0780263524642,0.439571581021,0.283518876093,nan,nan,0.0,0.0,0.0,nan,nan,284.295652999,544.860621946,545.291041542,545.360670413,nan,nan
0,217,4631,6,1,455,319,0.375608248681,0.394875365091,-1.0,1,1.0,1.0,0.390255299397,1,0.0,0.0,0.454409056654,0.361867071395,0.0779854197779,0.439852491173,0.283881651617,163.849366364,407.0,0.0305886347219,0.46645515455,-0.502577406972,-33.7712413637,1.39221506193,284.295652999,545.860753947,546.251009246,546.36080612,547.694265941,549.094488545
0,218,4632,6,1,218,153,0.881467392804,0.0788246127756,0.572559633417,1,1.0,1.0,0.331625501625,0,0.0,0.0,0.384100132311,0.361999109665,0.0778278195767,0.439826929241,0.284171290088,nan,nan,0.0,0.0,0.0,nan,nan,284.295652999,550.311293751,550.642919253,550.811332239,nan,nan
0,219,4633,6,1,327,229,-0.128086156831,0.445480682368,0.344176439252,1,1.0,1.0,0.323481112719,0,0.0,0.0,0.348453971247,0.361858491109,0.0776748245443,0.439533315653,0.284183666565,nan,nan,0.0,0.0,0.0,nan,nan,284.295652999,551.311455687,551.634936799,551.811461673,nan,nan
0,220,4634,6,1,204,143,1.0,0.00303256528985,0.499654420455,1,1.0,1.0,0.30729981605,0,0.0,0.0,0.320802143464,0.361681636831,0.0775392204446,0.439220857275,0.284142416386,nan,nan,0.0,0.0,0.0,nan,nan,284.295652999,552.311599661,552.618899477,552.811592533,nan,nan
0,221,4635,6,1,372,261,-0.138660017671,0.478458869494,-0.0888123791441,1,1.0,1.0,0.283181965351,0,0.0,0.0,0.30465429804,0.361432178937,0.0774484018797,0.438880580817,0.283983777057,nan,nan,0.0,0.0,0.0,nan,nan,284.295652999,553.311691462,553.594873427,553.811715125,nan,nan
0,222,4636,6,1,506,355,0.797774742377,0.236703125255,-1.0,1,1.0,1.0,0.267042293213,0,0.0,0.0,0.285841358205,0.361074872026,0.0774512578051,0.438526129831,0.283623614221,nan,nan,0.0,0.0,0.0,nan,nan,284.295652999,554.311823177,554.57886547,554.811843419,nan,nan
0,223,4637,6,1,368,258,-0.150457169737,0.477793263397,-0.0457341785459,1,1.0,1.0,0.28292366676,0,1.0,0.0,0.277715975108,0.360647451213,0.07753347227,0.438180923483,0.283113978943,nan,nan,0.0,0.0,0.0,nan,nan,284.295652999,555.311948906,555.594872572,555.81197656,nan,nan
0,224,4642,6,1,194,136,1.0,-0.0524864644427,0.435571704399,1,1.0,1.0,0.330743124709,1,0.0,0.0,0.293569694894,0.360295759881,0.0775335368331,0.437829296714,0.282762223048,-51.2613263043,201.0,1.0,-0.0135712615467,0.48142235136,4.8550763043,2.3255740162,284.295652999,556.312082902,556.642826026,556.812123955,558.145606015,560.479228057
0,225,4643,6,1,132,92,1.0,-0.307426825298,-0.115555361894,1,1.0,1.0,0.419029367156,0,0.0,0.0,0.344232052875,0.360162639902,0.0773840232766,0.437546663179,0.282778616626,nan,nan,0.0,0.0,0.0,nan,nan,284.295652999,561.687754877,562.106784244,562.187812182,nan,nan
0,226,4644,6,1,89,62,1.0,-0.229484098413,-0.587370487375,1,1.0,1.0,0.402506522834,0,0.0,0.0,0.3840930049,0.360426616258,0.0773104358665,0.437737052124,0.283116180391,nan,nan,0.0,0.0,0.0,nan,nan,284.295652999,562.696206887,563.09871341,563.196252503,nan,nan
0,227,4645,6,1,481,338,0.589289488337,0.325611856148,-1.0,1,1.0,1.0,0.290336210281,0,0.0,0.0,0.370624033424,0.360614472984,0.0771886688077,0.437803141791,0.283425804176,nan,nan,0.0,0.0,0.0,nan,nan,284.295652999,563.696350291,563.986686502,564.196404745,nan,nan
0,228,4646,6,1,310,217,-0.032854544558,0.417080732083,0.468828018046,1,1.0,1.0,0.289200380445,0,0.0,0.0,0.32734770452,0.360302125149,0.0771586929105,0.43746081806,0.283143432239,nan,nan,0.0,0.0,0.0,nan,nan,284.295652999,564.72151217,565.01071255,565.221509319,nan,nan
0,229,4647,6,1,380,267,-0.109519508899,0.478533032186,-0.177177385375,1,1.0,1.0,0.289038729854,0,0.0,0.0,0.28952510686,0.359987515659,0.0771322982646,0.437119813924,0.282855217395,nan,nan,0.0,0.0,0.0,nan,nan,284.295652999,565.72161509,566.01065382,566.221656145,nan,nan
0,230,4648,6,1,143,100,1.0,-0.287057525782,-0.00469998909502,1,1.0,1.0,0.360906760208,0,0.0,0.0,0.313048623502,0.359674965942,0.0771055121139,0.436780478056,0.282569453828,nan,nan,0.0,0.0,0.0,nan,nan,284.295652999,566.721747375,567.082654135,567.221780732,nan,nan
0,231,4649,6,1,72,50,1.0,-0.149607777062,-0.853203742106,1,1.0,1.0,0.376763899811,0,0.0,0.0,0.342236463291,0.359680368549,0.0769362783237,0.436616646872,0.282744090225,nan,nan,0.0,0.0,0.0,nan,nan,284.295652999,567.721872534,568.098636433,568.221912447,nan,nan
0,232,4650,6,1,4,2,0.879126049628,0.195014037372,-1.0,1,1.0,1.0,0.384604090825,0,0.0,0.0,0.374091583615,0.359754969122,0.0767763752921,0.436531344414,0.28297859383,nan,nan,0.0,0.0,0.0,nan,nan,284.295652999,568.721998261,569.106602352,569.222037605,nan,nan
0,233,4651,6,1,179,125,1.0,-0.13461441766,0.323204131591,1,1.0,1.0,0.376457420178,0,0.0,0.0,0.379275136938,0.359863008781,0.0766267321116,0.436489740893,0.28323627667,nan,nan,0.0,0.0,0.0,nan,nan,284.295652999,569.722127126,570.098584546,570.222169605,nan,nan
0,234,4652,6,1,249,175,0.557275547736,0.228026269286,0.654084877906,1,1.0,1.0,0.416313525289,0,0.0,0.0,0.392458345431,0.35993484606,0.0764684548445,0.436403300905,0.283466391216,nan,nan,0.0,0.0,0.0,nan,nan,284.295652999,570.722274806,571.138588332,571.222275376,nan,nan
0,235,4653,6,1,115,80,1.0,-0.305166285737,-0.293172749504,1,1.0,1.0,0.464146098122,0,0.0,0.0,0.418972347863,0.360177857609,0.0763928123943,0.436570670003,0.283785045214,nan,nan,0.0,0.0,0.0,nan,nan,284.295652999,571.722412509,572.186558607,572.222405666,nan,nan
0,236,4654,6,1,459,322,0.407758158413,0.385709174134,-1.0,1,1.0,1.0,0.424042812549,0,0.0,0.0,0.43483414532,0.360624073233,0.0765310937684,0.437155167002,0.284092979465,nan,nan,0.0,0.0,0.0,nan,nan,284.295652999,572.722494047,573.14653686,573.222531394,nan,nan
0,237,4655,6,0,32,22,1.0,0.061735800531,-1.0,0,0.0,1.0,0.567849290557,0,0.0,0.0,0.485346067076,0.360895093487,0.0764793610993,0.437374454586,0.284415732387,nan,nan,0.0,0.0,0.0,nan,nan,284.295652999,573.722649995,574.290499286,574.222698462,nan,nan
0,238,4656,6,1,317,222,-0.077772836126,0.429938605076,0.420733606481,1,1.0,1.0,0.471760204993,0,0.0,0.0,0.4878841027,0.361775749644,0.0774963408869,0.439272090531,0.284279408758,nan,nan,0.0,0.0,0.0,nan,nan,284.295652999,574.722752346,575.194512551,575.222779999,nan,nan
0,239,4657,6,0,105,73,1.0,-0.285049837405,-0.401580786678,0,0.0,1.0,0.455580618232,0,0.0,0.0,0.498396704594,0.362241785472,0.0776612808899,0.439903066362,0.284580504582,nan,nan,0.0,0.0,0.0,nan,nan,284.295652999,575.722907154,576.178487772,576.222933668,nan,nan
0,240,4658,6,1,364,255,-0.160194321586,0.476704516321,-0.00341124574885,1,1.0,1.0,0.383455146104,0,0.0,0.0,0.436931989777,0.36263562021,0.0777330759878,0.440368696197,0.284902544222,nan,nan,0.0,0.0,0.0,nan,nan,284.295652999,576.723022048,577.106477194,577.223036017,nan,nan
0,241,4659,6,0,172,120,1.0,-0.170984061773,0.265024678188,0,1.0,0.0,0.439292410389,0,0.0,0.0,0.426109391575,0.362723097209,0.0775812884269,0.440304385636,0.285141808782,nan,nan,0.0,0.0,0.0,nan,nan,284.295652999,577.723169443,578.162461854,578.223193677,nan,nan
0,242,4700,6,1,266,187,0.373577590308,0.295207490188,0.648113769863,1,1.0,1.0,0.407179561444,0,0.0,0.0,0.409975705979,0.363043470904,0.0775764201885,0.440619891093,0.285467050716,nan,nan,0.0,0.0,0.0,nan,nan,284.295652999,578.723249556,579.130429117,579.223297453,nan,nan
0,243,4701,6,1,103,72,1.0,-0.279537473278,-0.423758835275,1,1.0,1.0,0.495012498461,0,0.0,0.0,0.447161490098,0.363227371282,0.0774668211101,0.440694192392,0.285760550171,nan,nan,0.0,0.0,0.0,nan,nan,284.295652999,579.723409496,580.218421995,580.231754594,nan,nan
0,244,4702,6,1,2,1,0.863024578927,0.203622855609,-1.0,1,1.0,1.0,0.446854914539,0,0.0,1.0,0.449682324814,0.363774197535,0.077768708725,0.44154290626,0.286005488811,nan,nan,0.0,0.0,0.0,nan,nan,284.295652999,580.72355062,581.170405534,581.223551759,nan,nan
0,245,4706,6,1,65,45,1.0,-0.113312155659,-1.0,1,1.0,1.0,0.422704278491,1,0.0,0.0,0.454857230497,0.364117506283,0.0777906479772,0.441908154261,0.286326858306,54.6106796691,50.0,1.0,-0.033148730948,-1.0,-10.3138046691,1.05045091081,284.295652999,581.723664658,582.146368937,582.223677488,583.540506698,584.598978266
0,246,4707,6,0,114,80,1.0,-0.303747463913,-0.303859371662,0,0.0,1.0,0.450444011018,0,0.0,0.0,0.440001068016,0.364358604111,0.0777209695611,0.442079573673,0.28663763455,nan,nan,0.0,0.0,0.0,nan,nan,284.295652999,585.815861873,586.266305884,586.315886106,nan,nan
0,247,4708,6,1,282,198,0.208142307666,0.34807905204,0.609295500931,1,1.0,1.0,0.298344323412,0,0.0,0.0,0.39049753764,0.364711413156,0.077756285898,0.442467699054,0.286955127258,nan,nan,0.0,0.0,0.0,nan,nan,284.295652999,586.815952534,587.114296857,587.315987886,nan,nan
0,248,4709,6,1,200,140,1.0,-0.0191209939188,0.47515178387,1,1.0,1.0,0.346171478741,0,0.0,0.0,0.36498660439,0.364440527076,0.0777127198336,0.442153246909,0.286727807242,nan,nan,0.0,0.0,0.0,nan,nan,284.295652999,587.81608653,588.162258008,588.316117035,nan,nan
0,249,4710,6,1,313,220,-0.0530221528698,0.42279583272,0.448797959603,1,1.0,1.0,0.266031051055,0,0.0,0.0,0.303515617736,0.364366262651,0.0775633172572,0.441929579909,0.286802945394,nan,nan,0.0,0.0,0.0,nan,nan,284.295652999,588.816215394,589.082246445,589.316252742,nan,nan
0,250,4711,6,1,239,168,0.665069831863,0.183388857662,0.640549267122,1,1.0,1.0,0.28988290485,0,0.0,0.0,0.300695144882,0.363968144386,0.0776575957542,0.44162574014,0.286310548632,nan,nan,0.0,0.0,0.0,nan,nan,284.295652999,589.816351386,590.106234291,590.316373909,nan,nan
0,251,4712,6,1,390,274,-0.0641960347588,0.476284203309,-0.291947553613,1,1.0,1.0,0.281737090088,0,1.0,0.0,0.279217015331,0.363669413581,0.0776429464533,0.441312360035,0.286026467128,nan,nan,0.0,0.0,0.0,nan,nan,284.295652999,590.81649479,591.09823188,591.316527576,nan,nan
0,252,4718,6,1,111,78,1.0,-0.298677811705,-0.336106236365,1,1.0,1.0,0.281595965847,1,0.0,0.0,0.284405320262,0.363340368105,0.0776599496051,0.44100031771,0.2856804185,13.3924977538,109.0,1.0,-0.294638327523,-0.357773695079,-1.43937275375,2.58393279929,284.295652999,591.816614817,592.098210783,592.316645322,593.633491068,596.225465336
0,253,4719,6,1,247,173,0.578947625354,0.219392674348,0.6523805853,1,1.0,1.0,0.391808511689,0,0.0,0.0,0.318380522542,0.363013390496,0.0776760270381,0.440689417534,0.285337363458,nan,nan,0.0,0.0,0.0,nan,nan,284.295652999,597.442303043,597.834111555,597.942351224,nan,nan
0,254,4720,6,1,400,281,-0.0107874812989,0.471427301814,-0.412692688905,1,1.0,1.0,0.239686015993,0,0.0,0.0,0.304363497843,0.363128112095,0.0775423582916,0.440670470386,0.285585753803,nan,nan,0.0,0.0,0.0,nan,nan,284.295652999,598.442434758,598.682120774,598.942476382,nan,nan
0,255,4721,6,0,320,225,-0.0946500390753,0.43494401576,0.398701238857,0,0.0,1.0,0.351476293989,0,0.0,0.0,0.327656940557,0.362638262507,0.0777765070601,0.440414769567,0.284861755447,nan,nan,0.0,0.0,0.0,nan,nan,284.295652999,599.442594698,599.794070992,599.942629765,nan,nan
0,256,4722,6,1,2,1,0.863024578927,0.203622855609,-1.0,1,1.0,1.0,0.271334440447,0,0.0,0.0,0.28749891681,0.362594144054,0.0776258058282,0.440219949883,0.284968338226,nan,nan,0.0,0.0,0.0,nan,nan,284.295652999,600.44271615,600.71405059,600.942758914,nan,nan
0,257,4723,6,1,205,144,1.0,0.00854800403903,0.505535240796,1,1.0,1.0,0.2711670883,0,0.0,0.0,0.297992607579,0.362234853883,0.0776833435718,0.439918197455,0.284551510311,nan,nan,0.0,0.0,0.0,nan,nan,284.295652999,601.442852996,601.714020085,601.942857558,nan,nan
0,258,4724,6,1,86,60,1.0,-0.21659106269,-0.625617802914,1,1.0,1.0,0.351049786434,0,0.0,0.0,0.297850438394,0.36187772539,0.0777395119874,0.439617237378,0.284138213403,nan,nan,0.0,0.0,0.0,nan,nan,284.295652999,602.442971597,602.794021384,602.943007804,nan,nan
0,259,4725,6,0,1,0,0.854939129564,0.207877072944,-1.0,0,0.0,1.0,0.438895269297,0,0.0,0.0,0.35370404801,0.361835428754,0.077590468263,0.439425897017,0.284244960491,nan,nan,0.0,0.0,0.0,nan,nan,284.295652999,603.443109584,603.882004853,603.943139805,nan,nan
0,260,4726,6,1,74,52,1.0,-0.159715158178,-0.810443278181,1,1.0,1.0,0.429380414076,0,0.0,0.0,0.406441823269,0.362135272491,0.0775878312148,0.439723103706,0.284547441276,nan,nan,0.0,0.0,0.0,nan,nan,284.295652999,604.476596319,604.905976733,604.976576933,nan,nan
0,261,4727,6,1,387,272,-0.0787219327085,0.477231755363,-0.256974454483,1,1.0,1.0,0.357280599885,0,0.0,0.0,0.408518761086,0.362395912575,0.0775499681703,0.439945880745,0.284845944405,nan,nan,0.0,0.0,0.0,nan,nan,284.295652999,605.476678427,605.833959027,605.976706367,nan,nan
0,262,4728,6,1,273,191,0.299732959835,0.319577193062,0.635038033336,1,1.0,1.0,0.365128203295,0,0.0,0.0,0.383929739085,0.362376162333,0.0774007631357,0.439776925469,0.284975399197,nan,nan,0.0,0.0,0.0,nan,nan,284.295652999,606.476812708,606.841940911,606.976852908,nan,nan
0,263,4729,6,1,400,281,-0.0107874812989,0.471427301814,-0.412692688905,1,1.0,1.0,0.292955404148,0,0.0,0.0,0.338454735776,0.362386747106,0.077251959928,0.439638707034,0.285134787178,nan,nan,0.0,0.0,0.0,nan,nan,284.295652999,607.476932164,607.769887568,607.976965521,nan,nan
0,264,4730,6,1,211,148,0.948675772315,0.0413606888024,0.538689155053,1,1.0,1.0,0.256012712605,0,0.0,0.0,0.304698773349,0.362120726635,0.0772230491501,0.439343775785,0.284897677485,nan,nan,0.0,0.0,0.0,nan,nan,284.295652999,608.505887555,608.761900268,609.010427168,nan,nan
0,265,4731,6,1,270,189,0.331159066004,0.309369715406,0.641393874915,1,1.0,1.0,0.31567285303,0,0.0,0.0,0.288213656594,0.361715734215,0.0773527451126,0.439068479327,0.284362989102,nan,nan,0.0,0.0,0.0,nan,nan,284.295652999,609.50221578,609.817888633,610.002243149,nan,nan
0,266,4732,6,1,462,324,0.432089675478,0.378486360879,-1.0,1,1.0,1.0,0.363537927158,0,0.0,0.0,0.311741164265,0.361540666225,0.0772575330474,0.438798199273,0.284283133178,nan,nan,0.0,0.0,0.0,nan,nan,284.295652999,610.502328108,610.865866035,611.002371443,nan,nan
0,267,4733,6,1,122,85,1.0,-0.311159539646,-0.219144224573,1,1.0,1.0,0.500188449398,0,0.0,0.0,0.393133076529,0.361548231608,0.077111170742,0.43865940235,0.284437060866,nan,nan,0.0,0.0,0.0,nan,nan,284.295652999,611.502491754,612.002680204,612.002520834,nan,nan
0,268,4734,6,1,205,144,1.0,0.00854800403903,0.505535240796,1,1.0,1.0,0.371289166622,0,0.0,0.0,0.411671847726,0.362071402241,0.077433540535,0.439504942776,0.284637861706,nan,nan,0.0,0.0,0.0,nan,nan,284.295652999,612.50257985,612.873869017,613.002624325,nan,nan
0,269,4735,6,1,143,100,1.0,-0.287057525782,-0.00469998909502,1,1.0,1.0,0.297738205642,0,0.0,0.0,0.38973860722,0.36210605549,0.0772899103828,0.439395965873,0.284816145108,nan,nan,0.0,0.0,0.0,nan,nan,284.295652999,613.536071146,613.833809352,614.03606687,nan,nan
0,270,4736,6,1,271,190,0.320642857732,0.312811632898,0.639400143054,1,1.0,1.0,0.47362103872,0,0.0,0.0,0.380882803661,0.361864977401,0.0772451699789,0.43911014738,0.284619807422,nan,nan,0.0,0.0,0.0,nan,nan,284.295652999,614.536179769,615.009800808,615.036217117,nan,nan
0,271,4737,6,1,143,100,1.0,-0.287057525782,-0.00469998909502,1,1.0,1.0,0.37746181991,0,0.0,0.0,0.382940354757,0.36228197763,0.0774014241416,0.439683401772,0.284880553488,nan,nan,0.0,0.0,0.0,nan,nan,284.295652999,615.536307492,615.913769312,616.036326594,nan,nan
0,272,4738,6,0,191,134,1.0,-0.0691479807067,0.414571651978,0,0.0,1.0,0.393354883417,0,0.0,0.0,0.414812580682,0.36233840827,0.077262944418,0.439601352688,0.285075463852,nan,nan,0.0,0.0,0.0,nan,nan,284.295652999,616.536460305,616.929815188,617.036486248,nan,nan
0,273,4739,6,1,108,75,1.0,-0.292426609412,-0.368663285579,1,1.0,1.0,0.561186839826,0,0.0,0.0,0.444001181051,0.362453284104,0.0771427438978,0.439596028002,0.285310540206,nan,nan,0.0,0.0,0.0,nan,nan,284.295652999,617.536542698,618.097729538,618.036624806,nan,nan
0,274,4740,6,1,185,130,1.0,-0.102214474652,0.370299946716,1,1.0,1.0,0.305039560422,0,0.0,0.0,0.419860427889,0.363186618258,0.077937435425,0.441124053683,0.285249182833,nan,nan,0.0,0.0,0.0,nan,nan,284.295652999,618.536689524,618.841729084,619.03672231,nan,nan
0,275,4741,6,1,313,220,-0.0530221528698,0.42279583272,0.448797959603,1,1.0,1.0,0.352896936238,0,0.0,0.0,0.406374445496,0.36297284231,0.0778735950374,0.440846437348,0.285099247273,nan,nan,0.0,0.0,0.0,nan,nan,284.295652999,619.536820954,619.88971789,620.036859157,nan,nan
0,276,4742,6,0,383,269,-0.0968787136249,0.478131214543,-0.211081409456,0,0.0,1.0,0.592706969939,0,0.0,0.0,0.416881155533,0.362935934229,0.0777332218732,0.440669156103,0.285202712356,nan,nan,0.0,0.0,0.0,nan,nan,284.295652999,620.536962362,621.129669332,621.037006837,nan,nan
0,277,4743,6,1,37,26,1.0,0.0358565504353,-1.0,1,1.0,1.0,0.424587064423,0,0.0,0.0,0.456730323533,0.363774514652,0.0788186482172,0.442593162869,0.284955866434,nan,nan,0.0,0.0,0.0,nan,nan,284.295652999,621.537075831,621.961662895,622.037106907,nan,nan
0,278,4744,6,1,304,213,0.0113092810281,0.404708921832,0.506160370659,1,1.0,1.0,0.39244798664,0,0.0,0.0,0.469914007001,0.363995651196,0.0787603187674,0.442755969964,0.285235332429,nan,nan,0.0,0.0,0.0,nan,nan,284.295652999,622.537202985,622.929650972,623.037239192,nan,nan
0,279,4745,6,1,446,313,0.304696255059,0.41359904426,-1.0,1,1.0,1.0,0.360304917209,0,0.0,0.0,0.392446656091,0.364098739368,0.0786360920078,0.442734831376,0.28546264736,nan,nan,0.0,0.0,0.0,nan,nan,284.295652999,623.537327858,623.897632775,624.037364635,nan,nan
0,280,4746,6,1,246,172,0.589768841079,0.215019897151,0.651339528662,1,1.0,1.0,0.352176493034,0,0.0,0.0,0.368309798961,0.364085043259,0.0784943510537,0.442579394313,0.285590692206,nan,nan,0.0,0.0,0.0,nan,nan,284.295652999,624.537442182,624.889618675,625.037493499,nan,nan
0,281,4747,6,1,200,140,1.0,-0.0191209939188,0.47515178387,1,1.0,1.0,0.312075774185,0,0.0,0.0,0.341519061476,0.364042206748,0.0783562904707,0.442398497218,0.285685916277,nan,nan,0.0,0.0,0.0,nan,nan,284.295652999,625.537583306,625.84965908,626.037607823,nan,nan
0,282,4748,6,1,105,73,1.0,-0.285049837405,-0.401580786678,1,1.0,1.0,0.335838963278,0,0.0,0.0,0.333363743499,0.363855947133,0.0782773702204,0.442133317353,0.285578576912,nan,nan,0.0,0.0,0.0,nan,nan,284.295652999,626.537725569,626.873564532,627.037733837,nan,nan
0,283,4749,6,1,159,111,1.0,-0.231765974528,0.149055008463,1,1.0,1.0,0.295703176409,0,0.0,0.0,0.314539304624,0.363755886476,0.0781553369467,0.441911223423,0.285600549529,nan,nan,0.0,0.0,0.0,nan,nan,284.295652999,627.537863271,627.833566448,628.03785928,nan,nan
0,284,4750,6,1,415,291,0.0813077335083,0.459153678902,-0.614968023274,1,1.0,1.0,0.287580169737,0,0.0,0.0,0.306374103141,0.363513706013,0.0781213255802,0.441635031594,0.285392380433,nan,nan,0.0,0.0,0.0,nan,nan,284.295652999,628.537953647,628.825533817,629.037985293,nan,nan
0,285,4751,6,1,29,20,1.0,0.0770173926463,-1.0,1,1.0,1.0,0.27142481599,0,1.0,0.0,0.284902720712,0.363244438154,0.0781132116189,0.441357649773,0.285131226535,nan,nan,0.0,0.0,0.0,nan,nan,284.295652999,629.538089069,629.809513885,630.038111021,nan,nan
0,286,4756,6,1,307,215,-0.0113868739462,0.411053355611,0.487957006857,1,1.0,1.0,0.341946613044,1,0.0,0.0,0.30031719959,0.362919987193,0.0781652022373,0.44108518943,0.284754784955,-143.181350802,332.0,-0.146647089803,0.45205423783,0.302714191958,17.3219758016,2.17558120098,284.295652999,630.57156326,630.913509873,631.071576374,632.405089794,634.588692507
0,287,4757,6,1,191,134,1.0,-0.0691479807067,0.414571651978,1,1.0,1.0,0.540195941925,0,0.0,0.0,0.384522456986,0.362846137284,0.0780373557506,0.440883493034,0.284808781533,nan,nan,0.0,0.0,0.0,nan,nan,284.295652999,635.797222747,636.337418689,636.297288035,nan,nan
0,288,4758,6,1,314,220,-0.0594438881467,0.42463230952,0.441925406839,1,1.0,1.0,0.308051618747,0,0.0,0.0,0.396731391239,0.3634684173,0.0786030220715,0.442071439371,0.284865395228,nan,nan,0.0,0.0,0.0,nan,nan,284.295652999,636.797354463,637.105406081,637.297393521,nan,nan
0,289,4759,6,1,145,101,1.0,-0.281667413287,0.0150551701241,1,1.0,1.0,0.259924540296,0,0.0,0.0,0.369390700323,0.36327465227,0.0785336389814,0.441808291251,0.284741013288,nan,nan,0.0,0.0,0.0,nan,nan,284.295652999,637.797479906,638.057404446,638.297520675,nan,nan
0,290,4800,6,1,304,213,0.0113092810281,0.404708921832,0.506160370659,1,1.0,1.0,0.251745083369,0,1.0,0.0,0.273240414138,0.36291454735,0.0786328811617,0.441547428512,0.284281666188,nan,nan,0.0,0.0,0.0,nan,nan,284.295652999,638.797607345,639.049352428,639.297631863,nan,nan
0,291,4804,6,1,6,4,0.895129075663,0.186272780825,-1.0,1,1.0,1.0,0.251653566957,1,0.0,0.0,0.254441063541,0.362528542267,0.078768164741,0.441296707008,0.283760377526,56.6649203698,47.0,1.0,-0.0170755915744,-1.0,29.1163296302,1.33388832398,284.295652999,639.797711976,640.049365543,640.297760727,641.622917645,642.964756777
0,292,4805,6,1,264,185,0.394966959701,0.287889713878,0.650717615019,1,1.0,1.0,0.475645232946,0,0.0,0.0,0.326347961091,0.362144891833,0.0789008569471,0.44104574878,0.283244034886,nan,nan,0.0,0.0,0.0,nan,nan,284.295652999,644.181596764,644.657241997,644.681642665,nan,nan
0,293,4806,6,1,492,345,0.681403316433,0.289222019555,-1.0,1,1.0,1.0,0.371512969024,0,0.0,0.0,0.366270589642,0.36253627232,0.0790452222424,0.441581494562,0.283491050077,nan,nan,0.0,0.0,0.0,nan,nan,284.295652999,645.181745585,645.553258554,645.681780082,nan,nan
0,294,4807,6,1,436,306,0.228681708805,0.431413732101,-1.0,1,1.0,1.0,0.291327495128,0,0.0,0.0,0.379495232366,0.362567120075,0.0789110373942,0.441478157469,0.283656082681,nan,nan,0.0,0.0,0.0,nan,nan,284.295652999,646.181890415,646.47321791,646.68190524,nan,nan
0,295,4808,6,1,216,151,0.900975005756,0.0682271079607,0.563426584804,1,1.0,1.0,0.227229236625,0,0.0,0.0,0.296689900259,0.362323148757,0.0788856612343,0.441208809991,0.283437487522,nan,nan,0.0,0.0,0.0,nan,nan,284.295652999,647.182003029,647.409232265,647.682033534,nan,nan
0,296,4809,6,1,476,334,0.547545041103,0.340739382997,-1.0,1,1.0,1.0,0.275042707101,0,1.0,0.0,0.264533146285,0.361862077384,0.079144072224,0.441006149608,0.28271800516,nan,nan,0.0,0.0,0.0,nan,nan,284.295652999,648.182131893,648.4571746,648.682155271,nan,nan
0,297,4810,6,0,58,40,1.0,-0.0760896648475,-1.0,0,1.0,0.0,0.242966922,0,0.0,0.0,0.248412955242,0.361566773404,0.0791708891011,0.440737662505,0.282395884302,nan,nan,0.0,0.0,0.0,nan,nan,284.295652999,649.182243366,649.425210288,649.682308083,nan,nan
0,298,4811,6,1,184,129,1.0,-0.107671891867,0.362640045218,1,1.0,1.0,0.330781042576,0,0.0,0.0,0.282930223892,0.361164740009,0.07933663462,0.440501374629,0.281828105389,nan,nan,0.0,0.0,0.0,nan,nan,284.295652999,650.182388481,650.513169523,650.682434096,nan,nan
0,299,4812,6,1,341,239,-0.168535884224,0.46196150489,0.223260112086,1,1.0,1.0,0.306650077924,0,0.0,0.0,0.293466014167,0.361062092382,0.0792221265703,0.440284218953,0.281839965812,nan,nan,0.0,0.0,0.0,nan,nan,284.295652999,651.182518485,651.489168563,651.682566382,nan,nan
0,300,4813,6,1,158,111,1.0,-0.235949227405,0.139764106,1,1.0,1.0,0.402483999729,0,0.0,0.0,0.34663837341,0.360878886947,0.079151427962,0.440030314909,0.281727458985,nan,nan,0.0,0.0,0.0,nan,nan,284.295652999,652.182643929,652.585127928,652.682662745,nan,nan
0,301,4814,6,1,44,30,1.0,-0.00106984144607,-1.0,1,1.0,1.0,0.40232006833,0,0.0,0.0,0.370484715328,0.361018501419,0.0790551352843,0.440073636703,0.281963366135,nan,nan,0.0,0.0,0.0,nan,nan,284.295652999,653.182784197,653.585104265,653.682807289,nan,nan
0,302,4815,6,1,415,291,0.0813077335083,0.459153678902,-0.614968023274,1,1.0,1.0,0.313926629722,0,0.0,0.0,0.372910232594,0.36115663375,0.078958839664,0.440115473414,0.282197794086,nan,nan,0.0,0.0,0.0,nan,nan,284.295652999,654.1831591,654.49708573,654.682969796,nan,nan
0,303,4816,6,1,165,116,1.0,-0.205056383665,0.203745440608,1,1.0,1.0,0.266087785363,0,0.0,0.0,0.327444827805,0.360999200403,0.0788741243515,0.439873324755,0.282125076052,nan,nan,0.0,0.0,0.0,nan,nan,284.295652999,655.183023393,655.449111179,655.683053329,nan,nan
0,304,4817,6,1,317,222,-0.077772836126,0.429938605076,0.420733606481,1,1.0,1.0,0.225930901244,0,1.0,0.0,0.268648438777,0.360683880087,0.0789321693926,0.43961604948,0.281751710695,nan,nan,0.0,0.0,0.0,nan,nan,284.295652999,656.183141424,656.409072326,656.683175351,nan,nan
0,305,4822,6,1,461,324,0.423959648591,0.380927367285,-1.0,1,1.0,1.0,0.200406378135,1,0.0,0.0,0.230808354914,0.360237678171,0.079180712397,0.439418390568,0.281056965774,129.289406863,456.0,0.383612429175,0.392633185378,-1.0,-3.4300318625,1.23379247449,284.295652999,657.216642129,657.417048507,657.716638423,659.050145855,660.291977233
0,306,4823,6,1,132,92,1.0,-0.307426825298,-0.115555361894,1,1.0,1.0,0.580099374056,0,0.0,0.0,0.335478884478,0.359710182131,0.0795796810816,0.439289863212,0.280130501049,nan,nan,0.0,0.0,0.0,nan,nan,284.295652999,661.508842023,662.088941397,662.008898187,nan,nan
0,307,4824,6,0,275,193,0.279002393219,0.326185254474,0.630178474337,0,0.0,1.0,0.4679530086,0,0.0,0.0,0.416152920264,0.360435146578,0.0804446542912,0.440879800869,0.279990492287,nan,nan,0.0,0.0,0.0,nan,nan,284.295652999,662.508978586,662.976931594,663.009011086,nan,nan
0,308,4825,6,1,372,261,-0.138660017671,0.478458869494,-0.0888123791441,1,1.0,1.0,0.307837224565,0,0.0,0.0,0.451963202407,0.360787664158,0.0805475173787,0.441335181537,0.28024014678,nan,nan,0.0,0.0,0.0,nan,nan,284.295652999,663.50909348,663.816930705,664.00913938,nan,nan
0,309,4826,6,0,111,78,1.0,-0.298677811705,-0.336106236365,0,0.0,1.0,0.363666220568,0,0.0,0.0,0.379818817911,0.360614623506,0.0804725598914,0.441087183398,0.280142063615,nan,nan,0.0,0.0,0.0,nan,nan,284.295652999,664.509232323,664.872898543,665.00926796,nan,nan
0,310,4827,6,1,256,180,0.481312611765,0.257047908656,0.656065722404,1,1.0,1.0,0.299562260509,0,0.0,0.0,0.323688568547,0.360624563562,0.0803415783483,0.44096614191,0.280282985213,nan,nan,0.0,0.0,0.0,nan,nan,284.295652999,665.509335528,665.808897789,666.009386846,nan,nan
0,311,4828,6,1,389,273,-0.0691208065164,0.476626077068,-0.280234315682,1,1.0,1.0,0.339411809109,0,0.0,0.0,0.334213430062,0.360426309331,0.0802862299761,0.440712539307,0.280140079355,nan,nan,0.0,0.0,0.0,nan,nan,284.295652999,666.509491476,666.848903285,667.009501169,nan,nan
0,312,4829,6,1,322,226,-0.105067232891,0.43811622051,0.383559350674,1,1.0,1.0,0.307277577929,0,0.0,0.0,0.315417215849,0.36035830124,0.0801650971794,0.440523398419,0.28019320406,nan,nan,0.0,0.0,0.0,nan,nan,284.295652999,667.509591831,667.816869409,668.009626613,nan,nan
0,313,4830,6,1,66,46,1.0,-0.118568705386,-1.0,1,1.0,1.0,0.3471026076,0,0.0,0.0,0.331263998213,0.3601870731,0.0800922714096,0.44027934451,0.28009480169,nan,nan,0.0,0.0,0.0,nan,nan,284.295652999,668.509709291,668.856811899,669.009758328,nan,nan
0,314,4831,6,1,487,342,0.639529740128,0.306295026098,-1.0,1,1.0,1.0,0.362930954434,0,0.0,0.0,0.339103713321,0.360145000864,0.0799668330364,0.4401118339,0.280178167827,nan,nan,0.0,0.0,0.0,nan,nan,284.295652999,669.50988149,669.872812444,670.009893749,nan,nan
0,315,4832,6,1,174,122,1.0,-0.160790688716,0.281981279739,1,1.0,1.0,0.426786024123,0,0.0,0.0,0.378939862053,0.360153930202,0.0798387335039,0.439992663706,0.280315196698,nan,nan,0.0,0.0,0.0,nan,nan,284.295652999,670.510010354,670.936796378,671.010020618,nan,nan
0,316,4833,6,0,331,232,-0.143297839787,0.450801753776,0.311166711333,0,0.0,1.0,0.482648376375,0,0.0,0.0,0.424121784978,0.360366812291,0.0797997361976,0.440166548489,0.280567076094,nan,nan,0.0,0.0,0.0,nan,nan,284.295652999,671.510132946,671.992781322,672.010162312,nan,nan
0,317,4834,6,1,119,83,1.0,-0.309446327048,-0.250710895617,1,1.0,1.0,0.45853594318,0,0.0,0.0,0.45599011456,0.360756244024,0.0799699087997,0.440726152824,0.280786335224,nan,nan,0.0,0.0,0.0,nan,nan,284.295652999,672.51023102,672.968766963,673.01028918,nan,nan
0,318,4835,6,1,367,258,-0.15309091083,0.477560897992,-0.0350816338538,1,1.0,1.0,0.490383650176,0,0.0,0.0,0.477189323244,0.361066655767,0.0800321169662,0.441098772734,0.281034538801,nan,nan,0.0,0.0,0.0,nan,nan,284.295652999,673.510364731,674.000748381,674.018722088,nan,nan
0,319,4836,6,1,234,164,0.71814774995,0.15974031316,0.62913160129,1,1.0,1.0,0.474220884964,0,0.0,1.0,0.47438015944,0.361475886762,0.0802348014816,0.441710688244,0.281241085281,nan,nan,0.0,0.0,0.0,nan,nan,284.295652999,674.510505854,674.984726739,675.010539781,nan,nan
0,320,4842,6,1,436,306,0.228681708805,0.431413732101,-1.0,1,1.0,1.0,0.458119414747,1,0.0,0.0,0.474241316629,0.361831549217,0.0803572527884,0.442188802006,0.281474296429,-39.5767814032,184.0,1.0,-0.107671891867,0.362640045218,-176.985718597,2.87565857638,284.295652999,675.510599936,675.968719351,676.010643842,677.344143292,680.227843623
0,321,4843,6,1,481,338,0.589289488337,0.325611856148,-1.0,1,1.0,1.0,0.48391820211,0,0.0,0.0,0.472086167273,0.362134341247,0.0804117258465,0.442546067094,0.281722615401,nan,nan,0.0,0.0,0.0,nan,nan,284.295652999,681.444695869,681.928614071,681.944734642,nan,nan
0,322,4844,6,1,402,282,0.000724920831492,0.470139955471,-0.437811562499,1,1.0,1.0,0.331754936837,0,0.0,0.0,0.424597517898,0.362516108836,0.0805737134707,0.443089822307,0.281942395365,nan,nan,0.0,0.0,0.0,nan,nan,284.295652999,682.444844119,682.776599056,682.944888595,nan,nan
0,323,4845,6,1,101,71,1.0,-0.273572672894,-0.446152610616,1,1.0,1.0,0.323628508486,0,0.0,0.0,0.379767215811,0.362419980174,0.0804660375981,0.442886017772,0.281953942576,nan,nan,0.0,0.0,0.0,nan,nan,284.295652999,683.444958159,683.768586667,683.944993511,nan,nan
0,324,4846,6,1,157,110,1.0,-0.240048375319,0.130425901556,1,1.0,1.0,0.355456545018,0,0.0,0.0,0.336946663447,0.362299134467,0.0803696816072,0.442668816075,0.28192945286,nan,nan,0.0,0.0,0.0,nan,nan,284.295652999,684.445098141,684.800554686,684.945138626,nan,nan
0,325,4847,6,1,49,34,1.0,-0.027785429985,-1.0,1,1.0,1.0,0.331322728656,0,0.0,0.0,0.336802594053,0.36227788419,0.0802456901238,0.442523574313,0.282032194066,nan,nan,0.0,0.0,0.0,nan,nan,284.295652999,685.445228146,685.776550875,685.94525409,nan,nan
0,326,4848,6,1,118,82,1.0,-0.308588151016,-0.261285249573,1,1.0,1.0,0.275190958753,0,0.0,0.0,0.320656744142,0.362182047795,0.0801398284056,0.4423218762,0.282042219389,nan,nan,0.0,0.0,0.0,nan,nan,284.295652999,686.445350453,686.720541412,686.945382099,nan,nan
0,327,4849,6,1,182,127,1.0,-0.118523835432,0.347089474713,1,1.0,1.0,0.291053801775,0,0.0,0.0,0.299189163061,0.361913556779,0.0801614254955,0.442074982275,0.281752131284,nan,nan,0.0,0.0,0.0,nan,nan,284.295652999,687.445482453,687.736536255,687.945526644,nan,nan
0,328,4850,6,0,428,300,0.170378320166,0.443486568519,-0.86866140055,0,0.0,1.0,0.458857533522,0,0.0,0.0,0.341700764683,0.361695526764,0.0801341643432,0.441829691107,0.281561362421,nan,nan,0.0,0.0,0.0,nan,nan,284.295652999,688.445623862,688.904481395,688.945652086,nan,nan
0,329,4851,6,1,250,175,0.546428449327,0.232286661223,0.654747725831,1,1.0,1.0,0.330725449137,0,0.0,0.0,0.360212261478,0.361993569729,0.080191371814,0.442184941543,0.281802197915,nan,nan,0.0,0.0,0.0,nan,nan,284.295652999,689.44573619,689.776461639,689.945757573,nan,nan
0,330,4852,6,1,125,87,1.0,-0.311567427947,-0.187805059354,1,1.0,1.0,0.338584170677,0,0.0,0.0,0.376055717779,0.361897948565,0.0800872727033,0.441985221269,0.281810675862,nan,nan,0.0,0.0,0.0,nan,nan,284.295652999,690.445879309,690.78446348,690.945909815,nan,nan
0,331,4853,6,1,279,196,0.238157575771,0.338930353633,0.618978422254,1,1.0,1.0,0.37044869829,0,0.0,0.0,0.346586106035,0.361826869974,0.0799754244564,0.441802294431,0.281851445518,nan,nan,0.0,0.0,0.0,nan,nan,284.295652999,691.445993349,691.816442047,691.946020148,nan,nan
0,332,4854,6,1,151,106,1.0,-0.262720288689,0.0734626651272,1,1.0,1.0,0.313944591209,0,0.0,0.0,0.340992486725,0.361853076139,0.0798551991891,0.441708275329,0.28199787695,nan,nan,0.0,0.0,0.0,nan,nan,284.295652999,692.45447729,692.768421881,692.954493255,nan,nan
0,333,4855,6,1,68,47,1.0,-0.129018143495,-0.972903198114,1,1.0,1.0,0.305825574324,0,0.0,0.0,0.330072954608,0.361707898912,0.0797775857345,0.441485484647,0.281930313178,nan,nan,0.0,0.0,0.0,nan,nan,284.295652999,693.454588763,693.760414338,693.95462269,nan,nan
0,334,4856,6,1,1,0,0.854939129564,0.207877072944,-1.0,1,1.0,1.0,0.273664830253,0,0.0,0.0,0.297811665262,0.361539070137,0.079716003672,0.441255073809,0.281823066465,nan,nan,0.0,0.0,0.0,nan,nan,284.295652999,694.454712495,694.728377325,694.954752694,nan,nan
0,335,4857,6,1,135,94,1.0,-0.303502321856,-0.0849788702499,1,1.0,1.0,0.353515028022,0,0.0,0.0,0.311001810866,0.361274388692,0.0797413906345,0.441015779326,0.281532998057,nan,nan,0.0,0.0,0.0,nan,nan,284.295652999,695.454836798,695.808351826,695.954876142,nan,nan
0,336,4858,6,1,394,277,-0.0437090198531,0.474655926729,-0.339401417396,1,1.0,1.0,0.28938056156,0,0.0,0.0,0.305520139945,0.361251087308,0.07962270077,0.440873788078,0.281628386538,nan,nan,0.0,0.0,0.0,nan,nan,284.295652999,696.454964237,696.744344799,696.954998448,nan,nan
0,337,4859,6,1,496,348,0.714833717156,0.274923884212,-1.0,1,1.0,1.0,0.249251903966,0,0.0,0.0,0.29738249785,0.361035906093,0.0796003266405,0.440636232734,0.281435579453,nan,nan,0.0,0.0,0.0,nan,nan,284.295652999,697.455083122,697.704335026,697.955110777,nan,nan
0,338,4900,6,1,38,26,1.0,0.0306259494545,-1.0,1,1.0,1.0,0.265106762759,0,1.0,0.0,0.267913076095,0.360702222505,0.0797150367109,0.440417259216,0.280987185794,nan,nan,0.0,0.0,0.0,nan,nan,284.295652999,698.455201724,698.720308486,698.955243348,nan,nan
0,339,4904,6,0,185,130,1.0,-0.102214474652,0.370299946716,0,0.0,1.0,0.500245184638,1,0.0,0.0,0.338201283788,0.360417712208,0.0797664833149,0.440184195523,0.280651228893,-25.4077181089,164.0,1.0,-0.209685835145,0.194761549991,-14.6704068911,1.30044549424,284.295652999,699.455331728,699.955576912,699.955417543,701.288870522,702.597365468
0,340,4905,6,1,366,257,-0.155593376329,0.477302029306,-0.0244766492797,1,1.0,1.0,0.401990495622,0,0.0,0.0,0.389114147673,0.360832630524,0.080010351151,0.440842981675,0.280822279373,nan,nan,0.0,0.0,0.0,nan,nan,284.295652999,703.814240237,704.216230732,704.314258483,nan,nan
0,341,4906,6,1,471,331,0.506014005179,0.354993781952,-1.0,1,1.0,1.0,0.273892623372,0,0.0,0.0,0.392042767877,0.360954399356,0.079923171842,0.440877571198,0.281031227514,nan,nan,0.0,0.0,0.0,nan,nan,284.295652999,704.814362544,705.088255167,705.314381075,nan,nan
0,342,4907,6,1,308,216,-0.0186828559465,0.413097475488,0.481682330771,1,1.0,1.0,0.313688857481,0,0.0,0.0,0.329857325492,0.360697579957,0.0799447545598,0.440642334517,0.280752825398,nan,nan,0.0,0.0,0.0,nan,nan,284.295652999,705.814476868,706.128165726,706.314511364,nan,nan
0,343,4908,6,1,201,141,1.0,-0.0135712615467,0.48142235136,1,1.0,1.0,0.361519719474,0,0.0,0.0,0.316367066776,0.360559319009,0.0798676817965,0.440427000806,0.280691637212,nan,nan,0.0,0.0,0.0,nan,nan,284.295652999,706.814625119,707.176144838,707.314664748,nan,nan
0,344,4909,6,1,484,340,0.614398947124,0.316112737715,-1.0,1,1.0,1.0,0.353363926522,0,0.0,0.0,0.342857501159,0.360562135433,0.079750504685,0.440312640118,0.280811630748,nan,nan,0.0,0.0,0.0,nan,nan,284.295652999,707.814771659,708.168135585,708.31477394,nan,nan
0,345,4910,6,1,172,120,1.0,-0.170984061773,0.265024678188,1,1.0,1.0,0.425253337249,0,0.0,0.0,0.380045661082,0.360541088038,0.0796347734894,0.440175861528,0.280906314549,nan,nan,0.0,0.0,0.0,nan,nan,284.295652999,708.814875435,709.240128772,709.314896532,nan,nan
0,346,4911,6,1,66,46,1.0,-0.118568705386,-1.0,1,1.0,1.0,0.359074150212,0,0.0,0.0,0.379230471328,0.360729753488,0.0795951104446,0.440324863932,0.281134643043,nan,nan,0.0,0.0,0.0,nan,nan,284.295652999,709.865020435,710.224094586,710.365050941,nan,nan
0,347,4912,6,1,251,176,0.535576518695,0.236509187076,0.655284151108,1,1.0,1.0,0.34291965235,0,0.0,0.0,0.375749046604,0.360724940688,0.0794793856582,0.440204326346,0.281245555029,nan,nan,0.0,0.0,0.0,nan,nan,284.295652999,710.865160704,711.208080356,711.365155857,nan,nan
0,348,4913,6,1,397,279,-0.0275613476434,0.473159987783,-0.37569455347,1,1.0,1.0,0.382795429789,0,0.0,0.0,0.361596410784,0.360673331156,0.0793698868446,0.440043218001,0.281303444312,nan,nan,0.0,0.0,0.0,nan,nan,284.295652999,711.865265905,712.248061335,712.365307814,nan,nan
0,349,4914,6,1,107,75,1.0,-0.290089771429,-0.379592780214,1,1.0,1.0,0.398619784042,0,0.0,0.0,0.374778288727,0.360737267857,0.079264004367,0.440001272224,0.28147326349,nan,nan,0.0,0.0,0.0,nan,nan,284.295652999,712.865421568,713.264041352,713.365432116,nan,nan
0,350,4915,6,1,448,315,0.32026743599,0.409662251776,-1.0,1,1.0,1.0,0.526507825591,0,0.0,0.0,0.435974346474,0.360846439374,0.0791757548779,0.440022194252,0.281670684496,nan,nan,0.0,0.0,0.0,nan,nan,284.295652999,713.865523063,714.392030888,714.36560289,nan,nan
0,351,4916,6,1,501,352,0.7564492333,0.256253544744,-1.0,1,1.0,1.0,0.49436589703,0,0.0,1.0,0.473164502221,0.36132247784,0.0795576580003,0.44088013584,0.28176481984,nan,nan,0.0,0.0,0.0,nan,nan,284.295652999,714.865652497,715.360018394,715.374022114,nan,nan
0,352,4921,6,1,263,184,0.405698801511,0.284171736334,0.651829885785,1,1.0,1.0,0.454229540192,1,0.0,0.0,0.491701087604,0.361703691075,0.0797612541189,0.441464945194,0.281942436957,-102.716574105,274.0,0.289344050657,0.322900892411,0.632670269059,7.79469910466,1.77560320962,284.295652999,715.86577566,716.3200052,716.365809301,717.682629389,719.466189679
0,353,4922,6,0,356,250,-0.17284377641,0.473239407326,0.0788368070227,0,1.0,0.0,0.469173798338,0,0.0,0.0,0.472589745186,0.361968050644,0.0798001950502,0.441768245695,0.282167855594,nan,nan,0.0,0.0,0.0,nan,nan,284.295652999,720.67473674,721.143910538,721.174767531,nan,nan
0,354,4923,6,1,58,40,1.0,-0.0760896648475,-1.0,1,1.0,1.0,0.317032199353,0,0.0,0.0,0.413478512627,0.362273480125,0.0798910444664,0.442164524591,0.282382435659,nan,nan,0.0,0.0,0.0,nan,nan,284.295652999,721.674847929,721.991880128,722.17489668,nan,nan
0,355,4924,6,1,283,198,0.19826868328,0.351050922538,0.605825948857,1,1.0,1.0,0.468892691657,0,0.0,0.0,0.418366229783,0.362144953759,0.0798138135766,0.441958767336,0.282331140182,nan,nan,0.0,0.0,0.0,nan,nan,284.295652999,722.674978788,723.14387148,723.174997604,nan,nan
0,356,4925,6,1,451,317,0.343830962376,0.403518361206,-1.0,1,1.0,1.0,0.396753819659,0,0.0,0.0,0.39422623689,0.362447355283,0.0799023657359,0.442349721019,0.282544989547,nan,nan,0.0,0.0,0.0,nan,nan,284.295652999,723.675103376,724.071857195,724.175145855,nan,nan
0,357,4926,6,1,59,41,1.0,-0.0814409933332,-1.0,1,1.0,1.0,0.396564799361,0,0.0,0.0,0.420737103559,0.362544266199,0.0798102019473,0.442354468147,0.282734064252,nan,nan,0.0,0.0,0.0,nan,nan,284.295652999,724.675256759,725.071821558,725.175252482,nan,nan
0,358,4927,6,1,107,75,1.0,-0.290089771429,-0.379592780214,1,1.0,1.0,0.308477840386,0,0.0,0.0,0.367265486469,0.362640098687,0.0797181077023,0.442358206389,0.282921990985,nan,nan,0.0,0.0,0.0,nan,nan,284.295652999,725.675344854,725.983822694,726.175378496,nan,nan
0,359,4928,6,1,43,30,1.0,0.00424534395127,-1.0,1,1.0,1.0,0.28433547169,0,0.0,0.0,0.329792703812,0.362487957512,0.079657660022,0.442145617534,0.28283029749,nan,nan,0.0,0.0,0.0,nan,nan,284.295652999,726.675494815,726.959830287,727.175525891,nan,nan
0,360,4929,6,1,134,94,1.0,-0.304950998219,-0.095144111098,1,1.0,1.0,0.212216555141,0,1.0,0.0,0.268343289072,0.362269042986,0.0796531827458,0.441922225732,0.28261586024,nan,nan,0.0,0.0,0.0,nan,nan,284.295652999,727.675599447,727.887816002,728.175657892,nan,nan
0,361,4934,6,1,212,149,0.93926288676,0.0467731277665,0.543851001166,1,1.0,1.0,0.292012300342,1,0.0,0.0,0.262854775724,0.361849901958,0.0799351272436,0.441785029202,0.281914774715,-65.3361852875,221.0,0.851781464038,0.0945411604707,0.585422935822,6.27368528754,1.70050217211,284.295652999,728.675741995,728.967754295,729.175779343,730.509267104,732.217824999
0,362,4935,6,1,479,336,0.572572153349,0.331768222426,-1.0,1,1.0,1.0,0.48536877986,0,0.0,0.0,0.329865878448,0.361655368249,0.0799085358059,0.441563904055,0.281746832443,nan,nan,0.0,0.0,0.0,nan,nan,284.295652999,733.426329867,733.911698647,733.926366074,nan,nan
0,363,4936,6,1,351,246,-0.175686286722,0.4701852659,0.128489978773,1,1.0,1.0,0.645184640773,0,0.0,0.0,0.474188573658,0.361999016615,0.0800626802067,0.442061696821,0.281936336408,nan,nan,0.0,0.0,0.0,nan,nan,284.295652999,734.426480399,735.071665039,734.926539699,nan,nan
0,364,4937,6,1,453,318,0.359670421306,0.39926174925,-1.0,1,1.0,1.0,0.357072479092,0,0.0,1.0,0.495875299908,0.362783464327,0.0813253059956,0.444108770323,0.281458158332,nan,nan,0.0,0.0,0.0,nan,nan,284.295652999,735.426595578,735.783668057,735.926642049,nan,nan
0,365,4943,6,1,251,176,0.535576518695,0.236509187076,0.655284151108,1,1.0,1.0,0.404914174229,1,0.0,0.0,0.469057098031,0.362767688125,0.0812134537093,0.443981141834,0.281554234415,-101.158222909,272.0,0.310166696092,0.316214117232,0.637281430288,14.6738479093,3.15905408002,284.295652999,736.426719311,736.831633485,736.926757799,738.260259815,741.427348807
0,366,4944,6,1,201,141,1.0,-0.0135712615467,0.48142235136,1,1.0,1.0,0.379352873191,0,0.0,0.0,0.380446508837,0.362883794147,0.0811315923523,0.444015386499,0.281752201795,nan,nan,0.0,0.0,0.0,nan,nan,284.295652999,742.644182807,743.02353568,743.144230133,nan,nan
0,367,4945,6,1,23,16,1.0,0.106943944166,-1.0,1,1.0,1.0,0.283209620044,0,0.0,0.0,0.355825555821,0.36292903887,0.0810246569309,0.443953695801,0.281904381939,nan,nan,0.0,0.0,0.0,nan,nan,284.295652999,743.644306539,743.927516159,744.144346452,nan,nan
0,368,4946,6,1,426,299,0.156193047225,0.446210853967,-0.81485970128,1,1.0,1.0,0.267058257945,0,0.0,0.0,0.309873583727,0.362710629503,0.081020815277,0.44373144478,0.281689814226,nan,nan,0.0,0.0,0.0,nan,nan,284.295652999,744.644445382,744.91150364,745.144478738,nan,nan
0,369,4947,6,1,353,248,-0.175041255135,0.471490071959,0.108799216003,1,1.0,1.0,0.210971533321,0,1.0,0.0,0.253746470436,0.362449284226,0.081063968928,0.443513253154,0.281385315298,nan,nan,0.0,0.0,0.0,nan,nan,284.295652999,745.64458508,745.855556613,746.144636682,nan,nan
0,370,4952,6,1,241,169,0.64365311028,0.192605941253,0.644254782112,1,1.0,1.0,0.26675519906,1,0.0,0.0,0.248261663442,0.36203653831,0.0813376474322,0.443374185743,0.280698890878,-87.7093899574,253.0,0.513865899396,0.244839928328,0.655977188727,8.25626495736,2.03388843872,284.295652999,746.644703396,746.911458595,747.144728199,748.478223657,750.520153849
0,371,4953,6,1,369,259,-0.147694689129,0.477999187239,-0.0564338676883,1,1.0,1.0,0.334364152513,0,0.0,0.0,0.270696961631,0.361777621628,0.0813783633887,0.443155985016,0.280399258239,nan,nan,0.0,0.0,0.0,nan,nan,284.295652999,751.73700182,752.071365972,752.237057984,nan,nan
0,372,4954,6,0,105,73,1.0,-0.285049837405,-0.401580786678,0,0.0,1.0,0.374202867039,0,0.0,0.0,0.325107406204,0.361703330383,0.0812805149026,0.442983845286,0.280422815481,nan,nan,0.0,0.0,0.0,nan,nan,284.295652999,752.737161759,753.111364626,753.237203954,nan,nan
0,373,4955,6,1,482,338,0.597655625539,0.322480811492,-1.0,1,1.0,1.0,0.34206635505,0,0.0,0.0,0.350211124867,0.361737112915,0.0811731960836,0.442910308999,0.280563916831,nan,nan,0.0,0.0,0.0,nan,nan,284.295652999,753.737271522,754.079337877,754.237298321,nan,nan
0,374,4956,6,1,411,288,0.0555201669072,0.463022710015,-0.557054760163,1,1.0,1.0,0.301906335168,0,0.0,0.0,0.339391852419,0.361684092004,0.081070139807,0.442754231811,0.280613952197,nan,nan,0.0,0.0,0.0,nan,nan,284.295652999,754.737399817,755.039306152,755.237424619,nan,nan
0,375,4957,6,1,290,203,0.131265381085,0.370776544741,0.578206616232,1,1.0,1.0,0.309747380204,0,0.0,0.0,0.317906690141,0.361523399109,0.0810202440885,0.442543643198,0.280503155021,nan,nan,0.0,0.0,0.0,nan,nan,284.295652999,755.737545216,756.047292597,756.237546641,nan,nan
0,376,4958,6,1,85,59,1.0,-0.212156452387,-0.638781227021,1,1.0,1.0,0.325564607978,0,0.0,0.0,0.312406107783,0.361384589407,0.0809558465586,0.442340435966,0.280428742849,nan,nan,0.0,0.0,0.0,nan,nan,284.295652999,756.7377043,757.063268908,757.237688906,nan,nan
0,377,4959,6,1,434,305,0.213881816697,0.43461034373,-1.0,1,1.0,1.0,0.309472545981,0,0.0,0.0,0.314928178055,0.361288814056,0.0808687017933,0.442157515849,0.280420112263,nan,nan,0.0,0.0,0.0,nan,nan,284.295652999,757.737782703,758.047255249,758.237828603,nan,nan
0,378,5000,6,1,171,120,1.0,-0.176011872558,0.256450910142,1,1.0,1.0,0.277314081788,0,0.0,0.0,0.304117078582,0.361150637341,0.0808050017851,0.441955639126,0.280345635556,nan,nan,0.0,0.0,0.0,nan,nan,284.295652999,758.737928388,759.015242469,759.237942643,nan,nan
0,379,5001,6,1,293,206,0.103830259013,0.378659598285,0.564617056734,1,1.0,1.0,0.277188068256,0,0.0,0.0,0.287991565342,0.360927667778,0.0808129076581,0.441740575437,0.28011476012,nan,nan,0.0,0.0,0.0,nan,nan,284.295652999,759.738034159,760.015222227,760.238064949,nan,nan
0,380,5002,6,1,247,173,0.578947625354,0.219392674348,0.6523805853,1,1.0,1.0,0.301124881953,0,0.0,0.0,0.285209010666,0.360705546825,0.0808205057234,0.441526052548,0.279885041101,nan,nan,0.0,0.0,0.0,nan,nan,284.295652999,760.738148768,761.03927365,761.238186971,nan,nan
0,381,5003,6,1,474,333,0.530901762182,0.346545376391,-1.0,1,1.0,1.0,0.284902816638,0,0.0,0.0,0.287738588949,0.360547926018,0.0807715305758,0.441319456594,0.279776395442,nan,nan,0.0,0.0,0.0,nan,nan,284.295652999,761.738291317,762.023194133,762.238328095,nan,nan
0,382,5004,6,1,290,203,0.131265381085,0.370776544741,0.578206616232,1,1.0,1.0,0.300743420608,0,0.0,0.0,0.295590373067,0.360348334701,0.0807581859359,0.441106520636,0.279590148765,nan,nan,0.0,0.0,0.0,nan,nan,284.295652999,762.738423603,763.039167023,763.238456674,nan,nan
0,383,5005,6,1,40,28,1.0,0.0201165467467,-1.0,1,1.0,1.0,0.300586902536,0,0.0,0.0,0.295411046594,0.360191479664,0.0807096429738,0.440901122637,0.27948183669,nan,nan,0.0,0.0,0.0,nan,nan,284.295652999,763.738569288,764.03915619,764.238577555,nan,nan
0,384,5006,6,1,211,148,0.948675772315,0.0413606888024,0.538689155053,1,1.0,1.0,0.279057740234,0,0.0,0.0,0.293462687793,0.360035037204,0.0806613255938,0.440696362798,0.27937371161,nan,nan,0.0,0.0,0.0,nan,nan,284.295652999,764.784071756,765.063129496,765.288708871,nan,nan
0,385,5007,6,0,116,81,1.0,-0.306446923025,-0.282515442494,0,0.0,1.0,0.410654618405,0,0.0,0.0,0.330099753725,0.359823054751,0.0806618758113,0.440484930562,0.27916117894,nan,nan,0.0,0.0,0.0,nan,nan,284.295652999,765.780471255,766.191125873,766.280527419,nan,nan
