block,trial,freq_trials,correct_response,actual_response,acc,rts,probe_trials,fast_rt_trigger,slow_rt_trigger,rt_triggered,rts_runningavg,rts_runningstd,rts_runningfastthresh,rts_runningslowthresh,rts_runningstd,rts_trailingavg,trials_colorind0,trials_colorind1,trials_colorind2,trials_colorind3,trials_colorind4,trials_colorind5,wholereport_resp0,wholereport_resp1,wholereport_resp2,wholereport_resp3,wholereport_resp4,wholereport_resp5,wholereport_respacc0,wholereport_respacc1,wholereport_respacc2,wholereport_respacc3,wholereport_respacc4,wholereport_respacc5,wholereport_respacc_total,wholereport_respcolorind0,wholereport_respcolorind1,wholereport_respcolorind2,wholereport_respcolorind3,wholereport_respcolorind4,wholereport_respcolorind5,wholereport_resporder0,wholereport_resporder1,wholereport_resporder2,wholereport_resporder3,wholereport_resporder4,wholereport_resporder5,wholereport_rts0,wholereport_rts1,wholereport_rts2,wholereport_rts3,wholereport_rts4,wholereport_rts5,time_blockstart,time_encarray_offset,time_encarray_onset,time_response,time_iti_offset,time_iti_onset,time_memprobe_offset,time_memprobe_onset
1,1,1,1,1.0,1.0,0.5496073237736709,0,nan,nan,nan,nan,nan,nan,nan,nan,nan,0,1,8,6,7,5,nan,nan,nan,nan,nan,nan,nan,nan,nan,nan,nan,nan,0.0,nan,nan,nan,nan,nan,nan,nan,nan,nan,nan,nan,nan,nan,nan,nan,nan,nan,nan,263.0977814726648,264.1161393398652,nan,264.66574666363886,nan,nan,nan,nan
1,2,1,1,nan,nan,nan,0,nan,nan,nan,nan,nan,nan,nan,nan,nan,5,3,4,6,1,8,nan,nan,nan,nan,nan,nan,nan,nan,nan,nan,nan,nan,0.0,nan,nan,nan,nan,nan,nan,nan,nan,nan,nan,nan,nan,nan,nan,nan,nan,nan,nan,263.0977814726648,265.1329554108088,nan,nan,nan,nan,nan,nan
1,3,0,0,0.0,1.0,0.6116592071484774,0,nan,nan,nan,nan,nan,nan,nan,nan,nan,0,6,3,7,2,5,nan,nan,nan,nan,nan,nan,nan,nan,nan,nan,nan,nan,0.0,nan,nan,nan,nan,nan,nan,nan,nan,nan,nan,nan,nan,nan,nan,nan,nan,nan,nan,263.0977814726648,266.15801330655813,nan,266.7696725137066,nan,nan,nan,nan
1,4,1,1,1.0,1.0,0.5068666668375954,0,nan,nan,nan,nan,nan,nan,nan,nan,nan,2,5,4,1,0,7,nan,nan,nan,nan,nan,nan,nan,nan,nan,nan,nan,nan,0.0,nan,nan,nan,nan,nan,nan,nan,nan,nan,nan,nan,nan,nan,nan,nan,nan,nan,nan,263.0977814726648,267.17478746850975,nan,267.68165413534734,nan,nan,nan,nan
1,5,1,1,1.0,1.0,0.4180568634183146,0,nan,nan,nan,nan,nan,nan,nan,nan,nan,6,0,1,7,8,4,nan,nan,nan,nan,nan,nan,nan,nan,nan,nan,nan,nan,0.0,nan,nan,nan,nan,nan,nan,nan,nan,nan,nan,nan,nan,nan,nan,nan,nan,nan,nan,263.0977814726648,268.1915798765258,nan,268.6096367399441,nan,nan,nan,nan
1,6,1,1,0.0,0.0,0.4732419374631718,0,0.0,0.0,0.0,nan,nan,nan,nan,nan,nan,3,5,8,0,7,2,nan,nan,nan,nan,nan,nan,nan,nan,nan,nan,nan,nan,0.0,nan,nan,nan,nan,nan,nan,nan,nan,nan,nan,nan,nan,nan,nan,nan,nan,nan,nan,263.0977814726648,269.2083680080832,nan,269.68160994554637,nan,nan,nan,nan
1,7,1,1,1.0,1.0,0.432432517176494,0,nan,nan,nan,nan,nan,nan,nan,nan,nan,2,0,4,7,8,3,nan,nan,nan,nan,nan,nan,nan,nan,nan,nan,nan,nan,0.0,nan,nan,nan,nan,nan,nan,nan,nan,nan,nan,nan,nan,nan,nan,nan,nan,nan,nan,263.0977814726648,270.225148157042,nan,270.6575806742185,nan,nan,nan,nan
1,8,0,0,0.0,1.0,0.6875864017056301,0,nan,nan,nan,nan,nan,nan,nan,nan,nan,3,4,7,5,0,1,nan,nan,nan,nan,nan,nan,nan,nan,nan,nan,nan,nan,0.0,nan,nan,nan,nan,nan,nan,nan,nan,nan,nan,nan,nan,nan,nan,nan,nan,nan,nan,263.0977814726648,271.2419576707762,nan,271.9295440724818,nan,nan,nan,nan
1,9,1,1,nan,nan,nan,0,nan,nan,nan,nan,nan,nan,nan,nan,nan,5,2,3,7,8,6,nan,nan,nan,nan,nan,nan,nan,nan,nan,nan,nan,nan,0.0,nan,nan,nan,nan,nan,nan,nan,nan,nan,nan,nan,nan,nan,nan,nan,nan,nan,nan,263.0977814726648,272.2587306923233,nan,nan,nan,nan,nan,nan
1,10,1,1,1.0,1.0,0.5339669865206815,0,nan,nan,nan,nan,nan,nan,nan,nan,nan,0,6,5,4,1,7,nan,nan,nan,nan,nan,nan,nan,nan,nan,nan,nan,nan,0.0,nan,nan,nan,nan,nan,nan,nan,nan,nan,nan,nan,nan,nan,nan,nan,nan,nan,nan,263.0977814726648,273.2755034287111,nan,273.8094704152318,nan,nan,nan,nan
1,11,1,1,1.0,1.0,0.4931196485995315,0,nan,nan,nan,nan,nan,nan,nan,nan,nan,8,4,7,2,0,6,nan,nan,nan,nan,nan,nan,nan,nan,nan,nan,nan,nan,0.0,nan,nan,nan,nan,nan,nan,nan,nan,nan,nan,nan,nan,nan,nan,nan,nan,nan,nan,263.0977814726648,274.2923283376149,nan,274.7854479862144,nan,nan,nan,nan
1,12,1,1,nan,nan,nan,0,nan,nan,nan,nan,nan,nan,nan,nan,nan,0,5,4,1,3,7,nan,nan,nan,nan,nan,nan,nan,nan,nan,nan,nan,nan,0.0,nan,nan,nan,nan,nan,nan,nan,nan,nan,nan,nan,nan,nan,nan,nan,nan,nan,nan,263.0977814726648,275.309117609635,nan,nan,nan,nan,nan,nan
1,13,1,1,nan,nan,nan,0,nan,nan,nan,nan,nan,nan,nan,nan,nan,3,2,8,0,7,4,nan,nan,nan,nan,nan,nan,nan,nan,nan,nan,nan,nan,0.0,nan,nan,nan,nan,nan,nan,nan,nan,nan,nan,nan,nan,nan,nan,nan,nan,nan,nan,263.0977814726648,276.3259111579973,nan,nan,nan,nan,nan,nan
1,14,1,1,1.0,1.0,0.7866881514783017,0,nan,nan,nan,nan,nan,nan,nan,nan,nan,2,7,3,4,5,1,nan,nan,nan,nan,nan,nan,nan,nan,nan,nan,nan,nan,0.0,nan,nan,nan,nan,nan,nan,nan,nan,nan,nan,nan,nan,nan,nan,nan,nan,nan,nan,263.0977814726648,277.3427001448581,nan,278.1293882963364,nan,nan,nan,nan
1,15,1,1,1.0,1.0,0.7378778120619245,0,nan,nan,nan,nan,nan,nan,nan,nan,nan,5,0,6,1,7,4,nan,nan,nan,nan,nan,nan,nan,nan,nan,nan,nan,nan,0.0,nan,nan,nan,nan,nan,nan,nan,nan,nan,nan,nan,nan,nan,nan,nan,nan,nan,nan,263.0977814726648,278.3594791534124,nan,279.0973569654743,nan,nan,nan,nan
1,16,1,1,1.0,1.0,0.6010565067990683,0,nan,nan,nan,nan,nan,nan,nan,nan,nan,7,1,4,5,6,0,nan,nan,nan,nan,nan,nan,nan,nan,nan,nan,nan,nan,0.0,nan,nan,nan,nan,nan,nan,nan,nan,nan,nan,nan,nan,nan,nan,nan,nan,nan,nan,263.0977814726648,279.37627441238146,nan,279.97733091918053,nan,nan,nan,nan
1,17,1,1,1.0,1.0,0.6882763327448629,0,nan,nan,nan,nan,nan,nan,nan,nan,nan,0,6,3,4,7,1,nan,nan,nan,nan,nan,nan,nan,nan,nan,nan,nan,nan,0.0,nan,nan,nan,nan,nan,nan,nan,nan,nan,nan,nan,nan,nan,nan,nan,nan,nan,nan,263.0977814726648,280.39303916617064,nan,281.0813154989155,nan,nan,nan,nan
1,18,1,1,nan,nan,nan,0,nan,nan,nan,nan,nan,nan,nan,nan,nan,8,0,7,3,6,4,nan,nan,nan,nan,nan,nan,nan,nan,nan,nan,nan,nan,0.0,nan,nan,nan,nan,nan,nan,nan,nan,nan,nan,nan,nan,nan,nan,nan,nan,nan,nan,263.0977814726648,281.40984126745025,nan,nan,nan,nan,nan,nan
1,19,1,1,nan,nan,nan,1,nan,nan,nan,nan,nan,nan,nan,nan,nan,4,8,1,5,3,2,1.0,1.0,1.0,1.0,1.0,1.0,0.0,0.0,1.0,0.0,0.0,0.0,1.0,8.0,4.0,1.0,7.0,6.0,0.0,3.0,2.0,1.0,6.0,5.0,4.0,4.623725302575622,3.6638117206748575,2.7781618013978004,8.127350719063543,6.9357086917734705,5.783926716772839,263.0977814726648,282.4266405177186,283.235071759962,nan,292.4277891673846,293.4328005754505,284.2601747008157,292.41947806434473
1,20,1,1,nan,nan,nan,0,nan,nan,nan,nan,nan,nan,nan,nan,nan,2,1,3,7,0,8,nan,nan,nan,nan,nan,nan,nan,nan,nan,nan,nan,nan,0.0,nan,nan,nan,nan,nan,nan,nan,nan,nan,nan,nan,nan,nan,nan,nan,nan,nan,nan,263.0977814726648,293.65299462853,nan,nan,nan,nan,nan,nan
1,21,1,1,1.0,1.0,0.17080468474887311,0,nan,nan,nan,nan,nan,nan,nan,nan,nan,0,7,4,3,2,5,nan,nan,nan,nan,nan,nan,nan,nan,nan,nan,nan,nan,0.0,nan,nan,nan,nan,nan,nan,nan,nan,nan,nan,nan,nan,nan,nan,nan,nan,nan,nan,263.0977814726648,294.67814917169744,nan,294.8489538564463,nan,nan,nan,nan
1,22,1,1,1.0,1.0,0.13765292876632884,0,nan,nan,nan,nan,nan,nan,nan,nan,nan,7,4,1,5,3,6,nan,nan,nan,nan,nan,nan,nan,nan,nan,nan,nan,nan,0.0,nan,nan,nan,nan,nan,nan,nan,nan,nan,nan,nan,nan,nan,nan,nan,nan,nan,nan,263.0977814726648,295.70326380140614,nan,295.84091673017247,nan,nan,nan,nan
1,23,1,1,1.0,1.0,0.5045266032684594,0,nan,nan,nan,nan,nan,nan,nan,nan,nan,2,1,8,4,6,3,nan,nan,nan,nan,nan,nan,nan,nan,nan,nan,nan,nan,0.0,nan,nan,nan,nan,nan,nan,nan,nan,nan,nan,nan,nan,nan,nan,nan,nan,nan,nan,263.0977814726648,296.72834279423114,nan,297.2328693974996,nan,nan,nan,nan
1,24,1,1,1.0,1.0,0.4157173699932173,0,nan,nan,nan,nan,nan,nan,nan,nan,nan,5,2,1,0,7,4,nan,nan,nan,nan,nan,nan,nan,nan,nan,nan,nan,nan,0.0,nan,nan,nan,nan,nan,nan,nan,nan,nan,nan,nan,nan,nan,nan,nan,nan,nan,nan,263.0977814726648,297.74514974217163,nan,298.16086711216485,nan,nan,nan,nan
1,25,0,0,nan,nan,nan,0,nan,nan,nan,nan,nan,nan,nan,nan,nan,2,8,6,4,0,1,nan,nan,nan,nan,nan,nan,nan,nan,nan,nan,nan,nan,0.0,nan,nan,nan,nan,nan,nan,nan,nan,nan,nan,nan,nan,nan,nan,nan,nan,nan,nan,263.0977814726648,298.77023899840424,nan,nan,nan,nan,nan,nan
1,26,1,1,0.0,0.0,0.22140684921760112,0,0.0,0.0,0.0,nan,nan,nan,nan,nan,nan,1,4,5,8,6,3,nan,nan,nan,nan,nan,nan,nan,nan,nan,nan,nan,nan,0.0,nan,nan,nan,nan,nan,nan,nan,nan,nan,nan,nan,nan,nan,nan,nan,nan,nan,nan,263.0977814726648,299.795428323152,nan,300.0168351723696,nan,nan,nan,nan
1,27,1,1,1.0,1.0,0.5086148722330108,0,nan,nan,nan,nan,nan,nan,nan,nan,nan,6,8,4,3,7,5,nan,nan,nan,nan,nan,nan,nan,nan,nan,nan,nan,nan,0.0,nan,nan,nan,nan,nan,nan,nan,nan,nan,nan,nan,nan,nan,nan,nan,nan,nan,nan,263.0977814726648,300.8121728351689,nan,301.3207877074019,nan,nan,nan,nan
1,28,1,1,1.0,1.0,0.227774741477333,0,nan,nan,nan,nan,nan,nan,nan,nan,nan,8,2,3,1,0,4,nan,nan,nan,nan,nan,nan,nan,nan,nan,nan,nan,nan,0.0,nan,nan,nan,nan,nan,nan,nan,nan,nan,nan,nan,nan,nan,nan,nan,nan,nan,nan,263.0977814726648,301.8289866253617,nan,302.05676136683905,nan,nan,nan,nan
1,29,1,1,1.0,1.0,0.21898410795256495,0,nan,nan,nan,nan,nan,nan,nan,nan,nan,7,4,5,3,1,8,nan,nan,nan,nan,nan,nan,nan,nan,nan,nan,nan,nan,0.0,nan,nan,nan,nan,nan,nan,nan,nan,nan,nan,nan,nan,nan,nan,nan,nan,nan,nan,263.0977814726648,302.8457488132408,nan,303.06473292119335,nan,nan,nan,nan
1,30,1,1,1.0,1.0,0.29017757740803063,0,nan,nan,nan,nan,nan,nan,nan,nan,nan,5,0,2,6,8,4,nan,nan,nan,nan,nan,nan,nan,nan,nan,nan,nan,nan,0.0,nan,nan,nan,nan,nan,nan,nan,nan,nan,nan,nan,nan,nan,nan,nan,nan,nan,nan,263.0977814726648,303.8625417914591,nan,304.1527193688671,nan,nan,nan,nan
1,31,1,1,1.0,1.0,0.4973658604430966,0,nan,nan,nan,nan,nan,nan,nan,nan,nan,8,6,3,5,2,0,nan,nan,nan,nan,nan,nan,nan,nan,nan,nan,nan,nan,0.0,nan,nan,nan,nan,nan,nan,nan,nan,nan,nan,nan,nan,nan,nan,nan,nan,nan,nan,263.0977814726648,304.8793287826702,nan,305.3766946431133,nan,nan,nan,nan
1,32,1,1,1.0,1.0,0.4965425047557801,0,nan,nan,nan,nan,nan,nan,nan,nan,nan,5,3,4,0,8,6,nan,nan,nan,nan,nan,nan,nan,nan,nan,nan,nan,nan,0.0,nan,nan,nan,nan,nan,nan,nan,nan,nan,nan,nan,nan,nan,nan,nan,nan,nan,nan,263.0977814726648,305.89611235272605,nan,306.39265485748183,nan,nan,nan,nan
1,33,1,1,1.0,1.0,0.4397178466897458,0,nan,nan,nan,nan,nan,nan,nan,nan,nan,0,2,5,8,3,1,nan,nan,nan,nan,nan,nan,nan,nan,nan,nan,nan,nan,0.0,nan,nan,nan,nan,nan,nan,nan,nan,nan,nan,nan,nan,nan,nan,nan,nan,nan,nan,263.0977814726648,306.91291188815376,nan,307.3526297348435,nan,nan,nan,nan
1,34,1,1,1.0,1.0,0.5429015933186747,0,nan,nan,nan,nan,nan,nan,nan,nan,nan,2,4,1,6,8,0,nan,nan,nan,nan,nan,nan,nan,nan,nan,nan,nan,nan,0.0,nan,nan,nan,nan,nan,nan,nan,nan,nan,nan,nan,nan,nan,nan,nan,nan,nan,nan,263.0977814726648,307.9297028706642,nan,308.47260446398286,nan,nan,nan,nan
1,35,0,0,nan,nan,nan,0,nan,nan,nan,nan,nan,nan,nan,nan,nan,6,2,8,5,7,1,nan,nan,nan,nan,nan,nan,nan,nan,nan,nan,nan,nan,0.0,nan,nan,nan,nan,nan,nan,nan,nan,nan,nan,nan,nan,nan,nan,nan,nan,nan,nan,263.0977814726648,308.94648159411736,nan,nan,nan,nan,nan,nan
1,36,1,1,1.0,1.0,0.6609285502345301,0,nan,nan,nan,nan,nan,nan,nan,nan,nan,5,3,7,2,1,0,nan,nan,nan,nan,nan,nan,nan,nan,nan,nan,nan,nan,0.0,nan,nan,nan,nan,nan,nan,nan,nan,nan,nan,nan,nan,nan,nan,nan,nan,nan,nan,263.0977814726648,309.97160876810085,nan,310.6325373183354,nan,nan,nan,nan
1,37,1,1,1.0,1.0,0.6281234702910297,0,nan,nan,nan,nan,nan,nan,nan,nan,nan,7,8,4,6,3,1,nan,nan,nan,nan,nan,nan,nan,nan,nan,nan,nan,nan,0.0,nan,nan,nan,nan,nan,nan,nan,nan,nan,nan,nan,nan,nan,nan,nan,nan,nan,nan,263.0977814726648,310.9883786535356,nan,311.61650212382665,nan,nan,nan,nan
1,38,1,1,1.0,1.0,0.6909542344510555,0,nan,nan,nan,nan,nan,nan,nan,nan,nan,1,2,3,5,0,4,nan,nan,nan,nan,nan,nan,nan,nan,nan,nan,nan,nan,0.0,nan,nan,nan,nan,nan,nan,nan,nan,nan,nan,nan,nan,nan,nan,nan,nan,nan,nan,263.0977814726648,312.01351266982965,nan,312.7044669042807,nan,nan,nan,nan
1,39,1,1,1.0,1.0,0.6821462100488134,1,nan,nan,nan,nan,nan,nan,nan,nan,nan,3,4,5,0,1,8,1.0,1.0,1.0,1.0,1.0,1.0,0.0,1.0,1.0,0.0,0.0,0.0,2.0,8.0,4.0,5.0,4.0,0.0,3.0,3.0,2.0,1.0,6.0,5.0,4.0,4.6933299350203015,3.547323709120974,2.2066503079258837,8.587249903590418,7.363729926815722,6.443369064363651,263.0977814726648,313.0303204730153,313.83874857920455,313.7124666830641,323.4731988880667,324.47602275863755,314.84717685641954,323.4648723898572
1,40,0,0,0.0,1.0,0.46974010980920866,0,nan,nan,nan,nan,nan,nan,nan,nan,nan,4,6,0,8,7,3,nan,nan,nan,nan,nan,nan,nan,nan,nan,nan,nan,nan,0.0,nan,nan,nan,nan,nan,nan,nan,nan,nan,nan,nan,nan,nan,nan,nan,nan,nan,nan,263.0977814726648,324.6984146126779,nan,325.1681547224871,nan,nan,nan,nan
1,41,1,1,1.0,1.0,0.4365940556745045,1,nan,nan,nan,nan,nan,nan,nan,nan,nan,3,4,6,1,2,7,1.0,1.0,1.0,1.0,1.0,1.0,0.0,1.0,0.0,0.0,0.0,0.0,1.0,4.0,4.0,4.0,7.0,3.0,1.0,3.0,2.0,1.0,6.0,5.0,4.0,3.5100346476538107,2.8958500648732297,2.343651508446783,5.669257899397053,4.870379636005964,3.990874949435238,263.0977814726648,325.7235166982282,326.5319165799301,326.1601107539027,333.2576929447823,334.2570007329923,327.54872409801465,333.24937442928785
1,42,1,1,nan,nan,nan,0,nan,nan,nan,nan,nan,nan,nan,nan,nan,8,0,3,2,7,4,nan,nan,nan,nan,nan,nan,nan,nan,nan,nan,nan,nan,0.0,nan,nan,nan,nan,nan,nan,nan,nan,nan,nan,nan,nan,nan,nan,nan,nan,nan,nan,263.0977814726648,334.4745744736865,nan,nan,nan,nan,nan,nan
1,43,1,1,1.0,1.0,0.14055919193197042,0,nan,nan,nan,nan,nan,nan,nan,nan,nan,3,2,1,0,6,5,nan,nan,nan,nan,nan,nan,nan,nan,nan,nan,nan,nan,0.0,nan,nan,nan,nan,nan,nan,nan,nan,nan,nan,nan,nan,nan,nan,nan,nan,nan,nan,263.0977814726648,335.4913429336739,nan,335.63190212560585,nan,nan,nan,nan
1,44,1,1,1.0,1.0,0.10770821163896471,0,nan,nan,nan,nan,nan,nan,nan,nan,nan,5,1,4,8,7,3,nan,nan,nan,nan,nan,nan,nan,nan,nan,nan,nan,nan,0.0,nan,nan,nan,nan,nan,nan,nan,nan,nan,nan,nan,nan,nan,nan,nan,nan,nan,nan,263.0977814726648,336.50815472815884,nan,336.6158629397978,nan,nan,nan,nan
1,45,1,1,nan,nan,nan,0,nan,nan,nan,nan,nan,nan,nan,nan,nan,6,5,0,7,4,8,nan,nan,nan,nan,nan,nan,nan,nan,nan,nan,nan,nan,0.0,nan,nan,nan,nan,nan,nan,nan,nan,nan,nan,nan,nan,nan,nan,nan,nan,nan,nan,263.0977814726648,337.5332499714568,nan,nan,nan,nan,nan,nan
1,46,1,1,nan,nan,nan,0,nan,nan,nan,nan,nan,nan,nan,nan,nan,3,4,8,0,2,1,nan,nan,nan,nan,nan,nan,nan,nan,nan,nan,nan,nan,0.0,nan,nan,nan,nan,nan,nan,nan,nan,nan,nan,nan,nan,nan,nan,nan,nan,nan,nan,263.0977814726648,338.55003981362097,nan,nan,nan,nan,nan,nan
1,47,1,1,1.0,1.0,0.04061840631766245,0,nan,nan,nan,nan,nan,nan,nan,nan,nan,8,6,0,2,4,7,nan,nan,nan,nan,nan,nan,nan,nan,nan,nan,nan,nan,0.0,nan,nan,nan,nan,nan,nan,nan,nan,nan,nan,nan,nan,nan,nan,nan,nan,nan,nan,263.0977814726648,339.5751587197883,nan,339.61577712610597,nan,nan,nan,nan
1,48,1,1,1.0,1.0,0.5117683131829835,0,nan,nan,nan,nan,nan,nan,nan,nan,nan,2,1,7,3,6,0,nan,nan,nan,nan,nan,nan,nan,nan,nan,nan,nan,nan,0.0,nan,nan,nan,nan,nan,nan,nan,nan,nan,nan,nan,nan,nan,nan,nan,nan,nan,nan,263.0977814726648,340.591958255216,nan,341.103726568399,nan,nan,nan,nan
1,49,1,1,1.0,1.0,0.46264009235892445,0,nan,nan,nan,nan,nan,nan,nan,nan,nan,6,2,3,1,4,8,nan,nan,nan,nan,nan,nan,nan,nan,nan,nan,nan,nan,0.0,nan,nan,nan,nan,nan,nan,nan,nan,nan,nan,nan,nan,nan,nan,nan,nan,nan,nan,263.0977814726648,341.6170486518531,nan,342.07968874421204,nan,nan,nan,nan
1,50,1,1,1.0,1.0,0.5257582328049466,0,nan,nan,nan,nan,nan,nan,nan,nan,nan,3,6,8,5,0,2,nan,nan,nan,nan,nan,nan,nan,nan,nan,nan,nan,nan,0.0,nan,nan,nan,nan,nan,nan,nan,nan,nan,nan,nan,nan,nan,nan,nan,nan,nan,nan,263.0977814726648,342.6338940876303,nan,343.15965232043527,nan,nan,nan,nan
1,51,1,1,1.0,1.0,0.08502088469685987,0,nan,nan,nan,nan,nan,nan,nan,nan,nan,6,2,1,0,4,5,nan,nan,nan,nan,nan,nan,nan,nan,nan,nan,nan,nan,0.0,nan,nan,nan,nan,nan,nan,nan,nan,nan,nan,nan,nan,nan,nan,nan,nan,nan,nan,263.0977814726648,343.6506477226503,nan,343.7356686073472,nan,nan,nan,nan
1,52,1,1,1.0,1.0,0.33221718459390104,0,nan,nan,nan,nan,nan,nan,nan,nan,nan,5,7,0,8,6,4,nan,nan,nan,nan,nan,nan,nan,nan,nan,nan,nan,nan,0.0,nan,nan,nan,nan,nan,nan,nan,nan,nan,nan,nan,nan,nan,nan,nan,nan,nan,nan,263.0977814726648,344.6674267312046,nan,344.9996439157985,nan,nan,nan,nan
1,53,1,1,1.0,1.0,0.33140722836833447,1,nan,nan,nan,nan,nan,nan,nan,nan,nan,6,0,8,2,3,5,1.0,1.0,1.0,1.0,1.0,1.0,0.0,1.0,1.0,0.0,0.0,0.0,2.0,4.0,0.0,8.0,1.0,7.0,4.0,3.0,2.0,1.0,6.0,5.0,4.0,4.144472982501611,3.0658453636569902,1.9207029770477675,6.8404277914669365,6.1925061516813,5.417198440991342,263.0977814726648,345.6842197094229,346.49263897765195,346.01562693779124,354.3935617461684,355.39444525697036,347.51337853237055,354.38522669509985
1,54,1,1,1.0,1.0,0.5086559259798378,0,nan,nan,nan,nan,nan,nan,nan,nan,nan,3,4,0,7,6,8,nan,nan,nan,nan,nan,nan,nan,nan,nan,nan,nan,nan,0.0,nan,nan,nan,nan,nan,nan,nan,nan,nan,nan,nan,nan,nan,nan,nan,nan,nan,nan,263.0977814726648,355.61872187716654,nan,356.1273778031464,nan,nan,nan,nan
1,55,1,1,1.0,1.0,0.411753402731847,0,nan,nan,nan,nan,nan,nan,nan,nan,nan,4,6,8,1,0,7,nan,nan,nan,nan,nan,nan,nan,nan,nan,nan,nan,nan,0.0,nan,nan,nan,nan,nan,nan,nan,nan,nan,nan,nan,nan,nan,nan,nan,nan,nan,nan,263.0977814726648,356.63559411186725,nan,357.0473475145991,nan,nan,nan,nan
1,56,1,1,1.0,1.0,0.7306423742556944,0,nan,nan,nan,nan,nan,nan,nan,nan,nan,8,7,5,6,3,1,nan,nan,nan,nan,nan,nan,nan,nan,nan,nan,nan,nan,0.0,nan,nan,nan,nan,nan,nan,nan,nan,nan,nan,nan,nan,nan,nan,nan,nan,nan,nan,263.0977814726648,357.66065913502825,nan,358.39130150928395,nan,nan,nan,nan
1,57,1,1,1.0,1.0,0.52983737870818,0,nan,nan,nan,nan,nan,nan,nan,nan,nan,6,3,2,8,4,0,nan,nan,nan,nan,nan,nan,nan,nan,nan,nan,nan,nan,0.0,nan,nan,nan,nan,nan,nan,nan,nan,nan,nan,nan,nan,nan,nan,nan,nan,nan,nan,263.0977814726648,358.67744441569084,nan,359.207281794399,nan,nan,nan,nan
1,58,1,1,1.0,1.0,0.32870623393682763,0,nan,nan,nan,nan,nan,nan,nan,nan,nan,8,4,7,5,3,2,nan,nan,nan,nan,nan,nan,nan,nan,nan,nan,nan,nan,0.0,nan,nan,nan,nan,nan,nan,nan,nan,nan,nan,nan,nan,nan,nan,nan,nan,nan,nan,263.0977814726648,359.7025482117897,nan,360.0312544457265,nan,nan,nan,nan
1,59,1,1,1.0,1.0,0.295873214607127,0,nan,nan,nan,nan,nan,nan,nan,nan,nan,4,3,2,6,0,7,nan,nan,nan,nan,nan,nan,nan,nan,nan,nan,nan,nan,0.0,nan,nan,nan,nan,nan,nan,nan,nan,nan,nan,nan,nan,nan,nan,nan,nan,nan,nan,263.0977814726648,360.7193594361306,nan,361.01523265073774,nan,nan,nan,nan
1,60,0,0,0.0,1.0,0.3830673820339143,0,nan,nan,nan,nan,nan,nan,nan,nan,nan,1,2,4,0,5,3,nan,nan,nan,nan,nan,nan,nan,nan,nan,nan,nan,nan,0.0,nan,nan,nan,nan,nan,nan,nan,nan,nan,nan,nan,nan,nan,nan,nan,nan,nan,nan,263.0977814726648,361.73613131727325,nan,362.11919869930716,nan,nan,nan,nan
1,61,1,1,1.0,1.0,0.39821621467126533,0,nan,nan,nan,nan,nan,nan,nan,nan,nan,3,6,1,7,4,8,nan,nan,nan,nan,nan,nan,nan,nan,nan,nan,nan,nan,0.0,nan,nan,nan,nan,nan,nan,nan,nan,nan,nan,nan,nan,nan,nan,nan,nan,nan,nan,263.0977814726648,362.7529656343395,nan,363.15118184901075,nan,nan,nan,nan
1,62,1,1,1.0,1.0,0.42944471671944484,0,nan,nan,nan,nan,nan,nan,nan,nan,nan,4,3,8,2,5,7,nan,nan,nan,nan,nan,nan,nan,nan,nan,nan,nan,nan,0.0,nan,nan,nan,nan,nan,nan,nan,nan,nan,nan,nan,nan,nan,nan,nan,nan,nan,nan,263.0977814726648,363.7697078655474,nan,364.19915258226683,nan,nan,nan,nan
1,63,1,1,1.0,1.0,0.32457463041646406,0,nan,nan,nan,nan,nan,nan,nan,nan,nan,5,7,6,8,2,4,nan,nan,nan,nan,nan,nan,nan,nan,nan,nan,nan,nan,0.0,nan,nan,nan,nan,nan,nan,nan,nan,nan,nan,nan,nan,nan,nan,nan,nan,nan,nan,263.0977814726648,364.78654873982305,nan,365.1111233702395,nan,nan,nan,nan
1,64,1,1,1.0,1.0,0.35547698324080557,0,nan,nan,nan,nan,nan,nan,nan,nan,nan,4,6,5,2,0,8,nan,nan,nan,nan,nan,nan,nan,nan,nan,nan,nan,nan,0.0,nan,nan,nan,nan,nan,nan,nan,nan,nan,nan,nan,nan,nan,nan,nan,nan,nan,nan,263.0977814726648,365.81166450993624,nan,366.16714149317704,nan,nan,nan,nan
1,65,1,1,1.0,1.0,0.2586770943016745,0,nan,nan,nan,nan,nan,nan,nan,nan,nan,0,5,1,4,6,7,nan,nan,nan,nan,nan,nan,nan,nan,nan,nan,nan,nan,0.0,nan,nan,nan,nan,nan,nan,nan,nan,nan,nan,nan,nan,nan,nan,nan,nan,nan,nan,263.0977814726648,366.8284090219531,nan,367.0870861162548,nan,nan,nan,nan
1,66,0,0,1.0,0.0,0.1538457809947431,0,0.0,0.0,0.0,nan,nan,nan,nan,nan,nan,2,6,4,1,0,8,nan,nan,nan,nan,nan,nan,nan,nan,nan,nan,nan,nan,0.0,nan,nan,nan,nan,nan,nan,nan,nan,nan,nan,nan,nan,nan,nan,nan,nan,nan,nan,263.0977814726648,367.84519886411726,nan,367.999044645112,nan,nan,nan,nan
1,67,1,1,1.0,1.0,0.5129945087828673,0,nan,nan,nan,nan,nan,nan,nan,nan,nan,1,7,6,3,4,0,nan,nan,nan,nan,nan,nan,nan,nan,nan,nan,nan,nan,0.0,nan,nan,nan,nan,nan,nan,nan,nan,nan,nan,nan,nan,nan,nan,nan,nan,nan,nan,263.0977814726648,368.8619978292845,nan,369.3749923380674,nan,nan,nan,nan
1,68,1,1,1.0,1.0,0.5041762209148146,0,nan,nan,nan,nan,nan,nan,nan,nan,nan,8,6,3,2,5,4,nan,nan,nan,nan,nan,nan,nan,nan,nan,nan,nan,nan,0.0,nan,nan,nan,nan,nan,nan,nan,nan,nan,nan,nan,nan,nan,nan,nan,nan,nan,nan,263.0977814726648,369.8787985051167,nan,370.38297472603153,nan,nan,nan,nan
1,69,1,1,1.0,1.0,0.4313460183911957,0,nan,nan,nan,nan,nan,nan,nan,nan,nan,5,4,7,3,1,6,nan,nan,nan,nan,nan,nan,nan,nan,nan,nan,nan,nan,0.0,nan,nan,nan,nan,nan,nan,nan,nan,nan,nan,nan,nan,nan,nan,nan,nan,nan,nan,263.0977814726648,370.8955877770786,nan,371.3269337954698,nan,nan,nan,nan
1,70,1,1,1.0,1.0,0.28655429917853326,0,nan,nan,nan,nan,nan,nan,nan,nan,nan,6,3,1,4,8,0,nan,nan,nan,nan,nan,nan,nan,nan,nan,nan,nan,nan,0.0,nan,nan,nan,nan,nan,nan,nan,nan,nan,nan,nan,nan,nan,nan,nan,nan,nan,nan,263.0977814726648,371.91237020673,nan,372.1989245059085,nan,nan,nan,nan
1,71,1,1,1.0,1.0,0.26973822817672044,0,nan,nan,nan,nan,nan,nan,nan,nan,nan,8,1,2,7,6,5,nan,nan,nan,nan,nan,nan,nan,nan,nan,nan,nan,nan,0.0,nan,nan,nan,nan,nan,nan,nan,nan,nan,nan,nan,nan,nan,nan,nan,nan,nan,nan,263.0977814726648,372.92915776814334,nan,373.19889599632006,nan,nan,nan,nan
1,72,1,1,1.0,1.0,0.308906068734359,0,nan,nan,nan,nan,nan,nan,nan,nan,nan,6,3,0,8,1,4,nan,nan,nan,nan,nan,nan,nan,nan,nan,nan,nan,nan,0.0,nan,nan,nan,nan,nan,nan,nan,nan,nan,nan,nan,nan,nan,nan,nan,nan,nan,nan,263.0977814726648,373.9459541675169,nan,374.25486023625126,nan,nan,nan,nan
1,73,1,1,1.0,1.0,0.29973540286300704,0,nan,nan,nan,nan,nan,nan,nan,nan,nan,0,7,8,5,2,6,nan,nan,nan,nan,nan,nan,nan,nan,nan,nan,nan,nan,0.0,nan,nan,nan,nan,nan,nan,nan,nan,nan,nan,nan,nan,nan,nan,nan,nan,nan,nan,263.0977814726648,374.9710750693921,nan,375.2708104722551,nan,nan,nan,nan
1,74,0,0,0.0,1.0,0.46694788482273,0,nan,nan,nan,nan,nan,nan,nan,nan,nan,8,1,5,7,0,3,nan,nan,nan,nan,nan,nan,nan,nan,nan,nan,nan,nan,0.0,nan,nan,nan,nan,nan,nan,nan,nan,nan,nan,nan,nan,nan,nan,nan,nan,nan,nan,263.0977814726648,375.9878563586972,nan,376.4548042435199,nan,nan,nan,nan
1,75,1,1,1.0,1.0,0.5541377757908776,0,nan,nan,nan,nan,nan,nan,nan,nan,nan,5,2,6,3,7,1,nan,nan,nan,nan,nan,nan,nan,nan,nan,nan,nan,nan,0.0,nan,nan,nan,nan,nan,nan,nan,nan,nan,nan,nan,nan,nan,nan,nan,nan,nan,nan,263.0977814726648,377.0046459157602,nan,377.55878369155107,nan,nan,nan,nan
1,76,1,1,1.0,1.0,0.3133304652874358,0,nan,nan,nan,nan,nan,nan,nan,nan,nan,4,5,7,8,0,6,nan,nan,nan,nan,nan,nan,nan,nan,nan,nan,nan,nan,0.0,nan,nan,nan,nan,nan,nan,nan,nan,nan,nan,nan,nan,nan,nan,nan,nan,nan,nan,263.0977814726648,378.0214440256823,nan,378.3347744909697,nan,nan,nan,nan
1,77,0,0,1.0,0.0,0.2965001395205036,0,0.0,0.0,0.0,nan,nan,nan,nan,nan,nan,8,0,5,4,7,2,nan,nan,nan,nan,nan,nan,nan,nan,nan,nan,nan,nan,0.0,nan,nan,nan,nan,nan,nan,nan,nan,nan,nan,nan,nan,nan,nan,nan,nan,nan,nan,263.0977814726648,379.03826608363306,nan,379.33476622315357,nan,nan,nan,nan
1,78,1,1,1.0,1.0,0.4316912689828314,0,nan,nan,nan,nan,nan,nan,nan,nan,nan,1,8,7,6,3,0,nan,nan,nan,nan,nan,nan,nan,nan,nan,nan,nan,nan,0.0,nan,nan,nan,nan,nan,nan,nan,nan,nan,nan,nan,nan,nan,nan,nan,nan,nan,nan,263.0977814726648,380.05503882007906,nan,380.4867300890619,nan,nan,nan,nan
1,79,1,1,1.0,1.0,0.4148666451801546,0,nan,nan,nan,nan,nan,nan,nan,nan,nan,5,4,3,1,8,2,nan,nan,nan,nan,nan,nan,nan,nan,nan,nan,nan,nan,0.0,nan,nan,nan,nan,nan,nan,nan,nan,nan,nan,nan,nan,nan,nan,nan,nan,nan,nan,263.0977814726648,381.0718272367376,nan,381.48669388191774,nan,nan,nan,nan
1,80,1,1,nan,nan,nan,0,nan,nan,nan,nan,nan,nan,nan,nan,nan,2,8,0,5,7,6,nan,nan,nan,nan,nan,nan,nan,nan,nan,nan,nan,nan,0.0,nan,nan,nan,nan,nan,nan,nan,nan,nan,nan,nan,nan,nan,nan,nan,nan,nan,nan,263.0977814726648,382.09696182317566,nan,nan,nan,nan,nan,nan
1,81,1,1,1.0,1.0,0.5728919256944209,0,0.0,0.0,0.0,0.4253508139048953,0.16873063523618545,0.2566201786687099,0.5940814491410807,0.16873063523618545,0.49387928543728776,3,2,5,1,6,0,nan,nan,nan,nan,nan,nan,nan,nan,nan,nan,nan,nan,0.0,nan,nan,nan,nan,nan,nan,nan,nan,nan,nan,nan,nan,nan,nan,nan,nan,nan,nan,263.0977814726648,383.1137376956758,nan,383.68662962137023,nan,nan,nan,nan
1,82,1,1,nan,nan,nan,0,0.0,0.0,0.0,0.42752053613709423,0.16842436264233948,0.2590961734947548,0.5959448987794337,0.16842436264233948,0.5728919256944209,0,5,7,6,3,1,nan,nan,nan,nan,nan,nan,nan,nan,nan,nan,nan,nan,0.0,nan,nan,nan,nan,nan,nan,nan,nan,nan,nan,nan,nan,nan,nan,nan,nan,nan,nan,263.0977814726648,384.1305152787245,nan,nan,nan,nan,nan,nan
1,83,1,1,nan,nan,nan,0,0.0,0.0,0.0,0.42752053613709423,0.16842436264233948,0.2590961734947548,0.5959448987794337,0.16842436264233948,0.5728919256944209,2,1,3,5,6,4,nan,nan,nan,nan,nan,nan,nan,nan,nan,nan,nan,nan,0.0,nan,nan,nan,nan,nan,nan,nan,nan,nan,nan,nan,nan,nan,nan,nan,nan,nan,nan,263.0977814726648,385.14732849871507,nan,nan,nan,nan,nan,nan
1,84,1,1,1.0,1.0,0.5624568614875898,0,0.0,0.0,0.0,0.42752053613709423,0.16842436264233948,0.2590961734947548,0.5959448987794337,0.16842436264233948,0.5624568614875898,8,0,5,2,1,7,nan,nan,nan,nan,nan,nan,nan,nan,nan,nan,nan,nan,0.0,nan,nan,nan,nan,nan,nan,nan,nan,nan,nan,nan,nan,nan,nan,nan,nan,nan,nan,263.0977814726648,386.16410722216824,nan,386.72656408365583,nan,nan,nan,nan
1,85,1,1,nan,nan,nan,0,0.0,0.0,0.0,0.42947613505521737,0.16797532660033462,0.26150080845488277,0.597451461655552,0.16797532660033462,0.5624568614875898,7,3,0,8,2,4,nan,nan,nan,nan,nan,nan,nan,nan,nan,nan,nan,nan,0.0,nan,nan,nan,nan,nan,nan,nan,nan,nan,nan,nan,nan,nan,nan,nan,nan,nan,nan,263.0977814726648,387.1808705504518,nan,nan,nan,nan,nan,nan
1,86,1,1,1.0,1.0,0.376836905721575,0,0.0,0.0,0.0,0.42947613505521737,0.16797532660033462,0.26150080845488277,0.597451461655552,0.16797532660033462,0.4696468836045824,3,2,6,4,0,1,nan,nan,nan,nan,nan,nan,nan,nan,nan,nan,nan,nan,0.0,nan,nan,nan,nan,nan,nan,nan,nan,nan,nan,nan,nan,nan,nan,nan,nan,nan,nan,263.0977814726648,388.19766324356897,nan,388.57450014929054,nan,nan,nan,nan
1,87,1,1,nan,nan,nan,0,0.0,0.0,0.0,0.42872414606473674,0.16688812840820988,0.26183601765652686,0.5956122744729466,0.16688812840820988,0.376836905721575,1,3,7,8,6,2,nan,nan,nan,nan,nan,nan,nan,nan,nan,nan,nan,nan,0.0,nan,nan,nan,nan,nan,nan,nan,nan,nan,nan,nan,nan,nan,nan,nan,nan,nan,nan,263.0977814726648,389.21444994967896,nan,nan,nan,nan,nan,nan
1,88,1,1,1.0,1.0,0.6792043099412695,0,0.0,0.0,0.0,0.42872414606473674,0.16688812840820988,0.26183601765652686,0.5956122744729466,0.16688812840820988,0.5280206078314222,4,1,6,0,8,7,nan,nan,nan,nan,nan,nan,nan,nan,nan,nan,nan,nan,0.0,nan,nan,nan,nan,nan,nan,nan,nan,nan,nan,nan,nan,nan,nan,nan,nan,nan,nan,263.0977814726648,390.23123922164086,nan,390.91044353158213,nan,nan,nan,nan
1,89,1,1,nan,nan,nan,0,0.0,0.0,0.0,0.4322520356968006,0.16831693630625083,0.26393509939054977,0.6005689720030514,0.16831693630625083,0.6792043099412695,8,2,7,1,3,4,nan,nan,nan,nan,nan,nan,nan,nan,nan,nan,nan,nan,0.0,nan,nan,nan,nan,nan,nan,nan,nan,nan,nan,nan,nan,nan,nan,nan,nan,nan,nan,263.0977814726648,391.25636268936796,nan,nan,nan,nan,nan,nan
1,90,1,1,nan,nan,nan,0,0.0,0.0,0.0,0.4322520356968006,0.16831693630625083,0.26393509939054977,0.6005689720030514,0.16831693630625083,0.6792043099412695,7,1,5,3,4,0,nan,nan,nan,nan,nan,nan,nan,nan,nan,nan,nan,nan,0.0,nan,nan,nan,nan,nan,nan,nan,nan,nan,nan,nan,nan,nan,nan,nan,nan,nan,nan,263.0977814726648,392.27315680793254,nan,nan,nan,nan,nan,nan
1,91,1,1,1.0,1.0,0.516418790386524,0,0.0,0.0,0.0,0.4322520356968006,0.16831693630625083,0.26393509939054977,0.6005689720030514,0.16831693630625083,0.516418790386524,3,8,2,5,7,6,nan,nan,nan,nan,nan,nan,nan,nan,nan,nan,nan,nan,0.0,nan,nan,nan,nan,nan,nan,nan,nan,nan,nan,nan,nan,nan,nan,nan,nan,nan,nan,263.0977814726648,393.2899363866891,nan,393.8063551770756,nan,nan,nan,nan
1,92,0,0,0.0,1.0,0.46761130198137835,0,0.0,0.0,0.0,0.43342101840082453,0.16743396780889688,0.2659870505919276,0.6008549862097214,0.16743396780889688,0.4920150461839512,0,3,5,4,6,2,nan,nan,nan,nan,nan,nan,nan,nan,nan,nan,nan,nan,0.0,nan,nan,nan,nan,nan,nan,nan,nan,nan,nan,nan,nan,nan,nan,nan,nan,nan,nan,263.0977814726648,394.306725658651,nan,394.77433696063235,nan,nan,nan,nan
1,93,1,1,1.0,1.0,0.45878104015719146,0,0.0,0.0,0.0,0.4338893784498732,0.1663306897446117,0.26755868870526145,0.6002200681944849,0.1663306897446117,0.4809370441750313,4,7,3,5,0,6,nan,nan,nan,nan,nan,nan,nan,nan,nan,nan,nan,nan,0.0,nan,nan,nan,nan,nan,nan,nan,nan,nan,nan,nan,nan,nan,nan,nan,nan,nan,nan,263.0977814726648,395.3235294704791,nan,395.7823105106363,nan,nan,nan,nan
1,94,1,1,1.0,1.0,0.481968994718045,0,0.0,0.0,0.0,0.4342257522567289,0.16522800796281234,0.26899774429391654,0.5994537602195412,0.16522800796281234,0.4694537789522049,5,8,6,0,7,1,nan,nan,nan,nan,nan,nan,nan,nan,nan,nan,nan,nan,0.0,nan,nan,nan,nan,nan,nan,nan,nan,nan,nan,nan,nan,nan,nan,nan,nan,nan,nan,263.0977814726648,396.34030505787814,nan,396.8222740525962,nan,nan,nan,nan
1,95,1,1,1.0,1.0,0.5691936673247255,0,0.0,0.0,0.0,0.43486232882287973,0.16421412145967457,0.27064820736320516,0.5990764502825543,0.16421412145967457,0.5033145673999874,3,1,7,2,0,6,nan,nan,nan,nan,nan,nan,nan,nan,nan,nan,nan,nan,0.0,nan,nan,nan,nan,nan,nan,nan,nan,nan,nan,nan,nan,nan,nan,nan,nan,nan,nan,263.0977814726648,397.3570889130351,nan,397.92628258035984,nan,nan,nan,nan
1,96,1,1,1.0,1.0,0.5523892853525467,0,0.0,0.0,0.0,0.4366298464347461,0.1638467794362925,0.2727830669984536,0.6004766258710386,0.1638467794362925,0.5345173157984391,0,5,6,7,4,8,nan,nan,nan,nan,nan,nan,nan,nan,nan,nan,nan,nan,0.0,nan,nan,nan,nan,nan,nan,nan,nan,nan,nan,nan,nan,nan,nan,nan,nan,nan,nan,263.0977814726648,398.3738576581236,nan,398.92624694347614,nan,nan,nan,nan
1,97,1,1,1.0,1.0,0.559556300227996,0,0.0,0.0,0.0,0.43813321577134096,0.16330612320665844,0.2748270925646825,0.6014393389779994,0.16330612320665844,0.5603797509684227,3,4,7,0,8,6,nan,nan,nan,nan,nan,nan,nan,nan,nan,nan,nan,nan,0.0,nan,nan,nan,nan,nan,nan,nan,nan,nan,nan,nan,nan,nan,nan,nan,nan,nan,nan,263.0977814726648,399.39064807049,nan,399.950204370718,nan,nan,nan,nan
1,98,1,1,nan,nan,nan,0,0.0,0.0,0.0,0.4396899219823237,0.16282990440246886,0.27686001757985484,0.6025198263847926,0.16282990440246886,0.5559727927902713,1,3,2,6,0,8,nan,nan,nan,nan,nan,nan,nan,nan,nan,nan,nan,nan,0.0,nan,nan,nan,nan,nan,nan,nan,nan,nan,nan,nan,nan,nan,nan,nan,nan,nan,nan,263.0977814726648,400.41579006944085,nan,nan,nan,nan,nan,nan
1,99,1,1,1.0,1.0,0.7575570967746899,0,0.0,0.0,0.0,0.4396899219823237,0.16282990440246886,0.27686001757985484,0.6025198263847926,0.16282990440246886,0.6585566985013429,4,2,6,8,1,5,nan,nan,nan,nan,nan,nan,nan,nan,nan,nan,nan,nan,0.0,nan,nan,nan,nan,nan,nan,nan,nan,nan,nan,nan,nan,nan,nan,nan,nan,nan,nan,263.0977814726648,401.432574779843,nan,402.19013187661767,nan,nan,nan,nan
1,100,1,1,1.0,1.0,0.3727503473055549,0,0.0,0.0,0.0,0.4437135571062777,0.16565251205128434,0.27806104505499335,0.609366069157562,0.16565251205128434,0.5651537220401224,8,3,0,2,6,7,nan,nan,nan,nan,nan,nan,nan,nan,nan,nan,nan,nan,0.0,nan,nan,nan,nan,nan,nan,nan,nan,nan,nan,nan,nan,nan,nan,nan,nan,nan,nan,263.0977814726648,402.4493683282635,nan,402.8221186755691,nan,nan,nan,nan
1,101,1,1,1.0,1.0,0.3879410889931023,0,0.0,0.0,0.0,0.4428265169837687,0.16480262646170407,0.2780238905220646,0.6076291434454728,0.16480262646170407,0.5060828443577824,0,2,7,1,4,6,nan,nan,nan,nan,nan,nan,nan,nan,nan,nan,nan,nan,0.0,nan,nan,nan,nan,nan,nan,nan,nan,nan,nan,nan,nan,nan,nan,nan,nan,nan,nan,263.0977814726648,403.46615645987913,nan,403.85409754887223,nan,nan,nan,nan
1,102,1,1,1.0,1.0,0.3151257114368491,0,0.0,0.0,0.0,0.44214891910734067,0.16389426262566112,0.2782546564816796,0.6060431817330018,0.16389426262566112,0.35860571591183543,8,5,4,2,0,3,nan,nan,nan,nan,nan,nan,nan,nan,nan,nan,nan,nan,0.0,nan,nan,nan,nan,nan,nan,nan,nan,nan,nan,nan,nan,nan,nan,nan,nan,nan,nan,263.0977814726648,404.4829502933426,nan,404.79807600477943,nan,nan,nan,nan
1,103,1,1,1.0,1.0,0.34629149246029556,0,0.0,0.0,0.0,0.440599855599164,0.16348736817473644,0.2771124874244275,0.6040872237739005,0.16348736817473644,0.34978609763008234,3,7,5,6,8,1,nan,nan,nan,nan,nan,nan,nan,nan,nan,nan,nan,nan,0.0,nan,nan,nan,nan,nan,nan,nan,nan,nan,nan,nan,nan,nan,nan,nan,nan,nan,nan,263.0977814726648,405.4997449821094,nan,405.8460364745697,nan,nan,nan,nan
1,104,1,1,1.0,1.0,0.27353056805441156,0,0.0,0.0,0.0,0.43946361026014147,0.162824937894965,0.2766386723651765,0.6022885481551065,0.162824937894965,0.3116492573171854,4,5,6,7,2,3,nan,nan,nan,nan,nan,nan,nan,nan,nan,nan,nan,nan,0.0,nan,nan,nan,nan,nan,nan,nan,nan,nan,nan,nan,nan,nan,nan,nan,nan,nan,nan,263.0977814726648,406.5165225652163,nan,406.7900531332707,nan,nan,nan,nan
1,105,1,1,1.0,1.0,0.2803708636201918,0,0.0,0.0,0.0,0.43748821690054945,0.16285030756829347,0.27463790933225596,0.600338524468843,0.16285030756829347,0.3000643080449663,6,3,2,8,4,7,nan,nan,nan,nan,nan,nan,nan,nan,nan,nan,nan,nan,0.0,nan,nan,nan,nan,nan,nan,nan,nan,nan,nan,nan,nan,nan,nan,nan,nan,nan,nan,263.0977814726648,407.5416286420659,nan,407.8219995056861,nan,nan,nan,nan
1,106,1,1,1.0,1.0,0.31952701520640403,0,0.0,0.0,0.0,0.4356397774501923,0.16277353974500383,0.2728662377051885,0.5984133171951961,0.16277353974500383,0.29114281562700245,3,2,4,7,0,8,nan,nan,nan,nan,nan,nan,nan,nan,nan,nan,nan,nan,0.0,nan,nan,nan,nan,nan,nan,nan,nan,nan,nan,nan,nan,nan,nan,nan,nan,nan,nan,263.0977814726648,408.5584355900064,nan,408.8779626052128,nan,nan,nan,nan
1,107,1,1,1.0,1.0,0.3183712382451631,0,0.0,0.0,0.0,0.4342896290520087,0.16230245773228985,0.27198717131971883,0.5965920867842985,0.16230245773228985,0.3060897056905863,7,6,0,1,4,3,nan,nan,nan,nan,nan,nan,nan,nan,nan,nan,nan,nan,0.0,nan,nan,nan,nan,nan,nan,nan,nan,nan,nan,nan,nan,nan,nan,nan,nan,nan,nan,263.0977814726648,409.58357986964984,nan,409.901951107895,nan,nan,nan,nan
1,108,1,1,1.0,1.0,0.25364316371269524,0,0.0,0.0,0.0,0.4329572337553783,0.16183936174240815,0.27111787201297016,0.5947965954977865,0.16183936174240815,0.2971804723880875,0,4,5,2,7,8,nan,nan,nan,nan,nan,nan,nan,nan,nan,nan,nan,nan,0.0,nan,nan,nan,nan,nan,nan,nan,nan,nan,nan,nan,nan,nan,nan,nan,nan,nan,nan,263.0977814726648,410.6003409171826,nan,410.8539840808953,nan,nan,nan,nan
1,109,1,1,1.0,1.0,0.212777009466663,0,1.0,0.0,0.0,0.43091957386852964,0.1620357118475575,0.26888386202097214,0.5929552857160871,0.1620357118475575,0.2615971371415071,7,2,3,0,5,4,nan,nan,nan,nan,nan,nan,nan,nan,nan,nan,nan,nan,0.0,nan,nan,nan,nan,nan,nan,nan,nan,nan,nan,nan,nan,nan,nan,nan,nan,nan,nan,263.0977814726648,411.61713589105057,nan,411.82991290051723,nan,nan,nan,nan
1,110,1,1,1.0,1.0,0.2359604025259614,1,0.0,0.0,1.0,0.42846853381907046,0.1627551352568083,0.26571339856226217,0.5912236690758788,0.1627551352568083,0.23412685856843987,2,8,5,4,3,7,1.0,1.0,1.0,1.0,1.0,1.0,0.0,1.0,1.0,0.0,0.0,0.0,2.0,3.0,8.0,5.0,0.0,1.0,3.0,3.0,2.0,1.0,6.0,5.0,4.0,4.926520635082852,2.9890782778384164,1.6939676935435273,7.02143176656682,6.661302025313489,5.958587032684591,263.0977814726648,412.63392915437,413.4423392995377,412.86988955689594,421.5099670800846,422.51956139778486,414.45079352048924,421.5016266122111
1,111,1,1,1.0,1.0,0.3181722415611148,0,0.0,0.0,0.0,0.42632955458248034,0.16310151713945822,0.26322803744302214,0.5894310717219385,0.16310151713945822,0.25563655118457973,0,2,8,3,4,1,nan,nan,nan,nan,nan,nan,nan,nan,nan,nan,nan,nan,0.0,nan,nan,nan,nan,nan,nan,nan,nan,nan,nan,nan,nan,nan,nan,nan,nan,nan,nan,263.0977814726648,422.7434614067897,nan,423.06163364835083,nan,nan,nan,nan
1,112,1,1,0.0,0.0,0.6133501083822921,0,0.0,0.0,0.0,0.4251410126811467,0.16259431397438595,0.26254669870676073,0.5877353266555326,0.16259431397438595,0.3891609174897894,1,7,6,0,3,8,nan,nan,nan,nan,nan,nan,nan,nan,nan,nan,nan,nan,0.0,nan,nan,nan,nan,nan,nan,nan,nan,nan,nan,nan,nan,nan,nan,nan,nan,nan,nan,263.0977814726648,423.7602387047373,nan,424.37358881311957,nan,nan,nan,nan
1,113,1,1,1.0,1.0,0.6285391395213082,0,0.0,0.0,0.0,0.4271867637213765,0.1628815430465343,0.2643052206748422,0.5900683067679108,0.1628815430465343,0.5200204964882383,5,8,4,3,7,2,nan,nan,nan,nan,nan,nan,nan,nan,nan,nan,nan,nan,0.0,nan,nan,nan,nan,nan,nan,nan,nan,nan,nan,nan,nan,nan,nan,nan,nan,nan,nan,263.0977814726648,424.7770256959484,nan,425.4055648354697,nan,nan,nan,nan
1,114,1,1,1.0,1.0,0.3557127571548335,0,0.0,0.0,0.0,0.42935184303105317,0.16332905520108387,0.2660227878299693,0.592680898232137,0.16332905520108387,0.5325340016861446,7,1,8,6,2,4,nan,nan,nan,nan,nan,nan,nan,nan,nan,nan,nan,nan,0.0,nan,nan,nan,nan,nan,nan,nan,nan,nan,nan,nan,nan,nan,nan,nan,nan,nan,nan,263.0977814726648,425.79383463953855,nan,426.1495473966934,nan,nan,nan,nan
1,115,1,1,1.0,1.0,0.5789074400090612,0,0.0,0.0,0.0,0.4285684485004551,0.16263352589027605,0.26593492261017904,0.5912019743907312,0.16263352589027605,0.521053112228401,8,0,1,3,5,6,nan,nan,nan,nan,nan,nan,nan,nan,nan,nan,nan,nan,0.0,nan,nan,nan,nan,nan,nan,nan,nan,nan,nan,nan,nan,nan,nan,nan,nan,nan,nan,263.0977814726648,426.81061877979664,nan,427.3895262198057,nan,nan,nan,nan
1,116,1,1,1.0,1.0,0.3460571439936757,0,0.0,0.0,0.0,0.4301509642005457,0.16250124826865392,0.2676497159318918,0.5926522124691996,0.16250124826865392,0.4268924470525235,2,3,8,6,7,4,nan,nan,nan,nan,nan,nan,nan,nan,nan,nan,nan,nan,0.0,nan,nan,nan,nan,nan,nan,nan,nan,nan,nan,nan,nan,nan,nan,nan,nan,nan,nan,263.0977814726648,427.8274154642131,nan,428.1734726082068,nan,nan,nan,nan
1,117,1,1,1.0,1.0,0.23324144701473415,0,0.0,0.0,0.0,0.4292749869067241,0.16187798892873279,0.2673969979779913,0.5911529758354569,0.16187798892873279,0.3860686770058237,3,7,2,1,0,6,nan,nan,nan,nan,nan,nan,nan,nan,nan,nan,nan,nan,0.0,nan,nan,nan,nan,nan,nan,nan,nan,nan,nan,nan,nan,nan,nan,nan,nan,nan,nan,263.0977814726648,428.8442016001791,nan,429.0774430471938,nan,nan,nan,nan
1,118,1,1,1.0,1.0,0.264493326889351,0,0.0,0.0,0.0,0.4272540225779407,0.16225420327927548,0.26499981929866523,0.5895082258572162,0.16225420327927548,0.28126397263258696,5,0,1,3,2,8,nan,nan,nan,nan,nan,nan,nan,nan,nan,nan,nan,nan,0.0,nan,nan,nan,nan,nan,nan,nan,nan,nan,nan,nan,nan,nan,nan,nan,nan,nan,nan,263.0977814726648,429.86094468669035,nan,430.1254380135797,nan,nan,nan,nan
1,119,0,0,1.0,0.0,0.20762333873426542,0,0.0,0.0,0.0,0.42559319915254695,0.16225087956174186,0.2633423195908051,0.5878440787142888,0.16225087956174186,0.2351193708794502,7,8,5,0,6,2,nan,nan,nan,nan,nan,nan,nan,nan,nan,nan,nan,nan,0.0,nan,nan,nan,nan,nan,nan,nan,nan,nan,nan,nan,nan,nan,nan,nan,nan,nan,nan,263.0977814726648,430.87778613111004,nan,431.0854094698443,nan,nan,nan,nan
1,120,1,1,1.0,1.0,0.45481564733199775,0,0.0,0.0,0.0,0.4233914833907461,0.16289412340015705,0.2604973599905891,0.5862856067909031,0.16289412340015705,0.3089774376518714,4,2,1,7,3,6,nan,nan,nan,nan,nan,nan,nan,nan,nan,nan,nan,nan,0.0,nan,nan,nan,nan,nan,nan,nan,nan,nan,nan,nan,nan,nan,nan,nan,nan,nan,nan,263.0977814726648,431.89457426266745,nan,432.34938990999945,nan,nan,nan,nan
1,121,0,0,0.0,1.0,0.3736575210932642,0,0.0,0.0,0.0,0.42370572503015863,0.16210776205015187,0.26159796298000676,0.5858134870803104,0.16210776205015187,0.34536550238650915,7,3,2,6,4,8,nan,nan,nan,nan,nan,nan,nan,nan,nan,nan,nan,nan,0.0,nan,nan,nan,nan,nan,nan,nan,nan,nan,nan,nan,nan,nan,nan,nan,nan,nan,nan,263.0977814726648,432.9196920284885,nan,433.29334954958176,nan,nan,nan,nan
1,122,1,1,1.0,1.0,0.2128103655995801,0,0.0,0.0,0.0,0.42321019825850625,0.161379347513226,0.26183085074528023,0.5845895457717323,0.161379347513226,0.347094511341614,5,8,1,0,3,7,nan,nan,nan,nan,nan,nan,nan,nan,nan,nan,nan,nan,0.0,nan,nan,nan,nan,nan,nan,nan,nan,nan,nan,nan,nan,nan,nan,nan,nan,nan,nan,263.0977814726648,433.9365043932339,nan,434.1493147588335,nan,nan,nan,nan
1,123,1,1,0.0,0.0,0.059985226311255246,0,0.0,0.0,0.0,0.4211474548010658,0.16191884807410778,0.259228606726958,0.5830663028751736,0.16191884807410778,0.21548437100136653,2,7,4,6,5,8,nan,nan,nan,nan,nan,nan,nan,nan,nan,nan,nan,nan,0.0,nan,nan,nan,nan,nan,nan,nan,nan,nan,nan,nan,nan,nan,nan,nan,nan,nan,nan,263.0977814726648,434.95330307335826,nan,435.0132882996695,nan,nan,nan,nan
1,124,1,1,1.0,1.0,0.35522153769852594,0,1.0,0.0,0.0,0.4176410253982521,0.16497656580626147,0.25266445959199063,0.5826175912045135,0.16497656580626147,0.20933904320312044,0,8,7,3,6,2,nan,nan,nan,nan,nan,nan,nan,nan,nan,nan,nan,nan,0.0,nan,nan,nan,nan,nan,nan,nan,nan,nan,nan,nan,nan,nan,nan,nan,nan,nan,nan,263.0977814726648,435.97003903245786,nan,436.3252605701564,nan,nan,nan,nan
1,125,1,1,1.0,1.0,0.30629174335626885,1,0.0,0.0,1.0,0.4170408380165239,0.16429444889067604,0.2527463891258479,0.5813352869071999,0.16429444889067604,0.24049950245535,1,0,2,5,7,4,1.0,1.0,1.0,1.0,1.0,1.0,1.0,0.0,0.0,0.0,0.0,0.0,1.0,1.0,1.0,4.0,7.0,3.0,7.0,3.0,2.0,1.0,6.0,5.0,4.0,2.7074983243946917,2.235513372870628,1.5242515032878146,4.739255678490736,4.331416066328529,3.6593659420032054,263.0977814726648,436.98692723253043,437.7952472875477,437.2932189758867,443.59594845137326,444.5930037002545,438.82040496671107,443.58756464900216
1,126,1,1,1.0,1.0,0.3122636380721815,0,0.0,0.0,0.0,0.4159860847340453,0.163863642685043,0.2521224420490023,0.5798497274190884,0.163863642685043,0.3245923063756588,0,3,7,4,1,5,nan,nan,nan,nan,nan,nan,nan,nan,nan,nan,nan,nan,0.0,nan,nan,nan,nan,nan,nan,nan,nan,nan,nan,nan,nan,nan,nan,nan,nan,nan,nan,263.0977814726648,444.8127846500138,nan,445.12504828808596,nan,nan,nan,nan
1,127,0,0,1.0,0.0,0.21547572314739227,0,0.0,0.0,0.0,0.4150075710862919,0.16339680427127964,0.25161076681501227,0.5784043753575715,0.16339680427127964,0.2780103681919475,5,8,0,1,4,6,nan,nan,nan,nan,nan,nan,nan,nan,nan,nan,nan,nan,0.0,nan,nan,nan,nan,nan,nan,nan,nan,nan,nan,nan,nan,nan,nan,nan,nan,nan,nan,263.0977814726648,445.82955681625754,nan,446.04503253940493,nan,nan,nan,nan
1,128,1,1,1.0,1.0,0.45462862466229126,0,0.0,0.0,0.0,0.4131427874606947,0.16376081067552295,0.24938197678517177,0.5769035981362176,0.16376081067552295,0.327455995293955,7,4,3,6,2,0,nan,nan,nan,nan,nan,nan,nan,nan,nan,nan,nan,nan,0.0,nan,nan,nan,nan,nan,nan,nan,nan,nan,nan,nan,nan,nan,nan,nan,nan,nan,nan,263.0977814726648,446.8463543560356,nan,447.3009829806979,nan,nan,nan,nan
1,129,1,1,1.0,1.0,0.39779969019582495,0,0.0,0.0,0.0,0.4135269155829317,0.16304931859869182,0.2504775969842399,0.5765762341816235,0.16304931859869182,0.3559680126685028,5,0,7,1,4,8,nan,nan,nan,nan,nan,nan,nan,nan,nan,nan,nan,nan,0.0,nan,nan,nan,nan,nan,nan,nan,nan,nan,nan,nan,nan,nan,nan,nan,nan,nan,nan,263.0977814726648,447.8631590231671,nan,448.2609587133629,nan,nan,nan,nan
1,130,1,1,1.0,1.0,0.3490121584618464,0,0.0,0.0,0.0,0.4133826291114904,0.16230658915627483,0.25107603995521555,0.5756892182677652,0.16230658915627483,0.40048015777332086,1,8,4,6,7,0,nan,nan,nan,nan,nan,nan,nan,nan,nan,nan,nan,nan,0.0,nan,nan,nan,nan,nan,nan,nan,nan,nan,nan,nan,nan,nan,nan,nan,nan,nan,nan,263.0977814726648,448.87993090430973,nan,449.2289430627716,nan,nan,nan,nan
1,131,1,1,1.0,1.0,0.41216051898663864,0,0.0,0.0,0.0,0.4127974430146754,0.16168261943734816,0.2511148235773273,0.5744800624520235,0.16168261943734816,0.38632412254810333,5,7,2,1,0,3,nan,nan,nan,nan,nan,nan,nan,nan,nan,nan,nan,nan,0.0,nan,nan,nan,nan,nan,nan,nan,nan,nan,nan,nan,nan,nan,nan,nan,nan,nan,nan,263.0977814726648,449.8967387074954,nan,450.308899226482,nan,nan,nan,nan
1,132,1,1,1.0,1.0,0.5313398317666724,0,0.0,0.0,0.0,0.41279170496036877,0.16095268285467276,0.251839022105696,0.5737443878150416,0.16095268285467276,0.43083750307171914,4,6,5,3,8,1,nan,nan,nan,nan,nan,nan,nan,nan,nan,nan,nan,nan,0.0,nan,nan,nan,nan,nan,nan,nan,nan,nan,nan,nan,nan,nan,nan,nan,nan,nan,nan,263.0977814726648,450.91352854965953,nan,451.4448683814262,nan,nan,nan,nan
1,133,1,1,1.0,1.0,0.3625673074857332,0,0.0,0.0,0.0,0.4138501703782822,0.1606201213374631,0.25323004904081914,0.5744702917157453,0.1606201213374631,0.4353558860796814,0,2,8,4,5,3,nan,nan,nan,nan,nan,nan,nan,nan,nan,nan,nan,nan,0.0,nan,nan,nan,nan,nan,nan,nan,nan,nan,nan,nan,nan,nan,nan,nan,nan,nan,nan,263.0977814726648,451.93028389522806,nan,452.2928512027138,nan,nan,nan,nan
1,134,1,1,1.0,1.0,0.3777187059749849,0,0.0,0.0,0.0,0.4133963397332154,0.1599799455540086,0.2534163941792068,0.573376285287224,0.1599799455540086,0.4238752817424635,6,1,5,0,2,7,nan,nan,nan,nan,nan,nan,nan,nan,nan,nan,nan,nan,0.0,nan,nan,nan,nan,nan,nan,nan,nan,nan,nan,nan,nan,nan,nan,nan,nan,nan,nan,263.0977814726648,452.9470902729663,nan,453.3248089789413,nan,nan,nan,nan
1,135,1,1,1.0,1.0,0.42489259742433205,0,0.0,0.0,0.0,0.4130833780335818,0.15931147370319268,0.2537719043303891,0.5723948517367745,0.15931147370319268,0.38839287029501673,2,3,4,5,6,0,nan,nan,nan,nan,nan,nan,nan,nan,nan,nan,nan,nan,0.0,nan,nan,nan,nan,nan,nan,nan,nan,nan,nan,nan,nan,nan,nan,nan,nan,nan,nan,263.0977814726648,453.96389522514073,nan,454.38878782256506,nan,nan,nan,nan
1,136,0,0,0.0,1.0,0.40809192159213126,0,0.0,0.0,0.0,0.4131860668978492,0.15862109211918,0.25456497477866924,0.5718071590170292,0.15862109211918,0.4035677416638161,5,4,3,2,1,8,nan,nan,nan,nan,nan,nan,nan,nan,nan,nan,nan,nan,0.0,nan,nan,nan,nan,nan,nan,nan,nan,nan,nan,nan,nan,nan,nan,nan,nan,nan,nan,263.0977814726648,454.98066938709235,nan,455.3887613086845,nan,nan,nan,nan
1,137,1,1,1.0,1.0,0.288442486373242,0,0.0,0.0,0.0,0.41314215185211023,0.15793660273522486,0.25520554911688537,0.571078754587335,0.15793660273522486,0.37380900179656845,0,7,8,6,2,3,nan,nan,nan,nan,nan,nan,nan,nan,nan,nan,nan,nan,0.0,nan,nan,nan,nan,nan,nan,nan,nan,nan,nan,nan,nan,nan,nan,nan,nan,nan,nan,263.0977814726648,456.0203033587313,nan,456.30874584510457,nan,nan,nan,nan
1,138,1,1,1.0,1.0,0.36545960092917085,0,0.0,0.0,0.0,0.41207634274545324,0.15767861061233918,0.25439773213311406,0.5697549533577924,0.15767861061233918,0.353998002964848,5,0,3,4,7,2,nan,nan,nan,nan,nan,nan,nan,nan,nan,nan,nan,nan,0.0,nan,nan,nan,nan,nan,nan,nan,nan,nan,nan,nan,nan,nan,nan,nan,nan,nan,nan,263.0977814726648,457.03924937790725,nan,457.4047089788364,nan,nan,nan,nan
1,139,1,1,1.0,1.0,0.4286401772988029,0,0.0,0.0,0.0,0.411681285611417,0.15706719875079472,0.25461408686062226,0.5687484843622117,0.15706719875079472,0.36084742153373855,3,1,2,5,8,4,nan,nan,nan,nan,nan,nan,nan,nan,nan,nan,nan,nan,0.0,nan,nan,nan,nan,nan,nan,nan,nan,nan,nan,nan,nan,nan,nan,nan,nan,nan,nan,263.0977814726648,458.056035513815,nan,458.4846756911138,nan,nan,nan,nan
1,140,1,1,1.0,1.0,0.3478218849049881,0,0.0,0.0,0.0,0.41182379730626895,0.15641352130860198,0.25541027599766697,0.5682373186148709,0.15641352130860198,0.38064055437765393,1,4,3,6,5,0,nan,nan,nan,nan,nan,nan,nan,nan,nan,nan,nan,nan,0.0,nan,nan,nan,nan,nan,nan,nan,nan,nan,nan,nan,nan,nan,nan,nan,nan,nan,nan,263.0977814726648,459.0728296323796,nan,459.42065151728457,nan,nan,nan,nan
1,141,1,1,1.0,1.0,0.4430041421437636,0,0.0,0.0,0.0,0.41129044803625825,0.15586906036660986,0.2554213876696484,0.5671595084028681,0.15586906036660986,0.4064887347825182,2,8,1,5,6,7,nan,nan,nan,nan,nan,nan,nan,nan,nan,nan,nan,nan,0.0,nan,nan,nan,nan,nan,nan,nan,nan,nan,nan,nan,nan,nan,nan,nan,nan,nan,nan,263.0977814726648,460.0896177639952,nan,460.53262190613896,nan,nan,nan,nan
1,142,1,1,1.0,1.0,0.3541860709665343,0,0.0,0.0,0.0,0.4115525446817748,0.15525018795025916,0.2563023567315157,0.566802732632034,0.15525018795025916,0.3816706993384287,0,4,7,6,5,3,nan,nan,nan,nan,nan,nan,nan,nan,nan,nan,nan,nan,0.0,nan,nan,nan,nan,nan,nan,nan,nan,nan,nan,nan,nan,nan,nan,nan,nan,nan,nan,263.0977814726648,461.10641672922065,nan,461.4606028001872,nan,nan,nan,nan
1,143,1,1,1.0,1.0,0.353410326235462,0,0.0,0.0,0.0,0.4110823276841089,0.15469910141803972,0.2563832262660692,0.5657814291021486,0.15469910141803972,0.3835335131152533,1,6,5,7,4,8,nan,nan,nan,nan,nan,nan,nan,nan,nan,nan,nan,nan,0.0,nan,nan,nan,nan,nan,nan,nan,nan,nan,nan,nan,nan,nan,nan,nan,nan,nan,nan,263.0977814726648,462.1231911762152,nan,462.47660150245065,nan,nan,nan,nan
1,144,1,1,1.0,1.0,0.44057142251404,0,0.0,0.0,0.0,0.41061344962355084,0.15415597845050158,0.2564574711730493,0.5647694280740524,0.15415597845050158,0.3827226065720121,0,5,4,8,3,2,nan,nan,nan,nan,nan,nan,nan,nan,nan,nan,nan,nan,0.0,nan,nan,nan,nan,nan,nan,nan,nan,nan,nan,nan,nan,nan,nan,nan,nan,nan,nan,263.0977814726648,463.13998101837933,nan,463.58055244089337,nan,nan,nan,nan
1,145,1,1,1.0,1.0,0.3437478707055561,0,0.0,0.0,0.0,0.4108550461791193,0.1535565022235569,0.2572985439555624,0.5644115484026762,0.1535565022235569,0.37924320648501936,7,0,1,6,8,3,nan,nan,nan,nan,nan,nan,nan,nan,nan,nan,nan,nan,0.0,nan,nan,nan,nan,nan,nan,nan,nan,nan,nan,nan,nan,nan,nan,nan,nan,nan,nan,263.0977814726648,464.156769720139,nan,464.50051759084454,nan,nan,nan,nan
1,146,1,1,1.0,1.0,0.31896423682337627,0,0.0,0.0,0.0,0.41031818877533077,0.15305783661172165,0.2572603521636091,0.5633760253870524,0.15305783661172165,0.3677611766809908,8,4,5,7,3,6,nan,nan,nan,nan,nan,nan,nan,nan,nan,nan,nan,nan,0.0,nan,nan,nan,nan,nan,nan,nan,nan,nan,nan,nan,nan,nan,nan,nan,nan,nan,nan,263.0977814726648,465.17355585604673,nan,465.4925200928701,nan,nan,nan,nan
1,147,1,1,1.0,1.0,0.3261301112943329,0,0.0,0.0,0.0,0.40959315741063274,0.15266461265485953,0.2569285447557732,0.5622577700654923,0.15266461265485953,0.3296140729410884,6,0,7,4,8,5,nan,nan,nan,nan,nan,nan,nan,nan,nan,nan,nan,nan,0.0,nan,nan,nan,nan,nan,nan,nan,nan,nan,nan,nan,nan,nan,nan,nan,nan,nan,nan,263.0977814726648,466.19033258385025,nan,466.5164626951446,nan,nan,nan,nan
1,148,0,0,0.0,1.0,0.49329013569513336,0,0.0,0.0,0.0,0.4089359680711343,0.15224121472738886,0.2566947533437455,0.5611771827985231,0.15224121472738886,0.37946149460428086,4,7,8,3,0,1,nan,nan,nan,nan,nan,nan,nan,nan,nan,nan,nan,nan,0.0,nan,nan,nan,nan,nan,nan,nan,nan,nan,nan,nan,nan,nan,nan,nan,nan,nan,nan,263.0977814726648,467.2071392466314,nan,467.70042938232655,nan,nan,nan,nan
1,149,1,1,1.0,1.0,0.420497280661948,0,0.0,0.0,0.0,0.4095949850056968,0.15182710773696415,0.2577678772687326,0.561422092742661,0.15182710773696415,0.4133058425504714,1,3,6,8,5,7,nan,nan,nan,nan,nan,nan,nan,nan,nan,nan,nan,nan,0.0,nan,nan,nan,nan,nan,nan,nan,nan,nan,nan,nan,nan,nan,nan,nan,nan,nan,nan,263.0977814726648,468.223922246485,nan,468.64441952714697,nan,nan,nan,nan
1,150,1,1,1.0,1.0,0.4036658144905232,0,0.0,0.0,0.0,0.4096794989255127,0.15124050821796398,0.2584389907075487,0.5609200071434767,0.15124050821796398,0.4391510769492015,6,0,8,5,2,3,nan,nan,nan,nan,nan,nan,nan,nan,nan,nan,nan,nan,0.0,nan,nan,nan,nan,nan,nan,nan,nan,nan,nan,nan,nan,nan,nan,nan,nan,nan,nan,263.0977814726648,469.24071180360625,nan,469.64437761809677,nan,nan,nan,nan
1,151,1,1,1.0,1.0,0.37085218174615875,0,0.0,0.0,0.0,0.4096332398144743,0.15065860712909843,0.2589746326853759,0.5602918469435727,0.15065860712909843,0.39833842563287664,4,5,7,2,0,6,nan,nan,nan,nan,nan,nan,nan,nan,nan,nan,nan,nan,0.0,nan,nan,nan,nan,nan,nan,nan,nan,nan,nan,nan,nan,nan,nan,nan,nan,nan,nan,263.0977814726648,470.25749622890726,nan,470.6283484106534,nan,nan,nan,nan
1,152,1,1,1.0,1.0,0.521691060916055,0,0.0,0.0,0.0,0.4093372012032658,0.15012042384975469,0.2592167773535111,0.5594576250530204,0.15012042384975469,0.432069685717579,7,3,0,5,2,8,nan,nan,nan,nan,nan,nan,nan,nan,nan,nan,nan,nan,0.0,nan,nan,nan,nan,nan,nan,nan,nan,nan,nan,nan,nan,nan,nan,nan,nan,nan,nan,263.0977814726648,471.28262482833816,nan,471.8043158892542,nan,nan,nan,nan
1,153,1,1,1.0,1.0,0.40888990386156365,0,0.0,0.0,0.0,0.4101883668071506,0.14986767686499616,0.2603206899421544,0.5600560436721468,0.14986767686499616,0.43381104884125915,8,0,7,3,5,4,nan,nan,nan,nan,nan,nan,nan,nan,nan,nan,nan,nan,0.0,nan,nan,nan,nan,nan,nan,nan,nan,nan,nan,nan,nan,nan,nan,nan,nan,nan,nan,263.0977814726648,472.2994123897515,nan,472.7083022936131,nan,nan,nan,nan
1,154,1,1,1.0,1.0,0.2880618839408271,0,0.0,0.0,0.0,0.41017860392786043,0.14930324363385547,0.26087536029400493,0.5594818475617159,0.14930324363385547,0.4062142829061486,4,1,6,8,2,0,nan,nan,nan,nan,nan,nan,nan,nan,nan,nan,nan,nan,0.0,nan,nan,nan,nan,nan,nan,nan,nan,nan,nan,nan,nan,nan,nan,nan,nan,nan,nan,263.0977814726648,473.3162238991936,nan,473.6042857831344,nan,nan,nan,nan
1,155,1,1,1.0,1.0,0.3749056690139696,0,0.0,0.0,0.0,0.40926728512198707,0.14911593192112327,0.2601513532008638,0.5583832170431103,0.14911593192112327,0.3572858189387868,1,0,8,2,6,4,nan,nan,nan,nan,nan,nan,nan,nan,nan,nan,nan,nan,0.0,nan,nan,nan,nan,nan,nan,nan,nan,nan,nan,nan,nan,nan,nan,nan,nan,nan,nan,263.0977814726648,474.3413208530401,nan,474.71622652205406,nan,nan,nan,nan
1,156,0,0,0.0,1.0,0.3580830409191549,0,0.0,0.0,0.0,0.409012754632298,0.1485918388927163,0.2604209157395817,0.5576045935250143,0.1485918388927163,0.3403501979579839,3,4,7,8,0,5,nan,nan,nan,nan,nan,nan,nan,nan,nan,nan,nan,nan,0.0,nan,nan,nan,nan,nan,nan,nan,nan,nan,nan,nan,nan,nan,nan,nan,nan,nan,nan,263.0977814726648,475.3581443364383,nan,475.7162273773574,nan,nan,nan,nan
1,157,1,1,1.0,1.0,0.4293013137066737,0,0.0,0.0,0.0,0.40863827144323084,0.14810846414185275,0.2605298073013781,0.5567467355850836,0.14810846414185275,0.3874300078799327,7,0,8,4,5,3,nan,nan,nan,nan,nan,nan,nan,nan,nan,nan,nan,nan,0.0,nan,nan,nan,nan,nan,nan,nan,nan,nan,nan,nan,nan,nan,nan,nan,nan,nan,nan,263.0977814726648,476.3748982565594,nan,476.80419957026606,nan,nan,nan,nan
1,158,1,1,1.0,1.0,0.4284557205392048,0,0.0,0.0,0.0,0.40878909656924134,0.14757741448053285,0.2612116820887085,0.5563665110497742,0.14757741448053285,0.4052800250550111,2,6,7,1,3,4,nan,nan,nan,nan,nan,nan,nan,nan,nan,nan,nan,nan,0.0,nan,nan,nan,nan,nan,nan,nan,nan,nan,nan,nan,nan,nan,nan,nan,nan,nan,nan,263.0977814726648,477.39170976600144,nan,477.82016548654065,nan,nan,nan,nan
1,159,1,1,1.0,1.0,0.42766115948325023,0,0.0,0.0,0.0,0.40893160833713965,0.14705120252515533,0.26188040581198435,0.555982810862295,0.14705120252515533,0.4284727312430429,6,2,8,0,4,5,nan,nan,nan,nan,nan,nan,nan,nan,nan,nan,nan,nan,0.0,nan,nan,nan,nan,nan,nan,nan,nan,nan,nan,nan,nan,nan,nan,nan,nan,nan,nan,263.0977814726648,478.4084768005414,nan,478.83613796002464,nan,nan,nan,nan
1,160,1,1,1.0,1.0,0.3628575346665457,0,0.0,0.0,0.0,0.4090663533094138,0.14652983645440476,0.26253651685500906,0.5555961897638186,0.14652983645440476,0.40632480489633355,1,6,3,8,5,7,nan,nan,nan,nan,nan,nan,nan,nan,nan,nan,nan,nan,0.0,nan,nan,nan,nan,nan,nan,nan,nan,nan,nan,nan,nan,nan,nan,nan,nan,nan,nan,263.0977814726648,479.42526806815295,nan,479.7881256028195,nan,nan,nan,nan
1,161,1,1,1.0,1.0,0.33004190621431917,0,0.0,0.0,0.0,0.40873629031910763,0.14605742574455824,0.26267886457454936,0.5547937160636659,0.14605742574455824,0.3735202001213717,4,5,0,6,2,1,nan,nan,nan,nan,nan,nan,nan,nan,nan,nan,nan,nan,0.0,nan,nan,nan,nan,nan,nan,nan,nan,nan,nan,nan,nan,nan,nan,nan,nan,nan,nan,263.0977814726648,480.4420553444652,nan,480.7720972506795,nan,nan,nan,nan
1,162,1,1,1.0,1.0,0.3372320138150826,0,0.0,0.0,0.0,0.40817817411978286,0.1456883127756321,0.26248986134415075,0.553866486895415,0.1456883127756321,0.34337715156531584,3,8,6,4,1,0,nan,nan,nan,nan,nan,nan,nan,nan,nan,nan,nan,nan,0.0,nan,nan,nan,nan,nan,nan,nan,nan,nan,nan,nan,nan,nan,nan,nan,nan,nan,nan,263.0977814726648,481.4588420505752,nan,481.79607406439027,nan,nan,nan,nan
1,163,1,1,1.0,1.0,0.27240244532004,0,0.0,0.0,0.0,0.4076785532725667,0.1452955904810131,0.2623829627915536,0.5529741437535798,0.1452955904810131,0.3132254551164806,1,2,7,5,6,3,nan,nan,nan,nan,nan,nan,nan,nan,nan,nan,nan,nan,0.0,nan,nan,nan,nan,nan,nan,nan,nan,nan,nan,nan,nan,nan,nan,nan,nan,nan,nan,263.0977814726648,482.4756341734901,nan,482.74803661881015,nan,nan,nan,nan
1,164,1,1,1.0,1.0,0.39152644958812743,0,0.0,0.0,0.0,0.4067325665036679,0.1452248432544178,0.2615077232492501,0.5519574097580857,0.1452248432544178,0.33372030290775,3,5,6,0,2,4,nan,nan,nan,nan,nan,nan,nan,nan,nan,nan,nan,nan,0.0,nan,nan,nan,nan,nan,nan,nan,nan,nan,nan,nan,nan,nan,nan,nan,nan,nan,nan,263.0977814726648,483.4924981404911,nan,483.8840245900792,nan,nan,nan,nan
1,165,1,1,1.0,1.0,0.48678083601407707,0,0.0,0.0,0.0,0.40662696846953217,0.14472522094828333,0.26190174752124884,0.5513521894178155,0.14472522094828333,0.38356991030741483,6,7,5,4,3,1,nan,nan,nan,nan,nan,nan,nan,nan,nan,nan,nan,nan,0.0,nan,nan,nan,nan,nan,nan,nan,nan,nan,nan,nan,nan,nan,nan,nan,nan,nan,nan,263.0977814726648,484.50921214726986,nan,484.99599298328394,nan,nan,nan,nan
1,166,1,1,1.0,1.0,0.35796814743662253,0,0.0,0.0,0.0,0.40717975376294285,0.14437777157002696,0.2628019821929159,0.5515575253329699,0.14437777157002696,0.41209181101294234,3,2,4,8,5,6,nan,nan,nan,nan,nan,nan,nan,nan,nan,nan,nan,nan,0.0,nan,nan,nan,nan,nan,nan,nan,nan,nan,nan,nan,nan,nan,nan,nan,nan,nan,nan,263.0977814726648,485.52599742787424,nan,485.88396557531087,nan,nan,nan,nan
1,167,1,1,1.0,1.0,0.3411486553377472,0,0.0,0.0,0.0,0.4068426879661872,0.14393971408719064,0.2629029738789966,0.5507824020533778,0.14393971408719064,0.3952992129294823,7,4,0,6,3,8,nan,nan,nan,nan,nan,nan,nan,nan,nan,nan,nan,nan,0.0,nan,nan,nan,nan,nan,nan,nan,nan,nan,nan,nan,nan,nan,nan,nan,nan,nan,nan,263.0977814726648,486.5427864147932,nan,486.883935070131,nan,nan,nan,nan
1,168,1,1,1.0,1.0,0.3083290354697965,0,0.0,0.0,0.0,0.4063957897850414,0.1435508863754391,0.26284490340960226,0.5499466761604805,0.1435508863754391,0.33581527941472206,6,7,1,2,0,4,nan,nan,nan,nan,nan,nan,nan,nan,nan,nan,nan,nan,0.0,nan,nan,nan,nan,nan,nan,nan,nan,nan,nan,nan,nan,nan,nan,nan,nan,nan,nan,263.0977814726648,487.5595765420585,nan,487.8679055775283,nan,nan,nan,nan
1,169,0,0,1.0,0.0,0.33951448812149465,0,0.0,0.0,0.0,0.40573317658020863,0.14329048373548683,0.26244269284472177,0.5490236603156955,0.14329048373548683,0.32966405964301276,1,3,0,4,7,6,nan,nan,nan,nan,nan,nan,nan,nan,nan,nan,nan,nan,0.0,nan,nan,nan,nan,nan,nan,nan,nan,nan,nan,nan,nan,nan,nan,nan,nan,nan,nan,263.0977814726648,488.57637322647497,nan,488.91588771459647,nan,nan,nan,nan
1,170,1,1,1.0,1.0,0.44268426502821967,0,0.0,0.0,0.0,0.4052887558522978,0.14291114171831557,0.2623776141339822,0.5481998975706134,0.14291114171831557,0.36350926287317026,0,7,2,5,1,8,nan,nan,nan,nan,nan,nan,nan,nan,nan,nan,nan,nan,0.0,nan,nan,nan,nan,nan,nan,nan,nan,nan,nan,nan,nan,nan,nan,nan,nan,nan,nan,263.0977814726648,489.59316705999663,nan,490.03585132502485,nan,nan,nan,nan
1,171,1,1,1.0,1.0,0.3618890653597191,0,0.0,0.0,0.0,0.4055380592468039,0.1424664795881658,0.26307157965863814,0.5480045388349697,0.1424664795881658,0.38136260616981116,8,5,6,1,7,2,nan,nan,nan,nan,nan,nan,nan,nan,nan,nan,nan,nan,0.0,nan,nan,nan,nan,nan,nan,nan,nan,nan,nan,nan,nan,nan,nan,nan,nan,nan,nan,263.0977814726648,490.60993494978175,nan,490.97182401514146,nan,nan,nan,nan
1,172,1,1,1.0,1.0,0.4170698629459366,0,0.0,0.0,0.0,0.40524899306212125,0.14203808108339963,0.2632109119787216,0.5472870741455209,0.14203808108339963,0.4072143977779585,4,0,7,8,1,6,nan,nan,nan,nan,nan,nan,nan,nan,nan,nan,nan,nan,0.0,nan,nan,nan,nan,nan,nan,nan,nan,nan,nan,nan,nan,nan,nan,nan,nan,nan,nan,263.0977814726648,491.626739046711,nan,492.04380890965695,nan,nan,nan,nan
1,173,1,1,1.0,1.0,0.37628610129468143,0,0.0,0.0,0.0,0.4053267619429358,0.1415733049338799,0.26375345700905595,0.5469000668768157,0.1415733049338799,0.3850816765334457,7,2,5,0,3,1,nan,nan,nan,nan,nan,nan,nan,nan,nan,nan,nan,nan,0.0,nan,nan,nan,nan,nan,nan,nan,nan,nan,nan,nan,nan,nan,nan,nan,nan,nan,nan,263.0977814726648,492.6435177701642,nan,493.01980387145886,nan,nan,nan,nan
1,174,1,1,1.0,1.0,0.39146515406901017,0,0.0,0.0,0.0,0.40513695370340475,0.1411292910597498,0.26400766264365494,0.5462662447631546,0.1411292910597498,0.3949403727698761,8,5,4,3,7,2,nan,nan,nan,nan,nan,nan,nan,nan,nan,nan,nan,nan,0.0,nan,nan,nan,nan,nan,nan,nan,nan,nan,nan,nan,nan,nan,nan,nan,nan,nan,nan,263.0977814726648,493.660298489267,nan,494.051763643336,nan,nan,nan,nan
1,175,1,1,1.0,1.0,0.3026741669746116,0,0.0,0.0,0.0,0.4050481757837009,0.14067461889955815,0.26437355688414277,0.545722794683259,0.14067461889955815,0.3568084741127677,3,8,2,1,6,0,nan,nan,nan,nan,nan,nan,nan,nan,nan,nan,nan,nan,0.0,nan,nan,nan,nan,nan,nan,nan,nan,nan,nan,nan,nan,nan,nan,nan,nan,nan,nan,263.0977814726648,494.6770772127202,nan,494.9797513796948,nan,nan,nan,nan
1,176,1,1,1.0,1.0,0.20581497816601768,0,0.0,0.0,0.0,0.40438769830751325,0.1404594414181709,0.26392825688934235,0.5448471397256842,0.1404594414181709,0.29998476640321314,2,6,7,0,1,5,nan,nan,nan,nan,nan,nan,nan,nan,nan,nan,nan,nan,0.0,nan,nan,nan,nan,nan,nan,nan,nan,nan,nan,nan,nan,nan,nan,nan,nan,nan,nan,263.0977814726648,495.6938947091694,nan,495.8997096873354,nan,nan,nan,nan
1,177,1,1,1.0,1.0,0.43702198402024806,0,0.0,0.0,0.0,0.40311479625532415,0.14090255856316108,0.26221223769216306,0.5440173548184852,0.14090255856316108,0.3151703763869591,6,7,8,4,3,1,nan,nan,nan,nan,nan,nan,nan,nan,nan,nan,nan,nan,0.0,nan,nan,nan,nan,nan,nan,nan,nan,nan,nan,nan,nan,nan,nan,nan,nan,nan,nan,263.0977814726648,496.71066573500866,nan,497.1476877190289,nan,nan,nan,nan
1,178,0,0,0.0,1.0,0.4442214997834526,0,0.0,0.0,0.0,0.4033307656041453,0.14047900792866155,0.26285175767548374,0.5438097735328069,0.14047900792866155,0.36235282065657276,2,8,7,3,4,5,nan,nan,nan,nan,nan,nan,nan,nan,nan,nan,nan,nan,0.0,nan,nan,nan,nan,nan,nan,nan,nan,nan,nan,nan,nan,nan,nan,nan,nan,nan,nan,263.0977814726648,497.72744360315846,nan,498.1716651029419,nan,nan,nan,nan
1,179,1,1,1.0,1.0,0.32338777801487595,0,0.0,0.0,0.0,0.40358956771920423,0.14007129020127618,0.26351827751792806,0.5436608579204805,0.14007129020127618,0.4015437539395255,4,5,8,7,3,6,nan,nan,nan,nan,nan,nan,nan,nan,nan,nan,nan,nan,0.0,nan,nan,nan,nan,nan,nan,nan,nan,nan,nan,nan,nan,nan,nan,nan,nan,nan,nan,263.0977814726648,498.74425169144524,nan,499.0676394694601,nan,nan,nan,nan
1,180,1,1,1.0,1.0,0.3062649443745613,0,0.0,0.0,0.0,0.4030851539474789,0.1397739989337517,0.2633111550137272,0.5428591528812305,0.1397739989337517,0.35795807405762997,0,4,6,5,2,8,nan,nan,nan,nan,nan,nan,nan,nan,nan,nan,nan,nan,0.0,nan,nan,nan,nan,nan,nan,nan,nan,nan,nan,nan,nan,nan,nan,nan,nan,nan,nan,263.0977814726648,499.7693520663888,nan,500.0756170107634,nan,nan,nan,nan
1,181,1,1,1.0,1.0,0.36109507450601086,0,0.0,0.0,0.0,0.4024800276376482,0.13954529099491456,0.2629347366427336,0.5420253186325628,0.13954529099491456,0.33024926563181606,8,1,4,3,7,6,nan,nan,nan,nan,nan,nan,nan,nan,nan,nan,nan,nan,0.0,nan,nan,nan,nan,nan,nan,nan,nan,nan,nan,nan,nan,nan,nan,nan,nan,nan,nan,263.0977814726648,500.79449263983406,nan,501.1555877143401,nan,nan,nan,nan
1,182,1,1,1.0,1.0,0.44829294813098386,0,0.0,0.0,0.0,0.402222978239315,0.13914923832121515,0.2630737399180999,0.5413722165605301,0.13914923832121515,0.3718843223371853,7,8,0,4,6,5,nan,nan,nan,nan,nan,nan,nan,nan,nan,nan,nan,nan,0.0,nan,nan,nan,nan,nan,nan,nan,nan,nan,nan,nan,nan,nan,nan,nan,nan,nan,nan,263.0977814726648,501.8112699378398,nan,502.2595628859708,nan,nan,nan,nan
1,183,1,1,1.0,1.0,0.3914249556255527,0,0.0,0.0,0.0,0.4025073607695105,0.13876602421574583,0.26374133655376464,0.5412733849852563,0.13876602421574583,0.4002709927541825,5,6,4,7,8,0,nan,nan,nan,nan,nan,nan,nan,nan,nan,nan,nan,nan,0.0,nan,nan,nan,nan,nan,nan,nan,nan,nan,nan,nan,nan,nan,nan,nan,nan,nan,nan,263.0977814726648,502.8280994082452,nan,503.21952436387073,nan,nan,nan,nan
1,184,1,1,1.0,1.0,0.37463653896702453,0,0.0,0.0,0.0,0.4024393705539034,0.13834241331430736,0.26409695723959603,0.5407817838682107,0.13834241331430736,0.404784814241187,4,0,2,6,5,1,nan,nan,nan,nan,nan,nan,nan,nan,nan,nan,nan,nan,0.0,nan,nan,nan,nan,nan,nan,nan,nan,nan,nan,nan,nan,nan,nan,nan,nan,nan,nan,263.0977814726648,503.84486188122537,nan,504.2194984201924,nan,nan,nan,nan
1,185,1,1,1.0,1.0,0.3098411818500608,0,0.0,0.0,0.0,0.4022698410930078,0.1379369749477854,0.2643328661452224,0.5402068160407931,0.1379369749477854,0.35863422548087937,5,6,3,1,8,2,nan,nan,nan,nan,nan,nan,nan,nan,nan,nan,nan,nan,0.0,nan,nan,nan,nan,nan,nan,nan,nan,nan,nan,nan,nan,nan,nan,nan,nan,nan,nan,263.0977814726648,504.86163917923113,nan,505.1714803610812,nan,nan,nan,nan
1,186,1,1,1.0,1.0,0.2929948908276856,0,0.0,0.0,0.0,0.4017096674006263,0.1377053324470123,0.264004334953614,0.5394149998476386,0.1377053324470123,0.32582420388159034,2,7,6,8,0,4,nan,nan,nan,nan,nan,nan,nan,nan,nan,nan,nan,nan,0.0,nan,nan,nan,nan,nan,nan,nan,nan,nan,nan,nan,nan,nan,nan,nan,nan,nan,nan,263.0977814726648,505.87846323283156,nan,506.17145812365925,nan,nan,nan,nan
1,187,1,1,1.0,1.0,0.3078554919338785,0,0.0,0.0,0.0,0.40105475910801824,0.13754742601273662,0.2635073330952816,0.5386021851207549,0.13754742601273662,0.30356385487054166,4,1,5,2,7,3,nan,nan,nan,nan,nan,nan,nan,nan,nan,nan,nan,nan,0.0,nan,nan,nan,nan,nan,nan,nan,nan,nan,nan,nan,nan,nan,nan,nan,nan,nan,nan,263.0977814726648,506.90357529674657,nan,507.21143078868045,nan,nan,nan,nan
1,188,1,1,1.0,1.0,0.28303479560418054,0,0.0,0.0,0.0,0.4004966796638617,0.13732336420741853,0.2631733154564432,0.5378200438712802,0.13732336420741853,0.29462839278858155,5,8,6,3,4,0,nan,nan,nan,nan,nan,nan,nan,nan,nan,nan,nan,nan,0.0,nan,nan,nan,nan,nan,nan,nan,nan,nan,nan,nan,nan,nan,nan,nan,nan,nan,nan,263.0977814726648,507.92035402019974,nan,508.2033888158039,nan,nan,nan,nan
1,189,0,0,1.0,0.0,0.23421675869030878,0,0.0,0.0,0.0,0.3997975017825541,0.13721186540033048,0.2625856363822236,0.5370093671828846,0.13721186540033048,0.2750356820761226,7,5,4,1,2,3,nan,nan,nan,nan,nan,nan,nan,nan,nan,nan,nan,nan,0.0,nan,nan,nan,nan,nan,nan,nan,nan,nan,nan,nan,nan,nan,nan,nan,nan,nan,nan,263.0977814726648,508.9371381603996,nan,509.17135491908994,nan,nan,nan,nan
1,190,1,1,1.0,1.0,0.4893871787353419,0,0.0,0.0,0.0,0.3988177340719491,0.1373934634271256,0.2614242706448235,0.5362111974990746,0.1373934634271256,0.33554624434327707,0,7,6,8,3,5,nan,nan,nan,nan,nan,nan,nan,nan,nan,nan,nan,nan,0.0,nan,nan,nan,nan,nan,nan,nan,nan,nan,nan,nan,nan,nan,nan,nan,nan,nan,nan,263.0977814726648,509.95392999827163,nan,510.443317177007,nan,nan,nan,nan
1,191,1,1,1.0,1.0,0.37658915779320523,0,0.0,0.0,0.0,0.3993504955111455,0.137163737561903,0.2621867579492425,0.5365142330730485,0.137163737561903,0.36673103173961863,3,6,4,7,1,8,nan,nan,nan,nan,nan,nan,nan,nan,nan,nan,nan,nan,0.0,nan,nan,nan,nan,nan,nan,nan,nan,nan,nan,nan,nan,nan,nan,nan,nan,nan,nan,263.0977814726648,510.9707178447279,nan,511.3473070025211,nan,nan,nan,nan
1,192,1,1,1.0,1.0,0.4317859206930734,0,0.0,0.0,0.0,0.3992173882730289,0.1367730972428447,0.2624442910301842,0.5359904855158736,0.1367730972428447,0.4325874190738735,7,1,8,5,0,6,nan,nan,nan,nan,nan,nan,nan,nan,nan,nan,nan,nan,0.0,nan,nan,nan,nan,nan,nan,nan,nan,nan,nan,nan,nan,nan,nan,nan,nan,nan,nan,263.0977814726648,511.9875082570943,nan,512.4192941777874,nan,nan,nan,nan
1,193,1,1,1.0,1.0,0.27100148622412235,0,0.0,0.0,0.0,0.39940674020570355,0.13639739828464278,0.26300934192106074,0.5358041384903464,0.13639739828464278,0.3597921882368003,4,3,6,7,2,5,nan,nan,nan,nan,nan,nan,nan,nan,nan,nan,nan,nan,0.0,nan,nan,nan,nan,nan,nan,nan,nan,nan,nan,nan,nan,nan,nan,nan,nan,nan,nan,263.0977814726648,513.0042752916343,nan,513.2752767778584,nan,nan,nan,nan
1,194,0,0,1.0,0.0,0.15822171134641394,0,0.0,0.0,0.0,0.39866451330407593,0.1363505268527567,0.2623139864513192,0.5350150401568327,0.1363505268527567,0.28700303942120325,0,7,8,4,3,2,nan,nan,nan,nan,nan,nan,nan,nan,nan,nan,nan,nan,0.0,nan,nan,nan,nan,nan,nan,nan,nan,nan,nan,nan,nan,nan,nan,nan,nan,nan,nan,263.0977814726648,514.0210406155675,nan,514.1792623269139,nan,nan,nan,nan
1,195,1,1,1.0,1.0,0.36534698825562373,0,0.0,0.0,0.0,0.3972826581204112,0.13716765753921095,0.26011500058120024,0.5344503156596221,0.13716765753921095,0.26485672860872,8,2,0,7,4,5,nan,nan,nan,nan,nan,nan,nan,nan,nan,nan,nan,nan,0.0,nan,nan,nan,nan,nan,nan,nan,nan,nan,nan,nan,nan,nan,nan,nan,nan,nan,nan,263.0977814726648,515.0378692307277,nan,515.4032162189833,nan,nan,nan,nan
1,196,1,1,1.0,1.0,0.37254735932219774,0,0.0,0.0,0.0,0.3971001685783267,0.13679636985363408,0.2603037987246926,0.5338965384319607,0.13679636985363408,0.29870535297474515,5,7,6,3,0,1,nan,nan,nan,nan,nan,nan,nan,nan,nan,nan,nan,nan,0.0,nan,nan,nan,nan,nan,nan,nan,nan,nan,nan,nan,nan,nan,nan,nan,nan,nan,nan,263.0977814726648,516.0546391162206,nan,516.4271864755428,nan,nan,nan,nan
1,197,1,1,1.0,1.0,0.37170632771449164,0,0.0,0.0,0.0,0.3969606639802805,0.1364196734618849,0.26054099051839563,0.5333803374421654,0.1364196734618849,0.36986689176410437,3,0,7,8,5,4,nan,nan,nan,nan,nan,nan,nan,nan,nan,nan,nan,nan,0.0,nan,nan,nan,nan,nan,nan,nan,nan,nan,nan,nan,nan,nan,nan,nan,nan,nan,nan,263.0977814726648,517.0714460641029,nan,517.4431523918174,nan,nan,nan,nan
1,198,1,1,1.0,1.0,0.7149065300473012,0,0.0,0.0,0.0,0.3968179841143721,0.1360469299289135,0.26077105418545854,0.5328649140432856,0.1360469299289135,0.48638673902799684,5,7,3,4,0,2,nan,nan,nan,nan,nan,nan,nan,nan,nan,nan,nan,nan,0.0,nan,nan,nan,nan,nan,nan,nan,nan,nan,nan,nan,nan,nan,nan,nan,nan,nan,nan,263.0977814726648,518.0882359062671,nan,518.8031424363144,nan,nan,nan,nan
1,199,1,1,nan,nan,nan,0,0.0,0.0,0.0,0.3986049984173661,0.1377316981173245,0.2608733003000416,0.5363366965346905,0.1377316981173245,0.5433064288808964,4,8,5,7,6,0,nan,nan,nan,nan,nan,nan,nan,nan,nan,nan,nan,nan,0.0,nan,nan,nan,nan,nan,nan,nan,nan,nan,nan,nan,nan,nan,nan,nan,nan,nan,nan,263.0977814726648,519.1133511062362,nan,nan,nan,nan,nan,nan
1,200,1,1,1.0,1.0,0.616916082391981,0,0.0,0.0,0.0,0.3986049984173661,0.1377316981173245,0.2608733003000416,0.5363366965346905,0.1377316981173245,0.6659113062196411,6,1,2,3,7,4,nan,nan,nan,nan,nan,nan,nan,nan,nan,nan,nan,nan,0.0,nan,nan,nan,nan,nan,nan,nan,nan,nan,nan,nan,nan,nan,nan,nan,nan,nan,nan,263.0977814726648,520.1301466503064,nan,520.7470627326984,nan,nan,nan,nan
1,201,1,1,1.0,1.0,0.5200979473884217,0,0.0,0.0,0.0,0.39982461341163766,0.13830694453964817,0.26151766887198946,0.5381315579512859,0.13830694453964817,0.5685070148902014,2,0,8,5,6,3,nan,nan,nan,nan,nan,nan,nan,nan,nan,nan,nan,nan,0.0,nan,nan,nan,nan,nan,nan,nan,nan,nan,nan,nan,nan,nan,nan,nan,nan,nan,nan,263.0977814726648,521.1469390583225,nan,521.6670370057109,nan,nan,nan,nan
1,202,1,1,1.0,1.0,0.391277561255265,0,0.0,0.0,0.0,0.4004927986003976,0.1382116425092415,0.2622811560911561,0.5387044411096391,0.1382116425092415,0.5094305303452226,4,2,5,0,3,8,nan,nan,nan,nan,nan,nan,nan,nan,nan,nan,nan,nan,0.0,nan,nan,nan,nan,nan,nan,nan,nan,nan,nan,nan,nan,nan,nan,nan,nan,nan,nan,263.0977814726648,522.1637269047787,nan,522.555004466034,nan,nan,nan,nan
1,203,1,1,1.0,1.0,0.3984773621778004,0,0.0,0.0,0.0,0.40044188568688854,0.13783100618104552,0.26261087950584305,0.538272891867934,0.13783100618104552,0.4366176236071624,8,0,3,4,2,7,nan,nan,nan,nan,nan,nan,nan,nan,nan,nan,nan,nan,0.0,nan,nan,nan,nan,nan,nan,nan,nan,nan,nan,nan,nan,nan,nan,nan,nan,nan,nan,263.0977814726648,523.1805110450368,nan,523.5789884072146,nan,nan,nan,nan
1,204,1,1,1.0,1.0,0.48564045410603285,0,0.0,0.0,0.0,0.4004310916016738,0.13745190471720528,0.26297918688446853,0.537882996318879,0.13745190471720528,0.42513179251303274,7,4,8,1,5,3,nan,nan,nan,nan,nan,nan,nan,nan,nan,nan,nan,nan,0.0,nan,nan,nan,nan,nan,nan,nan,nan,nan,nan,nan,nan,nan,nan,nan,nan,nan,nan,263.0977814726648,524.1973114357679,nan,524.682951889874,nan,nan,nan,nan
1,205,0,0,0.0,1.0,0.6208421320770867,0,0.0,0.0,0.0,0.4008967165333916,0.13721969365790854,0.26367702287548306,0.5381164101913001,0.13721969365790854,0.5016533161203066,5,7,2,8,1,6,nan,nan,nan,nan,nan,nan,nan,nan,nan,nan,nan,nan,0.0,nan,nan,nan,nan,nan,nan,nan,nan,nan,nan,nan,nan,nan,nan,nan,nan,nan,nan,263.0977814726648,525.2140887337155,nan,525.8349308657926,nan,nan,nan,nan
1,206,1,1,1.0,1.0,0.42000919714337215,0,0.0,0.0,0.0,0.4020920720526508,0.137798387398229,0.2642936846544218,0.5398904594508798,0.137798387398229,0.5088305944421639,8,0,3,6,2,4,nan,nan,nan,nan,nan,nan,nan,nan,nan,nan,nan,nan,0.0,nan,nan,nan,nan,nan,nan,nan,nan,nan,nan,nan,nan,nan,nan,nan,nan,nan,nan,263.0977814726648,526.2308939710492,nan,526.6509031681926,nan,nan,nan,nan
1,207,1,1,0.0,0.0,0.5712033052695915,0,0.0,0.0,0.0,0.40218892137746554,0.1374317338724092,0.26475718750505634,0.5396206552498748,0.1374317338724092,0.5373515448300168,6,5,1,0,4,8,nan,nan,nan,nan,nan,nan,nan,nan,nan,nan,nan,nan,0.0,nan,nan,nan,nan,nan,nan,nan,nan,nan,nan,nan,nan,nan,nan,nan,nan,nan,nan,263.0977814726648,527.2476684180438,nan,527.8188717233134,nan,nan,nan,nan
1,208,1,1,1.0,1.0,0.7543828438501805,0,0.0,1.0,0.0,0.4030976008607565,0.1376179133705648,0.2654796874901917,0.5407155142313214,0.1376179133705648,0.581865115421048,4,1,5,7,8,2,nan,nan,nan,nan,nan,nan,nan,nan,nan,nan,nan,nan,0.0,nan,nan,nan,nan,nan,nan,nan,nan,nan,nan,nan,nan,nan,nan,nan,nan,nan,nan,263.0977814726648,528.2644605409587,nan,529.0188433848089,nan,nan,nan,nan
1,209,1,1,1.0,1.0,0.6735611303593032,1,0.0,0.0,1.0,0.4049761315719299,0.13962014504587256,0.26535598652605735,0.5445962766178025,0.13962014504587256,0.666382426493025,3,4,7,2,5,8,1.0,1.0,1.0,1.0,1.0,1.0,0.0,0.0,0.0,0.0,0.0,0.0,0.0,0.0,3.0,2.0,5.0,1.0,4.0,3.0,2.0,1.0,6.0,5.0,4.0,4.706411825551186,3.5954224502202123,2.394716667884495,6.810576300544199,6.2590585520956665,5.354849488125183,263.0977814726648,529.2812549446244,530.0896690811496,529.9548160749837,537.9572527859127,538.9550509936525,531.1064614891657,537.948922581505
1,210,0,0,0.0,1.0,0.5644536701147445,0,0.0,0.0,0.0,0.40640477518250107,0.14061211106178068,0.2657926641207204,0.5470168862442817,0.14061211106178068,0.6641325481080761,8,0,2,3,7,1,nan,nan,nan,nan,nan,nan,nan,nan,nan,nan,nan,nan,0.0,nan,nan,nan,nan,nan,nan,nan,nan,nan,nan,nan,nan,nan,nan,nan,nan,nan,nan,263.0977814726648,539.1741092263837,nan,539.7385628964985,nan,nan,nan,nan
1,211,1,1,1.0,1.0,0.5076649341499433,0,0.0,0.0,0.0,0.4072410127218251,0.14070757046328192,0.2665334422585432,0.547948583185107,0.14070757046328192,0.5818932448746637,5,4,7,2,6,3,nan,nan,nan,nan,nan,nan,nan,nan,nan,nan,nan,nan,0.0,nan,nan,nan,nan,nan,nan,nan,nan,nan,nan,nan,nan,nan,nan,nan,nan,nan,nan,263.0977814726648,540.1908862392302,nan,540.6985511733801,nan,nan,nan,nan
1,212,1,1,1.0,1.0,0.3468699511140585,0,0.0,0.0,0.0,0.4077695596767099,0.1405247896866477,0.2672447699900622,0.5482943493633576,0.1405247896866477,0.47299618512624875,8,0,6,7,1,5,nan,nan,nan,nan,nan,nan,nan,nan,nan,nan,nan,nan,0.0,nan,nan,nan,nan,nan,nan,nan,nan,nan,nan,nan,nan,nan,nan,nan,nan,nan,nan,263.0977814726648,541.2076652477845,nan,541.5545351988985,nan,nan,nan,nan
1,213,1,1,1.0,1.0,0.2740283447201364,0,0.0,0.0,0.0,0.40745071355858087,0.1402253325518118,0.26722538100676907,0.5476760461103927,0.1402253325518118,0.37618774332804605,6,4,2,1,5,0,nan,nan,nan,nan,nan,nan,nan,nan,nan,nan,nan,nan,0.0,nan,nan,nan,nan,nan,nan,nan,nan,nan,nan,nan,nan,nan,nan,nan,nan,nan,nan,263.0977814726648,542.2244647832122,nan,542.4984931279323,nan,nan,nan,nan
1,214,1,1,0.0,0.0,0.17721020971657708,0,0.0,0.0,0.0,0.4067558053875473,0.1401890333743975,0.2665667720131498,0.5469448387619448,0.1401890333743975,0.26603616851692397,3,1,7,2,0,4,nan,nan,nan,nan,nan,nan,nan,nan,nan,nan,nan,nan,0.0,nan,nan,nan,nan,nan,nan,nan,nan,nan,nan,nan,nan,nan,nan,nan,nan,nan,nan,263.0977814726648,543.2412680248381,nan,543.4184782345546,nan,nan,nan,nan
1,215,0,0,0.0,1.0,0.09641301439842209,1,0.0,0.0,1.0,0.405566449969563,0.14079322773279965,0.26477322223676336,0.5463596777023626,0.14079322773279965,0.18255052294504517,0,8,6,3,2,7,1.0,1.0,1.0,1.0,1.0,1.0,0.0,0.0,0.0,1.0,0.0,0.0,1.0,4.0,4.0,2.0,3.0,7.0,8.0,3.0,2.0,1.0,6.0,5.0,4.0,9.74594601377612,9.290367736131884,8.841929104179144,17.960778846638277,17.03362358902814,10.289425210503396,263.0977814726648,544.2580390506773,545.0664500511484,544.3544520650757,564.0853892280138,565.0843779944116,546.083271538897,564.077061019314
1,216,1,1,0.0,0.0,0.7873033874784596,0,0.0,0.0,0.0,0.4039728755594025,0.14216424819131876,0.26180862736808375,0.5461371237507212,0.14216424819131876,0.35364220386448625,6,3,7,0,5,2,nan,nan,nan,nan,nan,nan,nan,nan,nan,nan,nan,nan,0.0,nan,nan,nan,nan,nan,nan,nan,nan,nan,nan,nan,nan,nan,nan,nan,nan,nan,nan,263.0977814726648,565.3105727368384,nan,566.0978761243168,nan,nan,nan,nan
1,217,1,1,0.0,0.0,0.49052984139416367,0,0.0,0.0,0.0,0.4059386730564233,0.14441854031101484,0.2615201327454084,0.5503572133674381,0.14441854031101484,0.4580820810903485,8,1,0,7,3,6,nan,nan,nan,nan,nan,nan,nan,nan,nan,nan,nan,nan,0.0,nan,nan,nan,nan,nan,nan,nan,nan,nan,nan,nan,nan,nan,nan,nan,nan,nan,nan,263.0977814726648,566.3273488944396,nan,566.8178787358338,nan,nan,nan,nan
1,218,1,1,nan,nan,nan,0,0.0,0.0,0.0,0.40637026064998316,0.1441756748080694,0.2621945858419138,0.5505459354580525,0.1441756748080694,0.6389166144363116,5,2,6,8,4,0,nan,nan,nan,nan,nan,nan,nan,nan,nan,nan,nan,nan,0.0,nan,nan,nan,nan,nan,nan,nan,nan,nan,nan,nan,nan,nan,nan,nan,nan,nan,nan,263.0977814726648,567.3441373111564,nan,nan,nan,nan,nan,nan
1,219,1,1,nan,nan,nan,0,0.0,0.0,0.0,0.40637026064998316,0.1441756748080694,0.2621945858419138,0.5505459354580525,0.1441756748080694,0.49052984139416367,7,4,0,6,1,5,nan,nan,nan,nan,nan,nan,nan,nan,nan,nan,nan,nan,0.0,nan,nan,nan,nan,nan,nan,nan,nan,nan,nan,nan,nan,nan,nan,nan,nan,nan,nan,263.0977814726648,568.3609351359773,nan,nan,nan,nan,nan,nan
1,220,1,1,1.0,1.0,0.44005368917714804,0,0.0,0.0,0.0,0.40637026064998316,0.1441756748080694,0.2621945858419138,0.5505459354580525,0.1441756748080694,0.44005368917714804,6,3,4,2,5,8,nan,nan,nan,nan,nan,nan,nan,nan,nan,nan,nan,nan,0.0,nan,nan,nan,nan,nan,nan,nan,nan,nan,nan,nan,nan,nan,nan,nan,nan,nan,nan,263.0977814726648,569.3777167103835,nan,569.8177703995607,nan,nan,nan,nan
1,221,1,1,1.0,1.0,0.4152426860528067,0,0.0,0.0,0.0,0.40654124252067947,0.14382920205296082,0.2627120404677187,0.5503704445736403,0.14382920205296082,0.42764818761497736,3,1,2,5,7,4,nan,nan,nan,nan,nan,nan,nan,nan,nan,nan,nan,nan,0.0,nan,nan,nan,nan,nan,nan,nan,nan,nan,nan,nan,nan,nan,nan,nan,nan,nan,nan,263.0977814726648,570.3945085481973,nan,570.8097512342501,nan,nan,nan,nan
1,222,1,1,1.0,1.0,0.3264374441932887,0,0.0,0.0,0.0,0.40658518920518516,0.1434668632290788,0.26311832597610635,0.550052052434264,0.1434668632290788,0.39391127314108115,5,4,3,8,1,7,nan,nan,nan,nan,nan,nan,nan,nan,nan,nan,nan,nan,0.0,nan,nan,nan,nan,nan,nan,nan,nan,nan,nan,nan,nan,nan,nan,nan,nan,nan,nan,263.0977814726648,571.4112983903615,nan,571.7377358345548,nan,nan,nan,nan
1,223,1,1,1.0,1.0,0.2775988803477958,0,0.0,0.0,0.0,0.40618243671768817,0.14321811156546962,0.26296432515221857,0.5494005482831578,0.14321811156546962,0.3397596701979637,1,7,5,6,4,3,nan,nan,nan,nan,nan,nan,nan,nan,nan,nan,nan,nan,0.0,nan,nan,nan,nan,nan,nan,nan,nan,nan,nan,nan,nan,nan,nan,nan,nan,nan,nan,263.0977814726648,572.428094789735,nan,572.7056936700828,nan,nan,nan,nan
1,224,1,1,1.0,1.0,0.252798140689265,0,0.0,0.0,0.0,0.4055395189358387,0.1431472167195256,0.26239230221631316,0.5486867356553643,0.1431472167195256,0.28561148841011647,4,5,7,3,1,8,nan,nan,nan,nan,nan,nan,nan,nan,nan,nan,nan,nan,0.0,nan,nan,nan,nan,nan,nan,nan,nan,nan,nan,nan,nan,nan,nan,nan,nan,nan,nan,263.0977814726648,573.4448718025815,nan,573.6976699432707,nan,nan,nan,nan
1,225,1,1,1.0,1.0,0.26798774203052744,0,0.0,0.0,0.0,0.40477961158137815,0.1431945236146992,0.26158508796667895,0.5479741351960774,0.1431945236146992,0.26612825435586274,0,4,6,2,7,3,nan,nan,nan,nan,nan,nan,nan,nan,nan,nan,nan,nan,0.0,nan,nan,nan,nan,nan,nan,nan,nan,nan,nan,nan,nan,nan,nan,nan,nan,nan,nan,263.0977814726648,574.461663070193,nan,574.7296508122236,nan,nan,nan,nan
1,226,1,1,1.0,1.0,0.31517332239309326,0,0.0,0.0,0.0,0.4041024241083541,0.1431619309580041,0.26094049315035,0.5472643550663583,0.1431619309580041,0.2786530683709619,2,3,7,5,6,0,nan,nan,nan,nan,nan,nan,nan,nan,nan,nan,nan,nan,0.0,nan,nan,nan,nan,nan,nan,nan,nan,nan,nan,nan,nan,nan,nan,nan,nan,nan,nan,263.0977814726648,575.4784477806534,nan,575.7936211030465,nan,nan,nan,nan
1,227,1,1,1.0,1.0,0.25837090180721134,0,0.0,0.0,0.0,0.4036643497156681,0.14294454123951783,0.2607198084761503,0.5466088909551859,0.14294454123951783,0.28051065541027737,1,7,4,6,0,8,nan,nan,nan,nan,nan,nan,nan,nan,nan,nan,nan,nan,0.0,nan,nan,nan,nan,nan,nan,nan,nan,nan,nan,nan,nan,nan,nan,nan,nan,nan,nan,263.0977814726648,576.4952373377164,nan,576.7536082395236,nan,nan,nan,nan
1,228,1,1,1.0,1.0,0.2815340530942194,0,0.0,0.0,0.0,0.40295212693180316,0.14295437542335365,0.2599977515084495,0.5459065023551568,0.14295437542335365,0.285026092431508,6,0,8,4,1,3,nan,nan,nan,nan,nan,nan,nan,nan,nan,nan,nan,nan,0.0,nan,nan,nan,nan,nan,nan,nan,nan,nan,nan,nan,nan,nan,nan,nan,nan,nan,nan,263.0977814726648,577.5120323115843,nan,577.7935663646786,nan,nan,nan,nan
1,229,1,1,1.0,1.0,0.28874554292997345,0,0.0,0.0,0.0,0.40235984364479055,0.1428559728231423,0.2595038708216483,0.5452158164679328,0.1428559728231423,0.2762168326104681,3,8,0,5,2,6,nan,nan,nan,nan,nan,nan,nan,nan,nan,nan,nan,nan,0.0,nan,nan,nan,nan,nan,nan,nan,nan,nan,nan,nan,nan,nan,nan,nan,nan,nan,nan,263.0977814726648,578.5288190176943,nan,578.8175645606243,nan,nan,nan,nan
1,230,1,1,1.0,1.0,0.27994150982704014,0,0.0,0.0,0.0,0.4018083179131652,0.14272742858333218,0.259080889329833,0.5445357464964974,0.14272742858333218,0.28340703528374434,7,3,5,6,4,8,nan,nan,nan,nan,nan,nan,nan,nan,nan,nan,nan,nan,0.0,nan,nan,nan,nan,nan,nan,nan,nan,nan,nan,nan,nan,nan,nan,nan,nan,nan,nan,263.0977814726648,579.5455871926388,nan,579.8255287024658,nan,nan,nan,nan
1,231,1,1,1.0,1.0,0.26310861826641485,0,0.0,0.0,0.0,0.40121958937168634,0.1426327716011411,0.25858681777054526,0.5438523609728274,0.1426327716011411,0.27726522367447615,0,5,7,2,1,4,nan,nan,nan,nan,nan,nan,nan,nan,nan,nan,nan,nan,0.0,nan,nan,nan,nan,nan,nan,nan,nan,nan,nan,nan,nan,nan,nan,nan,nan,nan,nan,263.0977814726648,580.5623927150154,nan,580.8255013332819,nan,nan,nan,nan
1,232,1,1,1.0,1.0,0.29395965387811884,0,0.0,0.0,0.0,0.4005555943182956,0.1426098293860706,0.257945764932225,0.5431654237043663,0.1426098293860706,0.2790032606571913,6,8,1,4,2,7,nan,nan,nan,nan,nan,nan,nan,nan,nan,nan,nan,nan,0.0,nan,nan,nan,nan,nan,nan,nan,nan,nan,nan,nan,nan,nan,nan,nan,nan,nan,nan,263.0977814726648,581.5875170380459,nan,581.881476691924,nan,nan,nan,nan
1,233,0,0,1.0,0.0,0.19712412799708545,0,0.0,0.0,0.0,0.4000455658951369,0.14245827933812957,0.25758728655700736,0.5425038452332664,0.14245827933812957,0.25139746671387303,4,3,2,1,8,0,nan,nan,nan,nan,nan,nan,nan,nan,nan,nan,nan,nan,0.0,nan,nan,nan,nan,nan,nan,nan,nan,nan,nan,nan,nan,nan,nan,nan,nan,nan,nan,263.0977814726648,582.6043222753797,nan,582.8014464033768,nan,nan,nan,nan
1,234,1,1,1.0,1.0,0.38829261175123975,0,0.0,0.0,0.0,0.39907927333371757,0.14280360391354932,0.2562756694201682,0.5418828772472669,0.14280360391354932,0.293125464542148,5,8,7,4,1,3,nan,nan,nan,nan,nan,nan,nan,nan,nan,nan,nan,nan,0.0,nan,nan,nan,nan,nan,nan,nan,nan,nan,nan,nan,nan,nan,nan,nan,nan,nan,nan,263.0977814726648,583.621110121836,nan,584.0094027335872,nan,nan,nan,nan
1,235,0,0,0.0,1.0,0.451499986986164,0,0.0,0.0,0.0,0.3990281517148433,0.14246673099097962,0.2565614207238637,0.5414948827058229,0.14246673099097962,0.3456389089114964,1,6,8,2,7,0,nan,nan,nan,nan,nan,nan,nan,nan,nan,nan,nan,nan,0.0,nan,nan,nan,nan,nan,nan,nan,nan,nan,nan,nan,nan,nan,nan,nan,nan,nan,nan,263.0977814726648,584.6378842837876,nan,585.0893842707737,nan,nan,nan,nan
1,236,1,1,1.0,1.0,0.3383458817843348,0,0.0,0.0,0.0,0.39927566037178347,0.1421757923618118,0.25709986800997164,0.5414514527335953,0.1421757923618118,0.3927128268405795,0,3,1,8,6,7,nan,nan,nan,nan,nan,nan,nan,nan,nan,nan,nan,nan,0.0,nan,nan,nan,nan,nan,nan,nan,nan,nan,nan,nan,nan,nan,nan,nan,nan,nan,nan,263.0977814726648,585.6630185851245,nan,586.0013644669089,nan,nan,nan,nan
1,237,1,1,1.0,1.0,0.44153361971257254,0,0.0,0.0,0.0,0.3989896050732509,0.14190279134150904,0.2570868137317418,0.54089239641476,0.14190279134150904,0.4104598294943571,6,5,8,1,3,2,nan,nan,nan,nan,nan,nan,nan,nan,nan,nan,nan,nan,0.0,nan,nan,nan,nan,nan,nan,nan,nan,nan,nan,nan,nan,nan,nan,nan,nan,nan,nan,263.0977814726648,586.6797913215705,nan,587.1213249412831,nan,nan,nan,nan
1,238,0,0,0.0,1.0,0.47271337040001526,0,0.0,0.0,0.0,0.39918840887997664,0.14160058348143606,0.2575878253985406,0.5407889923614126,0.14160058348143606,0.4175309572989742,8,1,7,0,2,3,nan,nan,nan,nan,nan,nan,nan,nan,nan,nan,nan,nan,0.0,nan,nan,nan,nan,nan,nan,nan,nan,nan,nan,nan,nan,nan,nan,nan,nan,nan,nan,263.0977814726648,587.6965842997888,nan,588.1692976701888,nan,nan,nan,nan
1,239,1,1,1.0,1.0,0.3599122134037316,0,0.0,0.0,0.0,0.39953038544518615,0.1413594458143366,0.2581709396308496,0.5408898312595227,0.1413594458143366,0.4247197345054398,0,3,5,2,7,8,nan,nan,nan,nan,nan,nan,nan,nan,nan,nan,nan,nan,0.0,nan,nan,nan,nan,nan,nan,nan,nan,nan,nan,nan,nan,nan,nan,nan,nan,nan,nan,263.0977814726648,588.7133752822992,nan,589.073287495703,nan,nan,nan,nan
1,240,1,1,1.0,1.0,0.5350911178975366,0,0.0,0.0,0.0,0.39934696798203123,0.14105748616177952,0.2582894818202517,0.5404044541438108,0.14105748616177952,0.45590556723376113,5,6,3,4,1,2,nan,nan,nan,nan,nan,nan,nan,nan,nan,nan,nan,nan,0.0,nan,nan,nan,nan,nan,nan,nan,nan,nan,nan,nan,nan,nan,nan,nan,nan,nan,nan,263.0977814726648,589.7301602778607,nan,590.2652513957582,nan,nan,nan,nan
1,241,1,1,1.0,1.0,0.40627671882975847,0,0.0,0.0,0.0,0.3999725170599829,0.14103207254443967,0.2589404445155432,0.5410045896044225,0.14103207254443967,0.4337600167103422,2,1,4,5,0,7,nan,nan,nan,nan,nan,nan,nan,nan,nan,nan,nan,nan,0.0,nan,nan,nan,nan,nan,nan,nan,nan,nan,nan,nan,nan,nan,nan,nan,nan,nan,nan,263.0977814726648,590.7469515454723,nan,591.153228264302,nan,nan,nan,nan
1,242,1,1,1.0,1.0,0.5734524233848788,0,0.0,0.0,0.0,0.400001435416725,0.14070887753195316,0.25929255788477185,0.5407103129486781,0.14070887753195316,0.504940086704058,8,5,6,2,4,0,nan,nan,nan,nan,nan,nan,nan,nan,nan,nan,nan,nan,0.0,nan,nan,nan,nan,nan,nan,nan,nan,nan,nan,nan,nan,nan,nan,nan,nan,nan,nan,263.0977814726648,591.7637405323912,nan,592.3371929557761,nan,nan,nan,nan
1,243,1,1,1.0,1.0,0.5726664151879959,0,0.0,0.0,0.0,0.4007934490604152,0.14087345435100787,0.2599199947094073,0.5416669034114231,0.14087345435100787,0.5174651858008777,1,0,7,3,5,6,nan,nan,nan,nan,nan,nan,nan,nan,nan,nan,nan,nan,0.0,nan,nan,nan,nan,nan,nan,nan,nan,nan,nan,nan,nan,nan,nan,nan,nan,nan,nan,263.0977814726648,592.7805258129956,nan,593.3531922281836,nan,nan,nan,nan
1,244,1,1,1.0,1.0,0.459834182751365,0,0.0,0.0,0.0,0.40157468981554056,0.14102761404567796,0.2605470757698626,0.5426023038612185,0.14102761404567796,0.5353176737747466,6,3,2,0,1,8,nan,nan,nan,nan,nan,nan,nan,nan,nan,nan,nan,nan,0.0,nan,nan,nan,nan,nan,nan,nan,nan,nan,nan,nan,nan,nan,nan,nan,nan,nan,nan,263.0977814726648,593.7973347565858,nan,594.2571689393371,nan,nan,nan,nan
1,245,1,1,1.0,1.0,0.3550604587653652,0,0.0,0.0,0.0,0.40183830743063476,0.1407625026143805,0.26107580481625425,0.5426008100450153,0.1407625026143805,0.46252035223490867,1,6,3,5,0,2,nan,nan,nan,nan,nan,nan,nan,nan,nan,nan,nan,nan,0.0,nan,nan,nan,nan,nan,nan,nan,nan,nan,nan,nan,nan,nan,nan,nan,nan,nan,nan,263.0977814726648,594.814083830046,nan,595.1691442888114,nan,nan,nan,nan
1,246,1,1,1.0,1.0,0.33824752387590706,0,0.0,0.0,0.0,0.401627596400611,0.1404800403243728,0.2611475560762382,0.5421076367249839,0.1404800403243728,0.38438072179754573,3,0,2,7,4,5,nan,nan,nan,nan,nan,nan,nan,nan,nan,nan,nan,nan,0.0,nan,nan,nan,nan,nan,nan,nan,nan,nan,nan,nan,nan,nan,nan,nan,nan,nan,nan,263.0977814726648,595.8308753828169,nan,596.1691229066928,nan,nan,nan,nan
1,247,1,1,1.0,1.0,0.2654344270704314,0,0.0,0.0,0.0,0.4013433808287514,0.14022866469930356,0.2611147161294478,0.5415720455280549,0.14022866469930356,0.31958080323723453,5,2,6,3,7,8,nan,nan,nan,nan,nan,nan,nan,nan,nan,nan,nan,nan,0.0,nan,nan,nan,nan,nan,nan,nan,nan,nan,nan,nan,nan,nan,nan,nan,nan,nan,nan,263.0977814726648,596.8476609485224,nan,597.1130953755928,nan,nan,nan,nan
1,248,1,1,1.0,1.0,0.34462225844617933,0,0.0,0.0,0.0,0.4007366444280446,0.1402083632292177,0.26052828119882687,0.5409450076572623,0.1402083632292177,0.3161014031308393,2,7,1,5,6,3,nan,nan,nan,nan,nan,nan,nan,nan,nan,nan,nan,nan,0.0,nan,nan,nan,nan,nan,nan,nan,nan,nan,nan,nan,nan,nan,nan,nan,nan,nan,nan,263.0977814726648,597.8644234215608,nan,598.209045680007,nan,nan,nan,nan
1,249,1,1,1.0,1.0,0.2877531255944632,0,0.0,0.0,0.0,0.40048724715701406,0.13994622929759895,0.2605410178594151,0.540433476454613,0.13994622929759895,0.29926993703702465,1,3,5,8,4,0,nan,nan,nan,nan,nan,nan,nan,nan,nan,nan,nan,nan,0.0,nan,nan,nan,nan,nan,nan,nan,nan,nan,nan,nan,nan,nan,nan,nan,nan,nan,nan,263.0977814726648,598.8812583087711,nan,599.1690114343655,nan,nan,nan,nan
1,250,1,1,1.0,1.0,0.2630079795490019,0,0.0,0.0,0.0,0.39998842361027714,0.1398365962332489,0.26015182737702824,0.539825019843526,0.1398365962332489,0.29846112119654816,8,0,1,6,3,7,nan,nan,nan,nan,nan,nan,nan,nan,nan,nan,nan,nan,0.0,nan,nan,nan,nan,nan,nan,nan,nan,nan,nan,nan,nan,nan,nan,nan,nan,nan,nan,263.0977814726648,599.8980179307982,nan,600.1610259103472,nan,nan,nan,nan
1,251,1,1,1.0,1.0,0.25419111718656495,0,0.0,0.0,0.0,0.39938498553071206,0.13982283987258554,0.2595621456581265,0.5392078254032976,0.13982283987258554,0.26831740744334337,0,8,5,1,2,4,nan,nan,nan,nan,nan,nan,nan,nan,nan,nan,nan,nan,0.0,nan,nan,nan,nan,nan,nan,nan,nan,nan,nan,nan,nan,nan,nan,nan,nan,nan,nan,263.0977814726648,600.9148311507888,nan,601.1690222679754,nan,nan,nan,nan
1,252,1,1,1.0,1.0,0.3253418223466724,0,0.0,0.0,0.0,0.3987481703186763,0.13984539747738467,0.25890277284129165,0.5385935677960609,0.13984539747738467,0.28084697302741307,2,0,1,8,6,7,nan,nan,nan,nan,nan,nan,nan,nan,nan,nan,nan,nan,0.0,nan,nan,nan,nan,nan,nan,nan,nan,nan,nan,nan,nan,nan,nan,nan,nan,nan,nan,263.0977814726648,601.9316184271011,nan,602.2569602494477,nan,nan,nan,nan
1,253,1,1,1.0,1.0,0.43651736504398286,0,0.0,0.0,0.0,0.3984276185808073,0.13962364550544537,0.2588039730753619,0.5380512640862527,0.13962364550544537,0.33868343485907343,1,4,3,6,2,0,nan,nan,nan,nan,nan,nan,nan,nan,nan,nan,nan,nan,0.0,nan,nan,nan,nan,nan,nan,nan,nan,nan,nan,nan,nan,nan,nan,nan,nan,nan,nan,263.0977814726648,602.9484208134818,nan,603.3849381785258,nan,nan,nan,nan
1,254,1,1,nan,nan,nan,0,0.0,0.0,0.0,0.39859322617412546,0.13934232333768515,0.2592509028364403,0.5379355495118106,0.13934232333768515,0.38092959369532764,2,6,0,8,4,5,nan,nan,nan,nan,nan,nan,nan,nan,nan,nan,nan,nan,0.0,nan,nan,nan,nan,nan,nan,nan,nan,nan,nan,nan,nan,nan,nan,nan,nan,nan,nan,263.0977814726648,603.9652035282343,nan,nan,nan,nan,nan,nan
1,255,1,1,nan,nan,nan,0,0.0,0.0,0.0,0.39859322617412546,0.13934232333768515,0.2592509028364403,0.5379355495118106,0.13934232333768515,0.43651736504398286,3,8,4,5,7,0,nan,nan,nan,nan,nan,nan,nan,nan,nan,nan,nan,nan,0.0,nan,nan,nan,nan,nan,nan,nan,nan,nan,nan,nan,nan,nan,nan,nan,nan,nan,nan,263.0977814726648,604.9819893790991,nan,nan,nan,nan,nan,nan
1,256,1,1,nan,nan,nan,0,0.0,0.0,0.0,0.39859322617412546,0.13934232333768515,0.2592509028364403,0.5379355495118106,0.13934232333768515,nan,8,3,5,0,4,6,nan,nan,nan,nan,nan,nan,nan,nan,nan,nan,nan,nan,0.0,nan,nan,nan,nan,nan,nan,nan,nan,nan,nan,nan,nan,nan,nan,nan,nan,nan,nan,263.0977814726648,605.9987760852091,nan,nan,nan,nan,nan,nan
1,257,1,1,1.0,1.0,0.6328953981865197,0,0.0,0.0,0.0,0.39859322617412546,0.13934232333768515,0.2592509028364403,0.5379355495118106,0.13934232333768515,0.6328953981865197,4,6,7,1,5,8,nan,nan,nan,nan,nan,nan,nan,nan,nan,nan,nan,nan,0.0,nan,nan,nan,nan,nan,nan,nan,nan,nan,nan,nan,nan,nan,nan,nan,nan,nan,nan,263.0977814726648,607.0239006932825,nan,607.656796091469,nan,nan,nan,nan
1,258,1,1,1.0,1.0,0.36807905812747777,0,0.0,0.0,0.0,0.3996075212910622,0.13988871524909646,0.25971880604196573,0.5394962365401587,0.13988871524909646,0.5004872281569988,6,1,4,3,2,0,nan,nan,nan,nan,nan,nan,nan,nan,nan,nan,nan,nan,0.0,nan,nan,nan,nan,nan,nan,nan,nan,nan,nan,nan,nan,nan,nan,nan,nan,nan,nan,263.0977814726648,608.0407136281719,nan,608.4087926862994,nan,nan,nan,nan
1,259,1,1,1.0,1.0,0.35127096984069794,0,0.0,0.0,0.0,0.39947162274294334,0.1396021860687597,0.2598694366741836,0.5390738088117031,0.1396021860687597,0.4507484753848985,4,6,8,5,1,7,nan,nan,nan,nan,nan,nan,nan,nan,nan,nan,nan,nan,0.0,nan,nan,nan,nan,nan,nan,nan,nan,nan,nan,nan,nan,nan,nan,nan,nan,nan,nan,263.0977814726648,609.0575123082963,nan,609.408783278137,nan,nan,nan,nan
1,260,1,1,1.0,1.0,0.24645761755527928,0,0.0,0.0,0.0,0.3992647529879981,0.13933792027338163,0.2599268327146165,0.5386026732613797,0.13933792027338163,0.3219358818411517,8,2,1,6,0,5,nan,nan,nan,nan,nan,nan,nan,nan,nan,nan,nan,nan,0.0,nan,nan,nan,nan,nan,nan,nan,nan,nan,nan,nan,nan,nan,nan,nan,nan,nan,nan,263.0977814726648,610.0742687943275,nan,610.3207264118828,nan,nan,nan,nan
1,261,1,1,1.0,1.0,0.2776205476257019,0,0.0,0.0,0.0,0.3986117310417044,0.13939672046550752,0.2592150105761969,0.5380084515072119,0.13939672046550752,0.29178304500722635,3,0,4,1,5,6,nan,nan,nan,nan,nan,nan,nan,nan,nan,nan,nan,nan,0.0,nan,nan,nan,nan,nan,nan,nan,nan,nan,nan,nan,nan,nan,nan,nan,nan,nan,nan,263.0977814726648,611.091070610506,nan,611.3686911581317,nan,nan,nan,nan
1,262,1,1,1.0,1.0,0.532811209501233,0,0.0,0.0,0.0,0.3980968749420618,0.1393225991920956,0.2587742757499662,0.5374194741341574,0.1393225991920956,0.3522964582274047,0,7,3,5,8,4,nan,nan,nan,nan,nan,nan,nan,nan,nan,nan,nan,nan,0.0,nan,nan,nan,nan,nan,nan,nan,nan,nan,nan,nan,nan,nan,nan,nan,nan,nan,nan,263.0977814726648,612.1078404959408,nan,612.640651705442,nan,nan,nan,nan
1,263,1,1,1.0,1.0,0.33201106055639684,0,0.0,0.0,0.0,0.39866769839358374,0.13930222471911544,0.25936547367446827,0.5379699231126992,0.13930222471911544,0.38081427256111056,4,2,0,3,7,6,nan,nan,nan,nan,nan,nan,nan,nan,nan,nan,nan,nan,0.0,nan,nan,nan,nan,nan,nan,nan,nan,nan,nan,nan,nan,nan,nan,nan,nan,nan,nan,263.0977814726648,613.12465799239,nan,613.4566690529464,nan,nan,nan,nan
1,264,1,1,1.0,1.0,0.46723896730691195,0,0.0,0.0,0.0,0.3983864467571399,0.1390751591665895,0.25931128759055044,0.5374616059237294,0.1390751591665895,0.44402041245484725,2,7,4,1,3,0,nan,nan,nan,nan,nan,nan,nan,nan,nan,nan,nan,nan,0.0,nan,nan,nan,nan,nan,nan,nan,nan,nan,nan,nan,nan,nan,nan,nan,nan,nan,nan,263.0977814726648,614.1414030745509,nan,614.6086420418578,nan,nan,nan,nan
1,265,1,1,1.0,1.0,0.29842339357128367,0,0.0,0.0,0.0,0.3986757430619709,0.13885411948397675,0.25982162357799415,0.5375298625459477,0.13885411948397675,0.3658911404781975,8,1,3,4,0,2,nan,nan,nan,nan,nan,nan,nan,nan,nan,nan,nan,nan,0.0,nan,nan,nan,nan,nan,nan,nan,nan,nan,nan,nan,nan,nan,nan,nan,nan,nan,nan,263.0977814726648,615.1581951974658,nan,615.4566185910371,nan,nan,nan,nan
1,266,1,1,1.0,1.0,0.24159588455222547,0,0.0,0.0,0.0,0.39825627716452033,0.138714352465208,0.25954192469931237,0.5369706296297283,0.138714352465208,0.33575274847680703,4,0,6,1,2,7,nan,nan,nan,nan,nan,nan,nan,nan,nan,nan,nan,nan,0.0,nan,nan,nan,nan,nan,nan,nan,nan,nan,nan,nan,nan,nan,nan,nan,nan,nan,nan,263.0977814726648,616.1750010050018,nan,616.4165968895541,nan,nan,nan,nan
1,267,1,1,1.0,1.0,0.18479460442904383,0,1.0,0.0,0.0,0.39760352552863576,0.13879240682082405,0.2588111187078117,0.5363959323494598,0.13879240682082405,0.24160462751751766,3,2,0,4,8,1,nan,nan,nan,nan,nan,nan,nan,nan,nan,nan,nan,nan,0.0,nan,nan,nan,nan,nan,nan,nan,nan,nan,nan,nan,nan,nan,nan,nan,nan,nan,nan,263.0977814726648,617.1917694649892,nan,617.3765640694182,nan,nan,nan,nan
1,268,1,1,1.0,1.0,0.10397346102399752,1,0.0,0.0,1.0,0.3967205009597578,0.13917807702927912,0.25754242393047866,0.535898577989037,0.13917807702927912,0.17678798333508894,1,4,5,7,2,8,1.0,1.0,1.0,1.0,1.0,1.0,0.0,0.0,0.0,0.0,0.0,0.0,0.0,6.0,5.0,4.0,5.0,0.0,7.0,4.0,3.0,1.0,2.0,6.0,5.0,5.777171379711945,4.464734118548222,2.1605201509664766,3.2496649415697902,7.848550731432624,6.777091552969068,263.0977814726648,618.2085709960666,619.0169876984437,618.3125444570906,627.9263806532254,628.9335776031367,620.0421376800514,627.9180458872579
1,269,1,1,nan,nan,nan,0,0.0,0.0,0.0,0.39551080244762654,0.14015407904116678,0.25535672340645976,0.5356648814887933,0.14015407904116678,0.14438403272652067,6,7,3,0,4,1,nan,nan,nan,nan,nan,nan,nan,nan,nan,nan,nan,nan,0.0,nan,nan,nan,nan,nan,nan,nan,nan,nan,nan,nan,nan,nan,nan,nan,nan,nan,nan,263.0977814726648,629.1515604557935,nan,nan,nan,nan,nan,nan
1,270,1,1,1.0,1.0,0.03995156800374389,0,0.0,0.0,0.0,0.39551080244762654,0.14015407904116678,0.25535672340645976,0.5356648814887933,0.14015407904116678,0.0719625145138707,1,2,8,6,7,3,nan,nan,nan,nan,nan,nan,nan,nan,nan,nan,nan,nan,0.0,nan,nan,nan,nan,nan,nan,nan,nan,nan,nan,nan,nan,nan,nan,nan,nan,nan,nan,263.0977814726648,630.1683026870014,nan,630.2082542550052,nan,nan,nan,nan
1,271,1,1,1.0,1.0,0.3511124567594379,0,0.0,0.0,0.0,0.39404759572152004,0.14170548855910645,0.25234210716241356,0.5357530842806265,0.14170548855910645,0.1955320123815909,6,3,7,5,1,0,nan,nan,nan,nan,nan,nan,nan,nan,nan,nan,nan,nan,0.0,nan,nan,nan,nan,nan,nan,nan,nan,nan,nan,nan,nan,nan,nan,nan,nan,nan,nan,263.0977814726648,631.1850896782125,nan,631.536202134972,nan,nan,nan,nan
1,272,1,1,1.0,1.0,0.3182800076319836,0,1.0,0.0,0.0,0.3938716320372492,0.14144141063371973,0.25243022140352944,0.5353130426709689,0.14144141063371973,0.23644801079838848,1,0,3,6,7,4,nan,nan,nan,nan,nan,nan,nan,nan,nan,nan,nan,nan,0.0,nan,nan,nan,nan,nan,nan,nan,nan,nan,nan,nan,nan,nan,nan,nan,nan,nan,nan,263.0977814726648,632.2018991920049,nan,632.5201791996369,nan,nan,nan,nan
1,273,0,0,0.0,1.0,0.4694481720798649,1,0.0,0.0,1.0,0.39356309479477875,0.14123471411615535,0.2523283806786234,0.5347978089109341,0.14123471411615535,0.3796135454904288,4,6,8,1,2,3,1.0,1.0,1.0,1.0,1.0,1.0,0.0,0.0,1.0,1.0,1.0,0.0,3.0,6.0,7.0,8.0,1.0,2.0,0.0,3.0,2.0,1.0,6.0,5.0,4.0,3.902383312524762,2.982523077749647,1.8655179030029103,7.534465903590899,5.806702423316892,4.870485691470094,263.0977814726648,633.2186896043131,634.0271236975095,633.688137776393,642.619808661053,643.6284233907354,635.0439066974213,642.6114776013419
1,274,1,1,nan,nan,nan,0,0.0,0.0,0.0,0.3938715707187018,0.14103003819670423,0.2528415325219976,0.5349016089154061,0.14103003819670423,0.39386408985592425,7,5,6,3,0,4,nan,nan,nan,nan,nan,nan,nan,nan,nan,nan,nan,nan,0.0,nan,nan,nan,nan,nan,nan,nan,nan,nan,nan,nan,nan,nan,nan,nan,nan,nan,nan,263.0977814726648,643.8449790555169,nan,nan,nan,nan,nan,nan
1,275,1,1,nan,nan,nan,0,0.0,0.0,0.0,0.3938715707187018,0.14103003819670423,0.2528415325219976,0.5349016089154061,0.14103003819670423,0.4694481720798649,8,6,2,5,4,1,nan,nan,nan,nan,nan,nan,nan,nan,nan,nan,nan,nan,0.0,nan,nan,nan,nan,nan,nan,nan,nan,nan,nan,nan,nan,nan,nan,nan,nan,nan,nan,263.0977814726648,644.8617971221101,nan,nan,nan,nan,nan,nan
1,276,1,1,nan,nan,nan,0,0.0,0.0,0.0,0.3938715707187018,0.14103003819670423,0.2528415325219976,0.5349016089154061,0.14103003819670423,nan,0,8,3,7,2,6,nan,nan,nan,nan,nan,nan,nan,nan,nan,nan,nan,nan,0.0,nan,nan,nan,nan,nan,nan,nan,nan,nan,nan,nan,nan,nan,nan,nan,nan,nan,nan,263.0977814726648,645.8785444850218,nan,nan,nan,nan,nan,nan
1,277,1,1,1.0,1.0,0.4404419892234728,0,0.0,0.0,0.0,0.3938715707187018,0.14103003819670423,0.2528415325219976,0.5349016089154061,0.14103003819670423,0.4404419892234728,7,1,5,4,3,8,nan,nan,nan,nan,nan,nan,nan,nan,nan,nan,nan,nan,0.0,nan,nan,nan,nan,nan,nan,nan,nan,nan,nan,nan,nan,nan,nan,nan,nan,nan,nan,263.0977814726648,646.8953380334424,nan,647.3357800226659,nan,nan,nan,nan
1,278,1,1,1.0,1.0,0.2876068715704605,0,0.0,0.0,0.0,0.3940601149231746,0.1407753264266821,0.2532847884964925,0.5348354413498567,0.1407753264266821,0.36402443039696664,1,7,6,5,0,4,nan,nan,nan,nan,nan,nan,nan,nan,nan,nan,nan,nan,0.0,nan,nan,nan,nan,nan,nan,nan,nan,nan,nan,nan,nan,nan,nan,nan,nan,nan,nan,263.0977814726648,647.9121338626137,nan,648.1997407341842,nan,nan,nan,nan
