block,trial,freq_trials,correct_response,actual_response,acc,rts,probe_trials,fast_rt_trigger,slow_rt_trigger,rt_triggered,rts_runningavg,rts_runningstd,rts_runningfastthresh,rts_runningslowthresh,rts_runningstd,rts_trailingavg,trials_colorind0,trials_colorind1,trials_colorind2,trials_colorind3,trials_colorind4,trials_colorind5,wholereport_resp0,wholereport_resp1,wholereport_resp2,wholereport_resp3,wholereport_resp4,wholereport_resp5,wholereport_respacc0,wholereport_respacc1,wholereport_respacc2,wholereport_respacc3,wholereport_respacc4,wholereport_respacc5,wholereport_respacc_total,wholereport_respcolorind0,wholereport_respcolorind1,wholereport_respcolorind2,wholereport_respcolorind3,wholereport_respcolorind4,wholereport_respcolorind5,wholereport_resporder0,wholereport_resporder1,wholereport_resporder2,wholereport_resporder3,wholereport_resporder4,wholereport_resporder5,wholereport_rts0,wholereport_rts1,wholereport_rts2,wholereport_rts3,wholereport_rts4,wholereport_rts5,time_blockstart,time_encarray_offset,time_encarray_onset,time_response,time_iti_offset,time_iti_onset,time_memprobe_offset,time_memprobe_onset
1,1,1,1,1.0,1.0,0.3147887231571076,0,nan,nan,nan,nan,nan,nan,nan,nan,nan,1,2,4,8,3,7,nan,nan,nan,nan,nan,nan,nan,nan,nan,nan,nan,nan,0.0,nan,nan,nan,nan,nan,nan,nan,nan,nan,nan,nan,nan,nan,nan,nan,nan,nan,nan,347.8012283689786,348.8144189523373,nan,349.1292076754944,nan,nan,nan,nan
1,2,1,1,1.0,1.0,0.33759391808052897,0,nan,nan,nan,nan,nan,nan,nan,nan,nan,6,8,3,2,7,4,nan,nan,nan,nan,nan,nan,nan,nan,nan,nan,nan,nan,0.0,nan,nan,nan,nan,nan,nan,nan,nan,nan,nan,nan,nan,nan,nan,nan,nan,nan,nan,347.8012283689786,349.83961012413783,nan,350.17720404221836,nan,nan,nan,nan
1,3,0,0,0.0,1.0,0.3764674655831186,0,nan,nan,nan,nan,nan,nan,nan,nan,nan,0,3,4,6,8,7,nan,nan,nan,nan,nan,nan,nan,nan,nan,nan,nan,nan,0.0,nan,nan,nan,nan,nan,nan,nan,nan,nan,nan,nan,nan,nan,nan,nan,nan,nan,nan,347.8012283689786,350.8647072139247,nan,351.2411746795078,nan,nan,nan,nan
1,4,1,1,1.0,1.0,0.2953305671326234,0,nan,nan,nan,nan,nan,nan,nan,nan,nan,5,2,3,7,4,0,nan,nan,nan,nan,nan,nan,nan,nan,nan,nan,nan,nan,0.0,nan,nan,nan,nan,nan,nan,nan,nan,nan,nan,nan,nan,nan,nan,nan,nan,nan,nan,347.8012283689786,351.88980629939033,nan,352.18513686652295,nan,nan,nan,nan
1,5,1,1,1.0,1.0,0.2541770988391363,0,nan,nan,nan,nan,nan,nan,nan,nan,nan,1,6,2,8,3,7,nan,nan,nan,nan,nan,nan,nan,nan,nan,nan,nan,nan,0.0,nan,nan,nan,nan,nan,nan,nan,nan,nan,nan,nan,nan,nan,nan,nan,nan,nan,nan,347.8012283689786,352.9149510003772,nan,353.1691280992163,nan,nan,nan,nan
1,6,1,1,1.0,1.0,0.3170330068205658,0,nan,nan,nan,nan,nan,nan,nan,nan,nan,0,2,8,7,1,6,nan,nan,nan,nan,nan,nan,nan,nan,nan,nan,nan,nan,0.0,nan,nan,nan,nan,nan,nan,nan,nan,nan,nan,nan,nan,nan,nan,nan,nan,nan,nan,347.8012283689786,353.9400760296703,nan,354.2571090364909,nan,nan,nan,nan
1,7,1,1,1.0,1.0,0.3481938249133236,0,nan,nan,nan,nan,nan,nan,nan,nan,nan,8,0,1,3,7,2,nan,nan,nan,nan,nan,nan,nan,nan,nan,nan,nan,nan,0.0,nan,nan,nan,nan,nan,nan,nan,nan,nan,nan,nan,nan,nan,nan,nan,nan,nan,nan,347.8012283689786,354.956886204669,nan,355.3050800295823,nan,nan,nan,nan
1,8,1,1,1.0,1.0,0.35506038639869075,0,nan,nan,nan,nan,nan,nan,nan,nan,nan,2,5,4,0,1,3,nan,nan,nan,nan,nan,nan,nan,nan,nan,nan,nan,nan,0.0,nan,nan,nan,nan,nan,nan,nan,nan,nan,nan,nan,nan,nan,nan,nan,nan,nan,nan,347.8012283689786,355.98200952338084,nan,356.33706990977953,nan,nan,nan,nan
1,9,1,1,1.0,1.0,0.3538986160820059,0,nan,nan,nan,nan,nan,nan,nan,nan,nan,4,3,5,7,6,2,nan,nan,nan,nan,nan,nan,nan,nan,nan,nan,nan,nan,0.0,nan,nan,nan,nan,nan,nan,nan,nan,nan,nan,nan,nan,nan,nan,nan,nan,nan,nan,347.8012283689786,357.0071399695189,nan,357.3610385856009,nan,nan,nan,nan
1,10,1,1,1.0,1.0,0.36874903423449723,0,nan,nan,nan,nan,nan,nan,nan,nan,nan,3,7,6,0,5,1,nan,nan,nan,nan,nan,nan,nan,nan,nan,nan,nan,nan,0.0,nan,nan,nan,nan,nan,nan,nan,nan,nan,nan,nan,nan,nan,nan,nan,nan,nan,nan,347.8012283689786,358.032273551722,nan,358.4010225859565,nan,nan,nan,nan
1,11,1,1,1.0,1.0,0.41560928937178687,1,nan,nan,nan,nan,nan,nan,nan,nan,nan,4,0,3,1,8,5,1.0,1.0,1.0,1.0,1.0,1.0,0.0,1.0,1.0,0.0,0.0,0.0,2.0,6.0,0.0,3.0,5.0,1.0,3.0,6.0,1.0,2.0,3.0,4.0,5.0,5.593993918311753,1.4827926848665811,2.2180478951559053,2.8521196107394644,3.490664213310083,4.763083244335576,347.8012283689786,359.05740741902264,359.8658282153665,359.4730167083944,366.5250186881094,367.52243884526615,360.8909712057721,366.5166833068288
1,12,1,1,1.0,1.0,0.370949412957998,0,nan,nan,nan,nan,nan,nan,nan,nan,nan,6,4,2,5,1,8,nan,nan,nan,nan,nan,nan,nan,nan,nan,nan,nan,nan,0.0,nan,nan,nan,nan,nan,nan,nan,nan,nan,nan,nan,nan,nan,nan,nan,nan,nan,nan,347.8012283689786,367.74187459266614,nan,368.11282400562413,nan,nan,nan,nan
1,13,1,1,1.0,1.0,0.3297762729707756,0,nan,nan,nan,nan,nan,nan,nan,nan,nan,8,1,5,3,7,4,nan,nan,nan,nan,nan,nan,nan,nan,nan,nan,nan,nan,0.0,nan,nan,nan,nan,nan,nan,nan,nan,nan,nan,nan,nan,nan,nan,nan,nan,nan,nan,347.8012283689786,368.7670081748729,nan,369.0967844478437,nan,nan,nan,nan
1,14,1,1,1.0,1.0,0.3126225560772582,0,nan,nan,nan,nan,nan,nan,nan,nan,nan,1,5,3,4,8,0,nan,nan,nan,nan,nan,nan,nan,nan,nan,nan,nan,nan,0.0,nan,nan,nan,nan,nan,nan,nan,nan,nan,nan,nan,nan,nan,nan,nan,nan,nan,nan,347.8012283689786,369.7921391912023,nan,370.10476174727955,nan,nan,nan,nan
1,15,1,1,1.0,1.0,0.2794786031845433,1,nan,nan,nan,nan,nan,nan,nan,nan,nan,2,6,0,7,5,1,1.0,1.0,1.0,1.0,1.0,1.0,1.0,1.0,0.0,1.0,0.0,0.0,3.0,2.0,6.0,5.0,7.0,1.0,4.0,1.0,3.0,4.0,2.0,5.0,6.0,1.0668381430150475,2.7565348511161574,3.482840581164055,2.1237905472116836,4.051364502800425,4.8027524975950655,347.8012283689786,370.81727391379536,371.6256964207205,371.0967525169799,377.4764410085809,378.4734494856566,372.6341640870123,377.4681355624889
1,16,1,1,1.0,1.0,0.2912836150790099,0,nan,nan,nan,nan,nan,nan,nan,nan,nan,1,5,6,2,4,8,nan,nan,nan,nan,nan,nan,nan,nan,nan,nan,nan,nan,0.0,nan,nan,nan,nan,nan,nan,nan,nan,nan,nan,nan,nan,nan,nan,nan,nan,nan,nan,347.8012283689786,378.69332371225755,nan,378.98460732733656,nan,nan,nan,nan
1,17,1,1,1.0,1.0,0.32213994955964154,0,nan,nan,nan,nan,nan,nan,nan,nan,nan,0,8,5,6,7,3,nan,nan,nan,nan,nan,nan,nan,nan,nan,nan,nan,nan,0.0,nan,nan,nan,nan,nan,nan,nan,nan,nan,nan,nan,nan,nan,nan,nan,nan,nan,nan,347.8012283689786,379.71843505689685,nan,380.0405750064565,nan,nan,nan,nan
1,18,1,1,1.0,1.0,0.33697753834712785,0,nan,nan,nan,nan,nan,nan,nan,nan,nan,6,3,4,7,8,2,nan,nan,nan,nan,nan,nan,nan,nan,nan,nan,nan,nan,0.0,nan,nan,nan,nan,nan,nan,nan,nan,nan,nan,nan,nan,nan,nan,nan,nan,nan,nan,347.8012283689786,380.74357063477873,nan,381.08054817312586,nan,nan,nan,nan
1,19,1,1,1.0,1.0,0.27182688453467563,0,nan,nan,nan,nan,nan,nan,nan,nan,nan,4,1,2,6,7,3,nan,nan,nan,nan,nan,nan,nan,nan,nan,nan,nan,nan,0.0,nan,nan,nan,nan,nan,nan,nan,nan,nan,nan,nan,nan,nan,nan,nan,nan,nan,nan,347.8012283689786,381.7686968044618,nan,382.0405236889965,nan,nan,nan,nan
1,20,1,1,1.0,1.0,0.23868179125565803,0,nan,nan,nan,nan,nan,nan,nan,nan,nan,0,7,3,2,5,1,nan,nan,nan,nan,nan,nan,nan,nan,nan,nan,nan,nan,0.0,nan,nan,nan,nan,nan,nan,nan,nan,nan,nan,nan,nan,nan,nan,nan,nan,nan,nan,347.8012283689786,382.7938323823437,nan,383.03251417359934,nan,nan,nan,nan
1,21,1,1,1.0,1.0,0.24584913008584408,0,nan,nan,nan,nan,nan,nan,nan,nan,nan,3,6,5,1,7,8,nan,nan,nan,nan,nan,nan,nan,nan,nan,nan,nan,nan,0.0,nan,nan,nan,nan,nan,nan,nan,nan,nan,nan,nan,nan,nan,nan,nan,nan,nan,nan,347.8012283689786,383.81064398282615,nan,384.056493112912,nan,nan,nan,nan
1,22,1,1,1.0,1.0,0.22070072283531772,0,nan,nan,nan,nan,nan,nan,nan,nan,nan,5,0,4,8,3,2,nan,nan,nan,nan,nan,nan,nan,nan,nan,nan,nan,nan,0.0,nan,nan,nan,nan,nan,nan,nan,nan,nan,nan,nan,nan,nan,nan,nan,nan,nan,nan,347.8012283689786,384.83576074430675,nan,385.05646146714207,nan,nan,nan,nan
1,23,1,1,1.0,1.0,0.2515590529983456,0,nan,nan,nan,nan,nan,nan,nan,nan,nan,3,5,7,6,1,4,nan,nan,nan,nan,nan,nan,nan,nan,nan,nan,nan,nan,0.0,nan,nan,nan,nan,nan,nan,nan,nan,nan,nan,nan,nan,nan,nan,nan,nan,nan,nan,347.8012283689786,385.8608943265135,nan,386.11245337951186,nan,nan,nan,nan
1,24,0,0,0.0,1.0,0.37839044491556706,0,nan,nan,nan,nan,nan,nan,nan,nan,nan,6,3,4,7,2,1,nan,nan,nan,nan,nan,nan,nan,nan,nan,nan,nan,nan,0.0,nan,nan,nan,nan,nan,nan,nan,nan,nan,nan,nan,nan,nan,nan,nan,nan,nan,nan,347.8012283689786,386.8860373169191,nan,387.26442776183467,nan,nan,nan,nan
1,25,1,1,1.0,1.0,0.24922268299997086,0,nan,nan,nan,nan,nan,nan,nan,nan,nan,7,6,5,4,0,3,nan,nan,nan,nan,nan,nan,nan,nan,nan,nan,nan,nan,0.0,nan,nan,nan,nan,nan,nan,nan,nan,nan,nan,nan,nan,nan,nan,nan,nan,nan,nan,347.8012283689786,387.91117317989847,nan,388.16039586289844,nan,nan,nan,nan
1,26,1,1,1.0,1.0,0.27207976557838265,0,nan,nan,nan,nan,nan,nan,nan,nan,nan,1,7,3,6,5,2,nan,nan,nan,nan,nan,nan,nan,nan,nan,nan,nan,nan,0.0,nan,nan,nan,nan,nan,nan,nan,nan,nan,nan,nan,nan,nan,nan,nan,nan,nan,nan,347.8012283689786,388.9363056217153,nan,389.2083853872937,nan,nan,nan,nan
1,27,0,0,0.0,1.0,0.39093157729075756,0,nan,nan,nan,nan,nan,nan,nan,nan,nan,7,0,6,8,4,1,nan,nan,nan,nan,nan,nan,nan,nan,nan,nan,nan,nan,0.0,nan,nan,nan,nan,nan,nan,nan,nan,nan,nan,nan,nan,nan,nan,nan,nan,nan,nan,347.8012283689786,389.96143122119975,nan,390.3523627984905,nan,nan,nan,nan
1,28,1,1,1.0,1.0,0.26175782833524863,0,nan,nan,nan,nan,nan,nan,nan,nan,nan,1,3,8,2,0,6,nan,nan,nan,nan,nan,nan,nan,nan,nan,nan,nan,nan,0.0,nan,nan,nan,nan,nan,nan,nan,nan,nan,nan,nan,nan,nan,nan,nan,nan,nan,nan,347.8012283689786,390.986573071219,nan,391.2483308995543,nan,nan,nan,nan
1,29,1,1,1.0,1.0,0.27659256615515915,0,nan,nan,nan,nan,nan,nan,nan,nan,nan,2,6,5,8,3,7,nan,nan,nan,nan,nan,nan,nan,nan,nan,nan,nan,nan,0.0,nan,nan,nan,nan,nan,nan,nan,nan,nan,nan,nan,nan,nan,nan,nan,nan,nan,nan,347.8012283689786,392.01172375924216,nan,392.2883163253973,nan,nan,nan,nan
1,30,1,1,1.0,1.0,0.2914429843040125,0,nan,nan,nan,nan,nan,nan,nan,nan,nan,1,5,4,6,7,3,nan,nan,nan,nan,nan,nan,nan,nan,nan,nan,nan,nan,0.0,nan,nan,nan,nan,nan,nan,nan,nan,nan,nan,nan,nan,nan,nan,nan,nan,nan,nan,347.8012283689786,393.0368473630515,nan,393.3282903473555,nan,nan,nan,nan
1,31,1,1,1.0,1.0,0.26630712132464396,0,nan,nan,nan,nan,nan,nan,nan,nan,nan,6,8,7,0,5,1,nan,nan,nan,nan,nan,nan,nan,nan,nan,nan,nan,nan,0.0,nan,nan,nan,nan,nan,nan,nan,nan,nan,nan,nan,nan,nan,nan,nan,nan,nan,nan,347.8012283689786,394.0619715370558,nan,394.32827865838044,nan,nan,nan,nan
1,32,1,1,1.0,1.0,0.24115158665154013,0,nan,nan,nan,nan,nan,nan,nan,nan,nan,2,7,1,3,0,5,nan,nan,nan,nan,nan,nan,nan,nan,nan,nan,nan,nan,0.0,nan,nan,nan,nan,nan,nan,nan,nan,nan,nan,nan,nan,nan,nan,nan,nan,nan,nan,347.8012283689786,395.08710027260895,nan,395.3282518592605,nan,nan,nan,nan
1,33,0,0,1.0,0.0,0.2320031086965173,0,nan,nan,0.0,nan,nan,nan,nan,nan,nan,1,5,0,7,6,4,nan,nan,nan,nan,nan,nan,nan,nan,nan,nan,nan,nan,0.0,nan,nan,nan,nan,nan,nan,nan,nan,nan,nan,nan,nan,nan,nan,nan,nan,nan,nan,347.8012283689786,396.11223784617323,nan,396.34424095486975,nan,nan,nan,nan
1,34,1,1,1.0,1.0,0.22280103250886896,0,nan,nan,nan,nan,nan,nan,nan,nan,nan,8,4,7,6,2,0,nan,nan,nan,nan,nan,nan,nan,nan,nan,nan,nan,nan,0.0,nan,nan,nan,nan,nan,nan,nan,nan,nan,nan,nan,nan,nan,nan,nan,nan,nan,nan,347.8012283689786,397.1373993678826,nan,397.3602004003915,nan,nan,nan,nan
1,35,1,1,1.0,1.0,0.3020203684718581,0,nan,nan,nan,nan,nan,nan,nan,nan,nan,6,3,4,7,8,5,nan,nan,nan,nan,nan,nan,nan,nan,nan,nan,nan,nan,0.0,nan,nan,nan,nan,nan,nan,nan,nan,nan,nan,nan,nan,nan,nan,nan,nan,nan,nan,347.8012283689786,398.1541801778876,nan,398.45620054635947,nan,nan,nan,nan
1,36,1,1,1.0,1.0,0.42885233058041194,0,nan,nan,nan,nan,nan,nan,nan,nan,nan,1,0,5,6,2,4,nan,nan,nan,nan,nan,nan,nan,nan,nan,nan,nan,nan,0.0,nan,nan,nan,nan,nan,nan,nan,nan,nan,nan,nan,nan,nan,nan,nan,nan,nan,nan,347.8012283689786,399.17931974713065,nan,399.60817207771106,nan,nan,nan,nan
1,37,1,1,1.0,1.0,0.2997176399221644,0,nan,nan,nan,nan,nan,nan,nan,nan,nan,6,1,0,3,7,5,nan,nan,nan,nan,nan,nan,nan,nan,nan,nan,nan,nan,0.0,nan,nan,nan,nan,nan,nan,nan,nan,nan,nan,nan,nan,nan,nan,nan,nan,nan,nan,347.8012283689786,400.20443308744507,nan,400.50415072736723,nan,nan,nan,nan
1,38,1,1,1.0,1.0,0.3065688061687979,0,nan,nan,nan,nan,nan,nan,nan,nan,nan,3,4,8,2,0,6,nan,nan,nan,nan,nan,nan,nan,nan,nan,nan,nan,nan,0.0,nan,nan,nan,nan,nan,nan,nan,nan,nan,nan,nan,nan,nan,nan,nan,nan,nan,nan,347.8012283689786,401.22956723984316,nan,401.53613604601196,nan,nan,nan,nan
1,39,1,1,1.0,1.0,0.37738832892500795,0,nan,nan,nan,nan,nan,nan,nan,nan,nan,2,8,0,3,4,1,nan,nan,nan,nan,nan,nan,nan,nan,nan,nan,nan,nan,0.0,nan,nan,nan,nan,nan,nan,nan,nan,nan,nan,nan,nan,nan,nan,nan,nan,nan,nan,347.8012283689786,402.2547139365124,nan,402.6321022654374,nan,nan,nan,nan
1,40,1,1,1.0,1.0,0.31224651312004426,0,nan,nan,nan,nan,nan,nan,nan,nan,nan,7,6,1,4,0,5,nan,nan,nan,nan,nan,nan,nan,nan,nan,nan,nan,nan,0.0,nan,nan,nan,nan,nan,nan,nan,nan,nan,nan,nan,nan,nan,nan,nan,nan,nan,nan,347.8012283689786,403.27983041289554,nan,403.5920769260156,nan,nan,nan,nan
1,41,1,1,1.0,1.0,0.30308663129108027,0,nan,nan,nan,nan,nan,nan,nan,nan,nan,4,0,2,8,1,6,nan,nan,nan,nan,nan,nan,nan,nan,nan,nan,nan,nan,0.0,nan,nan,nan,nan,nan,nan,nan,nan,nan,nan,nan,nan,nan,nan,nan,nan,nan,nan,347.8012283689786,404.3049759691712,nan,404.6080626004623,nan,nan,nan,nan
1,42,1,1,1.0,1.0,0.2939008056273451,0,nan,nan,nan,nan,nan,nan,nan,nan,nan,2,7,4,3,5,0,nan,nan,nan,nan,nan,nan,nan,nan,nan,nan,nan,nan,0.0,nan,nan,nan,nan,nan,nan,nan,nan,nan,nan,nan,nan,nan,nan,nan,nan,nan,nan,347.8012283689786,405.33013692068926,nan,405.6240377263166,nan,nan,nan,nan
1,43,1,1,1.0,1.0,0.3727700424642535,0,nan,nan,nan,nan,nan,nan,nan,nan,nan,1,5,3,8,7,6,nan,nan,nan,nan,nan,nan,nan,nan,nan,nan,nan,nan,0.0,nan,nan,nan,nan,nan,nan,nan,nan,nan,nan,nan,nan,nan,nan,nan,nan,nan,nan,347.8012283689786,406.3552531119749,nan,406.72802315443914,nan,nan,nan,nan
1,44,1,1,1.0,1.0,0.3716416284951265,0,nan,nan,nan,nan,nan,nan,nan,nan,nan,6,0,1,2,4,3,nan,nan,nan,nan,nan,nan,nan,nan,nan,nan,nan,nan,0.0,nan,nan,nan,nan,nan,nan,nan,nan,nan,nan,nan,nan,nan,nan,nan,nan,nan,nan,347.8012283689786,407.3803601801592,nan,407.7520018086543,nan,nan,nan,nan
1,45,1,1,1.0,1.0,0.34680055582430214,0,nan,nan,nan,nan,nan,nan,nan,nan,nan,2,7,6,8,5,4,nan,nan,nan,nan,nan,nan,nan,nan,nan,nan,nan,nan,0.0,nan,nan,nan,nan,nan,nan,nan,nan,nan,nan,nan,nan,nan,nan,nan,nan,nan,nan,347.8012283689786,408.39718204413293,nan,408.74398259995723,nan,nan,nan,nan
1,46,1,1,1.0,1.0,0.369651366272592,0,nan,nan,nan,nan,nan,nan,nan,nan,nan,1,3,4,5,0,6,nan,nan,nan,nan,nan,nan,nan,nan,nan,nan,nan,nan,0.0,nan,nan,nan,nan,nan,nan,nan,nan,nan,nan,nan,nan,nan,nan,nan,nan,nan,nan,347.8012283689786,409.422303367166,nan,409.7919547334386,nan,nan,nan,nan
1,47,1,1,1.0,1.0,0.36049547579386854,0,nan,nan,nan,nan,nan,nan,nan,nan,nan,8,4,6,3,2,7,nan,nan,nan,nan,nan,nan,nan,nan,nan,nan,nan,nan,0.0,nan,nan,nan,nan,nan,nan,nan,nan,nan,nan,nan,nan,nan,nan,nan,nan,nan,nan,347.8012283689786,410.4474378046616,nan,410.8079332804555,nan,nan,nan,nan
1,48,0,0,0.0,1.0,0.5113308955624234,0,nan,nan,nan,nan,nan,nan,nan,nan,nan,3,8,0,6,4,5,nan,nan,nan,nan,nan,nan,nan,nan,nan,nan,nan,nan,0.0,nan,nan,nan,nan,nan,nan,nan,nan,nan,nan,nan,nan,nan,nan,nan,nan,nan,nan,347.8012283689786,411.4725807950672,nan,411.9839116906296,nan,nan,nan,nan
1,49,1,1,1.0,1.0,0.35818048807414016,0,nan,nan,nan,nan,nan,nan,nan,nan,nan,6,7,5,2,1,0,nan,nan,nan,nan,nan,nan,nan,nan,nan,nan,nan,nan,0.0,nan,nan,nan,nan,nan,nan,nan,nan,nan,nan,nan,nan,nan,nan,nan,nan,nan,nan,347.8012283689786,412.4977106710103,nan,412.8558911590844,nan,nan,nan,nan
1,50,1,1,1.0,1.0,0.3569964801899914,0,nan,nan,nan,nan,nan,nan,nan,nan,nan,0,8,6,1,3,7,nan,nan,nan,nan,nan,nan,nan,nan,nan,nan,nan,nan,0.0,nan,nan,nan,nan,nan,nan,nan,nan,nan,nan,nan,nan,nan,nan,nan,nan,nan,nan,347.8012283689786,413.52287561388584,nan,413.87987209407584,nan,nan,nan,nan
1,51,0,0,1.0,0.0,0.33989037450010073,0,nan,nan,0.0,nan,nan,nan,nan,nan,nan,5,1,4,3,0,6,nan,nan,nan,nan,nan,nan,nan,nan,nan,nan,nan,nan,0.0,nan,nan,nan,nan,nan,nan,nan,nan,nan,nan,nan,nan,nan,nan,nan,nan,nan,nan,347.8012283689786,414.5479715632828,nan,414.8878619377829,nan,nan,nan,nan
1,52,1,1,1.0,1.0,0.29073993507699925,0,nan,nan,nan,nan,nan,nan,nan,nan,nan,2,0,7,1,8,4,nan,nan,nan,nan,nan,nan,nan,nan,nan,nan,nan,nan,0.0,nan,nan,nan,nan,nan,nan,nan,nan,nan,nan,nan,nan,nan,nan,nan,nan,nan,nan,347.8012283689786,415.5730991584496,nan,415.8638390935266,nan,nan,nan,nan
1,53,1,1,1.0,1.0,0.3695695434289519,1,nan,nan,nan,nan,nan,nan,nan,nan,nan,7,3,6,5,1,2,1.0,1.0,1.0,1.0,1.0,1.0,1.0,0.0,1.0,1.0,0.0,0.0,3.0,7.0,2.0,6.0,5.0,6.0,4.0,1.0,4.0,3.0,2.0,6.0,5.0,1.4396851616729691,4.180599547609745,2.885566906854365,2.2299438529953477,6.268487828354409,5.365002859525703,347.8012283689786,416.5982367320139,417.40665439228906,416.96780627544285,424.73259924654485,425.7404930125558,418.4234637119953,424.7242812561817
1,54,1,1,1.0,1.0,0.3134615965791454,0,nan,nan,nan,nan,nan,nan,nan,nan,nan,8,7,0,3,5,1,nan,nan,nan,nan,nan,nan,nan,nan,nan,nan,nan,nan,0.0,nan,nan,nan,nan,nan,nan,nan,nan,nan,nan,nan,nan,nan,nan,nan,nan,nan,nan,347.8012283689786,425.9661521425878,nan,426.27961373916696,nan,nan,nan,nan
1,55,1,1,1.0,1.0,0.27233350192182115,0,nan,nan,nan,nan,nan,nan,nan,nan,nan,4,2,1,0,3,7,nan,nan,nan,nan,nan,nan,nan,nan,nan,nan,nan,nan,0.0,nan,nan,nan,nan,nan,nan,nan,nan,nan,nan,nan,nan,nan,nan,nan,nan,nan,nan,347.8012283689786,426.99125835547966,nan,427.2635918574015,nan,nan,nan,nan
1,56,1,1,1.0,1.0,0.31117625894694356,0,nan,nan,nan,nan,nan,nan,nan,nan,nan,7,8,5,1,4,2,nan,nan,nan,nan,nan,nan,nan,nan,nan,nan,nan,nan,0.0,nan,nan,nan,nan,nan,nan,nan,nan,nan,nan,nan,nan,nan,nan,nan,nan,nan,nan,347.8012283689786,428.01640533724276,nan,428.3275815961897,nan,nan,nan,nan
1,57,1,1,1.0,1.0,0.27035150750816683,0,nan,nan,nan,nan,nan,nan,nan,nan,nan,2,1,0,6,7,5,nan,nan,nan,nan,nan,nan,nan,nan,nan,nan,nan,nan,0.0,nan,nan,nan,nan,nan,nan,nan,nan,nan,nan,nan,nan,nan,nan,nan,nan,nan,nan,347.8012283689786,429.0332118059814,nan,429.3035633134896,nan,nan,nan,nan
1,58,1,1,1.0,1.0,0.28521161895696423,0,nan,nan,nan,nan,nan,nan,nan,nan,nan,3,5,6,0,1,7,nan,nan,nan,nan,nan,nan,nan,nan,nan,nan,nan,nan,0.0,nan,nan,nan,nan,nan,nan,nan,nan,nan,nan,nan,nan,nan,nan,nan,nan,nan,nan,347.8012283689786,430.058329137657,nan,430.34354075661395,nan,nan,nan,nan
1,59,1,1,1.0,1.0,0.2920462495749234,0,nan,nan,nan,nan,nan,nan,nan,nan,nan,5,2,1,3,6,8,nan,nan,nan,nan,nan,nan,nan,nan,nan,nan,nan,nan,0.0,nan,nan,nan,nan,nan,nan,nan,nan,nan,nan,nan,nan,nan,nan,nan,nan,nan,nan,347.8012283689786,431.08346072418135,nan,431.3755069737563,nan,nan,nan,nan
1,60,1,1,1.0,1.0,0.24289552506161272,1,nan,nan,nan,nan,nan,nan,nan,nan,nan,8,5,7,1,3,6,1.0,1.0,1.0,1.0,1.0,1.0,0.0,0.0,1.0,0.0,0.0,0.0,1.0,5.0,8.0,7.0,4.0,6.0,5.0,2.0,4.0,1.0,3.0,6.0,5.0,2.2235240385234647,4.262296661683649,1.2713065824900696,3.48630222905922,5.438041862504178,4.846921722055413,347.8012283689786,432.10859573186826,432.91701054117584,432.3514912569299,439.4012141711464,440.40420369839194,433.9254836243126,439.39285142055087
1,61,0,0,0.0,1.0,0.5329512273128785,0,nan,nan,nan,nan,nan,nan,nan,nan,nan,4,3,6,0,2,7,nan,nan,nan,nan,nan,nan,nan,nan,nan,nan,nan,nan,0.0,nan,nan,nan,nan,nan,nan,nan,nan,nan,nan,nan,nan,nan,nan,nan,nan,nan,nan,347.8012283689786,440.62637609199373,nan,441.1593273193066,nan,nan,nan,nan
1,62,1,1,1.0,1.0,0.33181015503942035,0,nan,nan,nan,nan,nan,nan,nan,nan,nan,0,7,3,2,8,4,nan,nan,nan,nan,nan,nan,nan,nan,nan,nan,nan,nan,0.0,nan,nan,nan,nan,nan,nan,nan,nan,nan,nan,nan,nan,nan,nan,nan,nan,nan,nan,347.8012283689786,441.65149684483185,nan,441.9833069998713,nan,nan,nan,nan
1,63,1,1,1.0,1.0,0.258594106817327,0,nan,nan,nan,nan,nan,nan,nan,nan,nan,5,2,4,1,6,0,nan,nan,nan,nan,nan,nan,nan,nan,nan,nan,nan,nan,0.0,nan,nan,nan,nan,nan,nan,nan,nan,nan,nan,nan,nan,nan,nan,nan,nan,nan,nan,347.8012283689786,442.67668231468997,nan,442.9352764215073,nan,nan,nan,nan
1,64,1,1,1.0,1.0,0.1778204219554027,0,nan,nan,nan,nan,nan,nan,nan,nan,nan,8,1,7,0,5,2,nan,nan,nan,nan,nan,nan,nan,nan,nan,nan,nan,nan,0.0,nan,nan,nan,nan,nan,nan,nan,nan,nan,nan,nan,nan,nan,nan,nan,nan,nan,nan,347.8012283689786,443.69345400159364,nan,443.87127442354904,nan,nan,nan,nan
1,65,1,1,1.0,1.0,0.12866285510972375,0,nan,nan,nan,nan,nan,nan,nan,nan,nan,7,6,8,2,1,3,nan,nan,nan,nan,nan,nan,nan,nan,nan,nan,nan,nan,0.0,nan,nan,nan,nan,nan,nan,nan,nan,nan,nan,nan,nan,nan,nan,nan,nan,nan,nan,347.8012283689786,444.71857076307424,nan,444.84723361818396,nan,nan,nan,nan
1,66,1,1,1.0,1.0,0.19985556985557196,0,nan,nan,nan,nan,nan,nan,nan,nan,nan,2,0,6,7,4,8,nan,nan,nan,nan,nan,nan,nan,nan,nan,nan,nan,nan,0.0,nan,nan,nan,nan,nan,nan,nan,nan,nan,nan,nan,nan,nan,nan,nan,nan,nan,nan,347.8012283689786,445.73536753851295,nan,445.9352231083685,nan,nan,nan,nan
1,67,0,0,1.0,0.0,0.22269925287400838,0,nan,nan,0.0,nan,nan,nan,nan,nan,nan,4,7,2,1,0,3,nan,nan,nan,nan,nan,nan,nan,nan,nan,nan,nan,nan,0.0,nan,nan,nan,nan,nan,nan,nan,nan,nan,nan,nan,nan,nan,nan,nan,nan,nan,nan,347.8012283689786,446.76049712935855,nan,446.98319638223256,nan,nan,nan,nan
1,68,1,1,1.0,1.0,0.22953160271572415,0,nan,nan,nan,nan,nan,nan,nan,nan,nan,2,0,1,8,5,6,nan,nan,nan,nan,nan,nan,nan,nan,nan,nan,nan,nan,0.0,nan,nan,nan,nan,nan,nan,nan,nan,nan,nan,nan,nan,nan,nan,nan,nan,nan,nan,347.8012283689786,447.78564268563787,nan,448.0151742883536,nan,nan,nan,nan
1,69,1,1,1.0,1.0,0.2843931054449058,0,nan,nan,nan,nan,nan,nan,nan,nan,nan,3,1,2,4,8,7,nan,nan,nan,nan,nan,nan,nan,nan,nan,nan,nan,nan,0.0,nan,nan,nan,nan,nan,nan,nan,nan,nan,nan,nan,nan,nan,nan,nan,nan,nan,nan,347.8012283689786,448.81074889852607,nan,449.095142003971,nan,nan,nan,nan
1,70,1,1,1.0,1.0,0.3072279504558537,0,nan,nan,nan,nan,nan,nan,nan,nan,nan,0,5,3,8,7,1,nan,nan,nan,nan,nan,nan,nan,nan,nan,nan,nan,nan,0.0,nan,nan,nan,nan,nan,nan,nan,nan,nan,nan,nan,nan,nan,nan,nan,nan,nan,nan,347.8012283689786,449.8359055735891,nan,450.14313352404497,nan,nan,nan,nan
1,71,1,1,1.0,1.0,0.2740429435907572,0,nan,nan,nan,nan,nan,nan,nan,nan,nan,3,0,8,6,4,2,nan,nan,nan,nan,nan,nan,nan,nan,nan,nan,nan,nan,0.0,nan,nan,nan,nan,nan,nan,nan,nan,nan,nan,nan,nan,nan,nan,nan,nan,nan,nan,347.8012283689786,450.86105825729464,nan,451.1351012008854,nan,nan,nan,nan
1,72,1,1,1.0,1.0,0.2969151363140554,0,nan,nan,nan,nan,nan,nan,nan,nan,nan,4,7,5,3,2,0,nan,nan,nan,nan,nan,nan,nan,nan,nan,nan,nan,nan,0.0,nan,nan,nan,nan,nan,nan,nan,nan,nan,nan,nan,nan,nan,nan,nan,nan,nan,nan,347.8012283689786,451.8861744485803,nan,452.18308958489433,nan,nan,nan,nan
1,73,1,1,1.0,1.0,0.2560658665315714,0,nan,nan,nan,nan,nan,nan,nan,nan,nan,0,3,4,6,1,8,nan,nan,nan,nan,nan,nan,nan,nan,nan,nan,nan,nan,0.0,nan,nan,nan,nan,nan,nan,nan,nan,nan,nan,nan,nan,nan,nan,nan,nan,nan,nan,347.8012283689786,452.90300172939897,nan,453.15906759593054,nan,nan,nan,nan
1,74,1,1,1.0,1.0,0.24689999766269466,0,nan,nan,nan,nan,nan,nan,nan,nan,nan,6,0,1,5,3,7,nan,nan,nan,nan,nan,nan,nan,nan,nan,nan,nan,nan,0.0,nan,nan,nan,nan,nan,nan,nan,nan,nan,nan,nan,nan,nan,nan,nan,nan,nan,nan,347.8012283689786,453.92814158373585,nan,454.17504158139855,nan,nan,nan,nan
1,75,0,0,0.0,1.0,0.42177137614635285,0,nan,nan,nan,nan,nan,nan,nan,nan,nan,8,5,6,1,0,3,nan,nan,nan,nan,nan,nan,nan,nan,nan,nan,nan,nan,0.0,nan,nan,nan,nan,nan,nan,nan,nan,nan,nan,nan,nan,nan,nan,nan,nan,nan,nan,347.8012283689786,454.95324237978275,nan,455.3750137559291,nan,nan,nan,nan
1,76,1,1,1.0,1.0,0.24494765333656687,0,nan,nan,nan,nan,nan,nan,nan,nan,nan,2,7,1,6,5,4,nan,nan,nan,nan,nan,nan,nan,nan,nan,nan,nan,nan,0.0,nan,nan,nan,nan,nan,nan,nan,nan,nan,nan,nan,nan,nan,nan,nan,nan,nan,nan,347.8012283689786,455.97004514226137,nan,456.21499279559794,nan,nan,nan,nan
1,77,1,1,1.0,1.0,0.23613530475995503,0,nan,nan,nan,nan,nan,nan,nan,nan,nan,8,0,5,1,6,7,nan,nan,nan,nan,nan,nan,nan,nan,nan,nan,nan,nan,0.0,nan,nan,nan,nan,nan,nan,nan,nan,nan,nan,nan,nan,nan,nan,nan,nan,nan,nan,347.8012283689786,456.9868470494439,nan,457.22298235420385,nan,nan,nan,nan
1,78,1,1,1.0,1.0,0.2349783810932422,0,nan,nan,nan,nan,nan,nan,nan,nan,nan,3,7,0,5,2,1,nan,nan,nan,nan,nan,nan,nan,nan,nan,nan,nan,nan,0.0,nan,nan,nan,nan,nan,nan,nan,nan,nan,nan,nan,nan,nan,nan,nan,nan,nan,nan,347.8012283689786,458.0119754999032,nan,458.24695388099644,nan,nan,nan,nan
1,79,1,1,1.0,1.0,0.21814340265700594,0,nan,nan,nan,nan,nan,nan,nan,nan,nan,6,3,8,4,0,5,nan,nan,nan,nan,nan,nan,nan,nan,nan,nan,nan,nan,0.0,nan,nan,nan,nan,nan,nan,nan,nan,nan,nan,nan,nan,nan,nan,nan,nan,nan,nan,347.8012283689786,459.02879764897443,nan,459.24694105163144,nan,nan,nan,nan
1,80,1,1,1.0,1.0,0.2970206222089473,0,nan,nan,nan,nan,nan,nan,nan,nan,nan,3,2,4,0,5,1,nan,nan,nan,nan,nan,nan,nan,nan,nan,nan,nan,nan,0.0,nan,nan,nan,nan,nan,nan,nan,nan,nan,nan,nan,nan,nan,nan,nan,nan,nan,nan,347.8012283689786,460.0539081383213,nan,460.3509287605302,nan,nan,nan,nan
1,81,1,1,1.0,1.0,0.2641475114724017,0,0.0,0.0,0.0,0.30439024449351565,0.06730647852273441,0.23708376597078124,0.37169672301625006,0.06730647852273441,0.25977051211278496,5,3,1,2,6,4,nan,nan,nan,nan,nan,nan,nan,nan,nan,nan,nan,nan,0.0,nan,nan,nan,nan,nan,nan,nan,nan,nan,nan,nan,nan,nan,nan,nan,nan,nan,nan,347.8012283689786,461.0707422614687,nan,461.3348897729411,nan,nan,nan,nan
1,82,1,1,1.0,1.0,0.27135618937245454,0,0.0,0.0,0.0,0.30389342062905744,0.06703716014836657,0.23685626048069086,0.370930580777424,0.06703716014836657,0.27750810768460116,1,8,3,5,2,7,nan,nan,nan,nan,nan,nan,nan,nan,nan,nan,nan,nan,0.0,nan,nan,nan,nan,nan,nan,nan,nan,nan,nan,nan,nan,nan,nan,nan,nan,nan,nan,347.8012283689786,462.0875230714737,nan,462.35887926084615,nan,nan,nan,nan
1,83,1,1,1.0,1.0,0.33454566085129045,0,0.0,0.0,0.0,0.3034966251259281,0.0667227800435043,0.23677384508242383,0.3702194051694324,0.0667227800435043,0.29001645389871555,3,2,1,0,8,5,nan,nan,nan,nan,nan,nan,nan,nan,nan,nan,nan,nan,0.0,nan,nan,nan,nan,nan,nan,nan,nan,nan,nan,nan,nan,nan,nan,nan,nan,nan,nan,347.8012283689786,463.1043127194898,nan,463.4388583803411,nan,nan,nan,nan
1,84,1,1,1.0,1.0,0.2697171666586655,0,0.0,0.0,0.0,0.30387070989370357,0.0664060743103009,0.23746463558340267,0.37027678420400445,0.0664060743103009,0.29187300562747015,1,8,2,5,4,6,nan,nan,nan,nan,nan,nan,nan,nan,nan,nan,nan,nan,0.0,nan,nan,nan,nan,nan,nan,nan,nan,nan,nan,nan,nan,nan,nan,nan,nan,nan,nan,347.8012283689786,464.12110920983105,nan,464.3908263764897,nan,nan,nan,nan
1,85,1,1,1.0,1.0,0.24458386955302558,0,0.0,0.0,0.0,0.3034641200932865,0.06611346799015061,0.23735065210313588,0.3695775880834371,0.06611346799015061,0.28294889902099385,2,1,5,7,8,3,nan,nan,nan,nan,nan,nan,nan,nan,nan,nan,nan,nan,0.0,nan,nan,nan,nan,nan,nan,nan,nan,nan,nan,nan,nan,nan,nan,nan,nan,nan,nan,347.8012283689786,465.1462296775717,nan,465.3908135471247,nan,nan,nan,nan
1,86,1,1,1.0,1.0,0.24340984006630606,0,0.0,0.0,0.0,0.30277141126340107,0.06602934388746202,0.23674206737593906,0.3688007551508631,0.06602934388746202,0.25257029209266574,8,5,4,3,0,2,nan,nan,nan,nan,nan,nan,nan,nan,nan,nan,nan,nan,0.0,nan,nan,nan,nan,nan,nan,nan,nan,nan,nan,nan,nan,nan,nan,nan,nan,nan,nan,347.8012283689786,466.17137751462724,nan,466.41478735469354,nan,nan,nan,nan
1,87,1,1,1.0,1.0,0.2422999574082496,0,0.0,0.0,0.0,0.30208116043552785,0.06595207327603694,0.2361290871594909,0.3680332337115648,0.06595207327603694,0.2434312223425271,1,4,3,8,5,0,nan,nan,nan,nan,nan,nan,nan,nan,nan,nan,nan,nan,0.0,nan,nan,nan,nan,nan,nan,nan,nan,nan,nan,nan,nan,nan,nan,nan,nan,nan,nan,347.8012283689786,467.19647346402417,nan,467.4387734214324,nan,nan,nan,nan
1,88,0,0,0.0,1.0,0.2974237493799592,0,0.0,0.0,0.0,0.3013940201708465,0.06588084398233754,0.23551317618850895,0.367274864153184,0.06588084398233754,0.2610445156181716,4,0,7,5,2,1,nan,nan,nan,nan,nan,nan,nan,nan,nan,nan,nan,nan,0.0,nan,nan,nan,nan,nan,nan,nan,nan,nan,nan,nan,nan,nan,nan,nan,nan,nan,nan,347.8012283689786,468.213330394934,nan,468.510754144314,nan,nan,nan,nan
1,89,1,1,1.0,1.0,0.21626119219581597,0,0.0,0.0,0.0,0.3013489034573137,0.065506803208224,0.2358421002490897,0.3668557066655377,0.065506803208224,0.2519949663280083,6,8,5,0,7,4,nan,nan,nan,nan,nan,nan,nan,nan,nan,nan,nan,nan,0.0,nan,nan,nan,nan,nan,nan,nan,nan,nan,nan,nan,nan,nan,nan,nan,nan,nan,nan,347.8012283689786,469.2384779468921,nan,469.4547391390879,nan,nan,nan,nan
1,90,1,1,1.0,1.0,0.27111271652393043,0,0.0,0.0,0.0,0.30039286175774627,0.06575225912853198,0.23464060262921427,0.36614512088627826,0.06575225912853198,0.26159921936656855,4,3,0,5,1,6,nan,nan,nan,nan,nan,nan,nan,nan,nan,nan,nan,nan,0.0,nan,nan,nan,nan,nan,nan,nan,nan,nan,nan,nan,nan,nan,nan,nan,nan,nan,nan,347.8012283689786,470.2636004103115,nan,470.5347131268354,nan,nan,nan,nan
1,91,1,1,1.0,1.0,0.26176666634273715,0,0.0,0.0,0.0,0.30006752681070387,0.06545794270754775,0.23460958410315613,0.3655254695182516,0.06545794270754775,0.24971352502082786,7,5,4,8,3,1,nan,nan,nan,nan,nan,nan,nan,nan,nan,nan,nan,nan,0.0,nan,nan,nan,nan,nan,nan,nan,nan,nan,nan,nan,nan,nan,nan,nan,nan,nan,nan,347.8012283689786,471.2889358411994,nan,471.55070250754216,nan,nan,nan,nan
1,92,1,1,1.0,1.0,0.3008218206377933,0,0.0,0.0,0.0,0.29964663823413284,0.06521963225238082,0.23442700598175203,0.36486627048651366,0.06521963225238082,0.2779004011681536,5,4,3,6,2,8,nan,nan,nan,nan,nan,nan,nan,nan,nan,nan,nan,nan,0.0,nan,nan,nan,nan,nan,nan,nan,nan,nan,nan,nan,nan,nan,nan,nan,nan,nan,nan,347.8012283689786,472.31385217948264,nan,472.61467400012043,nan,nan,nan,nan
1,93,1,1,1.0,1.0,0.3236706354073249,0,0.0,0.0,0.0,0.2996594119559117,0.06486432372364592,0.2347950882322658,0.36452373567955765,0.06486432372364592,0.2954197074626184,0,8,5,4,1,2,nan,nan,nan,nan,nan,nan,nan,nan,nan,nan,nan,nan,0.0,nan,nan,nan,nan,nan,nan,nan,nan,nan,nan,nan,nan,nan,nan,nan,nan,nan,nan,347.8012283689786,473.33897008134954,nan,473.66264071675687,nan,nan,nan,nan
1,94,1,1,1.0,1.0,0.28254624701003195,0,0.0,0.0,0.0,0.29991759715431404,0.06456216016032129,0.23535543699399275,0.36447975731463533,0.06456216016032129,0.3023462343517167,8,0,2,3,7,4,nan,nan,nan,nan,nan,nan,nan,nan,nan,nan,nan,nan,0.0,nan,nan,nan,nan,nan,nan,nan,nan,nan,nan,nan,nan,nan,nan,nan,nan,nan,nan,347.8012283689786,474.3640700221076,nan,474.64661626911766,nan,nan,nan,nan
1,95,1,1,1.0,1.0,0.3536981928846217,0,0.0,0.0,0.0,0.2997327955570344,0.06424255055226832,0.2354902450047661,0.3639753461093027,0.06424255055226832,0.31997169176732615,4,2,1,0,3,6,nan,nan,nan,nan,nan,nan,nan,nan,nan,nan,nan,nan,0.0,nan,nan,nan,nan,nan,nan,nan,nan,nan,nan,nan,nan,nan,nan,nan,nan,nan,nan,347.8012283689786,475.38091070248265,nan,475.7346088953673,nan,nan,nan,nan
1,96,1,1,1.0,1.0,0.3768674566890695,0,0.0,0.0,0.0,0.30030085237100906,0.0641404303921329,0.23616042197887616,0.36444128276314197,0.0641404303921329,0.3377039655279077,8,3,2,6,4,0,nan,nan,nan,nan,nan,nan,nan,nan,nan,nan,nan,nan,0.0,nan,nan,nan,nan,nan,nan,nan,nan,nan,nan,nan,nan,nan,nan,nan,nan,nan,nan,347.8012283689786,476.39771232457133,nan,476.7745797812604,nan,nan,nan,nan
1,97,1,1,1.0,1.0,0.29571829906490166,0,0.0,0.0,0.0,0.30109842116598884,0.06427730327754543,0.2368211178884434,0.3653757244435343,0.06427730327754543,0.3420946495461976,0,1,7,8,6,5,nan,nan,nan,nan,nan,nan,nan,nan,nan,nan,nan,nan,0.0,nan,nan,nan,nan,nan,nan,nan,nan,nan,nan,nan,nan,nan,nan,nan,nan,nan,nan,347.8012283689786,477.4228370687706,nan,477.7185553678355,nan,nan,nan,nan
1,98,1,1,1.0,1.0,0.2706009673893277,0,0.0,0.0,0.0,0.301042955989689,0.06394742783581471,0.2370955281538743,0.3649903838255037,0.06394742783581471,0.3143955743810996,6,0,8,1,2,3,nan,nan,nan,nan,nan,nan,nan,nan,nan,nan,nan,nan,0.0,nan,nan,nan,nan,nan,nan,nan,nan,nan,nan,nan,nan,nan,nan,nan,nan,nan,nan,347.8012283689786,478.44793986049626,nan,478.7185408278856,nan,nan,nan,nan
1,99,1,1,1.0,1.0,0.2933742314489791,0,0.0,0.0,0.0,0.3007323234529506,0.06369384605674441,0.23703847739620618,0.364426169509695,0.06369384605674441,0.2865644993010695,7,4,1,0,8,5,nan,nan,nan,nan,nan,nan,nan,nan,nan,nan,nan,nan,0.0,nan,nan,nan,nan,nan,nan,nan,nan,nan,nan,nan,nan,nan,nan,nan,nan,nan,nan,347.8012283689786,479.47314158088557,nan,479.76651581233455,nan,nan,nan,nan
1,100,1,1,1.0,1.0,0.3322566169590573,0,0.0,0.0,0.0,0.30065799929129433,0.06337561468495914,0.2372823846063352,0.36403361397625345,0.06337561468495914,0.29874393859912135,4,3,5,2,7,6,nan,nan,nan,nan,nan,nan,nan,nan,nan,nan,nan,nan,0.0,nan,nan,nan,nan,nan,nan,nan,nan,nan,nan,nan,nan,nan,nan,nan,nan,nan,nan,347.8012283689786,480.49823696009116,nan,480.8304935770502,nan,nan,nan,nan
1,101,1,1,1.0,1.0,0.2990935625639395,0,0.0,0.0,0.0,0.30097398546797194,0.06313627111613994,0.23783771435183199,0.3641102565841119,0.06313627111613994,0.30824147032399196,2,5,0,4,8,1,nan,nan,nan,nan,nan,nan,nan,nan,nan,nan,nan,nan,0.0,nan,nan,nan,nan,nan,nan,nan,nan,nan,nan,nan,nan,nan,nan,nan,nan,nan,nan,347.8012283689786,481.52337567404174,nan,481.8224692366057,nan,nan,nan,nan
1,102,1,1,1.0,1.0,0.2419509986648336,0,0.0,0.0,0.0,0.30095536741941714,0.06282321369104693,0.2381321537283702,0.36377858111046407,0.06282321369104693,0.2911003927292768,4,7,1,2,3,0,nan,nan,nan,nan,nan,nan,nan,nan,nan,nan,nan,nan,0.0,nan,nan,nan,nan,nan,nan,nan,nan,nan,nan,nan,nan,nan,nan,nan,nan,nan,nan,347.8012283689786,482.54850982643984,nan,482.7904608251047,nan,nan,nan,nan
1,103,1,1,1.0,1.0,0.28878730565702426,0,0.0,0.0,0.0,0.30037689321594085,0.06278423658259744,0.23759265663334342,0.3631611297985383,0.06278423658259744,0.2766106222952658,1,4,2,3,6,8,nan,nan,nan,nan,nan,nan,nan,nan,nan,nan,nan,nan,0.0,nan,nan,nan,nan,nan,nan,nan,nan,nan,nan,nan,nan,nan,nan,nan,nan,nan,nan,347.8012283689786,483.57363171966426,nan,483.8624190253213,nan,nan,nan,nan
1,104,1,1,1.0,1.0,0.22365090669336496,0,0.0,0.0,0.0,0.30026437294837854,0.0624890492564764,0.23777532369190213,0.36275342220485496,0.0624890492564764,0.2514630703384076,7,8,1,6,5,3,nan,nan,nan,nan,nan,nan,nan,nan,nan,nan,nan,nan,0.0,nan,nan,nan,nan,nan,nan,nan,nan,nan,nan,nan,nan,nan,nan,nan,nan,nan,nan,347.8012283689786,484.5987670124523,nan,484.82241791914566,nan,nan,nan,nan
1,105,1,1,1.0,1.0,0.2544858589026262,0,0.0,0.0,0.0,0.2995277050036188,0.06263569546743245,0.23689200953618636,0.3621634004710512,0.06263569546743245,0.2556413570843385,0,2,7,4,1,6,nan,nan,nan,nan,nan,nan,nan,nan,nan,nan,nan,nan,0.0,nan,nan,nan,nan,nan,nan,nan,nan,nan,nan,nan,nan,nan,nan,nan,nan,nan,nan,347.8012283689786,485.62389973936297,nan,485.8783855982656,nan,nan,nan,nan
1,106,1,1,1.0,1.0,0.285334495769348,0,0.0,0.0,0.0,0.29909873504075224,0.062490029860525646,0.2366087051802266,0.3615887649012779,0.062490029860525646,0.25449042045511305,8,6,4,0,2,7,nan,nan,nan,nan,nan,nan,nan,nan,nan,nan,nan,nan,0.0,nan,nan,nan,nan,nan,nan,nan,nan,nan,nan,nan,nan,nan,nan,nan,nan,nan,nan,347.8012283689786,486.6490407340898,nan,486.93437522985914,nan,nan,nan,nan
1,107,1,1,1.0,1.0,0.2765161601564614,0,0.0,0.0,0.0,0.298968883726871,0.062208798544638955,0.23676008518223207,0.36117768227151,0.062208798544638955,0.27211217160947854,2,3,0,5,7,4,nan,nan,nan,nan,nan,nan,nan,nan,nan,nan,nan,nan,0.0,nan,nan,nan,nan,nan,nan,nan,nan,nan,nan,nan,nan,nan,nan,nan,nan,nan,nan,347.8012283689786,487.66583950520726,nan,487.9423556653637,nan,nan,nan,nan
1,108,1,1,1.0,1.0,0.29134947248530807,0,0.0,0.0,0.0,0.29875904518882984,0.06195510001289163,0.23680394517593822,0.36071414520172146,0.06195510001289163,0.28440004280370584,5,4,8,1,2,0,nan,nan,nan,nan,nan,nan,nan,nan,nan,nan,nan,nan,0.0,nan,nan,nan,nan,nan,nan,nan,nan,nan,nan,nan,nan,nan,nan,nan,nan,nan,nan,347.8012283689786,488.6909785042553,nan,488.98232797674063,nan,nan,nan,nan
1,109,1,1,1.0,1.0,0.3065428623413027,0,0.0,0.0,0.0,0.2986904380341676,0.061671687190670364,0.23701875084349724,0.36036212522483796,0.061671687190670364,0.2914694983276907,2,6,5,8,7,4,nan,nan,nan,nan,nan,nan,nan,nan,nan,nan,nan,nan,0.0,nan,nan,nan,nan,nan,nan,nan,nan,nan,nan,nan,nan,nan,nan,nan,nan,nan,nan,347.8012283689786,489.7077641609103,nan,490.0143070232516,nan,nan,nan,nan
1,110,0,0,1.0,0.0,0.27337895265372936,0,0.0,0.0,0.0,0.2987624786241413,0.06139270277410603,0.23736977585003527,0.3601551813982473,0.06139270277410603,0.2904237624934467,8,2,3,6,1,0,nan,nan,nan,nan,nan,nan,nan,nan,nan,nan,nan,nan,0.0,nan,nan,nan,nan,nan,nan,nan,nan,nan,nan,nan,nan,nan,nan,nan,nan,nan,nan,347.8012283689786,490.7329060109296,nan,491.0062849635833,nan,nan,nan,nan
1,111,1,1,1.0,1.0,0.20823685175128048,0,0.0,0.0,0.0,0.29853171929713757,0.06116047720260058,0.23737124209453697,0.35969219649973816,0.06116047720260058,0.2627195555821042,7,3,6,5,0,4,nan,nan,nan,nan,nan,nan,nan,nan,nan,nan,nan,nan,0.0,nan,nan,nan,nan,nan,nan,nan,nan,nan,nan,nan,nan,nan,nan,nan,nan,nan,nan,347.8012283689786,491.7580310402227,nan,491.966267891974,nan,nan,nan,nan
1,112,1,1,1.0,1.0,0.2313838779919024,0,0.0,0.0,0.0,0.2977182520219497,0.06147922435773142,0.23623902766421825,0.3591974763796811,0.06147922435773142,0.23766656079897075,0,1,8,4,6,3,nan,nan,nan,nan,nan,nan,nan,nan,nan,nan,nan,nan,0.0,nan,nan,nan,nan,nan,nan,nan,nan,nan,nan,nan,nan,nan,nan,nan,nan,nan,nan,347.8012283689786,492.77486601865894,nan,493.00624989665084,nan,nan,nan,nan
1,113,0,0,1.0,0.0,0.2062568530163844,0,0.0,0.0,0.0,0.2971259808252528,0.06152141825831356,0.23560456256693926,0.35864739908356635,0.06152141825831356,0.21529252758652243,1,5,3,6,7,0,nan,nan,nan,nan,nan,nan,nan,nan,nan,nan,nan,nan,0.0,nan,nan,nan,nan,nan,nan,nan,nan,nan,nan,nan,nan,nan,nan,nan,nan,nan,nan,347.8012283689786,493.7999753676195,nan,494.00623222063587,nan,nan,nan,nan
1,114,1,1,1.0,1.0,0.19709925196366385,0,0.0,0.0,0.0,0.296321829251723,0.061837013512918065,0.23448481573880495,0.35815884276464105,0.061837013512918065,0.21157999432398356,8,2,4,3,1,7,nan,nan,nan,nan,nan,nan,nan,nan,nan,nan,nan,nan,0.0,nan,nan,nan,nan,nan,nan,nan,nan,nan,nan,nan,nan,nan,nan,nan,nan,nan,nan,347.8012283689786,494.82509982671763,nan,495.0221990786813,nan,nan,nan,nan
1,115,1,1,1.0,1.0,0.29988499186583795,0,0.0,0.0,0.0,0.29545145576674003,0.06225654297225011,0.23319491279448992,0.3577079987389902,0.06225654297225011,0.23441369894862873,1,7,3,6,0,2,nan,nan,nan,nan,nan,nan,nan,nan,nan,nan,nan,nan,0.0,nan,nan,nan,nan,nan,nan,nan,nan,nan,nan,nan,nan,nan,nan,nan,nan,nan,nan,347.8012283689786,495.8502947047782,nan,496.15017969664405,nan,nan,nan,nan
1,116,1,1,1.0,1.0,0.2911761335017218,0,0.0,0.0,0.0,0.2954900082545583,0.0619866380835795,0.23350337017097877,0.3574766463381378,0.0619866380835795,0.26272012577707454,4,0,2,8,5,3,nan,nan,nan,nan,nan,nan,nan,nan,nan,nan,nan,nan,0.0,nan,nan,nan,nan,nan,nan,nan,nan,nan,nan,nan,nan,nan,nan,nan,nan,nan,nan,347.8012283689786,496.86699027078066,nan,497.1581664042824,nan,nan,nan,nan
1,117,1,1,1.0,1.0,0.338005313067697,0,0.0,0.0,0.0,0.2954528196791028,0.06172016441670863,0.23373265526239417,0.35717298409581144,0.06172016441670863,0.30968881281175226,8,4,1,5,2,0,nan,nan,nan,nan,nan,nan,nan,nan,nan,nan,nan,nan,0.0,nan,nan,nan,nan,nan,nan,nan,nan,nan,nan,nan,nan,nan,nan,nan,nan,nan,nan,347.8012283689786,497.8921369674463,nan,498.230142280514,nan,nan,nan,nan
1,118,1,1,1.0,1.0,0.3287921180926787,0,0.0,0.0,0.0,0.2958165162037916,0.061580547433060774,0.23423596877073086,0.3573970636368524,0.061580547433060774,0.3193245215540325,4,7,2,0,3,8,nan,nan,nan,nan,nan,nan,nan,nan,nan,nan,nan,nan,0.0,nan,nan,nan,nan,nan,nan,nan,nan,nan,nan,nan,nan,nan,nan,nan,nan,nan,nan,347.8012283689786,498.91730447619557,nan,499.24609659428825,nan,nan,nan,nan
1,119,1,1,1.0,1.0,0.35163950737478444,0,0.0,0.0,0.0,0.2960959704570873,0.06139351690638765,0.23470245355069966,0.35748948736347497,0.06139351690638765,0.33947897951172007,1,0,7,8,2,5,nan,nan,nan,nan,nan,nan,nan,nan,nan,nan,nan,nan,0.0,nan,nan,nan,nan,nan,nan,nan,nan,nan,nan,nan,nan,nan,nan,nan,nan,nan,nan,347.8012283689786,499.9424534536374,nan,500.2940929610122,nan,nan,nan,nan
1,120,1,1,1.0,1.0,0.3988276240743289,0,0.0,1.0,0.0,0.2965627228681604,0.061344906012860134,0.23521781685530024,0.3579076288810205,0.061344906012860134,0.35975308318059734,8,4,5,7,1,3,nan,nan,nan,nan,nan,nan,nan,nan,nan,nan,nan,nan,0.0,nan,nan,nan,nan,nan,nan,nan,nan,nan,nan,nan,nan,nan,nan,nan,nan,nan,nan,347.8012283689786,500.9592476632024,nan,501.35807528727673,nan,nan,nan,nan
1,121,1,1,1.0,1.0,0.3260095712757902,1,0.0,0.0,1.0,0.29741493037821176,0.0617920882783114,0.23562284209990036,0.35920701865652316,0.0617920882783114,0.35882556757496786,7,5,2,6,8,4,1.0,1.0,1.0,1.0,1.0,1.0,1.0,0.0,1.0,1.0,1.0,0.0,4.0,7.0,7.0,2.0,6.0,8.0,7.0,2.0,4.0,3.0,1.0,6.0,5.0,2.273896688828245,3.8332250915045734,2.866320577904844,1.3210919329540047,5.256887516115967,4.537708356023359,347.8012283689786,501.9760461492224,502.7844461334862,502.3020557204982,509.09359620798205,510.1036578516578,503.80125459789997,509.0852739411639
1,122,1,1,1.0,1.0,0.27078029340918874,0,0.0,0.0,0.0,0.29765124972447277,0.06159064789455341,0.23606060182991936,0.3592418976190262,0.06159064789455341,0.3318724962531026,8,7,5,3,1,2,nan,nan,nan,nan,nan,nan,nan,nan,nan,nan,nan,nan,0.0,nan,nan,nan,nan,nan,nan,nan,nan,nan,nan,nan,nan,nan,nan,nan,nan,nan,nan,347.8012283689786,510.3271251558763,nan,510.59790544928546,nan,nan,nan,nan
1,123,1,1,1.0,1.0,0.35760601759830024,0,0.0,0.0,0.0,0.29743099598418354,0.06138553834211385,0.2360454576420697,0.3588165343262974,0.06138553834211385,0.31813196076109307,4,8,2,0,3,6,nan,nan,nan,nan,nan,nan,nan,nan,nan,nan,nan,nan,0.0,nan,nan,nan,nan,nan,nan,nan,nan,nan,nan,nan,nan,nan,nan,nan,nan,nan,nan,347.8012283689786,511.35225816788807,nan,511.70986418548637,nan,nan,nan,nan
1,124,1,1,1.0,1.0,0.27646626817659126,0,0.0,0.0,0.0,0.29792022380218447,0.061373843152906095,0.23654638064927838,0.3592940669550906,0.061373843152906095,0.3016175263946934,0,7,3,1,6,2,nan,nan,nan,nan,nan,nan,nan,nan,nan,nan,nan,nan,0.0,nan,nan,nan,nan,nan,nan,nan,nan,nan,nan,nan,nan,nan,nan,nan,nan,nan,nan,347.8012283689786,512.3773857630549,nan,512.6538520312315,nan,nan,nan,nan
1,125,1,1,1.0,1.0,0.2832989031157922,0,0.0,0.0,0.0,0.29774720803101035,0.06115597727573867,0.23659123075527166,0.35890318530674903,0.06115597727573867,0.3057903962968946,5,2,8,6,0,7,nan,nan,nan,nan,nan,nan,nan,nan,nan,nan,nan,nan,0.0,nan,nan,nan,nan,nan,nan,nan,nan,nan,nan,nan,nan,nan,nan,nan,nan,nan,nan,347.8012283689786,513.402527898168,nan,513.6858268012838,nan,nan,nan,nan
1,126,1,1,1.0,1.0,0.3064579034289636,0,0.0,0.0,0.0,0.2976316215916886,0.06092445975134034,0.23670716184034826,0.35855608134302897,0.06092445975134034,0.2887410249071157,0,8,4,7,5,2,nan,nan,nan,nan,nan,nan,nan,nan,nan,nan,nan,nan,0.0,nan,nan,nan,nan,nan,nan,nan,nan,nan,nan,nan,nan,nan,nan,nan,nan,nan,nan,347.8012283689786,514.4193335116142,nan,514.7257914150432,nan,nan,nan,nan
1,127,1,1,1.0,1.0,0.2576569929442485,0,0.0,0.0,0.0,0.29770167144754,0.060687268183748755,0.23701440326379125,0.35838893963128876,0.060687268183748755,0.28247126649633475,8,4,6,5,3,0,nan,nan,nan,nan,nan,nan,nan,nan,nan,nan,nan,nan,0.0,nan,nan,nan,nan,nan,nan,nan,nan,nan,nan,nan,nan,nan,nan,nan,nan,nan,nan,347.8012283689786,515.4361214490455,nan,515.6937784419897,nan,nan,nan,nan
1,128,1,1,1.0,1.0,0.2645118654509133,0,0.0,0.0,0.0,0.29738635901838023,0.0605514006393374,0.23683495837904284,0.3579377596577176,0.0605514006393374,0.2762089206080418,2,7,5,4,8,3,nan,nan,nan,nan,nan,nan,nan,nan,nan,nan,nan,nan,0.0,nan,nan,nan,nan,nan,nan,nan,nan,nan,nan,nan,nan,nan,nan,nan,nan,nan,nan,347.8012283689786,516.4612490442123,nan,516.7257609096632,nan,nan,nan,nan
1,129,1,1,1.0,1.0,0.22334471250724164,0,0.0,0.0,0.0,0.2971295270373844,0.06038381459127566,0.2367457124461087,0.35751334162866005,0.06038381459127566,0.24850452363413447,3,8,4,6,2,1,nan,nan,nan,nan,nan,nan,nan,nan,nan,nan,nan,nan,0.0,nan,nan,nan,nan,nan,nan,nan,nan,nan,nan,nan,nan,nan,nan,nan,nan,nan,nan,347.8012283689786,517.4863871879679,nan,517.7097319004752,nan,nan,nan,nan
1,130,0,0,1.0,0.0,0.23820083259488456,0,0.0,0.0,0.0,0.29655755173094916,0.06049641183743085,0.23606113989351832,0.35705396356838004,0.06049641183743085,0.24201913685101317,7,2,8,4,5,3,nan,nan,nan,nan,nan,nan,nan,nan,nan,nan,nan,nan,0.0,nan,nan,nan,nan,nan,nan,nan,nan,nan,nan,nan,nan,nan,nan,nan,nan,nan,nan,347.8012283689786,518.511521910561,nan,518.7497227431559,nan,nan,nan,nan
1,131,1,1,1.0,1.0,0.24502605501766084,0,0.0,0.0,0.0,0.296108653891441,0.06047857564043817,0.2356300782510028,0.35658722953187916,0.06047857564043817,0.23552386670659567,4,8,0,1,6,5,nan,nan,nan,nan,nan,nan,nan,nan,nan,nan,nan,nan,0.0,nan,nan,nan,nan,nan,nan,nan,nan,nan,nan,nan,nan,nan,nan,nan,nan,nan,nan,347.8012283689786,519.5366572033454,nan,519.781683258363,nan,nan,nan,nan
1,132,0,0,1.0,0.0,0.291887165447406,0,0.0,0.0,0.0,0.2957187103885877,0.060411127524771825,0.2353075828638159,0.35612983791335956,0.060411127524771825,0.2583713510199838,1,2,5,7,4,8,nan,nan,nan,nan,nan,nan,nan,nan,nan,nan,nan,nan,0.0,nan,nan,nan,nan,nan,nan,nan,nan,nan,nan,nan,nan,nan,nan,nan,nan,nan,nan,347.8012283689786,520.561786794191,nan,520.8536739596384,nan,nan,nan,nan
1,133,1,1,1.0,1.0,0.2507271399226738,0,0.0,0.0,0.0,0.2956896835329727,0.06018277946299018,0.23550690406998254,0.35587246299596287,0.06018277946299018,0.26254678679591353,5,0,4,8,3,6,nan,nan,nan,nan,nan,nan,nan,nan,nan,nan,nan,nan,0.0,nan,nan,nan,nan,nan,nan,nan,nan,nan,nan,nan,nan,nan,nan,nan,nan,nan,nan,347.8012283689786,521.5869198062028,nan,521.8376469461255,nan,nan,nan,nan
1,134,1,1,1.0,1.0,0.2818868176291289,0,0.0,0.0,0.0,0.29535161929530124,0.06008177802234976,0.23526984127295147,0.355433397317651,0.06008177802234976,0.2748337076664029,0,2,6,7,8,1,nan,nan,nan,nan,nan,nan,nan,nan,nan,nan,nan,nan,0.0,nan,nan,nan,nan,nan,nan,nan,nan,nan,nan,nan,nan,nan,nan,nan,nan,nan,nan,347.8012283689786,522.603741955274,nan,522.8856287729031,nan,nan,nan,nan
1,135,1,1,1.0,1.0,0.28079575136871426,0,0.0,0.0,0.0,0.2952511357007776,0.05986838889969942,0.23538274680107818,0.355119524600477,0.05986838889969942,0.27113656964017235,6,3,5,1,4,7,nan,nan,nan,nan,nan,nan,nan,nan,nan,nan,nan,nan,0.0,nan,nan,nan,nan,nan,nan,nan,nan,nan,nan,nan,nan,nan,nan,nan,nan,nan,nan,347.8012283689786,523.6288245051146,nan,523.9096202564833,nan,nan,nan,nan
1,136,0,0,0.0,1.0,0.4399448850454064,0,0.0,0.0,0.0,0.2951440587797993,0.05965911962722258,0.23548493915257673,0.3548031784070219,0.05965911962722258,0.33420915134774987,8,4,2,0,1,6,nan,nan,nan,nan,nan,nan,nan,nan,nan,nan,nan,nan,0.0,nan,nan,nan,nan,nan,nan,nan,nan,nan,nan,nan,nan,nan,nan,nan,nan,nan,nan,347.8012283689786,524.6456557772908,nan,525.0856006623362,nan,nan,nan,nan
1,137,1,1,1.0,1.0,0.3030891971611709,0,0.0,0.0,0.0,0.2962087707376347,0.06071307477412241,0.23549569596351227,0.3569218455117571,0.06071307477412241,0.34127661119176383,2,1,8,7,6,5,nan,nan,nan,nan,nan,nan,nan,nan,nan,nan,nan,nan,0.0,nan,nan,nan,nan,nan,nan,nan,nan,nan,nan,nan,nan,nan,nan,nan,nan,nan,nan,347.8012283689786,525.662482202817,nan,525.9655713999782,nan,nan,nan,nan
1,138,1,1,1.0,1.0,0.29429509479086846,0,0.0,0.0,0.0,0.2962589928283174,0.06049392366893382,0.23576506915938358,0.3567529164972512,0.06049392366893382,0.3457763923324819,3,7,0,1,5,6,nan,nan,nan,nan,nan,nan,nan,nan,nan,nan,nan,nan,0.0,nan,nan,nan,nan,nan,nan,nan,nan,nan,nan,nan,nan,nan,nan,nan,nan,nan,nan,347.8012283689786,526.6792521791394,nan,526.9735472739303,nan,nan,nan,nan
1,139,1,1,1.0,1.0,0.29313760093282326,0,0.0,0.0,0.0,0.29624476168311853,0.06027457443782383,0.2359701872452947,0.35651933612094233,0.06027457443782383,0.2968406309616209,8,1,2,0,6,5,nan,nan,nan,nan,nan,nan,nan,nan,nan,nan,nan,nan,0.0,nan,nan,nan,nan,nan,nan,nan,nan,nan,nan,nan,nan,nan,nan,nan,nan,nan,nan,347.8012283689786,527.7043880421188,nan,527.9975256430516,nan,nan,nan,nan
1,140,1,1,1.0,1.0,0.2922845906796283,0,0.0,0.0,0.0,0.29622240800865596,0.06005794214586504,0.2361644658627909,0.356280350154521,0.06005794214586504,0.2932390954677733,2,6,4,5,7,1,nan,nan,nan,nan,nan,nan,nan,nan,nan,nan,nan,nan,0.0,nan,nan,nan,nan,nan,nan,nan,nan,nan,nan,nan,nan,nan,nan,nan,nan,nan,nan,347.8012283689786,528.72121503784,nan,529.0134996285196,nan,nan,nan,nan
1,141,1,1,1.0,1.0,0.26750623934640316,0,0.0,0.0,0.0,0.29619428074202003,0.059843983902306504,0.23635029683971354,0.35603826464432653,0.059843983902306504,0.2843094769862849,8,1,2,4,3,5,nan,nan,nan,nan,nan,nan,nan,nan,nan,nan,nan,nan,0.0,nan,nan,nan,nan,nan,nan,nan,nan,nan,nan,nan,nan,nan,nan,nan,nan,nan,nan,347.8012283689786,529.7379887204224,nan,530.0054949597688,nan,nan,nan,nan
1,142,1,1,1.0,1.0,0.25068237969389884,0,0.0,0.0,0.0,0.2959908194555263,0.0596799682535638,0.2363108512019625,0.3556707877090901,0.0596799682535638,0.2701577365733101,1,0,6,3,2,4,nan,nan,nan,nan,nan,nan,nan,nan,nan,nan,nan,nan,0.0,nan,nan,nan,nan,nan,nan,nan,nan,nan,nan,nan,nan,nan,nan,nan,nan,nan,nan,347.8012283689786,530.7547812194061,nan,531.0054635991,nan,nan,nan,nan
1,143,1,1,1.0,1.0,0.2814791289019922,0,0.0,0.0,0.0,0.29567174593607826,0.05959002552095689,0.23608172041512138,0.35526177145703514,0.05959002552095689,0.2665559159807647,7,2,4,6,3,5,nan,nan,nan,nan,nan,nan,nan,nan,nan,nan,nan,nan,0.0,nan,nan,nan,nan,nan,nan,nan,nan,nan,nan,nan,nan,nan,nan,nan,nan,nan,nan,347.8012283689786,531.7799567108705,nan,532.0614358397725,nan,nan,nan,nan
1,144,1,1,1.0,1.0,0.26469375734450296,0,0.0,0.0,0.0,0.2955724968659098,0.059393079809260285,0.23617941705664952,0.3549655766751701,0.059393079809260285,0.26561842198013136,6,0,1,2,8,3,nan,nan,nan,nan,nan,nan,nan,nan,nan,nan,nan,nan,0.0,nan,nan,nan,nan,nan,nan,nan,nan,nan,nan,nan,nan,nan,nan,nan,nan,nan,nan,347.8012283689786,532.7967269722867,nan,533.0614207296312,nan,nan,nan,nan
1,145,1,1,1.0,1.0,0.2395387928627315,0,0.0,0.0,0.0,0.2953580611747889,0.05924201768372298,0.23611604349106594,0.3546000788585119,0.05924201768372298,0.2619038930364089,5,2,8,6,4,1,nan,nan,nan,nan,nan,nan,nan,nan,nan,nan,nan,nan,0.0,nan,nan,nan,nan,nan,nan,nan,nan,nan,nan,nan,nan,nan,nan,nan,nan,nan,nan,347.8012283689786,533.8218577035223,nan,534.061396496385,nan,nan,nan,nan
1,146,1,1,1.0,1.0,0.2783852561515232,0,0.0,0.0,0.0,0.2949731007036713,0.059217838728534665,0.2357552619751366,0.3541909394322059,0.059217838728534665,0.2608726021195859,8,7,3,5,0,4,nan,nan,nan,nan,nan,nan,nan,nan,nan,nan,nan,nan,0.0,nan,nan,nan,nan,nan,nan,nan,nan,nan,nan,nan,nan,nan,nan,nan,nan,nan,nan,347.8012283689786,534.8469890049491,nan,535.1253742611007,nan,nan,nan,nan
1,147,1,1,1.0,1.0,0.3892475092507084,0,0.0,0.0,0.0,0.2948594853300264,0.05903054545881639,0.23582893987121004,0.35389003078884285,0.05903054545881639,0.30239051942165435,0,6,7,8,1,3,nan,nan,nan,nan,nan,nan,nan,nan,nan,nan,nan,nan,0.0,nan,nan,nan,nan,nan,nan,nan,nan,nan,nan,nan,nan,nan,nan,nan,nan,nan,nan,347.8012283689786,535.8721146044372,nan,536.2613621136879,nan,nan,nan,nan
1,148,0,0,0.0,1.0,0.4040916552694398,0,0.0,0.0,0.0,0.2955015807308474,0.05933880963394684,0.2361627710969006,0.35484039036479426,0.05933880963394684,0.3572414735572238,7,1,2,5,3,8,nan,nan,nan,nan,nan,nan,nan,nan,nan,nan,nan,nan,0.0,nan,nan,nan,nan,nan,nan,nan,nan,nan,nan,nan,nan,nan,nan,nan,nan,nan,nan,347.8012283689786,536.8972536034817,nan,537.3013452587511,nan,nan,nan,nan
1,149,1,1,1.0,1.0,0.2992563529587642,0,0.0,0.0,0.0,0.29623529745070276,0.05980333739809988,0.2364319600526029,0.35603863484880266,0.05980333739809988,0.36419850582630414,3,5,4,6,8,1,nan,nan,nan,nan,nan,nan,nan,nan,nan,nan,nan,nan,0.0,nan,nan,nan,nan,nan,nan,nan,nan,nan,nan,nan,nan,nan,nan,nan,nan,nan,nan,347.8012283689786,537.9140538000865,nan,538.2133101530453,nan,nan,nan,nan
1,150,1,1,1.0,1.0,0.2104571872660017,0,0.0,0.0,0.0,0.29625557299102534,0.059602827608907435,0.2366527453821179,0.3558584005999328,0.059602827608907435,0.3046017318314019,2,7,8,1,3,5,nan,nan,nan,nan,nan,nan,nan,nan,nan,nan,nan,nan,0.0,nan,nan,nan,nan,nan,nan,nan,nan,nan,nan,nan,nan,nan,nan,nan,nan,nan,nan,347.8012283689786,538.9308462990703,nan,539.1413034863363,nan,nan,nan,nan
1,151,1,1,1.0,1.0,0.24128558224401786,0,0.0,0.0,0.0,0.29568358375285847,0.05981272713101156,0.23587085662184692,0.35549631088387,0.05981272713101156,0.2503330408229279,8,3,1,7,0,2,nan,nan,nan,nan,nan,nan,nan,nan,nan,nan,nan,nan,0.0,nan,nan,nan,nan,nan,nan,nan,nan,nan,nan,nan,nan,nan,nan,nan,nan,nan,nan,347.8012283689786,539.9559958467071,nan,540.1972814289511,nan,nan,nan,nan
1,152,1,1,1.0,1.0,0.24011753979721107,0,1.0,0.0,0.0,0.29532333208723704,0.05977739581560559,0.23554593627163145,0.35510072790284264,0.05977739581560559,0.2306201031024102,3,2,4,6,7,5,nan,nan,nan,nan,nan,nan,nan,nan,nan,nan,nan,nan,0.0,nan,nan,nan,nan,nan,nan,nan,nan,nan,nan,nan,nan,nan,nan,nan,nan,nan,nan,347.8012283689786,540.9811245822602,nan,541.2212421220574,nan,nan,nan,nan
1,153,0,0,1.0,0.0,0.23896346709807403,0,0.0,0.0,0.0,0.29496013608532895,0.05974735865138176,0.2352127774339472,0.3547074947367107,0.05974735865138176,0.24012219637976764,0,5,3,4,6,2,nan,nan,nan,nan,nan,nan,nan,nan,nan,nan,nan,nan,0.0,nan,nan,nan,nan,nan,nan,nan,nan,nan,nan,nan,nan,nan,nan,nan,nan,nan,nan,347.8012283689786,542.006262440922,nan,542.2452259080201,nan,nan,nan,nan
1,154,1,1,1.0,1.0,0.18213764597385307,0,0.0,0.0,0.0,0.29459414478475865,0.059722487649406,0.23487165713535266,0.35431663243416467,0.059722487649406,0.22040621762304605,2,6,8,0,7,1,nan,nan,nan,nan,nan,nan,nan,nan,nan,nan,nan,nan,0.0,nan,nan,nan,nan,nan,nan,nan,nan,nan,nan,nan,nan,nan,nan,nan,nan,nan,nan,347.8012283689786,543.0230746115994,nan,543.2052122575733,nan,nan,nan,nan
1,155,1,1,1.0,1.0,0.26932943472638726,0,0.0,0.0,0.0,0.29386390777949306,0.06020964459114735,0.2336542631883457,0.3540735523706404,0.06020964459114735,0.23014351593277146,5,0,1,3,2,6,nan,nan,nan,nan,nan,nan,nan,nan,nan,nan,nan,nan,0.0,nan,nan,nan,nan,nan,nan,nan,nan,nan,nan,nan,nan,nan,nan,nan,nan,nan,nan,347.8012283689786,544.0398554216044,nan,544.3091848563308,nan,nan,nan,nan
1,156,1,1,0.0,0.0,0.39653858018209576,0,0.0,0.0,0.0,0.29370562085656976,0.06004724254944599,0.23365837830712377,0.35375286340601575,0.06004724254944599,0.28266855362744536,3,4,0,1,5,2,nan,nan,nan,nan,nan,nan,nan,nan,nan,nan,nan,nan,0.0,nan,nan,nan,nan,nan,nan,nan,nan,nan,nan,nan,nan,nan,nan,nan,nan,nan,nan,347.8012283689786,545.0566234022444,nan,545.4531619824265,nan,nan,nan,nan
1,157,1,1,1.0,1.0,0.3316727382807585,0,0.0,0.0,0.0,0.2943648064932719,0.060414481244557255,0.23395032524871465,0.3547792877378292,0.060414481244557255,0.3325135843964138,5,7,6,8,2,0,nan,nan,nan,nan,nan,nan,nan,nan,nan,nan,nan,nan,0.0,nan,nan,nan,nan,nan,nan,nan,nan,nan,nan,nan,nan,nan,nan,nan,nan,nan,nan,347.8012283689786,546.0734623720418,nan,546.4051351103226,nan,nan,nan,nan
1,158,1,1,1.0,1.0,0.3785395506529312,0,0.0,1.0,0.0,0.29460243663204566,0.060294864901443916,0.23430757173060174,0.3548973015334896,0.060294864901443916,0.3689169563719285,4,1,7,0,8,2,nan,nan,nan,nan,nan,nan,nan,nan,nan,nan,nan,nan,0.0,nan,nan,nan,nan,nan,nan,nan,nan,nan,nan,nan,nan,nan,nan,nan,nan,nan,nan,347.8012283689786,547.0985854056562,nan,547.4771249563091,nan,nan,nan,nan
1,159,1,1,1.0,1.0,0.3614314492770063,1,0.0,0.0,1.0,0.2951336841891399,0.06047123769073873,0.23466244649840115,0.3556049218798786,0.06047123769073873,0.3572145794035653,6,5,4,3,0,7,1.0,1.0,1.0,1.0,1.0,1.0,1.0,1.0,1.0,1.0,0.0,0.0,4.0,6.0,5.0,4.0,3.0,2.0,1.0,1.0,4.0,3.0,2.0,6.0,5.0,1.2069311074483267,3.8847885920149565,3.052570178053429,2.2447258478641743,5.23668639727839,4.548965696558298,347.8012283689786,548.1236850613168,548.9321357928457,548.4851165105938,555.2162400950183,556.2163487169782,549.9406065952062,555.2079486186776
1,160,1,1,1.0,1.0,0.4837873883334396,0,0.0,0.0,0.0,0.2955506512651642,0.060508199067619575,0.23504245219754466,0.3560588503327838,0.060508199067619575,0.40791946275445906,3,0,1,6,7,8,nan,nan,nan,nan,nan,nan,nan,nan,nan,nan,nan,nan,0.0,nan,nan,nan,nan,nan,nan,nan,nan,nan,nan,nan,nan,nan,nan,nan,nan,nan,nan,347.8012283689786,556.4331572954325,nan,556.9169446837659,nan,nan,nan,nan
1,161,1,1,1.0,1.0,0.31466955260839313,0,0.0,0.0,0.0,0.29672713087184094,0.062116277810771184,0.23461085306106977,0.3588434086826121,0.062116277810771184,0.3866294634062797,8,4,5,7,0,2,nan,nan,nan,nan,nan,nan,nan,nan,nan,nan,nan,nan,0.0,nan,nan,nan,nan,nan,nan,nan,nan,nan,nan,nan,nan,nan,nan,nan,nan,nan,nan,347.8012283689786,557.4582409856594,nan,557.7729105382678,nan,nan,nan,nan
1,162,1,1,1.0,1.0,0.26582758815493435,0,0.0,0.0,0.0,0.2968385744851114,0.06193911285882439,0.23489946162628703,0.3587776873439358,0.06193911285882439,0.35476150969892234,0,1,4,3,2,6,nan,nan,nan,nan,nan,nan,nan,nan,nan,nan,nan,nan,0.0,nan,nan,nan,nan,nan,nan,nan,nan,nan,nan,nan,nan,nan,nan,nan,nan,nan,nan,347.8012283689786,558.475073113128,nan,558.740900701283,nan,nan,nan,nan
1,163,1,1,1.0,1.0,0.2726704865854117,0,0.0,0.0,0.0,0.2966471486435671,0.06179540071127507,0.23485174793229205,0.3584425493548422,0.06179540071127507,0.2843892091162464,5,3,8,1,4,2,nan,nan,nan,nan,nan,nan,nan,nan,nan,nan,nan,nan,0.0,nan,nan,nan,nan,nan,nan,nan,nan,nan,nan,nan,nan,nan,nan,nan,nan,nan,nan,347.8012283689786,559.5001992828111,nan,559.7728697693965,nan,nan,nan,nan
1,164,1,1,1.0,1.0,0.31151666477671824,0,0.0,0.0,0.0,0.29650005255732076,0.06163399510125974,0.234866057456061,0.3581340476585805,0.06163399510125974,0.2833382465056881,4,2,0,6,8,3,nan,nan,nan,nan,nan,nan,nan,nan,nan,nan,nan,nan,0.0,nan,nan,nan,nan,nan,nan,nan,nan,nan,nan,nan,nan,nan,nan,nan,nan,nan,nan,347.8012283689786,560.5253436987005,nan,560.8368603634772,nan,nan,nan,nan
1,165,1,1,1.0,1.0,0.31835215068713296,0,0.0,0.0,0.0,0.29659161726597566,0.06145691868262959,0.23513469858334607,0.35804853594860525,0.06145691868262959,0.30084643401642097,3,1,5,8,2,6,nan,nan,nan,nan,nan,nan,nan,nan,nan,nan,nan,nan,0.0,nan,nan,nan,nan,nan,nan,nan,nan,nan,nan,nan,nan,nan,nan,nan,nan,nan,nan,347.8012283689786,561.5504667323148,nan,561.868818883002,nan,nan,nan,nan
1,166,0,0,0.0,1.0,0.4291801921426668,0,0.0,0.0,0.0,0.29672349928670994,0.06129367553719093,0.235429823749519,0.3580171748239009,0.06129367553719093,0.35301633586883935,6,8,2,1,7,5,nan,nan,nan,nan,nan,nan,nan,nan,nan,nan,nan,nan,0.0,nan,nan,nan,nan,nan,nan,nan,nan,nan,nan,nan,nan,nan,nan,nan,nan,nan,nan,347.8012283689786,562.5756336708691,nan,563.0048138630118,nan,nan,nan,nan
1,167,1,1,1.0,1.0,0.2600649222913489,0,0.0,0.0,0.0,0.29752143117138435,0.06196238672053302,0.23555904445085132,0.35948381789191736,0.06196238672053302,0.3358657550403829,8,7,3,0,1,2,nan,nan,nan,nan,nan,nan,nan,nan,nan,nan,nan,nan,0.0,nan,nan,nan,nan,nan,nan,nan,nan,nan,nan,nan,nan,nan,nan,nan,nan,nan,nan,347.8012283689786,563.600735037111,nan,563.8607999594024,nan,nan,nan,nan
1,168,1,1,1.0,1.0,0.2829088904072705,0,0.0,0.0,0.0,0.29729714069904883,0.06184414407069808,0.23545299662835076,0.35914128476974694,0.06184414407069808,0.3240513349470954,3,6,0,7,2,8,nan,nan,nan,nan,nan,nan,nan,nan,nan,nan,nan,nan,0.0,nan,nan,nan,nan,nan,nan,nan,nan,nan,nan,nan,nan,nan,nan,nan,nan,nan,nan,347.8012283689786,564.6258654832491,nan,564.9087743736563,nan,nan,nan,nan
1,169,1,1,1.0,1.0,0.2977342200210842,0,0.0,0.0,0.0,0.29721149635207395,0.06166974163017088,0.23554175472190306,0.3588812379822448,0.06166974163017088,0.28023601090656786,4,0,3,5,6,1,nan,nan,nan,nan,nan,nan,nan,nan,nan,nan,nan,nan,0.0,nan,nan,nan,nan,nan,nan,nan,nan,nan,nan,nan,nan,nan,nan,nan,nan,nan,nan,347.8012283689786,565.6510041971997,nan,565.9487384172207,nan,nan,nan,nan
1,170,1,1,1.0,1.0,0.17658851777378004,0,0.0,0.0,0.0,0.29721458939153556,0.06148702913787939,0.23572756025365615,0.35870161852941496,0.06148702913787939,0.2524105427340449,5,7,1,2,0,6,nan,nan,nan,nan,nan,nan,nan,nan,nan,nan,nan,nan,0.0,nan,nan,nan,nan,nan,nan,nan,nan,nan,nan,nan,nan,nan,nan,nan,nan,nan,nan,347.8012283689786,566.6761440515365,nan,566.8527325693103,nan,nan,nan,nan
1,171,1,1,1.0,1.0,0.30341392265836475,0,0.0,0.0,0.0,0.2965050242643723,0.061996001304747146,0.23450902295962517,0.35850102556911945,0.061996001304747146,0.25924555348440964,2,8,5,3,4,1,nan,nan,nan,nan,nan,nan,nan,nan,nan,nan,nan,nan,0.0,nan,nan,nan,nan,nan,nan,nan,nan,nan,nan,nan,nan,nan,nan,nan,nan,nan,nan,347.8012283689786,567.7012816250972,nan,568.0046955477555,nan,nan,nan,nan
1,172,1,1,1.0,1.0,0.31826120474215713,0,0.0,0.0,0.0,0.29654542717895704,0.06181670528583519,0.23472872189312186,0.3583621324647922,0.06181670528583519,0.26608788172476733,1,7,4,2,3,5,nan,nan,nan,nan,nan,nan,nan,nan,nan,nan,nan,nan,0.0,nan,nan,nan,nan,nan,nan,nan,nan,nan,nan,nan,nan,nan,nan,nan,nan,nan,nan,347.8012283689786,568.7264331684128,nan,569.0446943731549,nan,nan,nan,nan
1,173,1,1,1.0,1.0,0.3091255561521393,0,0.0,0.0,0.0,0.29667168169967334,0.06165885124976393,0.2350128304499094,0.3583305329494373,0.06165885124976393,0.31026689451755374,8,0,3,1,5,6,nan,nan,nan,nan,nan,nan,nan,nan,nan,nan,nan,nan,0.0,nan,nan,nan,nan,nan,nan,nan,nan,nan,nan,nan,nan,nan,nan,nan,nan,nan,nan,347.8012283689786,569.7515396664021,nan,570.0606652225542,nan,nan,nan,nan
1,174,1,1,1.0,1.0,0.3799767246819101,0,0.0,0.0,0.0,0.2967436694132714,0.06148763679025471,0.2352560326230167,0.3582313062035261,0.06148763679025471,0.3357878285254022,3,1,5,4,0,7,nan,nan,nan,nan,nan,nan,nan,nan,nan,nan,nan,nan,0.0,nan,nan,nan,nan,nan,nan,nan,nan,nan,nan,nan,nan,nan,nan,nan,nan,nan,nan,347.8012283689786,570.7766669764715,nan,571.1566437011534,nan,nan,nan,nan
1,175,1,1,1.0,1.0,0.33081687705998775,0,0.0,0.0,0.0,0.2972220203056199,0.06163267748849709,0.2355893428171228,0.358854697794117,0.06163267748849709,0.33997305263134575,0,4,2,8,6,3,nan,nan,nan,nan,nan,nan,nan,nan,nan,nan,nan,nan,0.0,nan,nan,nan,nan,nan,nan,nan,nan,nan,nan,nan,nan,nan,nan,nan,nan,nan,nan,347.8012283689786,571.8017959971221,nan,572.1326128741821,nan,nan,nan,nan
1,176,1,1,1.0,1.0,0.2819885972603515,0,0.0,0.0,0.0,0.29741399091564485,0.061508479868853036,0.2359055110467918,0.3589224707844979,0.061508479868853036,0.33092739966741647,7,1,4,2,8,0,nan,nan,nan,nan,nan,nan,nan,nan,nan,nan,nan,nan,0.0,nan,nan,nan,nan,nan,nan,nan,nan,nan,nan,nan,nan,nan,nan,nan,nan,nan,nan,347.8012283689786,572.818617005807,nan,573.1006056030674,nan,nan,nan,nan
1,177,1,1,1.0,1.0,0.2491593914674013,0,0.0,0.0,0.0,0.2973263466335125,0.061344448634833314,0.23598189799867916,0.3586707952683458,0.061344448634833314,0.2873216219292469,3,0,1,8,5,4,nan,nan,nan,nan,nan,nan,nan,nan,nan,nan,nan,nan,0.0,nan,nan,nan,nan,nan,nan,nan,nan,nan,nan,nan,nan,nan,nan,nan,nan,nan,nan,347.8012283689786,573.8354126408594,nan,574.0845720323268,nan,nan,nan,nan
1,178,1,1,1.0,1.0,0.248073742051929,0,0.0,0.0,0.0,0.29705421694330847,0.061277355495955144,0.23577686144735333,0.3583315724392636,0.061277355495955144,0.2597405769265606,8,3,4,5,6,7,nan,nan,nan,nan,nan,nan,nan,nan,nan,nan,nan,nan,0.0,nan,nan,nan,nan,nan,nan,nan,nan,nan,nan,nan,nan,nan,nan,nan,nan,nan,nan,347.8012283689786,574.8605051690938,nan,575.1085789111457,nan,nan,nan,nan
1,179,1,1,1.0,1.0,0.27084786140403594,0,0.0,0.0,0.0,0.2967790457360535,0.061214553577185096,0.23556449215886843,0.3579935993132386,0.061214553577185096,0.25602699830778874,4,6,8,2,1,3,nan,nan,nan,nan,nan,nan,nan,nan,nan,nan,nan,nan,0.0,nan,nan,nan,nan,nan,nan,nan,nan,nan,nan,nan,nan,nan,nan,nan,nan,nan,nan,347.8012283689786,575.8856752437132,nan,576.1565231051172,nan,nan,nan,nan
1,180,1,1,1.0,1.0,0.2377098955475958,0,0.0,0.0,0.0,0.296634178784478,0.06107391387599274,0.23556026490848528,0.35770809266047077,0.06107391387599274,0.2522104996678536,5,8,6,0,3,2,nan,nan,nan,nan,nan,nan,nan,nan,nan,nan,nan,nan,0.0,nan,nan,nan,nan,nan,nan,nan,nan,nan,nan,nan,nan,nan,nan,nan,nan,nan,nan,347.8012283689786,576.91081253218,nan,577.1485224277276,nan,nan,nan,nan
1,181,1,1,1.0,1.0,0.22854231609380804,0,0.0,0.0,0.0,0.29630682165538424,0.061061303031300064,0.2352455186240842,0.35736812468668433,0.061061303031300064,0.24570002434847993,0,4,3,1,7,8,nan,nan,nan,nan,nan,nan,nan,nan,nan,nan,nan,nan,0.0,nan,nan,nan,nan,nan,nan,nan,nan,nan,nan,nan,nan,nan,nan,nan,nan,nan,nan,347.8012283689786,577.9359449739968,nan,578.1644872900906,nan,nan,nan,nan
1,182,0,0,1.0,0.0,0.20341643151186872,0,0.0,0.0,0.0,0.29593243212189485,0.06109921055049785,0.234833221571397,0.3570316426723927,0.06109921055049785,0.22322288105109087,3,7,0,2,8,4,nan,nan,nan,nan,nan,nan,nan,nan,nan,nan,nan,nan,0.0,nan,nan,nan,nan,nan,nan,nan,nan,nan,nan,nan,nan,nan,nan,nan,nan,nan,nan,347.8012283689786,578.9610429190725,nan,579.1644593505844,nan,nan,nan,nan
1,183,1,1,1.0,1.0,0.1302325992473925,0,0.0,0.0,0.0,0.2954241024482134,0.061313719071963944,0.23411038337624943,0.3567378215201773,0.061313719071963944,0.18739711561768976,2,8,6,4,7,3,nan,nan,nan,nan,nan,nan,nan,nan,nan,nan,nan,nan,0.0,nan,nan,nan,nan,nan,nan,nan,nan,nan,nan,nan,nan,nan,nan,nan,nan,nan,nan,347.8012283689786,579.9862072917531,nan,580.1164398910005,nan,nan,nan,nan
1,184,1,1,1.0,1.0,0.2170868331377278,0,0.0,0.0,0.0,0.29452141663837283,0.06234685487990875,0.23217456175846407,0.3568682715182816,0.06234685487990875,0.18357862129899635,3,4,1,0,2,8,nan,nan,nan,nan,nan,nan,nan,nan,nan,nan,nan,nan,0.0,nan,nan,nan,nan,nan,nan,nan,nan,nan,nan,nan,nan,nan,nan,nan,nan,nan,nan,347.8012283689786,581.0113377378912,nan,581.2284245710289,nan,nan,nan,nan
1,185,1,1,1.0,1.0,0.28793629108258756,0,1.0,0.0,0.0,0.29410057651065197,0.06243728916912263,0.23166328734152933,0.3565378656797746,0.06243728916912263,0.21175190782256928,8,3,5,4,0,7,nan,nan,nan,nan,nan,nan,nan,nan,nan,nan,nan,nan,0.0,nan,nan,nan,nan,nan,nan,nan,nan,nan,nan,nan,nan,nan,nan,nan,nan,nan,nan,347.8012283689786,582.0364656181555,nan,582.3244019092381,nan,nan,nan,nan
1,186,1,1,1.0,1.0,0.23911399832286406,1,0.0,0.0,1.0,0.2940672560488786,0.062269951432717796,0.23179730461616083,0.3563372074815964,0.062269951432717796,0.24804570751439314,4,2,8,0,6,1,1.0,1.0,1.0,1.0,1.0,1.0,1.0,1.0,0.0,1.0,0.0,0.0,3.0,4.0,2.0,5.0,0.0,1.0,6.0,1.0,3.0,4.0,2.0,5.0,6.0,1.2753059233473323,3.137974978748389,4.170545316454081,2.401583941969875,4.83369607176428,5.7137588957411936,347.8012283689786,583.0532812099955,583.8616877514905,583.2923952083183,590.637590667975,591.64321962334,584.8868304567986,590.6292359000981
1,187,1,1,1.0,1.0,0.2534808919408533,0,0.0,0.0,0.0,0.29377180842669576,0.06223221308437424,0.23153959534232152,0.35600402151107,0.06223221308437424,0.2601770604487683,2,1,7,8,3,5,nan,nan,nan,nan,nan,nan,nan,nan,nan,nan,nan,nan,0.0,nan,nan,nan,nan,nan,nan,nan,nan,nan,nan,nan,nan,nan,nan,nan,nan,nan,nan,347.8012283689786,591.8627235089298,nan,592.1162044008706,nan,nan,nan,nan
1,188,1,1,1.0,1.0,0.29255001599449315,0,0.0,0.0,0.0,0.2935563489802474,0.06213511537133883,0.23142123360890857,0.3556914643515862,0.06213511537133883,0.26171496875273687,8,7,0,5,1,2,nan,nan,nan,nan,nan,nan,nan,nan,nan,nan,nan,nan,0.0,nan,nan,nan,nan,nan,nan,nan,nan,nan,nan,nan,nan,nan,nan,nan,nan,nan,nan,347.8012283689786,592.8796377443359,nan,593.1721877603304,nan,nan,nan,nan
1,189,1,1,1.0,1.0,0.2915065609377052,0,0.0,0.0,0.0,0.2935509961452168,0.06196968529873401,0.23158131084648279,0.3555206814439508,0.06196968529873401,0.27917915629101725,1,2,3,4,6,8,nan,nan,nan,nan,nan,nan,nan,nan,nan,nan,nan,nan,0.0,nan,nan,nan,nan,nan,nan,nan,nan,nan,nan,nan,nan,nan,nan,nan,nan,nan,nan,347.8012283689786,593.9046504454054,nan,594.1961570063431,nan,nan,nan,nan
1,190,1,1,1.0,1.0,0.3223289688794466,0,0.0,0.0,0.0,0.29354017902771673,0.06180570486386638,0.23173447416385035,0.3553458838915831,0.06180570486386638,0.30212851527054835,4,1,2,6,8,3,nan,nan,nan,nan,nan,nan,nan,nan,nan,nan,nan,nan,0.0,nan,nan,nan,nan,nan,nan,nan,nan,nan,nan,nan,nan,nan,nan,nan,nan,nan,nan,347.8012283689786,594.9298151031835,nan,595.252144072063,nan,nan,nan,nan
1,191,1,1,1.0,1.0,0.28119346169842174,0,0.0,0.0,0.0,0.2936916989743048,0.061678029287847325,0.23201366968645748,0.35536972826215213,0.061678029287847325,0.29834299717185786,2,8,1,0,5,4,nan,nan,nan,nan,nan,nan,nan,nan,nan,nan,nan,nan,0.0,nan,nan,nan,nan,nan,nan,nan,nan,nan,nan,nan,nan,nan,nan,nan,nan,nan,nan,347.8012283689786,595.9549133333603,nan,596.2361067950587,nan,nan,nan,nan
1,192,1,1,1.0,1.0,0.24000464137861854,0,0.0,0.0,0.0,0.2936262631770489,0.06152296870288418,0.2321032944741647,0.3551492318799331,0.06152296870288418,0.2811756906521623,7,5,0,2,3,6,nan,nan,nan,nan,nan,nan,nan,nan,nan,nan,nan,nan,0.0,nan,nan,nan,nan,nan,nan,nan,nan,nan,nan,nan,nan,nan,nan,nan,nan,nan,nan,347.8012283689786,596.9800856887559,nan,597.2200903301346,nan,nan,nan,nan
1,193,1,1,1.0,1.0,0.27084814649788314,0,0.0,0.0,0.0,0.2933469838968487,0.06148381212332029,0.23186317177352841,0.354830796020169,0.06148381212332029,0.26401541652497446,1,2,6,0,4,8,nan,nan,nan,nan,nan,nan,nan,nan,nan,nan,nan,nan,0.0,nan,nan,nan,nan,nan,nan,nan,nan,nan,nan,nan,nan,nan,nan,nan,nan,nan,nan,347.8012283689786,598.0052409383352,nan,598.2760890848331,nan,nan,nan,nan
1,194,1,1,1.0,1.0,0.30171075311591267,0,0.0,0.0,0.0,0.2932304096098074,0.061345590832509185,0.23188481877729822,0.3545760004423166,0.061345590832509185,0.2708545136641381,2,3,8,5,7,4,nan,nan,nan,nan,nan,nan,nan,nan,nan,nan,nan,nan,0.0,nan,nan,nan,nan,nan,nan,nan,nan,nan,nan,nan,nan,nan,nan,nan,nan,nan,nan,347.8012283689786,599.0303576998158,nan,599.3320684529317,nan,nan,nan,nan
1,195,1,1,1.0,1.0,0.3565562904077524,0,0.0,0.0,0.0,0.2932741227206636,0.06119029291992912,0.2320838298007345,0.3544644156405927,0.06119029291992912,0.30970506334051606,8,0,4,3,1,6,nan,nan,nan,nan,nan,nan,nan,nan,nan,nan,nan,nan,0.0,nan,nan,nan,nan,nan,nan,nan,nan,nan,nan,nan,nan,nan,nan,nan,nan,nan,nan,347.8012283689786,600.0554758867802,nan,600.4120321771879,nan,nan,nan,nan
1,196,1,1,1.0,1.0,0.3473915619251784,0,0.0,0.0,0.0,0.2935986466575205,0.06120034246630222,0.2323983041912183,0.35479898912382274,0.06120034246630222,0.3352195351496145,7,5,0,1,4,3,nan,nan,nan,nan,nan,nan,nan,nan,nan,nan,nan,nan,0.0,nan,nan,nan,nan,nan,nan,nan,nan,nan,nan,nan,nan,nan,nan,nan,nan,nan,nan,347.8012283689786,601.0806214430595,nan,601.4280130049847,nan,nan,nan,nan
1,197,1,1,1.0,1.0,0.28219785846522427,0,0.0,0.0,0.0,0.29387310030684527,0.0611642105603241,0.23270888974652115,0.3550373108671694,0.0611642105603241,0.32871523693271837,6,2,8,0,3,1,nan,nan,nan,nan,nan,nan,nan,nan,nan,nan,nan,nan,0.0,nan,nan,nan,nan,nan,nan,nan,nan,nan,nan,nan,nan,nan,nan,nan,nan,nan,nan,347.8012283689786,602.1057923729713,nan,602.3879902314366,nan,nan,nan,nan
1,198,1,1,1.0,1.0,0.28110622201347724,0,0.0,0.0,0.0,0.293813835119832,0.061014415681010015,0.232799419438822,0.354828250800842,0.061014415681010015,0.3035652141346266,7,1,6,8,5,3,nan,nan,nan,nan,nan,nan,nan,nan,nan,nan,nan,nan,0.0,nan,nan,nan,nan,nan,nan,nan,nan,nan,nan,nan,nan,nan,nan,nan,nan,nan,nan,347.8012283689786,603.1308583871833,nan,603.4119646091967,nan,nan,nan,nan
1,199,0,0,1.0,0.0,0.2639268463899498,0,0.0,0.0,0.0,0.2937496552556585,0.06086681001984134,0.23288284523581715,0.35461646527549984,0.06086681001984134,0.27574364228955045,1,6,8,7,4,2,nan,nan,nan,nan,nan,nan,nan,nan,nan,nan,nan,nan,0.0,nan,nan,nan,nan,nan,nan,nan,nan,nan,nan,nan,nan,nan,nan,nan,nan,nan,nan,347.8012283689786,604.1560136367589,nan,604.4199404831488,nan,nan,nan,nan
1,200,1,1,1.0,1.0,0.19876735456637107,0,0.0,0.0,0.0,0.29359979189452423,0.060750296475756665,0.23284949541876757,0.3543500883702809,0.060750296475756665,0.24793347432326604,6,7,2,4,3,1,nan,nan,nan,nan,nan,nan,nan,nan,nan,nan,nan,nan,0.0,nan,nan,nan,nan,nan,nan,nan,nan,nan,nan,nan,nan,nan,nan,nan,nan,nan,nan,347.8012283689786,605.1811569122619,nan,605.3799242668283,nan,nan,nan,nan
1,201,1,1,1.0,1.0,0.24562333325229702,0,0.0,0.0,0.0,0.2931256297078835,0.06096627473736296,0.2321593549705205,0.3540919044452464,0.06096627473736296,0.23610584473620597,8,3,6,2,1,5,nan,nan,nan,nan,nan,nan,nan,nan,nan,nan,nan,nan,0.0,nan,nan,nan,nan,nan,nan,nan,nan,nan,nan,nan,nan,nan,nan,nan,nan,nan,nan,347.8012283689786,606.20629591131,nan,606.4519192445623,nan,nan,nan,nan
1,202,1,1,1.0,1.0,0.23649053563349298,0,1.0,0.0,0.0,0.29288929987477114,0.060906198698865585,0.23198310117590554,0.35379549857363674,0.060906198698865585,0.22696040781738702,2,1,7,6,4,0,nan,nan,nan,nan,nan,nan,nan,nan,nan,nan,nan,nan,0.0,nan,nan,nan,nan,nan,nan,nan,nan,nan,nan,nan,nan,nan,nan,nan,nan,nan,nan,347.8012283689786,607.2314001285231,nan,607.4678906641566,nan,nan,nan,nan
1,203,1,1,1.0,1.0,0.32360192702617496,1,0.0,0.0,1.0,0.2926100980715965,0.060884066385267985,0.2317260316863285,0.3534941644568645,0.060884066385267985,0.268571931970655,6,7,5,3,2,8,1.0,1.0,1.0,1.0,1.0,1.0,0.0,1.0,1.0,0.0,0.0,0.0,2.0,4.0,7.0,5.0,1.0,6.0,7.0,4.0,1.0,2.0,3.0,6.0,5.0,4.0065566610355745,1.3278695441731543,2.6566254549434234,3.327805397344491,5.294301937123237,4.598438295601227,347.8012283689786,608.2482624762742,609.0566376570969,608.5718644033004,615.4157920365542,616.4155631036556,610.0817763710438,615.4074663485735
1,204,1,1,1.0,1.0,0.4187279655634484,0,0.0,0.0,0.0,0.2927627671797471,0.06077266890267191,0.23199009827707517,0.353535436082419,0.06077266890267191,0.3262734760743721,7,4,2,5,3,6,nan,nan,nan,nan,nan,nan,nan,nan,nan,nan,nan,nan,0.0,nan,nan,nan,nan,nan,nan,nan,nan,nan,nan,nan,nan,nan,nan,nan,nan,nan,nan,347.8012283689786,616.6409744843877,nan,617.0597024499511,nan,nan,nan,nan
1,205,1,1,1.0,1.0,0.33754716217299574,0,0.0,0.0,0.0,0.29338024364241233,0.06125856721301043,0.2321216764294019,0.35463881085542276,0.06125856721301043,0.35995901825420634,1,3,7,0,6,2,nan,nan,nan,nan,nan,nan,nan,nan,nan,nan,nan,nan,0.0,nan,nan,nan,nan,nan,nan,nan,nan,nan,nan,nan,nan,nan,nan,nan,nan,nan,nan,347.8012283689786,617.6661231767321,nan,618.0036703389051,nan,nan,nan,nan
1,206,1,1,1.0,1.0,0.2963897025256301,0,0.0,0.0,0.0,0.29359569202548835,0.06118640294624094,0.2324092890792474,0.3547820949717293,0.06118640294624094,0.35088827675402473,4,6,0,8,2,3,nan,nan,nan,nan,nan,nan,nan,nan,nan,nan,nan,nan,0.0,nan,nan,nan,nan,nan,nan,nan,nan,nan,nan,nan,nan,nan,nan,nan,nan,nan,nan,347.8012283689786,618.6912490613176,nan,618.9876387638433,nan,nan,nan,nan
1,207,1,1,1.0,1.0,0.25526217805963825,0,0.0,0.0,0.0,0.293609255183256,0.06103802050936414,0.23257123467389185,0.3546472756926201,0.06103802050936414,0.29639968091942137,2,4,1,5,8,7,nan,nan,nan,nan,nan,nan,nan,nan,nan,nan,nan,nan,0.0,nan,nan,nan,nan,nan,nan,nan,nan,nan,nan,nan,nan,nan,nan,nan,nan,nan,nan,347.8012283689786,619.7163789372607,nan,619.9716411153204,nan,nan,nan,nan
1,208,1,1,1.0,1.0,0.2860888624563813,0,0.0,0.0,0.0,0.2934240036029487,0.06094843087048225,0.23247557273246644,0.3543724344734309,0.06094843087048225,0.27924691434721655,5,3,4,1,6,0,nan,nan,nan,nan,nan,nan,nan,nan,nan,nan,nan,nan,0.0,nan,nan,nan,nan,nan,nan,nan,nan,nan,nan,nan,nan,nan,nan,nan,nan,nan,nan,347.8012283689786,620.7415162257275,nan,621.0276050881839,nan,nan,nan,nan
1,209,1,1,1.0,1.0,0.31723514060286107,0,0.0,0.0,0.0,0.2933887385012825,0.06080386063286061,0.23258487786842189,0.35419259913414314,0.06080386063286061,0.28619539370629354,2,7,1,0,5,8,nan,nan,nan,nan,nan,nan,nan,nan,nan,nan,nan,nan,0.0,nan,nan,nan,nan,nan,nan,nan,nan,nan,nan,nan,nan,nan,nan,nan,nan,nan,nan,347.8012283689786,621.75834863829,nan,622.0755837788929,nan,nan,nan,nan
1,210,1,1,1.0,1.0,0.32443612087809015,0,0.0,0.0,0.0,0.29350283611899336,0.06068053846398991,0.23282229765500345,0.35418337458298327,0.06068053846398991,0.3092533746457775,7,1,2,8,6,4,nan,nan,nan,nan,nan,nan,nan,nan,nan,nan,nan,nan,0.0,nan,nan,nan,nan,nan,nan,nan,nan,nan,nan,nan,nan,nan,nan,nan,nan,nan,nan,347.8012283689786,622.77513115888,nan,623.099567279758,nan,nan,nan,nan
1,211,1,1,1.0,1.0,0.32329202657638234,0,0.0,0.0,0.0,0.2936501374749891,0.06057333261198546,0.2330768048630036,0.3542234700869745,0.06057333261198546,0.32165442935244454,8,3,0,6,1,5,nan,nan,nan,nan,nan,nan,nan,nan,nan,nan,nan,nan,0.0,nan,nan,nan,nan,nan,nan,nan,nan,nan,nan,nan,nan,nan,nan,nan,nan,nan,nan,347.8012283689786,623.8002499160393,nan,624.1235419426157,nan,nan,nan,nan
1,212,0,0,0.0,1.0,0.4664617579401238,0,0.0,0.0,0.0,0.29379062036172554,0.060463905193483186,0.23332671516824235,0.35425452555520875,0.060463905193483186,0.3713966351315321,4,5,2,0,6,1,nan,nan,nan,nan,nan,nan,nan,nan,nan,nan,nan,nan,0.0,nan,nan,nan,nan,nan,nan,nan,nan,nan,nan,nan,nan,nan,nan,nan,nan,nan,nan,347.8012283689786,624.8170752011793,nan,625.2835369591194,nan,nan,nan,nan
1,213,1,1,1.0,1.0,0.21731890210139682,0,0.0,0.0,0.0,0.29460510685973684,0.06147043206365065,0.23313467479608618,0.3560755389233875,0.06147043206365065,0.335690895539301,0,2,8,6,3,4,nan,nan,nan,nan,nan,nan,nan,nan,nan,nan,nan,nan,0.0,nan,nan,nan,nan,nan,nan,nan,nan,nan,nan,nan,nan,nan,nan,nan,nan,nan,nan,347.8012283689786,625.8421771376161,nan,626.0594960397175,nan,nan,nan,nan
1,214,1,1,1.0,1.0,0.23216105244136997,0,0.0,0.0,0.0,0.2942422608280076,0.06155311025153161,0.232689150576476,0.3557953710795392,0.06155311025153161,0.30531390416096355,1,3,4,7,2,5,nan,nan,nan,nan,nan,nan,nan,nan,nan,nan,nan,nan,0.0,nan,nan,nan,nan,nan,nan,nan,nan,nan,nan,nan,nan,nan,nan,nan,nan,nan,nan,347.8012283689786,626.8673138558843,nan,627.0994749083256,nan,nan,nan,nan
1,215,1,1,1.0,1.0,0.27103032348895795,0,0.0,0.0,0.0,0.2939521617233971,0.06155490494286965,0.23239725678052747,0.35550706666626675,0.06155490494286965,0.24017009267724157,6,7,1,3,5,2,nan,nan,nan,nan,nan,nan,nan,nan,nan,nan,nan,nan,0.0,nan,nan,nan,nan,nan,nan,nan,nan,nan,nan,nan,nan,nan,nan,nan,nan,nan,nan,347.8012283689786,627.8924266260074,nan,628.1634569494963,nan,nan,nan,nan
1,216,1,1,1.0,1.0,0.2698659872985445,0,0.0,0.0,0.0,0.2938455485223067,0.06143138808035411,0.2324141604419526,0.3552769366026608,0.06143138808035411,0.2576857877429575,2,1,3,0,6,7,nan,nan,nan,nan,nan,nan,nan,nan,nan,nan,nan,nan,0.0,nan,nan,nan,nan,nan,nan,nan,nan,nan,nan,nan,nan,nan,nan,nan,nan,nan,nan,347.8012283689786,628.917582445778,nan,629.1874484330765,nan,nan,nan,nan
1,217,1,1,1.0,1.0,0.29303895736302366,0,0.0,0.0,0.0,0.29373453203515965,0.061310634278927655,0.23242389775623198,0.3550451663140873,0.061310634278927655,0.27797842271684203,1,7,2,3,0,5,nan,nan,nan,nan,nan,nan,nan,nan,nan,nan,nan,nan,0.0,nan,nan,nan,nan,nan,nan,nan,nan,nan,nan,nan,nan,nan,nan,nan,nan,nan,nan,347.8012283689786,629.9343803616066,nan,630.2274193189696,nan,nan,nan,nan
1,218,1,1,1.0,1.0,0.29223726457348675,0,0.0,0.0,0.0,0.29373132662192397,0.061169220549157695,0.23256210607276628,0.35490054717108166,0.061169220549157695,0.28504740307835164,5,8,7,2,1,4,nan,nan,nan,nan,nan,nan,nan,nan,nan,nan,nan,nan,0.0,nan,nan,nan,nan,nan,nan,nan,nan,nan,nan,nan,nan,nan,nan,nan,nan,nan,nan,347.8012283689786,630.9511560398641,nan,631.2433933044376,nan,nan,nan,nan
1,219,1,1,1.0,1.0,0.33139334321094793,0,0.0,0.0,0.0,0.29372447312628897,0.061028846417617875,0.23269562670867108,0.3547533195439068,0.061028846417617875,0.30555652171581943,2,0,1,5,4,7,nan,nan,nan,nan,nan,nan,nan,nan,nan,nan,nan,nan,0.0,nan,nan,nan,nan,nan,nan,nan,nan,nan,nan,nan,nan,nan,nan,nan,nan,nan,nan,347.8012283689786,631.9679761932603,nan,632.2993695364712,nan,nan,nan,nan
1,220,1,1,1.0,1.0,0.3142450431623729,0,0.0,0.0,0.0,0.2938964770992783,0.06094229043888725,0.23295418666039105,0.35483876753816557,0.06094229043888725,0.3126252169822692,8,1,5,2,6,3,nan,nan,nan,nan,nan,nan,nan,nan,nan,nan,nan,nan,0.0,nan,nan,nan,nan,nan,nan,nan,nan,nan,nan,nan,nan,nan,nan,nan,nan,nan,nan,347.8012283689786,632.9931197538572,nan,633.3073647970195,nan,nan,nan,nan
1,221,1,1,1.0,1.0,0.2810728656622814,0,0.0,0.0,0.0,0.29398897058138324,0.06081903213384348,0.23316993844753975,0.3548080027152267,0.06081903213384348,0.3089037506785341,2,5,8,7,0,6,nan,nan,nan,nan,nan,nan,nan,nan,nan,nan,nan,nan,0.0,nan,nan,nan,nan,nan,nan,nan,nan,nan,nan,nan,nan,nan,nan,nan,nan,nan,nan,347.8012283689786,634.018261318779,nan,634.2993341844412,nan,nan,nan,nan
1,222,1,1,1.0,1.0,0.288266718514933,0,0.0,0.0,0.0,0.2939305266677222,0.06068746798376561,0.23324305868395656,0.3546179946514878,0.06068746798376561,0.29452820911319577,7,1,3,6,8,4,nan,nan,nan,nan,nan,nan,nan,nan,nan,nan,nan,nan,0.0,nan,nan,nan,nan,nan,nan,nan,nan,nan,nan,nan,nan,nan,nan,nan,nan,nan,nan,347.8012283689786,635.0350469754339,nan,635.3233136939489,nan,nan,nan,nan
1,223,0,0,0.0,1.0,0.47142130552674644,0,0.0,0.0,0.0,0.29390501401838526,0.06055181804637195,0.23335319597201332,0.3544568320647572,0.06055181804637195,0.34692029656798695,4,0,2,8,5,7,nan,nan,nan,nan,nan,nan,nan,nan,nan,nan,nan,nan,0.0,nan,nan,nan,nan,nan,nan,nan,nan,nan,nan,nan,nan,nan,nan,nan,nan,nan,nan,347.8012283689786,636.0518679841189,nan,636.5232892896456,nan,nan,nan,nan
1,224,1,1,1.0,1.0,0.3666418822322157,0,0.0,0.0,0.0,0.2947010512000371,0.061569121775664745,0.23313192942437233,0.35627017297570185,0.061569121775664745,0.3754433020912984,7,4,6,3,2,0,nan,nan,nan,nan,nan,nan,nan,nan,nan,nan,nan,nan,0.0,nan,nan,nan,nan,nan,nan,nan,nan,nan,nan,nan,nan,nan,nan,nan,nan,nan,nan,347.8012283689786,637.0686257012676,nan,637.4352675834998,nan,nan,nan,nan
1,225,1,1,1.0,1.0,0.3258045865295571,0,0.0,0.0,0.0,0.29502221562428793,0.06161846658254853,0.2334037490417394,0.3566406822068365,0.06161846658254853,0.38795592476283974,3,0,1,6,8,2,nan,nan,nan,nan,nan,nan,nan,nan,nan,nan,nan,nan,0.0,nan,nan,nan,nan,nan,nan,nan,nan,nan,nan,nan,nan,nan,nan,nan,nan,nan,nan,347.8012283689786,638.0854430036889,nan,638.4112475902184,nan,nan,nan,nan
1,226,1,1,1.0,1.0,0.42863736743674963,0,0.0,1.0,0.0,0.29515902616164463,0.061515471512942045,0.2336435546487026,0.3566744976745867,0.061515471512942045,0.37369461206617416,4,3,2,8,6,5,nan,nan,nan,nan,nan,nan,nan,nan,nan,nan,nan,nan,0.0,nan,nan,nan,nan,nan,nan,nan,nan,nan,nan,nan,nan,nan,nan,nan,nan,nan,nan,347.8012283689786,639.1105820027369,nan,639.5392193701737,nan,nan,nan,nan
1,227,1,1,1.0,1.0,0.4758360327250557,1,0.0,0.0,1.0,0.2957496382911805,0.06201527472562359,0.2337343635655569,0.3577649130168041,0.06201527472562359,0.41009266223045415,0,7,6,1,3,4,1.0,1.0,1.0,1.0,1.0,1.0,0.0,0.0,1.0,1.0,0.0,0.0,2.0,2.0,2.0,6.0,1.0,8.0,5.0,5.0,6.0,2.0,1.0,3.0,4.0,4.799284292468656,5.894619877308287,2.4069831091437663,1.5851063041227462,3.455943673954607,4.118961288961145,347.8012283689786,640.1273773526918,640.9357893110282,640.6032133854169,647.8866901890688,648.8941243787012,641.9526180173307,647.8783662116693
1,228,1,1,1.0,1.0,0.3871098518684448,0,0.0,0.0,0.0,0.29654297042525046,0.06301738634216075,0.2335255840830897,0.3595603567674112,0.06301738634216075,0.43052775067675003,6,4,5,0,1,7,nan,nan,nan,nan,nan,nan,nan,nan,nan,nan,nan,nan,0.0,nan,nan,nan,nan,nan,nan,nan,nan,nan,nan,nan,nan,nan,nan,nan,nan,nan,nan,347.8012283689786,649.111910554806,nan,649.4990204066744,nan,nan,nan,nan
1,229,1,1,1.0,1.0,0.3939806898088136,0,0.0,0.0,0.0,0.296940193589475,0.0631632088645866,0.2337769847248884,0.3601034024540616,0.0631632088645866,0.4189755248007714,7,2,6,5,0,3,nan,nan,nan,nan,nan,nan,nan,nan,nan,nan,nan,nan,0.0,nan,nan,nan,nan,nan,nan,nan,nan,nan,nan,nan,nan,nan,nan,nan,nan,nan,nan,347.8012283689786,650.1370130614341,nan,650.5309937512429,nan,nan,nan,nan
1,230,1,1,1.0,1.0,0.35283349365272443,0,0.0,1.0,0.0,0.29736395121488696,0.06334912185053347,0.23401482936435347,0.36071307306542044,0.06334912185053347,0.3779746784433276,5,4,0,3,6,2,nan,nan,nan,nan,nan,nan,nan,nan,nan,nan,nan,nan,0.0,nan,nan,nan,nan,nan,nan,nan,nan,nan,nan,nan,nan,nan,nan,nan,nan,nan,nan,347.8012283689786,651.1621415118934,nan,651.5149750055461,nan,nan,nan,nan
1,231,1,1,1.0,1.0,0.31169428021166823,1,0.0,0.0,1.0,0.2976051231385297,0.06331652597746108,0.23428859716106865,0.3609216491159908,0.06331652597746108,0.3528361545577354,7,6,3,0,4,1,1.0,1.0,1.0,1.0,1.0,1.0,0.0,0.0,1.0,1.0,0.0,0.0,2.0,6.0,4.0,3.0,0.0,5.0,2.0,3.0,6.0,2.0,1.0,5.0,4.0,3.4116381731219008,5.395250511890481,2.6350695551191166,1.6600631546898512,4.715390505927644,4.068118798782962,347.8012283689786,652.1872725282228,652.9957018774767,652.4989668084345,659.4381539056303,660.4378653874555,654.004166122606,659.4298946452509
1,232,1,1,1.0,1.0,0.25171500106444,0,0.0,0.0,0.0,0.29766611516049135,0.06318609946478036,0.23448001569571097,0.3608522146252717,0.06318609946478036,0.3054142583096109,5,4,0,2,3,7,nan,nan,nan,nan,nan,nan,nan,nan,nan,nan,nan,nan,0.0,nan,nan,nan,nan,nan,nan,nan,nan,nan,nan,nan,nan,nan,nan,nan,nan,nan,nan,347.8012283689786,660.6550748123045,nan,660.906789813369,nan,nan,nan,nan
1,233,1,1,1.0,1.0,0.3145777513709618,0,0.0,0.0,0.0,0.2974680500135256,0.0631215990828448,0.2343464509306808,0.3605896490963704,0.0631215990828448,0.29266234421569,6,3,1,4,0,8,nan,nan,nan,nan,nan,nan,nan,nan,nan,nan,nan,nan,0.0,nan,nan,nan,nan,nan,nan,nan,nan,nan,nan,nan,nan,nan,nan,nan,nan,nan,nan,347.8012283689786,661.6801867271388,nan,661.9947644785098,nan,nan,nan,nan
1,234,1,1,1.0,1.0,0.31344563114544144,0,0.0,0.0,0.0,0.2975414822081927,0.0629959294378644,0.2345455527703283,0.3605374116460571,0.0629959294378644,0.2932461278602811,8,0,6,1,7,5,nan,nan,nan,nan,nan,nan,nan,nan,nan,nan,nan,nan,0.0,nan,nan,nan,nan,nan,nan,nan,nan,nan,nan,nan,nan,nan,nan,nan,nan,nan,nan,347.8012283689786,662.7053094756557,nan,663.0187551068011,nan,nan,nan,nan
1,235,0,0,0.0,1.0,0.36858310777461156,0,0.0,0.0,0.0,0.2976094486566425,0.06286973920838196,0.23473970944826056,0.3604791878650245,0.06286973920838196,0.33220216343033826,2,5,4,7,3,6,nan,nan,nan,nan,nan,nan,nan,nan,nan,nan,nan,nan,0.0,nan,nan,nan,nan,nan,nan,nan,nan,nan,nan,nan,nan,nan,nan,nan,nan,nan,nan,347.8012283689786,663.7221356160844,nan,664.090718723859,nan,nan,nan,nan
1,236,1,1,1.0,1.0,0.32744674530476914,0,0.0,0.0,0.0,0.29791146422735726,0.06290571081340504,0.23500575341395222,0.3608171750407623,0.06290571081340504,0.3364918280749407,7,0,5,4,8,1,nan,nan,nan,nan,nan,nan,nan,nan,nan,nan,nan,nan,0.0,nan,nan,nan,nan,nan,nan,nan,nan,nan,nan,nan,nan,nan,nan,nan,nan,nan,nan,347.8012283689786,664.7472569391175,nan,665.0747036844223,nan,nan,nan,nan
1,237,0,0,1.0,0.0,0.3102990154438885,0,0.0,0.0,0.0,0.29803661372344803,0.0628016052552994,0.23523500846814863,0.36083821897874746,0.0628016052552994,0.33544295617442305,0,2,3,1,7,4,nan,nan,nan,nan,nan,nan,nan,nan,nan,nan,nan,nan,0.0,nan,nan,nan,nan,nan,nan,nan,nan,nan,nan,nan,nan,nan,nan,nan,nan,nan,nan,347.8012283689786,665.7723702794356,nan,666.0826692948795,nan,nan,nan,nan
1,238,1,1,1.0,1.0,0.30913182828589925,0,0.0,0.0,0.0,0.2980883538150954,0.06267401277690988,0.23541434103818554,0.3607623665920053,0.06267401277690988,0.31562586301151896,3,6,8,4,5,2,nan,nan,nan,nan,nan,nan,nan,nan,nan,nan,nan,nan,0.0,nan,nan,nan,nan,nan,nan,nan,nan,nan,nan,nan,nan,nan,nan,nan,nan,nan,nan,347.8012283689786,666.7975263843036,nan,667.1066582125895,nan,nan,nan,nan
1,239,0,0,0.0,1.0,0.44430259284126805,0,0.0,0.0,0.0,0.2981347549683341,0.06254628541188076,0.23558846955645332,0.36068104038021487,0.06254628541188076,0.35457781219035195,7,3,5,8,6,4,nan,nan,nan,nan,nan,nan,nan,nan,nan,nan,nan,nan,0.0,nan,nan,nan,nan,nan,nan,nan,nan,nan,nan,nan,nan,nan,nan,nan,nan,nan,nan,347.8012283689786,667.8143359891073,nan,668.2586385819486,nan,nan,nan,nan
1,240,1,1,1.0,1.0,0.34716120354278246,0,0.0,0.0,0.0,0.2987463358799363,0.06312439217981976,0.23562194370011658,0.36187072805975606,0.06312439217981976,0.3668652082233166,4,8,2,0,7,6,nan,nan,nan,nan,nan,nan,nan,nan,nan,nan,nan,nan,0.0,nan,nan,nan,nan,nan,nan,nan,nan,nan,nan,nan,nan,nan,nan,nan,nan,nan,nan,347.8012283689786,668.839460163108,nan,669.1866213666508,nan,nan,nan,nan
1,241,1,1,1.0,1.0,0.3863332476139476,0,0.0,0.0,0.0,0.2989480644951982,0.06306989763335771,0.23587816686184046,0.36201796212855586,0.06306989763335771,0.3925990146659994,8,6,0,7,5,3,nan,nan,nan,nan,nan,nan,nan,nan,nan,nan,nan,nan,0.0,nan,nan,nan,nan,nan,nan,nan,nan,nan,nan,nan,nan,nan,nan,nan,nan,nan,nan,347.8012283689786,669.8562672020416,nan,670.2426004496556,nan,nan,nan,nan
1,242,1,1,1.0,1.0,0.35316791244622436,0,0.0,0.0,0.0,0.2993106586160229,0.06318908468003274,0.23612157393599015,0.36249974329605567,0.06318908468003274,0.3622207878676515,4,3,5,2,0,1,nan,nan,nan,nan,nan,nan,nan,nan,nan,nan,nan,nan,0.0,nan,nan,nan,nan,nan,nan,nan,nan,nan,nan,nan,nan,nan,nan,nan,nan,nan,nan,347.8012283689786,670.8813947972085,nan,671.2345627096547,nan,nan,nan,nan
1,243,1,1,1.0,1.0,0.39237217247864464,0,0.0,1.0,0.0,0.29953320925168486,0.06315296855061951,0.23638024070106534,0.3626861778023044,0.06315296855061951,0.3772911108462722,5,1,8,3,2,6,nan,nan,nan,nan,nan,nan,nan,nan,nan,nan,nan,nan,0.0,nan,nan,nan,nan,nan,nan,nan,nan,nan,nan,nan,nan,nan,nan,nan,nan,nan,nan,347.8012283689786,671.898188151481,nan,672.2905603239597,nan,nan,nan,nan
1,244,1,1,1.0,1.0,0.5355527375322708,1,0.0,0.0,1.0,0.29991526259829787,0.06330251307759832,0.23661274952069955,0.3632177756758962,0.06330251307759832,0.42703094081904663,6,8,0,4,3,5,1.0,1.0,1.0,1.0,1.0,1.0,1.0,0.0,1.0,1.0,1.0,0.0,4.0,6.0,5.0,0.0,4.0,3.0,8.0,3.0,4.0,2.0,1.0,6.0,5.0,3.403098377286369,4.226975422927353,2.7230422245775117,1.770812794471567,6.082267023000895,5.3862899128689605,347.8012283689786,672.9149803653672,673.7233966001622,673.4505331028995,680.8576584754483,681.8562406880192,674.740205064576,680.8493219537813
1,245,1,1,1.0,1.0,0.2558737111467053,0,0.0,0.0,0.0,0.3008809899545847,0.06494162073780312,0.23593936921678155,0.3658226106923878,0.06494162073780312,0.3945995403858736,2,1,6,3,8,0,nan,nan,nan,nan,nan,nan,nan,nan,nan,nan,nan,nan,0.0,nan,nan,nan,nan,nan,nan,nan,nan,nan,nan,nan,nan,nan,nan,nan,nan,nan,nan,347.8012283689786,682.0744815938524,nan,682.3303553049991,nan,nan,nan,nan
1,246,0,0,0.0,1.0,0.3507579874203657,0,0.0,0.0,0.0,0.300697286775777,0.06487244717337756,0.23582483960239944,0.3655697339491546,0.06487244717337756,0.3807281453664473,3,6,1,5,4,7,nan,nan,nan,nan,nan,nan,nan,nan,nan,nan,nan,nan,0.0,nan,nan,nan,nan,nan,nan,nan,nan,nan,nan,nan,nan,nan,nan,nan,nan,nan,nan,347.8012283689786,683.0996434006593,nan,683.4504013880796,nan,nan,nan,nan
1,247,1,1,1.0,1.0,0.28586420601277496,0,0.0,0.0,0.0,0.30090078555888505,0.0648187690815776,0.23608201647730745,0.3657195546404627,0.0648187690815776,0.29749863485994865,4,0,5,3,7,8,nan,nan,nan,nan,nan,nan,nan,nan,nan,nan,nan,nan,0.0,nan,nan,nan,nan,nan,nan,nan,nan,nan,nan,nan,nan,nan,nan,nan,nan,nan,nan,347.8012283689786,684.1164427419717,nan,684.4023069479845,nan,nan,nan,nan
1,248,1,1,1.0,1.0,0.3326939557737205,0,0.0,0.0,0.0,0.30083990871861743,0.06469447029904594,0.23614543841957147,0.3655343790176634,0.06469447029904594,0.3231053830689537,1,2,8,7,6,3,nan,nan,nan,nan,nan,nan,nan,nan,nan,nan,nan,nan,0.0,nan,nan,nan,nan,nan,nan,nan,nan,nan,nan,nan,nan,nan,nan,nan,nan,nan,nan,347.8012283689786,685.1415825963086,nan,685.4742765520823,nan,nan,nan,nan
1,249,1,1,1.0,1.0,0.3235360696162388,0,0.0,0.0,0.0,0.3009683524567428,0.06459545597276269,0.23637289648398013,0.3655638084295055,0.06459545597276269,0.3140314104675781,2,7,4,0,8,6,nan,nan,nan,nan,nan,nan,nan,nan,nan,nan,nan,nan,0.0,nan,nan,nan,nan,nan,nan,nan,nan,nan,nan,nan,nan,nan,nan,nan,nan,nan,nan,347.8012283689786,686.1667181741941,nan,686.4902542438103,nan,nan,nan,nan
1,250,1,1,1.0,1.0,0.33872803398844553,0,0.0,0.0,0.0,0.3010589858589898,0.06448141426713021,0.2365775715918596,0.36554040012612005,0.06448141426713021,0.33165268645946827,4,2,6,5,1,0,nan,nan,nan,nan,nan,nan,nan,nan,nan,nan,nan,nan,0.0,nan,nan,nan,nan,nan,nan,nan,nan,nan,nan,nan,nan,nan,nan,nan,nan,nan,nan,347.8012283689786,687.1835158049216,nan,687.5222438389101,nan,nan,nan,nan
1,251,1,1,1.0,1.0,0.3058857137293671,0,0.0,0.0,0.0,0.3012096620515076,0.06439623048112857,0.23681343157037904,0.3656058925326362,0.06439623048112857,0.32271660577801714,1,5,3,0,6,8,nan,nan,nan,nan,nan,nan,nan,nan,nan,nan,nan,nan,0.0,nan,nan,nan,nan,nan,nan,nan,nan,nan,nan,nan,nan,nan,nan,nan,nan,nan,nan,347.8012283689786,688.200329115989,nan,688.5062148297184,nan,nan,nan,nan
1,252,1,1,1.0,1.0,0.32911484790747636,0,0.0,0.0,0.0,0.30122829173946725,0.06426849814758152,0.23695979359188574,0.36549678988704876,0.06426849814758152,0.324576198541763,4,3,7,2,0,5,nan,nan,nan,nan,nan,nan,nan,nan,nan,nan,nan,nan,0.0,nan,nan,nan,nan,nan,nan,nan,nan,nan,nan,nan,nan,nan,nan,nan,nan,nan,nan,347.8012283689786,689.2170825566827,nan,689.5461974045902,nan,nan,nan,nan
1,253,1,1,1.0,1.0,0.3202126937721914,0,0.0,0.0,0.0,0.30133895267664185,0.06416481065506972,0.2371741420215721,0.3655037633317116,0.06416481065506972,0.3184044184696783,5,1,0,4,7,3,nan,nan,nan,nan,nan,nan,nan,nan,nan,nan,nan,nan,0.0,nan,nan,nan,nan,nan,nan,nan,nan,nan,nan,nan,nan,nan,nan,nan,nan,nan,nan,347.8012283689786,690.2339688525826,nan,690.5541815463548,nan,nan,nan,nan
1,254,0,0,0.0,1.0,0.3031228386098519,0,0.0,0.0,0.0,0.30141355244381796,0.06404882610024423,0.23736472634357372,0.36546237854406216,0.06404882610024423,0.3174834600965066,0,6,3,1,5,8,nan,nan,nan,nan,nan,nan,nan,nan,nan,nan,nan,nan,0.0,nan,nan,nan,nan,nan,nan,nan,nan,nan,nan,nan,nan,nan,nan,nan,nan,nan,nan,347.8012283689786,691.2590425644121,nan,691.5621654030219,nan,nan,nan,nan
1,255,1,1,1.0,1.0,0.2942956649858388,0,0.0,0.0,0.0,0.30142028191691256,0.0639227110126923,0.23749757090422025,0.36534299292960487,0.0639227110126923,0.305877065789294,5,0,6,8,4,7,nan,nan,nan,nan,nan,nan,nan,nan,nan,nan,nan,nan,0.0,nan,nan,nan,nan,nan,nan,nan,nan,nan,nan,nan,nan,nan,nan,nan,nan,nan,nan,347.8012283689786,692.2758430461145,nan,692.5701387111003,nan,nan,nan,nan
1,256,1,1,1.0,1.0,0.3811270911137399,0,0.0,0.0,0.0,0.3013923422426731,0.06379880319864728,0.2375935390440258,0.36519114544132036,0.06379880319864728,0.32618186490314355,6,3,4,5,8,2,nan,nan,nan,nan,nan,nan,nan,nan,nan,nan,nan,nan,0.0,nan,nan,nan,nan,nan,nan,nan,nan,nan,nan,nan,nan,nan,nan,nan,nan,nan,nan,347.8012283689786,693.3009740624439,nan,693.6821011535576,nan,nan,nan,nan
1,257,1,1,1.0,1.0,0.38829557033386664,0,0.0,0.0,0.0,0.30170380610545067,0.06386802966271916,0.23783577644273152,0.3655718357681698,0.06386802966271916,0.3545727754778151,1,0,2,6,3,8,nan,nan,nan,nan,nan,nan,nan,nan,nan,nan,nan,nan,0.0,nan,nan,nan,nan,nan,nan,nan,nan,nan,nan,nan,nan,nan,nan,nan,nan,nan,nan,347.8012283689786,694.3177882288,nan,694.7060837991339,nan,nan,nan,nan
1,258,1,1,1.0,1.0,0.34747908671124605,0,0.0,1.0,0.0,0.3020407390401916,0.06397120620951653,0.23806953283067506,0.3660119452497081,0.06397120620951653,0.3723005827196175,6,3,1,5,4,7,nan,nan,nan,nan,nan,nan,nan,nan,nan,nan,nan,nan,0.0,nan,nan,nan,nan,nan,nan,nan,nan,nan,nan,nan,nan,nan,nan,nan,nan,nan,nan,347.8012283689786,695.3345847191413,nan,695.6820638058525,nan,nan,nan,nan
1,259,1,1,1.0,1.0,0.41867465242467006,1,0.0,0.0,1.0,0.3022168566668236,0.06390950644088593,0.23830735022593763,0.3661263631077095,0.06390950644088593,0.3848164364899276,1,7,8,6,0,5,1.0,1.0,1.0,1.0,1.0,1.0,0.0,0.0,0.0,1.0,1.0,1.0,3.0,3.0,1.0,4.0,6.0,0.0,5.0,6.0,5.0,4.0,1.0,3.0,2.0,5.349747888711136,4.622371904486499,4.078945072636998,1.6538027094466088,3.1184928745678917,2.4378069425656577,347.8012283689786,696.3513886220062,697.1597903168513,696.7700632744309,703.5606161858705,704.5693971737746,698.1682591235331,703.5522845108499
1,260,0,0,0.0,1.0,0.4240601349447388,0,0.0,0.0,0.0,0.3026665006658886,0.06419359315423487,0.23847290751165376,0.3668600938201235,0.06419359315423487,0.396737958026885,8,3,0,7,4,1,nan,nan,nan,nan,nan,nan,nan,nan,nan,nan,nan,nan,0.0,nan,nan,nan,nan,nan,nan,nan,nan,nan,nan,nan,nan,nan,nan,nan,nan,nan,nan,347.8012283689786,704.7858200159753,nan,705.2098801509201,nan,nan,nan,nan
1,261,1,1,1.0,1.0,0.30291500288876705,0,0.0,0.0,0.0,0.3031333992592688,0.06450913599750686,0.23862426326176195,0.36764253525677565,0.06450913599750686,0.381883263419392,0,2,7,1,5,6,nan,nan,nan,nan,nan,nan,nan,nan,nan,nan,nan,nan,0.0,nan,nan,nan,nan,nan,nan,nan,nan,nan,nan,nan,nan,nan,nan,nan,nan,nan,nan,347.8012283689786,705.8109330711959,nan,706.1138480740847,nan,nan,nan,nan
1,262,1,1,1.0,1.0,0.3261110658131656,0,0.0,0.0,0.0,0.3031325624915657,0.06438543809128315,0.23874712440028256,0.3675180005828489,0.06438543809128315,0.3510287345488905,7,0,2,4,8,1,nan,nan,nan,nan,nan,nan,nan,nan,nan,nan,nan,nan,0.0,nan,nan,nan,nan,nan,nan,nan,nan,nan,nan,nan,nan,nan,nan,nan,nan,nan,nan,347.8012283689786,706.8277398250284,nan,707.1538508908416,nan,nan,nan,nan
1,263,1,1,1.0,1.0,0.31697114076814614,0,0.0,0.0,0.0,0.3032202667027169,0.06427806622195388,0.23894220048076303,0.36749833292467077,0.06427806622195388,0.3153324031566929,3,1,7,5,2,6,nan,nan,nan,nan,nan,nan,nan,nan,nan,nan,nan,nan,0.0,nan,nan,nan,nan,nan,nan,nan,nan,nan,nan,nan,nan,nan,nan,nan,nan,nan,nan,347.8012283689786,707.8528363446239,nan,708.1698074853921,nan,nan,nan,nan
1,264,1,1,1.0,1.0,0.3161204112911946,0,0.0,0.0,0.0,0.3032725513949809,0.06416132988546583,0.23911122150951505,0.36743388128044674,0.06416132988546583,0.3197342059575021,1,7,8,3,5,2,nan,nan,nan,nan,nan,nan,nan,nan,nan,nan,nan,nan,0.0,nan,nan,nan,nan,nan,nan,nan,nan,nan,nan,nan,nan,nan,nan,nan,nan,nan,nan,347.8012283689786,708.8696747442264,nan,709.1857951555176,nan,nan,nan,nan
1,265,1,1,1.0,1.0,0.42728686290138285,0,0.0,0.0,0.0,0.30332121753095137,0.06404456002910286,0.2392766575018485,0.36736577756005423,0.06404456002910286,0.35345947165357455,2,6,3,8,1,0,nan,nan,nan,nan,nan,nan,nan,nan,nan,nan,nan,nan,0.0,nan,nan,nan,nan,nan,nan,nan,nan,nan,nan,nan,nan,nan,nan,nan,nan,nan,nan,347.8012283689786,709.8864817831563,nan,710.3137686460577,nan,nan,nan,nan
1,266,1,1,1.0,1.0,0.33848285056228633,0,0.0,0.0,0.0,0.3037890124191417,0.06437390152754634,0.23941511089159534,0.36816291394668804,0.06437390152754634,0.3606300415849546,0,5,2,3,7,8,nan,nan,nan,nan,nan,nan,nan,nan,nan,nan,nan,nan,0.0,nan,nan,nan,nan,nan,nan,nan,nan,nan,nan,nan,nan,nan,nan,nan,nan,nan,nan,347.8012283689786,710.9032711460713,nan,711.2417539966336,nan,nan,nan,nan
1,267,1,1,1.0,1.0,0.40965190225324477,0,0.0,1.0,0.0,0.30391944038208585,0.06428785490827574,0.2396315854738101,0.36820729529036156,0.06428785490827574,0.39180720523897133,6,1,7,8,5,2,nan,nan,nan,nan,nan,nan,nan,nan,nan,nan,nan,nan,0.0,nan,nan,nan,nan,nan,nan,nan,nan,nan,nan,nan,nan,nan,nan,nan,nan,nan,nan,347.8012283689786,711.9200798955862,nan,712.3297317978395,nan,nan,nan,nan
1,268,1,1,1.0,1.0,0.3604621194463107,1,0.0,0.0,1.0,0.3043154421119404,0.06449156981321495,0.23982387229872543,0.36880701192515536,0.06449156981321495,0.3695322907539473,2,4,5,1,7,8,1.0,1.0,1.0,1.0,1.0,1.0,0.0,1.0,1.0,1.0,0.0,0.0,3.0,8.0,4.0,5.0,1.0,3.0,7.0,6.0,3.0,2.0,1.0,4.0,5.0,7.675522254958196,3.2274803297332255,2.564638334486517,1.7825217286699626,5.924579581696889,6.731928698380216,347.8012283689786,712.9452462639456,713.7536200192844,713.3057083833919,722.4880818045967,723.4918222773667,714.7704307644744,722.4797618185548
1,269,1,1,1.0,1.0,0.25618218611271004,0,0.0,0.0,0.0,0.3045249446393074,0.06446209966423452,0.24006284497507288,0.3689870443035419,0.06446209966423452,0.34209873593742185,4,1,6,7,8,3,nan,nan,nan,nan,nan,nan,nan,nan,nan,nan,nan,nan,0.0,nan,nan,nan,nan,nan,nan,nan,nan,nan,nan,nan,nan,nan,nan,nan,nan,nan,nan,347.8012283689786,723.7133167102766,nan,723.9694988963893,nan,nan,nan,nan
1,270,1,1,1.0,1.0,0.3193616791977547,0,0.0,0.0,0.0,0.30434523178233125,0.06440939658303602,0.23993583519929523,0.36875462836536727,0.06440939658303602,0.31200199491892516,0,3,8,2,6,4,nan,nan,nan,nan,nan,nan,nan,nan,nan,nan,nan,nan,0.0,nan,nan,nan,nan,nan,nan,nan,nan,nan,nan,nan,nan,nan,nan,nan,nan,nan,nan,347.8012283689786,724.7301089241628,nan,725.0494706033605,nan,nan,nan,nan
1,271,1,1,1.0,1.0,0.3425585974146088,0,0.0,0.0,0.0,0.3044008482542402,0.06429648016327934,0.24010436809096086,0.3686973284175195,0.06429648016327934,0.30603415424169117,8,1,0,6,5,3,nan,nan,nan,nan,nan,nan,nan,nan,nan,nan,nan,nan,0.0,nan,nan,nan,nan,nan,nan,nan,nan,nan,nan,nan,nan,nan,nan,nan,nan,nan,nan,347.8012283689786,725.7468885937815,nan,726.0894471911961,nan,nan,nan,nan
1,272,1,1,1.0,1.0,0.349766134921083,0,0.0,0.0,0.0,0.30454165175667697,0.0642194326514688,0.24032221910520818,0.36876108440814576,0.0642194326514688,0.3372288038444822,6,7,3,5,2,4,nan,nan,nan,nan,nan,nan,nan,nan,nan,nan,nan,nan,0.0,nan,nan,nan,nan,nan,nan,nan,nan,nan,nan,nan,nan,nan,nan,nan,nan,nan,nan,347.8012283689786,726.7636679783027,nan,727.1134341132238,nan,nan,nan,nan
1,273,1,1,1.0,1.0,0.3649267386208521,0,0.0,0.0,0.0,0.3047079182388991,0.06415968312173356,0.24054823511716553,0.3688676013606327,0.06415968312173356,0.3524171569855146,0,8,5,6,1,3,nan,nan,nan,nan,nan,nan,nan,nan,nan,nan,nan,nan,0.0,nan,nan,nan,nan,nan,nan,nan,nan,nan,nan,nan,nan,nan,nan,nan,nan,nan,nan,347.8012283689786,727.7804733066514,nan,728.1454000452723,nan,nan,nan,nan
1,274,1,1,1.0,1.0,0.36411592272270354,0,0.0,0.0,0.0,0.30492849999853994,0.06414531026649081,0.24078318973204912,0.3690738102650307,0.06414531026649081,0.35960293208821287,8,6,4,2,3,7,nan,nan,nan,nan,nan,nan,nan,nan,nan,nan,nan,nan,0.0,nan,nan,nan,nan,nan,nan,nan,nan,nan,nan,nan,nan,nan,nan,nan,nan,nan,nan,347.8012283689786,728.7972692268013,nan,729.161385149524,nan,nan,nan,nan
