block,trial,time,setsize,freqtrials,trials_colorind,trials_colordeg,colorrgb0,colorrgb1,colorrgb2,correct_response,actual_response,acc,rts,probe_trials,rt_triggered_fast,rt_triggered_slow,rt_strailingavg,rts_runningavg,rts_runningstd,rts_runningslowthresh,rts_runningfastthresh,wm_respdeg,wm_respind,wm_resprgb0,wm_resprgb1,wm_resprgb2,wm_respcolorminusorigcolor,wm_rts,time_blockstart,time_encarray_onset,time_response,time_encarray_offest,time_memprobe_onset,time_memprobe_offset
0,0,0520,6,1,159,111,1.0,-0.231765974528,0.149055008463,1,1.0,1.0,0.346635332331,0,nan,nan,nan,nan,nan,nan,nan,nan,nan,0.0,0.0,0.0,nan,nan,326.59496466,327.616339584,327.962974916,328.116371514,nan,nan
0,1,0521,6,1,496,348,0.714833717156,0.274923884212,-1.0,1,nan,nan,nan,0,nan,nan,nan,nan,nan,nan,nan,nan,nan,0.0,0.0,0.0,nan,nan,326.59496466,328.633390429,nan,329.133200839,nan,nan
0,2,0522,6,1,125,87,1.0,-0.311567427947,-0.187805059354,1,1.0,1.0,0.209685171954,0,nan,nan,nan,nan,nan,nan,nan,nan,nan,0.0,0.0,0.0,nan,nan,326.59496466,329.633273539,329.842958711,330.133317159,nan,nan
0,3,0523,6,1,246,172,0.589768841079,0.215019897151,0.651339528662,1,1.0,1.0,0.193610216491,0,nan,nan,nan,nan,nan,nan,nan,nan,nan,0.0,0.0,0.0,nan,nan,326.59496466,330.633390714,330.827000931,331.133424641,nan,nan
0,4,0524,6,1,178,125,1.0,-0.139919655122,0.315097826042,1,1.0,1.0,0.273450721055,0,nan,nan,nan,nan,nan,nan,nan,nan,nan,0.0,0.0,0.0,nan,nan,326.59496466,331.633498766,331.906949488,332.133527846,nan,nan
0,5,0525,6,1,348,244,-0.175384772129,0.468017843042,0.157582163916,1,1.0,1.0,0.297221607529,0,nan,nan,nan,nan,nan,nan,nan,nan,nan,0.0,0.0,0.0,nan,nan,326.59496466,332.633641886,332.930863493,333.133692062,nan,nan
0,6,0526,6,1,17,11,0.981069150956,0.135921910835,-1.0,1,1.0,1.0,0.434696633369,0,nan,nan,nan,nan,nan,nan,nan,nan,nan,0.0,0.0,0.0,nan,nan,326.59496466,333.792190487,334.22688712,334.292142591,nan,nan
0,7,0527,6,1,178,125,1.0,-0.139919655122,0.315097826042,1,1.0,1.0,0.415174273774,0,nan,nan,nan,nan,nan,nan,nan,nan,nan,0.0,0.0,0.0,nan,nan,326.59496466,334.891676513,335.306850786,335.392284911,nan,nan
0,8,0528,6,1,135,94,1.0,-0.303502321856,-0.0849788702499,1,1.0,1.0,0.462455467321,0,nan,nan,nan,nan,nan,nan,nan,nan,nan,0.0,0.0,0.0,nan,nan,326.59496466,335.892378423,336.354833891,336.392407788,nan,nan
0,9,0529,6,1,502,352,0.764740937618,0.25241357569,-1.0,1,1.0,1.0,0.44628699962,0,nan,nan,nan,nan,nan,nan,nan,nan,nan,0.0,0.0,0.0,nan,nan,326.59496466,336.892524963,337.338811963,337.392556324,nan,nan
0,10,0530,6,1,340,239,-0.166837174664,0.460980112934,0.232376404312,1,1.0,1.0,0.422085330822,0,nan,nan,nan,nan,nan,nan,nan,nan,nan,0.0,0.0,0.0,nan,nan,326.59496466,337.892704004,338.314789335,338.392668937,nan,nan
0,11,0531,6,0,284,199,0.188465149253,0.353984098999,0.602236276499,0,0.0,1.0,0.42197984457,0,nan,nan,nan,nan,nan,nan,nan,nan,nan,0.0,0.0,0.0,nan,nan,326.59496466,338.892803789,339.314783634,339.392826026,nan,nan
0,12,0532,6,1,33,23,1.0,0.0565990290419,-1.0,1,1.0,1.0,0.389871272258,0,nan,nan,nan,nan,nan,nan,nan,nan,nan,0.0,0.0,0.0,nan,nan,326.59496466,339.892881051,340.282752323,340.392923245,nan,nan
0,13,0533,6,1,299,210,0.0516645560415,0.393417669654,0.534378752182,1,1.0,1.0,0.381705216132,0,nan,nan,nan,nan,nan,nan,nan,nan,nan,0.0,0.0,0.0,nan,nan,326.59496466,340.893035003,341.274740219,341.393072921,nan,nan
0,14,0534,6,1,189,132,1.0,-0.0802194643608,0.400143472992,1,1.0,1.0,0.333527674899,0,nan,nan,nan,nan,nan,nan,nan,nan,nan,0.0,0.0,0.0,nan,nan,326.59496466,341.893199219,342.226726894,342.393175556,nan,nan
0,15,0535,6,1,471,331,0.506014005179,0.354993781952,-1.0,1,1.0,1.0,0.341076210141,0,nan,nan,nan,nan,nan,nan,nan,nan,nan,0.0,0.0,0.0,nan,nan,326.59496466,342.901616733,343.242692943,343.40166577,nan,nan
0,16,0536,6,0,39,27,1.0,0.0253789930673,-1.0,0,1.0,0.0,0.300827524625,0,0.0,0.0,nan,nan,nan,nan,nan,nan,nan,0.0,0.0,0.0,nan,nan,326.59496466,343.901859636,344.202687161,344.401797485,nan,nan
0,17,0537,6,1,495,348,0.706485112283,0.278551693791,-1.0,1,1.0,1.0,0.324834757484,0,nan,nan,nan,nan,nan,nan,nan,nan,nan,0.0,0.0,0.0,nan,nan,326.59496466,344.901838824,345.226673582,345.401895273,nan,nan
0,18,0538,6,1,188,132,1.0,-0.0857393506835,0.392804289229,1,1.0,1.0,0.452674331143,0,nan,nan,nan,nan,nan,nan,nan,nan,nan,0.0,0.0,0.0,nan,nan,326.59496466,345.901967688,346.35464202,346.402000475,nan,nan
0,19,0539,6,1,8,5,0.91102658764,0.177400941622,-1.0,1,1.0,1.0,0.588175624609,0,nan,nan,nan,nan,nan,nan,nan,nan,nan,0.0,0.0,0.0,nan,nan,326.59496466,346.910443932,347.498619556,347.410524899,nan,nan
0,20,0540,6,1,374,262,-0.132039125116,0.478634076427,-0.110628443238,1,1.0,1.0,0.652012448758,0,nan,nan,nan,nan,nan,nan,nan,nan,nan,0.0,0.0,0.0,nan,nan,326.59496466,347.910585625,348.562598074,348.410653193,nan,nan
0,21,0541,6,1,179,125,1.0,-0.13461441766,0.323204131591,1,1.0,1.0,0.547861937433,0,nan,nan,nan,nan,nan,nan,nan,nan,nan,0.0,0.0,0.0,nan,nan,326.59496466,348.910713634,349.458575572,349.410777781,nan,nan
0,22,0542,6,1,404,284,0.0124894593597,0.468746268022,-0.463349101315,1,1.0,1.0,0.635311132297,0,nan,nan,nan,nan,nan,nan,nan,nan,nan,0.0,0.0,0.0,nan,nan,326.59496466,349.911246482,350.546557615,350.410907785,nan,nan
0,23,0543,6,1,486,341,0.631151757674,0.309603058574,-1.0,1,1.0,1.0,0.563590784557,0,nan,nan,nan,nan,nan,nan,nan,nan,nan,0.0,0.0,0.0,nan,nan,326.59496466,350.910964235,351.474555019,351.411030378,nan,nan
0,24,0544,6,1,54,37,1.0,-0.0546292063271,-1.0,1,1.0,1.0,0.691439481452,0,nan,nan,nan,nan,nan,nan,nan,nan,nan,0.0,0.0,0.0,nan,nan,326.59496466,351.91109481,352.602534291,352.411187181,nan,nan
0,25,0545,6,0,419,294,0.107894673663,0.454841969249,-0.678098861371,0,0.0,1.0,0.699257149361,0,nan,nan,nan,nan,nan,nan,nan,nan,nan,0.0,0.0,0.0,nan,nan,326.59496466,352.911253039,353.610510188,353.411286966,nan,nan
0,26,0546,6,1,500,351,0.748145934353,0.260058294274,-1.0,1,1.0,1.0,0.467176687904,0,nan,nan,nan,nan,nan,nan,nan,nan,nan,0.0,0.0,0.0,nan,nan,326.59496466,353.911331441,354.378508129,354.411398439,nan,nan
0,27,0547,6,1,49,34,1.0,-0.027785429985,-1.0,1,1.0,1.0,0.467031287961,0,nan,nan,nan,nan,nan,nan,nan,nan,nan,0.0,0.0,0.0,nan,nan,326.59496466,354.911447476,355.378478764,355.411483399,nan,nan
0,28,0548,6,1,128,90,1.0,-0.310663006781,-0.156689791083,1,1.0,1.0,0.444338926114,0,nan,nan,nan,nan,nan,nan,nan,nan,nan,0.0,0.0,0.0,nan,nan,326.59496466,355.998134891,356.442473817,356.503330228,nan,nan
0,29,0549,6,1,359,252,-0.169222339917,0.474741883077,0.0483828026834,1,nan,nan,nan,0,nan,nan,nan,nan,nan,nan,nan,nan,nan,0.0,0.0,0.0,nan,nan,326.59496466,357.027726334,nan,357.528486975,nan,nan
0,30,0550,6,0,11,7,0.934659501434,0.163852895862,-1.0,0,0.0,1.0,0.589843162335,0,nan,nan,nan,nan,nan,nan,nan,nan,nan,0.0,0.0,0.0,nan,nan,326.59496466,358.028579346,358.618422508,358.528603295,nan,nan
0,31,0551,6,1,217,152,0.891250405156,0.0735373331823,0.568048345461,1,1.0,1.0,0.397749666125,0,nan,nan,nan,nan,nan,nan,nan,nan,nan,0.0,0.0,0.0,nan,nan,326.59496466,359.028663735,359.426413401,359.528695666,nan,nan
0,32,0552,6,1,412,289,0.0618891196837,0.462096609288,-0.571158935758,1,1.0,1.0,0.341628729366,0,nan,nan,nan,nan,nan,nan,nan,nan,nan,0.0,0.0,0.0,nan,nan,326.59496466,360.028789463,360.370418193,360.528841636,nan,nan
0,33,0553,6,1,466,327,0.464789014893,0.368385601135,-1.0,1,1.0,1.0,0.36547459662,0,nan,nan,nan,nan,nan,nan,nan,nan,nan,0.0,0.0,0.0,nan,nan,326.59496466,361.028913481,361.394388078,361.528941135,nan,nan
0,34,0554,6,1,73,51,1.0,-0.1546788618,-0.830916872461,1,1.0,1.0,0.445228432305,0,nan,nan,nan,nan,nan,nan,nan,nan,nan,0.0,0.0,0.0,nan,nan,326.59496466,362.029140133,362.474368566,362.529067718,nan,nan
0,35,0555,6,1,337,236,-0.160643365934,0.457858386897,0.259303564052,1,1.0,1.0,0.437193520367,0,nan,nan,nan,nan,nan,nan,nan,nan,nan,0.0,0.0,0.0,nan,nan,326.59496466,363.029160946,363.466354466,363.529200289,nan,nan
0,36,0556,6,1,186,130,1.0,-0.0967386681424,0.377881386018,1,1.0,1.0,0.445038271137,0,nan,nan,nan,nan,nan,nan,nan,nan,nan,0.0,0.0,0.0,nan,nan,326.59496466,364.029301214,364.474339485,364.529322026,nan,nan
0,37,0557,6,1,362,254,-0.164239727892,0.476000155386,0.0174578511848,1,1.0,1.0,0.428880637512,0,nan,nan,nan,nan,nan,nan,nan,nan,nan,0.0,0.0,0.0,nan,nan,326.59496466,365.029428652,365.45830929,365.52946372,nan,nan
0,38,0558,6,1,471,331,0.506014005179,0.354993781952,-1.0,1,1.0,1.0,0.724712678231,0,nan,nan,nan,nan,nan,nan,nan,nan,nan,0.0,0.0,0.0,nan,nan,326.59496466,366.029560368,366.754273046,366.529627081,nan,nan
0,39,0559,6,1,424,298,0.142174562463,0.448819569244,-0.770229420881,1,1.0,1.0,0.556588497013,0,nan,nan,nan,nan,nan,nan,nan,nan,nan,0.0,0.0,0.0,nan,nan,326.59496466,367.029682104,367.586270601,367.529754519,nan,nan
0,40,0600,6,1,213,149,0.929785093221,0.0521668813814,0.548906519778,1,1.0,1.0,0.475136904046,0,nan,nan,nan,nan,nan,nan,nan,nan,nan,0.0,0.0,0.0,nan,nan,326.59496466,368.119117292,368.594254196,368.621520381,nan,nan
0,41,0601,6,1,148,104,1.0,-0.272695592461,0.0444264621409,1,1.0,1.0,0.42395329196,0,nan,nan,nan,nan,nan,nan,nan,nan,nan,0.0,0.0,0.0,nan,nan,326.59496466,369.242288674,369.666241966,369.746653807,nan,nan
0,42,0602,6,1,373,262,-0.135407706169,0.478559568072,-0.0996974893599,1,1.0,1.0,0.58744776994,0,nan,nan,nan,nan,nan,nan,nan,nan,nan,0.0,0.0,0.0,nan,nan,326.59496466,370.246749314,370.834197084,370.746827717,nan,nan
0,43,0603,6,1,84,59,1.0,-0.20765784414,-0.652191087791,1,nan,nan,nan,0,nan,nan,nan,nan,nan,nan,nan,nan,nan,0.0,0.0,0.0,nan,nan,326.59496466,371.246869626,nan,371.746951164,nan,nan
0,44,0604,6,1,6,4,0.895129075663,0.186272780825,-1.0,1,1.0,1.0,0.779151252471,0,nan,nan,nan,nan,nan,nan,nan,nan,nan,0.0,0.0,0.0,nan,nan,326.59496466,372.247003051,373.026154304,372.747082309,nan,nan
0,45,0605,6,0,238,167,0.675741828754,0.178727669763,0.638511091232,0,0.0,1.0,0.500191015191,0,nan,nan,nan,nan,nan,nan,nan,nan,nan,0.0,0.0,0.0,nan,nan,326.59496466,373.247171259,373.747362275,373.747209177,nan,nan
0,46,0606,6,1,468,329,0.481236483515,0.363131620867,-1.0,1,1.0,1.0,0.32290207874,0,nan,nan,nan,nan,nan,nan,nan,nan,nan,0.0,0.0,0.0,nan,nan,326.59496466,374.247257074,374.570159153,374.747321506,nan,nan
0,47,0607,6,1,335,235,-0.155595990888,0.455627721073,0.276893227044,1,1.0,1.0,0.274733661674,0,nan,nan,nan,nan,nan,nan,nan,nan,nan,0.0,0.0,0.0,nan,nan,326.59496466,375.247391355,375.522125017,375.747421005,nan,nan
0,48,0608,6,0,120,84,1.0,-0.310161497659,-0.240162905937,0,0.0,1.0,0.482592497021,0,nan,nan,nan,nan,nan,nan,nan,nan,nan,0.0,0.0,0.0,nan,nan,326.59496466,376.247558422,376.730150919,376.747574958,nan,nan
0,49,0609,6,1,477,335,0.555879874869,0.337784025865,-1.0,1,1.0,1.0,0.370433017612,0,nan,nan,nan,nan,nan,nan,nan,nan,nan,0.0,0.0,0.0,nan,nan,326.59496466,377.2476679,377.618100918,377.747685291,nan,nan
0,50,0610,6,1,182,127,1.0,-0.118523835432,0.347089474713,1,1.0,1.0,0.346253301948,0,nan,nan,nan,nan,nan,nan,nan,nan,nan,0.0,0.0,0.0,nan,nan,326.59496466,378.247833542,378.594086844,378.747831546,nan,nan
0,51,0611,6,1,16,11,0.973419431522,0.140652110383,-1.0,1,1.0,1.0,0.346126433462,0,nan,nan,nan,nan,nan,nan,nan,nan,nan,0.0,0.0,0.0,nan,nan,326.59496466,379.247920781,379.594047215,379.747933326,nan,nan
0,52,0612,6,1,442,310,0.273907262724,0.421095538958,-1.0,1,1.0,1.0,0.322022837587,0,nan,nan,nan,nan,nan,nan,nan,nan,nan,0.0,0.0,0.0,nan,nan,326.59496466,380.248025983,380.57004882,380.748083288,nan,nan
0,53,0613,6,1,491,345,0.673033477965,0.292707709811,-1.0,1,1.0,1.0,0.321870595217,0,nan,nan,nan,nan,nan,nan,nan,nan,nan,0.0,0.0,0.0,nan,nan,326.59496466,381.2481634,381.570033995,381.748215288,nan,nan
0,54,0614,6,1,397,279,-0.0275613476434,0.473159987783,-0.37569455347,1,1.0,1.0,0.481723804027,0,nan,nan,nan,nan,nan,nan,nan,nan,nan,0.0,0.0,0.0,nan,nan,326.59496466,382.248286562,382.730010366,382.74832448,nan,nan
0,55,0615,6,1,327,229,-0.128086156831,0.445480682368,0.344176439252,1,1.0,1.0,0.353572333232,0,nan,nan,nan,nan,nan,nan,nan,nan,nan,0.0,0.0,0.0,nan,nan,326.59496466,383.248406018,383.601978351,383.748438519,nan,nan
0,56,0621,6,1,462,324,0.432089675478,0.378486360879,-1.0,1,1.0,1.0,0.233456058428,1,nan,nan,nan,nan,nan,nan,nan,168.190117043,401.0,-0.00506340639596,0.470796889516,-0.425203102762,-43.033867043,2.38394722529,326.59496466,384.248539444,384.481995502,384.748575081,386.073732854,388.465694179
0,57,0622,6,1,248,174,0.568115903494,0.223728204869,0.653295769881,1,1.0,1.0,0.471651867963,0,nan,nan,nan,nan,nan,nan,nan,nan,nan,0.0,0.0,0.0,nan,nan,326.59496466,389.674228411,390.145880279,390.174269751,nan,nan
0,58,0623,6,1,365,256,-0.157962026257,0.477016591838,-0.0139196855225,1,1.0,1.0,0.279517889023,0,nan,nan,nan,nan,nan,nan,nan,nan,nan,0.0,0.0,0.0,nan,nan,326.59496466,390.674339314,390.953857203,391.174389207,nan,nan
0,59,0624,6,1,282,198,0.208142307666,0.34807905204,0.609295500931,1,1.0,1.0,0.66331942752,0,nan,nan,nan,nan,nan,nan,nan,nan,nan,0.0,0.0,0.0,nan,nan,326.59496466,391.674496974,392.337816401,392.174556559,nan,nan
0,60,0625,6,1,409,287,0.0429436170054,0.464793150178,-0.529461854507,1,1.0,1.0,0.695193365216,0,nan,nan,nan,nan,nan,nan,nan,nan,nan,0.0,0.0,0.0,nan,nan,326.59496466,392.674615859,393.369809224,393.174674019,nan,nan
0,61,0626,6,1,176,123,1.0,-0.150429669724,0.298675466069,1,nan,nan,nan,0,nan,nan,nan,nan,nan,nan,nan,nan,nan,0.0,0.0,0.0,nan,nan,326.59496466,393.674743583,nan,394.174801458,nan,nan
0,62,0627,6,0,273,191,0.299732959835,0.319577193062,0.635038033336,0,0.0,1.0,0.494888480753,0,nan,nan,nan,nan,nan,nan,nan,nan,nan,0.0,0.0,0.0,nan,nan,326.59496466,394.674893545,395.169782026,395.183245486,nan,nan
0,63,0632,6,1,210,147,0.958022500947,0.0359304984579,0.533421856807,1,1.0,1.0,0.502768584527,1,nan,nan,nan,nan,nan,nan,nan,-59.5983727019,213.0,0.929785093221,0.0521668813814,0.548906519778,1.94212270185,1.80051648244,326.59496466,395.67499504,396.177763624,396.175058901,397.508519579,399.317072969
0,64,0633,6,1,316,222,-0.0718215561597,0.428203514031,0.427892255365,1,1.0,1.0,0.707724839449,0,nan,nan,nan,nan,nan,nan,nan,nan,nan,0.0,0.0,0.0,nan,nan,326.59496466,400.533948879,401.241673718,401.034004187,nan,nan
0,65,0634,6,1,437,307,0.23613482661,0.429770237144,-1.0,1,1.0,1.0,0.395598032512,0,nan,nan,nan,nan,nan,nan,nan,nan,nan,0.0,0.0,0.0,nan,nan,326.59496466,401.534062347,401.92966038,402.03409599,nan,nan
0,66,0635,6,1,511,359,0.838703193994,0.216284169582,-1.0,1,1.0,1.0,0.443453413434,0,nan,nan,nan,nan,nan,nan,nan,nan,nan,0.0,0.0,0.0,nan,nan,326.59496466,402.534203756,402.977657169,403.034221717,nan,nan
0,67,0636,6,1,103,72,1.0,-0.279537473278,-0.423758835275,1,1.0,1.0,0.595303925686,0,nan,nan,nan,nan,nan,nan,nan,nan,nan,0.0,0.0,0.0,nan,nan,326.59496466,403.53431751,404.129621436,404.034389355,nan,nan
0,68,0637,6,1,172,120,1.0,-0.170984061773,0.265024678188,1,1.0,1.0,0.523154789582,0,nan,nan,nan,nan,nan,nan,nan,nan,nan,0.0,0.0,0.0,nan,nan,326.59496466,404.534450936,405.057605726,405.034523636,nan,nan
0,69,0638,6,1,369,259,-0.147694689129,0.477999187239,-0.0564338676883,1,1.0,1.0,0.56299892161,0,nan,nan,nan,nan,nan,nan,nan,nan,nan,0.0,0.0,0.0,nan,nan,326.59496466,405.53458094,406.097579862,406.034644232,nan,nan
0,70,0639,6,1,257,180,0.470472903111,0.261039853404,0.655841377839,1,1.0,1.0,0.442874948494,0,nan,nan,nan,nan,nan,nan,nan,nan,nan,0.0,0.0,0.0,nan,nan,326.59496466,406.534713511,406.97758846,407.034749718,nan,nan
0,71,0640,6,1,158,111,1.0,-0.235949227405,0.139764106,1,1.0,1.0,0.570715093985,0,nan,nan,nan,nan,nan,nan,nan,nan,nan,0.0,0.0,0.0,nan,nan,326.59496466,407.534822133,408.105537227,408.034903101,nan,nan
0,72,0641,6,1,436,306,0.228681708805,0.431413732101,-1.0,1,1.0,1.0,0.618567052297,0,nan,nan,nan,nan,nan,nan,nan,nan,nan,0.0,0.0,0.0,nan,nan,326.59496466,408.534967818,409.153534871,409.035027403,nan,nan
0,73,0642,6,1,224,157,0.821619416966,0.11002478857,0.597264883709,1,1.0,1.0,0.466437714174,0,nan,nan,nan,nan,nan,nan,nan,nan,nan,0.0,0.0,0.0,nan,nan,326.59496466,409.535095257,410.001532971,410.035107802,nan,nan
0,74,0643,6,1,437,307,0.23613482661,0.429770237144,-1.0,1,1.0,1.0,0.434285807423,0,nan,nan,nan,nan,nan,nan,nan,nan,nan,0.0,0.0,0.0,nan,nan,326.59496466,410.535227257,410.969513064,411.035237521,nan,nan
0,75,0648,6,1,316,222,-0.0718215561597,0.428203514031,0.427892255365,1,1.0,1.0,0.48214033246,1,nan,nan,nan,nan,nan,nan,nan,-149.851633968,341.0,-0.168535884224,0.46196150489,0.223260112086,17.664133968,2.0840066392,326.59496466,411.535353555,412.017493888,412.035371517,413.352198446,415.444133941
0,76,0649,6,1,418,293,0.101175887384,0.455961754156,-0.661679309199,1,1.0,1.0,0.660392044112,0,nan,nan,nan,nan,nan,nan,nan,nan,nan,0.0,0.0,0.0,nan,nan,326.59496466,416.661001868,417.321393912,417.16106573,nan,nan
0,77,0654,6,1,22,15,1.0,0.111842423158,-1.0,1,1.0,1.0,0.57223095838,1,nan,nan,nan,nan,nan,nan,nan,65.2436881454,35.0,1.0,0.0462653595507,-1.0,9.28756185459,1.85885063373,326.59496466,417.661131873,418.233362831,418.161190888,419.486323288,421.353224799
0,78,0655,6,1,257,180,0.470472903111,0.261039853404,0.655841377839,1,1.0,1.0,0.655184446834,0,nan,nan,nan,nan,nan,nan,nan,nan,nan,0.0,0.0,0.0,nan,nan,326.59496466,422.570079041,423.225263488,423.070147464,nan,nan
0,79,0656,6,0,211,148,0.948675772315,0.0413606888024,0.538689155053,0,0.0,1.0,0.511023307219,0,nan,nan,nan,nan,nan,nan,nan,nan,nan,0.0,0.0,0.0,nan,nan,326.59496466,423.570231568,424.081254875,424.070277183,nan,nan
0,80,0657,6,1,129,90,1.0,-0.310070485259,-0.146368003411,1,1.0,1.0,0.318943209946,0,0.0,0.0,0.495050321333,0.464570057002,0.131233552497,0.595803609499,0.333336504506,nan,nan,0.0,0.0,0.0,nan,nan,326.59496466,424.570331638,424.889274848,425.070356726,nan,nan
0,81,0658,6,1,59,41,1.0,-0.0814409933332,-1.0,1,0.0,0.0,0.206781450659,0,0.0,0.0,0.345582655941,0.462678799248,0.131416973125,0.594095772373,0.331261826124,nan,nan,0.0,0.0,0.0,nan,nan,326.59496466,425.570469339,425.77725079,426.070518661,nan,nan
0,82,0659,6,1,130,91,1.0,-0.309333154106,-0.136071487739,1,1.0,1.0,0.710602045991,0,0.0,0.0,0.412108902199,0.45939806401,0.133707791093,0.593105855103,0.325690272917,nan,nan,0.0,0.0,0.0,nan,nan,326.59496466,426.570597064,427.28119911,427.070655794,nan,nan
0,83,0700,6,0,258,181,0.459642287315,0.26499291187,0.655490062901,0,0.0,1.0,0.582436320372,0,0.0,0.0,0.499939939007,0.46257786125,0.135794473702,0.598372334952,0.326783387549,nan,nan,0.0,0.0,0.0,nan,nan,326.59496466,427.570741608,428.153177928,428.070789505,nan,nan
0,84,0701,6,1,382,268,-0.1011887567,0.478291136399,-0.199732273247,1,1.0,1.0,0.406325693242,0,0.0,0.0,0.566454686535,0.464076091989,0.135598555604,0.599674647593,0.328477536386,nan,nan,0.0,0.0,0.0,nan,nan,326.59496466,428.570854221,428.977179915,429.07087646,nan,nan
0,85,0702,6,1,478,336,0.56422249903,0.334793662244,-1.0,1,1.0,1.0,0.350207323208,0,0.0,0.0,0.446323112274,0.463363124104,0.134909727336,0.59827285144,0.328453396768,nan,nan,0.0,0.0,0.0,nan,nan,326.59496466,429.570957997,429.92116532,430.071020149,nan,nan
0,86,0703,6,1,177,124,1.0,-0.145192147526,0.306921212481,1,1.0,1.0,0.398015947081,0,0.0,0.0,0.384849654511,0.461983175312,0.134658533054,0.596641708366,0.327324642258,nan,nan,0.0,0.0,0.0,nan,nan,326.59496466,430.571128771,430.969144718,431.071143311,nan,nan
0,87,0704,6,1,290,203,0.131265381085,0.370776544741,0.578206616232,1,1.0,1.0,0.485880245455,0,0.0,0.0,0.411367838581,0.461212485815,0.134026700739,0.595239186554,0.327185785077,nan,nan,0.0,0.0,0.0,nan,nan,326.59496466,431.57124452,432.057124766,432.071287286,nan,nan
0,88,0705,6,1,140,98,1.0,-0.294209249228,-0.0345777392028,1,1.0,1.0,0.54174573347,0,0.0,0.0,0.475213975335,0.461506149621,0.133253394701,0.594759544322,0.32825275492,nan,nan,0.0,0.0,0.0,nan,nan,326.59496466,432.571355139,433.113100872,433.071430405,nan,nan
0,89,0706,6,1,220,154,0.861731547614,0.0893272636146,0.581247684387,1,1.0,1.0,0.46161214821,0,0.0,0.0,0.496412709045,0.462450144725,0.132749471685,0.59519961641,0.329700673039,nan,nan,0.0,0.0,0.0,nan,nan,326.59496466,433.571486569,434.033098717,434.071505385,nan,nan
0,90,0707,6,0,323,227,-0.11001989341,0.43965344528,0.375855360355,0,0.0,1.0,0.46144992765,0,0.0,0.0,0.488269269777,0.462440400579,0.131975446265,0.594415846845,0.330464954314,nan,nan,0.0,0.0,0.0,nan,nan,326.59496466,434.571625412,435.033075339,435.071658198,nan,nan
0,91,0708,6,1,242,170,0.632911854383,0.197161183215,0.645921401967,1,1.0,1.0,0.325333108194,0,0.0,0.0,0.416131728018,0.462429015833,0.131214817008,0.593643832841,0.331214198825,nan,nan,0.0,0.0,0.0,nan,nan,326.59496466,435.57173774,435.897070848,436.071767105,nan,nan
0,92,0709,6,1,375,263,-0.128556699755,0.478682433309,-0.121605159467,1,1.0,1.0,0.765138695017,0,0.0,0.0,0.51730724362,0.460871107792,0.131273883485,0.592144991276,0.329597224307,nan,nan,0.0,0.0,0.0,nan,nan,326.59496466,436.571873446,437.337012141,437.071935883,nan,nan
0,93,0710,6,1,319,224,-0.0891891826932,0.433308674125,0.406137099325,1,1.0,1.0,0.653010290116,0,0.0,0.0,0.581160697776,0.464289844727,0.134416249874,0.598706094601,0.329873594853,nan,nan,0.0,0.0,0.0,nan,nan,326.59496466,437.572005447,438.225015737,438.072062181,nan,nan
0,94,0711,6,1,113,79,1.0,-0.302191989669,-0.314576349441,1,1.0,1.0,0.588859573938,0,0.0,1.0,0.669002853024,0.466386738564,0.135123297286,0.601510035851,0.331263441278,nan,nan,0.0,0.0,0.0,nan,nan,326.59496466,438.572139443,439.160999017,439.072185628,nan,nan
0,95,0715,6,1,174,122,1.0,-0.160790688716,0.281981279739,1,1.0,1.0,0.564732030965,1,0.0,0.0,0.602200631673,0.467732593898,0.134984014395,0.602716608293,0.332748579503,-39.130399557,184.0,1.0,-0.107671891867,0.362640045218,6.78664955699,1.75881921593,326.59496466,439.572252057,440.136984088,440.072315633,441.405797407,443.172670351
0,96,0716,6,1,497,349,0.723174939644,0.271260599794,-1.0,1,1.0,1.0,0.691713460721,0,0.0,0.0,0.615101688541,0.468786935605,0.134624634236,0.603411569842,0.334162301369,nan,nan,0.0,0.0,0.0,nan,nan,326.59496466,444.381176074,445.072889535,444.881271297,nan,nan
0,97,0717,6,1,207,145,0.985653507947,0.0195431921708,0.51699622314,1,1.0,1.0,0.56355172582,0,0.0,0.0,0.606665739169,0.471183995015,0.13585851055,0.607042505565,0.335325484466,nan,nan,0.0,0.0,0.0,nan,nan,326.59496466,445.38132404,445.944875766,445.881393604,nan,nan
0,98,0718,6,1,282,198,0.208142307666,0.34807905204,0.609295500931,1,1.0,1.0,0.443435451016,0,0.0,0.0,0.566233545852,0.472166630449,0.135465775632,0.607632406081,0.336700854818,nan,nan,0.0,0.0,0.0,nan,nan,326.59496466,446.381435798,446.824871249,446.881464308,nan,nan
0,99,0719,6,1,54,37,1.0,-0.0546292063271,-1.0,1,1.0,1.0,0.41127442196,0,0.0,0.0,0.472753866265,0.471864196982,0.134782810475,0.606647007456,0.337081386507,nan,nan,0.0,0.0,0.0,nan,nan,326.59496466,447.381573215,447.792847637,447.881591177,nan,nan
0,100,0720,6,1,211,148,0.948675772315,0.0413606888024,0.538689155053,1,1.0,1.0,0.347124559805,0,0.0,0.0,0.400611477594,0.471233053492,0.134220024972,0.605453078464,0.33701302852,nan,nan,0.0,0.0,0.0,nan,nan,326.59496466,448.381690961,448.728815521,448.881725173,nan,nan
0,101,0721,6,1,397,279,-0.0275613476434,0.473159987783,-0.37569455347,1,1.0,1.0,0.338964776136,0,0.0,0.0,0.3657879193,0.469953584485,0.134113568399,0.604067152883,0.335840016086,nan,nan,0.0,0.0,0.0,nan,nan,326.59496466,449.381847764,449.720812541,449.881852041,nan,nan
0,102,0722,6,1,173,121,1.0,-0.165909522591,0.273535192888,1,1.0,1.0,0.36249389872,0,0.0,0.0,0.349527744887,0.468616963991,0.134075388508,0.6026923525,0.334541575483,nan,nan,0.0,0.0,0.0,nan,nan,326.59496466,450.390304621,450.75279852,450.89033028,nan,nan
0,103,0723,6,1,296,208,0.0772713571413,0.386205321608,0.550001308524,1,1.0,1.0,0.362326261587,0,0.0,0.0,0.354594978814,0.467545013837,0.13381794157,0.601362955407,0.333727072267,nan,nan,0.0,0.0,0.0,nan,nan,326.59496466,451.390438047,451.752764309,451.890442609,nan,nan
0,104,0724,6,1,141,99,1.0,-0.291952736687,-0.024586852943,1,1.0,1.0,0.322258328088,0,0.0,0.0,0.349026162798,0.466492826315,0.133558121545,0.60005094786,0.332934704769,nan,nan,0.0,0.0,0.0,nan,nan,326.59496466,452.390534695,452.712793023,452.890582877,nan,nan
0,105,0725,6,1,252,177,0.524721685615,0.240693665738,0.655694012224,1,1.0,1.0,0.33806671761,0,0.0,0.0,0.340883769095,0.465064761976,0.133660379335,0.598725141311,0.33140438264,nan,nan,0.0,0.0,0.0,nan,nan,326.59496466,453.390676104,453.728742821,453.89069492,nan,nan
0,106,0726,6,1,9,6,0.918933560847,0.172916688009,-1.0,1,1.0,1.0,0.313902680762,0,1.0,0.0,0.324742575487,0.463819683109,0.133590873019,0.597410556128,0.330228810091,nan,nan,0.0,0.0,0.0,nan,nan,326.59496466,454.390822074,454.704724755,454.890826635,nan,nan
0,107,0732,6,1,166,116,1.0,-0.20036215083,0.21267421211,1,1.0,1.0,0.256459175609,1,0.0,0.0,0.30280952466,0.462364178232,0.133751039585,0.596115217817,0.328613138648,-36.660980506,180.0,1.0,-0.129278616986,0.331238955499,9.94223050605,2.07556033134,326.59496466,455.424281155,455.68074033,455.924287997,457.24945917,459.333056979
0,108,0733,6,1,216,151,0.900975005756,0.0682271079607,0.563426584804,1,1.0,1.0,0.475024860352,0,0.0,0.0,0.348462238908,0.460384322438,0.134614524043,0.594998846481,0.325769798395,nan,nan,0.0,0.0,0.0,nan,nan,326.59496466,460.541582088,461.016606948,461.041610598,nan,nan
0,109,0734,6,0,407,286,0.0305886347219,0.46645515455,-0.502577406972,0,0.0,1.0,0.666855496354,0,0.0,0.0,0.466113177439,0.460523756132,0.133979514874,0.594503271007,0.326544241258,nan,nan,0.0,0.0,0.0,nan,nan,326.59496466,461.541731479,462.208586975,462.041783652,nan,nan
0,110,0735,6,1,77,54,1.0,-0.174593022316,-0.756267193339,1,1.0,1.0,0.362717700191,0,0.0,0.0,0.501532685633,0.462470281983,0.134829548214,0.597299830197,0.32764073377,nan,nan,0.0,0.0,0.0,nan,nan,326.59496466,462.541852361,462.904570061,463.041888283,nan,nan
0,111,0736,6,1,500,351,0.748145934353,0.260058294274,-1.0,1,1.0,1.0,0.442589567043,0,0.0,0.0,0.490720921196,0.461538014864,0.134540836698,0.596078851561,0.326997178166,nan,nan,0.0,0.0,0.0,nan,nan,326.59496466,463.541973242,463.984562809,464.041990918,nan,nan
0,112,0737,6,1,432,303,0.199227897075,0.437687328843,-1.0,1,1.0,1.0,0.562436708249,0,0.0,0.0,0.455914658494,0.461362566273,0.13392881091,0.595291377183,0.327433755363,nan,nan,0.0,0.0,0.0,nan,nan,326.59496466,464.542095263,465.104531972,465.042162832,nan,nan
0,113,0738,6,1,39,27,1.0,0.0253789930673,-1.0,1,1.0,1.0,0.490288713016,0,0.0,0.0,0.498438329436,0.462289851979,0.133660885012,0.595950736992,0.328628966967,nan,nan,0.0,0.0,0.0,nan,nan,326.59496466,465.542233536,466.032522249,466.050579205,nan,nan
0,114,0739,6,1,205,144,1.0,0.00854800403903,0.505535240796,1,1.0,1.0,0.386168136261,0,0.0,0.0,0.479631185842,0.462544387079,0.133078483931,0.595622871011,0.329465903148,nan,nan,0.0,0.0,0.0,nan,nan,326.59496466,466.542351852,466.928519988,467.042406591,nan,nan
0,115,0740,6,1,255,179,0.492159363509,0.253017189294,0.656163111527,1,1.0,1.0,0.41801413428,0,0.0,0.0,0.431490327852,0.461856312748,0.132674087457,0.594530400204,0.329182225291,nan,nan,0.0,0.0,0.0,nan,nan,326.59496466,467.542481856,467.960495991,468.042517493,nan,nan
0,116,0741,6,1,106,74,1.0,-0.287630069369,-0.390564445695,1,1.0,1.0,0.46585069783,0,0.0,0.0,0.423344322791,0.461464864726,0.132144836368,0.593609701094,0.329320028357,nan,nan,0.0,0.0,0.0,nan,nan,326.59496466,468.542614141,469.008464839,469.042645218,nan,nan
0,117,0742,6,1,10,7,0.926811495151,0.168400576072,-1.0,1,1.0,1.0,0.345063017681,0,0.0,0.0,0.409642616597,0.461503677408,0.131559466568,0.593063143976,0.32994421084,nan,nan,0.0,0.0,0.0,nan,nan,326.59496466,469.559397851,469.904460869,470.059424935,nan,nan
0,118,0743,6,1,487,342,0.639529740128,0.306295026098,-1.0,1,1.0,1.0,0.296913987026,0,0.0,0.0,0.369275900846,0.460482268112,0.131430437548,0.59191270566,0.329051830564,nan,nan,0.0,0.0,0.0,nan,nan,326.59496466,470.55951189,470.856425877,471.059548668,nan,nan
0,119,0744,6,1,374,262,-0.132039125116,0.478634076427,-0.110628443238,1,1.0,1.0,0.304775274359,0,1.0,0.0,0.315584093022,0.459059935233,0.131736012845,0.590795948078,0.327323922388,nan,nan,0.0,0.0,0.0,nan,nan,326.59496466,471.559639899,471.864415173,472.059680668,nan,nan
0,120,0749,6,1,258,181,0.459642287315,0.26499291187,0.655490062901,1,1.0,1.0,0.256645345129,1,0.0,0.0,0.286111535504,0.457729895053,0.131940161333,0.589670056386,0.32578973372,-176.806550727,379.0,-0.113535935895,0.478614986251,-0.165970515924,85.4003007267,2.51727521699,326.59496466,472.55976078,472.816406125,473.059814094,474.384975858,476.910291689
0,121,0750,6,1,92,64,1.0,-0.241703663401,-0.55060883727,1,1.0,1.0,0.561149491929,0,0.0,0.0,0.374190037139,0.456011223686,0.132672764773,0.58868398846,0.323338458913,nan,nan,0.0,0.0,0.0,nan,nan,326.59496466,478.127139089,478.688288581,478.627227184,nan,nan
0,122,0751,6,1,508,357,0.814199817736,0.228638933499,-1.0,1,1.0,1.0,0.656997669488,0,0.0,0.0,0.491597502182,0.45690222596,0.132460473509,0.589362699469,0.32444175245,nan,nan,0.0,0.0,0.0,nan,nan,326.59496466,479.127269949,479.784267618,479.62736004,nan,nan
0,123,0752,6,1,265,186,0.384259149088,0.291568309415,0.649478858709,1,1.0,1.0,0.46486454457,0,0.0,0.0,0.561003901996,0.458583700275,0.133161411568,0.591745111843,0.325422288707,nan,nan,0.0,0.0,0.0,nan,nan,326.59496466,480.127409932,480.592274477,480.627429889,nan,nan
0,124,0753,6,1,332,233,-0.146647089803,0.45205423783,0.302714191958,1,1.0,1.0,0.384405092336,0,0.0,0.0,0.502089102132,0.458636040644,0.13260664081,0.591242681454,0.326029399834,nan,nan,0.0,0.0,0.0,nan,nan,326.59496466,481.135857095,481.520262187,481.635901285,nan,nan
0,125,0754,6,1,18,12,0.988682696815,0.131162580546,-1.0,1,1.0,1.0,0.320225866511,0,0.0,0.0,0.389831834473,0.458022561732,0.132228428602,0.590250990334,0.325794133131,nan,nan,0.0,0.0,0.0,nan,nan,326.59496466,482.136004491,482.456230357,482.636032145,nan,nan
0,126,0755,6,1,183,128,1.0,-0.113108999915,0.354902835149,1,1.0,1.0,0.312097727321,0,0.0,0.0,0.338909562056,0.456893080624,0.132270200584,0.589163281208,0.32462288004,nan,nan,0.0,0.0,0.0,nan,nan,326.59496466,483.136139913,483.44823764,483.636153597,nan,nan
0,127,0756,6,1,254,178,0.503011129055,0.248947817922,0.65613358125,1,1.0,1.0,0.311948905699,0,1.0,0.0,0.314757499844,0.45571588263,0.132371575099,0.588087457729,0.323344307531,nan,nan,0.0,0.0,0.0,nan,nan,326.59496466,484.136257658,484.448206563,484.636275904,nan,nan
0,128,0800,6,1,83,58,1.0,-0.203097876184,-0.665876706514,1,1.0,1.0,0.215841574594,1,0.0,0.0,0.279962735871,0.454556471525,0.132462320498,0.587018792023,0.322094151028,30.7932338822,84.0,1.0,-0.20765784414,-0.652191087791,0.84739111776,1.08375404309,326.59496466,485.136390799,485.352232373,485.636416458,486.96990992,488.061717977
0,129,0801,6,1,511,359,0.838703193994,0.216284169582,-1.0,1,1.0,1.0,0.529512756504,0,0.0,0.0,0.352434412266,0.45264675235,0.133634305512,0.586281057862,0.319012446838,nan,nan,0.0,0.0,0.0,nan,nan,326.59496466,489.278580772,489.808093528,489.778647199,nan,nan
0,130,0802,6,1,276,194,0.268710435127,0.329430325417,0.627563005949,1,1.0,1.0,0.377391399816,0,0.0,0.0,0.374248576971,0.453256800002,0.133277590785,0.586534390787,0.319979209217,nan,nan,0.0,0.0,0.0,nan,nan,326.59496466,490.278715909,490.656107308,490.778753826,nan,nan
0,131,0803,6,1,181,127,1.0,-0.123914391386,0.3392011262,1,1.0,1.0,0.353230215609,0,0.0,0.0,0.420044790643,0.452659434646,0.13292107899,0.585580513636,0.319738355656,nan,nan,0.0,0.0,0.0,nan,nan,326.59496466,491.278839925,491.632070141,491.778853895,nan,nan
0,132,0804,6,1,32,22,1.0,0.061735800531,-1.0,1,1.0,1.0,0.457087931223,0,0.0,0.0,0.395903182216,0.451882643873,0.132689917411,0.584572561283,0.319192726462,nan,nan,0.0,0.0,0.0,nan,nan,326.59496466,492.278958526,492.736046458,492.778978483,nan,nan
0,133,0805,6,0,428,300,0.170378320166,0.443486568519,-0.86866140055,0,1.0,0.0,0.38490600884,0,0.0,0.0,0.398408051891,0.451922994937,0.132175403203,0.58409839814,0.319747591734,nan,nan,0.0,0.0,0.0,nan,nan,326.59496466,493.279120462,493.664026471,493.77914384,nan,nan
0,134,0806,6,1,362,254,-0.164239727892,0.476000155386,0.0174578511848,1,0.0,0.0,0.256867720746,0,0.0,0.0,0.366287220269,0.45140747966,0.131796177967,0.583203657627,0.319611301692,nan,nan,0.0,0.0,0.0,nan,nan,326.59496466,494.279218251,494.536085972,494.779235072,nan,nan
0,135,0807,6,1,233,163,0.728670395113,0.154909781369,0.626482233315,1,nan,nan,nan,0,0.0,0.0,0.320886864793,0.449922443332,0.132379487112,0.582301930444,0.31754295622,nan,nan,0.0,0.0,0.0,nan,nan,326.59496466,495.279340843,nan,495.779416678,nan,nan
0,136,0808,6,1,30,21,1.0,0.071945658744,-1.0,1,nan,nan,nan,0,0.0,0.0,0.256867720746,0.449922443332,0.132379487112,0.582301930444,0.31754295622,nan,nan,0.0,0.0,0.0,nan,nan,326.59496466,496.279475409,nan,496.77953585,nan,nan
0,137,0809,6,0,220,154,0.861731547614,0.0893272636146,0.581247684387,0,nan,nan,nan,0,0.0,0.0,nan,0.449922443332,0.132379487112,0.582301930444,0.31754295622,nan,nan,0.0,0.0,0.0,nan,nan,326.59496466,497.279616247,nan,497.779668705,nan,nan
0,138,0810,6,1,46,32,1.0,-0.0117313672748,-1.0,1,1.0,1.0,0.136289303191,0,0.0,0.0,0.136289303191,0.449922443332,0.132379487112,0.582301930444,0.31754295622,nan,nan,0.0,0.0,0.0,nan,nan,326.59496466,498.279737699,498.416027002,498.779777898,nan,nan
0,139,0811,6,1,459,322,0.407758158413,0.385709174134,-1.0,1,1.0,1.0,0.176148544997,0,0.0,0.0,0.156218924094,0.447546434695,0.134651840596,0.58219827529,0.312894594099,nan,nan,0.0,0.0,0.0,nan,nan,326.59496466,499.279838908,499.455987453,499.77988481,nan,nan
0,140,0812,6,1,332,233,-0.146647089803,0.45205423783,0.302714191958,1,1.0,1.0,0.271806277335,0,1.0,0.0,0.194748041841,0.445505849058,0.136177974081,0.581683823139,0.309327874976,nan,nan,0.0,0.0,0.0,nan,nan,326.59496466,500.280102909,500.551909186,500.780006831,nan,nan
0,141,0817,6,1,22,15,1.0,0.111842423158,-1.0,1,1.0,1.0,0.239837973379,1,0.0,0.0,0.229264265237,0.444209583597,0.13649003527,0.580699618868,0.307719548327,42.6516466869,67.0,1.0,-0.12380466598,-1.0,31.8796033131,1.24222139083,326.59496466,501.280116308,501.519954282,501.780165915,503.105307723,504.355469944
0,142,0818,6,0,99,69,1.0,-0.267176270739,-0.468793303331,0,1.0,0.0,0.763798734173,0,0.0,0.0,0.425147661629,0.442695719818,0.137108104087,0.579803823905,0.305587615731,nan,nan,0.0,0.0,0.0,nan,nan,326.59496466,505.564001611,506.327800345,506.064058345,nan,nan
0,143,0819,6,1,420,295,0.1146601879,0.45369410126,-0.695047497311,1,0.0,0.0,0.187712398358,0,0.0,0.0,0.397116368636,0.445056771394,0.139330446002,0.584387217396,0.305726325392,nan,nan,0.0,0.0,0.0,nan,nan,326.59496466,506.564106241,506.751818639,507.06417495,nan,nan
0,144,0820,6,1,267,187,0.362924526182,0.298807232282,0.646622522267,1,1.0,1.0,0.507528577931,0,0.0,0.0,0.486346570154,0.443178345313,0.140538772395,0.583717117709,0.302639572918,nan,nan,0.0,0.0,0.0,nan,nan,326.59496466,507.564229974,508.071758552,508.064324341,nan,nan
0,145,0821,6,1,355,249,-0.173737462994,0.472683863687,0.0888799762457,1,1.0,1.0,0.387370394543,0,0.0,0.0,0.360870456944,0.443644651347,0.14013497692,0.583779628267,0.303509674426,nan,nan,0.0,0.0,0.0,nan,nan,326.59496466,508.564385067,508.951755461,509.064399892,nan,nan
0,146,0822,6,1,470,330,0.497741612616,0.357740777197,-1.0,1,1.0,1.0,0.347271100618,0,0.0,0.0,0.414056691031,0.443239800578,0.139710956289,0.582950756867,0.303528844289,nan,nan,0.0,0.0,0.0,nan,nan,326.59496466,509.564492264,509.911763364,510.064537879,nan,nan
0,147,0823,6,1,96,67,1.0,-0.25681952169,-0.503302481145,1,1.0,1.0,0.339097631164,0,0.0,0.0,0.357913042108,0.442554309864,0.13944548954,0.581999799404,0.303108820325,nan,nan,0.0,0.0,0.0,nan,nan,326.59496466,510.564643365,510.903740996,511.064644791,nan,nan
0,148,0824,6,1,249,175,0.557275547736,0.228026269286,0.654084877906,1,1.0,1.0,0.27497998625,0,0.0,0.0,0.320449572677,0.441820574554,0.139221075582,0.581041650137,0.302599498972,nan,nan,0.0,0.0,0.0,nan,nan,326.59496466,511.564744575,511.839724561,512.064777932,nan,nan
0,149,0825,6,0,466,327,0.464789014893,0.368385601135,-1.0,0,1.0,0.0,0.250801409595,0,0.0,0.0,0.288293009003,0.440645640834,0.139429758358,0.580075399192,0.301215882476,nan,nan,0.0,0.0,0.0,nan,nan,326.59496466,512.564897673,512.815699083,513.064939868,nan,nan
0,150,0826,6,1,282,198,0.208142307666,0.34807905204,0.609295500931,1,1.0,1.0,0.514667713083,0,0.0,0.0,0.346816369643,0.439318058797,0.13983912249,0.579157181288,0.299478936307,nan,nan,0.0,0.0,0.0,nan,nan,326.59496466,513.564985198,514.079652911,514.065074149,nan,nan
0,151,0827,6,1,468,329,0.481236483515,0.363131620867,-1.0,1,nan,nan,nan,0,0.0,0.0,0.382734561339,0.439841320285,0.139493137735,0.57933445802,0.300348182551,nan,nan,0.0,0.0,0.0,nan,nan,326.59496466,514.56512461,nan,515.065203583,nan,nan
0,152,0828,6,1,38,26,1.0,0.0306259494545,-1.0,1,nan,nan,nan,0,0.0,0.0,0.514667713083,0.439841320285,0.139493137735,0.57933445802,0.300348182551,nan,nan,0.0,0.0,0.0,nan,nan,326.59496466,515.565260887,nan,516.065336438,nan,nan
0,153,0829,6,1,490,344,0.664660387652,0.296157848571,-1.0,1,1.0,1.0,0.73023131676,0,0.0,0.0,0.73023131676,0.439841320285,0.139493137735,0.57933445802,0.300348182551,nan,nan,0.0,0.0,0.0,nan,nan,326.59496466,516.565387186,517.295618502,517.065465587,nan,nan
0,154,0830,6,1,99,69,1.0,-0.267176270739,-0.468793303331,1,1.0,1.0,0.650073213503,0,0.0,0.0,0.690152265131,0.441844009916,0.141073350875,0.582917360791,0.300770659041,nan,nan,0.0,0.0,0.0,nan,nan,326.59496466,517.565511488,518.215584702,518.06558989,nan,nan
0,155,0831,6,1,483,339,0.606025706087,0.319314454546,-1.0,1,1.0,1.0,0.593925192952,0,0.0,1.0,0.658076574405,0.443270237338,0.141634478342,0.58490471568,0.301635758996,nan,nan,0.0,0.0,0.0,nan,nan,326.59496466,518.56564862,519.159573813,519.065716188,nan,nan
0,156,0835,6,1,248,174,0.568115903494,0.223728204869,0.653295769881,1,1.0,1.0,0.553774295375,1,0.0,0.0,0.599257567277,0.444295100982,0.141694075731,0.585989176713,0.30260102525,-49.6255058706,199.0,1.0,-0.0246761787097,0.468786302982,-34.7494941294,1.68383307196,326.59496466,519.565778055,520.119552351,520.065844483,521.399299458,523.091185688
0,157,0836,6,1,162,113,1.0,-0.218739557155,0.176632971453,1,1.0,1.0,0.587788461708,0,0.0,0.0,0.578495983345,0.445034825268,0.141499086543,0.586533911812,0.303535738725,nan,nan,0.0,0.0,0.0,nan,nan,326.59496466,524.299687989,524.887476451,524.799776085,nan,nan
0,158,0837,6,1,346,243,-0.174317561957,0.466431294057,0.176670174816,1,1.0,1.0,0.387642093003,0,0.0,0.0,0.509734950028,0.445992903365,0.141504300039,0.587497203404,0.304488603326,nan,nan,0.0,0.0,0.0,nan,nan,326.59496466,525.299829397,525.68747149,525.799859048,nan,nan
0,159,0838,6,1,79,55,1.0,-0.184296021705,-0.724170777997,1,1.0,1.0,0.451491460204,0,0.0,0.0,0.475640671638,0.445603897963,0.1411117451,0.586715643063,0.304492152863,nan,nan,0.0,0.0,0.0,nan,nan,326.59496466,526.299961683,526.751453144,526.800002452,nan,nan
0,160,0839,6,1,484,340,0.614398947124,0.316112737715,-1.0,1,1.0,1.0,0.411310628988,0,0.0,0.0,0.416814727398,0.445642888441,0.140644522182,0.586287410624,0.304998366259,nan,nan,0.0,0.0,0.0,nan,nan,326.59496466,527.300114496,527.711425125,527.800134737,nan,nan
0,161,0840,6,1,136,95,1.0,-0.301914900238,-0.074841205769,1,1.0,1.0,0.483173810877,0,0.0,0.0,0.448658633356,0.445417018313,0.140208586953,0.585625605266,0.30520843136,nan,nan,0.0,0.0,0.0,nan,nan,326.59496466,528.300229105,528.783402916,528.800247066,nan,nan
0,162,0841,6,1,353,248,-0.175041255135,0.471490071959,0.108799216003,1,1.0,1.0,0.659026425332,0,0.0,0.0,0.517836955066,0.445663794735,0.139782752354,0.585446547089,0.305881042381,nan,nan,0.0,0.0,0.0,nan,nan,326.59496466,529.300352267,529.959378692,529.800408146,nan,nan
0,163,0842,6,1,433,304,0.206536295144,0.436163724167,-1.0,1,1.0,1.0,0.505525195971,0,0.0,0.0,0.549241810727,0.447049266362,0.140378161254,0.587427427616,0.306671105109,nan,nan,0.0,0.0,0.0,nan,nan,326.59496466,530.333839857,530.839365053,530.833877775,nan,nan
0,164,0843,6,1,321,225,-0.0999433513493,0.43654647086,0.391174984052,1,1.0,1.0,0.433426236734,0,0.0,0.0,0.532659286012,0.447426530424,0.140002896506,0.58742942693,0.307423633919,nan,nan,0.0,0.0,0.0,nan,nan,326.59496466,531.333940212,531.767366448,531.83396302,nan,nan
0,165,0844,6,1,379,266,-0.113535935895,0.478614986251,-0.165970515924,1,1.0,1.0,0.377285059541,0,0.0,0.0,0.438745497415,0.447336784952,0.139557920643,0.586894705595,0.307778864309,nan,nan,0.0,0.0,0.0,nan,nan,326.59496466,532.33406765,532.71135271,532.834114976,nan,nan
0,166,0845,6,1,492,345,0.681403316433,0.289222019555,-1.0,1,1.0,1.0,0.305116252042,0,0.0,0.0,0.371942516106,0.446890595618,0.139224340094,0.586114935712,0.307666255524,nan,nan,0.0,0.0,0.0,nan,nan,326.59496466,533.334191668,533.63930792,533.834236428,nan,nan
0,167,0846,6,1,109,76,1.0,-0.294638327523,-0.357773695079,1,1.0,1.0,0.480967439711,0,0.0,0.0,0.387789583765,0.445993289646,0.139237734929,0.585231024575,0.306755554717,nan,nan,0.0,0.0,0.0,nan,nan,326.59496466,534.334335642,534.815303082,534.834346476,nan,nan
0,168,0847,6,1,509,357,0.822386376617,0.224555004187,-1.0,1,1.0,1.0,0.38482988812,0,0.0,0.0,0.390304526625,0.446213252854,0.138826725559,0.585039978413,0.307386527295,nan,nan,0.0,0.0,0.0,nan,nan,326.59496466,535.334450536,535.719280425,535.834482753,nan,nan
0,169,0848,6,0,317,222,-0.077772836126,0.429938605076,0.420733606481,0,0.0,1.0,0.416684152558,0,0.0,0.0,0.427493826797,0.445829606825,0.138476736877,0.584306343702,0.307352869948,nan,nan,0.0,0.0,0.0,nan,nan,326.59496466,536.334596507,536.75128066,536.834630148,nan,nan
0,170,0849,6,1,448,315,0.32026743599,0.409662251776,-1.0,1,1.0,1.0,0.384556478821,0,0.0,0.0,0.395356839833,0.445648579158,0.138065005086,0.583713584245,0.307583574072,nan,nan,0.0,0.0,0.0,nan,nan,326.59496466,537.334696576,537.719253055,537.834726796,nan,nan
0,171,0850,6,1,379,266,-0.113535935895,0.478614986251,-0.165970515924,1,1.0,1.0,0.400429015048,0,0.0,0.0,0.400556548809,0.445271467428,0.137721369558,0.582992836986,0.30755009787,nan,nan,0.0,0.0,0.0,nan,nan,326.59496466,538.334815462,538.735244477,538.834850814,nan,nan
0,172,0851,6,0,120,84,1.0,-0.310161497659,-0.240162905937,0,1.0,0.0,0.344237660058,0,0.0,0.0,0.376407717975,0.444996360358,0.137342904381,0.582339264739,0.307653455977,nan,nan,0.0,0.0,0.0,nan,nan,326.59496466,539.334981959,539.679219619,539.835011895,nan,nan
0,173,0852,6,1,329,231,-0.136053278316,0.448203788942,0.3278337444,1,0.0,0.0,0.136169278063,0,0.0,0.0,0.29361198439,0.444381978039,0.137148027846,0.581530005885,0.307233950193,nan,nan,0.0,0.0,0.0,nan,nan,326.59496466,540.335081743,540.471251021,540.835151877,nan,nan
0,174,0853,6,1,214,150,0.920243657418,0.0575410437433,0.553854850604,1,nan,nan,nan,0,0.0,0.0,0.24020346906,0.442514022282,0.138808582252,0.581322604534,0.303705440029,nan,nan,0.0,0.0,0.0,nan,nan,326.59496466,541.335221441,nan,541.835281597,nan,nan
0,175,0854,6,1,395,277,-0.0383984177995,0.474183508328,-0.351427224487,1,1.0,1.0,0.775756877847,0,0.0,0.0,0.455963077955,0.442514022282,0.138808582252,0.581322604534,0.303705440029,nan,nan,0.0,0.0,0.0,nan,nan,326.59496466,542.335350876,543.111107754,542.835406755,nan,nan
0,176,0855,6,1,488,343,0.647907709101,0.302951493728,-1.0,1,1.0,1.0,0.599649672396,0,0.0,0.0,0.687703275122,0.444521509363,0.140771808294,0.585293317657,0.30374970107,nan,nan,0.0,0.0,0.0,nan,nan,326.59496466,543.335471187,543.935120859,543.835537614,nan,nan
0,177,0856,6,1,3,2,0.871087178923,0.199335109687,-1.0,1,1.0,1.0,0.399533808231,0,0.0,1.0,0.591646786158,0.445450420519,0.140859066195,0.586309486714,0.304591354325,nan,nan,0.0,0.0,0.0,nan,nan,326.59496466,544.335593209,544.735127017,544.835618013,nan,nan
0,178,0857,6,0,217,152,0.891250405156,0.0735373331823,0.568048345461,0,1.0,0.0,0.327374408022,0,0.0,0.0,0.442185962883,0.445177107351,0.140483623983,0.585660731334,0.304693483368,nan,nan,0.0,0.0,0.0,nan,nan,326.59496466,545.335744311,545.663118719,545.835774817,nan,nan
0,179,0858,6,1,301,211,0.0351599448551,0.39804275895,0.523414514543,1,nan,nan,nan,0,0.0,0.0,0.363454108126,0.444480049958,0.14035846599,0.584838515948,0.304121583969,nan,nan,0.0,0.0,0.0,nan,nan,326.59496466,546.335842099,nan,546.835918506,nan,nan
0,180,0859,6,1,111,78,1.0,-0.298677811705,-0.336106236365,1,1.0,1.0,0.285088984296,0,0.0,0.0,0.306231696159,0.444480049958,0.14035846599,0.584838515948,0.304121583969,nan,nan,0.0,0.0,0.0,nan,nan,326.59496466,547.386007912,547.671096897,547.886007912,nan,nan
0,181,0900,6,1,41,28,1.0,0.0148395037771,-1.0,1,1.0,1.0,0.141008242965,0,0.0,0.0,0.21304861363,0.443542455455,0.1404748333,0.584017288754,0.303067622155,nan,nan,0.0,0.0,0.0,nan,nan,326.59496466,548.386112258,548.527120501,548.886156163,nan,nan
0,182,0901,6,1,162,113,1.0,-0.218739557155,0.176632971453,1,1.0,1.0,0.0928925676271,0,1.0,0.0,0.172996598296,0.441773249534,0.141950326927,0.583723576461,0.299822922606,nan,nan,0.0,0.0,0.0,nan,nan,326.59496466,549.386226012,549.47911858,549.886305269,nan,nan
0,183,0908,6,1,291,204,0.122027637739,0.373441943191,0.573791926984,1,1.0,1.0,0.0446811011061,1,0.0,0.0,0.0928606372327,0.439744873476,0.144001012751,0.583745886227,0.295743860725,-137.161079488,323.0,-0.11001989341,0.43965344528,0.375855360355,22.5517044882,4.00915876776,326.59496466,550.386386522,550.431067623,550.886441546,552.211557125,556.228743106
0,184,0909,6,1,123,86,1.0,-0.311441137266,-0.208672863777,1,1.0,1.0,0.745271937922,0,0.0,0.0,0.294281868885,0.437461267855,0.146674413965,0.584135681821,0.29078685389,nan,nan,0.0,0.0,0.0,nan,nan,326.59496466,557.445605046,558.190876984,557.945669478,nan,nan
0,185,0910,6,1,313,220,-0.0530221528698,0.42279583272,0.448797959603,1,1.0,1.0,0.481141064316,0,0.0,0.0,0.423698034448,0.439230294695,0.148091658971,0.587321953665,0.291138635724,nan,nan,0.0,0.0,0.0,nan,nan,326.59496466,558.4457322,558.926873264,558.945782091,nan,nan
0,186,0911,6,0,96,67,1.0,-0.25681952169,-0.503302481145,0,0.0,1.0,0.520980063826,0,0.0,0.0,0.582464355355,0.439469784807,0.14770172145,0.587171506256,0.291768063357,nan,nan,0.0,0.0,0.0,nan,nan,326.59496466,559.445873038,559.966853102,559.945918368,nan,nan
0,187,0912,6,1,504,354,0.78128615449,0.244628286196,-1.0,1,1.0,1.0,0.384864955209,0,0.0,0.0,0.46232869445,0.439932911392,0.147408887824,0.587341799216,0.292524023568,nan,nan,0.0,0.0,0.0,nan,nan,326.59496466,560.445988217,560.830853173,560.946040105,nan,nan
0,188,0913,6,1,253,177,0.513865899396,0.244839928328,0.655977188727,1,1.0,1.0,0.448724871501,0,0.0,0.0,0.451523296845,0.439621792996,0.1470498256,0.586671618596,0.292571967395,nan,nan,0.0,0.0,0.0,nan,nan,326.59496466,561.446109669,561.894834541,561.946132192,nan,nan
0,189,0915,6,1,351,246,-0.175686286722,0.4701852659,0.128489978773,1,1.0,1.0,0.3362355344,0,0.0,0.0,0.389941787037,0.439672933886,0.146637760985,0.586310694871,0.293035172901,nan,nan,0.0,0.0,0.0,nan,nan,326.59496466,562.454579355,562.79081489,562.95459418,nan,nan
0,190,0916,6,1,158,111,1.0,-0.235949227405,0.139764106,1,1.0,1.0,0.296086062677,0,0.0,0.0,0.360348822859,0.439095071319,0.14643068388,0.5855257552,0.292664387439,nan,nan,0.0,0.0,0.0,nan,nan,326.59496466,563.45470936,563.750795423,563.954725896,nan,nan
0,191,0917,6,1,100,70,1.0,-0.270427092546,-0.457439896749,1,1.0,1.0,0.176023386419,0,1.0,0.0,0.269448327832,0.438300576827,0.146409739813,0.58471031664,0.291890837013,nan,nan,0.0,0.0,0.0,nan,nan,326.59496466,564.454838795,564.630862181,564.954850484,nan,nan
0,192,0923,6,1,11,7,0.934659501434,0.163852895862,-1.0,1,1.0,1.0,0.143888301216,1,0.0,0.0,0.205332583437,0.436851531576,0.147293359651,0.584144891227,0.289558171925,126.618601979,460.0,0.415848916989,0.383334931935,-1.0,-44.3529769786,3.15904695168,326.59496466,565.454964522,565.598852823,565.954984765,567.280150521,570.447214138
0,193,0924,6,1,428,300,0.170378320166,0.443486568519,-0.86866140055,1,1.0,1.0,0.558882678859,0,0.0,0.0,0.292931455498,0.435241843497,0.148475981189,0.583717824686,0.286765862308,nan,nan,0.0,0.0,0.0,nan,nan,326.59496466,571.655743524,572.214626202,572.155817649,nan,nan
0,194,0925,6,1,287,201,0.159501648714,0.36255249221,0.590751920292,1,1.0,1.0,0.47075808607,0,0.0,0.0,0.391176355382,0.435917476477,0.148350029377,0.584267505854,0.2875674471,nan,nan,0.0,0.0,0.0,nan,nan,326.59496466,572.655876379,573.126634466,573.155910877,nan,nan
0,195,0926,6,1,2,1,0.863024578927,0.203622855609,-1.0,1,1.0,1.0,0.430607760325,0,0.0,0.0,0.486749508418,0.436106827616,0.147968527858,0.584075355474,0.288138299758,nan,nan,0.0,0.0,0.0,nan,nan,326.59496466,573.65600838,574.08661614,574.156044587,nan,nan
0,196,0927,6,1,137,96,1.0,-0.300190217086,-0.0647316600203,1,1.0,1.0,0.350437967107,0,0.0,0.0,0.417267937834,0.436077102928,0.147568621872,0.5836457248,0.288508481056,nan,nan,0.0,0.0,0.0,nan,nan,326.59496466,574.656163473,575.00660144,575.156154064,nan,nan
0,197,0928,6,1,205,144,1.0,0.00854800403903,0.505535240796,1,1.0,1.0,0.278332736343,0,0.0,0.0,0.353126154592,0.435616677467,0.147304577869,0.582921255335,0.288312099598,nan,nan,0.0,0.0,0.0,nan,nan,326.59496466,575.656256985,575.934589721,576.156293763,nan,nan
0,198,0929,6,0,432,303,0.199227897075,0.437687328843,-1.0,0,0.0,1.0,0.59814606607,0,0.0,0.0,0.408972256506,0.434775586872,0.147357340402,0.582132927274,0.287418246471,nan,nan,0.0,0.0,0.0,nan,nan,326.59496466,576.656406661,577.254552728,577.156451992,nan,nan
0,199,0930,6,1,172,120,1.0,-0.170984061773,0.265024678188,1,1.0,1.0,0.486039615236,0,0.0,0.0,0.454172805883,0.435644578783,0.147444556563,0.583089135346,0.28820002222,nan,nan,0.0,0.0,0.0,nan,nan,326.59496466,577.656503879,578.142543495,578.156537236,nan,nan
0,200,0931,6,1,45,31,1.0,-0.0063957592436,-1.0,1,nan,nan,nan,0,0.0,0.0,0.542092840653,0.435911219188,0.147099414018,0.583010633206,0.28881180517,nan,nan,0.0,0.0,0.0,nan,nan,326.59496466,578.664963872,nan,579.165039994,nan,nan
0,201,0932,6,1,455,319,0.375608248681,0.394875365091,-1.0,1,1.0,1.0,0.381395599805,0,0.0,0.0,0.433717607521,0.435911219188,0.147099414018,0.583010633206,0.28881180517,nan,nan,0.0,0.0,0.0,nan,nan,326.59496466,579.665123242,580.046518842,580.165122102,nan,nan
0,202,0933,6,1,237,166,0.686387300223,0.174031846447,0.636349816437,1,1.0,1.0,0.573243911378,0,0.0,0.0,0.477319755591,0.435624294875,0.146764817563,0.582389112438,0.288859477312,nan,nan,0.0,0.0,0.0,nan,nan,326.59496466,580.66523329,581.238477201,581.165294586,nan,nan
0,203,0934,6,1,332,233,-0.146647089803,0.45205423783,0.302714191958,1,1.0,1.0,0.461102963425,0,0.0,0.0,0.471914158203,0.436344816427,0.146716652143,0.583061468571,0.289628164284,nan,nan,0.0,0.0,0.0,nan,nan,326.59496466,581.665372703,582.126475667,582.16539551,nan,nan
0,204,0935,6,0,144,101,1.0,-0.284423189345,0.00519445478499,0,0.0,1.0,0.524929523468,0,0.0,0.0,0.519758799424,0.43647376511,0.146344929882,0.582818694991,0.290128835228,nan,nan,0.0,0.0,0.0,nan,nan,326.59496466,582.665504703,583.190434227,583.165548894,nan,nan
0,205,0936,6,1,435,305,0.221263830514,0.433027056876,-1.0,1,1.0,1.0,0.404813819565,0,0.0,0.0,0.463615435486,0.436932085101,0.146103392884,0.583035477985,0.290828692218,nan,nan,0.0,0.0,0.0,nan,nan,326.59496466,583.665619313,584.070433132,584.165659511,nan,nan
0,206,0937,6,1,488,343,0.647907709101,0.302951493728,-1.0,1,1.0,1.0,0.436660956591,0,0.0,0.0,0.455468099875,0.436766527031,0.145744500667,0.582511027698,0.291022026364,nan,nan,0.0,0.0,0.0,nan,nan,326.59496466,584.66574219,585.102403146,585.165780677,nan,nan
0,207,0938,6,1,391,274,-0.0591907973189,0.475916278612,-0.303718712187,1,1.0,1.0,0.500220379792,0,0.0,0.0,0.447231718649,0.436765985645,0.145370316675,0.582136302319,0.29139566897,nan,nan,0.0,0.0,0.0,nan,nan,326.59496466,585.682545856,586.182766235,586.182593182,nan,nan
0,208,0939,6,1,104,73,1.0,-0.282351481576,-0.412644567278,1,1.0,1.0,0.395716918632,0,0.0,0.0,0.444199418339,0.437089732554,0.145069460248,0.582159192802,0.292020272305,nan,nan,0.0,0.0,0.0,nan,nan,326.59496466,586.682655048,587.078371966,587.182679281,nan,nan
0,209,0940,6,1,437,307,0.23613482661,0.429770237144,-1.0,1,1.0,1.0,0.435559339821,0,0.0,0.0,0.443832212749,0.43687971827,0.144730663332,0.581610381602,0.292149054937,nan,nan,0.0,0.0,0.0,nan,nan,326.59496466,587.682798737,588.118358077,588.182809286,nan,nan
0,210,0941,6,1,258,181,0.459642287315,0.26499291187,0.655490062901,1,1.0,1.0,0.435459270142,0,0.0,0.0,0.422245176199,0.436873049692,0.144364749566,0.581237799257,0.292508300126,nan,nan,0.0,0.0,0.0,nan,nan,326.59496466,588.682899661,589.118358932,589.182950124,nan,nan
0,211,0942,6,1,327,229,-0.128086156831,0.445480682368,0.344176439252,1,1.0,1.0,0.411233652383,0,0.0,0.0,0.427417420782,0.436865945272,0.14400160193,0.580867547202,0.292864343342,nan,nan,0.0,0.0,0.0,nan,nan,326.59496466,589.683072716,590.094306368,590.183099801,nan,nan
0,212,0943,6,1,175,123,1.0,-0.155629953633,0.290361762956,1,1.0,1.0,0.446921627969,0,0.0,0.0,0.431204850165,0.436737783807,0.143652524163,0.58039030797,0.293085259644,nan,nan,0.0,0.0,0.0,nan,nan,326.59496466,590.727389747,591.174311375,591.233217146,nan,nan
0,213,0944,6,1,82,57,1.0,-0.198479155091,-0.679872484948,1,1.0,1.0,0.513323476538,0,0.0,0.0,0.45715958563,0.436788449699,0.143296525432,0.580084975131,0.293491924266,nan,nan,0.0,0.0,0.0,nan,nan,326.59496466,591.724953301,592.238276778,592.225040256,nan,nan
0,214,0945,6,1,282,198,0.208142307666,0.34807905204,0.609295500931,1,1.0,1.0,0.609161674976,0,0.0,0.0,0.523135593161,0.43716733597,0.143042286669,0.580209622639,0.294125049301,nan,nan,0.0,0.0,0.0,nan,nan,326.59496466,592.725105829,593.334267504,593.225172541,nan,nan
0,215,0946,6,1,457,321,0.391639248186,0.390358177281,-1.0,1,1.0,1.0,0.500230929814,0,0.0,0.0,0.540905360443,0.438014598724,0.143196748369,0.581211347093,0.294817850355,nan,nan,0.0,0.0,0.0,nan,nan,326.59496466,593.725220152,594.225451082,594.225296274,nan,nan
0,216,0947,6,0,173,121,1.0,-0.165909522591,0.273535192888,0,1.0,0.0,0.424835668877,0,0.0,0.0,0.511409424556,0.438319580739,0.142911421419,0.581231002158,0.29540815932,nan,nan,0.0,0.0,0.0,nan,nan,326.59496466,594.725389216,595.150224885,595.225407177,nan,nan
0,217,0948,6,1,10,7,0.926811495151,0.168400576072,-1.0,1,nan,nan,nan,0,0.0,0.0,0.462533299346,0.438253805559,0.142565526242,0.580819331801,0.295688279318,nan,nan,0.0,0.0,0.0,nan,nan,326.59496466,595.725474745,nan,596.225552007,nan,nan
0,218,0949,6,1,333,234,-0.149813480994,0.453275949072,0.294183738108,1,1.0,1.0,0.536587173119,0,0.0,0.0,0.480711420998,0.438253805559,0.142565526242,0.580819331801,0.295688279318,nan,nan,0.0,0.0,0.0,nan,nan,326.59496466,596.725586789,597.262173962,597.225676594,nan,nan
0,219,0950,6,1,395,277,-0.0383984177995,0.474183508328,-0.351427224487,1,1.0,1.0,0.384456695057,0,0.0,0.0,0.460521934088,0.438731152004,0.142383200523,0.581114352526,0.296347951481,nan,nan,0.0,0.0,0.0,nan,nan,326.59496466,597.725735894,598.110192589,598.225756707,nan,nan
0,220,0951,6,1,257,180,0.470472903111,0.261039853404,0.655841377839,1,1.0,1.0,0.344314635731,0,0.0,0.0,0.421786167969,0.43846895656,0.142088706373,0.580557662933,0.296380250186,nan,nan,0.0,0.0,0.0,nan,nan,326.59496466,598.725863619,599.070178255,599.225884716,nan,nan
0,221,0952,6,1,439,308,0.251144291643,0.426392204401,-1.0,1,1.0,1.0,0.264180195518,0,0.0,0.0,0.330983842102,0.438016291556,0.141896273649,0.579912565204,0.296120017907,nan,nan,0.0,0.0,0.0,nan,nan,326.59496466,599.725975092,599.990155287,600.22601358,nan,nan
0,222,0953,6,1,366,257,-0.155593376329,0.477302029306,-0.0244766492797,1,1.0,1.0,0.296015928499,0,0.0,0.0,0.301503586583,0.4371845399,0.142063758762,0.579248298662,0.295120781138,nan,nan,0.0,0.0,0.0,nan,nan,326.59496466,600.72611536,601.022131288,601.226136742,nan,nan
0,223,0954,6,1,52,36,1.0,-0.0438860552364,-1.0,1,1.0,1.0,0.263919331133,0,1.0,0.0,0.274705151717,0.436512308417,0.142057918999,0.578570227416,0.294454389418,nan,nan,0.0,0.0,0.0,nan,nan,326.59496466,601.726252492,601.990171823,602.226269312,nan,nan
0,224,0959,6,1,126,88,1.0,-0.311411754845,-0.177408431044,1,1.0,1.0,0.359722463414,1,0.0,0.0,0.306552574349,0.435694332221,0.142215745464,0.577910077686,0.293478586757,173.938211211,393.0,-0.0489456633786,0.475102171109,-0.327443230616,-172.531961211,1.81723233871,326.59496466,602.726379075,603.086101539,603.226422125,604.559896772,606.385154329
0,225,1000,6,1,261,183,0.427225806086,0.276617811781,0.653674462902,1,1.0,1.0,0.412028219551,0,0.0,0.0,0.345223338033,0.43533597435,0.141975394031,0.577311368381,0.293360580319,nan,nan,0.0,0.0,0.0,nan,nan,326.59496466,607.601990325,608.014018545,608.102010282,nan,nan
0,226,1001,6,1,185,130,1.0,-0.102214474652,0.370299946716,1,1.0,1.0,0.315859307535,0,0.0,0.0,0.3625366635,0.435226548271,0.141650687082,0.576877235353,0.293575861189,nan,nan,0.0,0.0,0.0,nan,nan,326.59496466,608.602121755,608.917981063,609.102142853,nan,nan
0,227,1002,6,1,372,261,-0.138660017671,0.478458869494,-0.0888123791441,1,1.0,1.0,0.235782456584,0,0.0,0.0,0.32122332789,0.434668757426,0.141553617683,0.576222375109,0.293115139743,nan,nan,0.0,0.0,0.0,nan,nan,326.59496466,609.602248624,609.838031081,610.102280554,nan,nan
0,228,1003,6,1,0,0,0.846831709088,0.212097570855,-1.0,1,1.0,1.0,0.243625497445,0,1.0,0.0,0.265089087188,0.433743704864,0.141870905776,0.57561461064,0.291872799088,nan,nan,0.0,0.0,0.0,nan,nan,326.59496466,610.602390602,610.8460161,611.102409419,nan,nan
0,229,1008,6,1,298,209,0.0600896634305,0.391050340636,0.53969689008,1,1.0,1.0,0.211494687945,1,0.0,0.0,0.230300880658,0.432863527978,0.142129288509,0.574992816487,0.290734239469,140.257809169,441.0,0.266287261384,0.422891888867,-1.0,100.210940831,2.19216534123,326.59496466,611.602491242,611.81398593,612.102562801,613.436030606,615.636310971
0,230,1009,6,1,13,9,0.950262168777,0.154664060346,-1.0,1,1.0,1.0,0.536675839685,0,0.0,0.0,0.330598675025,0.431843395075,0.142591825416,0.57443522049,0.289251569659,nan,nan,0.0,0.0,0.0,nan,nan,326.59496466,616.85317006,617.389845899,617.353240764,nan,nan
0,231,1010,6,1,421,296,0.121471671064,0.452518040197,-0.712610339232,1,1.0,1.0,0.440517474897,0,0.0,0.0,0.396229334176,0.432324277848,0.142440659653,0.574764937501,0.289883618195,nan,nan,0.0,0.0,0.0,nan,nan,326.59496466,617.853302631,618.293820105,618.353324583,nan,nan
0,232,1011,6,1,231,162,0.749609680972,0.145151270079,0.620821461523,1,1.0,1.0,0.336370670237,0,0.0,0.0,0.437854661606,0.432361689707,0.14211615408,0.574477843786,0.290245535627,nan,nan,0.0,0.0,0.0,nan,nan,326.59496466,618.853437196,619.189807867,619.353449455,nan,nan
0,233,1012,6,1,291,204,0.122027637739,0.373441943191,0.573791926984,1,1.0,1.0,0.280240896158,0,0.0,0.0,0.352376347097,0.431925366891,0.141939738599,0.57386510549,0.289985628292,nan,nan,0.0,0.0,0.0,nan,nan,326.59496466,619.853572618,620.133813514,620.353583166,nan,nan
0,234,1013,6,1,383,269,-0.0968787136249,0.478131214543,-0.211081409456,1,1.0,1.0,0.248098968528,0,1.0,0.0,0.288236844974,0.43123901182,0.141983679768,0.573222691588,0.289255332051,nan,nan,0.0,0.0,0.0,nan,nan,326.59496466,620.85369635,621.101795319,621.353705188,nan,nan
0,235,1017,6,1,110,77,1.0,-0.296722754836,-0.346921960777,1,1.0,1.0,0.199942524545,1,0.0,0.0,0.24276079641,0.43041405667,0.142193386413,0.572607443082,0.288220670257,22.0740281087,97.0,1.0,-0.260369742894,-0.491718830742,-9.4177781087,1.22545307688,326.59496466,621.853829206,622.053771731,622.353873681,623.687348614,624.920853423
0,236,1018,6,1,338,237,-0.162891363375,0.458928707883,0.250399161362,1,1.0,1.0,0.668303508312,0,0.0,0.0,0.372115000462,0.429380552041,0.142707450488,0.572088002529,0.286673101554,nan,nan,0.0,0.0,0.0,nan,nan,326.59496466,626.129353444,626.797656952,626.629426714,nan,nan
0,237,1019,6,0,292,205,0.112881669716,0.376069582356,0.569261850688,0,0.0,1.0,0.588147399947,0,0.0,0.0,0.485464477601,0.430447172382,0.143276661718,0.5737238341,0.287170510664,nan,nan,0.0,0.0,0.0,nan,nan,326.59496466,627.129507967,627.717655367,627.62956071,nan,nan
0,238,1020,6,1,389,273,-0.0691208065164,0.476626077068,-0.280234315682,1,1.0,1.0,0.388060901314,0,0.0,0.0,0.548170603191,0.431148062282,0.143342263798,0.57449032608,0.287805798484,nan,nan,0.0,0.0,0.0,nan,nan,326.59496466,628.129592356,628.517653258,628.629633125,nan,nan
0,239,1021,6,1,108,75,1.0,-0.292426609412,-0.368663285579,1,1.0,1.0,0.395900521427,0,0.0,0.0,0.457369607563,0.430957411127,0.143053370846,0.574010781973,0.287904040281,nan,nan,0.0,0.0,0.0,nan,nan,326.59496466,629.129739751,629.525640273,629.629759708,nan,nan
0,240,1022,6,0,180,126,1.0,-0.129278616986,0.331238955499,0,1.0,0.0,0.299742442556,0,0.0,0.0,0.361234621766,0.43080297549,0.142756807675,0.573559783165,0.288046167815,nan,nan,0.0,0.0,0.0,nan,nan,326.59496466,630.129888573,630.429631015,630.629921929,nan,nan
0,241,1023,6,1,487,342,0.639529740128,0.306295026098,-1.0,1,1.0,1.0,0.307593466714,0,0.0,0.0,0.334412143566,0.430228148591,0.142706443556,0.572934592147,0.287521705035,nan,nan,0.0,0.0,0.0,nan,nan,326.59496466,631.12999748,631.437590946,631.630022569,nan,nan
0,242,1024,6,1,66,46,1.0,-0.118568705386,-1.0,1,1.0,1.0,0.315435652621,0,0.0,0.0,0.30759052063,0.429692625963,0.142623929271,0.572316555234,0.287068696692,nan,nan,0.0,0.0,0.0,nan,nan,326.59496466,632.130121782,632.445557435,632.630152288,nan,nan
0,243,1025,6,1,170,119,1.0,-0.180990482069,0.247815061387,1,1.0,1.0,0.323309483938,0,0.0,0.0,0.315446201091,0.429195856514,0.142511950796,0.57170780731,0.286683905717,nan,nan,0.0,0.0,0.0,nan,nan,326.59496466,633.130251787,633.453561271,633.630292841,nan,nan
0,244,1026,6,1,457,321,0.391639248186,0.390358177281,-1.0,1,1.0,1.0,0.419162223116,0,0.0,0.0,0.352635786558,0.428737473948,0.142372967529,0.571110441477,0.286364506419,nan,nan,0.0,0.0,0.0,nan,nan,326.59496466,634.130382932,634.549545155,634.630410586,nan,nan
0,245,1027,6,1,166,116,1.0,-0.20036215083,0.21267421211,1,1.0,1.0,0.386937615462,0,0.0,0.0,0.376469774172,0.428696201315,0.142067182766,0.570763384081,0.28662901855,nan,nan,0.0,0.0,0.0,nan,nan,326.59496466,635.13059533,635.517532946,635.630533749,nan,nan
0,246,1028,6,1,76,53,1.0,-0.169674511773,-0.773365826749,1,1.0,1.0,0.346864551306,0,0.0,0.0,0.384321463294,0.428516979917,0.141788270498,0.570305250415,0.286728709419,nan,nan,0.0,0.0,0.0,nan,nan,326.59496466,636.130630397,636.477494949,636.630652634,nan,nan
0,247,1029,6,1,400,281,-0.0107874812989,0.471427301814,-0.412692688905,1,1.0,1.0,0.290709688328,0,0.0,0.0,0.341503951699,0.428168037914,0.14158520294,0.569753240854,0.286582834975,nan,nan,0.0,0.0,0.0,nan,nan,326.59496466,637.130768099,637.421477787,637.630806873,nan,nan
0,248,1030,6,1,314,220,-0.0594438881467,0.42463230952,0.441925406839,1,1.0,1.0,0.330584609881,0,0.0,0.0,0.322719616505,0.427583108767,0.141566688326,0.569149797094,0.286016420441,nan,nan,0.0,0.0,0.0,nan,nan,326.59496466,638.130895253,638.461479863,638.630934026,nan,nan
0,249,1031,6,1,255,179,0.492159363509,0.253017189294,0.656163111527,1,1.0,1.0,0.314453490078,0,0.0,0.0,0.311915929429,0.427172098179,0.141406879937,0.568578978115,0.285765218242,nan,nan,0.0,0.0,0.0,nan,nan,326.59496466,639.131022122,639.445475612,639.631045214,nan,nan
0,250,1032,6,0,389,273,-0.0691208065164,0.476626077068,-0.280234315682,0,0.0,1.0,0.410278574564,0,0.0,0.0,0.351772224841,0.426696492237,0.141297268983,0.56799376122,0.285399223254,nan,nan,0.0,0.0,0.0,nan,nan,326.59496466,640.131165811,640.541444385,640.631200878,nan,nan
0,251,1033,6,1,324,227,-0.114799643766,0.441158325109,0.368064040095,1,1.0,1.0,0.346121585928,0,0.0,0.0,0.356951216857,0.42662750939,0.141004112731,0.567631622121,0.285623396659,nan,nan,0.0,0.0,0.0,nan,nan,326.59496466,641.131293249,641.477414835,641.631318623,nan,nan
0,252,1034,6,1,262,184,0.416452475899,0.2804144186,0.652815538838,1,1.0,1.0,0.353995703161,0,0.0,0.0,0.370131954551,0.426290664522,0.140804742096,0.567095406617,0.285485922426,nan,nan,0.0,0.0,0.0,nan,nan,326.59496466,642.131405008,642.485400711,642.631431522,nan,nan
0,253,1035,6,1,52,36,1.0,-0.0438860552364,-1.0,1,1.0,1.0,0.273888916709,0,0.0,0.0,0.324668735266,0.425989435516,0.14058824192,0.566577677436,0.285401193596,nan,nan,0.0,0.0,0.0,nan,nan,326.59496466,643.131510494,643.405399411,643.631562667,nan,nan
0,254,1036,6,1,468,329,0.481236483515,0.363131620867,-1.0,1,1.0,1.0,0.529713750817,0,0.0,0.0,0.385866123562,0.425358313031,0.140636541613,0.565994854644,0.284721771419,nan,nan,0.0,0.0,0.0,nan,nan,326.59496466,644.131643064,644.661356815,644.631720896,nan,nan
0,255,1037,6,1,54,37,1.0,-0.0546292063271,-1.0,1,1.0,1.0,0.401571687311,0,0.0,0.0,0.401724784945,0.425789533849,0.140505235555,0.566294769403,0.285284298294,nan,nan,0.0,0.0,0.0,nan,nan,326.59496466,645.131771074,645.533342761,645.631804145,nan,nan
0,256,1038,6,1,306,215,-0.00395437407881,0.408974006242,0.494128827808,1,1.0,1.0,0.321399328299,0,0.0,0.0,0.417561588809,0.425689871929,0.140224403125,0.565914275054,0.285465468804,nan,nan,0.0,0.0,0.0,nan,nan,326.59496466,646.131940992,646.45334032,646.631932724,nan,nan
0,257,1039,6,1,224,157,0.821619416966,0.11002478857,0.597264883709,1,1.0,1.0,0.31327888649,0,0.0,0.0,0.345416634033,0.425262451668,0.140095292026,0.565357743695,0.285167159642,nan,nan,0.0,0.0,0.0,nan,nan,326.59496466,647.132024241,647.445303127,647.632057027,nan,nan
0,258,1040,6,1,74,52,1.0,-0.159715158178,-0.810443278181,1,1.0,1.0,0.289110003971,0,0.0,0.0,0.307929406253,0.424805375892,0.139991278166,0.564796654058,0.284814097726,nan,nan,0.0,0.0,0.0,nan,nan,326.59496466,648.132170496,648.4212805,648.632191593,nan,nan
0,259,1041,6,1,228,160,0.780729811514,0.1302769546,0.611433142569,1,1.0,1.0,0.264978184365,0,0.0,0.0,0.289122358275,0.424253768689,0.139972995134,0.564226763823,0.284280773555,nan,nan,0.0,0.0,0.0,nan,nan,326.59496466,649.132289381,649.397267565,649.632312759,nan,nan
0,260,1042,6,1,132,92,1.0,-0.307426825298,-0.115555361894,1,1.0,1.0,0.400842976756,0,0.0,0.0,0.318310388364,0.423608928267,0.14005502228,0.563663950546,0.283553905987,nan,nan,0.0,0.0,0.0,nan,nan,326.59496466,650.132409693,650.533252669,650.632462435,nan,nan
0,261,1043,6,1,494,347,0.698129958021,0.282143999684,-1.0,1,1.0,1.0,0.320678601041,0,0.0,0.0,0.328833254054,0.423517130075,0.139779813707,0.563296943782,0.283737316368,nan,nan,0.0,0.0,0.0,nan,nan,326.59496466,651.132562505,651.453241106,651.632567352,nan,nan
0,262,1044,6,1,352,247,-0.17544712699,0.470851603012,0.118673592819,1,1.0,1.0,0.264545120299,0,0.0,0.0,0.328688899366,0.423104123934,0.139650389311,0.562754513245,0.283453734623,nan,nan,0.0,0.0,0.0,nan,nan,326.59496466,652.132684812,652.397229932,652.632707905,nan,nan
0,263,1045,6,1,241,169,0.64365311028,0.192605941253,0.644254782112,1,1.0,1.0,0.296397389844,0,0.0,0.0,0.293873703728,0.42246988792,0.139729681474,0.562199569394,0.282740206445,nan,nan,0.0,0.0,0.0,nan,nan,326.59496466,653.132805979,653.429203369,653.632826505,nan,nan
0,264,1046,6,1,45,31,1.0,-0.0063957592436,-1.0,1,1.0,1.0,0.238213770092,0,1.0,0.0,0.266385426745,0.421967607051,0.139677016766,0.561644623817,0.282290590285,nan,nan,0.0,0.0,0.0,nan,nan,326.59496466,654.182949554,654.421163324,654.682958107,nan,nan
0,265,1047,6,0,218,153,0.881467392804,0.0788246127756,0.572559633417,0,1.0,0.0,0.262099266984,0,0.0,0.0,0.265570142306,0.421238425158,0.139877474797,0.561115899955,0.281360950361,nan,nan,0.0,0.0,0.0,nan,nan,326.59496466,655.183073856,655.445173123,655.683113485,nan,nan
0,266,1048,6,1,105,73,1.0,-0.285049837405,-0.401580786678,1,1.0,1.0,0.35796312429,0,0.0,0.0,0.286092053788,0.420609416628,0.139957412729,0.560566829357,0.280652003899,nan,nan,0.0,0.0,0.0,nan,nan,326.59496466,656.183177347,656.541140472,656.683215835,nan,nan
0,267,1049,6,0,153,107,1.0,-0.255547855702,0.0926213922694,0,1.0,0.0,0.301773764193,0,0.0,0.0,0.307278718489,0.420362777682,0.139736713672,0.560099491353,0.28062606401,nan,nan,0.0,0.0,0.0,nan,nan,326.59496466,657.183366082,657.485139846,657.683373209,nan,nan
0,268,1050,6,1,273,191,0.299732959835,0.319577193062,0.635038033336,1,1.0,1.0,0.317676521838,0,0.0,0.0,0.325804470107,0.419897722727,0.13965926164,0.559556984366,0.280238461087,nan,nan,0.0,0.0,0.0,nan,nan,326.59496466,658.183447049,658.501123571,658.683490099,nan,nan
0,269,1051,6,1,199,139,1.0,-0.0246761787097,0.468786302982,1,1.0,1.0,0.373538873158,0,0.0,0.0,0.330996386396,0.419498421161,0.139531991796,0.559030412957,0.279966429365,nan,nan,0.0,0.0,0.0,nan,nan,326.59496466,659.183564795,659.557103668,659.683603283,nan,nan
0,270,1052,6,0,150,105,1.0,-0.266152531622,0.0638227105866,0,1.0,0.0,0.293397590518,0,0.0,0.0,0.328204328505,0.419319590235,0.139289655722,0.558609245957,0.280029934513,nan,nan,0.0,0.0,0.0,nan,nan,326.59496466,660.183684821,660.477082412,660.683754955,nan,nan
0,271,1053,6,1,342,240,-0.170052622031,0.462913557708,0.21407524247,1,1.0,1.0,0.501228772104,0,0.0,0.0,0.389388411927,0.418831520468,0.139239465197,0.558070985665,0.279592055272,nan,nan,0.0,0.0,0.0,nan,nan,326.59496466,661.183817106,661.685045878,661.68390121,nan,nan
0,272,1054,6,0,437,307,0.23613482661,0.429770237144,-1.0,0,1.0,0.0,0.365088859573,0,0.0,0.0,0.386571740732,0.419149656575,0.139064320692,0.558213977267,0.280085335883,nan,nan,0.0,0.0,0.0,nan,nan,326.59496466,662.1839588,662.549047659,662.684007552,nan,nan
0,273,1055,6,1,486,341,0.631151757674,0.309603058574,-1.0,1,0.0,0.0,0.125004276633,0,0.0,0.0,0.330440636103,0.418941730433,0.13883696331,0.557778693743,0.280104767123,nan,nan,0.0,0.0,0.0,nan,nan,326.59496466,663.184084528,663.309088805,663.684116459,nan,nan
0,274,1056,6,1,89,62,1.0,-0.229484098413,-0.587370487375,1,1.0,1.0,0.732769257389,0,0.0,0.0,0.407620797865,0.417815533292,0.139755544847,0.557571078138,0.278059988445,nan,nan,0.0,0.0,0.0,nan,nan,326.59496466,664.184208546,664.916977803,664.684279535,nan,nan
0,275,1057,6,1,201,141,1.0,-0.0135712615467,0.48142235136,1,1.0,1.0,0.620625458658,0,0.0,0.0,0.492799664227,0.419017646743,0.140834048469,0.559851695211,0.278183598274,nan,nan,0.0,0.0,0.0,nan,nan,326.59496466,665.184339691,665.80496515,665.684418092,nan,nan
0,276,1058,6,1,262,184,0.416452475899,0.2804144186,0.652815538838,1,1.0,1.0,0.50048780255,0,0.0,1.0,0.617960839532,0.41978421637,0.141112624113,0.560896840483,0.278671592256,nan,nan,0.0,0.0,0.0,nan,nan,326.59496466,666.18446998,666.684957783,666.684518162,nan,nan
0,277,1104,6,1,135,94,1.0,-0.303502321856,-0.0849788702499,1,1.0,1.0,0.668326601386,1,0.0,0.0,0.596479954198,0.420089911772,0.140932334049,0.56102224582,0.279157577723,-56.5272352735,208.0,0.97651257568,0.025020743352,0.522574479073,51.6053602735,2.72565692198,326.59496466,667.18460084,667.852927442,667.684624503,669.018117967,671.751800393
0,278,1105,6,1,42,29,1.0,0.00954878589686,-1.0,1,1.0,1.0,0.524494749494,0,0.0,0.0,0.564436384477,0.421026653997,0.141487202359,0.562513856356,0.279539451638,nan,nan,0.0,0.0,0.0,nan,nan,326.59496466,672.960352872,673.484847621,673.460398772,nan,nan
0,279,1106,6,1,256,180,0.481312611765,0.257047908656,0.656065722404,1,1.0,1.0,0.356344054453,0,0.0,0.0,0.516388468444,0.421415631799,0.141362887345,0.562778519144,0.280052744455,nan,nan,0.0,0.0,0.0,nan,nan,326.59496466,673.960466625,674.31681068,674.460475463,nan,nan
0,280,1107,6,1,51,35,1.0,-0.0385160204876,-1.0,1,1.0,1.0,0.252204091288,0,0.0,0.0,0.377680965078,0.421171918027,0.141153890913,0.56232580894,0.280018027113,nan,nan,0.0,0.0,0.0,nan,nan,326.59496466,674.960604043,675.212808134,675.460635973,nan,nan
0,281,1108,6,1,228,160,0.780729811514,0.1302769546,0.611433142569,1,1.0,1.0,0.260073076002,0,0.0,0.0,0.289540407248,0.420541441061,0.141266446431,0.561807887492,0.27927499463,nan,nan,0.0,0.0,0.0,nan,nan,326.59496466,675.960723784,676.22079686,676.460739464,nan,nan
0,282,1109,6,1,121,85,1.0,-0.310732805591,-0.229640808446,1,1.0,1.0,0.227999001741,0,1.0,0.0,0.246758723011,0.419944904388,0.141341401032,0.56128630542,0.278603503356,nan,nan,0.0,0.0,0.0,nan,nan,326.59496466,676.960835257,677.188834258,677.460870894,nan,nan
0,283,1114,6,1,283,198,0.19826868328,0.351050922538,0.605825948857,1,1.0,1.0,0.131802719086,1,0.0,0.0,0.206624932277,0.419233993637,0.14156041932,0.560794412957,0.277673574318,-88.703936502,254.0,0.503011129055,0.248947817922,0.65613358125,-20.280438498,2.3422508128,326.59496466,677.960987214,678.092789933,678.461042237,679.786165229,682.13645409
0,284,1115,6,1,184,129,1.0,-0.107671891867,0.362640045218,1,1.0,1.0,0.571320641786,0,0.0,0.0,0.310374120871,0.418173361628,0.142369730766,0.560543092394,0.275803630862,nan,nan,0.0,0.0,0.0,nan,nan,326.59496466,683.353326579,683.92464722,683.85338873,nan,nan
0,285,1116,6,1,38,26,1.0,0.0306259494545,-1.0,1,1.0,1.0,0.44317971915,0,0.0,0.0,0.382101026674,0.418736403099,0.142409734902,0.561146138001,0.276326668198,nan,nan,0.0,0.0,0.0,nan,nan,326.59496466,684.353454587,684.796634306,684.853490225,nan,nan
0,286,1117,6,1,483,339,0.606025706087,0.319314454546,-1.0,1,1.0,1.0,0.259042447433,0,0.0,0.0,0.424514269456,0.418825939055,0.14215634164,0.560982280696,0.276669597415,nan,nan,0.0,0.0,0.0,nan,nan,326.59496466,685.353585447,685.612627895,685.853599417,nan,nan
0,287,1118,6,1,34,23,1.0,0.0514419701458,-1.0,1,1.0,1.0,0.154938692227,0,0.0,0.0,0.28572028627,0.418242787626,0.142223450939,0.560466238565,0.276019336688,nan,nan,0.0,0.0,0.0,nan,nan,326.59496466,686.353715452,686.508654145,686.853746528,nan,nan
0,288,1119,6,1,410,288,0.0492046846968,0.463921527344,-0.54316189137,1,nan,nan,nan,0,0.0,0.0,0.20699056983,0.417285318188,0.142846576058,0.560131894247,0.27443874213,nan,nan,0.0,0.0,0.0,nan,nan,326.59496466,687.353831202,nan,687.853904187,nan,nan
0,289,1120,6,1,192,135,1.0,-0.0635997558896,0.421658406928,1,1.0,1.0,0.0666085444391,0,0.0,0.0,0.110773618333,0.417285318188,0.142846576058,0.560131894247,0.27443874213,nan,nan,0.0,0.0,0.0,nan,nan,326.59496466,688.353970329,688.420578874,688.853990287,nan,nan
0,290,1121,6,1,308,216,-0.0186828559465,0.413097475488,0.481682330771,1,1.0,1.0,0.0824802257121,0,0.0,0.0,0.0745443850756,0.416014750168,0.144135897543,0.560150647711,0.271878852624,nan,nan,0.0,0.0,0.0,nan,nan,326.59496466,689.354092066,689.436572292,689.854155358,nan,nan
0,291,1122,6,1,57,40,1.0,-0.0707313323512,-1.0,1,1.0,1.0,0.0903420830145,0,1.0,0.0,0.0798102843886,0.414810654411,0.145259471474,0.560070125885,0.269551182938,nan,nan,0.0,0.0,0.0,nan,nan,326.59496466,690.354216939,690.444559022,690.854283366,nan,nan
0,292,1129,6,1,269,189,0.34171296506,0.305888347675,0.643262349404,1,1.0,1.0,0.410175370052,1,0.0,0.0,0.194332559593,0.413643501277,0.146293389824,0.559936891101,0.267350111453,-132.666353576,317.0,-0.077772836126,0.429938605076,0.420733606481,33.5257285762,3.36737648398,326.59496466,691.354339246,691.764514616,691.854367755,693.187870912,696.563296849
0,293,1130,6,1,346,243,-0.174317561957,0.466431294057,0.176670174816,1,1.0,1.0,0.616240084171,0,0.0,0.0,0.372252512413,0.413631070699,0.146031127025,0.559662197724,0.267599943674,nan,nan,0.0,0.0,0.0,nan,nan,326.59496466,697.780158218,698.396398302,698.280234625,nan,nan
0,294,1131,6,1,226,158,0.801265930663,0.120208988367,0.60458276857,1,1.0,1.0,0.304125822149,0,0.0,0.0,0.443513758791,0.414354674319,0.146270345721,0.56062502004,0.268084328597,nan,nan,0.0,0.0,0.0,nan,nan,326.59496466,698.780283376,699.084409198,699.280322719,nan,nan
0,295,1132,6,1,0,0,0.846831709088,0.212097570855,-1.0,1,1.0,1.0,0.247974379919,0,0.0,0.0,0.38944676208,0.413962400823,0.146157316533,0.560119717356,0.26780508429,nan,nan,0.0,0.0,0.0,nan,nan,326.59496466,699.780408819,700.028383199,700.280449018,nan,nan
0,296,1133,6,1,478,336,0.56422249903,0.334793662244,-1.0,1,1.0,1.0,0.311839713715,0,0.0,0.0,0.287979971928,0.41337379082,0.146231204907,0.559604995727,0.267142585913,nan,nan,0.0,0.0,0.0,nan,nan,326.59496466,700.7805297,701.092369414,701.28057161,nan,nan
0,297,1134,6,1,405,284,0.018463324075,0.468009379796,-0.476293327428,1,1.0,1.0,0.343686280772,0,0.0,0.0,0.301166791469,0.413015013162,0.146096900802,0.559111913965,0.26691811236,nan,nan,0.0,0.0,0.0,nan,nan,326.59496466,701.78066113,702.124347411,702.280696482,nan,nan
0,298,1135,6,0,341,239,-0.168535884224,0.46196150489,0.223260112086,0,1.0,0.0,0.311534089036,0,0.0,0.0,0.322353361174,0.412770897908,0.14589726876,0.558668166667,0.266873629148,nan,nan,0.0,0.0,0.0,nan,nan,326.59496466,702.780825062,703.092359151,703.280868682,nan,nan
0,299,1136,6,1,397,279,-0.0275613476434,0.473159987783,-0.37569455347,1,1.0,1.0,0.327387807891,0,0.0,0.0,0.327536059233,0.412415681034,0.145764056304,0.558179737338,0.26665162473,nan,nan,0.0,0.0,0.0,nan,nan,326.59496466,703.780927412,704.10831522,704.280955066,nan,nan
0,300,1137,6,1,55,38,1.0,-0.0599996532909,-1.0,1,1.0,1.0,0.319226027466,0,0.0,0.0,0.319382641464,0.412118380779,0.145595534827,0.557713915605,0.266522845952,nan,nan,0.0,0.0,0.0,nan,nan,326.59496466,704.781075663,705.10030169,705.281087637,nan,nan
0,301,1138,6,1,389,273,-0.0691208065164,0.476626077068,-0.280234315682,1,1.0,1.0,0.367058314383,0,0.0,0.0,0.33789071658,0.411794714042,0.145444698531,0.557239412573,0.266350015511,nan,nan,0.0,0.0,0.0,nan,nan,326.59496466,705.781199966,706.14825828,706.281246437,nan,nan
0,302,1139,6,1,43,30,1.0,0.00424534395127,-1.0,1,1.0,1.0,0.334917812608,0,0.0,0.0,0.340400718153,0.411639379321,0.145215816537,0.556855195858,0.266423562784,nan,nan,0.0,0.0,0.0,nan,nan,326.59496466,706.781316285,707.116234098,707.281332821,nan,nan
0,303,1140,6,1,405,284,0.018463324075,0.468009379796,-0.476293327428,1,1.0,1.0,0.614894422702,0,0.0,0.0,0.438956849898,0.411373906772,0.145034350335,0.556408257107,0.266339556437,nan,nan,0.0,0.0,0.0,nan,nan,326.59496466,707.781440588,708.39633501,708.28150559,nan,nan
0,304,1141,6,0,115,80,1.0,-0.305166285737,-0.293172749504,0,0.0,1.0,0.662605258636,0,0.0,0.0,0.537472497982,0.412075701655,0.145274793283,0.557350494937,0.266800908372,nan,nan,0.0,0.0,0.0,nan,nan,326.59496466,708.781586558,709.444191816,709.281630463,nan,nan
0,305,1142,6,1,3,2,0.871087178923,0.199335109687,-1.0,1,1.0,1.0,0.486512307078,0,0.0,0.0,0.588003996139,0.412936627967,0.145764148162,0.558700776129,0.267172479806,nan,nan,0.0,0.0,0.0,nan,nan,326.59496466,709.781697746,710.268210053,710.281721694,nan,nan
0,306,1143,6,1,413,290,0.0683106243366,0.461143133648,-0.585495598612,1,1.0,1.0,0.606306705624,0,0.0,0.0,0.585141423779,0.413188599471,0.145577807497,0.558766406968,0.267610791974,nan,nan,0.0,0.0,0.0,nan,nan,326.59496466,710.78185455,711.388161256,711.281888477,nan,nan
0,307,1144,6,1,324,227,-0.114799643766,0.441158325109,0.368064040095,1,1.0,1.0,0.406188276596,0,0.0,0.0,0.499669096433,0.413847705635,0.145764941734,0.55961264737,0.268082763901,nan,nan,0.0,0.0,0.0,nan,nan,326.59496466,711.781948062,712.188136338,712.281984555,nan,nan
0,308,1145,6,1,90,63,1.0,-0.233635786423,-0.574971871003,1,1.0,1.0,0.534081164747,0,0.0,0.0,0.515525382323,0.413821653156,0.145517514331,0.559339167487,0.268304138825,nan,nan,0.0,0.0,0.0,nan,nan,326.59496466,712.782065237,713.316146402,713.282141929,nan,nan
0,309,1146,6,1,303,213,0.0191349273956,0.402522842081,0.512018356663,1,1.0,1.0,0.477924589999,0,0.0,0.0,0.472731343781,0.414229312517,0.145438732356,0.559668044873,0.268790580161,nan,nan,0.0,0.0,0.0,nan,nan,326.59496466,713.782194672,714.260119262,714.282245704,nan,nan
0,310,1147,6,1,445,312,0.296953900578,0.415520102116,-1.0,1,1.0,1.0,0.461461901665,0,0.0,0.0,0.49115588547,0.414444499265,0.145239884498,0.559684383763,0.269204614768,nan,nan,0.0,0.0,0.0,nan,nan,326.59496466,714.790655805,715.252117706,715.290690017,nan,nan
0,311,1148,6,1,57,40,1.0,-0.0707313323512,-1.0,1,1.0,1.0,0.365293844603,0,0.0,0.0,0.434893445422,0.414602807017,0.145020745194,0.559623552211,0.269582061823,nan,nan,0.0,0.0,0.0,nan,nan,326.59496466,715.79080149,716.156095334,716.290836842,nan,nan
0,312,1149,6,1,355,249,-0.173737462994,0.472683863687,0.0888799762457,1,1.0,1.0,0.277141312137,0,0.0,0.0,0.367965686135,0.414437340701,0.144805297724,0.559242638425,0.269632042977,nan,nan,0.0,0.0,0.0,nan,nan,326.59496466,716.790924937,717.06806625,717.290944324,nan,nan
0,313,1150,6,1,444,312,0.289241202529,0.417409780569,-1.0,1,1.0,1.0,0.308977331966,0,0.0,0.0,0.317137496235,0.413978156659,0.144780104066,0.558758260725,0.269198052592,nan,nan,0.0,0.0,0.0,nan,nan,326.59496466,717.791074043,718.100051375,718.291072333,nan,nan
0,314,1151,6,1,494,347,0.698129958021,0.282143999684,-1.0,1,1.0,1.0,0.308870989829,0,0.0,0.0,0.298329877978,0.41362815391,0.144665253881,0.55829340779,0.268962900029,nan,nan,0.0,0.0,0.0,nan,nan,326.59496466,718.79116385,719.100034839,719.291216307,nan,nan
0,315,1152,6,1,49,34,1.0,-0.027785429985,-1.0,1,1.0,1.0,0.300740285777,0,0.0,0.0,0.306196202524,0.413280123464,0.144550492493,0.557830615957,0.268729630971,nan,nan,0.0,0.0,0.0,nan,nan,326.59496466,719.791294994,720.09203528,720.291321794,nan,nan
0,316,1153,6,1,312,219,-0.0464483572634,0.420925197877,0.455573212045,1,1.0,1.0,0.268536205404,0,0.0,0.0,0.292715827003,0.412907474995,0.144455721878,0.557363196873,0.268451753117,nan,nan,0.0,0.0,0.0,nan,nan,326.59496466,720.791454649,721.059990854,721.291453224,nan,nan
0,317,1154,6,1,234,164,0.71814774995,0.15974031316,0.62913160129,1,1.0,1.0,0.25242732279,0,0.0,0.0,0.273901271323,0.412431002158,0.144454657436,0.556885659594,0.267976344723,nan,nan,0.0,0.0,0.0,nan,nan,326.59496466,721.791556999,722.043984322,722.291582658,nan,nan
0,318,1155,6,1,163,114,1.0,-0.214247802105,0.185723682048,1,1.0,1.0,0.308289675042,0,0.0,0.0,0.276417734412,0.411904674265,0.144507589762,0.556412264027,0.267397084504,nan,nan,0.0,0.0,0.0,nan,nan,326.59496466,722.791668473,723.099958148,723.291710096,nan,nan
0,319,1156,6,1,72,50,1.0,-0.149607777062,-0.853203742106,1,1.0,1.0,0.268143340014,0,0.0,0.0,0.276286779282,0.411564952956,0.144392040236,0.555956993192,0.267172912721,nan,nan,0.0,0.0,0.0,nan,nan,326.59496466,723.791803324,724.059946664,724.291837821,nan,nan
0,320,1157,6,1,285,200,0.178734351563,0.356878681702,0.598527012995,1,1.0,1.0,0.244103321806,0,0.0,0.0,0.273512112287,0.411096254875,0.144388118809,0.555484373684,0.266708136066,nan,nan,0.0,0.0,0.0,nan,nan,326.59496466,724.791920784,725.036024106,725.291968966,nan,nan
0,321,1158,6,1,114,80,1.0,-0.303747463913,-0.303859371662,1,1.0,1.0,0.187930498272,0,1.0,0.0,0.233392386697,0.410552303953,0.144466467969,0.555018771922,0.266085835984,nan,nan,0.0,0.0,0.0,nan,nan,326.59496466,725.792061907,725.979992406,726.292103532,nan,nan
0,322,1159,6,1,371,260,-0.14179360683,0.478331938097,-0.0779732583494,1,nan,nan,nan,0,0.0,0.0,0.216016910039,0.409829505883,0.14478669477,0.554616200652,0.265042811113,nan,nan,0.0,0.0,0.0,nan,nan,326.59496466,726.79218621,nan,727.292263472,nan,nan
0,323,1200,6,1,137,96,1.0,-0.300190217086,-0.0647316600203,1,1.0,1.0,0.331558789127,0,0.0,0.0,0.259744643699,0.409829505883,0.14478669477,0.554616200652,0.265042811113,nan,nan,0.0,0.0,0.0,nan,nan,326.59496466,727.792315359,728.123874148,728.292342444,nan,nan
0,324,1201,6,1,215,151,0.910639861846,0.0628947364355,0.558695148714,1,1.0,1.0,0.235439484008,0,0.0,0.0,0.283499136567,0.409576202592,0.144620562234,0.554196764826,0.264955640358,nan,nan,0.0,0.0,0.0,nan,nan,326.59496466,728.792451066,729.02789055,729.292503239,nan,nan
0,325,1202,6,1,122,85,1.0,-0.311159539646,-0.219144224573,1,1.0,1.0,0.261533346958,0,0.0,0.0,0.276177206698,0.409014471242,0.144724363691,0.553738834932,0.264290107551,nan,nan,0.0,0.0,0.0,nan,nan,326.59496466,729.93436592,730.195899267,730.434283527,nan,nan
0,326,1203,6,1,488,343,0.647907709101,0.302951493728,-1.0,1,1.0,1.0,0.189468884841,0,1.0,0.0,0.228813905269,0.408540255408,0.144732535138,0.553272790547,0.26380772027,nan,nan,0.0,0.0,0.0,nan,nan,326.59496466,730.934374473,731.123843358,731.434434628,nan,nan
0,327,1208,6,1,293,206,0.103830259013,0.378659598285,0.564617056734,1,1.0,1.0,0.253321960568,1,0.0,0.0,0.234774730789,0.407838103579,0.145029981829,0.552868085408,0.262808121751,-113.459024081,289.0,0.140592130943,0.368073254824,0.582505265782,-2.55660091854,1.97556397971,326.59496466,731.934531276,732.187853237,732.434546957,733.759723832,735.743321014
0,328,1209,6,1,105,73,1.0,-0.285049837405,-0.401580786678,1,1.0,1.0,0.579871010035,0,0.0,0.0,0.340887285148,0.407344441781,0.145060436849,0.55240487863,0.262284004931,nan,nan,0.0,0.0,0.0,nan,nan,326.59496466,736.951833864,737.531704874,737.451894019,nan,nan
0,329,1210,6,1,188,132,1.0,-0.0857393506835,0.392804289229,1,1.0,1.0,0.603726570494,0,0.0,0.0,0.478973180366,0.40789388945,0.145155118198,0.553049007648,0.262738771252,nan,nan,0.0,0.0,0.0,nan,nan,326.59496466,737.951958451,738.555685022,738.452019462,nan,nan
0,330,1211,6,0,384,270,-0.0924750057551,0.477945316949,-0.222479273925,0,0.0,1.0,0.467578390613,0,0.0,0.0,0.550391990381,0.408515580501,0.145342630874,0.553858211375,0.263172949627,nan,nan,0.0,0.0,0.0,nan,nan,326.59496466,738.952099575,739.419677965,739.452134642,nan,nan
0,331,1212,6,1,463,325,0.440238315199,0.376011795327,-1.0,1,1.0,1.0,0.41144662071,0,0.0,0.0,0.494250527273,0.408702488128,0.145150387816,0.553852875944,0.263552100312,nan,nan,0.0,0.0,0.0,nan,nan,326.59496466,739.952213613,740.363660234,740.452250961,nan,nan
0,332,1213,6,0,78,54,1.0,-0.179467652321,-0.739907630878,0,0.0,1.0,0.459289170802,0,0.0,0.0,0.446104727375,0.408711144698,0.144921344845,0.553632489543,0.263789799852,nan,nan,0.0,0.0,0.0,nan,nan,326.59496466,740.952355308,741.411644478,741.452387809,nan,nan
0,333,1214,6,1,494,347,0.698129958021,0.282143999684,-1.0,1,1.0,1.0,0.283193940297,0,0.0,0.0,0.384643243936,0.408870195094,0.144721009904,0.553591204999,0.26414918519,nan,nan,0.0,0.0,0.0,nan,nan,326.59496466,741.952471912,742.235665852,742.45250812,nan,nan
0,334,1215,6,1,307,215,-0.0113868739462,0.411053355611,0.487957006857,1,0.0,0.0,0.2989843674,0,0.0,0.0,0.347155826166,0.408476225643,0.144664689518,0.553140915161,0.263811536125,nan,nan,0.0,0.0,0.0,nan,nan,326.59496466,742.952615887,743.251600254,743.452637269,nan,nan
0,335,1216,6,1,234,164,0.71814774995,0.15974031316,0.62913160129,1,1.0,1.0,0.0268197217956,0,1.0,0.0,0.202999343164,0.408134063586,0.144567699285,0.552701762872,0.263566364301,nan,nan,0.0,0.0,0.0,nan,nan,326.59496466,743.952738194,743.979557916,744.452794928,nan,nan
0,336,1217,6,1,361,253,-0.166047812515,0.475607712818,0.0278173107143,1,nan,nan,nan,0,0.0,0.0,0.162902044598,0.406946168441,0.145898120498,0.552844288939,0.261048047942,nan,nan,0.0,0.0,0.0,nan,nan,326.59496466,744.952848527,nan,745.452912673,nan,nan
0,337,1218,6,1,309,217,-0.0258396312562,0.415106541901,0.475305697888,1,1.0,1.0,0.594558109529,0,0.0,0.0,0.310688915662,0.406946168441,0.145898120498,0.552844288939,0.261048047942,nan,nan,0.0,0.0,0.0,nan,nan,326.59496466,745.95297568,746.54753379,746.453041538,nan,nan
0,338,1219,6,1,479,336,0.572572153349,0.331768222426,-1.0,1,1.0,1.0,0.466424885206,0,0.0,0.0,0.530491497368,0.40752881422,0.146044948533,0.553573762754,0.261483865687,nan,nan,0.0,0.0,0.0,nan,nan,326.59496466,746.953117658,747.419542544,747.453142747,nan,nan
0,339,1220,6,1,2,1,0.863024578927,0.203622855609,-1.0,1,1.0,1.0,0.514275417663,0,0.0,0.0,0.525086137466,0.407711154998,0.145855402541,0.553566557539,0.261855752456,nan,nan,0.0,0.0,0.0,nan,nan,326.59496466,747.95323797,748.467513388,748.453296131,nan,nan
0,340,1221,6,1,302,212,0.027086081288,0.400300843718,0.517770016443,1,1.0,1.0,0.354143953882,0,0.0,0.0,0.444948085584,0.408040057043,0.145750058683,0.553790115726,0.26228999836,nan,nan,0.0,0.0,0.0,nan,nan,326.59496466,748.953364269,749.307508223,749.453399906,nan,nan
0,341,1222,6,1,113,79,1.0,-0.302191989669,-0.314576349441,1,1.0,1.0,0.322006586939,0,0.0,0.0,0.396808652828,0.407874222879,0.145556266091,0.55343048897,0.262317956788,nan,nan,0.0,0.0,0.0,nan,nan,326.59496466,749.953490281,750.275496868,750.453510239,nan,nan
0,342,1223,6,1,312,219,-0.0464483572634,0.420925197877,0.455573212045,1,1.0,1.0,0.281847422011,0,0.0,0.0,0.319332654277,0.407610825223,0.145410401629,0.553021226852,0.262200423594,nan,nan,0.0,0.0,0.0,nan,nan,326.59496466,750.953620572,751.235467994,751.453633116,nan,nan
0,343,1224,6,1,403,283,0.00657627305109,0.469456436931,-0.450524507496,1,1.0,1.0,0.273689634167,0,0.0,0.0,0.292514547706,0.40722622766,0.14535385846,0.55258008612,0.261872369199,nan,nan,0.0,0.0,0.0,nan,nan,326.59496466,751.953751431,752.227441065,752.453757988,nan,nan
0,344,1225,6,1,265,186,0.384259149088,0.291568309415,0.649478858709,1,1.0,1.0,0.273535965011,0,0.0,0.0,0.276357673729,0.406819103899,0.145318720354,0.552137824253,0.261500383545,nan,nan,0.0,0.0,0.0,nan,nan,326.59496466,752.953885998,753.227421963,753.453919354,nan,nan
0,345,1226,6,0,349,245,-0.175656888649,0.468768509344,0.147945183432,0,1.0,0.0,0.249414408579,0,0.0,0.0,0.265546669252,0.406413987975,0.145283083894,0.551697071869,0.261130904081,nan,nan,0.0,0.0,0.0,nan,nan,326.59496466,753.954017428,754.203431836,754.454051069,nan,nan
0,346,1227,6,1,273,191,0.299732959835,0.319577193062,0.635038033336,1,1.0,1.0,0.577276334167,0,0.0,0.0,0.366742235919,0.405938231674,0.1453192366,0.551257468274,0.260618995074,nan,nan,0.0,0.0,0.0,nan,nan,326.59496466,754.954108374,755.531384708,755.454189627,nan,nan
0,347,1228,6,1,197,138,1.0,-0.035797595552,0.455774741445,1,1.0,1.0,0.473112708889,0,0.0,0.0,0.433267817212,0.406455869446,0.145403933963,0.551859803409,0.261051935483,nan,nan,0.0,0.0,0.0,nan,nan,326.59496466,755.954268599,756.427381308,756.454265462,nan,nan
0,348,1229,6,1,153,107,1.0,-0.255547855702,0.0926213922694,1,1.0,1.0,0.280988708138,0,0.0,0.0,0.443792583731,0.406656643059,0.145230730211,0.55188737327,0.261425912848,nan,nan,0.0,0.0,0.0,nan,nan,326.59496466,756.954375795,757.235364503,757.454396037,nan,nan
0,349,1230,6,1,336,236,-0.158211608236,0.456758111158,0.268135266647,1,1.0,1.0,0.344852331094,0,0.0,0.0,0.366317916041,0.406279261873,0.145175438905,0.551454700777,0.261103822968,nan,nan,0.0,0.0,0.0,nan,nan,326.59496466,757.954492115,758.299344447,758.454551131,nan,nan
0,350,1231,6,1,412,289,0.0618891196837,0.462096609288,-0.571158935758,1,1.0,1.0,0.336678575724,0,0.0,0.0,0.320839871652,0.406095348906,0.14499679281,0.551092141716,0.261098556097,nan,nan,0.0,0.0,0.0,nan,nan,326.59496466,758.954639511,759.291318087,759.454653481,nan,nan
0,351,1232,6,1,484,340,0.614398947124,0.316112737715,-1.0,1,1.0,1.0,0.304511274211,0,0.0,0.0,0.32868072701,0.405888134658,0.144829736981,0.55071787164,0.261058397677,nan,nan,0.0,0.0,0.0,nan,nan,326.59496466,759.954811425,760.259322699,760.454794319,nan,nan
0,352,1233,6,1,94,66,1.0,-0.249439013202,-0.526745155233,1,1.0,1.0,0.432401880622,0,0.0,0.0,0.357863910186,0.405586417812,0.144719457054,0.550305874865,0.260866960758,nan,nan,0.0,0.0,0.0,nan,nan,326.59496466,760.954897525,761.387299405,761.454910354,nan,nan
0,353,1234,6,1,355,249,-0.173737462994,0.472683863687,0.0888799762457,1,1.0,1.0,0.384255130775,0,0.0,0.0,0.373722761869,0.405665988918,0.144511941076,0.550177929994,0.261154047842,nan,nan,0.0,0.0,0.0,nan,nan,326.59496466,761.955028099,762.33928323,762.455036652,nan,nan
0,354,1235,6,1,115,80,1.0,-0.305166285737,-0.293172749504,1,1.0,1.0,0.368084667251,0,0.0,0.0,0.394913892883,0.405602643184,0.144302693285,0.549905336469,0.261299949898,nan,nan,0.0,0.0,0.0,nan,nan,326.59496466,762.955177206,763.323261873,763.455167512,nan,nan
0,355,1236,6,0,373,262,-0.135407706169,0.478559568072,-0.0996974893599,0,1.0,0.0,0.255951131694,0,0.0,0.0,0.336096976573,0.405491970688,0.144104065459,0.549596036147,0.261387905229,nan,nan,0.0,0.0,0.0,nan,nan,326.59496466,763.95529153,764.211242662,764.45532061,nan,nan
0,356,1237,6,1,320,225,-0.0946500390753,0.43494401576,0.398701238857,1,1.0,1.0,0.60779976286,0,0.0,0.0,0.410611853935,0.405052144691,0.144119685563,0.549171830254,0.260932459128,nan,nan,0.0,0.0,0.0,nan,nan,326.59496466,764.955407565,765.563207327,765.455468006,nan,nan
0,357,1238,6,1,184,129,1.0,-0.107671891867,0.362640045218,1,1.0,1.0,0.543649617583,0,0.0,0.0,0.469133504046,0.405646712486,0.144325212457,0.549971924943,0.26132150003,nan,nan,0.0,0.0,0.0,nan,nan,326.59496466,765.955529871,766.499179489,766.455590027,nan,nan
0,358,1239,6,1,394,277,-0.0437090198531,0.474655926729,-0.339401417396,1,1.0,1.0,0.407551328652,0,0.0,0.0,0.519666903031,0.406050229753,0.144306565783,0.550356795536,0.261743663969,nan,nan,0.0,0.0,0.0,nan,nan,326.59496466,766.955662442,767.363213771,767.455678978,nan,nan
0,359,1240,6,1,347,243,-0.174938837379,0.46723881498,0.167157479366,1,1.0,1.0,0.351346288808,0,0.0,0.0,0.434182411681,0.406054606134,0.14409607554,0.550150681674,0.261958530595,nan,nan,0.0,0.0,0.0,nan,nan,326.59496466,767.955808697,768.307154986,768.45581668,nan,nan
0,360,1241,6,1,431,303,0.191957257768,0.43918128748,-0.982298765802,1,1.0,1.0,0.535211006179,0,0.0,0.0,0.431369541213,0.405895570328,0.143916624276,0.549812194604,0.261978946052,nan,nan,0.0,0.0,0.0,nan,nan,326.59496466,768.955919315,769.491130321,769.45597719,nan,nan
0,361,1242,6,1,384,270,-0.0924750057551,0.477945316949,-0.222479273925,1,1.0,1.0,0.423088589683,0,0.0,0.0,0.436548628223,0.406270397679,0.143875955052,0.550146352731,0.262394442626,nan,nan,0.0,0.0,0.0,nan,nan,326.59496466,769.956049605,770.379138195,770.456080966,nan,nan
0,362,1243,6,0,170,119,1.0,-0.180990482069,0.247815061387,0,1.0,0.0,0.302926985547,0,0.0,0.0,0.42040886047,0.40631900517,0.143670728197,0.549989733367,0.262648276973,nan,nan,0.0,0.0,0.0,nan,nan,326.59496466,770.956190158,771.259117143,771.456211826,nan,nan
0,363,1244,6,1,393,276,-0.0489456633786,0.475102171109,-0.327443230616,1,1.0,1.0,0.77343931701,0,0.0,0.0,0.499818297413,0.406021045459,0.14357057869,0.54959162415,0.262450466769,nan,nan,0.0,0.0,0.0,nan,nan,326.59496466,771.98963755,772.763076867,772.48969628,nan,nan
0,364,1245,6,1,78,54,1.0,-0.179467652321,-0.739907630878,1,nan,nan,nan,0,0.0,0.0,0.538183151279,0.40707684509,0.144706893666,0.551783738756,0.262369951424,nan,nan,0.0,0.0,0.0,nan,nan,326.59496466,772.989751874,nan,773.489826854,nan,nan
0,365,1246,6,0,186,130,1.0,-0.0967386681424,0.377881386018,0,0.0,1.0,0.645148433745,0,0.0,0.0,0.709293875378,0.40707684509,0.144706893666,0.551783738756,0.262369951424,nan,nan,0.0,0.0,0.0,nan,nan,326.59496466,773.989897558,774.635045992,774.489954008,nan,nan
0,366,1247,6,1,4,2,0.879126049628,0.195014037372,-1.0,1,1.0,1.0,0.469022410922,0,0.0,0.0,0.557085422333,0.407758998639,0.145058680803,0.552817679443,0.262700317836,nan,nan,0.0,0.0,0.0,nan,nan,326.59496466,774.990007606,775.459030017,775.490034406,nan,nan
0,367,1248,6,1,446,313,0.304696255059,0.41359904426,-1.0,1,1.0,1.0,0.364836832508,0,0.0,0.0,0.493002559058,0.40793403696,0.14488821078,0.55282224774,0.26304582618,nan,nan,0.0,0.0,0.0,nan,nan,326.59496466,775.99017781,776.355014643,776.490158138,nan,nan
0,368,1249,6,1,316,222,-0.0718215561597,0.428203514031,0.427892255365,1,1.0,1.0,0.596721717156,0,0.0,0.0,0.476860320196,0.407811252902,0.14469990407,0.552511156972,0.263111348832,nan,nan,0.0,0.0,0.0,nan,nan,326.59496466,776.990275313,777.58699703,777.490335184,nan,nan
0,369,1250,6,1,35,24,1.0,0.0462653595507,-1.0,1,nan,nan,nan,0,0.0,0.0,0.480779274832,0.408347930357,0.144843622818,0.553191553175,0.263504307539,nan,nan,0.0,0.0,0.0,nan,nan,326.59496466,777.990406458,nan,778.490461197,nan,nan
0,370,1251,6,1,347,243,-0.174938837379,0.46723881498,0.167157479366,1,nan,nan,nan,0,0.0,0.0,0.596721717156,0.408347930357,0.144843622818,0.553191553175,0.263504307539,nan,nan,0.0,0.0,0.0,nan,nan,326.59496466,778.990523634,nan,779.490592913,nan,nan
0,371,1252,6,1,458,322,0.399688045963,0.388050214986,-1.0,1,1.0,1.0,0.700289202854,0,0.0,0.0,0.700289202854,0.408347930357,0.144843622818,0.553191553175,0.263504307539,nan,nan,0.0,0.0,0.0,nan,nan,326.59496466,779.99064537,780.690934573,780.490718925,nan,nan
0,372,1253,6,0,302,212,0.027086081288,0.400300843718,0.517770016443,0,0.0,1.0,0.676118895411,0,0.0,0.0,0.688204049133,0.409174959458,0.145468218229,0.554643177686,0.263706741229,nan,nan,0.0,0.0,0.0,nan,nan,326.59496466,780.990793621,781.666912517,781.490845224,nan,nan
0,373,1254,6,1,115,80,1.0,-0.305166285737,-0.293172749504,1,1.0,1.0,0.484005726874,0,0.0,0.0,0.620137941713,0.409929038373,0.145951888751,0.555880927124,0.263977149622,nan,nan,0.0,0.0,0.0,nan,nan,326.59496466,781.990910511,782.474916238,782.490928472,nan,nan
0,374,1255,6,1,433,304,0.206536295144,0.436163724167,-1.0,1,1.0,1.0,0.379860062152,0,0.0,0.0,0.513328228146,0.410137705101,0.145799047064,0.555936752164,0.264338658037,nan,nan,0.0,0.0,0.0,nan,nan,326.59496466,782.991029683,783.370889745,783.491086132,nan,nan
0,375,1256,6,1,320,225,-0.0946500390753,0.43494401576,0.398701238857,1,1.0,1.0,0.363698722795,0,0.0,0.0,0.409188170607,0.410052655542,0.145602947429,0.555655602971,0.264449708113,nan,nan,0.0,0.0,0.0,nan,nan,326.59496466,783.991162538,784.35486126,784.491184491,nan,nan
0,376,1257,6,1,270,189,0.331159066004,0.309369715406,0.641393874915,1,1.0,1.0,0.275568427518,0,0.0,0.0,0.339709070822,0.409922812593,0.145419516597,0.55534232919,0.264503295997,nan,nan,0.0,0.0,0.0,nan,nan,326.59496466,784.991290832,785.266859259,785.491344145,nan,nan
0,377,1258,6,1,45,31,1.0,-0.0063957592436,-1.0,1,1.0,1.0,0.107493853197,0,1.0,0.0,0.248920334503,0.409547521015,0.14538929692,0.554936817935,0.264158224095,nan,nan,0.0,0.0,0.0,nan,nan,326.59496466,785.991408862,786.098902715,786.491482417,nan,nan
0,378,1304,6,1,286,201,0.169078956243,0.359734776014,0.594698705761,1,1.0,1.0,0.299315365963,1,0.0,0.0,0.227459215559,0.408706145895,0.146056837676,0.554762983572,0.262649308219,-95.6594818402,264.0,0.394966959701,0.287889713878,0.650717615019,-15.4342681598,2.71740704589,326.59496466,786.991521476,787.290836842,787.491565381,788.825068823,791.550450341
0,379,1305,6,1,203,142,1.0,-0.00249325098487,0.493674673203,1,nan,nan,nan,0,0.0,0.0,0.20340460958,0.408402282618,0.145967428279,0.554369710896,0.262434854339,nan,nan,0.0,0.0,0.0,nan,nan,326.59496466,792.767267805,nan,793.267353619,nan,nan
0,380,1306,6,1,489,343,0.656284860842,0.299572439858,-1.0,1,nan,nan,nan,0,0.0,0.0,0.299315365963,0.408402282618,0.145967428279,0.554369710896,0.262434854339,nan,nan,0.0,0.0,0.0,nan,nan,326.59496466,793.767415485,nan,794.267478492,nan,nan
0,381,1307,6,1,63,44,1.0,-0.102744642793,-1.0,1,1.0,1.0,0.531123844907,0,0.0,0.0,0.531123844907,0.408402282618,0.145967428279,0.554369710896,0.262434854339,nan,nan,0.0,0.0,0.0,nan,nan,326.59496466,794.767542354,795.298666199,795.267602795,nan,nan
0,382,1308,6,1,171,120,1.0,-0.176011872558,0.256450910142,1,1.0,1.0,0.299021145329,0,0.0,0.0,0.415072495118,0.408742231544,0.145907754654,0.554649986197,0.26283447689,nan,nan,0.0,0.0,0.0,nan,nan,326.59496466,795.767669222,796.066690368,796.267709136,nan,nan
0,383,1309,6,1,85,59,1.0,-0.212156452387,-0.638781227021,1,1.0,1.0,0.218931464478,0,0.0,0.0,0.349692151571,0.408439134621,0.145819846147,0.554258980768,0.262619288473,nan,nan,0.0,0.0,0.0,nan,nan,326.59496466,796.767812627,796.986744092,797.267830588,nan,nan
0,384,1310,6,1,426,299,0.156193047225,0.446210853967,-0.81485970128,1,1.0,1.0,0.594720045105,0,0.0,0.0,0.370890884971,0.407917074923,0.145957227864,0.553874302787,0.26195984706,nan,nan,0.0,0.0,0.0,nan,nan,326.59496466,797.767904429,798.362624474,798.267988247,nan,nan
0,385,1311,6,0,484,340,0.614398947124,0.316112737715,-1.0,0,0.0,1.0,0.594527889974,0,0.0,0.0,0.469393133186,0.408430269896,0.146084185348,0.554514455245,0.262346084548,nan,nan,0.0,0.0,0.0,nan,nan,326.59496466,798.768070355,799.362598245,799.26811198,nan,nan
0,386,1312,6,1,374,262,-0.132039125116,0.478634076427,-0.110628443238,1,1.0,1.0,0.402423844673,0,0.0,0.0,0.530557259917,0.40894012639,0.146207882714,0.555148009103,0.262732243676,nan,nan,0.0,0.0,0.0,nan,nan,326.59496466,799.768169285,800.170593129,800.268196084,nan,nan
0,387,1313,6,1,81,56,1.0,-0.193804253699,-0.694219169772,1,1.0,1.0,0.530289648101,0,0.0,0.0,0.509080460916,0.408922322341,0.146008404757,0.554930727099,0.262913917584,nan,nan,0.0,0.0,0.0,nan,nan,326.59496466,800.768289881,801.298579529,801.268379401,nan,nan
0,388,1314,6,1,177,124,1.0,-0.145192147526,0.306921212481,1,1.0,1.0,0.416773958132,0,0.0,0.0,0.449829150302,0.409253023501,0.145946540832,0.555199564333,0.26330648267,nan,nan,0.0,0.0,0.0,nan,nan,326.59496466,801.801781463,802.218555421,802.30178916,nan,nan
0,389,1315,6,1,52,36,1.0,-0.0438860552364,-1.0,1,1.0,1.0,0.408636410721,0,0.0,0.0,0.451900005651,0.409273460824,0.145748634878,0.555022095701,0.263524825946,nan,nan,0.0,0.0,0.0,nan,nan,326.59496466,802.801912608,803.210549018,803.301913178,nan,nan
0,390,1316,6,1,162,113,1.0,-0.218739557155,0.176632971453,1,1.0,1.0,0.736504323781,0,0.0,0.0,0.520638230878,0.409271734401,0.145551013287,0.554822747688,0.263720721114,nan,nan,0.0,0.0,0.0,nan,nan,326.59496466,803.802013247,804.538517571,804.302087942,nan,nan
