block,trial,freq_trials,correct_response,actual_response,acc,rts,probe_trials,fast_rt_trigger,slow_rt_trigger,rt_triggered,rts_runningavg,rts_runningstd,rts_runningfastthresh,rts_runningslowthresh,rts_runningstd,rts_trailingavg,trials_colorind,trials_colorrgb0,trials_colorrgb1,trials_colorrgb2,wm_respdeg,wm_respdeg_in_colorspace,wm_respcolorminusorigcolor,wm_resptexind,wm_resptexrgb0,wm_resptexrgb1,wm_resptexrgb2,wm_rts,time_blockstart,time_encarray_offset,time_encarray_onset,time_response,time_iti_offset,time_iti_onset,time_memprobe_offset,time_memprobe_onset
1,1,1,1,1.0,1.0,0.346635332331,0,nan,nan,nan,nan,nan,nan,nan,nan,nan,159,1.0,-0.231765974528,0.149055008463,nan,nan,nan,nan,0.0,0.0,0.0,nan,326.59496466,327.616339584,328.116371514,327.962974916,nan,nan,nan,nan
1,2,1,1,nan,nan,nan,0,nan,nan,nan,nan,nan,nan,nan,nan,nan,496,0.714833717156,0.274923884212,-1.0,nan,nan,nan,nan,0.0,0.0,0.0,nan,326.59496466,328.633390429,329.133200839,nan,nan,nan,nan,nan
1,3,1,1,1.0,1.0,0.209685171954,0,nan,nan,nan,nan,nan,nan,nan,nan,nan,125,1.0,-0.311567427947,-0.187805059354,nan,nan,nan,nan,0.0,0.0,0.0,nan,326.59496466,329.633273539,330.133317159,329.842958711,nan,nan,nan,nan
1,4,1,1,1.0,1.0,0.193610216491,0,nan,nan,nan,nan,nan,nan,nan,nan,nan,246,0.589768841079,0.215019897151,0.651339528662,nan,nan,nan,nan,0.0,0.0,0.0,nan,326.59496466,330.633390714,331.133424641,330.827000931,nan,nan,nan,nan
1,5,1,1,1.0,1.0,0.273450721055,0,nan,nan,nan,nan,nan,nan,nan,nan,nan,178,1.0,-0.139919655122,0.315097826042,nan,nan,nan,nan,0.0,0.0,0.0,nan,326.59496466,331.633498766,332.133527846,331.906949488,nan,nan,nan,nan
1,6,1,1,1.0,1.0,0.297221607529,0,nan,nan,nan,nan,nan,nan,nan,nan,nan,348,-0.175384772129,0.468017843042,0.157582163916,nan,nan,nan,nan,0.0,0.0,0.0,nan,326.59496466,332.633641886,333.133692062,332.930863493,nan,nan,nan,nan
1,7,1,1,1.0,1.0,0.434696633369,0,nan,nan,nan,nan,nan,nan,nan,nan,nan,17,0.981069150956,0.135921910835,-1.0,nan,nan,nan,nan,0.0,0.0,0.0,nan,326.59496466,333.792190487,334.292142591,334.22688712,nan,nan,nan,nan
1,8,1,1,1.0,1.0,0.415174273774,0,nan,nan,nan,nan,nan,nan,nan,nan,nan,178,1.0,-0.139919655122,0.315097826042,nan,nan,nan,nan,0.0,0.0,0.0,nan,326.59496466,334.891676513,335.392284911,335.306850786,nan,nan,nan,nan
1,9,1,1,1.0,1.0,0.462455467321,0,nan,nan,nan,nan,nan,nan,nan,nan,nan,135,1.0,-0.303502321856,-0.0849788702499,nan,nan,nan,nan,0.0,0.0,0.0,nan,326.59496466,335.892378423,336.392407788,336.354833891,nan,nan,nan,nan
1,10,1,1,1.0,1.0,0.44628699962,0,nan,nan,nan,nan,nan,nan,nan,nan,nan,502,0.764740937618,0.25241357569,-1.0,nan,nan,nan,nan,0.0,0.0,0.0,nan,326.59496466,336.892524963,337.392556324,337.338811963,nan,nan,nan,nan
1,11,1,1,1.0,1.0,0.422085330822,0,nan,nan,nan,nan,nan,nan,nan,nan,nan,340,-0.166837174664,0.460980112934,0.232376404312,nan,nan,nan,nan,0.0,0.0,0.0,nan,326.59496466,337.892704004,338.392668937,338.314789335,nan,nan,nan,nan
1,12,0,0,0.0,1.0,0.42197984457,0,nan,nan,nan,nan,nan,nan,nan,nan,nan,284,0.188465149253,0.353984098999,0.602236276499,nan,nan,nan,nan,0.0,0.0,0.0,nan,326.59496466,338.892803789,339.392826026,339.314783634,nan,nan,nan,nan
1,13,1,1,1.0,1.0,0.389871272258,0,nan,nan,nan,nan,nan,nan,nan,nan,nan,33,1.0,0.0565990290419,-1.0,nan,nan,nan,nan,0.0,0.0,0.0,nan,326.59496466,339.892881051,340.392923245,340.282752323,nan,nan,nan,nan
1,14,1,1,1.0,1.0,0.381705216132,0,nan,nan,nan,nan,nan,nan,nan,nan,nan,299,0.0516645560415,0.393417669654,0.534378752182,nan,nan,nan,nan,0.0,0.0,0.0,nan,326.59496466,340.893035003,341.393072921,341.274740219,nan,nan,nan,nan
1,15,1,1,1.0,1.0,0.333527674899,0,nan,nan,nan,nan,nan,nan,nan,nan,nan,189,1.0,-0.0802194643608,0.400143472992,nan,nan,nan,nan,0.0,0.0,0.0,nan,326.59496466,341.893199219,342.393175556,342.226726894,nan,nan,nan,nan
1,16,1,1,1.0,1.0,0.341076210141,0,nan,nan,nan,nan,nan,nan,nan,nan,nan,471,0.506014005179,0.354993781952,-1.0,nan,nan,nan,nan,0.0,0.0,0.0,nan,326.59496466,342.901616733,343.40166577,343.242692943,nan,nan,nan,nan
1,17,0,0,1.0,0.0,0.300827524625,0,0.0,0.0,0.0,nan,nan,nan,nan,nan,nan,39,1.0,0.0253789930673,-1.0,nan,nan,nan,nan,0.0,0.0,0.0,nan,326.59496466,343.901859636,344.401797485,344.202687161,nan,nan,nan,nan
1,18,1,1,1.0,1.0,0.324834757484,0,nan,nan,nan,nan,nan,nan,nan,nan,nan,495,0.706485112283,0.278551693791,-1.0,nan,nan,nan,nan,0.0,0.0,0.0,nan,326.59496466,344.901838824,345.401895273,345.226673582,nan,nan,nan,nan
1,19,1,1,1.0,1.0,0.452674331143,0,nan,nan,nan,nan,nan,nan,nan,nan,nan,188,1.0,-0.0857393506835,0.392804289229,nan,nan,nan,nan,0.0,0.0,0.0,nan,326.59496466,345.901967688,346.402000475,346.35464202,nan,nan,nan,nan
1,20,1,1,1.0,1.0,0.588175624609,0,nan,nan,nan,nan,nan,nan,nan,nan,nan,8,0.91102658764,0.177400941622,-1.0,nan,nan,nan,nan,0.0,0.0,0.0,nan,326.59496466,346.910443932,347.410524899,347.498619556,nan,nan,nan,nan
1,21,1,1,1.0,1.0,0.652012448758,0,nan,nan,nan,nan,nan,nan,nan,nan,nan,374,-0.132039125116,0.478634076427,-0.110628443238,nan,nan,nan,nan,0.0,0.0,0.0,nan,326.59496466,347.910585625,348.410653193,348.562598074,nan,nan,nan,nan
1,22,1,1,1.0,1.0,0.547861937433,0,nan,nan,nan,nan,nan,nan,nan,nan,nan,179,1.0,-0.13461441766,0.323204131591,nan,nan,nan,nan,0.0,0.0,0.0,nan,326.59496466,348.910713634,349.410777781,349.458575572,nan,nan,nan,nan
1,23,1,1,1.0,1.0,0.635311132297,0,nan,nan,nan,nan,nan,nan,nan,nan,nan,404,0.0124894593597,0.468746268022,-0.463349101315,nan,nan,nan,nan,0.0,0.0,0.0,nan,326.59496466,349.911246482,350.410907785,350.546557615,nan,nan,nan,nan
1,24,1,1,1.0,1.0,0.563590784557,0,nan,nan,nan,nan,nan,nan,nan,nan,nan,486,0.631151757674,0.309603058574,-1.0,nan,nan,nan,nan,0.0,0.0,0.0,nan,326.59496466,350.910964235,351.411030378,351.474555019,nan,nan,nan,nan
1,25,1,1,1.0,1.0,0.691439481452,0,nan,nan,nan,nan,nan,nan,nan,nan,nan,54,1.0,-0.0546292063271,-1.0,nan,nan,nan,nan,0.0,0.0,0.0,nan,326.59496466,351.91109481,352.411187181,352.602534291,nan,nan,nan,nan
1,26,0,0,0.0,1.0,0.699257149361,0,nan,nan,nan,nan,nan,nan,nan,nan,nan,419,0.107894673663,0.454841969249,-0.678098861371,nan,nan,nan,nan,0.0,0.0,0.0,nan,326.59496466,352.911253039,353.411286966,353.610510188,nan,nan,nan,nan
1,27,1,1,1.0,1.0,0.467176687904,0,nan,nan,nan,nan,nan,nan,nan,nan,nan,500,0.748145934353,0.260058294274,-1.0,nan,nan,nan,nan,0.0,0.0,0.0,nan,326.59496466,353.911331441,354.411398439,354.378508129,nan,nan,nan,nan
1,28,1,1,1.0,1.0,0.467031287961,0,nan,nan,nan,nan,nan,nan,nan,nan,nan,49,1.0,-0.027785429985,-1.0,nan,nan,nan,nan,0.0,0.0,0.0,nan,326.59496466,354.911447476,355.411483399,355.378478764,nan,nan,nan,nan
1,29,1,1,1.0,1.0,0.444338926114,0,nan,nan,nan,nan,nan,nan,nan,nan,nan,128,1.0,-0.310663006781,-0.156689791083,nan,nan,nan,nan,0.0,0.0,0.0,nan,326.59496466,355.998134891,356.503330228,356.442473817,nan,nan,nan,nan
1,30,1,1,nan,nan,nan,0,nan,nan,nan,nan,nan,nan,nan,nan,nan,359,-0.169222339917,0.474741883077,0.0483828026834,nan,nan,nan,nan,0.0,0.0,0.0,nan,326.59496466,357.027726334,357.528486975,nan,nan,nan,nan,nan
1,31,0,0,0.0,1.0,0.589843162335,0,nan,nan,nan,nan,nan,nan,nan,nan,nan,11,0.934659501434,0.163852895862,-1.0,nan,nan,nan,nan,0.0,0.0,0.0,nan,326.59496466,358.028579346,358.528603295,358.618422508,nan,nan,nan,nan
1,32,1,1,1.0,1.0,0.397749666125,0,nan,nan,nan,nan,nan,nan,nan,nan,nan,217,0.891250405156,0.0735373331823,0.568048345461,nan,nan,nan,nan,0.0,0.0,0.0,nan,326.59496466,359.028663735,359.528695666,359.426413401,nan,nan,nan,nan
1,33,1,1,1.0,1.0,0.341628729366,0,nan,nan,nan,nan,nan,nan,nan,nan,nan,412,0.0618891196837,0.462096609288,-0.571158935758,nan,nan,nan,nan,0.0,0.0,0.0,nan,326.59496466,360.028789463,360.528841636,360.370418193,nan,nan,nan,nan
1,34,1,1,1.0,1.0,0.36547459662,0,nan,nan,nan,nan,nan,nan,nan,nan,nan,466,0.464789014893,0.368385601135,-1.0,nan,nan,nan,nan,0.0,0.0,0.0,nan,326.59496466,361.028913481,361.528941135,361.394388078,nan,nan,nan,nan
1,35,1,1,1.0,1.0,0.445228432305,0,nan,nan,nan,nan,nan,nan,nan,nan,nan,73,1.0,-0.1546788618,-0.830916872461,nan,nan,nan,nan,0.0,0.0,0.0,nan,326.59496466,362.029140133,362.529067718,362.474368566,nan,nan,nan,nan
1,36,1,1,1.0,1.0,0.437193520367,0,nan,nan,nan,nan,nan,nan,nan,nan,nan,337,-0.160643365934,0.457858386897,0.259303564052,nan,nan,nan,nan,0.0,0.0,0.0,nan,326.59496466,363.029160946,363.529200289,363.466354466,nan,nan,nan,nan
1,37,1,1,1.0,1.0,0.445038271137,0,nan,nan,nan,nan,nan,nan,nan,nan,nan,186,1.0,-0.0967386681424,0.377881386018,nan,nan,nan,nan,0.0,0.0,0.0,nan,326.59496466,364.029301214,364.529322026,364.474339485,nan,nan,nan,nan
1,38,1,1,1.0,1.0,0.428880637512,0,nan,nan,nan,nan,nan,nan,nan,nan,nan,362,-0.164239727892,0.476000155386,0.0174578511848,nan,nan,nan,nan,0.0,0.0,0.0,nan,326.59496466,365.029428652,365.52946372,365.45830929,nan,nan,nan,nan
1,39,1,1,1.0,1.0,0.724712678231,0,nan,nan,nan,nan,nan,nan,nan,nan,nan,471,0.506014005179,0.354993781952,-1.0,nan,nan,nan,nan,0.0,0.0,0.0,nan,326.59496466,366.029560368,366.529627081,366.754273046,nan,nan,nan,nan
1,40,1,1,1.0,1.0,0.556588497013,0,nan,nan,nan,nan,nan,nan,nan,nan,nan,424,0.142174562463,0.448819569244,-0.770229420881,nan,nan,nan,nan,0.0,0.0,0.0,nan,326.59496466,367.029682104,367.529754519,367.586270601,nan,nan,nan,nan
1,41,1,1,1.0,1.0,0.475136904046,0,nan,nan,nan,nan,nan,nan,nan,nan,nan,213,0.929785093221,0.0521668813814,0.548906519778,nan,nan,nan,nan,0.0,0.0,0.0,nan,326.59496466,368.119117292,368.621520381,368.594254196,nan,nan,nan,nan
1,42,1,1,1.0,1.0,0.42395329196,0,nan,nan,nan,nan,nan,nan,nan,nan,nan,148,1.0,-0.272695592461,0.0444264621409,nan,nan,nan,nan,0.0,0.0,0.0,nan,326.59496466,369.242288674,369.746653807,369.666241966,nan,nan,nan,nan
1,43,1,1,1.0,1.0,0.58744776994,0,nan,nan,nan,nan,nan,nan,nan,nan,nan,373,-0.135407706169,0.478559568072,-0.0996974893599,nan,nan,nan,nan,0.0,0.0,0.0,nan,326.59496466,370.246749314,370.746827717,370.834197084,nan,nan,nan,nan
1,44,1,1,nan,nan,nan,0,nan,nan,nan,nan,nan,nan,nan,nan,nan,84,1.0,-0.20765784414,-0.652191087791,nan,nan,nan,nan,0.0,0.0,0.0,nan,326.59496466,371.246869626,371.746951164,nan,nan,nan,nan,nan
1,45,1,1,1.0,1.0,0.779151252471,0,nan,nan,nan,nan,nan,nan,nan,nan,nan,6,0.895129075663,0.186272780825,-1.0,nan,nan,nan,nan,0.0,0.0,0.0,nan,326.59496466,372.247003051,372.747082309,373.026154304,nan,nan,nan,nan
1,46,0,0,0.0,1.0,0.500191015191,0,nan,nan,nan,nan,nan,nan,nan,nan,nan,238,0.675741828754,0.178727669763,0.638511091232,nan,nan,nan,nan,0.0,0.0,0.0,nan,326.59496466,373.247171259,373.747209177,373.747362275,nan,nan,nan,nan
1,47,1,1,1.0,1.0,0.32290207874,0,nan,nan,nan,nan,nan,nan,nan,nan,nan,468,0.481236483515,0.363131620867,-1.0,nan,nan,nan,nan,0.0,0.0,0.0,nan,326.59496466,374.247257074,374.747321506,374.570159153,nan,nan,nan,nan
1,48,1,1,1.0,1.0,0.274733661674,0,nan,nan,nan,nan,nan,nan,nan,nan,nan,335,-0.155595990888,0.455627721073,0.276893227044,nan,nan,nan,nan,0.0,0.0,0.0,nan,326.59496466,375.247391355,375.747421005,375.522125017,nan,nan,nan,nan
1,49,0,0,0.0,1.0,0.482592497021,0,nan,nan,nan,nan,nan,nan,nan,nan,nan,120,1.0,-0.310161497659,-0.240162905937,nan,nan,nan,nan,0.0,0.0,0.0,nan,326.59496466,376.247558422,376.747574958,376.730150919,nan,nan,nan,nan
1,50,1,1,1.0,1.0,0.370433017612,0,nan,nan,nan,nan,nan,nan,nan,nan,nan,477,0.555879874869,0.337784025865,-1.0,nan,nan,nan,nan,0.0,0.0,0.0,nan,326.59496466,377.2476679,377.747685291,377.618100918,nan,nan,nan,nan
1,51,1,1,1.0,1.0,0.346253301948,0,nan,nan,nan,nan,nan,nan,nan,nan,nan,182,1.0,-0.118523835432,0.347089474713,nan,nan,nan,nan,0.0,0.0,0.0,nan,326.59496466,378.247833542,378.747831546,378.594086844,nan,nan,nan,nan
1,52,1,1,1.0,1.0,0.346126433462,0,nan,nan,nan,nan,nan,nan,nan,nan,nan,16,0.973419431522,0.140652110383,-1.0,nan,nan,nan,nan,0.0,0.0,0.0,nan,326.59496466,379.247920781,379.747933326,379.594047215,nan,nan,nan,nan
1,53,1,1,1.0,1.0,0.322022837587,0,nan,nan,nan,nan,nan,nan,nan,nan,nan,442,0.273907262724,0.421095538958,-1.0,nan,nan,nan,nan,0.0,0.0,0.0,nan,326.59496466,380.248025983,380.748083288,380.57004882,nan,nan,nan,nan
1,54,1,1,1.0,1.0,0.321870595217,0,nan,nan,nan,nan,nan,nan,nan,nan,nan,491,0.673033477965,0.292707709811,-1.0,nan,nan,nan,nan,0.0,0.0,0.0,nan,326.59496466,381.2481634,381.748215288,381.570033995,nan,nan,nan,nan
1,55,1,1,1.0,1.0,0.481723804027,0,nan,nan,nan,nan,nan,nan,nan,nan,nan,397,-0.0275613476434,0.473159987783,-0.37569455347,nan,nan,nan,nan,0.0,0.0,0.0,nan,326.59496466,382.248286562,382.74832448,382.730010366,nan,nan,nan,nan
1,56,1,1,1.0,1.0,0.353572333232,0,nan,nan,nan,nan,nan,nan,nan,nan,nan,327,-0.128086156831,0.445480682368,0.344176439252,nan,nan,nan,nan,0.0,0.0,0.0,nan,326.59496466,383.248406018,383.748438519,383.601978351,nan,nan,nan,nan
1,57,1,1,1.0,1.0,0.233456058428,1,nan,nan,nan,nan,nan,nan,nan,nan,nan,462,0.432089675478,0.378486360879,-1.0,168.190117043,281.809882957,-43.033867043,401.0,-0.00506340639596,0.470796889516,-0.425203102762,2.38394722529,326.59496466,384.248539444,384.748575081,384.481995502,388.474025878,389.472418496,386.073732854,388.465694179
1,58,1,1,1.0,1.0,0.471651867963,0,nan,nan,nan,nan,nan,nan,nan,nan,nan,248,0.568115903494,0.223728204869,0.653295769881,nan,nan,nan,nan,0.0,0.0,0.0,nan,326.59496466,389.674228411,390.174269751,390.145880279,nan,nan,nan,nan
1,59,1,1,1.0,1.0,0.279517889023,0,nan,nan,nan,nan,nan,nan,nan,nan,nan,365,-0.157962026257,0.477016591838,-0.0139196855225,nan,nan,nan,nan,0.0,0.0,0.0,nan,326.59496466,390.674339314,391.174389207,390.953857203,nan,nan,nan,nan
1,60,1,1,1.0,1.0,0.66331942752,0,nan,nan,nan,nan,nan,nan,nan,nan,nan,282,0.208142307666,0.34807905204,0.609295500931,nan,nan,nan,nan,0.0,0.0,0.0,nan,326.59496466,391.674496974,392.174556559,392.337816401,nan,nan,nan,nan
1,61,1,1,1.0,1.0,0.695193365216,0,nan,nan,nan,nan,nan,nan,nan,nan,nan,409,0.0429436170054,0.464793150178,-0.529461854507,nan,nan,nan,nan,0.0,0.0,0.0,nan,326.59496466,392.674615859,393.174674019,393.369809224,nan,nan,nan,nan
1,62,1,1,nan,nan,nan,0,nan,nan,nan,nan,nan,nan,nan,nan,nan,176,1.0,-0.150429669724,0.298675466069,nan,nan,nan,nan,0.0,0.0,0.0,nan,326.59496466,393.674743583,394.174801458,nan,nan,nan,nan,nan
1,63,0,0,0.0,1.0,0.494888480753,0,nan,nan,nan,nan,nan,nan,nan,nan,nan,273,0.299732959835,0.319577193062,0.635038033336,nan,nan,nan,nan,0.0,0.0,0.0,nan,326.59496466,394.674893545,395.183245486,395.169782026,nan,nan,nan,nan
1,64,1,1,1.0,1.0,0.502768584527,1,nan,nan,nan,nan,nan,nan,nan,nan,nan,210,0.958022500947,0.0359304984579,0.533421856807,-59.5983727019,149.598372702,1.94212270185,213.0,0.929785093221,0.0521668813814,0.548906519778,1.80051648244,326.59496466,395.67499504,396.175058901,396.177763624,399.325406378,400.329809714,397.508519579,399.317072969
1,65,1,1,1.0,1.0,0.707724839449,0,nan,nan,nan,nan,nan,nan,nan,nan,nan,316,-0.0718215561597,0.428203514031,0.427892255365,nan,nan,nan,nan,0.0,0.0,0.0,nan,326.59496466,400.533948879,401.034004187,401.241673718,nan,nan,nan,nan
1,66,1,1,1.0,1.0,0.395598032512,0,nan,nan,nan,nan,nan,nan,nan,nan,nan,437,0.23613482661,0.429770237144,-1.0,nan,nan,nan,nan,0.0,0.0,0.0,nan,326.59496466,401.534062347,402.03409599,401.92966038,nan,nan,nan,nan
1,67,1,1,1.0,1.0,0.443453413434,0,nan,nan,nan,nan,nan,nan,nan,nan,nan,511,0.838703193994,0.216284169582,-1.0,nan,nan,nan,nan,0.0,0.0,0.0,nan,326.59496466,402.534203756,403.034221717,402.977657169,nan,nan,nan,nan
1,68,1,1,1.0,1.0,0.595303925686,0,nan,nan,nan,nan,nan,nan,nan,nan,nan,103,1.0,-0.279537473278,-0.423758835275,nan,nan,nan,nan,0.0,0.0,0.0,nan,326.59496466,403.53431751,404.034389355,404.129621436,nan,nan,nan,nan
1,69,1,1,1.0,1.0,0.523154789582,0,nan,nan,nan,nan,nan,nan,nan,nan,nan,172,1.0,-0.170984061773,0.265024678188,nan,nan,nan,nan,0.0,0.0,0.0,nan,326.59496466,404.534450936,405.034523636,405.057605726,nan,nan,nan,nan
1,70,1,1,1.0,1.0,0.56299892161,0,nan,nan,nan,nan,nan,nan,nan,nan,nan,369,-0.147694689129,0.477999187239,-0.0564338676883,nan,nan,nan,nan,0.0,0.0,0.0,nan,326.59496466,405.53458094,406.034644232,406.097579862,nan,nan,nan,nan
1,71,1,1,1.0,1.0,0.442874948494,0,nan,nan,nan,nan,nan,nan,nan,nan,nan,257,0.470472903111,0.261039853404,0.655841377839,nan,nan,nan,nan,0.0,0.0,0.0,nan,326.59496466,406.534713511,407.034749718,406.97758846,nan,nan,nan,nan
1,72,1,1,1.0,1.0,0.570715093985,0,nan,nan,nan,nan,nan,nan,nan,nan,nan,158,1.0,-0.235949227405,0.139764106,nan,nan,nan,nan,0.0,0.0,0.0,nan,326.59496466,407.534822133,408.034903101,408.105537227,nan,nan,nan,nan
1,73,1,1,1.0,1.0,0.618567052297,0,nan,nan,nan,nan,nan,nan,nan,nan,nan,436,0.228681708805,0.431413732101,-1.0,nan,nan,nan,nan,0.0,0.0,0.0,nan,326.59496466,408.534967818,409.035027403,409.153534871,nan,nan,nan,nan
1,74,1,1,1.0,1.0,0.466437714174,0,nan,nan,nan,nan,nan,nan,nan,nan,nan,224,0.821619416966,0.11002478857,0.597264883709,nan,nan,nan,nan,0.0,0.0,0.0,nan,326.59496466,409.535095257,410.035107802,410.001532971,nan,nan,nan,nan
1,75,1,1,1.0,1.0,0.434285807423,0,nan,nan,nan,nan,nan,nan,nan,nan,nan,437,0.23613482661,0.429770237144,-1.0,nan,nan,nan,nan,0.0,0.0,0.0,nan,326.59496466,410.535227257,411.035237521,410.969513064,nan,nan,nan,nan
1,76,1,1,1.0,1.0,0.48214033246,1,nan,nan,nan,nan,nan,nan,nan,nan,nan,316,-0.0718215561597,0.428203514031,0.427892255365,-149.851633968,239.851633968,17.664133968,341.0,-0.168535884224,0.46196150489,0.223260112086,2.0840066392,326.59496466,411.535353555,412.035371517,412.017493888,415.452491869,416.459921518,413.352198446,415.444133941
1,77,1,1,1.0,1.0,0.660392044112,0,nan,nan,nan,nan,nan,nan,nan,nan,nan,418,0.101175887384,0.455961754156,-0.661679309199,nan,nan,nan,nan,0.0,0.0,0.0,nan,326.59496466,416.661001868,417.16106573,417.321393912,nan,nan,nan,nan
1,78,1,1,1.0,1.0,0.57223095838,1,nan,nan,nan,nan,nan,nan,nan,nan,nan,22,1.0,0.111842423158,-1.0,65.2436881454,24.7563118546,9.28756185459,35.0,1.0,0.0462653595507,-1.0,1.85885063373,326.59496466,417.661131873,418.161190888,418.233362831,421.361552506,422.372235121,419.486323288,421.353224799
1,79,1,1,1.0,1.0,0.655184446834,0,nan,nan,nan,nan,nan,nan,nan,nan,nan,257,0.470472903111,0.261039853404,0.655841377839,nan,nan,nan,nan,0.0,0.0,0.0,nan,326.59496466,422.570079041,423.070147464,423.225263488,nan,nan,nan,nan
1,80,0,0,0.0,1.0,0.511023307219,0,nan,nan,nan,nan,nan,nan,nan,nan,nan,211,0.948675772315,0.0413606888024,0.538689155053,nan,nan,nan,nan,0.0,0.0,0.0,nan,326.59496466,423.570231568,424.070277183,424.081254875,nan,nan,nan,nan
1,81,1,1,1.0,1.0,0.318943209946,0,0.0,0.0,0.0,0.464570057002,0.131233552497,0.333336504506,0.595803609499,0.131233552497,0.495050321333,129,1.0,-0.310070485259,-0.146368003411,nan,nan,nan,nan,0.0,0.0,0.0,nan,326.59496466,424.570331638,425.070356726,424.889274848,nan,nan,nan,nan
1,82,1,1,0.0,0.0,0.206781450659,0,0.0,0.0,0.0,0.462678799248,0.131416973125,0.331261826124,0.594095772373,0.131416973125,0.345582655941,59,1.0,-0.0814409933332,-1.0,nan,nan,nan,nan,0.0,0.0,0.0,nan,326.59496466,425.570469339,426.070518661,425.77725079,nan,nan,nan,nan
1,83,1,1,1.0,1.0,0.710602045991,0,0.0,0.0,0.0,0.45939806401,0.133707791093,0.325690272917,0.593105855103,0.133707791093,0.412108902199,130,1.0,-0.309333154106,-0.136071487739,nan,nan,nan,nan,0.0,0.0,0.0,nan,326.59496466,426.570597064,427.070655794,427.28119911,nan,nan,nan,nan
1,84,0,0,0.0,1.0,0.582436320372,0,0.0,0.0,0.0,0.46257786125,0.135794473702,0.326783387549,0.598372334952,0.135794473702,0.499939939007,258,0.459642287315,0.26499291187,0.655490062901,nan,nan,nan,nan,0.0,0.0,0.0,nan,326.59496466,427.570741608,428.070789505,428.153177928,nan,nan,nan,nan
1,85,1,1,1.0,1.0,0.406325693242,0,0.0,0.0,0.0,0.464076091989,0.135598555604,0.328477536386,0.599674647593,0.135598555604,0.566454686535,382,-0.1011887567,0.478291136399,-0.199732273247,nan,nan,nan,nan,0.0,0.0,0.0,nan,326.59496466,428.570854221,429.07087646,428.977179915,nan,nan,nan,nan
1,86,1,1,1.0,1.0,0.350207323208,0,0.0,0.0,0.0,0.463363124104,0.134909727336,0.328453396768,0.59827285144,0.134909727336,0.446323112274,478,0.56422249903,0.334793662244,-1.0,nan,nan,nan,nan,0.0,0.0,0.0,nan,326.59496466,429.570957997,430.071020149,429.92116532,nan,nan,nan,nan
1,87,1,1,1.0,1.0,0.398015947081,0,0.0,0.0,0.0,0.461983175312,0.134658533054,0.327324642258,0.596641708366,0.134658533054,0.384849654511,177,1.0,-0.145192147526,0.306921212481,nan,nan,nan,nan,0.0,0.0,0.0,nan,326.59496466,430.571128771,431.071143311,430.969144718,nan,nan,nan,nan
1,88,1,1,1.0,1.0,0.485880245455,0,0.0,0.0,0.0,0.461212485815,0.134026700739,0.327185785077,0.595239186554,0.134026700739,0.411367838581,290,0.131265381085,0.370776544741,0.578206616232,nan,nan,nan,nan,0.0,0.0,0.0,nan,326.59496466,431.57124452,432.071287286,432.057124766,nan,nan,nan,nan
1,89,1,1,1.0,1.0,0.54174573347,0,0.0,0.0,0.0,0.461506149621,0.133253394701,0.32825275492,0.594759544322,0.133253394701,0.475213975335,140,1.0,-0.294209249228,-0.0345777392028,nan,nan,nan,nan,0.0,0.0,0.0,nan,326.59496466,432.571355139,433.071430405,433.113100872,nan,nan,nan,nan
1,90,1,1,1.0,1.0,0.46161214821,0,0.0,0.0,0.0,0.462450144725,0.132749471685,0.329700673039,0.59519961641,0.132749471685,0.496412709045,220,0.861731547614,0.0893272636146,0.581247684387,nan,nan,nan,nan,0.0,0.0,0.0,nan,326.59496466,433.571486569,434.071505385,434.033098717,nan,nan,nan,nan
1,91,0,0,0.0,1.0,0.46144992765,0,0.0,0.0,0.0,0.462440400579,0.131975446265,0.330464954314,0.594415846845,0.131975446265,0.488269269777,323,-0.11001989341,0.43965344528,0.375855360355,nan,nan,nan,nan,0.0,0.0,0.0,nan,326.59496466,434.571625412,435.071658198,435.033075339,nan,nan,nan,nan
1,92,1,1,1.0,1.0,0.325333108194,0,0.0,0.0,0.0,0.462429015833,0.131214817008,0.331214198825,0.593643832841,0.131214817008,0.416131728018,242,0.632911854383,0.197161183215,0.645921401967,nan,nan,nan,nan,0.0,0.0,0.0,nan,326.59496466,435.57173774,436.071767105,435.897070848,nan,nan,nan,nan
1,93,1,1,1.0,1.0,0.765138695017,0,0.0,0.0,0.0,0.460871107792,0.131273883485,0.329597224307,0.592144991276,0.131273883485,0.51730724362,375,-0.128556699755,0.478682433309,-0.121605159467,nan,nan,nan,nan,0.0,0.0,0.0,nan,326.59496466,436.571873446,437.071935883,437.337012141,nan,nan,nan,nan
1,94,1,1,1.0,1.0,0.653010290116,0,0.0,0.0,0.0,0.464289844727,0.134416249874,0.329873594853,0.598706094601,0.134416249874,0.581160697776,319,-0.0891891826932,0.433308674125,0.406137099325,nan,nan,nan,nan,0.0,0.0,0.0,nan,326.59496466,437.572005447,438.072062181,438.225015737,nan,nan,nan,nan
1,95,1,1,1.0,1.0,0.588859573938,0,0.0,1.0,0.0,0.466386738564,0.135123297286,0.331263441278,0.601510035851,0.135123297286,0.669002853024,113,1.0,-0.302191989669,-0.314576349441,nan,nan,nan,nan,0.0,0.0,0.0,nan,326.59496466,438.572139443,439.072185628,439.160999017,nan,nan,nan,nan
1,96,1,1,1.0,1.0,0.564732030965,1,0.0,0.0,1.0,0.467732593898,0.134984014395,0.332748579503,0.602716608293,0.134984014395,0.602200631673,174,1.0,-0.160790688716,0.281981279739,-39.130399557,129.130399557,6.78664955699,184.0,1.0,-0.107671891867,0.362640045218,1.75881921593,326.59496466,439.572252057,440.072315633,440.136984088,443.180994353,444.180663355,441.405797407,443.172670351
1,97,1,1,1.0,1.0,0.691713460721,0,0.0,0.0,0.0,0.468786935605,0.134624634236,0.334162301369,0.603411569842,0.134624634236,0.615101688541,497,0.723174939644,0.271260599794,-1.0,nan,nan,nan,nan,0.0,0.0,0.0,nan,326.59496466,444.381176074,444.881271297,445.072889535,nan,nan,nan,nan
1,98,1,1,1.0,1.0,0.56355172582,0,0.0,0.0,0.0,0.471183995015,0.13585851055,0.335325484466,0.607042505565,0.13585851055,0.606665739169,207,0.985653507947,0.0195431921708,0.51699622314,nan,nan,nan,nan,0.0,0.0,0.0,nan,326.59496466,445.38132404,445.881393604,445.944875766,nan,nan,nan,nan
1,99,1,1,1.0,1.0,0.443435451016,0,0.0,0.0,0.0,0.472166630449,0.135465775632,0.336700854818,0.607632406081,0.135465775632,0.566233545852,282,0.208142307666,0.34807905204,0.609295500931,nan,nan,nan,nan,0.0,0.0,0.0,nan,326.59496466,446.381435798,446.881464308,446.824871249,nan,nan,nan,nan
1,100,1,1,1.0,1.0,0.41127442196,0,0.0,0.0,0.0,0.471864196982,0.134782810475,0.337081386507,0.606647007456,0.134782810475,0.472753866265,54,1.0,-0.0546292063271,-1.0,nan,nan,nan,nan,0.0,0.0,0.0,nan,326.59496466,447.381573215,447.881591177,447.792847637,nan,nan,nan,nan
1,101,1,1,1.0,1.0,0.347124559805,0,0.0,0.0,0.0,0.471233053492,0.134220024972,0.33701302852,0.605453078464,0.134220024972,0.400611477594,211,0.948675772315,0.0413606888024,0.538689155053,nan,nan,nan,nan,0.0,0.0,0.0,nan,326.59496466,448.381690961,448.881725173,448.728815521,nan,nan,nan,nan
1,102,1,1,1.0,1.0,0.338964776136,0,0.0,0.0,0.0,0.469953584485,0.134113568399,0.335840016086,0.604067152883,0.134113568399,0.3657879193,397,-0.0275613476434,0.473159987783,-0.37569455347,nan,nan,nan,nan,0.0,0.0,0.0,nan,326.59496466,449.381847764,449.881852041,449.720812541,nan,nan,nan,nan
1,103,1,1,1.0,1.0,0.36249389872,0,0.0,0.0,0.0,0.468616963991,0.134075388508,0.334541575483,0.6026923525,0.134075388508,0.349527744887,173,1.0,-0.165909522591,0.273535192888,nan,nan,nan,nan,0.0,0.0,0.0,nan,326.59496466,450.390304621,450.89033028,450.75279852,nan,nan,nan,nan
1,104,1,1,1.0,1.0,0.362326261587,0,0.0,0.0,0.0,0.467545013837,0.13381794157,0.333727072267,0.601362955407,0.13381794157,0.354594978814,296,0.0772713571413,0.386205321608,0.550001308524,nan,nan,nan,nan,0.0,0.0,0.0,nan,326.59496466,451.390438047,451.890442609,451.752764309,nan,nan,nan,nan
1,105,1,1,1.0,1.0,0.322258328088,0,0.0,0.0,0.0,0.466492826315,0.133558121545,0.332934704769,0.60005094786,0.133558121545,0.349026162798,141,1.0,-0.291952736687,-0.024586852943,nan,nan,nan,nan,0.0,0.0,0.0,nan,326.59496466,452.390534695,452.890582877,452.712793023,nan,nan,nan,nan
1,106,1,1,1.0,1.0,0.33806671761,0,0.0,0.0,0.0,0.465064761976,0.133660379335,0.33140438264,0.598725141311,0.133660379335,0.340883769095,252,0.524721685615,0.240693665738,0.655694012224,nan,nan,nan,nan,0.0,0.0,0.0,nan,326.59496466,453.390676104,453.89069492,453.728742821,nan,nan,nan,nan
1,107,1,1,1.0,1.0,0.313902680762,0,1.0,0.0,0.0,0.463819683109,0.133590873019,0.330228810091,0.597410556128,0.133590873019,0.324742575487,9,0.918933560847,0.172916688009,-1.0,nan,nan,nan,nan,0.0,0.0,0.0,nan,326.59496466,454.390822074,454.890826635,454.704724755,nan,nan,nan,nan
1,108,1,1,1.0,1.0,0.256459175609,1,0.0,0.0,1.0,0.462364178232,0.133751039585,0.328613138648,0.596115217817,0.133751039585,0.30280952466,166,1.0,-0.20036215083,0.21267421211,-36.660980506,126.660980506,9.94223050605,180.0,1.0,-0.129278616986,0.331238955499,2.07556033134,326.59496466,455.424281155,455.924287997,455.68074033,459.341388962,460.341997932,457.24945917,459.333056979
1,109,1,1,1.0,1.0,0.475024860352,0,0.0,0.0,0.0,0.460384322438,0.134614524043,0.325769798395,0.594998846481,0.134614524043,0.348462238908,216,0.900975005756,0.0682271079607,0.563426584804,nan,nan,nan,nan,0.0,0.0,0.0,nan,326.59496466,460.541582088,461.041610598,461.016606948,nan,nan,nan,nan
1,110,0,0,0.0,1.0,0.666855496354,0,0.0,0.0,0.0,0.460523756132,0.133979514874,0.326544241258,0.594503271007,0.133979514874,0.466113177439,407,0.0305886347219,0.46645515455,-0.502577406972,nan,nan,nan,nan,0.0,0.0,0.0,nan,326.59496466,461.541731479,462.041783652,462.208586975,nan,nan,nan,nan
1,111,1,1,1.0,1.0,0.362717700191,0,0.0,0.0,0.0,0.462470281983,0.134829548214,0.32764073377,0.597299830197,0.134829548214,0.501532685633,77,1.0,-0.174593022316,-0.756267193339,nan,nan,nan,nan,0.0,0.0,0.0,nan,326.59496466,462.541852361,463.041888283,462.904570061,nan,nan,nan,nan
1,112,1,1,1.0,1.0,0.442589567043,0,0.0,0.0,0.0,0.461538014864,0.134540836698,0.326997178166,0.596078851561,0.134540836698,0.490720921196,500,0.748145934353,0.260058294274,-1.0,nan,nan,nan,nan,0.0,0.0,0.0,nan,326.59496466,463.541973242,464.041990918,463.984562809,nan,nan,nan,nan
1,113,1,1,1.0,1.0,0.562436708249,0,0.0,0.0,0.0,0.461362566273,0.13392881091,0.327433755363,0.595291377183,0.13392881091,0.455914658494,432,0.199227897075,0.437687328843,-1.0,nan,nan,nan,nan,0.0,0.0,0.0,nan,326.59496466,464.542095263,465.042162832,465.104531972,nan,nan,nan,nan
1,114,1,1,1.0,1.0,0.490288713016,0,0.0,0.0,0.0,0.462289851979,0.133660885012,0.328628966967,0.595950736992,0.133660885012,0.498438329436,39,1.0,0.0253789930673,-1.0,nan,nan,nan,nan,0.0,0.0,0.0,nan,326.59496466,465.542233536,466.050579205,466.032522249,nan,nan,nan,nan
1,115,1,1,1.0,1.0,0.386168136261,0,0.0,0.0,0.0,0.462544387079,0.133078483931,0.329465903148,0.595622871011,0.133078483931,0.479631185842,205,1.0,0.00854800403903,0.505535240796,nan,nan,nan,nan,0.0,0.0,0.0,nan,326.59496466,466.542351852,467.042406591,466.928519988,nan,nan,nan,nan
1,116,1,1,1.0,1.0,0.41801413428,0,0.0,0.0,0.0,0.461856312748,0.132674087457,0.329182225291,0.594530400204,0.132674087457,0.431490327852,255,0.492159363509,0.253017189294,0.656163111527,nan,nan,nan,nan,0.0,0.0,0.0,nan,326.59496466,467.542481856,468.042517493,467.960495991,nan,nan,nan,nan
1,117,1,1,1.0,1.0,0.46585069783,0,0.0,0.0,0.0,0.461464864726,0.132144836368,0.329320028357,0.593609701094,0.132144836368,0.423344322791,106,1.0,-0.287630069369,-0.390564445695,nan,nan,nan,nan,0.0,0.0,0.0,nan,326.59496466,468.542614141,469.042645218,469.008464839,nan,nan,nan,nan
1,118,1,1,1.0,1.0,0.345063017681,0,0.0,0.0,0.0,0.461503677408,0.131559466568,0.32994421084,0.593063143976,0.131559466568,0.409642616597,10,0.926811495151,0.168400576072,-1.0,nan,nan,nan,nan,0.0,0.0,0.0,nan,326.59496466,469.559397851,470.059424935,469.904460869,nan,nan,nan,nan
1,119,1,1,1.0,1.0,0.296913987026,0,0.0,0.0,0.0,0.460482268112,0.131430437548,0.329051830564,0.59191270566,0.131430437548,0.369275900846,487,0.639529740128,0.306295026098,-1.0,nan,nan,nan,nan,0.0,0.0,0.0,nan,326.59496466,470.55951189,471.059548668,470.856425877,nan,nan,nan,nan
1,120,1,1,1.0,1.0,0.304775274359,0,1.0,0.0,0.0,0.459059935233,0.131736012845,0.327323922388,0.590795948078,0.131736012845,0.315584093022,374,-0.132039125116,0.478634076427,-0.110628443238,nan,nan,nan,nan,0.0,0.0,0.0,nan,326.59496466,471.559639899,472.059680668,471.864415173,nan,nan,nan,nan
1,121,1,1,1.0,1.0,0.256645345129,1,0.0,0.0,1.0,0.457729895053,0.131940161333,0.32578973372,0.589670056386,0.131940161333,0.286111535504,258,0.459642287315,0.26499291187,0.655490062901,-176.806550727,266.806550727,85.4003007267,379.0,-0.113535935895,0.478614986251,-0.165970515924,2.51727521699,326.59496466,472.55976078,473.059814094,472.816406125,476.918642775,477.922917247,474.384975858,476.910291689
1,122,1,1,1.0,1.0,0.561149491929,0,0.0,0.0,0.0,0.456011223686,0.132672764773,0.323338458913,0.58868398846,0.132672764773,0.374190037139,92,1.0,-0.241703663401,-0.55060883727,nan,nan,nan,nan,0.0,0.0,0.0,nan,326.59496466,478.127139089,478.627227184,478.688288581,nan,nan,nan,nan
1,123,1,1,1.0,1.0,0.656997669488,0,0.0,0.0,0.0,0.45690222596,0.132460473509,0.32444175245,0.589362699469,0.132460473509,0.491597502182,508,0.814199817736,0.228638933499,-1.0,nan,nan,nan,nan,0.0,0.0,0.0,nan,326.59496466,479.127269949,479.62736004,479.784267618,nan,nan,nan,nan
1,124,1,1,1.0,1.0,0.46486454457,0,0.0,0.0,0.0,0.458583700275,0.133161411568,0.325422288707,0.591745111843,0.133161411568,0.561003901996,265,0.384259149088,0.291568309415,0.649478858709,nan,nan,nan,nan,0.0,0.0,0.0,nan,326.59496466,480.127409932,480.627429889,480.592274477,nan,nan,nan,nan
1,125,1,1,1.0,1.0,0.384405092336,0,0.0,0.0,0.0,0.458636040644,0.13260664081,0.326029399834,0.591242681454,0.13260664081,0.502089102132,332,-0.146647089803,0.45205423783,0.302714191958,nan,nan,nan,nan,0.0,0.0,0.0,nan,326.59496466,481.135857095,481.635901285,481.520262187,nan,nan,nan,nan
1,126,1,1,1.0,1.0,0.320225866511,0,0.0,0.0,0.0,0.458022561732,0.132228428602,0.325794133131,0.590250990334,0.132228428602,0.389831834473,18,0.988682696815,0.131162580546,-1.0,nan,nan,nan,nan,0.0,0.0,0.0,nan,326.59496466,482.136004491,482.636032145,482.456230357,nan,nan,nan,nan
1,127,1,1,1.0,1.0,0.312097727321,0,0.0,0.0,0.0,0.456893080624,0.132270200584,0.32462288004,0.589163281208,0.132270200584,0.338909562056,183,1.0,-0.113108999915,0.354902835149,nan,nan,nan,nan,0.0,0.0,0.0,nan,326.59496466,483.136139913,483.636153597,483.44823764,nan,nan,nan,nan
1,128,1,1,1.0,1.0,0.311948905699,0,1.0,0.0,0.0,0.45571588263,0.132371575099,0.323344307531,0.588087457729,0.132371575099,0.314757499844,254,0.503011129055,0.248947817922,0.65613358125,nan,nan,nan,nan,0.0,0.0,0.0,nan,326.59496466,484.136257658,484.636275904,484.448206563,nan,nan,nan,nan
1,129,1,1,1.0,1.0,0.215841574594,1,0.0,0.0,1.0,0.454556471525,0.132462320498,0.322094151028,0.587018792023,0.132462320498,0.279962735871,83,1.0,-0.203097876184,-0.665876706514,30.7932338822,59.2067661178,0.84739111776,84.0,1.0,-0.20765784414,-0.652191087791,1.08375404309,326.59496466,485.136390799,485.636416458,485.352232373,488.070052812,489.076730372,486.96990992,488.061717977
1,130,1,1,1.0,1.0,0.529512756504,0,0.0,0.0,0.0,0.45264675235,0.133634305512,0.319012446838,0.586281057862,0.133634305512,0.352434412266,511,0.838703193994,0.216284169582,-1.0,nan,nan,nan,nan,0.0,0.0,0.0,nan,326.59496466,489.278580772,489.778647199,489.808093528,nan,nan,nan,nan
1,131,1,1,1.0,1.0,0.377391399816,0,0.0,0.0,0.0,0.453256800002,0.133277590785,0.319979209217,0.586534390787,0.133277590785,0.374248576971,276,0.268710435127,0.329430325417,0.627563005949,nan,nan,nan,nan,0.0,0.0,0.0,nan,326.59496466,490.278715909,490.778753826,490.656107308,nan,nan,nan,nan
1,132,1,1,1.0,1.0,0.353230215609,0,0.0,0.0,0.0,0.452659434646,0.13292107899,0.319738355656,0.585580513636,0.13292107899,0.420044790643,181,1.0,-0.123914391386,0.3392011262,nan,nan,nan,nan,0.0,0.0,0.0,nan,326.59496466,491.278839925,491.778853895,491.632070141,nan,nan,nan,nan
1,133,1,1,1.0,1.0,0.457087931223,0,0.0,0.0,0.0,0.451882643873,0.132689917411,0.319192726462,0.584572561283,0.132689917411,0.395903182216,32,1.0,0.061735800531,-1.0,nan,nan,nan,nan,0.0,0.0,0.0,nan,326.59496466,492.278958526,492.778978483,492.736046458,nan,nan,nan,nan
1,134,0,0,1.0,0.0,0.38490600884,0,0.0,0.0,0.0,0.451922994937,0.132175403203,0.319747591734,0.58409839814,0.132175403203,0.398408051891,428,0.170378320166,0.443486568519,-0.86866140055,nan,nan,nan,nan,0.0,0.0,0.0,nan,326.59496466,493.279120462,493.77914384,493.664026471,nan,nan,nan,nan
1,135,1,1,0.0,0.0,0.256867720746,0,0.0,0.0,0.0,0.45140747966,0.131796177967,0.31754295622,0.582301930444,0.131796177967,0.366287220269,362,-0.164239727892,0.476000155386,0.0174578511848,nan,nan,nan,nan,0.0,0.0,0.0,nan,326.59496466,494.279218251,494.779235072,494.536085972,nan,nan,nan,nan
1,136,1,1,nan,nan,nan,0,0.0,0.0,0.0,0.449922443332,0.132379487112,0.31754295622,0.582301930444,0.132379487112,0.320886864793,233,0.728670395113,0.154909781369,0.626482233315,nan,nan,nan,nan,0.0,0.0,0.0,nan,326.59496466,495.279340843,495.779416678,nan,nan,nan,nan,nan
1,137,1,1,nan,nan,nan,0,0.0,0.0,0.0,0.449922443332,0.132379487112,0.31754295622,0.582301930444,0.132379487112,0.256867720746,30,1.0,0.071945658744,-1.0,nan,nan,nan,nan,0.0,0.0,0.0,nan,326.59496466,496.279475409,496.77953585,nan,nan,nan,nan,nan
1,138,0,0,nan,nan,nan,0,0.0,0.0,0.0,0.449922443332,0.132379487112,0.31754295622,0.582301930444,0.132379487112,nan,220,0.861731547614,0.0893272636146,0.581247684387,nan,nan,nan,nan,0.0,0.0,0.0,nan,326.59496466,497.279616247,497.779668705,nan,nan,nan,nan,nan
1,139,1,1,1.0,1.0,0.136289303191,0,0.0,0.0,0.0,0.449922443332,0.132379487112,0.31754295622,0.582301930444,0.132379487112,0.136289303191,46,1.0,-0.0117313672748,-1.0,nan,nan,nan,nan,0.0,0.0,0.0,nan,326.59496466,498.279737699,498.779777898,498.416027002,nan,nan,nan,nan
1,140,1,1,1.0,1.0,0.176148544997,0,0.0,0.0,0.0,0.447546434695,0.134651840596,0.312894594099,0.58219827529,0.134651840596,0.156218924094,459,0.407758158413,0.385709174134,-1.0,nan,nan,nan,nan,0.0,0.0,0.0,nan,326.59496466,499.279838908,499.77988481,499.455987453,nan,nan,nan,nan
1,141,1,1,1.0,1.0,0.271806277335,0,1.0,0.0,0.0,0.445505849058,0.136177974081,0.309327874976,0.581683823139,0.136177974081,0.194748041841,332,-0.146647089803,0.45205423783,0.302714191958,nan,nan,nan,nan,0.0,0.0,0.0,nan,326.59496466,500.280102909,500.780006831,500.551909186,nan,nan,nan,nan
1,142,1,1,1.0,1.0,0.239837973379,1,0.0,0.0,1.0,0.444209583597,0.13649003527,0.307719548327,0.580699618868,0.13649003527,0.229264265237,22,1.0,0.111842423158,-1.0,42.6516466869,47.3483533131,31.8796033131,67.0,1.0,-0.12380466598,-1.0,1.24222139083,326.59496466,501.280116308,501.780165915,501.519954282,504.36379309,505.362857399,503.105307723,504.355469944
1,143,0,0,1.0,0.0,0.763798734173,0,0.0,0.0,0.0,0.442695719818,0.137108104087,0.305587615731,0.579803823905,0.137108104087,0.425147661629,99,1.0,-0.267176270739,-0.468793303331,nan,nan,nan,nan,0.0,0.0,0.0,nan,326.59496466,505.564001611,506.064058345,506.327800345,nan,nan,nan,nan
1,144,1,1,0.0,0.0,0.187712398358,0,0.0,0.0,0.0,0.445056771394,0.139330446002,0.305726325392,0.584387217396,0.139330446002,0.397116368636,420,0.1146601879,0.45369410126,-0.695047497311,nan,nan,nan,nan,0.0,0.0,0.0,nan,326.59496466,506.564106241,507.06417495,506.751818639,nan,nan,nan,nan
1,145,1,1,1.0,1.0,0.507528577931,0,0.0,0.0,0.0,0.443178345313,0.140538772395,0.302639572918,0.583717117709,0.140538772395,0.486346570154,267,0.362924526182,0.298807232282,0.646622522267,nan,nan,nan,nan,0.0,0.0,0.0,nan,326.59496466,507.564229974,508.064324341,508.071758552,nan,nan,nan,nan
1,146,1,1,1.0,1.0,0.387370394543,0,0.0,0.0,0.0,0.443644651347,0.14013497692,0.303509674426,0.583779628267,0.14013497692,0.360870456944,355,-0.173737462994,0.472683863687,0.0888799762457,nan,nan,nan,nan,0.0,0.0,0.0,nan,326.59496466,508.564385067,509.064399892,508.951755461,nan,nan,nan,nan
1,147,1,1,1.0,1.0,0.347271100618,0,0.0,0.0,0.0,0.443239800578,0.139710956289,0.303528844289,0.582950756867,0.139710956289,0.414056691031,470,0.497741612616,0.357740777197,-1.0,nan,nan,nan,nan,0.0,0.0,0.0,nan,326.59496466,509.564492264,510.064537879,509.911763364,nan,nan,nan,nan
1,148,1,1,1.0,1.0,0.339097631164,0,0.0,0.0,0.0,0.442554309864,0.13944548954,0.303108820325,0.581999799404,0.13944548954,0.357913042108,96,1.0,-0.25681952169,-0.503302481145,nan,nan,nan,nan,0.0,0.0,0.0,nan,326.59496466,510.564643365,511.064644791,510.903740996,nan,nan,nan,nan
1,149,1,1,1.0,1.0,0.27497998625,0,0.0,0.0,0.0,0.441820574554,0.139221075582,0.302599498972,0.581041650137,0.139221075582,0.320449572677,249,0.557275547736,0.228026269286,0.654084877906,nan,nan,nan,nan,0.0,0.0,0.0,nan,326.59496466,511.564744575,512.064777932,511.839724561,nan,nan,nan,nan
1,150,0,0,1.0,0.0,0.250801409595,0,0.0,0.0,0.0,0.440645640834,0.139429758358,0.301215882476,0.580075399192,0.139429758358,0.288293009003,466,0.464789014893,0.368385601135,-1.0,nan,nan,nan,nan,0.0,0.0,0.0,nan,326.59496466,512.564897673,513.064939868,512.815699083,nan,nan,nan,nan
1,151,1,1,1.0,1.0,0.514667713083,0,0.0,0.0,0.0,0.439318058797,0.13983912249,0.300348182551,0.57933445802,0.13983912249,0.346816369643,282,0.208142307666,0.34807905204,0.609295500931,nan,nan,nan,nan,0.0,0.0,0.0,nan,326.59496466,513.564985198,514.065074149,514.079652911,nan,nan,nan,nan
1,152,1,1,nan,nan,nan,0,0.0,0.0,0.0,0.439841320285,0.139493137735,0.300348182551,0.57933445802,0.139493137735,0.382734561339,468,0.481236483515,0.363131620867,-1.0,nan,nan,nan,nan,0.0,0.0,0.0,nan,326.59496466,514.56512461,515.065203583,nan,nan,nan,nan,nan
1,153,1,1,nan,nan,nan,0,0.0,0.0,0.0,0.439841320285,0.139493137735,0.300348182551,0.57933445802,0.139493137735,0.514667713083,38,1.0,0.0306259494545,-1.0,nan,nan,nan,nan,0.0,0.0,0.0,nan,326.59496466,515.565260887,516.065336438,nan,nan,nan,nan,nan
1,154,1,1,1.0,1.0,0.73023131676,0,0.0,0.0,0.0,0.439841320285,0.139493137735,0.300348182551,0.57933445802,0.139493137735,0.73023131676,490,0.664660387652,0.296157848571,-1.0,nan,nan,nan,nan,0.0,0.0,0.0,nan,326.59496466,516.565387186,517.065465587,517.295618502,nan,nan,nan,nan
1,155,1,1,1.0,1.0,0.650073213503,0,0.0,0.0,0.0,0.441844009916,0.141073350875,0.300770659041,0.582917360791,0.141073350875,0.690152265131,99,1.0,-0.267176270739,-0.468793303331,nan,nan,nan,nan,0.0,0.0,0.0,nan,326.59496466,517.565511488,518.06558989,518.215584702,nan,nan,nan,nan
1,156,1,1,1.0,1.0,0.593925192952,0,0.0,1.0,0.0,0.443270237338,0.141634478342,0.301635758996,0.58490471568,0.141634478342,0.658076574405,483,0.606025706087,0.319314454546,-1.0,nan,nan,nan,nan,0.0,0.0,0.0,nan,326.59496466,518.56564862,519.065716188,519.159573813,nan,nan,nan,nan
1,157,1,1,1.0,1.0,0.553774295375,1,0.0,0.0,1.0,0.444295100982,0.141694075731,0.30260102525,0.585989176713,0.141694075731,0.599257567277,248,0.568115903494,0.223728204869,0.653295769881,-49.6255058706,139.625505871,-34.7494941294,199.0,1.0,-0.0246761787097,0.468786302982,1.68383307196,326.59496466,519.565778055,520.065844483,520.119552351,523.099511114,524.098122403,521.399299458,523.091185688
1,158,1,1,1.0,1.0,0.587788461708,0,0.0,0.0,0.0,0.445034825268,0.141499086543,0.303535738725,0.586533911812,0.141499086543,0.578495983345,162,1.0,-0.218739557155,0.176632971453,nan,nan,nan,nan,0.0,0.0,0.0,nan,326.59496466,524.299687989,524.799776085,524.887476451,nan,nan,nan,nan
1,159,1,1,1.0,1.0,0.387642093003,0,0.0,0.0,0.0,0.445992903365,0.141504300039,0.304488603326,0.587497203404,0.141504300039,0.509734950028,346,-0.174317561957,0.466431294057,0.176670174816,nan,nan,nan,nan,0.0,0.0,0.0,nan,326.59496466,525.299829397,525.799859048,525.68747149,nan,nan,nan,nan
1,160,1,1,1.0,1.0,0.451491460204,0,0.0,0.0,0.0,0.445603897963,0.1411117451,0.304492152863,0.586715643063,0.1411117451,0.475640671638,79,1.0,-0.184296021705,-0.724170777997,nan,nan,nan,nan,0.0,0.0,0.0,nan,326.59496466,526.299961683,526.800002452,526.751453144,nan,nan,nan,nan
1,161,1,1,1.0,1.0,0.411310628988,0,0.0,0.0,0.0,0.445642888441,0.140644522182,0.304998366259,0.586287410624,0.140644522182,0.416814727398,484,0.614398947124,0.316112737715,-1.0,nan,nan,nan,nan,0.0,0.0,0.0,nan,326.59496466,527.300114496,527.800134737,527.711425125,nan,nan,nan,nan
1,162,1,1,1.0,1.0,0.483173810877,0,0.0,0.0,0.0,0.445417018313,0.140208586953,0.30520843136,0.585625605266,0.140208586953,0.448658633356,136,1.0,-0.301914900238,-0.074841205769,nan,nan,nan,nan,0.0,0.0,0.0,nan,326.59496466,528.300229105,528.800247066,528.783402916,nan,nan,nan,nan
1,163,1,1,1.0,1.0,0.659026425332,0,0.0,0.0,0.0,0.445663794735,0.139782752354,0.305881042381,0.585446547089,0.139782752354,0.517836955066,353,-0.175041255135,0.471490071959,0.108799216003,nan,nan,nan,nan,0.0,0.0,0.0,nan,326.59496466,529.300352267,529.800408146,529.959378692,nan,nan,nan,nan
1,164,1,1,1.0,1.0,0.505525195971,0,0.0,0.0,0.0,0.447049266362,0.140378161254,0.306671105109,0.587427427616,0.140378161254,0.549241810727,433,0.206536295144,0.436163724167,-1.0,nan,nan,nan,nan,0.0,0.0,0.0,nan,326.59496466,530.333839857,530.833877775,530.839365053,nan,nan,nan,nan
1,165,1,1,1.0,1.0,0.433426236734,0,0.0,0.0,0.0,0.447426530424,0.140002896506,0.307423633919,0.58742942693,0.140002896506,0.532659286012,321,-0.0999433513493,0.43654647086,0.391174984052,nan,nan,nan,nan,0.0,0.0,0.0,nan,326.59496466,531.333940212,531.83396302,531.767366448,nan,nan,nan,nan
1,166,1,1,1.0,1.0,0.377285059541,0,0.0,0.0,0.0,0.447336784952,0.139557920643,0.307778864309,0.586894705595,0.139557920643,0.438745497415,379,-0.113535935895,0.478614986251,-0.165970515924,nan,nan,nan,nan,0.0,0.0,0.0,nan,326.59496466,532.33406765,532.834114976,532.71135271,nan,nan,nan,nan
1,167,1,1,1.0,1.0,0.305116252042,0,0.0,0.0,0.0,0.446890595618,0.139224340094,0.307666255524,0.586114935712,0.139224340094,0.371942516106,492,0.681403316433,0.289222019555,-1.0,nan,nan,nan,nan,0.0,0.0,0.0,nan,326.59496466,533.334191668,533.834236428,533.63930792,nan,nan,nan,nan
1,168,1,1,1.0,1.0,0.480967439711,0,0.0,0.0,0.0,0.445993289646,0.139237734929,0.306755554717,0.585231024575,0.139237734929,0.387789583765,109,1.0,-0.294638327523,-0.357773695079,nan,nan,nan,nan,0.0,0.0,0.0,nan,326.59496466,534.334335642,534.834346476,534.815303082,nan,nan,nan,nan
1,169,1,1,1.0,1.0,0.38482988812,0,0.0,0.0,0.0,0.446213252854,0.138826725559,0.307386527295,0.585039978413,0.138826725559,0.390304526625,509,0.822386376617,0.224555004187,-1.0,nan,nan,nan,nan,0.0,0.0,0.0,nan,326.59496466,535.334450536,535.834482753,535.719280425,nan,nan,nan,nan
1,170,0,0,0.0,1.0,0.416684152558,0,0.0,0.0,0.0,0.445829606825,0.138476736877,0.307352869948,0.584306343702,0.138476736877,0.427493826797,317,-0.077772836126,0.429938605076,0.420733606481,nan,nan,nan,nan,0.0,0.0,0.0,nan,326.59496466,536.334596507,536.834630148,536.75128066,nan,nan,nan,nan
1,171,1,1,1.0,1.0,0.384556478821,0,0.0,0.0,0.0,0.445648579158,0.138065005086,0.307583574072,0.583713584245,0.138065005086,0.395356839833,448,0.32026743599,0.409662251776,-1.0,nan,nan,nan,nan,0.0,0.0,0.0,nan,326.59496466,537.334696576,537.834726796,537.719253055,nan,nan,nan,nan
1,172,1,1,1.0,1.0,0.400429015048,0,0.0,0.0,0.0,0.445271467428,0.137721369558,0.30755009787,0.582992836986,0.137721369558,0.400556548809,379,-0.113535935895,0.478614986251,-0.165970515924,nan,nan,nan,nan,0.0,0.0,0.0,nan,326.59496466,538.334815462,538.834850814,538.735244477,nan,nan,nan,nan
1,173,0,0,1.0,0.0,0.344237660058,0,0.0,0.0,0.0,0.444996360358,0.137342904381,0.307653455977,0.582339264739,0.137342904381,0.376407717975,120,1.0,-0.310161497659,-0.240162905937,nan,nan,nan,nan,0.0,0.0,0.0,nan,326.59496466,539.334981959,539.835011895,539.679219619,nan,nan,nan,nan
1,174,1,1,0.0,0.0,0.136169278063,0,0.0,0.0,0.0,0.444381978039,0.137148027846,0.303705440029,0.581322604534,0.137148027846,0.29361198439,329,-0.136053278316,0.448203788942,0.3278337444,nan,nan,nan,nan,0.0,0.0,0.0,nan,326.59496466,540.335081743,540.835151877,540.471251021,nan,nan,nan,nan
1,175,1,1,nan,nan,nan,0,0.0,0.0,0.0,0.442514022282,0.138808582252,0.303705440029,0.581322604534,0.138808582252,0.24020346906,214,0.920243657418,0.0575410437433,0.553854850604,nan,nan,nan,nan,0.0,0.0,0.0,nan,326.59496466,541.335221441,541.835281597,nan,nan,nan,nan,nan
1,176,1,1,1.0,1.0,0.775756877847,0,0.0,0.0,0.0,0.442514022282,0.138808582252,0.303705440029,0.581322604534,0.138808582252,0.455963077955,395,-0.0383984177995,0.474183508328,-0.351427224487,nan,nan,nan,nan,0.0,0.0,0.0,nan,326.59496466,542.335350876,542.835406755,543.111107754,nan,nan,nan,nan
1,177,1,1,1.0,1.0,0.599649672396,0,0.0,0.0,0.0,0.444521509363,0.140771808294,0.30374970107,0.585293317657,0.140771808294,0.687703275122,488,0.647907709101,0.302951493728,-1.0,nan,nan,nan,nan,0.0,0.0,0.0,nan,326.59496466,543.335471187,543.835537614,543.935120859,nan,nan,nan,nan
1,178,1,1,1.0,1.0,0.399533808231,0,0.0,1.0,0.0,0.445450420519,0.140859066195,0.304591354325,0.586309486714,0.140859066195,0.591646786158,3,0.871087178923,0.199335109687,-1.0,nan,nan,nan,nan,0.0,0.0,0.0,nan,326.59496466,544.335593209,544.835618013,544.735127017,nan,nan,nan,nan
1,179,0,0,1.0,0.0,0.327374408022,0,0.0,0.0,0.0,0.445177107351,0.140483623983,0.304121583969,0.584838515948,0.140483623983,0.442185962883,217,0.891250405156,0.0735373331823,0.568048345461,nan,nan,nan,nan,0.0,0.0,0.0,nan,326.59496466,545.335744311,545.835774817,545.663118719,nan,nan,nan,nan
1,180,1,1,nan,nan,nan,0,0.0,0.0,0.0,0.444480049958,0.14035846599,0.304121583969,0.584838515948,0.14035846599,0.363454108126,301,0.0351599448551,0.39804275895,0.523414514543,nan,nan,nan,nan,0.0,0.0,0.0,nan,326.59496466,546.335842099,546.835918506,nan,nan,nan,nan,nan
1,181,1,1,1.0,1.0,0.285088984296,0,0.0,0.0,0.0,0.444480049958,0.14035846599,0.304121583969,0.584838515948,0.14035846599,0.306231696159,111,1.0,-0.298677811705,-0.336106236365,nan,nan,nan,nan,0.0,0.0,0.0,nan,326.59496466,547.386007912,547.886007912,547.671096897,nan,nan,nan,nan
1,182,1,1,1.0,1.0,0.141008242965,0,0.0,0.0,0.0,0.443542455455,0.1404748333,0.303067622155,0.584017288754,0.1404748333,0.21304861363,41,1.0,0.0148395037771,-1.0,nan,nan,nan,nan,0.0,0.0,0.0,nan,326.59496466,548.386112258,548.886156163,548.527120501,nan,nan,nan,nan
1,183,1,1,1.0,1.0,0.0928925676271,0,1.0,0.0,0.0,0.441773249534,0.141950326927,0.299822922606,0.583723576461,0.141950326927,0.172996598296,162,1.0,-0.218739557155,0.176632971453,nan,nan,nan,nan,0.0,0.0,0.0,nan,326.59496466,549.386226012,549.886305269,549.47911858,nan,nan,nan,nan
1,184,1,1,1.0,1.0,0.0446811011061,1,0.0,0.0,1.0,0.439744873476,0.144001012751,0.295743860725,0.583745886227,0.144001012751,0.0928606372327,291,0.122027637739,0.373441943191,0.573791926984,-137.161079488,227.161079488,22.5517044882,323.0,-0.11001989341,0.43965344528,0.375855360355,4.00915876776,326.59496466,550.386386522,550.886441546,550.431067623,556.237069674,557.247570681,552.211557125,556.228743106
1,185,1,1,1.0,1.0,0.745271937922,0,0.0,0.0,0.0,0.437461267855,0.146674413965,0.29078685389,0.584135681821,0.146674413965,0.294281868885,123,1.0,-0.311441137266,-0.208672863777,nan,nan,nan,nan,0.0,0.0,0.0,nan,326.59496466,557.445605046,557.945669478,558.190876984,nan,nan,nan,nan
1,186,1,1,1.0,1.0,0.481141064316,0,0.0,0.0,0.0,0.439230294695,0.148091658971,0.291138635724,0.587321953665,0.148091658971,0.423698034448,313,-0.0530221528698,0.42279583272,0.448797959603,nan,nan,nan,nan,0.0,0.0,0.0,nan,326.59496466,558.4457322,558.945782091,558.926873264,nan,nan,nan,nan
1,187,0,0,0.0,1.0,0.520980063826,0,0.0,0.0,0.0,0.439469784807,0.14770172145,0.291768063357,0.587171506256,0.14770172145,0.582464355355,96,1.0,-0.25681952169,-0.503302481145,nan,nan,nan,nan,0.0,0.0,0.0,nan,326.59496466,559.445873038,559.945918368,559.966853102,nan,nan,nan,nan
1,188,1,1,1.0,1.0,0.384864955209,0,0.0,0.0,0.0,0.439932911392,0.147408887824,0.292524023568,0.587341799216,0.147408887824,0.46232869445,504,0.78128615449,0.244628286196,-1.0,nan,nan,nan,nan,0.0,0.0,0.0,nan,326.59496466,560.445988217,560.946040105,560.830853173,nan,nan,nan,nan
1,189,1,1,1.0,1.0,0.448724871501,0,0.0,0.0,0.0,0.439621792996,0.1470498256,0.292571967395,0.586671618596,0.1470498256,0.451523296845,253,0.513865899396,0.244839928328,0.655977188727,nan,nan,nan,nan,0.0,0.0,0.0,nan,326.59496466,561.446109669,561.946132192,561.894834541,nan,nan,nan,nan
1,190,1,1,1.0,1.0,0.3362355344,0,0.0,0.0,0.0,0.439672933886,0.146637760985,0.293035172901,0.586310694871,0.146637760985,0.389941787037,351,-0.175686286722,0.4701852659,0.128489978773,nan,nan,nan,nan,0.0,0.0,0.0,nan,326.59496466,562.454579355,562.95459418,562.79081489,nan,nan,nan,nan
1,191,1,1,1.0,1.0,0.296086062677,0,0.0,0.0,0.0,0.439095071319,0.14643068388,0.292664387439,0.5855257552,0.14643068388,0.360348822859,158,1.0,-0.235949227405,0.139764106,nan,nan,nan,nan,0.0,0.0,0.0,nan,326.59496466,563.45470936,563.954725896,563.750795423,nan,nan,nan,nan
1,192,1,1,1.0,1.0,0.176023386419,0,1.0,0.0,0.0,0.438300576827,0.146409739813,0.291890837013,0.58471031664,0.146409739813,0.269448327832,100,1.0,-0.270427092546,-0.457439896749,nan,nan,nan,nan,0.0,0.0,0.0,nan,326.59496466,564.454838795,564.954850484,564.630862181,nan,nan,nan,nan
1,193,1,1,1.0,1.0,0.143888301216,1,0.0,0.0,1.0,0.436851531576,0.147293359651,0.289558171925,0.584144891227,0.147293359651,0.205332583437,11,0.934659501434,0.163852895862,-1.0,126.618601979,323.381398021,-44.3529769786,460.0,0.415848916989,0.383334931935,-1.0,3.15904695168,326.59496466,565.454964522,565.954984765,565.598852823,570.455550969,571.45892168,567.280150521,570.447214138
1,194,1,1,1.0,1.0,0.558882678859,0,0.0,0.0,0.0,0.435241843497,0.148475981189,0.286765862308,0.583717824686,0.148475981189,0.292931455498,428,0.170378320166,0.443486568519,-0.86866140055,nan,nan,nan,nan,0.0,0.0,0.0,nan,326.59496466,571.655743524,572.155817649,572.214626202,nan,nan,nan,nan
1,195,1,1,1.0,1.0,0.47075808607,0,0.0,0.0,0.0,0.435917476477,0.148350029377,0.2875674471,0.584267505854,0.148350029377,0.391176355382,287,0.159501648714,0.36255249221,0.590751920292,nan,nan,nan,nan,0.0,0.0,0.0,nan,326.59496466,572.655876379,573.155910877,573.126634466,nan,nan,nan,nan
1,196,1,1,1.0,1.0,0.430607760325,0,0.0,0.0,0.0,0.436106827616,0.147968527858,0.288138299758,0.584075355474,0.147968527858,0.486749508418,2,0.863024578927,0.203622855609,-1.0,nan,nan,nan,nan,0.0,0.0,0.0,nan,326.59496466,573.65600838,574.156044587,574.08661614,nan,nan,nan,nan
1,197,1,1,1.0,1.0,0.350437967107,0,0.0,0.0,0.0,0.436077102928,0.147568621872,0.288508481056,0.5836457248,0.147568621872,0.417267937834,137,1.0,-0.300190217086,-0.0647316600203,nan,nan,nan,nan,0.0,0.0,0.0,nan,326.59496466,574.656163473,575.156154064,575.00660144,nan,nan,nan,nan
1,198,1,1,1.0,1.0,0.278332736343,0,0.0,0.0,0.0,0.435616677467,0.147304577869,0.288312099598,0.582921255335,0.147304577869,0.353126154592,205,1.0,0.00854800403903,0.505535240796,nan,nan,nan,nan,0.0,0.0,0.0,nan,326.59496466,575.656256985,576.156293763,575.934589721,nan,nan,nan,nan
1,199,0,0,0.0,1.0,0.59814606607,0,0.0,0.0,0.0,0.434775586872,0.147357340402,0.287418246471,0.582132927274,0.147357340402,0.408972256506,432,0.199227897075,0.437687328843,-1.0,nan,nan,nan,nan,0.0,0.0,0.0,nan,326.59496466,576.656406661,577.156451992,577.254552728,nan,nan,nan,nan
1,200,1,1,1.0,1.0,0.486039615236,0,0.0,0.0,0.0,0.435644578783,0.147444556563,0.28881180517,0.583010633206,0.147444556563,0.454172805883,172,1.0,-0.170984061773,0.265024678188,nan,nan,nan,nan,0.0,0.0,0.0,nan,326.59496466,577.656503879,578.156537236,578.142543495,nan,nan,nan,nan
1,201,1,1,nan,nan,nan,0,0.0,0.0,0.0,0.435911219188,0.147099414018,0.28881180517,0.583010633206,0.147099414018,0.542092840653,45,1.0,-0.0063957592436,-1.0,nan,nan,nan,nan,0.0,0.0,0.0,nan,326.59496466,578.664963872,579.165039994,nan,nan,nan,nan,nan
1,202,1,1,1.0,1.0,0.381395599805,0,0.0,0.0,0.0,0.435911219188,0.147099414018,0.28881180517,0.583010633206,0.147099414018,0.433717607521,455,0.375608248681,0.394875365091,-1.0,nan,nan,nan,nan,0.0,0.0,0.0,nan,326.59496466,579.665123242,580.165122102,580.046518842,nan,nan,nan,nan
1,203,1,1,1.0,1.0,0.573243911378,0,0.0,0.0,0.0,0.435624294875,0.146764817563,0.288859477312,0.582389112438,0.146764817563,0.477319755591,237,0.686387300223,0.174031846447,0.636349816437,nan,nan,nan,nan,0.0,0.0,0.0,nan,326.59496466,580.66523329,581.165294586,581.238477201,nan,nan,nan,nan
1,204,1,1,1.0,1.0,0.461102963425,0,0.0,0.0,0.0,0.436344816427,0.146716652143,0.289628164284,0.583061468571,0.146716652143,0.471914158203,332,-0.146647089803,0.45205423783,0.302714191958,nan,nan,nan,nan,0.0,0.0,0.0,nan,326.59496466,581.665372703,582.16539551,582.126475667,nan,nan,nan,nan
1,205,0,0,0.0,1.0,0.524929523468,0,0.0,0.0,0.0,0.43647376511,0.146344929882,0.290128835228,0.582818694991,0.146344929882,0.519758799424,144,1.0,-0.284423189345,0.00519445478499,nan,nan,nan,nan,0.0,0.0,0.0,nan,326.59496466,582.665504703,583.165548894,583.190434227,nan,nan,nan,nan
1,206,1,1,1.0,1.0,0.404813819565,0,0.0,0.0,0.0,0.436932085101,0.146103392884,0.290828692218,0.583035477985,0.146103392884,0.463615435486,435,0.221263830514,0.433027056876,-1.0,nan,nan,nan,nan,0.0,0.0,0.0,nan,326.59496466,583.665619313,584.165659511,584.070433132,nan,nan,nan,nan
1,207,1,1,1.0,1.0,0.436660956591,0,0.0,0.0,0.0,0.436766527031,0.145744500667,0.291022026364,0.582511027698,0.145744500667,0.455468099875,488,0.647907709101,0.302951493728,-1.0,nan,nan,nan,nan,0.0,0.0,0.0,nan,326.59496466,584.66574219,585.165780677,585.102403146,nan,nan,nan,nan
1,208,1,1,1.0,1.0,0.500220379792,0,0.0,0.0,0.0,0.436765985645,0.145370316675,0.29139566897,0.582136302319,0.145370316675,0.447231718649,391,-0.0591907973189,0.475916278612,-0.303718712187,nan,nan,nan,nan,0.0,0.0,0.0,nan,326.59496466,585.682545856,586.182593182,586.182766235,nan,nan,nan,nan
1,209,1,1,1.0,1.0,0.395716918632,0,0.0,0.0,0.0,0.437089732554,0.145069460248,0.292020272305,0.582159192802,0.145069460248,0.444199418339,104,1.0,-0.282351481576,-0.412644567278,nan,nan,nan,nan,0.0,0.0,0.0,nan,326.59496466,586.682655048,587.182679281,587.078371966,nan,nan,nan,nan
1,210,1,1,1.0,1.0,0.435559339821,0,0.0,0.0,0.0,0.43687971827,0.144730663332,0.292149054937,0.581610381602,0.144730663332,0.443832212749,437,0.23613482661,0.429770237144,-1.0,nan,nan,nan,nan,0.0,0.0,0.0,nan,326.59496466,587.682798737,588.182809286,588.118358077,nan,nan,nan,nan
1,211,1,1,1.0,1.0,0.435459270142,0,0.0,0.0,0.0,0.436873049692,0.144364749566,0.292508300126,0.581237799257,0.144364749566,0.422245176199,258,0.459642287315,0.26499291187,0.655490062901,nan,nan,nan,nan,0.0,0.0,0.0,nan,326.59496466,588.682899661,589.182950124,589.118358932,nan,nan,nan,nan
1,212,1,1,1.0,1.0,0.411233652383,0,0.0,0.0,0.0,0.436865945272,0.14400160193,0.292864343342,0.580867547202,0.14400160193,0.427417420782,327,-0.128086156831,0.445480682368,0.344176439252,nan,nan,nan,nan,0.0,0.0,0.0,nan,326.59496466,589.683072716,590.183099801,590.094306368,nan,nan,nan,nan
1,213,1,1,1.0,1.0,0.446921627969,0,0.0,0.0,0.0,0.436737783807,0.143652524163,0.293085259644,0.58039030797,0.143652524163,0.431204850165,175,1.0,-0.155629953633,0.290361762956,nan,nan,nan,nan,0.0,0.0,0.0,nan,326.59496466,590.727389747,591.233217146,591.174311375,nan,nan,nan,nan
1,214,1,1,1.0,1.0,0.513323476538,0,0.0,0.0,0.0,0.436788449699,0.143296525432,0.293491924266,0.580084975131,0.143296525432,0.45715958563,82,1.0,-0.198479155091,-0.679872484948,nan,nan,nan,nan,0.0,0.0,0.0,nan,326.59496466,591.724953301,592.225040256,592.238276778,nan,nan,nan,nan
1,215,1,1,1.0,1.0,0.609161674976,0,0.0,0.0,0.0,0.43716733597,0.143042286669,0.294125049301,0.580209622639,0.143042286669,0.523135593161,282,0.208142307666,0.34807905204,0.609295500931,nan,nan,nan,nan,0.0,0.0,0.0,nan,326.59496466,592.725105829,593.225172541,593.334267504,nan,nan,nan,nan
1,216,1,1,1.0,1.0,0.500230929814,0,0.0,0.0,0.0,0.438014598724,0.143196748369,0.294817850355,0.581211347093,0.143196748369,0.540905360443,457,0.391639248186,0.390358177281,-1.0,nan,nan,nan,nan,0.0,0.0,0.0,nan,326.59496466,593.725220152,594.225296274,594.225451082,nan,nan,nan,nan
1,217,0,0,1.0,0.0,0.424835668877,0,0.0,0.0,0.0,0.438319580739,0.142911421419,0.295688279318,0.580819331801,0.142911421419,0.511409424556,173,1.0,-0.165909522591,0.273535192888,nan,nan,nan,nan,0.0,0.0,0.0,nan,326.59496466,594.725389216,595.225407177,595.150224885,nan,nan,nan,nan
1,218,1,1,nan,nan,nan,0,0.0,0.0,0.0,0.438253805559,0.142565526242,0.295688279318,0.580819331801,0.142565526242,0.462533299346,10,0.926811495151,0.168400576072,-1.0,nan,nan,nan,nan,0.0,0.0,0.0,nan,326.59496466,595.725474745,596.225552007,nan,nan,nan,nan,nan
1,219,1,1,1.0,1.0,0.536587173119,0,0.0,0.0,0.0,0.438253805559,0.142565526242,0.295688279318,0.580819331801,0.142565526242,0.480711420998,333,-0.149813480994,0.453275949072,0.294183738108,nan,nan,nan,nan,0.0,0.0,0.0,nan,326.59496466,596.725586789,597.225676594,597.262173962,nan,nan,nan,nan
1,220,1,1,1.0,1.0,0.384456695057,0,0.0,0.0,0.0,0.438731152004,0.142383200523,0.296347951481,0.581114352526,0.142383200523,0.460521934088,395,-0.0383984177995,0.474183508328,-0.351427224487,nan,nan,nan,nan,0.0,0.0,0.0,nan,326.59496466,597.725735894,598.225756707,598.110192589,nan,nan,nan,nan
1,221,1,1,1.0,1.0,0.344314635731,0,0.0,0.0,0.0,0.43846895656,0.142088706373,0.296380250186,0.580557662933,0.142088706373,0.421786167969,257,0.470472903111,0.261039853404,0.655841377839,nan,nan,nan,nan,0.0,0.0,0.0,nan,326.59496466,598.725863619,599.225884716,599.070178255,nan,nan,nan,nan
1,222,1,1,1.0,1.0,0.264180195518,0,0.0,0.0,0.0,0.438016291556,0.141896273649,0.296120017907,0.579912565204,0.141896273649,0.330983842102,439,0.251144291643,0.426392204401,-1.0,nan,nan,nan,nan,0.0,0.0,0.0,nan,326.59496466,599.725975092,600.22601358,599.990155287,nan,nan,nan,nan
1,223,1,1,1.0,1.0,0.296015928499,0,0.0,0.0,0.0,0.4371845399,0.142063758762,0.295120781138,0.579248298662,0.142063758762,0.301503586583,366,-0.155593376329,0.477302029306,-0.0244766492797,nan,nan,nan,nan,0.0,0.0,0.0,nan,326.59496466,600.72611536,601.226136742,601.022131288,nan,nan,nan,nan
1,224,1,1,1.0,1.0,0.263919331133,0,1.0,0.0,0.0,0.436512308417,0.142057918999,0.294454389418,0.578570227416,0.142057918999,0.274705151717,52,1.0,-0.0438860552364,-1.0,nan,nan,nan,nan,0.0,0.0,0.0,nan,326.59496466,601.726252492,602.226269312,601.990171823,nan,nan,nan,nan
1,225,1,1,1.0,1.0,0.359722463414,1,0.0,0.0,1.0,0.435694332221,0.142215745464,0.293478586757,0.577910077686,0.142215745464,0.306552574349,126,1.0,-0.311411754845,-0.177408431044,173.938211211,276.061788789,-172.531961211,393.0,-0.0489456633786,0.475102171109,-0.327443230616,1.81723233871,326.59496466,602.726379075,603.226422125,603.086101539,606.393485458,607.400719245,604.559896772,606.385154329
1,226,1,1,1.0,1.0,0.412028219551,0,0.0,0.0,0.0,0.43533597435,0.141975394031,0.293360580319,0.577311368381,0.141975394031,0.345223338033,261,0.427225806086,0.276617811781,0.653674462902,nan,nan,nan,nan,0.0,0.0,0.0,nan,326.59496466,607.601990325,608.102010282,608.014018545,nan,nan,nan,nan
1,227,1,1,1.0,1.0,0.315859307535,0,0.0,0.0,0.0,0.435226548271,0.141650687082,0.293575861189,0.576877235353,0.141650687082,0.3625366635,185,1.0,-0.102214474652,0.370299946716,nan,nan,nan,nan,0.0,0.0,0.0,nan,326.59496466,608.602121755,609.102142853,608.917981063,nan,nan,nan,nan
1,228,1,1,1.0,1.0,0.235782456584,0,0.0,0.0,0.0,0.434668757426,0.141553617683,0.293115139743,0.576222375109,0.141553617683,0.32122332789,372,-0.138660017671,0.478458869494,-0.0888123791441,nan,nan,nan,nan,0.0,0.0,0.0,nan,326.59496466,609.602248624,610.102280554,609.838031081,nan,nan,nan,nan
1,229,1,1,1.0,1.0,0.243625497445,0,1.0,0.0,0.0,0.433743704864,0.141870905776,0.291872799088,0.57561461064,0.141870905776,0.265089087188,0,0.846831709088,0.212097570855,-1.0,nan,nan,nan,nan,0.0,0.0,0.0,nan,326.59496466,610.602390602,611.102409419,610.8460161,nan,nan,nan,nan
1,230,1,1,1.0,1.0,0.211494687945,1,0.0,0.0,1.0,0.432863527978,0.142129288509,0.290734239469,0.574992816487,0.142129288509,0.230300880658,298,0.0600896634305,0.391050340636,0.53969689008,140.257809169,309.742190831,100.210940831,441.0,0.266287261384,0.422891888867,-1.0,2.19216534123,326.59496466,611.602491242,612.102562801,611.81398593,615.644640674,616.651364136,613.436030606,615.636310971
1,231,1,1,1.0,1.0,0.536675839685,0,0.0,0.0,0.0,0.431843395075,0.142591825416,0.289251569659,0.57443522049,0.142591825416,0.330598675025,13,0.950262168777,0.154664060346,-1.0,nan,nan,nan,nan,0.0,0.0,0.0,nan,326.59496466,616.85317006,617.353240764,617.389845899,nan,nan,nan,nan
1,232,1,1,1.0,1.0,0.440517474897,0,0.0,0.0,0.0,0.432324277848,0.142440659653,0.289883618195,0.574764937501,0.142440659653,0.396229334176,421,0.121471671064,0.452518040197,-0.712610339232,nan,nan,nan,nan,0.0,0.0,0.0,nan,326.59496466,617.853302631,618.353324583,618.293820105,nan,nan,nan,nan
1,233,1,1,1.0,1.0,0.336370670237,0,0.0,0.0,0.0,0.432361689707,0.14211615408,0.290245535627,0.574477843786,0.14211615408,0.437854661606,231,0.749609680972,0.145151270079,0.620821461523,nan,nan,nan,nan,0.0,0.0,0.0,nan,326.59496466,618.853437196,619.353449455,619.189807867,nan,nan,nan,nan
1,234,1,1,1.0,1.0,0.280240896158,0,0.0,0.0,0.0,0.431925366891,0.141939738599,0.289985628292,0.57386510549,0.141939738599,0.352376347097,291,0.122027637739,0.373441943191,0.573791926984,nan,nan,nan,nan,0.0,0.0,0.0,nan,326.59496466,619.853572618,620.353583166,620.133813514,nan,nan,nan,nan
1,235,1,1,1.0,1.0,0.248098968528,0,1.0,0.0,0.0,0.43123901182,0.141983679768,0.289255332051,0.573222691588,0.141983679768,0.288236844974,383,-0.0968787136249,0.478131214543,-0.211081409456,nan,nan,nan,nan,0.0,0.0,0.0,nan,326.59496466,620.85369635,621.353705188,621.101795319,nan,nan,nan,nan
1,236,1,1,1.0,1.0,0.199942524545,1,0.0,0.0,1.0,0.43041405667,0.142193386413,0.288220670257,0.572607443082,0.142193386413,0.24276079641,110,1.0,-0.296722754836,-0.346921960777,22.0740281087,67.9259718913,-9.4177781087,97.0,1.0,-0.260369742894,-0.491718830742,1.22545307688,326.59496466,621.853829206,622.353873681,622.053771731,624.929183411,625.933198159,623.687348614,624.920853423
1,237,1,1,1.0,1.0,0.668303508312,0,0.0,0.0,0.0,0.429380552041,0.142707450488,0.286673101554,0.572088002529,0.142707450488,0.372115000462,338,-0.162891363375,0.458928707883,0.250399161362,nan,nan,nan,nan,0.0,0.0,0.0,nan,326.59496466,626.129353444,626.629426714,626.797656952,nan,nan,nan,nan
1,238,0,0,0.0,1.0,0.588147399947,0,0.0,0.0,0.0,0.430447172382,0.143276661718,0.287170510664,0.5737238341,0.143276661718,0.485464477601,292,0.112881669716,0.376069582356,0.569261850688,nan,nan,nan,nan,0.0,0.0,0.0,nan,326.59496466,627.129507967,627.62956071,627.717655367,nan,nan,nan,nan
1,239,1,1,1.0,1.0,0.388060901314,0,0.0,0.0,0.0,0.431148062282,0.143342263798,0.287805798484,0.57449032608,0.143342263798,0.548170603191,389,-0.0691208065164,0.476626077068,-0.280234315682,nan,nan,nan,nan,0.0,0.0,0.0,nan,326.59496466,628.129592356,628.629633125,628.517653258,nan,nan,nan,nan
1,240,1,1,1.0,1.0,0.395900521427,0,0.0,0.0,0.0,0.430957411127,0.143053370846,0.287904040281,0.574010781973,0.143053370846,0.457369607563,108,1.0,-0.292426609412,-0.368663285579,nan,nan,nan,nan,0.0,0.0,0.0,nan,326.59496466,629.129739751,629.629759708,629.525640273,nan,nan,nan,nan
1,241,0,0,1.0,0.0,0.299742442556,0,0.0,0.0,0.0,0.43080297549,0.142756807675,0.288046167815,0.573559783165,0.142756807675,0.361234621766,180,1.0,-0.129278616986,0.331238955499,nan,nan,nan,nan,0.0,0.0,0.0,nan,326.59496466,630.129888573,630.629921929,630.429631015,nan,nan,nan,nan
1,242,1,1,1.0,1.0,0.307593466714,0,0.0,0.0,0.0,0.430228148591,0.142706443556,0.287521705035,0.572934592147,0.142706443556,0.334412143566,487,0.639529740128,0.306295026098,-1.0,nan,nan,nan,nan,0.0,0.0,0.0,nan,326.59496466,631.12999748,631.630022569,631.437590946,nan,nan,nan,nan
1,243,1,1,1.0,1.0,0.315435652621,0,0.0,0.0,0.0,0.429692625963,0.142623929271,0.287068696692,0.572316555234,0.142623929271,0.30759052063,66,1.0,-0.118568705386,-1.0,nan,nan,nan,nan,0.0,0.0,0.0,nan,326.59496466,632.130121782,632.630152288,632.445557435,nan,nan,nan,nan
1,244,1,1,1.0,1.0,0.323309483938,0,0.0,0.0,0.0,0.429195856514,0.142511950796,0.286683905717,0.57170780731,0.142511950796,0.315446201091,170,1.0,-0.180990482069,0.247815061387,nan,nan,nan,nan,0.0,0.0,0.0,nan,326.59496466,633.130251787,633.630292841,633.453561271,nan,nan,nan,nan
1,245,1,1,1.0,1.0,0.419162223116,0,0.0,0.0,0.0,0.428737473948,0.142372967529,0.286364506419,0.571110441477,0.142372967529,0.352635786558,457,0.391639248186,0.390358177281,-1.0,nan,nan,nan,nan,0.0,0.0,0.0,nan,326.59496466,634.130382932,634.630410586,634.549545155,nan,nan,nan,nan
1,246,1,1,1.0,1.0,0.386937615462,0,0.0,0.0,0.0,0.428696201315,0.142067182766,0.28662901855,0.570763384081,0.142067182766,0.376469774172,166,1.0,-0.20036215083,0.21267421211,nan,nan,nan,nan,0.0,0.0,0.0,nan,326.59496466,635.13059533,635.630533749,635.517532946,nan,nan,nan,nan
1,247,1,1,1.0,1.0,0.346864551306,0,0.0,0.0,0.0,0.428516979917,0.141788270498,0.286728709419,0.570305250415,0.141788270498,0.384321463294,76,1.0,-0.169674511773,-0.773365826749,nan,nan,nan,nan,0.0,0.0,0.0,nan,326.59496466,636.130630397,636.630652634,636.477494949,nan,nan,nan,nan
1,248,1,1,1.0,1.0,0.290709688328,0,0.0,0.0,0.0,0.428168037914,0.14158520294,0.286582834975,0.569753240854,0.14158520294,0.341503951699,400,-0.0107874812989,0.471427301814,-0.412692688905,nan,nan,nan,nan,0.0,0.0,0.0,nan,326.59496466,637.130768099,637.630806873,637.421477787,nan,nan,nan,nan
1,249,1,1,1.0,1.0,0.330584609881,0,0.0,0.0,0.0,0.427583108767,0.141566688326,0.286016420441,0.569149797094,0.141566688326,0.322719616505,314,-0.0594438881467,0.42463230952,0.441925406839,nan,nan,nan,nan,0.0,0.0,0.0,nan,326.59496466,638.130895253,638.630934026,638.461479863,nan,nan,nan,nan
1,250,1,1,1.0,1.0,0.314453490078,0,0.0,0.0,0.0,0.427172098179,0.141406879937,0.285765218242,0.568578978115,0.141406879937,0.311915929429,255,0.492159363509,0.253017189294,0.656163111527,nan,nan,nan,nan,0.0,0.0,0.0,nan,326.59496466,639.131022122,639.631045214,639.445475612,nan,nan,nan,nan
1,251,0,0,0.0,1.0,0.410278574564,0,0.0,0.0,0.0,0.426696492237,0.141297268983,0.285399223254,0.56799376122,0.141297268983,0.351772224841,389,-0.0691208065164,0.476626077068,-0.280234315682,nan,nan,nan,nan,0.0,0.0,0.0,nan,326.59496466,640.131165811,640.631200878,640.541444385,nan,nan,nan,nan
1,252,1,1,1.0,1.0,0.346121585928,0,0.0,0.0,0.0,0.42662750939,0.141004112731,0.285623396659,0.567631622121,0.141004112731,0.356951216857,324,-0.114799643766,0.441158325109,0.368064040095,nan,nan,nan,nan,0.0,0.0,0.0,nan,326.59496466,641.131293249,641.631318623,641.477414835,nan,nan,nan,nan
1,253,1,1,1.0,1.0,0.353995703161,0,0.0,0.0,0.0,0.426290664522,0.140804742096,0.285485922426,0.567095406617,0.140804742096,0.370131954551,262,0.416452475899,0.2804144186,0.652815538838,nan,nan,nan,nan,0.0,0.0,0.0,nan,326.59496466,642.131405008,642.631431522,642.485400711,nan,nan,nan,nan
1,254,1,1,1.0,1.0,0.273888916709,0,0.0,0.0,0.0,0.425989435516,0.14058824192,0.285401193596,0.566577677436,0.14058824192,0.324668735266,52,1.0,-0.0438860552364,-1.0,nan,nan,nan,nan,0.0,0.0,0.0,nan,326.59496466,643.131510494,643.631562667,643.405399411,nan,nan,nan,nan
1,255,1,1,1.0,1.0,0.529713750817,0,0.0,0.0,0.0,0.425358313031,0.140636541613,0.284721771419,0.565994854644,0.140636541613,0.385866123562,468,0.481236483515,0.363131620867,-1.0,nan,nan,nan,nan,0.0,0.0,0.0,nan,326.59496466,644.131643064,644.631720896,644.661356815,nan,nan,nan,nan
1,256,1,1,1.0,1.0,0.401571687311,0,0.0,0.0,0.0,0.425789533849,0.140505235555,0.285284298294,0.566294769403,0.140505235555,0.401724784945,54,1.0,-0.0546292063271,-1.0,nan,nan,nan,nan,0.0,0.0,0.0,nan,326.59496466,645.131771074,645.631804145,645.533342761,nan,nan,nan,nan
1,257,1,1,1.0,1.0,0.321399328299,0,0.0,0.0,0.0,0.425689871929,0.140224403125,0.285465468804,0.565914275054,0.140224403125,0.417561588809,306,-0.00395437407881,0.408974006242,0.494128827808,nan,nan,nan,nan,0.0,0.0,0.0,nan,326.59496466,646.131940992,646.631932724,646.45334032,nan,nan,nan,nan
1,258,1,1,1.0,1.0,0.31327888649,0,0.0,0.0,0.0,0.425262451668,0.140095292026,0.285167159642,0.565357743695,0.140095292026,0.345416634033,224,0.821619416966,0.11002478857,0.597264883709,nan,nan,nan,nan,0.0,0.0,0.0,nan,326.59496466,647.132024241,647.632057027,647.445303127,nan,nan,nan,nan
1,259,1,1,1.0,1.0,0.289110003971,0,0.0,0.0,0.0,0.424805375892,0.139991278166,0.284814097726,0.564796654058,0.139991278166,0.307929406253,74,1.0,-0.159715158178,-0.810443278181,nan,nan,nan,nan,0.0,0.0,0.0,nan,326.59496466,648.132170496,648.632191593,648.4212805,nan,nan,nan,nan
1,260,1,1,1.0,1.0,0.264978184365,0,0.0,0.0,0.0,0.424253768689,0.139972995134,0.284280773555,0.564226763823,0.139972995134,0.289122358275,228,0.780729811514,0.1302769546,0.611433142569,nan,nan,nan,nan,0.0,0.0,0.0,nan,326.59496466,649.132289381,649.632312759,649.397267565,nan,nan,nan,nan
1,261,1,1,1.0,1.0,0.400842976756,0,0.0,0.0,0.0,0.423608928267,0.14005502228,0.283553905987,0.563663950546,0.14005502228,0.318310388364,132,1.0,-0.307426825298,-0.115555361894,nan,nan,nan,nan,0.0,0.0,0.0,nan,326.59496466,650.132409693,650.632462435,650.533252669,nan,nan,nan,nan
1,262,1,1,1.0,1.0,0.320678601041,0,0.0,0.0,0.0,0.423517130075,0.139779813707,0.283737316368,0.563296943782,0.139779813707,0.328833254054,494,0.698129958021,0.282143999684,-1.0,nan,nan,nan,nan,0.0,0.0,0.0,nan,326.59496466,651.132562505,651.632567352,651.453241106,nan,nan,nan,nan
1,263,1,1,1.0,1.0,0.264545120299,0,0.0,0.0,0.0,0.423104123934,0.139650389311,0.283453734623,0.562754513245,0.139650389311,0.328688899366,352,-0.17544712699,0.470851603012,0.118673592819,nan,nan,nan,nan,0.0,0.0,0.0,nan,326.59496466,652.132684812,652.632707905,652.397229932,nan,nan,nan,nan
1,264,1,1,1.0,1.0,0.296397389844,0,0.0,0.0,0.0,0.42246988792,0.139729681474,0.282740206445,0.562199569394,0.139729681474,0.293873703728,241,0.64365311028,0.192605941253,0.644254782112,nan,nan,nan,nan,0.0,0.0,0.0,nan,326.59496466,653.132805979,653.632826505,653.429203369,nan,nan,nan,nan
1,265,1,1,1.0,1.0,0.238213770092,0,1.0,0.0,0.0,0.421967607051,0.139677016766,0.282290590285,0.561644623817,0.139677016766,0.266385426745,45,1.0,-0.0063957592436,-1.0,nan,nan,nan,nan,0.0,0.0,0.0,nan,326.59496466,654.182949554,654.682958107,654.421163324,nan,nan,nan,nan
1,266,0,0,1.0,0.0,0.262099266984,0,0.0,0.0,0.0,0.421238425158,0.139877474797,0.281360950361,0.561115899955,0.139877474797,0.265570142306,218,0.881467392804,0.0788246127756,0.572559633417,nan,nan,nan,nan,0.0,0.0,0.0,nan,326.59496466,655.183073856,655.683113485,655.445173123,nan,nan,nan,nan
1,267,1,1,1.0,1.0,0.35796312429,0,0.0,0.0,0.0,0.420609416628,0.139957412729,0.280652003899,0.560566829357,0.139957412729,0.286092053788,105,1.0,-0.285049837405,-0.401580786678,nan,nan,nan,nan,0.0,0.0,0.0,nan,326.59496466,656.183177347,656.683215835,656.541140472,nan,nan,nan,nan
1,268,0,0,1.0,0.0,0.301773764193,0,0.0,0.0,0.0,0.420362777682,0.139736713672,0.28062606401,0.560099491353,0.139736713672,0.307278718489,153,1.0,-0.255547855702,0.0926213922694,nan,nan,nan,nan,0.0,0.0,0.0,nan,326.59496466,657.183366082,657.683373209,657.485139846,nan,nan,nan,nan
1,269,1,1,1.0,1.0,0.317676521838,0,0.0,0.0,0.0,0.419897722727,0.13965926164,0.280238461087,0.559556984366,0.13965926164,0.325804470107,273,0.299732959835,0.319577193062,0.635038033336,nan,nan,nan,nan,0.0,0.0,0.0,nan,326.59496466,658.183447049,658.683490099,658.501123571,nan,nan,nan,nan
1,270,1,1,1.0,1.0,0.373538873158,0,0.0,0.0,0.0,0.419498421161,0.139531991796,0.279966429365,0.559030412957,0.139531991796,0.330996386396,199,1.0,-0.0246761787097,0.468786302982,nan,nan,nan,nan,0.0,0.0,0.0,nan,326.59496466,659.183564795,659.683603283,659.557103668,nan,nan,nan,nan
1,271,0,0,1.0,0.0,0.293397590518,0,0.0,0.0,0.0,0.419319590235,0.139289655722,0.280029934513,0.558609245957,0.139289655722,0.328204328505,150,1.0,-0.266152531622,0.0638227105866,nan,nan,nan,nan,0.0,0.0,0.0,nan,326.59496466,660.183684821,660.683754955,660.477082412,nan,nan,nan,nan
1,272,1,1,1.0,1.0,0.501228772104,0,0.0,0.0,0.0,0.418831520468,0.139239465197,0.279592055272,0.558070985665,0.139239465197,0.389388411927,342,-0.170052622031,0.462913557708,0.21407524247,nan,nan,nan,nan,0.0,0.0,0.0,nan,326.59496466,661.183817106,661.68390121,661.685045878,nan,nan,nan,nan
1,273,0,0,1.0,0.0,0.365088859573,0,0.0,0.0,0.0,0.419149656575,0.139064320692,0.280085335883,0.558213977267,0.139064320692,0.386571740732,437,0.23613482661,0.429770237144,-1.0,nan,nan,nan,nan,0.0,0.0,0.0,nan,326.59496466,662.1839588,662.684007552,662.549047659,nan,nan,nan,nan
1,274,1,1,0.0,0.0,0.125004276633,0,0.0,0.0,0.0,0.418941730433,0.13883696331,0.280104767123,0.557778693743,0.13883696331,0.330440636103,486,0.631151757674,0.309603058574,-1.0,nan,nan,nan,nan,0.0,0.0,0.0,nan,326.59496466,663.184084528,663.684116459,663.309088805,nan,nan,nan,nan
1,275,1,1,1.0,1.0,0.732769257389,0,0.0,0.0,0.0,0.417815533292,0.139755544847,0.278059988445,0.557571078138,0.139755544847,0.407620797865,89,1.0,-0.229484098413,-0.587370487375,nan,nan,nan,nan,0.0,0.0,0.0,nan,326.59496466,664.184208546,664.684279535,664.916977803,nan,nan,nan,nan
1,276,1,1,1.0,1.0,0.620625458658,0,0.0,0.0,0.0,0.419017646743,0.140834048469,0.278183598274,0.559851695211,0.140834048469,0.492799664227,201,1.0,-0.0135712615467,0.48142235136,nan,nan,nan,nan,0.0,0.0,0.0,nan,326.59496466,665.184339691,665.684418092,665.80496515,nan,nan,nan,nan
1,277,1,1,1.0,1.0,0.50048780255,0,0.0,1.0,0.0,0.41978421637,0.141112624113,0.278671592256,0.560896840483,0.141112624113,0.617960839532,262,0.416452475899,0.2804144186,0.652815538838,nan,nan,nan,nan,0.0,0.0,0.0,nan,326.59496466,666.18446998,666.684518162,666.684957783,nan,nan,nan,nan
1,278,1,1,1.0,1.0,0.668326601386,1,0.0,0.0,1.0,0.420089911772,0.140932334049,0.279157577723,0.56102224582,0.140932334049,0.596479954198,135,1.0,-0.303502321856,-0.0849788702499,-56.5272352735,146.527235273,51.6053602735,208.0,0.97651257568,0.025020743352,0.522574479073,2.72565692198,326.59496466,667.18460084,667.684624503,667.852927442,671.760134658,672.763627105,669.018117967,671.751800393
1,279,1,1,1.0,1.0,0.524494749494,0,0.0,0.0,0.0,0.421026653997,0.141487202359,0.279539451638,0.562513856356,0.141487202359,0.564436384477,42,1.0,0.00954878589686,-1.0,nan,nan,nan,nan,0.0,0.0,0.0,nan,326.59496466,672.960352872,673.460398772,673.484847621,nan,nan,nan,nan
1,280,1,1,1.0,1.0,0.356344054453,0,0.0,0.0,0.0,0.421415631799,0.141362887345,0.280052744455,0.562778519144,0.141362887345,0.516388468444,256,0.481312611765,0.257047908656,0.656065722404,nan,nan,nan,nan,0.0,0.0,0.0,nan,326.59496466,673.960466625,674.460475463,674.31681068,nan,nan,nan,nan
1,281,1,1,1.0,1.0,0.252204091288,0,0.0,0.0,0.0,0.421171918027,0.141153890913,0.280018027113,0.56232580894,0.141153890913,0.377680965078,51,1.0,-0.0385160204876,-1.0,nan,nan,nan,nan,0.0,0.0,0.0,nan,326.59496466,674.960604043,675.460635973,675.212808134,nan,nan,nan,nan
1,282,1,1,1.0,1.0,0.260073076002,0,0.0,0.0,0.0,0.420541441061,0.141266446431,0.27927499463,0.561807887492,0.141266446431,0.289540407248,228,0.780729811514,0.1302769546,0.611433142569,nan,nan,nan,nan,0.0,0.0,0.0,nan,326.59496466,675.960723784,676.460739464,676.22079686,nan,nan,nan,nan
1,283,1,1,1.0,1.0,0.227999001741,0,1.0,0.0,0.0,0.419944904388,0.141341401032,0.278603503356,0.56128630542,0.141341401032,0.246758723011,121,1.0,-0.310732805591,-0.229640808446,nan,nan,nan,nan,0.0,0.0,0.0,nan,326.59496466,676.960835257,677.460870894,677.188834258,nan,nan,nan,nan
1,284,1,1,1.0,1.0,0.131802719086,1,0.0,0.0,1.0,0.419233993637,0.14156041932,0.277673574318,0.560794412957,0.14156041932,0.206624932277,283,0.19826868328,0.351050922538,0.605825948857,-88.703936502,178.703936502,-20.280438498,254.0,0.503011129055,0.248947817922,0.65613358125,2.3422508128,326.59496466,677.960987214,678.461042237,678.092789933,682.144789496,683.15302255,679.786165229,682.13645409
1,285,1,1,1.0,1.0,0.571320641786,0,0.0,0.0,0.0,0.418173361628,0.142369730766,0.275803630862,0.560543092394,0.142369730766,0.310374120871,184,1.0,-0.107671891867,0.362640045218,nan,nan,nan,nan,0.0,0.0,0.0,nan,326.59496466,683.353326579,683.85338873,683.92464722,nan,nan,nan,nan
1,286,1,1,1.0,1.0,0.44317971915,0,0.0,0.0,0.0,0.418736403099,0.142409734902,0.276326668198,0.561146138001,0.142409734902,0.382101026674,38,1.0,0.0306259494545,-1.0,nan,nan,nan,nan,0.0,0.0,0.0,nan,326.59496466,684.353454587,684.853490225,684.796634306,nan,nan,nan,nan
1,287,1,1,1.0,1.0,0.259042447433,0,0.0,0.0,0.0,0.418825939055,0.14215634164,0.276669597415,0.560982280696,0.14215634164,0.424514269456,483,0.606025706087,0.319314454546,-1.0,nan,nan,nan,nan,0.0,0.0,0.0,nan,326.59496466,685.353585447,685.853599417,685.612627895,nan,nan,nan,nan
1,288,1,1,1.0,1.0,0.154938692227,0,0.0,0.0,0.0,0.418242787626,0.142223450939,0.27443874213,0.560131894247,0.142223450939,0.28572028627,34,1.0,0.0514419701458,-1.0,nan,nan,nan,nan,0.0,0.0,0.0,nan,326.59496466,686.353715452,686.853746528,686.508654145,nan,nan,nan,nan
1,289,1,1,nan,nan,nan,0,0.0,0.0,0.0,0.417285318188,0.142846576058,0.27443874213,0.560131894247,0.142846576058,0.20699056983,410,0.0492046846968,0.463921527344,-0.54316189137,nan,nan,nan,nan,0.0,0.0,0.0,nan,326.59496466,687.353831202,687.853904187,nan,nan,nan,nan,nan
1,290,1,1,1.0,1.0,0.0666085444391,0,0.0,0.0,0.0,0.417285318188,0.142846576058,0.27443874213,0.560131894247,0.142846576058,0.110773618333,192,1.0,-0.0635997558896,0.421658406928,nan,nan,nan,nan,0.0,0.0,0.0,nan,326.59496466,688.353970329,688.853990287,688.420578874,nan,nan,nan,nan
1,291,1,1,1.0,1.0,0.0824802257121,0,0.0,0.0,0.0,0.416014750168,0.144135897543,0.271878852624,0.560150647711,0.144135897543,0.0745443850756,308,-0.0186828559465,0.413097475488,0.481682330771,nan,nan,nan,nan,0.0,0.0,0.0,nan,326.59496466,689.354092066,689.854155358,689.436572292,nan,nan,nan,nan
1,292,1,1,1.0,1.0,0.0903420830145,0,1.0,0.0,0.0,0.414810654411,0.145259471474,0.269551182938,0.560070125885,0.145259471474,0.0798102843886,57,1.0,-0.0707313323512,-1.0,nan,nan,nan,nan,0.0,0.0,0.0,nan,326.59496466,690.354216939,690.854283366,690.444559022,nan,nan,nan,nan
1,293,1,1,1.0,1.0,0.410175370052,1,0.0,0.0,1.0,0.413643501277,0.146293389824,0.267350111453,0.559936891101,0.146293389824,0.194332559593,269,0.34171296506,0.305888347675,0.643262349404,-132.666353576,222.666353576,33.5257285762,317.0,-0.077772836126,0.429938605076,0.420733606481,3.36737648398,326.59496466,691.354339246,691.854367755,691.764514616,696.571627692,697.582792978,693.187870912,696.563296849
1,294,1,1,1.0,1.0,0.616240084171,0,0.0,0.0,0.0,0.413631070699,0.146031127025,0.267599943674,0.559662197724,0.146031127025,0.372252512413,346,-0.174317561957,0.466431294057,0.176670174816,nan,nan,nan,nan,0.0,0.0,0.0,nan,326.59496466,697.780158218,698.280234625,698.396398302,nan,nan,nan,nan
1,295,1,1,1.0,1.0,0.304125822149,0,0.0,0.0,0.0,0.414354674319,0.146270345721,0.268084328597,0.56062502004,0.146270345721,0.443513758791,226,0.801265930663,0.120208988367,0.60458276857,nan,nan,nan,nan,0.0,0.0,0.0,nan,326.59496466,698.780283376,699.280322719,699.084409198,nan,nan,nan,nan
1,296,1,1,1.0,1.0,0.247974379919,0,0.0,0.0,0.0,0.413962400823,0.146157316533,0.26780508429,0.560119717356,0.146157316533,0.38944676208,0,0.846831709088,0.212097570855,-1.0,nan,nan,nan,nan,0.0,0.0,0.0,nan,326.59496466,699.780408819,700.280449018,700.028383199,nan,nan,nan,nan
1,297,1,1,1.0,1.0,0.311839713715,0,0.0,0.0,0.0,0.41337379082,0.146231204907,0.267142585913,0.559604995727,0.146231204907,0.287979971928,478,0.56422249903,0.334793662244,-1.0,nan,nan,nan,nan,0.0,0.0,0.0,nan,326.59496466,700.7805297,701.28057161,701.092369414,nan,nan,nan,nan
1,298,1,1,1.0,1.0,0.343686280772,0,0.0,0.0,0.0,0.413015013162,0.146096900802,0.26691811236,0.559111913965,0.146096900802,0.301166791469,405,0.018463324075,0.468009379796,-0.476293327428,nan,nan,nan,nan,0.0,0.0,0.0,nan,326.59496466,701.78066113,702.280696482,702.124347411,nan,nan,nan,nan
1,299,0,0,1.0,0.0,0.311534089036,0,0.0,0.0,0.0,0.412770897908,0.14589726876,0.266873629148,0.558668166667,0.14589726876,0.322353361174,341,-0.168535884224,0.46196150489,0.223260112086,nan,nan,nan,nan,0.0,0.0,0.0,nan,326.59496466,702.780825062,703.280868682,703.092359151,nan,nan,nan,nan
1,300,1,1,1.0,1.0,0.327387807891,0,0.0,0.0,0.0,0.412415681034,0.145764056304,0.26665162473,0.558179737338,0.145764056304,0.327536059233,397,-0.0275613476434,0.473159987783,-0.37569455347,nan,nan,nan,nan,0.0,0.0,0.0,nan,326.59496466,703.780927412,704.280955066,704.10831522,nan,nan,nan,nan
1,301,1,1,1.0,1.0,0.319226027466,0,0.0,0.0,0.0,0.412118380779,0.145595534827,0.266522845952,0.557713915605,0.145595534827,0.319382641464,55,1.0,-0.0599996532909,-1.0,nan,nan,nan,nan,0.0,0.0,0.0,nan,326.59496466,704.781075663,705.281087637,705.10030169,nan,nan,nan,nan
1,302,1,1,1.0,1.0,0.367058314383,0,0.0,0.0,0.0,0.411794714042,0.145444698531,0.266350015511,0.557239412573,0.145444698531,0.33789071658,389,-0.0691208065164,0.476626077068,-0.280234315682,nan,nan,nan,nan,0.0,0.0,0.0,nan,326.59496466,705.781199966,706.281246437,706.14825828,nan,nan,nan,nan
1,303,1,1,1.0,1.0,0.334917812608,0,0.0,0.0,0.0,0.411639379321,0.145215816537,0.266423562784,0.556855195858,0.145215816537,0.340400718153,43,1.0,0.00424534395127,-1.0,nan,nan,nan,nan,0.0,0.0,0.0,nan,326.59496466,706.781316285,707.281332821,707.116234098,nan,nan,nan,nan
1,304,1,1,1.0,1.0,0.614894422702,0,0.0,0.0,0.0,0.411373906772,0.145034350335,0.266339556437,0.556408257107,0.145034350335,0.438956849898,405,0.018463324075,0.468009379796,-0.476293327428,nan,nan,nan,nan,0.0,0.0,0.0,nan,326.59496466,707.781440588,708.28150559,708.39633501,nan,nan,nan,nan
1,305,0,0,0.0,1.0,0.662605258636,0,0.0,0.0,0.0,0.412075701655,0.145274793283,0.266800908372,0.557350494937,0.145274793283,0.537472497982,115,1.0,-0.305166285737,-0.293172749504,nan,nan,nan,nan,0.0,0.0,0.0,nan,326.59496466,708.781586558,709.281630463,709.444191816,nan,nan,nan,nan
1,306,1,1,1.0,1.0,0.486512307078,0,0.0,0.0,0.0,0.412936627967,0.145764148162,0.267172479806,0.558700776129,0.145764148162,0.588003996139,3,0.871087178923,0.199335109687,-1.0,nan,nan,nan,nan,0.0,0.0,0.0,nan,326.59496466,709.781697746,710.281721694,710.268210053,nan,nan,nan,nan
1,307,1,1,1.0,1.0,0.606306705624,0,0.0,0.0,0.0,0.413188599471,0.145577807497,0.267610791974,0.558766406968,0.145577807497,0.585141423779,413,0.0683106243366,0.461143133648,-0.585495598612,nan,nan,nan,nan,0.0,0.0,0.0,nan,326.59496466,710.78185455,711.281888477,711.388161256,nan,nan,nan,nan
1,308,1,1,1.0,1.0,0.406188276596,0,0.0,0.0,0.0,0.413847705635,0.145764941734,0.268082763901,0.55961264737,0.145764941734,0.499669096433,324,-0.114799643766,0.441158325109,0.368064040095,nan,nan,nan,nan,0.0,0.0,0.0,nan,326.59496466,711.781948062,712.281984555,712.188136338,nan,nan,nan,nan
1,309,1,1,1.0,1.0,0.534081164747,0,0.0,0.0,0.0,0.413821653156,0.145517514331,0.268304138825,0.559339167487,0.145517514331,0.515525382323,90,1.0,-0.233635786423,-0.574971871003,nan,nan,nan,nan,0.0,0.0,0.0,nan,326.59496466,712.782065237,713.282141929,713.316146402,nan,nan,nan,nan
1,310,1,1,1.0,1.0,0.477924589999,0,0.0,0.0,0.0,0.414229312517,0.145438732356,0.268790580161,0.559668044873,0.145438732356,0.472731343781,303,0.0191349273956,0.402522842081,0.512018356663,nan,nan,nan,nan,0.0,0.0,0.0,nan,326.59496466,713.782194672,714.282245704,714.260119262,nan,nan,nan,nan
1,311,1,1,1.0,1.0,0.461461901665,0,0.0,0.0,0.0,0.414444499265,0.145239884498,0.269204614768,0.559684383763,0.145239884498,0.49115588547,445,0.296953900578,0.415520102116,-1.0,nan,nan,nan,nan,0.0,0.0,0.0,nan,326.59496466,714.790655805,715.290690017,715.252117706,nan,nan,nan,nan
1,312,1,1,1.0,1.0,0.365293844603,0,0.0,0.0,0.0,0.414602807017,0.145020745194,0.269582061823,0.559623552211,0.145020745194,0.434893445422,57,1.0,-0.0707313323512,-1.0,nan,nan,nan,nan,0.0,0.0,0.0,nan,326.59496466,715.79080149,716.290836842,716.156095334,nan,nan,nan,nan
1,313,1,1,1.0,1.0,0.277141312137,0,0.0,0.0,0.0,0.414437340701,0.144805297724,0.269632042977,0.559242638425,0.144805297724,0.367965686135,355,-0.173737462994,0.472683863687,0.0888799762457,nan,nan,nan,nan,0.0,0.0,0.0,nan,326.59496466,716.790924937,717.290944324,717.06806625,nan,nan,nan,nan
1,314,1,1,1.0,1.0,0.308977331966,0,0.0,0.0,0.0,0.413978156659,0.144780104066,0.269198052592,0.558758260725,0.144780104066,0.317137496235,444,0.289241202529,0.417409780569,-1.0,nan,nan,nan,nan,0.0,0.0,0.0,nan,326.59496466,717.791074043,718.291072333,718.100051375,nan,nan,nan,nan
1,315,1,1,1.0,1.0,0.308870989829,0,0.0,0.0,0.0,0.41362815391,0.144665253881,0.268962900029,0.55829340779,0.144665253881,0.298329877978,494,0.698129958021,0.282143999684,-1.0,nan,nan,nan,nan,0.0,0.0,0.0,nan,326.59496466,718.79116385,719.291216307,719.100034839,nan,nan,nan,nan
1,316,1,1,1.0,1.0,0.300740285777,0,0.0,0.0,0.0,0.413280123464,0.144550492493,0.268729630971,0.557830615957,0.144550492493,0.306196202524,49,1.0,-0.027785429985,-1.0,nan,nan,nan,nan,0.0,0.0,0.0,nan,326.59496466,719.791294994,720.291321794,720.09203528,nan,nan,nan,nan
1,317,1,1,1.0,1.0,0.268536205404,0,0.0,0.0,0.0,0.412907474995,0.144455721878,0.268451753117,0.557363196873,0.144455721878,0.292715827003,312,-0.0464483572634,0.420925197877,0.455573212045,nan,nan,nan,nan,0.0,0.0,0.0,nan,326.59496466,720.791454649,721.291453224,721.059990854,nan,nan,nan,nan
1,318,1,1,1.0,1.0,0.25242732279,0,0.0,0.0,0.0,0.412431002158,0.144454657436,0.267976344723,0.556885659594,0.144454657436,0.273901271323,234,0.71814774995,0.15974031316,0.62913160129,nan,nan,nan,nan,0.0,0.0,0.0,nan,326.59496466,721.791556999,722.291582658,722.043984322,nan,nan,nan,nan
1,319,1,1,1.0,1.0,0.308289675042,0,0.0,0.0,0.0,0.411904674265,0.144507589762,0.267397084504,0.556412264027,0.144507589762,0.276417734412,163,1.0,-0.214247802105,0.185723682048,nan,nan,nan,nan,0.0,0.0,0.0,nan,326.59496466,722.791668473,723.291710096,723.099958148,nan,nan,nan,nan
1,320,1,1,1.0,1.0,0.268143340014,0,0.0,0.0,0.0,0.411564952956,0.144392040236,0.267172912721,0.555956993192,0.144392040236,0.276286779282,72,1.0,-0.149607777062,-0.853203742106,nan,nan,nan,nan,0.0,0.0,0.0,nan,326.59496466,723.791803324,724.291837821,724.059946664,nan,nan,nan,nan
1,321,1,1,1.0,1.0,0.244103321806,0,0.0,0.0,0.0,0.411096254875,0.144388118809,0.266708136066,0.555484373684,0.144388118809,0.273512112287,285,0.178734351563,0.356878681702,0.598527012995,nan,nan,nan,nan,0.0,0.0,0.0,nan,326.59496466,724.791920784,725.291968966,725.036024106,nan,nan,nan,nan
1,322,1,1,1.0,1.0,0.187930498272,0,1.0,0.0,0.0,0.410552303953,0.144466467969,0.265042811113,0.554616200652,0.144466467969,0.233392386697,114,1.0,-0.303747463913,-0.303859371662,nan,nan,nan,nan,0.0,0.0,0.0,nan,326.59496466,725.792061907,726.292103532,725.979992406,nan,nan,nan,nan
1,323,1,1,nan,nan,nan,0,0.0,0.0,0.0,0.409829505883,0.14478669477,0.265042811113,0.554616200652,0.14478669477,0.216016910039,371,-0.14179360683,0.478331938097,-0.0779732583494,nan,nan,nan,nan,0.0,0.0,0.0,nan,326.59496466,726.79218621,727.292263472,nan,nan,nan,nan,nan
1,324,1,1,1.0,1.0,0.331558789127,0,0.0,0.0,0.0,0.409829505883,0.14478669477,0.265042811113,0.554616200652,0.14478669477,0.259744643699,137,1.0,-0.300190217086,-0.0647316600203,nan,nan,nan,nan,0.0,0.0,0.0,nan,326.59496466,727.792315359,728.292342444,728.123874148,nan,nan,nan,nan
1,325,1,1,1.0,1.0,0.235439484008,0,0.0,0.0,0.0,0.409576202592,0.144620562234,0.264955640358,0.554196764826,0.144620562234,0.283499136567,215,0.910639861846,0.0628947364355,0.558695148714,nan,nan,nan,nan,0.0,0.0,0.0,nan,326.59496466,728.792451066,729.292503239,729.02789055,nan,nan,nan,nan
1,326,1,1,1.0,1.0,0.261533346958,0,0.0,0.0,0.0,0.409014471242,0.144724363691,0.264290107551,0.553738834932,0.144724363691,0.276177206698,122,1.0,-0.311159539646,-0.219144224573,nan,nan,nan,nan,0.0,0.0,0.0,nan,326.59496466,729.93436592,730.434283527,730.195899267,nan,nan,nan,nan
1,327,1,1,1.0,1.0,0.189468884841,0,1.0,0.0,0.0,0.408540255408,0.144732535138,0.26380772027,0.553272790547,0.144732535138,0.228813905269,488,0.647907709101,0.302951493728,-1.0,nan,nan,nan,nan,0.0,0.0,0.0,nan,326.59496466,730.934374473,731.434434628,731.123843358,nan,nan,nan,nan
1,328,1,1,1.0,1.0,0.253321960568,1,0.0,0.0,1.0,0.407838103579,0.145029981829,0.262808121751,0.552868085408,0.145029981829,0.234774730789,293,0.103830259013,0.378659598285,0.564617056734,-113.459024081,203.459024081,-2.55660091854,289.0,0.140592130943,0.368073254824,0.582505265782,1.97556397971,326.59496466,731.934531276,732.434546957,732.187853237,735.751650431,736.753731931,733.759723832,735.743321014
1,329,1,1,1.0,1.0,0.579871010035,0,0.0,0.0,0.0,0.407344441781,0.145060436849,0.262284004931,0.55240487863,0.145060436849,0.340887285148,105,1.0,-0.285049837405,-0.401580786678,nan,nan,nan,nan,0.0,0.0,0.0,nan,326.59496466,736.951833864,737.451894019,737.531704874,nan,nan,nan,nan
1,330,1,1,1.0,1.0,0.603726570494,0,0.0,0.0,0.0,0.40789388945,0.145155118198,0.262738771252,0.553049007648,0.145155118198,0.478973180366,188,1.0,-0.0857393506835,0.392804289229,nan,nan,nan,nan,0.0,0.0,0.0,nan,326.59496466,737.951958451,738.452019462,738.555685022,nan,nan,nan,nan
1,331,0,0,0.0,1.0,0.467578390613,0,0.0,0.0,0.0,0.408515580501,0.145342630874,0.263172949627,0.553858211375,0.145342630874,0.550391990381,384,-0.0924750057551,0.477945316949,-0.222479273925,nan,nan,nan,nan,0.0,0.0,0.0,nan,326.59496466,738.952099575,739.452134642,739.419677965,nan,nan,nan,nan
1,332,1,1,1.0,1.0,0.41144662071,0,0.0,0.0,0.0,0.408702488128,0.145150387816,0.263552100312,0.553852875944,0.145150387816,0.494250527273,463,0.440238315199,0.376011795327,-1.0,nan,nan,nan,nan,0.0,0.0,0.0,nan,326.59496466,739.952213613,740.452250961,740.363660234,nan,nan,nan,nan
1,333,0,0,0.0,1.0,0.459289170802,0,0.0,0.0,0.0,0.408711144698,0.144921344845,0.263789799852,0.553632489543,0.144921344845,0.446104727375,78,1.0,-0.179467652321,-0.739907630878,nan,nan,nan,nan,0.0,0.0,0.0,nan,326.59496466,740.952355308,741.452387809,741.411644478,nan,nan,nan,nan
1,334,1,1,1.0,1.0,0.283193940297,0,0.0,0.0,0.0,0.408870195094,0.144721009904,0.26414918519,0.553591204999,0.144721009904,0.384643243936,494,0.698129958021,0.282143999684,-1.0,nan,nan,nan,nan,0.0,0.0,0.0,nan,326.59496466,741.952471912,742.45250812,742.235665852,nan,nan,nan,nan
1,335,1,1,0.0,0.0,0.2989843674,0,0.0,0.0,0.0,0.408476225643,0.144664689518,0.263811536125,0.553140915161,0.144664689518,0.347155826166,307,-0.0113868739462,0.411053355611,0.487957006857,nan,nan,nan,nan,0.0,0.0,0.0,nan,326.59496466,742.952615887,743.452637269,743.251600254,nan,nan,nan,nan
1,336,1,1,1.0,1.0,0.0268197217956,0,1.0,0.0,0.0,0.408134063586,0.144567699285,0.261048047942,0.552844288939,0.144567699285,0.202999343164,234,0.71814774995,0.15974031316,0.62913160129,nan,nan,nan,nan,0.0,0.0,0.0,nan,326.59496466,743.952738194,744.452794928,743.979557916,nan,nan,nan,nan
1,337,1,1,nan,nan,nan,0,0.0,0.0,0.0,0.406946168441,0.145898120498,0.261048047942,0.552844288939,0.145898120498,0.162902044598,361,-0.166047812515,0.475607712818,0.0278173107143,nan,nan,nan,nan,0.0,0.0,0.0,nan,326.59496466,744.952848527,745.452912673,nan,nan,nan,nan,nan
1,338,1,1,1.0,1.0,0.594558109529,0,0.0,0.0,0.0,0.406946168441,0.145898120498,0.261048047942,0.552844288939,0.145898120498,0.310688915662,309,-0.0258396312562,0.415106541901,0.475305697888,nan,nan,nan,nan,0.0,0.0,0.0,nan,326.59496466,745.95297568,746.453041538,746.54753379,nan,nan,nan,nan
1,339,1,1,1.0,1.0,0.466424885206,0,0.0,0.0,0.0,0.40752881422,0.146044948533,0.261483865687,0.553573762754,0.146044948533,0.530491497368,479,0.572572153349,0.331768222426,-1.0,nan,nan,nan,nan,0.0,0.0,0.0,nan,326.59496466,746.953117658,747.453142747,747.419542544,nan,nan,nan,nan
1,340,1,1,1.0,1.0,0.514275417663,0,0.0,0.0,0.0,0.407711154998,0.145855402541,0.261855752456,0.553566557539,0.145855402541,0.525086137466,2,0.863024578927,0.203622855609,-1.0,nan,nan,nan,nan,0.0,0.0,0.0,nan,326.59496466,747.95323797,748.453296131,748.467513388,nan,nan,nan,nan
1,341,1,1,1.0,1.0,0.354143953882,0,0.0,0.0,0.0,0.408040057043,0.145750058683,0.26228999836,0.553790115726,0.145750058683,0.444948085584,302,0.027086081288,0.400300843718,0.517770016443,nan,nan,nan,nan,0.0,0.0,0.0,nan,326.59496466,748.953364269,749.453399906,749.307508223,nan,nan,nan,nan
1,342,1,1,1.0,1.0,0.322006586939,0,0.0,0.0,0.0,0.407874222879,0.145556266091,0.262317956788,0.55343048897,0.145556266091,0.396808652828,113,1.0,-0.302191989669,-0.314576349441,nan,nan,nan,nan,0.0,0.0,0.0,nan,326.59496466,749.953490281,750.453510239,750.275496868,nan,nan,nan,nan
1,343,1,1,1.0,1.0,0.281847422011,0,0.0,0.0,0.0,0.407610825223,0.145410401629,0.262200423594,0.553021226852,0.145410401629,0.319332654277,312,-0.0464483572634,0.420925197877,0.455573212045,nan,nan,nan,nan,0.0,0.0,0.0,nan,326.59496466,750.953620572,751.453633116,751.235467994,nan,nan,nan,nan
1,344,1,1,1.0,1.0,0.273689634167,0,0.0,0.0,0.0,0.40722622766,0.14535385846,0.261872369199,0.55258008612,0.14535385846,0.292514547706,403,0.00657627305109,0.469456436931,-0.450524507496,nan,nan,nan,nan,0.0,0.0,0.0,nan,326.59496466,751.953751431,752.453757988,752.227441065,nan,nan,nan,nan
1,345,1,1,1.0,1.0,0.273535965011,0,0.0,0.0,0.0,0.406819103899,0.145318720354,0.261500383545,0.552137824253,0.145318720354,0.276357673729,265,0.384259149088,0.291568309415,0.649478858709,nan,nan,nan,nan,0.0,0.0,0.0,nan,326.59496466,752.953885998,753.453919354,753.227421963,nan,nan,nan,nan
1,346,0,0,1.0,0.0,0.249414408579,0,0.0,0.0,0.0,0.406413987975,0.145283083894,0.261130904081,0.551697071869,0.145283083894,0.265546669252,349,-0.175656888649,0.468768509344,0.147945183432,nan,nan,nan,nan,0.0,0.0,0.0,nan,326.59496466,753.954017428,754.454051069,754.203431836,nan,nan,nan,nan
1,347,1,1,1.0,1.0,0.577276334167,0,0.0,0.0,0.0,0.405938231674,0.1453192366,0.260618995074,0.551257468274,0.1453192366,0.366742235919,273,0.299732959835,0.319577193062,0.635038033336,nan,nan,nan,nan,0.0,0.0,0.0,nan,326.59496466,754.954108374,755.454189627,755.531384708,nan,nan,nan,nan
1,348,1,1,1.0,1.0,0.473112708889,0,0.0,0.0,0.0,0.406455869446,0.145403933963,0.261051935483,0.551859803409,0.145403933963,0.433267817212,197,1.0,-0.035797595552,0.455774741445,nan,nan,nan,nan,0.0,0.0,0.0,nan,326.59496466,755.954268599,756.454265462,756.427381308,nan,nan,nan,nan
1,349,1,1,1.0,1.0,0.280988708138,0,0.0,0.0,0.0,0.406656643059,0.145230730211,0.261425912848,0.55188737327,0.145230730211,0.443792583731,153,1.0,-0.255547855702,0.0926213922694,nan,nan,nan,nan,0.0,0.0,0.0,nan,326.59496466,756.954375795,757.454396037,757.235364503,nan,nan,nan,nan
1,350,1,1,1.0,1.0,0.344852331094,0,0.0,0.0,0.0,0.406279261873,0.145175438905,0.261103822968,0.551454700777,0.145175438905,0.366317916041,336,-0.158211608236,0.456758111158,0.268135266647,nan,nan,nan,nan,0.0,0.0,0.0,nan,326.59496466,757.954492115,758.454551131,758.299344447,nan,nan,nan,nan
1,351,1,1,1.0,1.0,0.336678575724,0,0.0,0.0,0.0,0.406095348906,0.14499679281,0.261098556097,0.551092141716,0.14499679281,0.320839871652,412,0.0618891196837,0.462096609288,-0.571158935758,nan,nan,nan,nan,0.0,0.0,0.0,nan,326.59496466,758.954639511,759.454653481,759.291318087,nan,nan,nan,nan
1,352,1,1,1.0,1.0,0.304511274211,0,0.0,0.0,0.0,0.405888134658,0.144829736981,0.261058397677,0.55071787164,0.144829736981,0.32868072701,484,0.614398947124,0.316112737715,-1.0,nan,nan,nan,nan,0.0,0.0,0.0,nan,326.59496466,759.954811425,760.454794319,760.259322699,nan,nan,nan,nan
1,353,1,1,1.0,1.0,0.432401880622,0,0.0,0.0,0.0,0.405586417812,0.144719457054,0.260866960758,0.550305874865,0.144719457054,0.357863910186,94,1.0,-0.249439013202,-0.526745155233,nan,nan,nan,nan,0.0,0.0,0.0,nan,326.59496466,760.954897525,761.454910354,761.387299405,nan,nan,nan,nan
1,354,1,1,1.0,1.0,0.384255130775,0,0.0,0.0,0.0,0.405665988918,0.144511941076,0.261154047842,0.550177929994,0.144511941076,0.373722761869,355,-0.173737462994,0.472683863687,0.0888799762457,nan,nan,nan,nan,0.0,0.0,0.0,nan,326.59496466,761.955028099,762.455036652,762.33928323,nan,nan,nan,nan
1,355,1,1,1.0,1.0,0.368084667251,0,0.0,0.0,0.0,0.405602643184,0.144302693285,0.261299949898,0.549905336469,0.144302693285,0.394913892883,115,1.0,-0.305166285737,-0.293172749504,nan,nan,nan,nan,0.0,0.0,0.0,nan,326.59496466,762.955177206,763.455167512,763.323261873,nan,nan,nan,nan
1,356,0,0,1.0,0.0,0.255951131694,0,0.0,0.0,0.0,0.405491970688,0.144104065459,0.261387905229,0.549596036147,0.144104065459,0.336096976573,373,-0.135407706169,0.478559568072,-0.0996974893599,nan,nan,nan,nan,0.0,0.0,0.0,nan,326.59496466,763.95529153,764.45532061,764.211242662,nan,nan,nan,nan
1,357,1,1,1.0,1.0,0.60779976286,0,0.0,0.0,0.0,0.405052144691,0.144119685563,0.260932459128,0.549171830254,0.144119685563,0.410611853935,320,-0.0946500390753,0.43494401576,0.398701238857,nan,nan,nan,nan,0.0,0.0,0.0,nan,326.59496466,764.955407565,765.455468006,765.563207327,nan,nan,nan,nan
1,358,1,1,1.0,1.0,0.543649617583,0,0.0,0.0,0.0,0.405646712486,0.144325212457,0.26132150003,0.549971924943,0.144325212457,0.469133504046,184,1.0,-0.107671891867,0.362640045218,nan,nan,nan,nan,0.0,0.0,0.0,nan,326.59496466,765.955529871,766.455590027,766.499179489,nan,nan,nan,nan
1,359,1,1,1.0,1.0,0.407551328652,0,0.0,0.0,0.0,0.406050229753,0.144306565783,0.261743663969,0.550356795536,0.144306565783,0.519666903031,394,-0.0437090198531,0.474655926729,-0.339401417396,nan,nan,nan,nan,0.0,0.0,0.0,nan,326.59496466,766.955662442,767.455678978,767.363213771,nan,nan,nan,nan
1,360,1,1,1.0,1.0,0.351346288808,0,0.0,0.0,0.0,0.406054606134,0.14409607554,0.261958530595,0.550150681674,0.14409607554,0.434182411681,347,-0.174938837379,0.46723881498,0.167157479366,nan,nan,nan,nan,0.0,0.0,0.0,nan,326.59496466,767.955808697,768.45581668,768.307154986,nan,nan,nan,nan
1,361,1,1,1.0,1.0,0.535211006179,0,0.0,0.0,0.0,0.405895570328,0.143916624276,0.261978946052,0.549812194604,0.143916624276,0.431369541213,431,0.191957257768,0.43918128748,-0.982298765802,nan,nan,nan,nan,0.0,0.0,0.0,nan,326.59496466,768.955919315,769.45597719,769.491130321,nan,nan,nan,nan
1,362,1,1,1.0,1.0,0.423088589683,0,0.0,0.0,0.0,0.406270397679,0.143875955052,0.262394442626,0.550146352731,0.143875955052,0.436548628223,384,-0.0924750057551,0.477945316949,-0.222479273925,nan,nan,nan,nan,0.0,0.0,0.0,nan,326.59496466,769.956049605,770.456080966,770.379138195,nan,nan,nan,nan
1,363,0,0,1.0,0.0,0.302926985547,0,0.0,0.0,0.0,0.40631900517,0.143670728197,0.262648276973,0.549989733367,0.143670728197,0.42040886047,170,1.0,-0.180990482069,0.247815061387,nan,nan,nan,nan,0.0,0.0,0.0,nan,326.59496466,770.956190158,771.456211826,771.259117143,nan,nan,nan,nan
1,364,1,1,1.0,1.0,0.77343931701,0,0.0,0.0,0.0,0.406021045459,0.14357057869,0.262369951424,0.551783738756,0.14357057869,0.499818297413,393,-0.0489456633786,0.475102171109,-0.327443230616,nan,nan,nan,nan,0.0,0.0,0.0,nan,326.59496466,771.98963755,772.48969628,772.763076867,nan,nan,nan,nan
