block,trial,freq_trials,correct_response,actual_response,acc,rts,probe_trials,fast_rt_trigger,slow_rt_trigger,rt_triggered,rts_runningavg,rts_runningstd,rts_runningfastthresh,rts_runningslowthresh,rts_runningstd,rts_trailingavg,trials_colorind0,trials_colorind1,trials_colorind2,trials_colorind3,trials_colorind4,trials_colorind5,wholereport_resp0,wholereport_resp1,wholereport_resp2,wholereport_resp3,wholereport_resp4,wholereport_resp5,wholereport_respacc0,wholereport_respacc1,wholereport_respacc2,wholereport_respacc3,wholereport_respacc4,wholereport_respacc5,wholereport_respacc_total,wholereport_respcolorind0,wholereport_respcolorind1,wholereport_respcolorind2,wholereport_respcolorind3,wholereport_respcolorind4,wholereport_respcolorind5,wholereport_resporder0,wholereport_resporder1,wholereport_resporder2,wholereport_resporder3,wholereport_resporder4,wholereport_resporder5,wholereport_rts0,wholereport_rts1,wholereport_rts2,wholereport_rts3,wholereport_rts4,wholereport_rts5,time_blockstart,time_encarray_offset,time_encarray_onset,time_response,time_iti_offset,time_iti_onset,time_memprobe_offset,time_memprobe_onset
1,1,1,1,nan,nan,nan,0,nan,nan,nan,nan,nan,nan,nan,nan,nan,7,3,4,2,6,1,nan,nan,nan,nan,nan,nan,nan,nan,nan,nan,nan,nan,0.0,nan,nan,nan,nan,nan,nan,nan,nan,nan,nan,nan,nan,nan,nan,nan,nan,nan,nan,887.3287794528296,888.3482303072815,nan,nan,nan,nan,nan,nan
1,2,1,1,nan,nan,nan,0,nan,nan,nan,nan,nan,nan,nan,nan,nan,7,4,3,8,6,5,nan,nan,nan,nan,nan,nan,nan,nan,nan,nan,nan,nan,0.0,nan,nan,nan,nan,nan,nan,nan,nan,nan,nan,nan,nan,nan,nan,nan,nan,nan,nan,887.3287794528296,889.3754452528083,nan,nan,nan,nan,nan,nan
1,3,0,0,nan,nan,nan,0,nan,nan,nan,nan,nan,nan,nan,nan,nan,1,8,0,5,7,6,nan,nan,nan,nan,nan,nan,nan,nan,nan,nan,nan,nan,0.0,nan,nan,nan,nan,nan,nan,nan,nan,nan,nan,nan,nan,nan,nan,nan,nan,nan,nan,887.3287794528296,890.3984897755436,nan,nan,nan,nan,nan,nan
1,4,1,1,1.0,1.0,0.6090177269070409,0,nan,nan,nan,nan,nan,nan,nan,nan,nan,7,5,8,3,4,2,nan,nan,nan,nan,nan,nan,nan,nan,nan,nan,nan,nan,0.0,nan,nan,nan,nan,nan,nan,nan,nan,nan,nan,nan,nan,nan,nan,nan,nan,nan,nan,887.3287794528296,891.42366084893,nan,892.032678575837,nan,nan,nan,nan
1,5,1,1,1.0,1.0,0.49588773731375113,0,nan,nan,nan,nan,nan,nan,nan,nan,nan,6,1,7,2,5,4,nan,nan,nan,nan,nan,nan,nan,nan,nan,nan,nan,nan,0.0,nan,nan,nan,nan,nan,nan,nan,nan,nan,nan,nan,nan,nan,nan,nan,nan,nan,nan,887.3287794528296,892.4487734771683,nan,892.944661214482,nan,nan,nan,nan
1,6,1,1,0.0,0.0,0.05472639371873811,0,nan,nan,nan,nan,nan,nan,nan,nan,nan,3,8,4,6,7,1,nan,nan,nan,nan,nan,nan,nan,nan,nan,nan,nan,nan,0.0,nan,nan,nan,nan,nan,nan,nan,nan,nan,nan,nan,nan,nan,nan,nan,nan,nan,nan,887.3287794528296,893.4739168960368,nan,893.5286432897556,nan,nan,nan,nan
1,7,1,1,1.0,1.0,0.13359579513780773,0,nan,nan,nan,nan,nan,nan,nan,nan,nan,5,6,1,8,0,4,nan,nan,nan,nan,nan,nan,nan,nan,nan,nan,nan,nan,0.0,nan,nan,nan,nan,nan,nan,nan,nan,nan,nan,nan,nan,nan,nan,nan,nan,nan,nan,887.3287794528296,894.4990463450667,nan,894.6326421402046,nan,nan,nan,nan
1,8,1,1,1.0,1.0,0.3084342440124601,0,nan,nan,nan,nan,nan,nan,nan,nan,nan,3,8,5,0,2,1,nan,nan,nan,nan,nan,nan,nan,nan,nan,nan,nan,nan,0.0,nan,nan,nan,nan,nan,nan,nan,nan,nan,nan,nan,nan,nan,nan,nan,nan,nan,nan,887.3287794528296,895.5241581180017,nan,895.8325923620141,nan,nan,nan,nan
1,9,0,0,1.0,0.0,0.20358408900210634,0,nan,nan,nan,nan,nan,nan,nan,nan,nan,6,0,3,2,4,8,nan,nan,nan,nan,nan,nan,nan,nan,nan,nan,nan,nan,0.0,nan,nan,nan,nan,nan,nan,nan,nan,nan,nan,nan,nan,nan,nan,nan,nan,nan,nan,887.3287794528296,896.5410162854241,nan,896.7446003744262,nan,nan,nan,nan
1,10,1,1,1.0,1.0,0.6584213290479966,0,nan,nan,nan,nan,nan,nan,nan,nan,nan,8,6,4,0,5,2,nan,nan,nan,nan,nan,nan,nan,nan,nan,nan,nan,nan,0.0,nan,nan,nan,nan,nan,nan,nan,nan,nan,nan,nan,nan,nan,nan,nan,nan,nan,nan,887.3287794528296,897.5661320497165,nan,898.2245533787645,nan,nan,nan,nan
1,11,1,1,1.0,1.0,0.401287448417861,0,nan,nan,nan,nan,nan,nan,nan,nan,nan,7,5,3,4,2,0,nan,nan,nan,nan,nan,nan,nan,nan,nan,nan,nan,nan,0.0,nan,nan,nan,nan,nan,nan,nan,nan,nan,nan,nan,nan,nan,nan,nan,nan,nan,nan,887.3287794528296,898.5912691964186,nan,898.9925566448364,nan,nan,nan,nan
1,12,1,1,1.0,1.0,0.3281311385217123,0,nan,nan,nan,nan,nan,nan,nan,nan,nan,2,7,4,0,1,6,nan,nan,nan,nan,nan,nan,nan,nan,nan,nan,nan,nan,0.0,nan,nan,nan,nan,nan,nan,nan,nan,nan,nan,nan,nan,nan,nan,nan,nan,nan,nan,887.3287794528296,899.6164114748826,nan,899.9445426134043,nan,nan,nan,nan
1,13,1,1,1.0,1.0,0.29497587779769674,0,nan,nan,nan,nan,nan,nan,nan,nan,nan,8,0,7,2,4,3,nan,nan,nan,nan,nan,nan,nan,nan,nan,nan,nan,nan,0.0,nan,nan,nan,nan,nan,nan,nan,nan,nan,nan,nan,nan,nan,nan,nan,nan,nan,nan,887.3287794528296,900.6415477662813,nan,900.936523644079,nan,nan,nan,nan
1,14,1,1,1.0,1.0,0.38181578181684017,0,nan,nan,nan,nan,nan,nan,nan,nan,nan,7,8,4,1,3,2,nan,nan,nan,nan,nan,nan,nan,nan,nan,nan,nan,nan,0.0,nan,nan,nan,nan,nan,nan,nan,nan,nan,nan,nan,nan,nan,nan,nan,nan,nan,nan,887.3287794528296,901.6666871937923,nan,902.0485029756092,nan,nan,nan,nan
1,15,1,1,1.0,1.0,0.31667017337167636,0,nan,nan,nan,nan,nan,nan,nan,nan,nan,3,5,1,6,0,8,nan,nan,nan,nan,nan,nan,nan,nan,nan,nan,nan,nan,0.0,nan,nan,nan,nan,nan,nan,nan,nan,nan,nan,nan,nan,nan,nan,nan,nan,nan,nan,887.3287794528296,902.6918186385301,nan,903.0084888119018,nan,nan,nan,nan
1,16,1,1,1.0,1.0,0.3075236389413476,0,nan,nan,nan,nan,nan,nan,nan,nan,nan,8,7,5,2,4,3,nan,nan,nan,nan,nan,nan,nan,nan,nan,nan,nan,nan,0.0,nan,nan,nan,nan,nan,nan,nan,nan,nan,nan,nan,nan,nan,nan,nan,nan,nan,nan,887.3287794528296,903.716962912702,nan,904.0244865516433,nan,nan,nan,nan
1,17,1,1,1.0,1.0,0.306708256888669,0,nan,nan,nan,nan,nan,nan,nan,nan,nan,0,5,3,6,7,1,nan,nan,nan,nan,nan,nan,nan,nan,nan,nan,nan,nan,0.0,nan,nan,nan,nan,nan,nan,nan,nan,nan,nan,nan,nan,nan,nan,nan,nan,nan,nan,887.3287794528296,904.733762919961,nan,905.0404711768497,nan,nan,nan,nan
1,18,1,1,1.0,1.0,0.19358111830661073,0,nan,nan,nan,nan,nan,nan,nan,nan,nan,7,3,4,2,6,5,nan,nan,nan,nan,nan,nan,nan,nan,nan,nan,nan,nan,0.0,nan,nan,nan,nan,nan,nan,nan,nan,nan,nan,nan,nan,nan,nan,nan,nan,nan,nan,887.3287794528296,905.7588843862177,nan,905.9524655045243,nan,nan,nan,nan
1,19,1,1,1.0,1.0,0.06475274247350171,0,nan,nan,nan,nan,nan,nan,nan,nan,nan,8,7,2,6,0,4,nan,nan,nan,nan,nan,nan,nan,nan,nan,nan,nan,nan,0.0,nan,nan,nan,nan,nan,nan,nan,nan,nan,nan,nan,nan,nan,nan,nan,nan,nan,nan,887.3287794528296,906.7757000739803,nan,906.8404528164538,nan,nan,nan,nan
1,20,1,1,1.0,1.0,0.37557212164392695,0,nan,nan,nan,nan,nan,nan,nan,nan,nan,2,0,1,3,6,7,nan,nan,nan,nan,nan,nan,nan,nan,nan,nan,nan,nan,0.0,nan,nan,nan,nan,nan,nan,nan,nan,nan,nan,nan,nan,nan,nan,nan,nan,nan,nan,887.3287794528296,907.8008380759857,nan,908.1764101976296,nan,nan,nan,nan
1,21,1,1,1.0,1.0,0.2944267778657377,0,nan,nan,nan,nan,nan,nan,nan,nan,nan,4,2,0,5,7,1,nan,nan,nan,nan,nan,nan,nan,nan,nan,nan,nan,nan,0.0,nan,nan,nan,nan,nan,nan,nan,nan,nan,nan,nan,nan,nan,nan,nan,nan,nan,nan,887.3287794528296,908.8259783587418,nan,909.1204051366076,nan,nan,nan,nan
1,22,1,1,1.0,1.0,0.3252924114349298,0,nan,nan,nan,nan,nan,nan,nan,nan,nan,3,6,8,0,2,4,nan,nan,nan,nan,nan,nan,nan,nan,nan,nan,nan,nan,0.0,nan,nan,nan,nan,nan,nan,nan,nan,nan,nan,nan,nan,nan,nan,nan,nan,nan,nan,887.3287794528296,909.8511069524684,nan,910.1763993639033,nan,nan,nan,nan
1,23,1,1,1.0,1.0,0.2601162974606268,0,nan,nan,nan,nan,nan,nan,nan,nan,nan,8,4,6,3,5,2,nan,nan,nan,nan,nan,nan,nan,nan,nan,nan,nan,nan,0.0,nan,nan,nan,nan,nan,nan,nan,nan,nan,nan,nan,nan,nan,nan,nan,nan,nan,nan,887.3287794528296,910.8762498011347,nan,911.1363660985953,nan,nan,nan,nan
1,24,0,0,1.0,0.0,0.2189856874756515,0,nan,nan,nan,nan,nan,nan,nan,nan,nan,2,6,3,1,0,5,nan,nan,nan,nan,nan,nan,nan,nan,nan,nan,nan,nan,0.0,nan,nan,nan,nan,nan,nan,nan,nan,nan,nan,nan,nan,nan,nan,nan,nan,nan,nan,887.3287794528296,911.9013746886048,nan,912.1203603760805,nan,nan,nan,nan
1,25,1,1,1.0,1.0,0.09783245204016566,0,nan,nan,nan,nan,nan,nan,nan,nan,nan,7,0,4,6,8,1,nan,nan,nan,nan,nan,nan,nan,nan,nan,nan,nan,nan,0.0,nan,nan,nan,nan,nan,nan,nan,nan,nan,nan,nan,nan,nan,nan,nan,nan,nan,nan,887.3287794528296,912.9265223839902,nan,913.0243548360304,nan,nan,nan,nan
1,26,1,1,1.0,1.0,0.5766359387198463,0,nan,nan,nan,nan,nan,nan,nan,nan,nan,0,8,3,7,1,5,nan,nan,nan,nan,nan,nan,nan,nan,nan,nan,nan,nan,0.0,nan,nan,nan,nan,nan,nan,nan,nan,nan,nan,nan,nan,nan,nan,nan,nan,nan,nan,887.3287794528296,913.9516546839732,nan,914.528290622693,nan,nan,nan,nan
1,27,1,1,1.0,1.0,0.46356496459338814,1,nan,nan,nan,nan,nan,nan,nan,nan,nan,6,4,5,8,0,7,1.0,1.0,1.0,1.0,1.0,1.0,0.0,1.0,0.0,0.0,0.0,0.0,1.0,1.0,4.0,6.0,3.0,8.0,2.0,3.0,2.0,1.0,6.0,5.0,4.0,16.666778425336815,15.70755836396711,13.899861385056283,32.89749478123849,31.35393769678194,26.851343014102895,887.3287794528296,914.976783847902,915.7852126750513,915.4403488124954,949.7480811436544,950.7550292824744,916.8103569492232,949.7397497062339
1,28,1,1,nan,nan,nan,0,nan,nan,nan,nan,nan,nan,nan,nan,nan,2,0,8,4,1,3,nan,nan,nan,nan,nan,nan,nan,nan,nan,nan,nan,nan,0.0,nan,nan,nan,nan,nan,nan,nan,nan,nan,nan,nan,nan,nan,nan,nan,nan,nan,nan,887.3287794528296,950.9732665860793,nan,nan,nan,nan,nan,nan
1,29,1,1,1.0,1.0,0.18536799674620852,0,nan,nan,nan,nan,nan,nan,nan,nan,nan,5,6,4,0,7,2,nan,nan,nan,nan,nan,nan,nan,nan,nan,nan,nan,nan,0.0,nan,nan,nan,nan,nan,nan,nan,nan,nan,nan,nan,nan,nan,nan,nan,nan,nan,nan,887.3287794528296,951.9984128559008,nan,952.183780852647,nan,nan,nan,nan
1,30,1,1,nan,nan,nan,0,nan,nan,nan,nan,nan,nan,nan,nan,nan,2,7,5,3,4,1,nan,nan,nan,nan,nan,nan,nan,nan,nan,nan,nan,nan,0.0,nan,nan,nan,nan,nan,nan,nan,nan,nan,nan,nan,nan,nan,nan,nan,nan,nan,nan,887.3287794528296,953.0152148589259,nan,nan,nan,nan,nan,nan
1,31,1,1,nan,nan,nan,0,nan,nan,nan,nan,nan,nan,nan,nan,nan,4,2,7,6,5,0,nan,nan,nan,nan,nan,nan,nan,nan,nan,nan,nan,nan,0.0,nan,nan,nan,nan,nan,nan,nan,nan,nan,nan,nan,nan,nan,nan,nan,nan,nan,nan,887.3287794528296,954.0403491546167,nan,nan,nan,nan,nan,nan
1,32,1,1,nan,nan,nan,0,nan,nan,nan,nan,nan,nan,nan,nan,nan,3,5,4,0,7,2,nan,nan,nan,nan,nan,nan,nan,nan,nan,nan,nan,nan,0.0,nan,nan,nan,nan,nan,nan,nan,nan,nan,nan,nan,nan,nan,nan,nan,nan,nan,nan,887.3287794528296,955.0654552255874,nan,nan,nan,nan,nan,nan
1,33,1,1,1.0,1.0,0.2854202268063091,0,nan,nan,nan,nan,nan,nan,nan,nan,nan,5,7,6,8,3,0,nan,nan,nan,nan,nan,nan,nan,nan,nan,nan,nan,nan,0.0,nan,nan,nan,nan,nan,nan,nan,nan,nan,nan,nan,nan,nan,nan,nan,nan,nan,nan,887.3287794528296,956.0822991380701,nan,956.3677193648764,nan,nan,nan,nan
1,34,1,1,1.0,1.0,0.644266466901172,0,nan,nan,nan,nan,nan,nan,nan,nan,nan,4,1,5,3,0,2,nan,nan,nan,nan,nan,nan,nan,nan,nan,nan,nan,nan,0.0,nan,nan,nan,nan,nan,nan,nan,nan,nan,nan,nan,nan,nan,nan,nan,nan,nan,nan,887.3287794528296,957.1074248807854,nan,957.7516913476866,nan,nan,nan,nan
1,35,1,1,1.0,1.0,0.6350968394544907,0,nan,nan,nan,nan,nan,nan,nan,nan,nan,0,4,8,1,7,6,nan,nan,nan,nan,nan,nan,nan,nan,nan,nan,nan,nan,0.0,nan,nan,nan,nan,nan,nan,nan,nan,nan,nan,nan,nan,nan,nan,nan,nan,nan,nan,887.3287794528296,958.1325697251596,nan,958.767666564614,nan,nan,nan,nan
1,36,1,1,1.0,1.0,0.7062925259815529,0,nan,nan,nan,nan,nan,nan,nan,nan,nan,1,8,7,2,4,5,nan,nan,nan,nan,nan,nan,nan,nan,nan,nan,nan,nan,0.0,nan,nan,nan,nan,nan,nan,nan,nan,nan,nan,nan,nan,nan,nan,nan,nan,nan,nan,887.3287794528296,959.1493705877801,nan,959.8556631137617,nan,nan,nan,nan
1,37,1,1,1.0,1.0,0.7454781930427998,0,nan,nan,nan,nan,nan,nan,nan,nan,nan,8,2,3,7,5,1,nan,nan,nan,nan,nan,nan,nan,nan,nan,nan,nan,nan,0.0,nan,nan,nan,nan,nan,nan,nan,nan,nan,nan,nan,nan,nan,nan,nan,nan,nan,nan,887.3287794528296,960.1661754417582,nan,960.911653634801,nan,nan,nan,nan
1,38,1,1,nan,nan,nan,1,nan,nan,nan,nan,nan,nan,nan,nan,nan,3,0,5,2,1,6,1.0,1.0,1.0,1.0,1.0,1.0,0.0,0.0,0.0,0.0,0.0,0.0,0.0,2.0,6.0,4.0,5.0,3.0,5.0,3.0,2.0,1.0,6.0,5.0,4.0,10.835399443109054,9.947572641714942,8.828427356027532,13.619210003060289,12.828087803500239,11.844567930151243,887.3287794528296,961.1913068864378,961.9997300116229,nan,976.6766875986359,977.6802513315924,963.0165340102976,976.6683550208108
1,39,1,1,nan,nan,nan,0,nan,nan,nan,nan,nan,nan,nan,nan,nan,5,2,6,3,4,8,nan,nan,nan,nan,nan,nan,nan,nan,nan,nan,nan,nan,0.0,nan,nan,nan,nan,nan,nan,nan,nan,nan,nan,nan,nan,nan,nan,nan,nan,nan,nan,887.3287794528296,977.9018824492814,nan,nan,nan,nan,nan,nan
1,40,1,1,nan,nan,nan,0,nan,nan,nan,nan,nan,nan,nan,nan,nan,3,6,8,4,5,1,nan,nan,nan,nan,nan,nan,nan,nan,nan,nan,nan,nan,0.0,nan,nan,nan,nan,nan,nan,nan,nan,nan,nan,nan,nan,nan,nan,nan,nan,nan,nan,887.3287794528296,978.9270147493226,nan,nan,nan,nan,nan,nan
1,41,1,1,nan,nan,nan,0,nan,nan,nan,nan,nan,nan,nan,nan,nan,7,2,5,6,0,8,nan,nan,nan,nan,nan,nan,nan,nan,nan,nan,nan,nan,0.0,nan,nan,nan,nan,nan,nan,nan,nan,nan,nan,nan,nan,nan,nan,nan,nan,nan,nan,887.3287794528296,979.9438059185632,nan,nan,nan,nan,nan,nan
1,42,0,0,nan,nan,nan,0,nan,nan,nan,nan,nan,nan,nan,nan,nan,5,6,8,2,4,3,nan,nan,nan,nan,nan,nan,nan,nan,nan,nan,nan,nan,0.0,nan,nan,nan,nan,nan,nan,nan,nan,nan,nan,nan,nan,nan,nan,nan,nan,nan,nan,887.3287794528296,980.9606409929693,nan,nan,nan,nan,nan,nan
1,43,1,1,nan,nan,nan,0,nan,nan,nan,nan,nan,nan,nan,nan,nan,8,3,6,5,0,1,nan,nan,nan,nan,nan,nan,nan,nan,nan,nan,nan,nan,0.0,nan,nan,nan,nan,nan,nan,nan,nan,nan,nan,nan,nan,nan,nan,nan,nan,nan,nan,887.3287794528296,981.9857556168572,nan,nan,nan,nan,nan,nan
1,44,1,1,1.0,1.0,0.4687634531292133,0,nan,nan,nan,nan,nan,nan,nan,nan,nan,1,4,5,3,8,7,nan,nan,nan,nan,nan,nan,nan,nan,nan,nan,nan,nan,0.0,nan,nan,nan,nan,nan,nan,nan,nan,nan,nan,nan,nan,nan,nan,nan,nan,nan,nan,887.3287794528296,983.0025550539722,nan,983.4713185071014,nan,nan,nan,nan
1,45,0,0,nan,nan,nan,0,nan,nan,nan,nan,nan,nan,nan,nan,nan,0,7,1,4,6,3,nan,nan,nan,nan,nan,nan,nan,nan,nan,nan,nan,nan,0.0,nan,nan,nan,nan,nan,nan,nan,nan,nan,nan,nan,nan,nan,nan,nan,nan,nan,nan,887.3287794528296,984.0276907751686,nan,nan,nan,nan,nan,nan
1,46,1,1,1.0,1.0,0.5947211706661619,0,nan,nan,nan,nan,nan,nan,nan,nan,nan,8,4,7,5,3,2,nan,nan,nan,nan,nan,nan,nan,nan,nan,nan,nan,nan,0.0,nan,nan,nan,nan,nan,nan,nan,nan,nan,nan,nan,nan,nan,nan,nan,nan,nan,nan,887.3287794528296,985.044493633497,nan,985.6392148041632,nan,nan,nan,nan
1,47,1,1,1.0,1.0,0.7216405260260217,1,nan,nan,nan,nan,nan,nan,nan,nan,nan,6,8,0,4,5,1,1.0,1.0,1.0,1.0,1.0,1.0,0.0,0.0,0.0,0.0,0.0,0.0,0.0,1.0,3.0,6.0,6.0,8.0,7.0,3.0,2.0,1.0,6.0,5.0,4.0,8.444439977931324,7.116401211358607,6.063875494000968,15.276827924186364,11.508999138430227,10.08572944480693,887.3287794528296,986.0696319205454,986.8780450672493,986.7912724465714,1003.2135619710316,1004.2154937994201,987.8948644612683,1003.2052522011218
1,48,1,1,nan,nan,nan,0,nan,nan,nan,nan,nan,nan,nan,nan,nan,4,3,5,1,2,8,nan,nan,nan,nan,nan,nan,nan,nan,nan,nan,nan,nan,0.0,nan,nan,nan,nan,nan,nan,nan,nan,nan,nan,nan,nan,nan,nan,nan,nan,nan,nan,887.3287794528296,1004.4387650895515,nan,nan,nan,nan,nan,nan
1,49,1,1,1.0,1.0,0.3270936646149494,0,nan,nan,nan,nan,nan,nan,nan,nan,nan,2,4,8,7,3,6,nan,nan,nan,nan,nan,nan,nan,nan,nan,nan,nan,nan,0.0,nan,nan,nan,nan,nan,nan,nan,nan,nan,nan,nan,nan,nan,nan,nan,nan,nan,nan,887.3287794528296,1005.4639048021636,nan,1005.7909984667785,nan,nan,nan,nan
1,50,1,1,1.0,1.0,0.10225433192681521,0,nan,nan,nan,nan,nan,nan,nan,nan,nan,7,3,6,5,0,2,nan,nan,nan,nan,nan,nan,nan,nan,nan,nan,nan,nan,0.0,nan,nan,nan,nan,nan,nan,nan,nan,nan,nan,nan,nan,nan,nan,nan,nan,nan,nan,887.3287794528296,1006.4807013882673,nan,1006.5829557201941,nan,nan,nan,nan
1,51,1,1,nan,nan,nan,0,nan,nan,nan,nan,nan,nan,nan,nan,nan,4,0,5,3,6,1,nan,nan,nan,nan,nan,nan,nan,nan,nan,nan,nan,nan,0.0,nan,nan,nan,nan,nan,nan,nan,nan,nan,nan,nan,nan,nan,nan,nan,nan,nan,nan,887.3287794528296,1007.5058345436119,nan,nan,nan,nan,nan,nan
1,52,1,1,nan,nan,nan,0,nan,nan,nan,nan,nan,nan,nan,nan,nan,0,6,3,2,7,8,nan,nan,nan,nan,nan,nan,nan,nan,nan,nan,nan,nan,0.0,nan,nan,nan,nan,nan,nan,nan,nan,nan,nan,nan,nan,nan,nan,nan,nan,nan,nan,887.3287794528296,1008.5309685542015,nan,nan,nan,nan,nan,nan
1,53,0,0,nan,nan,nan,0,nan,nan,nan,nan,nan,nan,nan,nan,nan,3,4,2,8,1,7,nan,nan,nan,nan,nan,nan,nan,nan,nan,nan,nan,nan,0.0,nan,nan,nan,nan,nan,nan,nan,nan,nan,nan,nan,nan,nan,nan,nan,nan,nan,nan,887.3287794528296,1009.5561256578076,nan,nan,nan,nan,nan,nan
1,54,1,1,0.0,0.0,0.16164522437611595,0,nan,nan,nan,nan,nan,nan,nan,nan,nan,5,6,4,2,0,8,nan,nan,nan,nan,nan,nan,nan,nan,nan,nan,nan,nan,0.0,nan,nan,nan,nan,nan,nan,nan,nan,nan,nan,nan,nan,nan,nan,nan,nan,nan,nan,887.3287794528296,1010.5812884633779,nan,1010.742933687754,nan,nan,nan,nan
1,55,1,1,1.0,1.0,0.7525178486248478,0,nan,nan,nan,nan,nan,nan,nan,nan,nan,6,7,0,5,8,4,nan,nan,nan,nan,nan,nan,nan,nan,nan,nan,nan,nan,0.0,nan,nan,nan,nan,nan,nan,nan,nan,nan,nan,nan,nan,nan,nan,nan,nan,nan,nan,887.3287794528296,1011.6063389400952,nan,1012.35885678872,nan,nan,nan,nan
1,56,1,1,nan,nan,nan,0,nan,nan,nan,nan,nan,nan,nan,nan,nan,4,0,2,1,6,7,nan,nan,nan,nan,nan,nan,nan,nan,nan,nan,nan,nan,0.0,nan,nan,nan,nan,nan,nan,nan,nan,nan,nan,nan,nan,nan,nan,nan,nan,nan,nan,887.3287794528296,1012.631525408884,nan,nan,nan,nan,nan,nan
1,57,1,1,0.0,0.0,0.49448818812379614,0,nan,nan,nan,nan,nan,nan,nan,nan,nan,3,1,5,2,7,8,nan,nan,nan,nan,nan,nan,nan,nan,nan,nan,nan,nan,0.0,nan,nan,nan,nan,nan,nan,nan,nan,nan,nan,nan,nan,nan,nan,nan,nan,nan,nan,887.3287794528296,1013.6483248459408,nan,1014.1428130340646,nan,nan,nan,nan
1,58,1,1,1.0,1.0,0.6213707656715997,0,nan,nan,nan,nan,nan,nan,nan,nan,nan,0,6,7,3,4,2,nan,nan,nan,nan,nan,nan,nan,nan,nan,nan,nan,nan,0.0,nan,nan,nan,nan,nan,nan,nan,nan,nan,nan,nan,nan,nan,nan,nan,nan,nan,nan,887.3287794528296,1014.6734691201127,nan,1015.2948398857843,nan,nan,nan,nan
1,59,1,1,1.0,1.0,0.29254370130365714,0,nan,nan,nan,nan,nan,nan,nan,nan,nan,7,2,4,5,1,0,nan,nan,nan,nan,nan,nan,nan,nan,nan,nan,nan,nan,0.0,nan,nan,nan,nan,nan,nan,nan,nan,nan,nan,nan,nan,nan,nan,nan,nan,nan,nan,887.3287794528296,1015.6902702678344,nan,1015.9828139691381,nan,nan,nan,nan
1,60,1,1,1.0,1.0,0.35540823556948453,0,nan,nan,nan,nan,nan,nan,nan,nan,nan,5,3,2,1,4,8,nan,nan,nan,nan,nan,nan,nan,nan,nan,nan,nan,nan,0.0,nan,nan,nan,nan,nan,nan,nan,nan,nan,nan,nan,nan,nan,nan,nan,nan,nan,nan,887.3287794528296,1016.7154045635252,nan,1017.0708127990947,nan,nan,nan,nan
1,61,1,1,1.0,1.0,0.23457602132111788,1,nan,nan,nan,nan,nan,nan,nan,nan,nan,7,8,6,3,0,4,1.0,1.0,1.0,1.0,1.0,1.0,0.0,0.0,0.0,1.0,0.0,0.0,1.0,2.0,3.0,8.0,3.0,7.0,2.0,3.0,2.0,1.0,6.0,5.0,4.0,18.854023796564434,15.87913556949934,14.903363821737003,22.180808414239436,20.909156455833,20.029937067301944,887.3287794528296,1017.7322134088608,1018.5406157218385,1017.966789430182,1041.7853948530974,1042.7937519493862,1019.5657614215161,1041.7770209359587
1,62,0,0,nan,nan,nan,0,nan,nan,nan,nan,nan,nan,nan,nan,nan,2,6,5,0,7,3,nan,nan,nan,nan,nan,nan,nan,nan,nan,nan,nan,nan,0.0,nan,nan,nan,nan,nan,nan,nan,nan,nan,nan,nan,nan,nan,nan,nan,nan,nan,nan,887.3287794528296,1043.01892741333,nan,nan,nan,nan,nan,nan
1,63,1,1,nan,nan,nan,0,nan,nan,nan,nan,nan,nan,nan,nan,nan,7,1,0,5,6,8,nan,nan,nan,nan,nan,nan,nan,nan,nan,nan,nan,nan,0.0,nan,nan,nan,nan,nan,nan,nan,nan,nan,nan,nan,nan,nan,nan,nan,nan,nan,nan,887.3287794528296,1044.0357205782784,nan,nan,nan,nan,nan,nan
1,64,1,1,1.0,1.0,0.1458581725601107,0,nan,nan,nan,nan,nan,nan,nan,nan,nan,4,8,2,3,0,5,nan,nan,nan,nan,nan,nan,nan,nan,nan,nan,nan,nan,0.0,nan,nan,nan,nan,nan,nan,nan,nan,nan,nan,nan,nan,nan,nan,nan,nan,nan,nan,887.3287794528296,1045.0525254322565,nan,1045.1983836048166,nan,nan,nan,nan
1,65,1,1,1.0,1.0,0.6326874709338881,0,nan,nan,nan,nan,nan,nan,nan,nan,nan,3,5,1,7,4,8,nan,nan,nan,nan,nan,nan,nan,nan,nan,nan,nan,nan,0.0,nan,nan,nan,nan,nan,nan,nan,nan,nan,nan,nan,nan,nan,nan,nan,nan,nan,nan,887.3287794528296,1046.0776705616736,nan,1046.7103580326075,nan,nan,nan,nan
1,66,1,1,1.0,1.0,0.3675488759181462,0,nan,nan,nan,nan,nan,nan,nan,nan,nan,5,2,6,0,7,4,nan,nan,nan,nan,nan,nan,nan,nan,nan,nan,nan,nan,0.0,nan,nan,nan,nan,nan,nan,nan,nan,nan,nan,nan,nan,nan,nan,nan,nan,nan,nan,887.3287794528296,1047.1027954491437,nan,1047.470344325062,nan,nan,nan,nan
1,67,1,1,1.0,1.0,0.3267398572061211,0,nan,nan,nan,nan,nan,nan,nan,nan,nan,8,4,5,2,6,1,nan,nan,nan,nan,nan,nan,nan,nan,nan,nan,nan,nan,0.0,nan,nan,nan,nan,nan,nan,nan,nan,nan,nan,nan,nan,nan,nan,nan,nan,nan,nan,887.3287794528296,1048.1195920352475,nan,1048.4463318924536,nan,nan,nan,nan
1,68,1,1,1.0,1.0,0.2375937903416343,0,nan,nan,nan,nan,nan,nan,nan,nan,nan,2,3,7,5,1,0,nan,nan,nan,nan,nan,nan,nan,nan,nan,nan,nan,nan,0.0,nan,nan,nan,nan,nan,nan,nan,nan,nan,nan,nan,nan,nan,nan,nan,nan,nan,nan,887.3287794528296,1049.1447294670506,nan,1049.3823232573923,nan,nan,nan,nan
1,69,1,1,1.0,1.0,0.44443199515808374,0,nan,nan,nan,nan,nan,nan,nan,nan,nan,5,0,6,2,8,3,nan,nan,nan,nan,nan,nan,nan,nan,nan,nan,nan,nan,0.0,nan,nan,nan,nan,nan,nan,nan,nan,nan,nan,nan,nan,nan,nan,nan,nan,nan,nan,887.3287794528296,1050.1698720306158,nan,1050.614304025774,nan,nan,nan,nan
1,70,1,1,1.0,1.0,0.47526997415116057,0,nan,nan,nan,nan,nan,nan,nan,nan,nan,7,5,2,8,3,1,nan,nan,nan,nan,nan,nan,nan,nan,nan,nan,nan,nan,0.0,nan,nan,nan,nan,nan,nan,nan,nan,nan,nan,nan,nan,nan,nan,nan,nan,nan,nan,887.3287794528296,1051.1950200111023,nan,1051.6702899852535,nan,nan,nan,nan
1,71,1,1,1.0,1.0,0.5064238424529321,0,nan,nan,nan,nan,nan,nan,nan,nan,nan,4,8,1,5,6,7,nan,nan,nan,nan,nan,nan,nan,nan,nan,nan,nan,nan,0.0,nan,nan,nan,nan,nan,nan,nan,nan,nan,nan,nan,nan,nan,nan,nan,nan,nan,nan,887.3287794528296,1052.2118211587658,nan,1052.7182450012187,nan,nan,nan,nan
1,72,1,1,1.0,1.0,0.4652644375455566,0,nan,nan,nan,nan,nan,nan,nan,nan,nan,8,7,0,2,4,1,nan,nan,nan,nan,nan,nan,nan,nan,nan,nan,nan,nan,0.0,nan,nan,nan,nan,nan,nan,nan,nan,nan,nan,nan,nan,nan,nan,nan,nan,nan,nan,887.3287794528296,1053.2369902365026,nan,1053.7022546740482,nan,nan,nan,nan
1,73,1,1,1.0,1.0,0.3841493141371757,0,nan,nan,nan,nan,nan,nan,nan,nan,nan,4,0,3,5,7,6,nan,nan,nan,nan,nan,nan,nan,nan,nan,nan,nan,nan,0.0,nan,nan,nan,nan,nan,nan,nan,nan,nan,nan,nan,nan,nan,nan,nan,nan,nan,nan,887.3287794528296,1054.2620908906101,nan,1054.6462402047473,nan,nan,nan,nan
1,74,1,1,1.0,1.0,0.46335969358915463,0,nan,nan,nan,nan,nan,nan,nan,nan,nan,7,3,6,0,4,5,nan,nan,nan,nan,nan,nan,nan,nan,nan,nan,nan,nan,0.0,nan,nan,nan,nan,nan,nan,nan,nan,nan,nan,nan,nan,nan,nan,nan,nan,nan,nan,887.3287794528296,1055.2788800641429,nan,1055.742239757732,nan,nan,nan,nan
1,75,1,1,1.0,1.0,0.5021733069443144,0,nan,nan,nan,nan,nan,nan,nan,nan,nan,3,8,4,5,0,2,nan,nan,nan,nan,nan,nan,nan,nan,nan,nan,nan,nan,0.0,nan,nan,nan,nan,nan,nan,nan,nan,nan,nan,nan,nan,nan,nan,nan,nan,nan,nan,887.3287794528296,1056.3040343167377,nan,1056.806207623682,nan,nan,nan,nan
1,76,1,1,1.0,1.0,0.7250072557362728,0,nan,nan,nan,nan,nan,nan,nan,nan,nan,2,4,5,1,3,7,nan,nan,nan,nan,nan,nan,nan,nan,nan,nan,nan,nan,0.0,nan,nan,nan,nan,nan,nan,nan,nan,nan,nan,nan,nan,nan,nan,nan,nan,nan,nan,887.3287794528296,1057.32917659526,nan,1058.0541838509962,nan,nan,nan,nan
1,77,0,0,nan,nan,nan,0,nan,nan,nan,nan,nan,nan,nan,nan,nan,3,6,8,0,7,1,nan,nan,nan,nan,nan,nan,nan,nan,nan,nan,nan,nan,0.0,nan,nan,nan,nan,nan,nan,nan,nan,nan,nan,nan,nan,nan,nan,nan,nan,nan,nan,887.3287794528296,1058.3543111760519,nan,nan,nan,nan,nan,nan
1,78,1,1,0.0,0.0,0.17857124528381974,0,nan,nan,nan,nan,nan,nan,nan,nan,nan,4,1,6,7,8,2,nan,nan,nan,nan,nan,nan,nan,nan,nan,nan,nan,nan,0.0,nan,nan,nan,nan,nan,nan,nan,nan,nan,nan,nan,nan,nan,nan,nan,nan,nan,nan,887.3287794528296,1059.3796279348899,nan,1059.5581991801737,nan,nan,nan,nan
1,79,1,1,nan,nan,nan,0,nan,nan,nan,nan,nan,nan,nan,nan,nan,8,0,3,1,5,6,nan,nan,nan,nan,nan,nan,nan,nan,nan,nan,nan,nan,0.0,nan,nan,nan,nan,nan,nan,nan,nan,nan,nan,nan,nan,nan,nan,nan,nan,nan,nan,887.3287794528296,1060.4045766313793,nan,nan,nan,nan,nan,nan
1,80,0,0,0.0,1.0,0.7443854099838063,0,nan,nan,nan,nan,nan,nan,nan,nan,nan,5,3,1,2,4,7,nan,nan,nan,nan,nan,nan,nan,nan,nan,nan,nan,nan,0.0,nan,nan,nan,nan,nan,nan,nan,nan,nan,nan,nan,nan,nan,nan,nan,nan,nan,nan,887.3287794528296,1061.4297234714613,nan,1062.1741088814451,nan,nan,nan,nan
1,81,1,1,1.0,1.0,0.5672393728164025,1,0.0,1.0,1.0,0.39649035377436104,0.1927657665597534,0.20372458721460765,0.5892561203341145,0.1927657665597534,0.6558123914001044,7,0,4,8,1,2,1.0,1.0,1.0,1.0,1.0,1.0,1.0,1.0,1.0,0.0,0.0,0.0,3.0,7.0,0.0,4.0,5.0,3.0,8.0,3.0,2.0,1.0,6.0,5.0,4.0,3.6269321847357787,2.4761706007411703,1.4508267575292848,6.60275952675147,5.690529707586393,4.6663798574591056,887.3287794528296,1062.4548631840153,1063.2632666373975,1063.0221025568317,1070.9142771124607,1071.9185644257232,1064.2717471813667,1070.905945389939
1,82,1,1,nan,nan,nan,0,0.0,0.0,0.0,0.0,0.0,0.0,0.0,0.0,0.0,3,4,8,0,6,1,nan,nan,nan,nan,nan,nan,nan,nan,nan,nan,nan,nan,0.0,nan,nan,nan,nan,nan,nan,nan,nan,nan,nan,nan,nan,nan,nan,nan,nan,nan,nan,887.3287794528296,1072.1395073153544,nan,nan,nan,nan,nan,nan
1,83,1,1,1.0,1.0,0.5293377899797633,0,0.0,0.0,0.0,0.39943430237853417,0.19238498912416072,0.20704931325437345,0.5918192915026949,0.19238498912416072,0.5482885813980829,8,0,2,3,1,7,nan,nan,nan,nan,nan,nan,nan,nan,nan,nan,nan,nan,0.0,nan,nan,nan,nan,nan,nan,nan,nan,nan,nan,nan,nan,nan,nan,nan,nan,nan,nan,887.3287794528296,1073.1646102502127,nan,1073.6939480401925,nan,nan,nan,nan
1,84,1,1,1.0,1.0,0.2722056199563667,0,0.0,0.0,0.0,0.4016360564056737,0.19148323708115522,0.21015281932451846,0.5931192934868289,0.19148323708115522,0.400771704968065,7,6,1,0,4,5,nan,nan,nan,nan,nan,nan,nan,nan,nan,nan,nan,nan,0.0,nan,nan,nan,nan,nan,nan,nan,nan,nan,nan,nan,nan,nan,nan,nan,nan,nan,nan,887.3287794528296,1074.1897485373192,nan,1074.4619541572756,nan,nan,nan,nan
1,85,1,1,1.0,1.0,0.03937924903584644,0,0.0,0.0,0.0,0.39947888246485186,0.19060242254565726,0.2088764599191946,0.5900813050105091,0.19060242254565726,0.28030755299065885,5,8,7,6,0,3,nan,nan,nan,nan,nan,nan,nan,nan,nan,nan,nan,nan,0.0,nan,nan,nan,nan,nan,nan,nan,nan,nan,nan,nan,nan,nan,nan,nan,nan,nan,nan,887.3287794528296,1075.2065608038683,nan,1075.2459400529042,nan,nan,nan,nan
1,86,1,1,1.0,1.0,0.5425829024170525,0,0.0,0.0,0.0,0.39357560978568784,0.19448557570030836,0.19909003408537948,0.5880611854859962,0.19448557570030836,0.28472259046975523,8,2,6,4,7,5,nan,nan,nan,nan,nan,nan,nan,nan,nan,nan,nan,nan,0.0,nan,nan,nan,nan,nan,nan,nan,nan,nan,nan,nan,nan,nan,nan,nan,nan,nan,nan,887.3287794528296,1076.2233405691222,nan,1076.7659234715393,nan,nan,nan,nan
1,87,0,0,1.0,0.0,0.34974703192710876,0,0.0,0.0,0.0,0.39597895321522597,0.19382183563378644,0.20215711758143953,0.5898007888490124,0.19382183563378644,0.3105697277933359,3,7,0,8,1,6,nan,nan,nan,nan,nan,nan,nan,nan,nan,nan,nan,nan,0.0,nan,nan,nan,nan,nan,nan,nan,nan,nan,nan,nan,nan,nan,nan,nan,nan,nan,nan,887.3287794528296,1077.2401582525927,nan,1077.5899052845198,nan,nan,nan,nan
1,88,1,1,nan,nan,nan,0,0.0,0.0,0.0,0.0,0.0,0.0,0.0,0.0,0.0,1,5,7,0,4,8,nan,nan,nan,nan,nan,nan,nan,nan,nan,nan,nan,nan,0.0,nan,nan,nan,nan,nan,nan,nan,nan,nan,nan,nan,nan,nan,nan,nan,nan,nan,nan,887.3287794528296,1078.2652985353488,nan,nan,nan,nan,nan,nan
1,89,1,1,1.0,1.0,0.5717681646347046,0,0.0,0.0,0.0,0.3952451131947797,0.1923642176142616,0.20288089558051808,0.5876093308090413,0.1923642176142616,0.4607575982809067,4,8,1,3,0,6,nan,nan,nan,nan,nan,nan,nan,nan,nan,nan,nan,nan,0.0,nan,nan,nan,nan,nan,nan,nan,nan,nan,nan,nan,nan,nan,nan,nan,nan,nan,nan,887.3287794528296,1079.2820879939827,nan,1079.8538561586174,nan,nan,nan,nan
1,90,1,1,1.0,1.0,0.46662036661291495,0,0.0,0.0,0.0,0.3980032858735285,0.1921069451661248,0.2058963407074037,0.5901102310396533,0.1921069451661248,0.5191942656238098,1,7,2,8,4,0,nan,nan,nan,nan,nan,nan,nan,nan,nan,nan,nan,nan,0.0,nan,nan,nan,nan,nan,nan,nan,nan,nan,nan,nan,nan,nan,nan,nan,nan,nan,nan,887.3287794528296,1080.3072413913324,nan,1080.7738617579453,nan,nan,nan,nan
1,91,1,1,1.0,1.0,0.37748142721829936,0,0.0,0.0,0.0,0.3990589332695191,0.1908104530564485,0.20824848021307057,0.5898693863259676,0.1908104530564485,0.47195665282197297,5,0,1,2,3,6,nan,nan,nan,nan,nan,nan,nan,nan,nan,nan,nan,nan,0.0,nan,nan,nan,nan,nan,nan,nan,nan,nan,nan,nan,nan,nan,nan,nan,nan,nan,nan,887.3287794528296,1081.3323782529333,nan,1081.7098596801516,nan,nan,nan,nan
1,92,1,1,1.0,1.0,0.5842785778222606,0,0.0,0.0,0.0,0.3987320013596521,0.1893777457689369,0.2093542555907152,0.588109747128589,0.1893777457689369,0.4761267905511583,6,1,4,7,8,5,nan,nan,nan,nan,nan,nan,nan,nan,nan,nan,nan,nan,0.0,nan,nan,nan,nan,nan,nan,nan,nan,nan,nan,nan,nan,nan,nan,nan,nan,nan,nan,887.3287794528296,1082.3575299396762,nan,1082.9418085174984,nan,nan,nan,nan
1,93,1,1,1.0,1.0,0.7351653201621957,0,0.0,0.0,0.0,0.40150135324715375,0.18930087822890942,0.21220047501824432,0.5908022314760631,0.18930087822890942,0.5656417750675852,8,5,6,4,3,1,nan,nan,nan,nan,nan,nan,nan,nan,nan,nan,nan,nan,0.0,nan,nan,nan,nan,nan,nan,nan,nan,nan,nan,nan,nan,nan,nan,nan,nan,nan,nan,887.3287794528296,1083.3826479847194,nan,1084.1178133048816,nan,nan,nan,nan
1,94,1,1,1.0,1.0,0.6943440422182903,1,0.0,1.0,1.0,0.406408176290022,0.19214836180279637,0.21425981448722564,0.5985565380928184,0.19214836180279637,0.6712626467342488,5,2,8,1,4,7,1.0,1.0,1.0,1.0,1.0,1.0,0.0,0.0,1.0,0.0,0.0,0.0,1.0,6.0,7.0,8.0,5.0,3.0,4.0,3.0,2.0,1.0,6.0,5.0,4.0,4.153474297490902,3.26561670540832,2.225612520123832,7.5290826266864315,6.537097604654264,5.425308719044551,887.3287794528296,1084.3994582555606,1085.207872257568,1085.093802297779,1093.7923486938816,1094.8034230652847,1086.2247004896635,1093.7840126949013
1,95,1,1,nan,nan,nan,0,0.0,0.0,0.0,0.0,0.0,0.0,0.0,0.0,0.0,4,3,6,8,0,2,nan,nan,nan,nan,nan,nan,nan,nan,nan,nan,nan,nan,0.0,nan,nan,nan,nan,nan,nan,nan,nan,nan,nan,nan,nan,nan,nan,nan,nan,nan,nan,887.3287794528296,1095.0258735565003,nan,nan,nan,nan,nan,nan
1,96,1,1,1.0,1.0,0.2906278385198675,0,0.0,0.0,0.0,0.4105811598541998,0.1938299355968366,0.2167512242573632,0.6044110954510364,0.1938299355968366,0.4924859403690789,6,7,2,4,3,1,nan,nan,nan,nan,nan,nan,nan,nan,nan,nan,nan,nan,0.0,nan,nan,nan,nan,nan,nan,nan,nan,nan,nan,nan,nan,nan,nan,nan,nan,nan,nan,887.3287794528296,1096.0510129839531,nan,1096.341640822473,nan,nan,nan,nan
1,97,1,1,1.0,1.0,0.08180848328629509,1,1.0,0.0,1.0,0.40886754097799505,0.19296618047260913,0.21590136050538591,0.6018337214506042,0.19296618047260913,0.1862181609030813,8,0,1,3,7,5,1.0,1.0,1.0,1.0,1.0,1.0,0.0,0.0,0.0,0.0,0.0,0.0,0.0,6.0,6.0,6.0,6.0,6.0,6.0,3.0,2.0,1.0,6.0,5.0,4.0,6.654926875024103,5.695736749039497,4.622487782093231,9.293237061239779,8.445133622852154,7.574609457631595,887.3287794528296,1097.067812421068,1097.8762090320815,1097.1496209043544,1108.2192787688691,1109.2176137928618,1098.8847046862938,1108.2109464761452
1,98,1,1,nan,nan,nan,0,0.0,0.0,0.0,0.0,0.0,0.0,0.0,0.0,0.0,3,1,8,5,6,2,nan,nan,nan,nan,nan,nan,nan,nan,nan,nan,nan,nan,0.0,nan,nan,nan,nan,nan,nan,nan,nan,nan,nan,nan,nan,nan,nan,nan,nan,nan,nan,887.3287794528296,1109.4361379056354,nan,nan,nan,nan,nan,nan
1,99,1,1,1.0,1.0,0.24015255057020113,0,0.0,0.0,0.0,0.40426107537670347,0.19544017914615866,0.2088208962305448,0.5997012545228622,0.19544017914615866,0.1609805169282481,8,0,7,2,5,1,nan,nan,nan,nan,nan,nan,nan,nan,nan,nan,nan,nan,0.0,nan,nan,nan,nan,nan,nan,nan,nan,nan,nan,nan,nan,nan,nan,nan,nan,nan,nan,887.3287794528296,1110.4612841755152,nan,1110.7014367260854,nan,nan,nan,nan
1,100,1,1,1.0,1.0,0.7269462115946226,0,0.0,0.0,0.0,0.4019817903099465,0.19502616901174769,0.20695562129819883,0.5970079593216941,0.19502616901174769,0.48354938108241186,3,6,4,5,8,7,nan,nan,nan,nan,nan,nan,nan,nan,nan,nan,nan,nan,0.0,nan,nan,nan,nan,nan,nan,nan,nan,nan,nan,nan,nan,nan,nan,nan,nan,nan,nan,887.3287794528296,1111.486411343736,nan,1112.2133575553307,nan,nan,nan,nan
1,101,1,1,1.0,1.0,0.43782797030871734,0,0.0,0.0,0.0,0.4064333577248051,0.1973346420381884,0.2090987156866167,0.6037679997629934,0.1973346420381884,0.4683089108245137,0,5,7,1,4,3,nan,nan,nan,nan,nan,nan,nan,nan,nan,nan,nan,nan,0.0,nan,nan,nan,nan,nan,nan,nan,nan,nan,nan,nan,nan,nan,nan,nan,nan,nan,nan,887.3287794528296,1112.5115513414494,nan,1112.949379311758,nan,nan,nan,nan
1,102,1,1,1.0,1.0,0.14099153882125393,0,0.0,0.0,0.0,0.40685760924620934,0.19603028074543627,0.21082732850077307,0.6028878899916457,0.19603028074543627,0.4352552402415313,2,1,6,3,7,4,nan,nan,nan,nan,nan,nan,nan,nan,nan,nan,nan,nan,0.0,nan,nan,nan,nan,nan,nan,nan,nan,nan,nan,nan,nan,nan,nan,nan,nan,nan,nan,887.3287794528296,1113.528382424498,nan,1113.6693739633192,nan,nan,nan,nan
1,103,1,1,nan,nan,nan,0,0.0,0.0,0.0,0.0,0.0,0.0,0.0,0.0,0.0,1,2,7,4,0,8,nan,nan,nan,nan,nan,nan,nan,nan,nan,nan,nan,nan,0.0,nan,nan,nan,nan,nan,nan,nan,nan,nan,nan,nan,nan,nan,nan,nan,nan,nan,nan,887.3287794528296,1114.553444590245,nan,nan,nan,nan,nan,nan
1,104,1,1,1.0,1.0,0.1467314296751283,1,1.0,0.0,1.0,0.40331272830720993,0.1970923558657646,0.20622037244144534,0.6004050841729746,0.1970923558657646,0.14386148424819112,3,7,8,1,4,6,1.0,1.0,1.0,1.0,1.0,1.0,0.0,1.0,1.0,1.0,0.0,0.0,3.0,8.0,7.0,8.0,1.0,1.0,7.0,4.0,2.0,1.0,3.0,6.0,5.0,6.294119726575445,2.766287827573251,1.55092061200412,4.791621407261118,8.53346744371811,7.533549552143086,887.3287794528296,1115.5786233613617,1116.3871163356816,1115.7253547910368,1125.9799912075978,1126.985767305945,1117.4038462087046,1125.971659770119
1,105,1,1,nan,nan,nan,0,0.0,0.0,0.0,0.0,0.0,0.0,0.0,0.0,0.0,2,5,0,4,3,8,nan,nan,nan,nan,nan,nan,nan,nan,nan,nan,nan,nan,0.0,nan,nan,nan,nan,nan,nan,nan,nan,nan,nan,nan,nan,nan,nan,nan,nan,nan,nan,887.3287794528296,1127.2051735139103,nan,nan,nan,nan,nan,nan
1,106,1,1,1.0,1.0,0.7268028069520369,0,0.0,0.0,0.0,0.39993665858836674,0.19796239947368466,0.2019742591146821,0.5978990580620513,0.19796239947368466,0.4367671183135826,7,3,6,8,4,0,nan,nan,nan,nan,nan,nan,nan,nan,nan,nan,nan,nan,0.0,nan,nan,nan,nan,nan,nan,nan,nan,nan,nan,nan,nan,nan,nan,nan,nan,nan,nan,887.3287794528296,1128.2303118010168,nan,1128.9571146079688,nan,nan,nan,nan
1,107,1,1,1.0,1.0,0.7260187856736593,1,0.0,1.0,1.0,0.40418167350218065,0.20012419550623142,0.20405747799594923,0.6043058690084121,0.20012419550623142,0.7264107963128481,1,2,4,7,6,5,1.0,1.0,1.0,1.0,1.0,1.0,0.0,0.0,0.0,1.0,0.0,0.0,1.0,0.0,7.0,1.0,7.0,1.0,4.0,4.0,5.0,6.0,1.0,2.0,3.0,5.12124874338042,6.169109961949289,7.088822764984798,1.8681316174915992,2.705449774453882,3.9626945584313944,887.3287794528296,1129.247109527525,1130.0555363589083,1129.9731283131987,1138.198250463698,1139.2004012478283,1131.0723457745044,1138.1899156051222
1,108,1,1,1.0,1.0,0.4374148624483496,0,0.0,0.0,0.0,0.4083077903248919,0.2021067754902899,0.206201014834602,0.6104145658151818,0.2021067754902899,0.6300788183580153,4,7,6,8,0,3,nan,nan,nan,nan,nan,nan,nan,nan,nan,nan,nan,nan,0.0,nan,nan,nan,nan,nan,nan,nan,nan,nan,nan,nan,nan,nan,nan,nan,nan,nan,nan,887.3287794528296,1139.423575889552,nan,1139.8609907520004,nan,nan,nan,nan
1,109,1,1,1.0,1.0,0.23633023322327062,0,0.0,0.0,0.0,0.4086762342758217,0.20084990604332476,0.20782632823249697,0.6095261403191465,0.20084990604332476,0.4665879604484265,1,0,4,5,8,2,nan,nan,nan,nan,nan,nan,nan,nan,nan,nan,nan,nan,0.0,nan,nan,nan,nan,nan,nan,nan,nan,nan,nan,nan,nan,nan,nan,nan,nan,nan,nan,887.3287794528296,1140.4486574420007,nan,1140.684987675224,nan,nan,nan,nan
1,110,1,1,1.0,1.0,0.7871430778759532,0,0.0,0.0,0.0,0.40652190926266485,0.2005070432250822,0.20601486603758265,0.607028952487747,0.2005070432250822,0.4869627245158578,4,2,7,3,6,0,nan,nan,nan,nan,nan,nan,nan,nan,nan,nan,nan,nan,0.0,nan,nan,nan,nan,nan,nan,nan,nan,nan,nan,nan,nan,nan,nan,nan,nan,nan,nan,887.3287794528296,1141.4737592365127,nan,1142.2609023143887,nan,nan,nan,nan
1,111,0,0,0.0,1.0,0.6823650528676808,0,0.0,0.0,0.0,0.4112209360356684,0.203649719715734,0.2075712163199344,0.6148706557514024,0.203649719715734,0.5686127879889682,6,0,1,2,5,3,nan,nan,nan,nan,nan,nan,nan,nan,nan,nan,nan,nan,0.0,nan,nan,nan,nan,nan,nan,nan,nan,nan,nan,nan,nan,nan,nan,nan,nan,nan,nan,887.3287794528296,1142.4905669414438,nan,1143.1729319943115,nan,nan,nan,nan
1,112,1,1,1.0,1.0,0.5692270805011503,1,0.0,1.0,1.0,0.4145275716067905,0.20458024941253686,0.20994732219425363,0.6191078210193274,0.20458024941253686,0.6795784037482614,3,1,6,4,7,0,1.0,1.0,1.0,1.0,1.0,1.0,0.0,0.0,1.0,0.0,0.0,0.0,1.0,0.0,2.0,6.0,0.0,1.0,2.0,5.0,6.0,1.0,2.0,3.0,4.0,5.724875825282652,6.5720806327299215,1.4776228931732476,2.302323439856991,3.1163210986414924,4.2127023986540735,887.3287794528296,1143.5156955351704,1144.3241129583912,1144.0849226156715,1151.9501279807882,1152.9594010990113,1145.3409152464592,1151.9417945476598
1,113,1,1,nan,nan,nan,0,0.0,0.0,0.0,0.0,0.0,0.0,0.0,0.0,0.0,0,4,1,8,6,3,nan,nan,nan,nan,nan,nan,nan,nan,nan,nan,nan,nan,0.0,nan,nan,nan,nan,nan,nan,nan,nan,nan,nan,nan,nan,nan,nan,nan,nan,nan,nan,887.3287794528296,1153.1836514179013,nan,nan,nan,nan,nan,nan
1,114,0,0,nan,nan,nan,0,0.0,0.0,0.0,0.0,0.0,0.0,0.0,0.0,0.0,1,8,7,4,2,0,nan,nan,nan,nan,nan,nan,nan,nan,nan,nan,nan,nan,0.0,nan,nan,nan,nan,nan,nan,nan,nan,nan,nan,nan,nan,nan,nan,nan,nan,nan,nan,887.3287794528296,1154.208785713592,nan,nan,nan,nan,nan,nan
1,115,1,1,0.0,0.0,0.0031440677703358233,1,1.0,0.0,1.0,0.4163914211115418,0.20404334627851062,0.2123480748330312,0.6204347673900524,0.20404334627851062,0.0031440677703358233,3,2,0,8,4,5,1.0,1.0,1.0,1.0,1.0,1.0,1.0,1.0,1.0,1.0,0.0,0.0,4.0,3.0,2.0,0.0,8.0,1.0,7.0,4.0,2.0,1.0,3.0,5.0,6.0,4.99858933192445,2.638653444882948,1.4944511252106167,3.96698272699723,6.798541321302764,8.24651652231114,887.3287794528296,1155.2256088138674,1156.0340168288094,1155.2287528816378,1165.326916903432,1166.3284173775464,1157.0424862540094,1165.3185857511126
1,116,0,0,nan,nan,nan,0,0.0,0.0,0.0,0.0,0.0,0.0,0.0,0.0,0.0,0,1,7,6,3,4,nan,nan,nan,nan,nan,nan,nan,nan,nan,nan,nan,nan,0.0,nan,nan,nan,nan,nan,nan,nan,nan,nan,nan,nan,nan,nan,nan,nan,nan,nan,nan,887.3287794528296,1166.5521117541357,nan,nan,nan,nan,nan,nan
1,117,1,1,nan,nan,nan,0,0.0,0.0,0.0,0.0,0.0,0.0,0.0,0.0,0.0,4,3,2,5,7,6,nan,nan,nan,nan,nan,nan,nan,nan,nan,nan,nan,nan,0.0,nan,nan,nan,nan,nan,nan,nan,nan,nan,nan,nan,nan,nan,nan,nan,nan,nan,nan,887.3287794528296,1167.5772483306355,nan,nan,nan,nan,nan,nan
1,118,1,1,1.0,1.0,0.25851660897023976,0,0.0,0.0,0.0,0.41147180976224174,0.20771822698407127,0.20375358277817046,0.619190036746313,0.20771822698407127,0.25851660897023976,8,6,4,3,1,0,nan,nan,nan,nan,nan,nan,nan,nan,nan,nan,nan,nan,0.0,nan,nan,nan,nan,nan,nan,nan,nan,nan,nan,nan,nan,nan,nan,nan,nan,nan,nan,887.3287794528296,1168.5940534697147,nan,1168.852570078685,nan,nan,nan,nan
1,119,1,1,1.0,1.0,0.7616489876527339,0,0.0,0.0,0.0,0.40967233681174764,0.2071503133618046,0.20252202344994305,0.6168226501735522,0.2071503133618046,0.5100827983114868,5,8,1,4,3,7,nan,nan,nan,nan,nan,nan,nan,nan,nan,nan,nan,nan,0.0,nan,nan,nan,nan,nan,nan,nan,nan,nan,nan,nan,nan,nan,nan,nan,nan,nan,nan,887.3287794528296,1169.6108517664252,nan,1170.372500754078,nan,nan,nan,nan
1,120,1,1,1.0,1.0,0.6165320716099814,0,0.0,0.0,0.0,0.4137650885657126,0.20937069210793882,0.20439439645777377,0.6231357806736514,0.20937069210793882,0.545565889410985,7,0,5,6,8,3,nan,nan,nan,nan,nan,nan,nan,nan,nan,nan,nan,nan,0.0,nan,nan,nan,nan,nan,nan,nan,nan,nan,nan,nan,nan,nan,nan,nan,nan,nan,nan,887.3287794528296,1170.6359823558014,nan,1171.2525144274114,nan,nan,nan,nan
1,121,1,1,1.0,1.0,0.5677100706961937,1,0.0,1.0,1.0,0.4160957435432329,0.209282993990832,0.20681274955240092,0.6253787375340649,0.209282993990832,0.6486303766529696,2,3,7,8,0,6,1.0,1.0,1.0,1.0,1.0,1.0,0.0,1.0,1.0,0.0,1.0,0.0,3.0,1.0,3.0,7.0,6.0,0.0,2.0,4.0,2.0,1.0,3.0,6.0,5.0,4.826952255680226,2.8757605718565173,1.9711368992575444,3.8604171334882267,6.594764220586512,5.731623824918643,887.3287794528296,1171.6527951925527,1172.4612100498634,1172.220505263249,1180.103888802405,1181.1014050231315,1173.4696817558142,1180.095561071299
1,122,1,1,1.0,1.0,0.7236094171530567,0,0.0,0.0,0.0,0.41781863362451654,0.20871008100340213,0.2091085526211144,0.6265287146279187,0.20871008100340213,0.6359505198197439,7,4,0,3,1,5,nan,nan,nan,nan,nan,nan,nan,nan,nan,nan,nan,nan,0.0,nan,nan,nan,nan,nan,nan,nan,nan,nan,nan,nan,nan,nan,nan,nan,nan,nan,nan,887.3287794528296,1181.3207490795758,nan,1182.0443584967288,nan,nan,nan,nan
1,123,1,1,nan,nan,nan,0,0.0,0.0,0.0,0.0,0.0,0.0,0.0,0.0,0.0,2,5,1,0,4,3,nan,nan,nan,nan,nan,nan,nan,nan,nan,nan,nan,nan,0.0,nan,nan,nan,nan,nan,nan,nan,nan,nan,nan,nan,nan,nan,nan,nan,nan,nan,nan,887.3287794528296,1182.3458773882012,nan,nan,nan,nan,nan,nan
1,124,0,0,1.0,0.0,0.2013172697625123,0,0.0,0.0,0.0,0.4212544851248372,0.210022159554865,0.2112323255699722,0.6312766446797022,0.210022159554865,0.4624633434577845,4,0,8,2,3,7,nan,nan,nan,nan,nan,nan,nan,nan,nan,nan,nan,nan,0.0,nan,nan,nan,nan,nan,nan,nan,nan,nan,nan,nan,nan,nan,nan,nan,nan,nan,nan,887.3287794528296,1183.371021662373,nan,1183.5723389321356,nan,nan,nan,nan
1,125,1,1,1.0,1.0,0.5121295214630663,0,0.0,0.0,0.0,0.41881073828747806,0.21012068689977012,0.20869005138770794,0.6289314251872482,0.21012068689977012,0.3567233956127893,3,2,4,6,8,1,nan,nan,nan,nan,nan,nan,nan,nan,nan,nan,nan,nan,0.0,nan,nan,nan,nan,nan,nan,nan,nan,nan,nan,nan,nan,nan,nan,nan,nan,nan,nan,887.3287794528296,1184.3961573835695,nan,1184.9082869050326,nan,nan,nan,nan
1,126,1,1,1.0,1.0,0.40696860890602693,0,0.0,0.0,0.0,0.41983621942127575,0.20918932941743604,0.2106468900038397,0.6290255488387118,0.20918932941743604,0.37347180004386854,0,5,2,7,4,8,nan,nan,nan,nan,nan,nan,nan,nan,nan,nan,nan,nan,0.0,nan,nan,nan,nan,nan,nan,nan,nan,nan,nan,nan,nan,nan,nan,nan,nan,nan,nan,887.3287794528296,1185.4213047938538,nan,1185.8282734027598,nan,nan,nan,nan
1,127,1,1,1.0,1.0,0.38984159351093695,0,0.0,0.0,0.0,0.4196963540895883,0.20805360278168405,0.21164275130790422,0.6277499568712723,0.20805360278168405,0.4363132412933434,1,2,6,4,0,5,nan,nan,nan,nan,nan,nan,nan,nan,nan,nan,nan,nan,0.0,nan,nan,nan,nan,nan,nan,nan,nan,nan,nan,nan,nan,nan,nan,nan,nan,nan,nan,887.3287794528296,1186.4464319620747,nan,1186.8362735555856,nan,nan,nan,nan
1,128,1,1,1.0,1.0,0.3330031891237013,0,0.0,0.0,0.0,0.419375335158635,0.20695491880372513,0.21242041635490988,0.6263302539623601,0.20695491880372513,0.3766044638468884,6,0,5,2,4,8,nan,nan,nan,nan,nan,nan,nan,nan,nan,nan,nan,nan,0.0,nan,nan,nan,nan,nan,nan,nan,nan,nan,nan,nan,nan,nan,nan,nan,nan,nan,nan,887.3287794528296,1187.4632513560937,nan,1187.7962545452174,nan,nan,nan,nan
1,129,1,1,1.0,1.0,0.40387585893040523,0,0.0,0.0,0.0,0.4184564825412421,0.2060417809603776,0.21241470158086453,0.6244982635016197,0.2060417809603776,0.37557354718834784,0,7,2,4,5,3,nan,nan,nan,nan,nan,nan,nan,nan,nan,nan,nan,nan,0.0,nan,nan,nan,nan,nan,nan,nan,nan,nan,nan,nan,nan,nan,nan,nan,nan,nan,nan,887.3287794528296,1188.488369116094,nan,1188.8922449750244,nan,nan,nan,nan
1,130,1,1,1.0,1.0,0.45071100746281445,0,0.0,0.0,0.0,0.41830300229270695,0.20495988346558847,0.21334311882711848,0.6232628857582954,0.20495988346558847,0.39586335183897364,7,6,5,8,1,4,nan,nan,nan,nan,nan,nan,nan,nan,nan,nan,nan,nan,0.0,nan,nan,nan,nan,nan,nan,nan,nan,nan,nan,nan,nan,nan,nan,nan,nan,nan,nan,887.3287794528296,1189.513511394558,nan,1189.9642224020208,nan,nan,nan,nan
1,131,1,1,1.0,1.0,0.3299016010132618,0,0.0,0.0,0.0,0.4186405856798956,0.20391613758955773,0.21472444809033786,0.6225567232694533,0.20391613758955773,0.3948294891354938,5,2,4,7,3,6,nan,nan,nan,nan,nan,nan,nan,nan,nan,nan,nan,nan,0.0,nan,nan,nan,nan,nan,nan,nan,nan,nan,nan,nan,nan,nan,nan,nan,nan,nan,nan,887.3287794528296,1190.5303042744054,nan,1190.8602058754186,nan,nan,nan,nan
1,132,1,1,1.0,1.0,0.32075734745012596,0,0.0,0.0,0.0,0.41772575078642515,0.20306023122873298,0.21466551955769217,0.6207859820151581,0.20306023122873298,0.36712331864206743,8,6,1,3,4,0,nan,nan,nan,nan,nan,nan,nan,nan,nan,nan,nan,nan,0.0,nan,nan,nan,nan,nan,nan,nan,nan,nan,nan,nan,nan,nan,nan,nan,nan,nan,nan,887.3287794528296,1191.555435719085,nan,1191.876193066535,nan,nan,nan,nan
1,133,1,1,1.0,1.0,0.3435735061648302,0,0.0,0.0,0.0,0.4167362772829935,0.2022564623151243,0.2144798149678692,0.6189927395981178,0.2022564623151243,0.331410818209406,4,0,8,7,1,5,nan,nan,nan,nan,nan,nan,nan,nan,nan,nan,nan,nan,0.0,nan,nan,nan,nan,nan,nan,nan,nan,nan,nan,nan,nan,nan,nan,nan,nan,nan,nan,887.3287794528296,1192.5805936779943,nan,1192.9241671841592,nan,nan,nan,nan
1,134,1,1,1.0,1.0,0.3187659334507771,0,0.0,0.0,0.0,0.41599725939291105,0.2013653151451591,0.21463194424775195,0.6173625745380702,0.2013653151451591,0.32769892902191106,3,1,5,6,0,8,nan,nan,nan,nan,nan,nan,nan,nan,nan,nan,nan,nan,0.0,nan,nan,nan,nan,nan,nan,nan,nan,nan,nan,nan,nan,nan,nan,nan,nan,nan,nan,887.3287794528296,1193.5974016680848,nan,1193.9161676015356,nan,nan,nan,nan
1,135,0,0,0.0,1.0,0.6536054428433999,0,0.0,0.0,0.0,0.4150249461334897,0.20058939193398131,0.2144355541995084,0.615614338067471,0.20058939193398131,0.4386482941530024,5,8,6,3,2,0,nan,nan,nan,nan,nan,nan,nan,nan,nan,nan,nan,nan,0.0,nan,nan,nan,nan,nan,nan,nan,nan,nan,nan,nan,nan,nan,nan,nan,nan,nan,nan,887.3287794528296,1194.62253710418,nan,1195.2761425470235,nan,nan,nan,nan
1,136,1,1,1.0,1.0,0.42846846726024523,0,0.0,0.0,0.0,0.4173871292692314,0.20098685978005357,0.21640026948917782,0.618373989049285,0.20098685978005357,0.46694661451814073,0,5,4,7,6,2,nan,nan,nan,nan,nan,nan,nan,nan,nan,nan,nan,nan,0.0,nan,nan,nan,nan,nan,nan,nan,nan,nan,nan,nan,nan,nan,nan,nan,nan,nan,nan,887.3287794528296,1195.6476597108413,nan,1196.0761281781015,nan,nan,nan,nan
1,137,1,1,1.0,1.0,0.3073175126337446,0,0.0,0.0,0.0,0.41749576983777076,0.20000218357626015,0.2174935862615106,0.6174979534140309,0.20000218357626015,0.4631304742457966,4,2,1,0,8,6,nan,nan,nan,nan,nan,nan,nan,nan,nan,nan,nan,nan,0.0,nan,nan,nan,nan,nan,nan,nan,nan,nan,nan,nan,nan,nan,nan,nan,nan,nan,nan,887.3287794528296,1196.6728045552154,nan,1196.9801220678492,nan,nan,nan,nan
1,138,1,1,1.0,1.0,0.30647989286808297,0,0.0,0.0,0.0,0.41642607802025594,0.1993219204713059,0.21710415754895004,0.6157479984915618,0.1993219204713059,0.3474219575873576,6,5,4,2,7,1,nan,nan,nan,nan,nan,nan,nan,nan,nan,nan,nan,nan,0.0,nan,nan,nan,nan,nan,nan,nan,nan,nan,nan,nan,nan,nan,nan,nan,nan,nan,nan,887.3287794528296,1197.68961568136,nan,1197.996095574228,nan,nan,nan,nan
1,139,1,1,1.0,1.0,0.4896711615147069,0,0.0,0.0,0.0,0.4153689031630235,0.19865127962532425,0.21671762353769924,0.6140201827883478,0.19865127962532425,0.36782285567217815,2,3,1,0,8,5,nan,nan,nan,nan,nan,nan,nan,nan,nan,nan,nan,nan,0.0,nan,nan,nan,nan,nan,nan,nan,nan,nan,nan,nan,nan,nan,nan,nan,nan,nan,nan,887.3287794528296,1198.7064122674637,nan,1199.1960834289785,nan,nan,nan,nan
1,140,1,1,1.0,1.0,0.48884779668878764,0,0.0,0.0,0.0,0.4160765437187538,0.19783472321659865,0.21824182050215515,0.6139112669353525,0.19783472321659865,0.4283329503571925,6,8,5,3,7,4,nan,nan,nan,nan,nan,nan,nan,nan,nan,nan,nan,nan,0.0,nan,nan,nan,nan,nan,nan,nan,nan,nan,nan,nan,nan,nan,nan,nan,nan,nan,nan,887.3287794528296,1199.723224819114,nan,1200.2120726158028,nan,nan,nan,nan
1,141,1,1,1.0,1.0,0.33570649434113875,0,0.0,0.0,0.0,0.4167630649731881,0.19702495665636038,0.21973810831682772,0.6137880216295485,0.19702495665636038,0.4380751508482111,1,7,2,4,8,3,nan,nan,nan,nan,nan,nan,nan,nan,nan,nan,nan,nan,0.0,nan,nan,nan,nan,nan,nan,nan,nan,nan,nan,nan,nan,nan,nan,nan,nan,nan,nan,887.3287794528296,1200.7483479959774,nan,1201.0840544903185,nan,nan,nan,nan
1,142,1,1,1.0,1.0,0.3428718784125522,0,0.0,0.0,0.0,0.41600552692989795,0.196257153450754,0.21974837347914394,0.6122626803806519,0.196257153450754,0.38914205648082617,7,1,4,5,3,6,nan,nan,nan,nan,nan,nan,nan,nan,nan,nan,nan,nan,0.0,nan,nan,nan,nan,nan,nan,nan,nan,nan,nan,nan,nan,nan,nan,nan,nan,nan,nan,887.3287794528296,1201.7651708111516,nan,1202.1080426895642,nan,nan,nan,nan
1,143,0,0,1.0,0.0,0.3257271868060343,0,0.0,0.0,0.0,0.4153283635177003,0.1954719864162105,0.2198563771014898,0.6108003499339107,0.1954719864162105,0.33476851985324174,2,3,1,7,5,0,nan,nan,nan,nan,nan,nan,nan,nan,nan,nan,nan,nan,0.0,nan,nan,nan,nan,nan,nan,nan,nan,nan,nan,nan,nan,nan,nan,nan,nan,nan,nan,887.3287794528296,1202.7903025409905,nan,1203.1160297277966,nan,nan,nan,nan
1,144,1,1,1.0,1.0,0.5808730747085065,0,0.0,0.0,0.0,0.41450633437355655,0.19476070575625254,0.219745628617304,0.609267040129809,0.19476070575625254,0.416490713309031,8,4,7,0,6,3,nan,nan,nan,nan,nan,nan,nan,nan,nan,nan,nan,nan,0.0,nan,nan,nan,nan,nan,nan,nan,nan,nan,nan,nan,nan,nan,nan,nan,nan,nan,nan,887.3287794528296,1203.807103688654,nan,1204.3879767633625,nan,nan,nan,nan
1,145,1,1,1.0,1.0,0.3641131522017531,0,0.0,0.0,0.0,0.4160187592856925,0.1945153678975348,0.2215033913881577,0.6105341271832273,0.1945153678975348,0.42357113790543127,2,7,8,6,3,1,nan,nan,nan,nan,nan,nan,nan,nan,nan,nan,nan,nan,0.0,nan,nan,nan,nan,nan,nan,nan,nan,nan,nan,nan,nan,nan,nan,nan,nan,nan,nan,887.3287794528296,1204.8238920069416,nan,1205.1880051591434,nan,nan,nan,nan
1,146,1,1,1.0,1.0,0.2509649163694121,0,0.0,0.0,0.0,0.41555114120385517,0.19369928951859156,0.2218518516852636,0.6092504307224467,0.19369928951859156,0.39865038109322387,5,6,7,8,2,3,nan,nan,nan,nan,nan,nan,nan,nan,nan,nan,nan,nan,0.0,nan,nan,nan,nan,nan,nan,nan,nan,nan,nan,nan,nan,nan,nan,nan,nan,nan,nan,887.3287794528296,1205.8490265877335,nan,1206.099991504103,nan,nan,nan,nan
1,147,1,1,1.0,1.0,0.0021462225122377276,1,1.0,0.0,1.0,0.4140816213392619,0.19345315511400796,0.22062846622525395,0.6075347764532699,0.19345315511400796,0.20574143036113432,8,3,0,1,6,4,1.0,1.0,1.0,1.0,1.0,1.0,0.0,0.0,0.0,0.0,0.0,0.0,0.0,7.0,6.0,1.0,6.0,1.0,2.0,4.0,5.0,6.0,1.0,2.0,3.0,7.4930344701278955,8.413609696552157,9.541072734922636,4.638696209702175,5.5094826657441445,6.772854219365399,887.3287794528296,1206.8741588877747,1207.6825860043173,1206.876305110287,1218.2672868132358,1219.2740701650619,1208.6910557145602,1218.2589533801074
1,148,1,1,nan,nan,nan,0,0.0,0.0,0.0,0.0,0.0,0.0,0.0,0.0,0.0,2,6,3,5,7,1,nan,nan,nan,nan,nan,nan,nan,nan,nan,nan,nan,nan,0.0,nan,nan,nan,nan,nan,nan,nan,nan,nan,nan,nan,nan,nan,nan,nan,nan,nan,nan,887.3287794528296,1219.492517871433,nan,nan,nan,nan,nan,nan
1,149,1,1,1.0,1.0,0.27013580390485004,0,0.0,0.0,0.0,0.41043617533194315,0.19642132081502103,0.21401485451692212,0.6068574961469642,0.19642132081502103,0.13614101320854388,3,7,4,2,1,6,nan,nan,nan,nan,nan,nan,nan,nan,nan,nan,nan,nan,0.0,nan,nan,nan,nan,nan,nan,nan,nan,nan,nan,nan,nan,nan,nan,nan,nan,nan,nan,887.3287794528296,1220.5176470353617,nan,1220.7877828392666,nan,nan,nan,nan
1,150,1,1,1.0,1.0,0.556922223418951,0,0.0,0.0,0.0,0.4092054703194248,0.19599504136771034,0.21321042895171444,0.6052005116871351,0.19599504136771034,0.41352901366190054,8,0,1,4,5,2,nan,nan,nan,nan,nan,nan,nan,nan,nan,nan,nan,nan,0.0,nan,nan,nan,nan,nan,nan,nan,nan,nan,nan,nan,nan,nan,nan,nan,nan,nan,nan,887.3287794528296,1221.5427884585224,nan,1222.0997106819414,nan,nan,nan,nan
1,151,1,1,1.0,1.0,0.25982036505592987,0,0.0,0.0,0.0,0.41048996382463804,0.19562237156182968,0.21486759226280835,0.6061123353864677,0.19562237156182968,0.36229279745991033,3,6,7,5,2,8,nan,nan,nan,nan,nan,nan,nan,nan,nan,nan,nan,nan,0.0,nan,nan,nan,nan,nan,nan,nan,nan,nan,nan,nan,nan,nan,nan,nan,nan,nan,nan,887.3287794528296,1222.5679304518853,nan,1222.8277508169413,nan,nan,nan,nan
1,152,1,1,1.0,1.0,0.6265971938264556,0,0.0,0.0,0.0,0.40919108797318365,0.19527475198023506,0.2139163359929486,0.6044658399534187,0.19527475198023506,0.4811132607671122,8,2,0,3,4,6,nan,nan,nan,nan,nan,nan,nan,nan,nan,nan,nan,nan,0.0,nan,nan,nan,nan,nan,nan,nan,nan,nan,nan,nan,nan,nan,nan,nan,nan,nan,nan,887.3287794528296,1223.5930878405925,nan,1224.219685034419,nan,nan,nan,nan
1,153,1,1,1.0,1.0,0.3295016076299362,0,0.0,0.0,0.0,0.41104925981808343,0.1954656936088958,0.21558356620918764,0.6065149534269793,0.1954656936088958,0.4053063888374406,6,3,5,1,8,2,nan,nan,nan,nan,nan,nan,nan,nan,nan,nan,nan,nan,0.0,nan,nan,nan,nan,nan,nan,nan,nan,nan,nan,nan,nan,nan,nan,nan,nan,nan,nan,887.3287794528296,1224.6182090218063,nan,1224.9477106294362,nan,nan,nan,nan
1,154,1,1,1.0,1.0,0.296686754678376,0,0.0,0.0,0.0,0.4103581780198788,0.19477918041882128,0.2155789976010575,0.6051373584387001,0.19477918041882128,0.41759518537825596,1,4,6,7,0,3,nan,nan,nan,nan,nan,nan,nan,nan,nan,nan,nan,nan,0.0,nan,nan,nan,nan,nan,nan,nan,nan,nan,nan,nan,nan,nan,nan,nan,nan,nan,nan,887.3287794528296,1225.6350064632134,nan,1225.9316932178917,nan,nan,nan,nan
1,155,1,1,1.0,1.0,0.5995210913242772,0,0.0,0.0,0.0,0.4094029559749922,0.1942364116082849,0.21516654436670732,0.6036393675832771,0.1942364116082849,0.40856981787752983,5,3,4,0,1,2,nan,nan,nan,nan,nan,nan,nan,nan,nan,nan,nan,nan,0.0,nan,nan,nan,nan,nan,nan,nan,nan,nan,nan,nan,nan,nan,nan,nan,nan,nan,nan,887.3287794528296,1226.6601555840462,nan,1227.2596766753704,nan,nan,nan,nan
1,156,1,1,1.0,1.0,0.6626969532226212,0,0.0,0.0,0.0,0.41098727376956956,0.19419599089547154,0.21679128287409802,0.6051832646650411,0.19419599089547154,0.5196349330750915,1,4,5,6,0,3,nan,nan,nan,nan,nan,nan,nan,nan,nan,nan,nan,nan,0.0,nan,nan,nan,nan,nan,nan,nan,nan,nan,nan,nan,nan,nan,nan,nan,nan,nan,nan,887.3287794528296,1227.6769624337321,nan,1228.3396593869547,nan,nan,nan,nan
1,157,1,1,1.0,1.0,0.685551600297913,1,0.0,1.0,1.0,0.41306751905430555,0.19472982110295478,0.21833769795135077,0.6077973401572603,0.19472982110295478,0.6492565482816038,3,1,2,4,6,0,1.0,1.0,1.0,1.0,1.0,1.0,1.0,0.0,0.0,0.0,0.0,0.0,1.0,3.0,6.0,0.0,1.0,3.0,4.0,4.0,2.0,1.0,3.0,5.0,6.0,6.824698836018797,4.193918104807381,3.312377158086747,5.600298555276822,8.36805891734548,9.296083485998679,887.3287794528296,1228.7020935933106,1229.51050559961,1229.3876451936085,1239.870218539494,1240.8797699140268,1230.5356467377278,1239.8618908083881
1,158,1,1,nan,nan,nan,0,0.0,0.0,0.0,0.0,0.0,0.0,0.0,0.0,0.0,4,5,6,7,1,8,nan,nan,nan,nan,nan,nan,nan,nan,nan,nan,nan,nan,0.0,nan,nan,nan,nan,nan,nan,nan,nan,nan,nan,nan,nan,nan,nan,nan,nan,nan,nan,887.3287794528296,1241.103766495129,nan,nan,nan,nan,nan,nan
1,159,1,1,1.0,1.0,0.5945327204535715,0,0.0,0.0,0.0,0.41530099513007285,0.19548013773355322,0.21982085739651963,0.6107811328636261,0.19548013773355322,0.6400421603757422,2,0,8,1,7,3,nan,nan,nan,nan,nan,nan,nan,nan,nan,nan,nan,nan,0.0,nan,nan,nan,nan,nan,nan,nan,nan,nan,nan,nan,nan,nan,nan,nan,nan,nan,nan,887.3287794528296,1242.1288902421948,nan,1242.7234229626483,nan,nan,nan,nan
1,160,1,1,1.0,1.0,0.44141365587711334,0,0.0,0.0,0.0,0.4167581636286379,0.1953480512540006,0.22141011237463729,0.6121062148826385,0.1953480512540006,0.5179731881653424,7,8,4,0,1,2,nan,nan,nan,nan,nan,nan,nan,nan,nan,nan,nan,nan,0.0,nan,nan,nan,nan,nan,nan,nan,nan,nan,nan,nan,nan,nan,nan,nan,nan,nan,nan,887.3287794528296,1243.1540288143442,nan,1243.5954424702213,nan,nan,nan,nan
1,161,1,1,1.0,1.0,0.2162635657005012,0,0.0,0.0,0.0,0.41695699824354493,0.19457125964223923,0.2223857386013057,0.6115282578857841,0.19457125964223923,0.4174033140103954,2,6,3,5,0,7,nan,nan,nan,nan,nan,nan,nan,nan,nan,nan,nan,nan,0.0,nan,nan,nan,nan,nan,nan,nan,nan,nan,nan,nan,nan,nan,nan,nan,nan,nan,nan,887.3287794528296,1244.1791599739809,nan,1244.3954235396814,nan,nan,nan,nan
1,162,1,1,1.0,1.0,0.2314513401943259,0,0.0,0.0,0.0,0.41535145078320057,0.19461437851920754,0.22073707226399303,0.6099658293024082,0.19461437851920754,0.29637618725731346,5,8,0,6,4,1,nan,nan,nan,nan,nan,nan,nan,nan,nan,nan,nan,nan,0.0,nan,nan,nan,nan,nan,nan,nan,nan,nan,nan,nan,nan,nan,nan,nan,nan,nan,nan,887.3287794528296,1245.1959534240304,nan,1245.4274047642248,nan,nan,nan,nan
1,163,0,0,1.0,0.0,0.11028384987730533,0,0.0,0.0,0.0,0.4138919260959873,0.19452619248140496,0.21936573361458234,0.6084181185773923,0.19452619248140496,0.18599958525737748,3,7,6,0,5,2,nan,nan,nan,nan,nan,nan,nan,nan,nan,nan,nan,nan,0.0,nan,nan,nan,nan,nan,nan,nan,nan,nan,nan,nan,nan,nan,nan,nan,nan,nan,nan,887.3287794528296,1246.2210982684046,nan,1246.331382118282,nan,nan,nan,nan
1,164,1,1,1.0,1.0,0.7331097589922138,0,0.0,0.0,0.0,0.4115013113226118,0.19560822645692638,0.21589308486568543,0.6071095377795381,0.19560822645692638,0.35828164968794834,4,5,2,3,8,1,nan,nan,nan,nan,nan,nan,nan,nan,nan,nan,nan,nan,0.0,nan,nan,nan,nan,nan,nan,nan,nan,nan,nan,nan,nan,nan,nan,nan,nan,nan,nan,887.3287794528296,1247.2462299981853,nan,1247.9793397571775,nan,nan,nan,nan
1,165,1,1,1.0,1.0,0.6519792402395979,0,0.0,0.0,0.0,0.4140138773200306,0.196889312374218,0.2171245649458126,0.6109031896942486,0.196889312374218,0.49845761636970565,2,3,8,7,0,6,nan,nan,nan,nan,nan,nan,nan,nan,nan,nan,nan,nan,0.0,nan,nan,nan,nan,nan,nan,nan,nan,nan,nan,nan,nan,nan,nan,nan,nan,nan,nan,887.3287794528296,1248.271383395535,nan,1248.9233626357745,nan,nan,nan,nan
1,166,1,1,1.0,1.0,0.4431453449651599,0,0.0,0.0,0.0,0.4158585700558412,0.1972320065943218,0.2186265634615194,0.613090576650163,0.1972320065943218,0.6094114480656572,6,8,3,0,1,4,nan,nan,nan,nan,nan,nan,nan,nan,nan,nan,nan,nan,0.0,nan,nan,nan,nan,nan,nan,nan,nan,nan,nan,nan,nan,nan,nan,nan,nan,nan,nan,887.3287794528296,1249.2881876793108,nan,1249.731333024276,nan,nan,nan,nan
1,167,0,0,nan,nan,nan,0,0.0,0.0,0.0,0.0,0.0,0.0,0.0,0.0,0.0,3,5,1,6,7,8,nan,nan,nan,nan,nan,nan,nan,nan,nan,nan,nan,nan,0.0,nan,nan,nan,nan,nan,nan,nan,nan,nan,nan,nan,nan,nan,nan,nan,nan,nan,nan,887.3287794528296,1250.3133094306686,nan,nan,nan,nan,nan,nan
1,168,1,1,0.0,0.0,0.15284679539036006,0,0.0,0.0,0.0,0.4160684683243744,0.19648642058171426,0.21958204774266013,0.6125548889060887,0.19648642058171426,0.29799607017776,5,4,3,1,8,6,nan,nan,nan,nan,nan,nan,nan,nan,nan,nan,nan,nan,0.0,nan,nan,nan,nan,nan,nan,nan,nan,nan,nan,nan,nan,nan,nan,nan,nan,nan,nan,887.3287794528296,1251.3384346032399,nan,1251.4912813986302,nan,nan,nan,nan
1,169,1,1,1.0,1.0,0.7036756056477316,0,0.0,0.0,0.0,0.4140591425767865,0.1970712178494137,0.2169879247273728,0.6111303604262002,0.1970712178494137,0.4282612005190458,8,2,7,0,3,1,nan,nan,nan,nan,nan,nan,nan,nan,nan,nan,nan,nan,0.0,nan,nan,nan,nan,nan,nan,nan,nan,nan,nan,nan,nan,nan,nan,nan,nan,nan,nan,887.3287794528296,1252.3635854346794,nan,1253.0672610403271,nan,nan,nan,nan
1,170,0,0,0.0,1.0,0.6545687912148423,0,0.0,0.0,0.0,0.41625320669096033,0.19792288368741065,0.21833032300354968,0.614176090378371,0.19792288368741065,0.5036970640843114,2,1,0,8,7,5,nan,nan,nan,nan,nan,nan,nan,nan,nan,nan,nan,nan,0.0,nan,nan,nan,nan,nan,nan,nan,nan,nan,nan,nan,nan,nan,nan,nan,nan,nan,nan,887.3287794528296,1253.3887177346624,nan,1254.0432865258772,nan,nan,nan,nan
1,171,1,1,1.0,1.0,0.38941252004588023,0,0.0,0.0,0.0,0.4180450531911399,0.19824919865359497,0.2197958545375449,0.6162942518447349,0.19824919865359497,0.5825523056361513,4,0,5,2,6,1,nan,nan,nan,nan,nan,nan,nan,nan,nan,nan,nan,nan,0.0,nan,nan,nan,nan,nan,nan,nan,nan,nan,nan,nan,nan,nan,nan,nan,nan,nan,nan,887.3287794528296,1254.4138523155125,nan,1254.8032648355584,nan,nan,nan,nan
1,172,1,1,1.0,1.0,0.6766297236317769,0,0.0,0.0,0.0,0.41783137757065286,0.19752344954051373,0.22030792803013913,0.6153548271111666,0.19752344954051373,0.5735370116308331,7,6,4,5,2,8,nan,nan,nan,nan,nan,nan,nan,nan,nan,nan,nan,nan,0.0,nan,nan,nan,nan,nan,nan,nan,nan,nan,nan,nan,nan,nan,nan,nan,nan,nan,nan,887.3287794528296,1255.4306258085999,nan,1256.1072555322316,nan,nan,nan,nan
1,173,1,1,0.0,0.0,0.41977010789560154,0,0.0,0.0,0.0,0.41974840235629085,0.198037767048004,0.22171063530828686,0.6177861694042949,0.198037767048004,0.49527078385775286,1,3,6,8,0,5,nan,nan,nan,nan,nan,nan,nan,nan,nan,nan,nan,nan,0.0,nan,nan,nan,nan,nan,nan,nan,nan,nan,nan,nan,nan,nan,nan,nan,nan,nan,nan,887.3287794528296,1256.4474791293615,nan,1256.867249237257,nan,nan,nan,nan
1,174,1,1,1.0,1.0,0.050951117533259094,0,0.0,0.0,0.0,0.4197485619558446,0.1973083437051524,0.22244021825069218,0.617056905660997,0.1973083437051524,0.3824503163535458,6,8,4,2,3,0,nan,nan,nan,nan,nan,nan,nan,nan,nan,nan,nan,nan,0.0,nan,nan,nan,nan,nan,nan,nan,nan,nan,nan,nan,nan,nan,nan,nan,nan,nan,nan,887.3287794528296,1257.4642640264356,nan,1257.5152151439688,nan,nan,nan,nan
1,175,1,1,1.0,1.0,0.3617955854278989,0,0.0,0.0,0.0,0.4170566098067746,0.19907776401860594,0.21797884578816867,0.6161343738253806,0.19907776401860594,0.27750560361891985,7,2,3,5,6,1,nan,nan,nan,nan,nan,nan,nan,nan,nan,nan,nan,nan,0.0,nan,nan,nan,nan,nan,nan,nan,nan,nan,nan,nan,nan,nan,nan,nan,nan,nan,nan,887.3287794528296,1258.4894028837443,nan,1258.8511984691722,nan,nan,nan,nan
1,176,1,1,nan,nan,nan,0,0.0,0.0,0.0,0.0,0.0,0.0,0.0,0.0,0.0,8,3,4,6,5,0,nan,nan,nan,nan,nan,nan,nan,nan,nan,nan,nan,nan,0.0,nan,nan,nan,nan,nan,nan,nan,nan,nan,nan,nan,nan,nan,nan,nan,nan,nan,nan,887.3287794528296,1259.5145485833636,nan,nan,nan,nan,nan,nan
1,177,1,1,1.0,1.0,0.6154566795448773,0,0.0,0.0,0.0,0.4166561676011306,0.1984105252533289,0.21824564234780172,0.6150666928544595,0.1984105252533289,0.4886261324863881,5,1,0,8,7,6,nan,nan,nan,nan,nan,nan,nan,nan,nan,nan,nan,nan,0.0,nan,nan,nan,nan,nan,nan,nan,nan,nan,nan,nan,nan,nan,nan,nan,nan,nan,nan,887.3287794528296,1260.539699129702,nan,1261.155155809247,nan,nan,nan,nan
1,178,1,1,1.0,1.0,0.4703534481814131,0,0.0,0.0,0.0,0.4180863871115173,0.1984081788698009,0.2196782082417164,0.6164945659813181,0.1984081788698009,0.5429050638631452,1,8,6,0,4,5,nan,nan,nan,nan,nan,nan,nan,nan,nan,nan,nan,nan,0.0,nan,nan,nan,nan,nan,nan,nan,nan,nan,nan,nan,nan,nan,nan,nan,nan,nan,nan,887.3287794528296,1261.56483314035,nan,1262.0351865885314,nan,nan,nan,nan
1,179,1,1,1.0,1.0,0.3895379634341225,0,0.0,0.0,0.0,0.4184597232620165,0.19774730066764143,0.2207124225943751,0.616207023929658,0.19774730066764143,0.49178269705347094,3,4,7,2,8,1,nan,nan,nan,nan,nan,nan,nan,nan,nan,nan,nan,nan,0.0,nan,nan,nan,nan,nan,nan,nan,nan,nan,nan,nan,nan,nan,nan,nan,nan,nan,nan,887.3287794528296,1262.5816049228888,nan,1262.971142886323,nan,nan,nan,nan
1,180,1,1,1.0,1.0,0.3403647209634073,0,0.0,0.0,0.0,0.4182546043979889,0.19705976745342343,0.22119483694456546,0.6153143718514124,0.19705976745342343,0.4000853775263143,8,1,3,7,5,6,nan,nan,nan,nan,nan,nan,nan,nan,nan,nan,nan,nan,0.0,nan,nan,nan,nan,nan,nan,nan,nan,nan,nan,nan,nan,nan,nan,nan,nan,nan,nan,887.3287794528296,1263.6067665880546,nan,1263.947131309018,nan,nan,nan,nan
1,181,1,1,1.0,1.0,0.3472253345535137,0,0.0,0.0,0.0,0.4177060840921116,0.19647266115483317,0.2212334229372784,0.6141787452469447,0.19647266115483317,0.35904267298368114,2,0,4,6,7,3,nan,nan,nan,nan,nan,nan,nan,nan,nan,nan,nan,nan,0.0,nan,nan,nan,nan,nan,nan,nan,nan,nan,nan,nan,nan,nan,nan,nan,nan,nan,nan,887.3287794528296,1264.6319005986443,nan,1264.9791259331978,nan,nan,nan,nan
1,182,1,1,1.0,1.0,0.2980920058907941,0,0.0,0.0,0.0,0.4172132117177158,0.19587256333390687,0.22134064838380893,0.6130857750516227,0.19587256333390687,0.328560687135905,5,8,2,3,4,0,nan,nan,nan,nan,nan,nan,nan,nan,nan,nan,nan,nan,0.0,nan,nan,nan,nan,nan,nan,nan,nan,nan,nan,nan,nan,nan,nan,nan,nan,nan,nan,887.3287794528296,1265.657006954716,nan,1265.9550989606068,nan,nan,nan,nan
1,183,1,1,1.0,1.0,0.1289159010630101,0,0.0,0.0,0.0,0.4163859811216955,0.19544177261527107,0.22094420850642443,0.6118277537369665,0.19544177261527107,0.258077747169106,8,3,6,1,7,4,nan,nan,nan,nan,nan,nan,nan,nan,nan,nan,nan,nan,0.0,nan,nan,nan,nan,nan,nan,nan,nan,nan,nan,nan,nan,nan,nan,nan,nan,nan,nan,887.3287794528296,1266.6821683347807,nan,1266.8110842358437,nan,nan,nan,nan
1,184,1,1,nan,nan,nan,0,0.0,0.0,0.0,0.0,0.0,0.0,0.0,0.0,0.0,7,2,0,4,5,3,nan,nan,nan,nan,nan,nan,nan,nan,nan,nan,nan,nan,0.0,nan,nan,nan,nan,nan,nan,nan,nan,nan,nan,nan,nan,nan,nan,nan,nan,nan,nan,887.3287794528296,1267.6989672016934,nan,nan,nan,nan,nan,nan
1,185,1,1,1.0,1.0,0.6949093927978538,0,0.0,0.0,0.0,0.4144034288454287,0.19621429481510277,0.21818913403032592,0.6106177236605315,0.19621429481510277,0.41191264693043195,1,3,5,0,4,8,nan,nan,nan,nan,nan,nan,nan,nan,nan,nan,nan,nan,0.0,nan,nan,nan,nan,nan,nan,nan,nan,nan,nan,nan,nan,nan,nan,nan,nan,nan,nan,887.3287794528296,1268.7241037781932,nan,1269.419013170991,nan,nan,nan,nan
1,186,1,1,1.0,1.0,0.5657962035038508,1,0.0,1.0,1.0,0.41632470257113025,0.19690502270484428,0.21941967986628597,0.6132297252759745,0.19690502270484428,0.6303527981508523,6,4,8,7,1,2,1.0,1.0,1.0,1.0,1.0,1.0,0.0,0.0,0.0,0.0,0.0,0.0,0.0,5.0,2.0,6.0,3.0,4.0,7.0,4.0,5.0,6.0,1.0,3.0,2.0,8.505502973857801,9.568779475637712,10.8244277072954,4.306488160742447,7.146747680322733,5.576804432028439,887.3287794528296,1269.749242635502,1270.55766861164,1270.3150388390059,1282.4342539738864,1283.4360027688672,1271.5744689040002,1282.42591854505
1,187,1,1,1.0,1.0,0.6153848347021267,0,0.0,0.0,0.0,0.41734151550264537,0.19661837735524057,0.2207231381474048,0.613959892857886,0.19661837735524057,0.6253634770012771,3,8,1,2,5,0,nan,nan,nan,nan,nan,nan,nan,nan,nan,nan,nan,nan,0.0,nan,nan,nan,nan,nan,nan,nan,nan,nan,nan,nan,nan,nan,nan,nan,nan,nan,nan,887.3287794528296,1283.6594582327525,nan,1284.2748430674546,nan,nan,nan,nan
1,188,1,1,1.0,1.0,0.4305243134731427,0,0.0,0.0,0.0,0.41867964603777696,0.19662348668850457,0.2220561593492724,0.6153031327262816,0.19662348668850457,0.5372351172263734,4,3,8,6,0,7,nan,nan,nan,nan,nan,nan,nan,nan,nan,nan,nan,nan,0.0,nan,nan,nan,nan,nan,nan,nan,nan,nan,nan,nan,nan,nan,nan,nan,nan,nan,nan,887.3287794528296,1284.6762531083077,nan,1285.1067774217809,nan,nan,nan,nan
1,189,1,1,1.0,1.0,0.06144417281029746,0,0.0,0.0,0.0,0.4187591404500949,0.19596495185815138,0.2227941885919435,0.6147240923082462,0.19596495185815138,0.3691177736618556,0,2,4,8,5,1,nan,nan,nan,nan,nan,nan,nan,nan,nan,nan,nan,nan,0.0,nan,nan,nan,nan,nan,nan,nan,nan,nan,nan,nan,nan,nan,nan,nan,nan,nan,nan,887.3287794528296,1285.701363455737,nan,1285.7628076285473,nan,nan,nan,nan
1,190,1,1,1.0,1.0,0.4602626670966856,0,0.0,0.0,0.0,0.41637704066582953,0.19746324412998095,0.21891379653584858,0.6138402847958104,0.19746324412998095,0.31741038446004194,7,4,6,5,3,2,nan,nan,nan,nan,nan,nan,nan,nan,nan,nan,nan,nan,0.0,nan,nan,nan,nan,nan,nan,nan,nan,nan,nan,nan,nan,nan,nan,nan,nan,nan,nan,887.3287794528296,1286.7265117212664,nan,1287.1867743883631,nan,nan,nan,nan
1,191,1,1,1.0,1.0,0.3471204182715155,0,0.0,0.0,0.0,0.4166676739534511,0.19684049263961925,0.21982718131383186,0.6135081665930704,0.19684049263961925,0.28960908605949953,6,2,8,3,0,1,nan,nan,nan,nan,nan,nan,nan,nan,nan,nan,nan,nan,0.0,nan,nan,nan,nan,nan,nan,nan,nan,nan,nan,nan,nan,nan,nan,nan,nan,nan,nan,887.3287794528296,1287.751653144427,nan,1288.0987735626986,nan,nan,nan,nan
1,192,0,0,1.0,0.0,0.37030007771681994,0,0.0,0.0,0.0,0.4162101262187015,0.19627246955708164,0.21993765666161988,0.6124825957757831,0.19627246955708164,0.3925610543616737,4,6,3,7,2,5,nan,nan,nan,nan,nan,nan,nan,nan,nan,nan,nan,nan,0.0,nan,nan,nan,nan,nan,nan,nan,nan,nan,nan,nan,nan,nan,nan,nan,nan,nan,nan,887.3287794528296,1288.7684562878567,nan,1289.1387563655735,nan,nan,nan,nan
1,193,1,1,1.0,1.0,0.793121881375555,0,0.0,0.0,0.0,0.41591006054221863,0.19566498090333517,0.22024507963888346,0.6115750414455539,0.19566498090333517,0.5035141257879635,0,5,8,6,1,4,nan,nan,nan,nan,nan,nan,nan,nan,nan,nan,nan,nan,0.0,nan,nan,nan,nan,nan,nan,nan,nan,nan,nan,nan,nan,nan,nan,nan,nan,nan,nan,887.3287794528296,1289.7935928643565,nan,1290.586714745732,nan,nan,nan,nan
1,194,1,1,1.0,1.0,0.4719776551355608,0,0.0,0.0,0.0,0.4183594879502273,0.19736802053894262,0.2209914674112847,0.6157275084891699,0.19736802053894262,0.5451332047426453,6,3,2,4,7,5,nan,nan,nan,nan,nan,nan,nan,nan,nan,nan,nan,nan,0.0,nan,nan,nan,nan,nan,nan,nan,nan,nan,nan,nan,nan,nan,nan,nan,nan,nan,nan,887.3287794528296,1290.818733717315,nan,1291.2907113724505,nan,nan,nan,nan
1,195,1,1,1.0,1.0,0.32684876484563574,0,0.0,0.0,0.0,0.41870541160948754,0.19677714973403096,0.22192826187545658,0.6154825613435185,0.19677714973403096,0.5306494337855838,8,5,1,3,0,6,nan,nan,nan,nan,nan,nan,nan,nan,nan,nan,nan,nan,0.0,nan,nan,nan,nan,nan,nan,nan,nan,nan,nan,nan,nan,nan,nan,nan,nan,nan,nan,887.3287794528296,1291.8438665875583,nan,1292.170715352404,nan,nan,nan,nan
1,196,1,1,1.0,1.0,0.2697018837206997,0,0.0,0.0,0.0,0.4181165869507449,0.19628238403396123,0.22183420291678366,0.6143989709847061,0.19628238403396123,0.3561761012339654,4,1,3,0,6,2,nan,nan,nan,nan,nan,nan,nan,nan,nan,nan,nan,nan,0.0,nan,nan,nan,nan,nan,nan,nan,nan,nan,nan,nan,nan,nan,nan,nan,nan,nan,nan,887.3287794528296,1292.8689840624575,nan,1293.1386859461782,nan,nan,nan,nan
1,197,1,1,1.0,1.0,0.5165100619778968,0,0.0,0.0,0.0,0.41717127036966184,0.1960122089863082,0.22115906138335364,0.6131834793559701,0.1960122089863082,0.37102023684807744,0,5,8,6,2,3,nan,nan,nan,nan,nan,nan,nan,nan,nan,nan,nan,nan,0.0,nan,nan,nan,nan,nan,nan,nan,nan,nan,nan,nan,nan,nan,nan,nan,nan,nan,nan,887.3287794528296,1293.8941539954976,nan,1294.4106640574755,nan,nan,nan,nan
1,198,1,1,1.0,1.0,0.491374910925515,0,0.0,0.0,0.0,0.41779999689882785,0.19554968211736823,0.22225031478145962,0.6133496790161961,0.19554968211736823,0.4258622855413705,7,1,6,8,5,0,nan,nan,nan,nan,nan,nan,nan,nan,nan,nan,nan,nan,0.0,nan,nan,nan,nan,nan,nan,nan,nan,nan,nan,nan,nan,nan,nan,nan,nan,nan,nan,887.3287794528296,1294.9192840147298,nan,1295.4106589256553,nan,nan,nan,nan
1,199,1,1,nan,nan,nan,0,0.0,0.0,0.0,0.0,0.0,0.0,0.0,0.0,0.0,0,2,4,5,1,8,nan,nan,nan,nan,nan,nan,nan,nan,nan,nan,nan,nan,0.0,nan,nan,nan,nan,nan,nan,nan,nan,nan,nan,nan,nan,nan,nan,nan,nan,nan,nan,887.3287794528296,1295.9444185955217,nan,nan,nan,nan,nan,nan
1,200,1,1,1.0,1.0,0.12108395638642833,0,0.0,0.0,0.0,0.4182627322071718,0.19502053389877086,0.22324219830840095,0.6132832661059426,0.19502053389877086,0.30622943365597166,1,7,2,8,4,0,nan,nan,nan,nan,nan,nan,nan,nan,nan,nan,nan,nan,0.0,nan,nan,nan,nan,nan,nan,nan,nan,nan,nan,nan,nan,nan,nan,nan,nan,nan,nan,887.3287794528296,1296.969563724997,nan,1297.0906476813834,nan,nan,nan,nan
1,201,1,1,nan,nan,nan,0,0.0,0.0,0.0,0.0,0.0,0.0,0.0,0.0,0.0,8,3,4,2,7,6,nan,nan,nan,nan,nan,nan,nan,nan,nan,nan,nan,nan,0.0,nan,nan,nan,nan,nan,nan,nan,nan,nan,nan,nan,nan,nan,nan,nan,nan,nan,nan,887.3287794528296,1297.9946968802833,nan,nan,nan,nan,nan,nan
1,202,1,1,1.0,1.0,0.6147818510653451,0,0.0,0.0,0.0,0.41640536485829216,0.19581578761598595,0.2205895772423062,0.6122211524742781,0.19581578761598595,0.3679329037258867,4,2,3,7,0,5,nan,nan,nan,nan,nan,nan,nan,nan,nan,nan,nan,nan,0.0,nan,nan,nan,nan,nan,nan,nan,nan,nan,nan,nan,nan,nan,nan,nan,nan,nan,nan,887.3287794528296,1299.0198340269853,nan,1299.6346158780507,nan,nan,nan,nan
1,203,1,1,nan,nan,nan,0,0.0,0.0,0.0,0.0,0.0,0.0,0.0,0.0,0.0,7,3,1,4,5,8,nan,nan,nan,nan,nan,nan,nan,nan,nan,nan,nan,nan,0.0,nan,nan,nan,nan,nan,nan,nan,nan,nan,nan,nan,nan,nan,nan,nan,nan,nan,nan,887.3287794528296,1300.0449780160561,nan,nan,nan,nan,nan,nan
1,204,1,1,nan,nan,nan,0,0.0,0.0,0.0,0.0,0.0,0.0,0.0,0.0,0.0,1,8,3,7,4,6,nan,nan,nan,nan,nan,nan,nan,nan,nan,nan,nan,nan,0.0,nan,nan,nan,nan,nan,nan,nan,nan,nan,nan,nan,nan,nan,nan,nan,nan,nan,nan,887.3287794528296,1301.070109460794,nan,nan,nan,nan,nan,nan
1,205,1,1,1.0,1.0,0.7313116418663412,1,0.0,1.0,1.0,0.4176375169465347,0.19582791959606752,0.2218095973504672,0.6134654365426022,0.19582791959606752,0.7313116418663412,4,0,2,8,7,3,1.0,1.0,1.0,1.0,1.0,1.0,0.0,0.0,0.0,1.0,0.0,0.0,1.0,1.0,6.0,8.0,8.0,6.0,4.0,4.0,5.0,6.0,1.0,3.0,2.0,7.855245159182232,9.046949473151471,9.982383755326737,2.5685884595732205,5.903833664371632,4.096466544549912,887.3287794528296,1302.0952471776982,1302.903662605153,1302.8265588195645,1313.9301391452318,1314.9319309901912,1303.9121331706992,1313.9218037164537
1,206,1,1,nan,nan,nan,0,0.0,0.0,0.0,0.0,0.0,0.0,0.0,0.0,0.0,3,6,5,1,8,7,nan,nan,nan,nan,nan,nan,nan,nan,nan,nan,nan,nan,0.0,nan,nan,nan,nan,nan,nan,nan,nan,nan,nan,nan,nan,nan,nan,nan,nan,nan,nan,887.3287794528296,1315.1552960777772,nan,nan,nan,nan,nan,nan
1,207,1,1,nan,nan,nan,0,0.0,0.0,0.0,0.0,0.0,0.0,0.0,0.0,0.0,5,8,6,7,1,4,nan,nan,nan,nan,nan,nan,nan,nan,nan,nan,nan,nan,0.0,nan,nan,nan,nan,nan,nan,nan,nan,nan,nan,nan,nan,nan,nan,nan,nan,nan,nan,887.3287794528296,1316.1804680065252,nan,nan,nan,nan,nan,nan
1,208,1,1,nan,nan,nan,0,0.0,0.0,0.0,0.0,0.0,0.0,0.0,0.0,0.0,7,1,0,2,8,6,nan,nan,nan,nan,nan,nan,nan,nan,nan,nan,nan,nan,0.0,nan,nan,nan,nan,nan,nan,nan,nan,nan,nan,nan,nan,nan,nan,nan,nan,nan,nan,887.3287794528296,1317.2055960300495,nan,nan,nan,nan,nan,nan
1,209,1,1,1.0,1.0,0.7236002939753234,1,0.0,1.0,1.0,0.4195737769769039,0.19676244577635554,0.22281133120054836,0.6163362227532594,0.19676244577635554,0.7236002939753234,4,6,1,8,3,5,1.0,1.0,1.0,1.0,1.0,1.0,1.0,1.0,1.0,1.0,1.0,0.0,5.0,4.0,6.0,1.0,8.0,3.0,8.0,4.0,2.0,1.0,3.0,5.0,6.0,5.414045327284839,2.534912608738523,1.4413566361763515,3.743579436209984,8.287180710933171,9.526249886723235,887.3287794528296,1318.2307294704951,1319.039154876431,1318.9543297644705,1329.6322398660122,1330.6409185536322,1320.0643082737224,1329.6239078583894
1,210,1,1,nan,nan,nan,0,0.0,0.0,0.0,0.0,0.0,0.0,0.0,0.0,0.0,6,2,8,3,1,4,nan,nan,nan,nan,nan,nan,nan,nan,nan,nan,nan,nan,0.0,nan,nan,nan,nan,nan,nan,nan,nan,nan,nan,nan,nan,nan,nan,nan,nan,nan,nan,887.3287794528296,1330.8657732816064,nan,nan,nan,nan,nan,nan
1,211,1,1,1.0,1.0,0.1915663261897862,0,0.0,0.0,0.0,0.42143897033272243,0.19758929930846725,0.22384967102425518,0.6190282696411897,0.19758929930846725,0.4575833100825548,1,7,3,4,0,8,nan,nan,nan,nan,nan,nan,nan,nan,nan,nan,nan,nan,0.0,nan,nan,nan,nan,nan,nan,nan,nan,nan,nan,nan,nan,nan,nan,nan,nan,nan,nan,887.3287794528296,1331.8825630253414,nan,1332.0741293515312,nan,nan,nan,nan
1,212,1,1,1.0,1.0,0.7186965974979103,0,0.0,0.0,0.0,0.42003730786843624,0.19779714933064144,0.2222401585377948,0.6178344571990777,0.19779714933064144,0.45513146184384823,7,2,4,8,5,6,nan,nan,nan,nan,nan,nan,nan,nan,nan,nan,nan,nan,0.0,nan,nan,nan,nan,nan,nan,nan,nan,nan,nan,nan,nan,nan,nan,nan,nan,nan,nan,887.3287794528296,1332.8993732961826,nan,1333.6180698936805,nan,nan,nan,nan
1,213,1,1,1.0,1.0,0.5018899188144132,0,0.0,0.0,0.0,0.4218473641692209,0.1985545584989678,0.22329280567025311,0.6204019226681887,0.1985545584989678,0.4707176141673699,5,1,8,6,2,7,nan,nan,nan,nan,nan,nan,nan,nan,nan,nan,nan,nan,0.0,nan,nan,nan,nan,nan,nan,nan,nan,nan,nan,nan,nan,nan,nan,nan,nan,nan,nan,887.3287794528296,1333.9161804309697,nan,1334.418070349784,nan,nan,nan,nan
1,214,1,1,1.0,1.0,0.3330827316385694,0,0.0,0.0,0.0,0.42232954823334856,0.19805247282865715,0.2242770754046914,0.6203820210620057,0.19805247282865715,0.5178897493169643,3,7,0,8,1,2,nan,nan,nan,nan,nan,nan,nan,nan,nan,nan,nan,nan,0.0,nan,nan,nan,nan,nan,nan,nan,nan,nan,nan,nan,nan,nan,nan,nan,nan,nan,nan,887.3287794528296,1334.9329838594422,nan,1335.2660665910807,nan,nan,nan,nan
1,215,1,1,1.0,1.0,0.29991264577256516,0,0.0,0.0,0.0,0.42179513615793074,0.19757862242577606,0.22421651373215468,0.6193737585837068,0.19757862242577606,0.37829509874184925,6,8,2,1,3,0,nan,nan,nan,nan,nan,nan,nan,nan,nan,nan,nan,nan,0.0,nan,nan,nan,nan,nan,nan,nan,nan,nan,nan,nan,nan,nan,nan,nan,nan,nan,nan,887.3287794528296,1335.9581215763465,nan,1336.258034222119,nan,nan,nan,nan
1,216,1,1,1.0,1.0,0.07478365284623578,0,0.0,0.0,0.0,0.42106964514373213,0.19721269077166753,0.2238569543720646,0.6182823359153997,0.19721269077166753,0.23592634341912344,3,5,8,0,1,6,nan,nan,nan,nan,nan,nan,nan,nan,nan,nan,nan,nan,0.0,nan,nan,nan,nan,nan,nan,nan,nan,nan,nan,nan,nan,nan,nan,nan,nan,nan,nan,887.3287794528296,1336.9832669909229,nan,1337.058050643769,nan,nan,nan,nan
1,217,1,1,1.0,1.0,0.0739668452879414,1,1.0,0.0,1.0,0.4190206156035103,0.19841386525905222,0.22060675034445806,0.6174344808625625,0.19841386525905222,0.14955438130224744,7,2,0,6,4,8,1.0,1.0,1.0,1.0,1.0,1.0,1.0,1.0,1.0,1.0,0.0,1.0,5.0,7.0,2.0,0.0,6.0,1.0,8.0,4.0,2.0,1.0,3.0,5.0,6.0,4.965258450480178,2.8549418142647482,1.7438588328659534,3.861328878963832,6.676771987811662,7.613175890466664,887.3287794528296,1338.000062436622,1338.8084764386294,1338.07402928191,1347.4762966143317,1348.487087027519,1339.825282718055,1347.4679480710183
1,218,1,1,nan,nan,nan,0,0.0,0.0,0.0,0.0,0.0,0.0,0.0,0.0,0.0,1,7,6,2,0,3,nan,nan,nan,nan,nan,nan,nan,nan,nan,nan,nan,nan,0.0,nan,nan,nan,nan,nan,nan,nan,nan,nan,nan,nan,nan,nan,nan,nan,nan,nan,nan,887.3287794528296,1348.7098214769503,nan,nan,nan,nan,nan,nan
1,219,1,1,1.0,1.0,0.5068551967269741,0,0.0,0.0,0.0,0.4169908875428304,0.19958138845149104,0.2174094990913394,0.6165722759943215,0.19958138845149104,0.29041102100745775,6,4,8,0,5,2,nan,nan,nan,nan,nan,nan,nan,nan,nan,nan,nan,nan,0.0,nan,nan,nan,nan,nan,nan,nan,nan,nan,nan,nan,nan,nan,nan,nan,nan,nan,nan,887.3287794528296,1349.734942943207,nan,1350.241798139934,nan,nan,nan,nan
1,220,1,1,1.0,1.0,0.2577422811300494,0,0.0,0.0,0.0,0.4175164098187611,0.19911489194363574,0.21840151787512535,0.6166313017623968,0.19911489194363574,0.38229873892851174,4,1,3,6,8,0,nan,nan,nan,nan,nan,nan,nan,nan,nan,nan,nan,nan,0.0,nan,nan,nan,nan,nan,nan,nan,nan,nan,nan,nan,nan,nan,nan,nan,nan,nan,nan,887.3287794528296,1350.76008750248,nan,1351.01782978361,nan,nan,nan,nan
1,221,1,1,1.0,1.0,0.016590459796134382,0,0.0,0.0,0.0,0.41658749046591975,0.19890648626762292,0.21768100419829683,0.6154939767335427,0.19890648626762292,0.2603959792177193,6,0,8,1,5,7,nan,nan,nan,nan,nan,nan,nan,nan,nan,nan,nan,nan,0.0,nan,nan,nan,nan,nan,nan,nan,nan,nan,nan,nan,nan,nan,nan,nan,nan,nan,nan,887.3287794528296,1351.7852283554967,nan,1351.8018188152928,nan,nan,nan,nan
1,222,1,1,1.0,1.0,0.3997644515475258,0,0.0,0.0,0.0,0.4142753689013545,0.2006354746903351,0.21363989421101942,0.6149108435916897,0.2006354746903351,0.2246990641579032,7,8,1,4,2,6,nan,nan,nan,nan,nan,nan,nan,nan,nan,nan,nan,nan,0.0,nan,nan,nan,nan,nan,nan,nan,nan,nan,nan,nan,nan,nan,nan,nan,nan,nan,nan,887.3287794528296,1352.80203406472,nan,1353.2017985162674,nan,nan,nan,nan
1,223,1,1,1.0,1.0,0.2546355612576008,0,0.0,0.0,0.0,0.4141919728246084,0.20006111232123144,0.21413086050337696,0.6142530851458399,0.20006111232123144,0.223663490867087,2,3,5,1,6,7,nan,nan,nan,nan,nan,nan,nan,nan,nan,nan,nan,nan,0.0,nan,nan,nan,nan,nan,nan,nan,nan,nan,nan,nan,nan,nan,nan,nan,nan,nan,nan,887.3287794528296,1353.8271649392555,nan,1354.081800500513,nan,nan,nan,nan
1,224,1,1,1.0,1.0,0.21381656412268057,0,0.0,0.0,0.0,0.41328022190136837,0.19985089928193744,0.21342932261943093,0.6131311211833058,0.19985089928193744,0.2894055256426024,5,0,8,7,2,4,nan,nan,nan,nan,nan,nan,nan,nan,nan,nan,nan,nan,0.0,nan,nan,nan,nan,nan,nan,nan,nan,nan,nan,nan,nan,nan,nan,nan,nan,nan,nan,887.3287794528296,1354.8439598148107,nan,1355.0577763789333,nan,nan,nan,nan
1,225,0,0,1.0,0.0,0.1649825890781358,0,0.0,0.0,0.0,0.4121469056639894,0.19984548769465807,0.21230141796933136,0.6119923933586475,0.19984548769465807,0.21114490481947237,2,1,5,8,3,6,nan,nan,nan,nan,nan,nan,nan,nan,nan,nan,nan,nan,0.0,nan,nan,nan,nan,nan,nan,nan,nan,nan,nan,nan,nan,nan,nan,nan,nan,nan,nan,887.3287794528296,1355.8607723664027,nan,1356.0257549554808,nan,nan,nan,nan
1,226,1,1,1.0,1.0,0.5638170487945899,0,0.0,0.0,0.0,0.41075049709570777,0.2001393807060084,0.21061111638969937,0.6108898778017162,0.2001393807060084,0.3142054006651354,8,3,0,4,6,7,nan,nan,nan,nan,nan,nan,nan,nan,nan,nan,nan,nan,0.0,nan,nan,nan,nan,nan,nan,nan,nan,nan,nan,nan,nan,nan,nan,nan,nan,nan,nan,887.3287794528296,1356.8859009601874,nan,1357.449718008982,nan,nan,nan,nan
1,227,1,1,1.0,1.0,0.36266941274516284,0,0.0,0.0,0.0,0.4116104215434543,0.19990404068935985,0.21170638085409443,0.6115144622328141,0.19990404068935985,0.3638230168726295,0,4,1,7,3,6,nan,nan,nan,nan,nan,nan,nan,nan,nan,nan,nan,nan,0.0,nan,nan,nan,nan,nan,nan,nan,nan,nan,nan,nan,nan,nan,nan,nan,nan,nan,nan,887.3287794528296,1357.9110512214247,nan,1358.2737206341699,nan,nan,nan,nan
1,228,1,1,1.0,1.0,0.3529846120509319,0,0.0,0.0,0.0,0.4113370080864806,0.19937823992361503,0.21195876816286557,0.6107152480100957,0.19937823992361503,0.42649035786356154,5,1,2,0,4,7,nan,nan,nan,nan,nan,nan,nan,nan,nan,nan,nan,nan,0.0,nan,nan,nan,nan,nan,nan,nan,nan,nan,nan,nan,nan,nan,nan,nan,nan,nan,nan,887.3287794528296,1358.9287353195832,nan,1359.2817199316341,nan,nan,nan,nan
1,229,1,1,1.0,1.0,0.2887042780057527,0,0.0,0.0,0.0,0.41101282810850537,0.198870941718444,0.21214188639006137,0.6098837698269494,0.198870941718444,0.33478610093394917,6,2,4,5,1,3,nan,nan,nan,nan,nan,nan,nan,nan,nan,nan,nan,nan,0.0,nan,nan,nan,nan,nan,nan,nan,nan,nan,nan,nan,nan,nan,nan,nan,nan,nan,nan,887.3287794528296,1359.9529923668015,nan,1360.2416966448072,nan,nan,nan,nan
1,230,1,1,1.0,1.0,0.5355272813467309,0,0.0,0.0,0.0,0.41033709026263376,0.1985279249699275,0.21180916529270627,0.6088650152325612,0.1985279249699275,0.39240539046780515,3,7,0,2,4,5,nan,nan,nan,nan,nan,nan,nan,nan,nan,nan,nan,nan,0.0,nan,nan,nan,nan,nan,nan,nan,nan,nan,nan,nan,nan,nan,nan,nan,nan,nan,nan,887.3287794528296,1360.9781491853064,nan,1361.5136764666531,nan,nan,nan,nan
1,231,0,0,0.0,1.0,0.7264030986698344,0,0.0,0.0,0.0,0.41102494845540355,0.19819793173971145,0.2128270167156921,0.609222880195115,0.19819793173971145,0.5168782193407727,4,0,7,3,2,1,nan,nan,nan,nan,nan,nan,nan,nan,nan,nan,nan,nan,0.0,nan,nan,nan,nan,nan,nan,nan,nan,nan,nan,nan,nan,nan,nan,nan,nan,nan,nan,887.3287794528296,1362.0032575370278,nan,1362.7296606356977,nan,nan,nan,nan
1,232,1,1,1.0,1.0,0.6615768006886356,1,0.0,1.0,1.0,0.41274832632542774,0.1990183604741055,0.21372996585132223,0.6117666867995333,0.1990183604741055,0.6411690602350669,3,8,1,4,0,5,1.0,1.0,1.0,1.0,1.0,1.0,0.0,1.0,1.0,1.0,0.0,0.0,3.0,5.0,8.0,1.0,4.0,3.0,8.0,3.0,2.0,1.0,4.0,5.0,6.0,3.2103491945308633,2.225497910520062,1.2357836990850046,5.210025892651174,6.217093487852253,7.192978419770952,887.3287794528296,1363.0200843436178,1363.828491218097,1363.6816611443064,1372.0795807225513,1373.0879201427451,1364.8452701281058,1372.0712478596251
1,233,0,0,nan,nan,nan,0,0.0,0.0,0.0,0.0,0.0,0.0,0.0,0.0,0.0,5,1,0,2,7,6,nan,nan,nan,nan,nan,nan,nan,nan,nan,nan,nan,nan,0.0,nan,nan,nan,nan,nan,nan,nan,nan,nan,nan,nan,nan,nan,nan,nan,nan,nan,nan,887.3287794528296,1373.3131252569729,nan,nan,nan,nan,nan,nan
1,234,1,1,0.0,0.0,0.11925533378962427,0,0.0,0.0,0.0,0.4141006549904452,0.19931812348382638,0.2147825315066188,0.6134187784742715,0.19931812348382638,0.3904160672391299,4,2,3,0,6,5,nan,nan,nan,nan,nan,nan,nan,nan,nan,nan,nan,nan,0.0,nan,nan,nan,nan,nan,nan,nan,nan,nan,nan,nan,nan,nan,nan,nan,nan,nan,nan,887.3287794528296,1374.3382387404563,nan,1374.457494074246,nan,nan,nan,nan
1,235,1,1,1.0,1.0,0.6303961331723258,0,0.0,0.0,0.0,0.4125068964974678,0.1999508492501877,0.2125560472472801,0.6124577457476554,0.1999508492501877,0.37482573348097503,8,1,4,6,3,7,nan,nan,nan,nan,nan,nan,nan,nan,nan,nan,nan,nan,0.0,nan,nan,nan,nan,nan,nan,nan,nan,nan,nan,nan,nan,nan,nan,nan,nan,nan,nan,887.3287794528296,1375.355050151702,nan,1375.9854462848743,nan,nan,nan,nan
1,236,1,1,1.0,1.0,0.541254912968725,0,0.0,0.0,0.0,0.4136783440064724,0.20004816308642984,0.21363018092004257,0.6137265070929022,0.20004816308642984,0.4303021266435583,7,6,0,4,1,8,nan,nan,nan,nan,nan,nan,nan,nan,nan,nan,nan,nan,0.0,nan,nan,nan,nan,nan,nan,nan,nan,nan,nan,nan,nan,nan,nan,nan,nan,nan,nan,887.3287794528296,1376.3801955662784,nan,1376.9214504792471,nan,nan,nan,nan
1,237,1,1,1.0,1.0,0.3481179783702828,0,0.0,0.0,0.0,0.4143605716479818,0.1997293959413335,0.2146311757066483,0.6140899675893152,0.1997293959413335,0.5065896748371111,1,0,6,8,2,5,nan,nan,nan,nan,nan,nan,nan,nan,nan,nan,nan,nan,0.0,nan,nan,nan,nan,nan,nan,nan,nan,nan,nan,nan,nan,nan,nan,nan,nan,nan,nan,887.3287794528296,1377.4053361341357,nan,1377.753454112506,nan,nan,nan,nan
1,238,1,1,1.0,1.0,0.2589453973341733,0,0.0,0.0,0.0,0.41400821742841953,0.1992557595484171,0.21475245788000244,0.6132639769768367,0.1992557595484171,0.3827727628910604,8,3,2,1,5,4,nan,nan,nan,nan,nan,nan,nan,nan,nan,nan,nan,nan,0.0,nan,nan,nan,nan,nan,nan,nan,nan,nan,nan,nan,nan,nan,nan,nan,nan,nan,nan,887.3287794528296,1378.430488676182,nan,1378.6894340735162,nan,nan,nan,nan
1,239,1,1,1.0,1.0,0.20980978792067617,0,0.0,0.0,0.0,0.4131877792268627,0.19904606508391928,0.2141417141429434,0.612233844310782,0.19904606508391928,0.27229105454171076,7,2,3,5,4,8,nan,nan,nan,nan,nan,nan,nan,nan,nan,nan,nan,nan,0.0,nan,nan,nan,nan,nan,nan,nan,nan,nan,nan,nan,nan,nan,nan,nan,nan,nan,nan,887.3287794528296,1379.4556166997063,nan,1379.665426487627,nan,nan,nan,nan
1,240,1,1,1.0,1.0,0.2566609019995667,0,0.0,0.0,0.0,0.4121173687463038,0.19906623359831227,0.2130511351479915,0.611183602344616,0.19906623359831227,0.24180536241813874,8,3,7,6,2,1,nan,nan,nan,nan,nan,nan,nan,nan,nan,nan,nan,nan,0.0,nan,nan,nan,nan,nan,nan,nan,nan,nan,nan,nan,nan,nan,nan,nan,nan,nan,nan,887.3287794528296,1380.4807415871765,nan,1380.737402489176,nan,nan,nan,nan
1,241,1,1,1.0,1.0,0.26350555004319176,0,0.0,0.0,0.0,0.4113034605434413,0.1988611502754256,0.2124423102680157,0.610164610818867,0.1988611502754256,0.24332541332114488,7,4,0,1,6,5,nan,nan,nan,nan,nan,nan,nan,nan,nan,nan,nan,nan,0.0,nan,nan,nan,nan,nan,nan,nan,nan,nan,nan,nan,nan,nan,nan,nan,nan,nan,nan,887.3287794528296,1381.5058841507416,nan,1381.7693897007848,nan,nan,nan,nan
1,242,1,1,1.0,1.0,0.21431776753161103,0,0.0,0.0,0.0,0.4105336797595858,0.19862771466482076,0.21190596509476506,0.6091613944244065,0.19862771466482076,0.2448280731914565,4,6,2,5,1,3,nan,nan,nan,nan,nan,nan,nan,nan,nan,nan,nan,nan,0.0,nan,nan,nan,nan,nan,nan,nan,nan,nan,nan,nan,nan,nan,nan,nan,nan,nan,nan,887.3287794528296,1382.5310532284784,nan,1382.74537099601,nan,nan,nan,nan
1,243,1,1,1.0,1.0,0.26913795864675194,0,0.0,0.0,0.0,0.40951701700192794,0.19861269171822948,0.21090432528369846,0.6081297087201574,0.19861269171822948,0.24898709207385158,1,4,7,8,2,0,nan,nan,nan,nan,nan,nan,nan,nan,nan,nan,nan,nan,0.0,nan,nan,nan,nan,nan,nan,nan,nan,nan,nan,nan,nan,nan,nan,nan,nan,nan,nan,887.3287794528296,1383.5562280082377,nan,1383.8253659668844,nan,nan,nan,nan
1,244,1,1,1.0,1.0,0.31603782455204055,0,0.0,0.0,0.0,0.40879341360834454,0.19835503879255523,0.2104383748157893,0.6071484524008998,0.19835503879255523,0.26649785024346784,2,5,0,4,1,6,nan,nan,nan,nan,nan,nan,nan,nan,nan,nan,nan,nan,0.0,nan,nan,nan,nan,nan,nan,nan,nan,nan,nan,nan,nan,nan,nan,nan,nan,nan,nan,887.3287794528296,1384.5812921696925,nan,1384.8973299942445,nan,nan,nan,nan
1,245,1,1,1.0,1.0,0.07522954716114327,0,0.0,0.0,0.0,0.40831774392087633,0.19795668307151632,0.21036106084936002,0.6062744269923926,0.19795668307151632,0.22013511011997858,1,8,2,6,7,4,nan,nan,nan,nan,nan,nan,nan,nan,nan,nan,nan,nan,0.0,nan,nan,nan,nan,nan,nan,nan,nan,nan,nan,nan,nan,nan,nan,nan,nan,nan,nan,887.3287794528296,1385.598093602457,nan,1385.6733231496182,nan,nan,nan,nan
1,246,0,0,1.0,0.0,0.2660720079438761,0,0.0,0.0,0.0,0.40661831434557155,0.1988720376138716,0.20774627673169996,0.6054903519594431,0.1988720376138716,0.2191131265523533,0,1,5,8,3,2,nan,nan,nan,nan,nan,nan,nan,nan,nan,nan,nan,nan,0.0,nan,nan,nan,nan,nan,nan,nan,nan,nan,nan,nan,nan,nan,nan,nan,nan,nan,nan,887.3287794528296,1386.6232236216892,nan,1386.8892956296331,nan,nan,nan,nan
1,247,1,1,1.0,1.0,0.5128818967496045,0,0.0,0.0,0.0,0.4059048813181518,0.1986179419644245,0.20728693935372727,0.6045228232825763,0.1986179419644245,0.2847278172848746,3,2,8,7,6,1,nan,nan,nan,nan,nan,nan,nan,nan,nan,nan,nan,nan,0.0,nan,nan,nan,nan,nan,nan,nan,nan,nan,nan,nan,nan,nan,nan,nan,nan,nan,nan,887.3287794528296,1387.64836504485,nan,1388.1612469415995,nan,nan,nan,nan
1,248,1,1,1.0,1.0,0.3357620885944925,0,0.0,0.0,0.0,0.4064451692748763,0.19826082704285178,0.2081843422320245,0.604705996317728,0.19826082704285178,0.3715719977626577,8,7,0,1,4,5,nan,nan,nan,nan,nan,nan,nan,nan,nan,nan,nan,nan,0.0,nan,nan,nan,nan,nan,nan,nan,nan,nan,nan,nan,nan,nan,nan,nan,nan,nan,nan,887.3287794528296,1388.6735030468553,nan,1389.0092651354498,nan,nan,nan,nan
1,249,1,1,1.0,1.0,0.21492730837780982,0,0.0,0.0,0.0,0.4060899779146734,0.19782520314329607,0.2082647747713773,0.6039151810579695,0.19782520314329607,0.35452376457396895,2,6,8,7,5,3,nan,nan,nan,nan,nan,nan,nan,nan,nan,nan,nan,nan,0.0,nan,nan,nan,nan,nan,nan,nan,nan,nan,nan,nan,nan,nan,nan,nan,nan,nan,nan,887.3287794528296,1389.6903184495168,nan,1389.9052457578946,nan,nan,nan,nan
1,250,1,1,1.0,1.0,0.24580463103484362,0,0.0,0.0,0.0,0.40513416456698903,0.1977901392781238,0.20734402528886522,0.6029243038451129,0.1977901392781238,0.2654980093357153,8,4,0,2,7,5,nan,nan,nan,nan,nan,nan,nan,nan,nan,nan,nan,nan,0.0,nan,nan,nan,nan,nan,nan,nan,nan,nan,nan,nan,nan,nan,nan,nan,nan,nan,nan,887.3287794528296,1390.7154384902678,nan,1390.9612431213027,nan,nan,nan,nan
1,251,1,1,1.0,1.0,0.1246553870732896,1,1.0,0.0,1.0,0.4043414803205605,0.19761573145951705,0.20672574886104345,0.6019572117800776,0.19761573145951705,0.19512910882864767,2,7,3,4,6,8,1.0,1.0,1.0,1.0,1.0,1.0,1.0,1.0,1.0,0.0,0.0,1.0,4.0,2.0,7.0,3.0,3.0,3.0,8.0,3.0,2.0,1.0,6.0,5.0,4.0,3.1596044883481227,2.135960973391775,0.9770515555283055,7.303577588696498,6.439815392892342,4.151606046129018,887.3287794528296,1391.740566228691,1392.5489953409415,1391.8652216157643,1400.9084479857702,1401.9163204143988,1393.5657674085815,1400.9001165483496
1,252,1,1,nan,nan,nan,0,0.0,0.0,0.0,0.0,0.0,0.0,0.0,0.0,0.0,4,3,7,8,5,0,nan,nan,nan,nan,nan,nan,nan,nan,nan,nan,nan,nan,0.0,nan,nan,nan,nan,nan,nan,nan,nan,nan,nan,nan,nan,nan,nan,nan,nan,nan,nan,887.3287794528296,1402.1419648656156,nan,nan,nan,nan,nan,nan
1,253,1,1,1.0,1.0,0.2339345493237488,0,0.0,0.0,0.0,0.40295689570052445,0.19810094065516354,0.20485595504536092,0.601057836355688,0.19810094065516354,0.1792949681985192,5,7,2,1,6,3,nan,nan,nan,nan,nan,nan,nan,nan,nan,nan,nan,nan,0.0,nan,nan,nan,nan,nan,nan,nan,nan,nan,nan,nan,nan,nan,nan,nan,nan,nan,nan,887.3287794528296,1403.1671014421154,nan,1403.4010359914391,nan,nan,nan,nan
1,254,0,0,1.0,0.0,0.35310634918278083,0,0.0,0.0,0.0,0.4021242733045798,0.19796641408998902,0.20415785921459076,0.6000906873945688,0.19796641408998902,0.2935204492532648,7,8,3,2,4,6,nan,nan,nan,nan,nan,nan,nan,nan,nan,nan,nan,nan,0.0,nan,nan,nan,nan,nan,nan,nan,nan,nan,nan,nan,nan,nan,nan,nan,nan,nan,nan,887.3287794528296,1404.1839117129566,nan,1404.5370180621394,nan,nan,nan,nan
1,255,1,1,0.0,0.0,0.09599128511035815,0,0.0,0.0,0.0,0.4018839893628062,0.19751027900178364,0.2043737103610226,0.5993942683645899,0.19751027900178364,0.2276773945389626,0,7,5,1,3,2,nan,nan,nan,nan,nan,nan,nan,nan,nan,nan,nan,nan,0.0,nan,nan,nan,nan,nan,nan,nan,nan,nan,nan,nan,nan,nan,nan,nan,nan,nan,nan,887.3287794528296,1405.209039736481,nan,1405.3050310215913,nan,nan,nan,nan
1,256,1,1,nan,nan,nan,0,0.0,0.0,0.0,0.0,0.0,0.0,0.0,0.0,0.0,5,3,4,8,0,1,nan,nan,nan,nan,nan,nan,nan,nan,nan,nan,nan,nan,0.0,nan,nan,nan,nan,nan,nan,nan,nan,nan,nan,nan,nan,nan,nan,nan,nan,nan,nan,887.3287794528296,1406.2342122354312,nan,nan,nan,nan,nan,nan
1,257,1,1,1.0,1.0,0.637687245674897,0,0.0,0.0,0.0,0.4003918298298675,0.19817726986048778,0.2022145599693797,0.5985690996903552,0.19817726986048778,0.36683926539262757,6,5,0,3,1,2,nan,nan,nan,nan,nan,nan,nan,nan,nan,nan,nan,nan,0.0,nan,nan,nan,nan,nan,nan,nan,nan,nan,nan,nan,nan,nan,nan,nan,nan,nan,nan,887.3287794528296,1407.2593148851884,nan,1407.8970021308633,nan,nan,nan,nan
1,258,0,0,0.0,1.0,0.6528439444373362,0,0.0,0.0,0.0,0.40154374932426085,0.19838245129781693,0.20316129802644392,0.5999262006220778,0.19838245129781693,0.6452655950561166,2,1,3,4,6,5,nan,nan,nan,nan,nan,nan,nan,nan,nan,nan,nan,nan,0.0,nan,nan,nan,nan,nan,nan,nan,nan,nan,nan,nan,nan,nan,nan,nan,nan,nan,nan,887.3287794528296,1408.2761251560296,nan,1408.928969100467,nan,nan,nan,nan
1,259,1,1,1.0,1.0,0.4677037414512597,0,0.0,0.0,0.0,0.4027577599286718,0.19866826773800222,0.20408949219066957,0.6014260276666741,0.19866826773800222,0.5860783105211643,3,2,6,5,7,1,nan,nan,nan,nan,nan,nan,nan,nan,nan,nan,nan,nan,0.0,nan,nan,nan,nan,nan,nan,nan,nan,nan,nan,nan,nan,nan,nan,nan,nan,nan,nan,887.3287794528296,1409.3012711408082,nan,1409.7689748822595,nan,nan,nan,nan
1,260,1,1,1.0,1.0,0.5388475400395691,0,0.0,0.0,0.0,0.4030700002244535,0.19824103174992666,0.20482896847452683,0.6013110319743802,0.19824103174992666,0.553131741976055,0,3,8,4,5,6,nan,nan,nan,nan,nan,nan,nan,nan,nan,nan,nan,nan,0.0,nan,nan,nan,nan,nan,nan,nan,nan,nan,nan,nan,nan,nan,nan,nan,nan,nan,nan,887.3287794528296,1410.3180834073573,nan,1410.856930947397,nan,nan,nan,nan
1,261,1,1,1.0,1.0,0.3700631607789546,0,0.0,0.0,0.0,0.4037196535250043,0.19798802243991476,0.20573163108508952,0.601707675964919,0.19798802243991476,0.4588714807565945,1,4,6,8,0,3,nan,nan,nan,nan,nan,nan,nan,nan,nan,nan,nan,nan,0.0,nan,nan,nan,nan,nan,nan,nan,nan,nan,nan,nan,nan,nan,nan,nan,nan,nan,nan,887.3287794528296,1411.334875431843,nan,1411.704938592622,nan,nan,nan,nan
1,262,1,1,1.0,1.0,0.4572329238872044,0,0.0,0.0,0.0,0.40355938451192785,0.1975296491863309,0.20602973532559696,0.6010890336982587,0.1975296491863309,0.4553812082352427,4,1,3,0,7,6,nan,nan,nan,nan,nan,nan,nan,nan,nan,nan,nan,nan,0.0,nan,nan,nan,nan,nan,nan,nan,nan,nan,nan,nan,nan,nan,nan,nan,nan,nan,nan,887.3287794528296,1412.351676864666,nan,1412.8089097885531,nan,nan,nan,nan
1,263,1,1,1.0,1.0,0.40809246769640595,0,0.0,0.0,0.0,0.40381376147579173,0.19709548868347626,0.20671827279231547,0.600909250159268,0.19709548868347626,0.411796184120855,2,6,8,4,3,0,nan,nan,nan,nan,nan,nan,nan,nan,nan,nan,nan,nan,0.0,nan,nan,nan,nan,nan,nan,nan,nan,nan,nan,nan,nan,nan,nan,nan,nan,nan,nan,887.3287794528296,1413.3768094498082,nan,1413.7849019175046,nan,nan,nan,nan
1,264,1,1,1.0,1.0,0.3509453015285544,0,0.0,0.0,0.0,0.40383394405230405,0.19663030991883124,0.2072036341334728,0.6004642539711353,0.19663030991883124,0.4054235643707216,1,7,6,2,8,4,nan,nan,nan,nan,nan,nan,nan,nan,nan,nan,nan,nan,0.0,nan,nan,nan,nan,nan,nan,nan,nan,nan,nan,nan,nan,nan,nan,nan,nan,nan,nan,887.3287794528296,1414.4019500176655,nan,1414.752895319194,nan,nan,nan,nan
1,265,1,1,1.0,1.0,0.3578173191053793,0,0.0,0.0,0.0,0.40358564056627705,0.19620150580143816,0.20738413476483888,0.5997871463677152,0.19620150580143816,0.37228502944344655,6,8,4,5,3,1,nan,nan,nan,nan,nan,nan,nan,nan,nan,nan,nan,nan,0.0,nan,nan,nan,nan,nan,nan,nan,nan,nan,nan,nan,nan,nan,nan,nan,nan,nan,nan,887.3287794528296,1415.4270774709876,nan,1415.784894790093,nan,nan,nan,nan
1,266,1,1,1.0,1.0,0.3166351062245667,0,0.0,0.0,0.0,0.4033717699052448,0.19576743936976335,0.20760433053548147,0.5991392092750082,0.19576743936976335,0.3417992422861668,0,4,5,2,8,3,nan,nan,nan,nan,nan,nan,nan,nan,nan,nan,nan,nan,0.0,nan,nan,nan,nan,nan,nan,nan,nan,nan,nan,nan,nan,nan,nan,nan,nan,nan,nan,887.3287794528296,1416.4522191793076,nan,1416.7688542855321,nan,nan,nan,nan
1,267,1,1,1.0,1.0,0.30782156699569896,0,0.0,0.0,0.0,0.402968343562544,0.1954007781862317,0.20756756537631232,0.5983691217487757,0.1954007781862317,0.3274246641085483,3,1,7,5,2,8,nan,nan,nan,nan,nan,nan,nan,nan,nan,nan,nan,nan,0.0,nan,nan,nan,nan,nan,nan,nan,nan,nan,nan,nan,nan,nan,nan,nan,nan,nan,nan,887.3287794528296,1417.4690303054522,nan,1417.7768518724479,nan,nan,nan,nan
1,268,0,0,1.0,0.0,0.2826599018299021,0,0.0,0.0,0.0,0.4025278492265864,0.19505490421702845,0.20747294500955796,0.5975827534436149,0.19505490421702845,0.30237219168338925,2,6,0,3,7,5,nan,nan,nan,nan,nan,nan,nan,nan,nan,nan,nan,nan,0.0,nan,nan,nan,nan,nan,nan,nan,nan,nan,nan,nan,nan,nan,nan,nan,nan,nan,nan,887.3287794528296,1418.4941637458396,nan,1418.7768236476695,nan,nan,nan,nan
1,269,1,1,1.0,1.0,0.4578202270786278,0,0.0,0.0,0.0,0.40197546237222376,0.19477421518737728,0.20720124718484648,0.5967496775596011,0.19477421518737728,0.34943389863474295,8,3,1,0,4,6,nan,nan,nan,nan,nan,nan,nan,nan,nan,nan,nan,nan,0.0,nan,nan,nan,nan,nan,nan,nan,nan,nan,nan,nan,nan,nan,nan,nan,nan,nan,nan,887.3287794528296,1419.51096917002,nan,1419.9687893970986,nan,nan,nan,nan
1,270,1,1,1.0,1.0,0.3207145826308988,0,0.0,0.0,0.0,0.402231631017666,0.19436360782003373,0.20786802319763228,0.5965952388376997,0.19436360782003373,0.3537315705131429,0,7,4,6,2,1,nan,nan,nan,nan,nan,nan,nan,nan,nan,nan,nan,nan,0.0,nan,nan,nan,nan,nan,nan,nan,nan,nan,nan,nan,nan,nan,nan,nan,nan,nan,nan,887.3287794528296,1420.5360980488476,nan,1420.8568126314785,nan,nan,nan,nan
1,271,1,1,1.0,1.0,0.2955398028716445,0,0.0,0.0,0.0,0.4018594070524296,0.1939972097943378,0.20786219725809182,0.5958566168467674,0.1939972097943378,0.35802487086039037,6,3,7,1,0,2,nan,nan,nan,nan,nan,nan,nan,nan,nan,nan,nan,nan,0.0,nan,nan,nan,nan,nan,nan,nan,nan,nan,nan,nan,nan,nan,nan,nan,nan,nan,nan,887.3287794528296,1421.561245744233,nan,1421.8567855471047,nan,nan,nan,nan
1,272,1,1,1.0,1.0,0.3187114796019159,0,0.0,0.0,0.0,0.40137613612433515,0.19368788610696722,0.20768825001736793,0.5950640222313024,0.19368788610696722,0.3116552883681531,3,7,5,0,8,4,nan,nan,nan,nan,nan,nan,nan,nan,nan,nan,nan,nan,0.0,nan,nan,nan,nan,nan,nan,nan,nan,nan,nan,nan,nan,nan,nan,nan,nan,nan,nan,887.3287794528296,1422.5780568703776,nan,1422.8967683499795,nan,nan,nan,nan
1,273,1,1,1.0,1.0,0.317577927489765,0,0.0,0.0,0.0,0.4010020879047767,0.1933288047897785,0.2076732831149982,0.5943308926945552,0.1933288047897785,0.3106097366544418,5,2,0,6,7,3,nan,nan,nan,nan,nan,nan,nan,nan,nan,nan,nan,nan,0.0,nan,nan,nan,nan,nan,nan,nan,nan,nan,nan,nan,nan,nan,nan,nan,nan,nan,nan,887.3287794528296,1423.603180617385,nan,1423.9207585448748,nan,nan,nan,nan
1,274,1,1,1.0,1.0,0.3804381851805374,0,0.0,0.0,0.0,0.40062630339840277,0.19297376654219836,0.2076525368562044,0.5936000699406011,0.19297376654219836,0.3389091974240728,3,8,4,1,2,6,nan,nan,nan,nan,nan,nan,nan,nan,nan,nan,nan,nan,0.0,nan,nan,nan,nan,nan,nan,nan,nan,nan,nan,nan,nan,nan,nan,nan,nan,nan,nan,887.3287794528296,1424.6282892542658,nan,1425.0087274394464,nan,nan,nan,nan
1,275,1,1,1.0,1.0,0.37927783373743296,0,0.0,0.0,0.0,0.40053577372029575,0.19254532851452075,0.207990445205775,0.5930811022348165,0.19254532851452075,0.35909798213591176,4,5,8,2,3,0,nan,nan,nan,nan,nan,nan,nan,nan,nan,nan,nan,nan,0.0,nan,nan,nan,nan,nan,nan,nan,nan,nan,nan,nan,nan,nan,nan,nan,nan,nan,nan,887.3287794528296,1425.6534577618004,nan,1426.0327355955378,nan,nan,nan,nan
1,276,1,1,1.0,1.0,0.3304353057174012,0,0.0,0.0,0.0,0.4004408722025151,0.19212028610268858,0.20832058609982654,0.5925611583052037,0.19212028610268858,0.3633837748784572,3,1,4,5,8,7,nan,nan,nan,nan,nan,nan,nan,nan,nan,nan,nan,nan,0.0,nan,nan,nan,nan,nan,nan,nan,nan,nan,nan,nan,nan,nan,nan,nan,nan,nan,nan,887.3287794528296,1426.6702606200706,nan,1427.000695925788,nan,nan,nan,nan
1,277,1,1,1.0,1.0,0.32131015369668603,0,0.0,0.0,0.0,0.40012973635147014,0.1917494287229557,0.20838030762851445,0.5918791650744258,0.1917494287229557,0.3436744310505067,0,8,3,1,4,5,nan,nan,nan,nan,nan,nan,nan,nan,nan,nan,nan,nan,0.0,nan,nan,nan,nan,nan,nan,nan,nan,nan,nan,nan,nan,nan,nan,nan,nan,nan,nan,887.3287794528296,1427.6953900691005,nan,1428.0167002227972,nan,nan,nan,nan
1,278,1,1,1.0,1.0,0.24819546821527183,0,0.0,0.0,0.0,0.3997809771361835,0.19139624151416929,0.2083847356220142,0.5911772186503528,0.19139624151416929,0.29998030920978636,5,6,1,7,8,2,nan,nan,nan,nan,nan,nan,nan,nan,nan,nan,nan,nan,0.0,nan,nan,nan,nan,nan,nan,nan,nan,nan,nan,nan,nan,nan,nan,nan,nan,nan,nan,887.3287794528296,1428.7204949996667,nan,1428.968690467882,nan,nan,nan,nan
1,279,1,1,1.0,1.0,0.37500591576099396,0,0.0,0.0,0.0,0.39911319956384467,0.19123787280857563,0.20787532675526904,0.5903510723724203,0.19123787280857563,0.31483717922431725,7,3,6,5,2,1,nan,nan,nan,nan,nan,nan,nan,nan,nan,nan,nan,nan,0.0,nan,nan,nan,nan,nan,nan,nan,nan,nan,nan,nan,nan,nan,nan,nan,nan,nan,nan,887.3287794528296,1429.745654954284,nan,1430.120660870045,nan,nan,nan,nan
1,280,0,0,1.0,0.0,0.1978593083913438,0,0.0,0.0,0.0,0.399007465862955,0.19082468025296345,0.20818278560999154,0.5898321461159184,0.19082468025296345,0.2736868974558699,1,6,8,3,0,4,nan,nan,nan,nan,nan,nan,nan,nan,nan,nan,nan,nan,0.0,nan,nan,nan,nan,nan,nan,nan,nan,nan,nan,nan,nan,nan,nan,nan,nan,nan,nan,887.3287794528296,1430.7707878244692,nan,1430.9686471328605,nan,nan,nan,nan
1,281,1,1,1.0,1.0,0.6046537220245227,0,0.0,0.0,0.0,0.3981290896294545,0.1908689536133876,0.20726013601606688,0.5889980432428421,0.1908689536133876,0.3925063153922868,2,3,4,7,1,6,nan,nan,nan,nan,nan,nan,nan,nan,nan,nan,nan,nan,0.0,nan,nan,nan,nan,nan,nan,nan,nan,nan,nan,nan,nan,nan,nan,nan,nan,nan,nan,887.3287794528296,1431.7959335241467,nan,1432.4005872461712,nan,nan,nan,nan
1,282,1,1,1.0,1.0,0.5558479717001319,0,0.0,0.0,0.0,0.3990270228137809,0.19093768884922993,0.20808933396455095,0.5899647116630108,0.19093768884922993,0.4527870007053328,3,4,5,1,0,8,nan,nan,nan,nan,nan,nan,nan,nan,nan,nan,nan,nan,0.0,nan,nan,nan,nan,nan,nan,nan,nan,nan,nan,nan,nan,nan,nan,nan,nan,nan,nan,887.3287794528296,1432.8127497820533,nan,1433.3685977537534,nan,nan,nan,nan
