block,trial,freq_trials,correct_response,actual_response,acc,rts,probe_trials,trials_colorind0,trials_colorind1,trials_colorind2,trials_colorind3,trials_colorind4,trials_colorind5,wholereport_resp0,wholereport_resp1,wholereport_resp2,wholereport_resp3,wholereport_resp4,wholereport_resp5,wholereport_respacc0,wholereport_respacc1,wholereport_respacc2,wholereport_respacc3,wholereport_respacc4,wholereport_respacc5,wholereport_respacc_total,wholereport_respcolorind0,wholereport_respcolorind1,wholereport_respcolorind2,wholereport_respcolorind3,wholereport_respcolorind4,wholereport_respcolorind5,wholereport_resporder0,wholereport_resporder1,wholereport_resporder2,wholereport_resporder3,wholereport_resporder4,wholereport_resporder5,wholereport_rts0,wholereport_rts1,wholereport_rts2,wholereport_rts3,wholereport_rts4,wholereport_rts5,time_blockstart,time_encarray_offset,time_encarray_onset,time_response,time_iti_offset,time_iti_onset,time_memprobe_offset,time_memprobe_onset
1,1,1,1,1.0,1.0,0.5999052910483442,0.0,4,6,2,1,8,7,nan,nan,nan,nan,nan,nan,nan,nan,nan,nan,nan,nan,0.0,nan,nan,nan,nan,nan,nan,nan,nan,nan,nan,nan,nan,nan,nan,nan,nan,nan,nan,195.56192276912043,196.57796285592485,nan,197.1778681469732,nan,nan,nan,nan
1,2,1,1,1.0,1.0,0.3113476586295292,0.0,1,6,2,5,3,0,nan,nan,nan,nan,nan,nan,nan,nan,nan,nan,nan,nan,0.0,nan,nan,nan,nan,nan,nan,nan,nan,nan,nan,nan,nan,nan,nan,nan,nan,nan,nan,195.56192276912043,197.58653712650994,nan,197.89788478513947,nan,nan,nan,nan
1,3,1,1,1.0,1.0,0.27893335215048864,0.0,0,5,6,4,7,2,nan,nan,nan,nan,nan,nan,nan,nan,nan,nan,nan,nan,0.0,nan,nan,nan,nan,nan,nan,nan,nan,nan,nan,nan,nan,nan,nan,nan,nan,nan,nan,195.56192276912043,198.59488160948968,nan,198.87381496164016,nan,nan,nan,nan
1,4,1,1,1.0,1.0,0.48646576690953225,0.0,1,2,3,6,8,7,nan,nan,nan,nan,nan,nan,nan,nan,nan,nan,nan,nan,0.0,nan,nan,nan,nan,nan,nan,nan,nan,nan,nan,nan,nan,nan,nan,nan,nan,nan,nan,195.56192276912043,199.60332701652078,nan,200.0897927834303,nan,nan,nan,nan
1,5,1,1,1.0,1.0,0.6539931867737323,0.0,4,8,7,3,0,6,nan,nan,nan,nan,nan,nan,nan,nan,nan,nan,nan,nan,0.0,nan,nan,nan,nan,nan,nan,nan,nan,nan,nan,nan,nan,nan,nan,nan,nan,nan,nan,195.56192276912043,200.61177983606467,nan,201.2657730228384,nan,nan,nan,nan
1,6,1,1,nan,nan,nan,0.0,3,6,1,2,8,0,nan,nan,nan,nan,nan,nan,nan,nan,nan,nan,nan,nan,0.0,nan,nan,nan,nan,nan,nan,nan,nan,nan,nan,nan,nan,nan,nan,nan,nan,nan,nan,195.56192276912043,201.6202557484503,nan,nan,nan,nan,nan,nan
1,7,1,1,1.0,1.0,0.5653271037735976,0.0,7,3,5,6,2,1,nan,nan,nan,nan,nan,nan,nan,nan,nan,nan,nan,nan,0.0,nan,nan,nan,nan,nan,nan,nan,nan,nan,nan,nan,nan,nan,nan,nan,nan,nan,nan,195.56192276912043,202.62038546724943,nan,203.18571257102303,nan,nan,nan,nan
1,8,1,1,1.0,1.0,0.7491782812867314,0.0,3,5,1,8,7,2,nan,nan,nan,nan,nan,nan,nan,nan,nan,nan,nan,nan,0.0,nan,nan,nan,nan,nan,nan,nan,nan,nan,nan,nan,nan,nan,nan,nan,nan,nan,nan,195.56192276912043,203.62050492258277,nan,204.3696832038695,nan,nan,nan,nan
1,9,1,1,nan,nan,nan,0.0,1,8,4,2,3,5,nan,nan,nan,nan,nan,nan,nan,nan,nan,nan,nan,nan,0.0,nan,nan,nan,nan,nan,nan,nan,nan,nan,nan,nan,nan,nan,nan,nan,nan,nan,nan,195.56192276912043,204.6289708566037,nan,nan,nan,nan,nan,nan
1,10,1,1,1.0,1.0,0.3642378649674356,0.0,3,7,6,5,8,0,nan,nan,nan,nan,nan,nan,nan,nan,nan,nan,nan,nan,0.0,nan,nan,nan,nan,nan,nan,nan,nan,nan,nan,nan,nan,nan,nan,nan,nan,nan,nan,195.56192276912043,205.6373985876562,nan,206.00163645262364,nan,nan,nan,nan
1,11,1,1,1.0,1.0,0.35607042675837874,0.0,0,1,4,6,5,2,nan,nan,nan,nan,nan,nan,nan,nan,nan,nan,nan,nan,0.0,nan,nan,nan,nan,nan,nan,nan,nan,nan,nan,nan,nan,nan,nan,nan,nan,nan,nan,195.56192276912043,206.6375667944667,nan,206.99363722122507,nan,nan,nan,nan
1,12,1,1,1.0,1.0,0.28361377777764574,0.0,3,0,1,7,8,5,nan,nan,nan,nan,nan,nan,nan,nan,nan,nan,nan,nan,0.0,nan,nan,nan,nan,nan,nan,nan,nan,nan,nan,nan,nan,nan,nan,nan,nan,nan,nan,195.56192276912043,207.6459970914293,nan,207.92961086920695,nan,nan,nan,nan
1,13,0,0,nan,nan,nan,1.0,7,1,5,2,6,3,1.0,1.0,1.0,1.0,1.0,1.0,0.0,1.0,1.0,0.0,0.0,0.0,2.0,3.0,1.0,5.0,8.0,7.0,0.0,3.0,2.0,1.0,4.0,5.0,6.0,5.438533384934999,4.103972331969999,2.558619358576834,6.566742321709171,7.349715060554445,8.269522038928699,195.56192276912043,208.65445447253296,209.4628589397762,nan,218.79733075754484,219.80095689714653,210.48799587861868,218.78899995918619
1,14,1,1,1.0,1.0,0.7074746827129275,0.0,3,0,8,4,1,2,nan,nan,nan,nan,nan,nan,nan,nan,nan,nan,nan,nan,0.0,nan,nan,nan,nan,nan,nan,nan,nan,nan,nan,nan,nan,nan,nan,nan,nan,nan,nan,195.56192276912043,220.00584390352014,nan,220.71331858623307,nan,nan,nan,nan
1,15,1,1,1.0,1.0,0.25899742473848164,0.0,0,5,2,1,7,3,nan,nan,nan,nan,nan,nan,nan,nan,nan,nan,nan,nan,0.0,nan,nan,nan,nan,nan,nan,nan,nan,nan,nan,nan,nan,nan,nan,nan,nan,nan,nan,195.56192276912043,221.01429814851144,nan,221.27329557324992,nan,nan,nan,nan
1,16,1,1,1.0,1.0,0.26649659720715135,0.0,2,6,7,8,5,4,nan,nan,nan,nan,nan,nan,nan,nan,nan,nan,nan,nan,0.0,nan,nan,nan,nan,nan,nan,nan,nan,nan,nan,nan,nan,nan,nan,nan,nan,nan,nan,195.56192276912043,222.02276037627598,nan,222.28925697348313,nan,nan,nan,nan
1,17,1,1,1.0,1.0,0.29003870754968375,0.0,8,0,5,4,6,3,nan,nan,nan,nan,nan,nan,nan,nan,nan,nan,nan,nan,0.0,nan,nan,nan,nan,nan,nan,nan,nan,nan,nan,nan,nan,nan,nan,nan,nan,nan,nan,195.56192276912043,223.0312097746646,nan,223.3212484822143,nan,nan,nan,nan
1,18,1,1,1.0,1.0,0.27356299362145364,0.0,5,1,3,6,8,0,nan,nan,nan,nan,nan,nan,nan,nan,nan,nan,nan,nan,0.0,nan,nan,nan,nan,nan,nan,nan,nan,nan,nan,nan,nan,nan,nan,nan,nan,nan,nan,195.56192276912043,224.03966344951186,nan,224.31322644313332,nan,nan,nan,nan
1,19,1,1,1.0,1.0,0.24905725789722055,0.0,0,3,8,4,2,7,nan,nan,nan,nan,nan,nan,nan,nan,nan,nan,nan,nan,0.0,nan,nan,nan,nan,nan,nan,nan,nan,nan,nan,nan,nan,nan,nan,nan,nan,nan,nan,195.56192276912043,225.04813223448582,nan,225.29718949238304,nan,nan,nan,nan
1,20,0,0,1.0,0.0,0.2725751349935308,0.0,2,5,4,0,7,1,nan,nan,nan,nan,nan,nan,nan,nan,nan,nan,nan,nan,0.0,nan,nan,nan,nan,nan,nan,nan,nan,nan,nan,nan,nan,nan,nan,nan,nan,nan,nan,195.56192276912043,226.0565899006906,nan,226.32916503568413,nan,nan,nan,nan
1,21,1,1,1.0,1.0,0.4880785566056147,0.0,8,7,2,6,0,5,nan,nan,nan,nan,nan,nan,nan,nan,nan,nan,nan,nan,0.0,nan,nan,nan,nan,nan,nan,nan,nan,nan,nan,nan,nan,nan,nan,nan,nan,nan,nan,195.56192276912043,227.06505840050522,nan,227.55313695711084,nan,nan,nan,nan
1,22,1,1,1.0,1.0,0.3996382698533125,0.0,5,3,8,4,1,2,nan,nan,nan,nan,nan,nan,nan,nan,nan,nan,nan,nan,0.0,nan,nan,nan,nan,nan,nan,nan,nan,nan,nan,nan,nan,nan,nan,nan,nan,nan,nan,195.56192276912043,228.0734881272656,nan,228.4731263971189,nan,nan,nan,nan
1,23,1,1,1.0,1.0,0.3031354603590444,0.0,6,8,3,2,4,5,nan,nan,nan,nan,nan,nan,nan,nan,nan,nan,nan,nan,0.0,nan,nan,nan,nan,nan,nan,nan,nan,nan,nan,nan,nan,nan,nan,nan,nan,nan,nan,195.56192276912043,229.0819637545501,nan,229.38509921490913,nan,nan,nan,nan
1,24,1,1,1.0,1.0,0.3586556797963567,0.0,8,1,7,3,0,6,nan,nan,nan,nan,nan,nan,nan,nan,nan,nan,nan,nan,0.0,nan,nan,nan,nan,nan,nan,nan,nan,nan,nan,nan,nan,nan,nan,nan,nan,nan,nan,195.56192276912043,230.09041828470072,nan,230.44907396449707,nan,nan,nan,nan
1,25,0,0,0.0,1.0,0.4861695519066416,0.0,6,8,4,7,5,0,nan,nan,nan,nan,nan,nan,nan,nan,nan,nan,nan,nan,0.0,nan,nan,nan,nan,nan,nan,nan,nan,nan,nan,nan,nan,nan,nan,nan,nan,nan,nan,195.56192276912043,231.0988850739668,nan,231.58505462587345,nan,nan,nan,nan
1,26,1,1,nan,nan,nan,0.0,5,1,3,4,8,2,nan,nan,nan,nan,nan,nan,nan,nan,nan,nan,nan,nan,0.0,nan,nan,nan,nan,nan,nan,nan,nan,nan,nan,nan,nan,nan,nan,nan,nan,nan,nan,195.56192276912043,232.10732335364446,nan,nan,nan,nan,nan,nan
1,27,1,1,1.0,1.0,0.42120437778066844,0.0,0,5,4,1,7,8,nan,nan,nan,nan,nan,nan,nan,nan,nan,nan,nan,nan,0.0,nan,nan,nan,nan,nan,nan,nan,nan,nan,nan,nan,nan,nan,nan,nan,nan,nan,nan,195.56192276912043,233.1157907131128,nan,233.53699509089347,nan,nan,nan,nan
1,28,0,0,0.0,1.0,0.43678888079011813,0.0,1,2,7,4,3,6,nan,nan,nan,nan,nan,nan,nan,nan,nan,nan,nan,nan,0.0,nan,nan,nan,nan,nan,nan,nan,nan,nan,nan,nan,nan,nan,nan,nan,nan,nan,nan,195.56192276912043,234.12424296245445,nan,234.56103184324456,nan,nan,nan,nan
1,29,1,1,1.0,1.0,0.5082571009988897,0.0,6,3,8,2,4,0,nan,nan,nan,nan,nan,nan,nan,nan,nan,nan,nan,nan,0.0,nan,nan,nan,nan,nan,nan,nan,nan,nan,nan,nan,nan,nan,nan,nan,nan,nan,nan,195.56192276912043,235.13270604546415,nan,235.64096314646304,nan,nan,nan,nan
1,30,1,1,1.0,1.0,0.30778081907192245,0.0,4,8,5,7,3,2,nan,nan,nan,nan,nan,nan,nan,nan,nan,nan,nan,nan,0.0,nan,nan,nan,nan,nan,nan,nan,nan,nan,nan,nan,nan,nan,nan,nan,nan,nan,nan,195.56192276912043,236.14116228622152,nan,236.44894310529344,nan,nan,nan,nan
1,31,1,1,1.0,1.0,0.29931117891101167,0.0,2,4,8,6,5,7,nan,nan,nan,nan,nan,nan,nan,nan,nan,nan,nan,nan,0.0,nan,nan,nan,nan,nan,nan,nan,nan,nan,nan,nan,nan,nan,nan,nan,nan,nan,nan,195.56192276912043,237.14960284659173,nan,237.44891402550275,nan,nan,nan,nan
1,32,1,1,1.0,1.0,0.37079821538645774,0.0,7,5,6,8,0,2,nan,nan,nan,nan,nan,nan,nan,nan,nan,nan,nan,nan,0.0,nan,nan,nan,nan,nan,nan,nan,nan,nan,nan,nan,nan,nan,nan,nan,nan,nan,nan,195.56192276912043,238.15808246523375,nan,238.5288806806202,nan,nan,nan,nan
1,33,1,1,1.0,1.0,0.29835724673466757,0.0,2,8,7,1,5,3,nan,nan,nan,nan,nan,nan,nan,nan,nan,nan,nan,nan,0.0,nan,nan,nan,nan,nan,nan,nan,nan,nan,nan,nan,nan,nan,nan,nan,nan,nan,nan,195.56192276912043,239.16651789390016,nan,239.46487514063483,nan,nan,nan,nan
1,34,1,1,1.0,1.0,0.3778380978037603,0.0,1,7,2,5,6,8,nan,nan,nan,nan,nan,nan,nan,nan,nan,nan,nan,nan,0.0,nan,nan,nan,nan,nan,nan,nan,nan,nan,nan,nan,nan,nan,nan,nan,nan,nan,nan,195.56192276912043,240.17499979329295,nan,240.55283789109671,nan,nan,nan,nan
1,35,1,1,1.0,1.0,0.28937300766119733,0.0,0,2,5,3,1,7,nan,nan,nan,nan,nan,nan,nan,nan,nan,nan,nan,nan,0.0,nan,nan,nan,nan,nan,nan,nan,nan,nan,nan,nan,nan,nan,nan,nan,nan,nan,nan,195.56192276912043,241.18345147249056,nan,241.47282448015176,nan,nan,nan,nan
1,36,1,1,1.0,1.0,0.35284684313228354,0.0,1,4,2,7,0,3,nan,nan,nan,nan,nan,nan,nan,nan,nan,nan,nan,nan,0.0,nan,nan,nan,nan,nan,nan,nan,nan,nan,nan,nan,nan,nan,nan,nan,nan,nan,nan,195.56192276912043,242.19195389875676,nan,242.54480074188905,nan,nan,nan,nan
1,37,1,1,1.0,1.0,0.3444233885384165,0.0,2,6,7,5,3,1,nan,nan,nan,nan,nan,nan,nan,nan,nan,nan,nan,nan,0.0,nan,nan,nan,nan,nan,nan,nan,nan,nan,nan,nan,nan,nan,nan,nan,nan,nan,nan,195.56192276912043,243.20036338368664,nan,243.54478677222505,nan,nan,nan,nan
1,38,1,1,1.0,1.0,0.47993649198906496,0.0,1,2,4,3,0,7,nan,nan,nan,nan,nan,nan,nan,nan,nan,nan,nan,nan,0.0,nan,nan,nan,nan,nan,nan,nan,nan,nan,nan,nan,nan,nan,nan,nan,nan,nan,nan,195.56192276912043,244.20881306717638,nan,244.68874955916544,nan,nan,nan,nan
1,39,1,1,1.0,1.0,0.37544214871013537,0.0,2,5,8,4,7,0,nan,nan,nan,nan,nan,nan,nan,nan,nan,nan,nan,nan,0.0,nan,nan,nan,nan,nan,nan,nan,nan,nan,nan,nan,nan,nan,nan,nan,nan,nan,nan,195.56192276912043,245.21728755405638,nan,245.59272970276652,nan,nan,nan,nan
1,40,1,1,1.0,1.0,0.39098160644061863,0.0,0,6,7,5,3,1,nan,nan,nan,nan,nan,nan,nan,nan,nan,nan,nan,nan,0.0,nan,nan,nan,nan,nan,nan,nan,nan,nan,nan,nan,nan,nan,nan,nan,nan,nan,nan,195.56192276912043,246.22573324624682,nan,246.61671485268744,nan,nan,nan,nan
1,41,1,1,1.0,1.0,0.4064740233006887,0.0,1,7,4,6,0,2,nan,nan,nan,nan,nan,nan,nan,nan,nan,nan,nan,nan,0.0,nan,nan,nan,nan,nan,nan,nan,nan,nan,nan,nan,nan,nan,nan,nan,nan,nan,nan,195.56192276912043,247.23420801822795,nan,247.64068204152863,nan,nan,nan,nan
1,42,1,1,1.0,1.0,0.34200919326394796,0.0,8,6,2,1,5,7,nan,nan,nan,nan,nan,nan,nan,nan,nan,nan,nan,nan,0.0,nan,nan,nan,nan,nan,nan,nan,nan,nan,nan,nan,nan,nan,nan,nan,nan,nan,nan,195.56192276912043,248.24264829349704,nan,248.584657486761,nan,nan,nan,nan
1,43,1,1,1.0,1.0,0.3335327106178738,0.0,6,5,7,8,4,2,nan,nan,nan,nan,nan,nan,nan,nan,nan,nan,nan,nan,0.0,nan,nan,nan,nan,nan,nan,nan,nan,nan,nan,nan,nan,nan,nan,nan,nan,nan,nan,195.56192276912043,249.25110852561193,nan,249.5846412362298,nan,nan,nan,nan
1,44,1,1,1.0,1.0,0.3410606778925285,0.0,3,0,4,1,6,7,nan,nan,nan,nan,nan,nan,nan,nan,nan,nan,nan,nan,0.0,nan,nan,nan,nan,nan,nan,nan,nan,nan,nan,nan,nan,nan,nan,nan,nan,nan,nan,195.56192276912043,250.25956932787085,nan,250.60063000576338,nan,nan,nan,nan
1,45,1,1,1.0,1.0,0.3005818530218676,0.0,8,1,5,3,0,2,nan,nan,nan,nan,nan,nan,nan,nan,nan,nan,nan,nan,0.0,nan,nan,nan,nan,nan,nan,nan,nan,nan,nan,nan,nan,nan,nan,nan,nan,nan,nan,195.56192276912043,251.2680307002738,nan,251.56861255329568,nan,nan,nan,nan
1,46,1,1,1.0,1.0,0.30812264955602586,0.0,5,7,2,0,3,8,nan,nan,nan,nan,nan,nan,nan,nan,nan,nan,nan,nan,0.0,nan,nan,nan,nan,nan,nan,nan,nan,nan,nan,nan,nan,nan,nan,nan,nan,nan,nan,195.56192276912043,252.27645871648565,nan,252.58458136604168,nan,nan,nan,nan
1,47,1,1,1.0,1.0,0.307677329168655,0.0,8,5,0,4,1,6,nan,nan,nan,nan,nan,nan,nan,nan,nan,nan,nan,nan,0.0,nan,nan,nan,nan,nan,nan,nan,nan,nan,nan,nan,nan,nan,nan,nan,nan,nan,nan,195.56192276912043,253.28493548411643,nan,253.5926128132851,nan,nan,nan,nan
1,48,1,1,1.0,1.0,0.25114416267024353,0.0,6,4,3,0,5,2,nan,nan,nan,nan,nan,nan,nan,nan,nan,nan,nan,nan,0.0,nan,nan,nan,nan,nan,nan,nan,nan,nan,nan,nan,nan,nan,nan,nan,nan,nan,nan,195.56192276912043,254.29340170318028,nan,254.54454586585052,nan,nan,nan,nan
1,49,1,1,1.0,1.0,0.1946560413343832,0.0,1,8,7,4,2,0,nan,nan,nan,nan,nan,nan,nan,nan,nan,nan,nan,nan,0.0,nan,nan,nan,nan,nan,nan,nan,nan,nan,nan,nan,nan,nan,nan,nan,nan,nan,nan,195.56192276912043,255.30186222033808,nan,255.49651826167246,nan,nan,nan,nan
1,50,1,1,1.0,1.0,0.27418279292760417,0.0,3,1,5,2,7,4,nan,nan,nan,nan,nan,nan,nan,nan,nan,nan,nan,nan,0.0,nan,nan,nan,nan,nan,nan,nan,nan,nan,nan,nan,nan,nan,nan,nan,nan,nan,nan,195.56192276912043,256.3103062019218,nan,256.5844889948494,nan,nan,nan,nan
1,51,0,0,1.0,0.0,0.2657080209464766,1.0,0,2,3,7,6,5,1.0,1.0,1.0,1.0,1.0,1.0,0.0,0.0,0.0,0.0,0.0,0.0,0.0,3.0,0.0,2.0,3.0,5.0,1.0,4.0,1.0,3.0,2.0,6.0,5.0,6.901022839883808,1.7657965432736091,5.5168128402438015,2.73271425627172,11.508624019857962,7.965388171374798,195.56192276912043,257.3187670041807,258.12718316039536,257.5844750251272,270.6953940130188,271.70099586981814,259.1439707696554,270.6870583680575
1,52,1,1,1.0,1.0,0.6082332383957691,0.0,1,6,4,5,8,7,nan,nan,nan,nan,nan,nan,nan,nan,nan,nan,nan,nan,0.0,nan,nan,nan,nan,nan,nan,nan,nan,nan,nan,nan,nan,nan,nan,nan,nan,nan,nan,195.56192276912043,271.903885491658,nan,272.51211873005377,nan,nan,nan,nan
1,53,1,1,1.0,1.0,0.5360753703280352,0.0,4,5,3,0,2,8,nan,nan,nan,nan,nan,nan,nan,nan,nan,nan,nan,nan,0.0,nan,nan,nan,nan,nan,nan,nan,nan,nan,nan,nan,nan,nan,nan,nan,nan,nan,nan,195.56192276912043,272.9040249037207,nan,273.44010027404875,nan,nan,nan,nan
1,54,1,1,1.0,1.0,0.5199372103670612,0.0,8,1,5,4,7,2,nan,nan,nan,nan,nan,nan,nan,nan,nan,nan,nan,nan,0.0,nan,nan,nan,nan,nan,nan,nan,nan,nan,nan,nan,nan,nan,nan,nan,nan,nan,nan,195.56192276912043,273.9041489206138,nan,274.42408613098087,nan,nan,nan,nan
1,55,0,0,0.0,1.0,0.5034654878545552,1.0,1,8,0,2,3,7,1.0,1.0,1.0,1.0,1.0,1.0,0.0,0.0,1.0,0.0,0.0,0.0,1.0,8.0,2.0,0.0,3.0,1.0,5.0,6.0,2.0,1.0,3.0,4.0,5.0,8.210444958298467,2.1720829732366838,1.1146289457683451,3.4671188483480364,4.626237353484612,5.826458474155515,195.56192276912043,274.91259347234154,275.721011909307,275.4160589601961,284.98881139652804,285.99031100294087,276.73781092243735,284.9805273539969
1,56,1,1,nan,nan,nan,0.0,3,6,8,4,1,2,nan,nan,nan,nan,nan,nan,nan,nan,nan,nan,nan,nan,0.0,nan,nan,nan,nan,nan,nan,nan,nan,nan,nan,nan,nan,nan,nan,nan,nan,nan,nan,195.56192276912043,286.19735390739515,nan,nan,nan,nan,nan,nan
1,57,1,1,1.0,1.0,0.3859624864417128,0.0,0,8,4,7,6,1,nan,nan,nan,nan,nan,nan,nan,nan,nan,nan,nan,nan,0.0,nan,nan,nan,nan,nan,nan,nan,nan,nan,nan,nan,nan,nan,nan,nan,nan,nan,nan,195.56192276912043,287.2057730855886,nan,287.5917355720303,nan,nan,nan,nan
1,58,1,1,1.0,1.0,0.30552143114618957,0.0,4,6,2,0,5,7,nan,nan,nan,nan,nan,nan,nan,nan,nan,nan,nan,nan,0.0,nan,nan,nan,nan,nan,nan,nan,nan,nan,nan,nan,nan,nan,nan,nan,nan,nan,nan,195.56192276912043,288.2142353132949,nan,288.5197567444411,nan,nan,nan,nan
1,59,1,1,1.0,1.0,0.18504287995165214,0.0,2,7,6,5,4,0,nan,nan,nan,nan,nan,nan,nan,nan,nan,nan,nan,nan,0.0,nan,nan,nan,nan,nan,nan,nan,nan,nan,nan,nan,nan,nan,nan,nan,nan,nan,nan,195.56192276912043,289.22269240929745,nan,289.4077352892491,nan,nan,nan,nan
1,60,1,1,1.0,1.0,0.19255146064097062,0.0,4,3,7,1,5,2,nan,nan,nan,nan,nan,nan,nan,nan,nan,nan,nan,nan,0.0,nan,nan,nan,nan,nan,nan,nan,nan,nan,nan,nan,nan,nan,nan,nan,nan,nan,nan,195.56192276912043,290.23115292645525,nan,290.4237043870962,nan,nan,nan,nan
1,61,1,1,1.0,1.0,0.16008612187579274,0.0,7,6,4,8,0,1,nan,nan,nan,nan,nan,nan,nan,nan,nan,nan,nan,nan,0.0,nan,nan,nan,nan,nan,nan,nan,nan,nan,nan,nan,nan,nan,nan,nan,nan,nan,nan,195.56192276912043,291.2396060311585,nan,291.39969215303427,nan,nan,nan,nan
1,62,1,1,1.0,1.0,0.2955986551241949,0.0,0,3,7,1,6,5,nan,nan,nan,nan,nan,nan,nan,nan,nan,nan,nan,nan,0.0,nan,nan,nan,nan,nan,nan,nan,nan,nan,nan,nan,nan,nan,nan,nan,nan,nan,nan,195.56192276912043,292.2480668334174,nan,292.5436654885416,nan,nan,nan,nan
1,63,1,1,1.0,1.0,0.287109058117494,0.0,6,2,8,0,1,4,nan,nan,nan,nan,nan,nan,nan,nan,nan,nan,nan,nan,0.0,nan,nan,nan,nan,nan,nan,nan,nan,nan,nan,nan,nan,nan,nan,nan,nan,nan,nan,195.56192276912043,293.2565236443188,nan,293.5436327024363,nan,nan,nan,nan
1,64,1,1,1.0,1.0,0.3186415618401952,0.0,5,7,0,1,2,3,nan,nan,nan,nan,nan,nan,nan,nan,nan,nan,nan,nan,0.0,nan,nan,nan,nan,nan,nan,nan,nan,nan,nan,nan,nan,nan,nan,nan,nan,nan,nan,195.56192276912043,294.2649864422274,nan,294.5836280040676,nan,nan,nan,nan
1,65,1,1,1.0,1.0,0.36615371191874146,0.0,8,5,3,7,1,6,nan,nan,nan,nan,nan,nan,nan,nan,nan,nan,nan,nan,0.0,nan,nan,nan,nan,nan,nan,nan,nan,nan,nan,nan,nan,nan,nan,nan,nan,nan,nan,195.56192276912043,295.273440972378,nan,295.63959468429675,nan,nan,nan,nan
1,66,1,1,1.0,1.0,0.40566492010839283,0.0,0,3,2,1,4,5,nan,nan,nan,nan,nan,nan,nan,nan,nan,nan,nan,nan,0.0,nan,nan,nan,nan,nan,nan,nan,nan,nan,nan,nan,nan,nan,nan,nan,nan,nan,nan,195.56192276912043,296.2819205909618,nan,296.6875855110702,nan,nan,nan,nan
1,67,0,0,0.0,1.0,0.629176125919912,0.0,7,6,1,2,5,4,nan,nan,nan,nan,nan,nan,nan,nan,nan,nan,nan,nan,0.0,nan,nan,nan,nan,nan,nan,nan,nan,nan,nan,nan,nan,nan,nan,nan,nan,nan,nan,195.56192276912043,297.2903520283289,nan,297.91952815424884,nan,nan,nan,nan
1,68,1,1,1.0,1.0,0.36469629977364093,0.0,6,2,4,8,7,3,nan,nan,nan,nan,nan,nan,nan,nan,nan,nan,nan,nan,0.0,nan,nan,nan,nan,nan,nan,nan,nan,nan,nan,nan,nan,nan,nan,nan,nan,nan,nan,195.56192276912043,298.29881938779727,nan,298.6635156875709,nan,nan,nan,nan
1,69,1,1,1.0,1.0,0.41222954698605463,0.0,1,8,7,2,3,6,nan,nan,nan,nan,nan,nan,nan,nan,nan,nan,nan,nan,0.0,nan,nan,nan,nan,nan,nan,nan,nan,nan,nan,nan,nan,nan,nan,nan,nan,nan,nan,195.56192276912043,299.3072576674167,nan,299.71948721440276,nan,nan,nan,nan
1,70,1,1,1.0,1.0,0.3477555937715806,0.0,6,2,3,1,0,8,nan,nan,nan,nan,nan,nan,nan,nan,nan,nan,nan,nan,0.0,nan,nan,nan,nan,nan,nan,nan,nan,nan,nan,nan,nan,nan,nan,nan,nan,nan,nan,195.56192276912043,300.3157230312354,nan,300.663478625007,nan,nan,nan,nan
1,71,1,1,1.0,1.0,0.2915933374897577,0.0,2,7,8,6,1,0,nan,nan,nan,nan,nan,nan,nan,nan,nan,nan,nan,nan,0.0,nan,nan,nan,nan,nan,nan,nan,nan,nan,nan,nan,nan,nan,nan,nan,nan,nan,nan,195.56192276912043,301.3158610178507,nan,301.60745435534045,nan,nan,nan,nan
1,72,1,1,1.0,1.0,0.275107360095717,0.0,5,0,4,2,3,7,nan,nan,nan,nan,nan,nan,nan,nan,nan,nan,nan,nan,0.0,nan,nan,nan,nan,nan,nan,nan,nan,nan,nan,nan,nan,nan,nan,nan,nan,nan,nan,195.56192276912043,302.3243241008604,nan,302.5994314609561,nan,nan,nan,nan
1,73,1,1,1.0,1.0,0.274626117607113,0.0,8,2,7,5,1,6,nan,nan,nan,nan,nan,nan,nan,nan,nan,nan,nan,nan,0.0,nan,nan,nan,nan,nan,nan,nan,nan,nan,nan,nan,nan,nan,nan,nan,nan,nan,nan,195.56192276912043,303.3327843329171,nan,303.6074104505242,nan,nan,nan,nan
1,74,1,1,1.0,1.0,0.23413702921243384,0.0,4,8,1,7,5,2,nan,nan,nan,nan,nan,nan,nan,nan,nan,nan,nan,nan,0.0,nan,nan,nan,nan,nan,nan,nan,nan,nan,nan,nan,nan,nan,nan,nan,nan,nan,nan,195.56192276912043,304.3412428544252,nan,304.57537988363765,nan,nan,nan,nan
1,75,1,1,1.0,1.0,0.2736827339977026,0.0,3,5,0,4,6,8,nan,nan,nan,nan,nan,nan,nan,nan,nan,nan,nan,nan,0.0,nan,nan,nan,nan,nan,nan,nan,nan,nan,nan,nan,nan,nan,nan,nan,nan,nan,nan,195.56192276912043,305.34967571723973,nan,305.62335845123744,nan,nan,nan,nan
1,76,1,1,1.0,1.0,0.4335154052823782,0.0,0,1,7,5,2,6,nan,nan,nan,nan,nan,nan,nan,nan,nan,nan,nan,nan,0.0,nan,nan,nan,nan,nan,nan,nan,nan,nan,nan,nan,nan,nan,nan,nan,nan,nan,nan,195.56192276912043,306.34982681827387,nan,306.78334222355625,nan,nan,nan,nan
1,77,1,1,1.0,1.0,0.3850427658762783,0.0,7,2,5,6,8,1,nan,nan,nan,nan,nan,nan,nan,nan,nan,nan,nan,nan,0.0,nan,nan,nan,nan,nan,nan,nan,nan,nan,nan,nan,nan,nan,nan,nan,nan,nan,nan,195.56192276912043,307.35826452769106,nan,307.74330729356734,nan,nan,nan,nan
1,78,1,1,1.0,1.0,0.32887993939220905,0.0,1,8,3,0,6,7,nan,nan,nan,nan,nan,nan,nan,nan,nan,nan,nan,nan,0.0,nan,nan,nan,nan,nan,nan,nan,nan,nan,nan,nan,nan,nan,nan,nan,nan,nan,nan,195.56192276912043,308.3584019441041,nan,308.6872818834963,nan,nan,nan,nan
1,79,0,0,1.0,0.0,0.27240550267742947,0.0,4,1,8,6,7,2,nan,nan,nan,nan,nan,nan,nan,nan,nan,nan,nan,nan,0.0,nan,nan,nan,nan,nan,nan,nan,nan,nan,nan,nan,nan,nan,nan,nan,nan,nan,nan,195.56192276912043,309.36684621078894,nan,309.63925171346636,nan,nan,nan,nan
1,80,1,1,0.0,0.0,0.0639285640208982,0.0,5,7,3,0,8,4,nan,nan,nan,nan,nan,nan,nan,nan,nan,nan,nan,nan,0.0,nan,nan,nan,nan,nan,nan,nan,nan,nan,nan,nan,nan,nan,nan,nan,nan,nan,nan,195.56192276912043,310.37530587264337,nan,310.43923443666426,nan,nan,nan,nan
1,81,1,1,1.0,1.0,0.4746291396440938,0.0,4,8,5,7,6,2,nan,nan,nan,nan,nan,nan,nan,nan,nan,nan,nan,nan,0.0,nan,nan,nan,nan,nan,nan,nan,nan,nan,nan,nan,nan,nan,nan,nan,nan,nan,nan,195.56192276912043,311.38856341980863,nan,311.8631925594527,nan,nan,nan,nan
1,82,1,1,1.0,1.0,0.3349613281316124,0.0,8,0,4,3,1,5,nan,nan,nan,nan,nan,nan,nan,nan,nan,nan,nan,nan,0.0,nan,nan,nan,nan,nan,nan,nan,nan,nan,nan,nan,nan,nan,nan,nan,nan,nan,nan,195.56192276912043,312.39222690695897,nan,312.7271882350906,nan,nan,nan,nan
1,83,1,1,1.0,1.0,0.2944739503436722,0.0,6,8,7,5,0,4,nan,nan,nan,nan,nan,nan,nan,nan,nan,nan,nan,nan,0.0,nan,nan,nan,nan,nan,nan,nan,nan,nan,nan,nan,nan,nan,nan,nan,nan,nan,nan,195.56192276912043,313.4006831476581,nan,313.6951570980018,nan,nan,nan,nan
1,84,1,1,1.0,1.0,0.342027724487707,0.0,8,1,4,7,2,5,nan,nan,nan,nan,nan,nan,nan,nan,nan,nan,nan,nan,0.0,nan,nan,nan,nan,nan,nan,nan,nan,nan,nan,nan,nan,nan,nan,nan,nan,nan,nan,195.56192276912043,314.4091231378843,nan,314.751150862372,nan,nan,nan,nan
1,85,1,1,1.0,1.0,0.2535518007352948,0.0,2,5,1,6,8,0,nan,nan,nan,nan,nan,nan,nan,nan,nan,nan,nan,nan,0.0,nan,nan,nan,nan,nan,nan,nan,nan,nan,nan,nan,nan,nan,nan,nan,nan,nan,nan,195.56192276912043,315.4175847954466,nan,315.6711365961819,nan,nan,nan,nan
1,86,1,1,1.0,1.0,0.269042506988626,0.0,3,0,4,5,1,8,nan,nan,nan,nan,nan,nan,nan,nan,nan,nan,nan,nan,0.0,nan,nan,nan,nan,nan,nan,nan,nan,nan,nan,nan,nan,nan,nan,nan,nan,nan,nan,195.56192276912043,316.4260493039619,nan,316.69509181095054,nan,nan,nan,nan
1,87,1,1,1.0,1.0,0.42088278924347833,0.0,5,7,1,0,8,2,nan,nan,nan,nan,nan,nan,nan,nan,nan,nan,nan,nan,0.0,nan,nan,nan,nan,nan,nan,nan,nan,nan,nan,nan,nan,nan,nan,nan,nan,nan,nan,195.56192276912043,317.42617987806443,nan,317.8470626673079,nan,nan,nan,nan
1,88,1,1,1.0,1.0,0.23645657254382968,0.0,1,0,7,4,5,6,nan,nan,nan,nan,nan,nan,nan,nan,nan,nan,nan,nan,0.0,nan,nan,nan,nan,nan,nan,nan,nan,nan,nan,nan,nan,nan,nan,nan,nan,nan,nan,195.56192276912043,318.4345996264601,nan,318.67105619900394,nan,nan,nan,nan
1,89,1,1,1.0,1.0,0.29995407100068405,0.0,0,2,6,8,3,1,nan,nan,nan,nan,nan,nan,nan,nan,nan,nan,nan,nan,0.0,nan,nan,nan,nan,nan,nan,nan,nan,nan,nan,nan,nan,nan,nan,nan,nan,nan,nan,195.56192276912043,319.4430892234086,nan,319.7430432944093,nan,nan,nan,nan
1,90,1,1,1.0,1.0,0.30749201658181846,0.0,1,7,8,6,4,3,nan,nan,nan,nan,nan,nan,nan,nan,nan,nan,nan,nan,0.0,nan,nan,nan,nan,nan,nan,nan,nan,nan,nan,nan,nan,nan,nan,nan,nan,nan,nan,195.56192276912043,320.4515166694182,nan,320.759008686,nan,nan,nan,nan
1,91,1,1,1.0,1.0,0.2669718526885845,0.0,7,0,2,5,6,1,nan,nan,nan,nan,nan,nan,nan,nan,nan,nan,nan,nan,0.0,nan,nan,nan,nan,nan,nan,nan,nan,nan,nan,nan,nan,nan,nan,nan,nan,nan,nan,195.56192276912043,321.4599960029591,nan,321.7269678556477,nan,nan,nan,nan
1,92,1,1,1.0,1.0,0.4024858114426024,0.0,3,8,4,6,5,2,nan,nan,nan,nan,nan,nan,nan,nan,nan,nan,nan,nan,0.0,nan,nan,nan,nan,nan,nan,nan,nan,nan,nan,nan,nan,nan,nan,nan,nan,nan,nan,195.56192276912043,322.4684553797124,nan,322.870941191155,nan,nan,nan,nan
1,93,1,1,1.0,1.0,0.29803451779298484,0.0,6,1,2,5,3,7,nan,nan,nan,nan,nan,nan,nan,nan,nan,nan,nan,nan,0.0,nan,nan,nan,nan,nan,nan,nan,nan,nan,nan,nan,nan,nan,nan,nan,nan,nan,nan,195.56192276912043,323.47690420789877,nan,323.77493872569175,nan,nan,nan,nan
1,94,0,0,0.0,1.0,0.4015384365338832,1.0,7,4,3,2,6,1,1.0,1.0,1.0,1.0,1.0,1.0,1.0,1.0,1.0,0.0,0.0,0.0,3.0,7.0,4.0,3.0,0.0,1.0,2.0,3.0,2.0,1.0,6.0,5.0,4.0,3.5100013199844398,2.4611460813321173,1.4138953645597212,6.4125126476283185,5.5490546635119244,4.628888463776093,195.56192276912043,324.4853590231505,325.29377888556337,324.8868974596844,332.7613632961875,333.7720244714874,326.3105699159787,332.75303392327623
1,95,1,1,1.0,1.0,0.33250664913794026,0.0,6,0,5,8,1,7,nan,nan,nan,nan,nan,nan,nan,nan,nan,nan,nan,nan,0.0,nan,nan,nan,nan,nan,nan,nan,nan,nan,nan,nan,nan,nan,nan,nan,nan,nan,nan,195.56192276912043,333.9782006832538,nan,334.31070733239176,nan,nan,nan,nan
1,96,0,0,1.0,0.0,0.21200243924977258,1.0,0,5,4,7,8,2,1.0,1.0,1.0,1.0,1.0,1.0,0.0,0.0,0.0,1.0,0.0,0.0,1.0,8.0,0.0,1.0,7.0,3.0,4.0,1.0,4.0,3.0,2.0,5.0,6.0,3.3121040191035718,6.456092749838717,5.406814998481423,4.433378274028655,9.03119010309456,10.438706723449286,195.56192276912043,334.9866586345597,335.79507593112066,335.1986610738095,347.28815194033086,348.29529901896603,336.8118718081387,347.27982285257895
1,97,1,1,nan,nan,nan,0.0,1,6,2,8,7,5,nan,nan,nan,nan,nan,nan,nan,nan,nan,nan,nan,nan,0.0,nan,nan,nan,nan,nan,nan,nan,nan,nan,nan,nan,nan,nan,nan,nan,nan,nan,nan,195.56192276912043,348.49666993290884,nan,nan,nan,nan,nan,nan
1,98,1,1,1.0,1.0,0.41323194548022,0.0,4,5,0,1,6,3,nan,nan,nan,nan,nan,nan,nan,nan,nan,nan,nan,nan,0.0,nan,nan,nan,nan,nan,nan,nan,nan,nan,nan,nan,nan,nan,nan,nan,nan,nan,nan,195.56192276912043,349.50508141348837,nan,349.9183133589686,nan,nan,nan,nan
1,99,1,1,1.0,1.0,0.39672572625568137,0.0,5,3,7,6,2,8,nan,nan,nan,nan,nan,nan,nan,nan,nan,nan,nan,nan,0.0,nan,nan,nan,nan,nan,nan,nan,nan,nan,nan,nan,nan,nan,nan,nan,nan,nan,nan,195.56192276912043,350.51357842300786,nan,350.91030414926354,nan,nan,nan,nan
1,100,1,1,1.0,1.0,0.30026995769003406,0.0,8,1,2,5,6,4,nan,nan,nan,nan,nan,nan,nan,nan,nan,nan,nan,nan,0.0,nan,nan,nan,nan,nan,nan,nan,nan,nan,nan,nan,nan,nan,nan,nan,nan,nan,nan,195.56192276912043,351.522005298757,nan,351.822275256447,nan,nan,nan,nan
1,101,1,1,1.0,1.0,0.33178221952402964,0.0,1,2,7,8,3,5,nan,nan,nan,nan,nan,nan,nan,nan,nan,nan,nan,nan,0.0,nan,nan,nan,nan,nan,nan,nan,nan,nan,nan,nan,nan,nan,nan,nan,nan,nan,nan,195.56192276912043,352.53048805345315,nan,352.8622702729772,nan,nan,nan,nan
1,102,0,0,0.0,1.0,0.4432879355154,0.0,4,0,3,1,2,6,nan,nan,nan,nan,nan,nan,nan,nan,nan,nan,nan,nan,0.0,nan,nan,nan,nan,nan,nan,nan,nan,nan,nan,nan,nan,nan,nan,nan,nan,nan,nan,195.56192276912043,353.5389465749613,nan,353.9822345104767,nan,nan,nan,nan
1,103,1,1,1.0,1.0,0.4027951409225352,0.0,7,3,2,5,4,0,nan,nan,nan,nan,nan,nan,nan,nan,nan,nan,nan,nan,0.0,nan,nan,nan,nan,nan,nan,nan,nan,nan,nan,nan,nan,nan,nan,nan,nan,nan,nan,195.56192276912043,354.5474324656534,nan,354.95022760657594,nan,nan,nan,nan
1,104,1,1,1.0,1.0,0.42628393816994503,0.0,3,4,6,1,7,2,nan,nan,nan,nan,nan,nan,nan,nan,nan,nan,nan,nan,0.0,nan,nan,nan,nan,nan,nan,nan,nan,nan,nan,nan,nan,nan,nan,nan,nan,nan,nan,195.56192276912043,355.55590894824127,nan,355.9821928864112,nan,nan,nan,nan
1,105,1,1,1.0,1.0,0.5218433641130105,0.0,5,8,0,7,3,1,nan,nan,nan,nan,nan,nan,nan,nan,nan,nan,nan,nan,0.0,nan,nan,nan,nan,nan,nan,nan,nan,nan,nan,nan,nan,nan,nan,nan,nan,nan,nan,195.56192276912043,356.5643244201783,nan,357.0861677842913,nan,nan,nan,nan
1,106,1,1,1.0,1.0,0.36135611176723614,0.0,6,4,7,5,8,3,nan,nan,nan,nan,nan,nan,nan,nan,nan,nan,nan,nan,0.0,nan,nan,nan,nan,nan,nan,nan,nan,nan,nan,nan,nan,nan,nan,nan,nan,nan,nan,195.56192276912043,357.57278294162825,nan,357.9341390533955,nan,nan,nan,nan
1,107,1,1,1.0,1.0,0.3208866950008087,0.0,4,5,0,8,2,7,nan,nan,nan,nan,nan,nan,nan,nan,nan,nan,nan,nan,0.0,nan,nan,nan,nan,nan,nan,nan,nan,nan,nan,nan,nan,nan,nan,nan,nan,nan,nan,195.56192276912043,358.58124231843976,nan,358.9021290134406,nan,nan,nan,nan
1,108,1,1,1.0,1.0,0.2964020564686507,0.0,2,1,7,6,4,3,nan,nan,nan,nan,nan,nan,nan,nan,nan,nan,nan,nan,0.0,nan,nan,nan,nan,nan,nan,nan,nan,nan,nan,nan,nan,nan,nan,nan,nan,nan,nan,195.56192276912043,359.58969228703063,nan,359.8860943434993,nan,nan,nan,nan
1,109,1,1,1.0,1.0,0.37592310609761626,0.0,5,8,0,1,7,4,nan,nan,nan,nan,nan,nan,nan,nan,nan,nan,nan,nan,0.0,nan,nan,nan,nan,nan,nan,nan,nan,nan,nan,nan,nan,nan,nan,nan,nan,nan,nan,195.56192276912043,360.59815023833653,nan,360.97407334443415,nan,nan,nan,nan
1,110,1,1,1.0,1.0,0.2874474674463272,0.0,0,1,7,2,4,6,nan,nan,nan,nan,nan,nan,nan,nan,nan,nan,nan,nan,0.0,nan,nan,nan,nan,nan,nan,nan,nan,nan,nan,nan,nan,nan,nan,nan,nan,nan,nan,195.56192276912043,361.60659821121953,nan,361.89404567866586,nan,nan,nan,nan
1,111,1,1,1.0,1.0,0.278953023836948,0.0,8,4,6,7,2,3,nan,nan,nan,nan,nan,nan,nan,nan,nan,nan,nan,nan,0.0,nan,nan,nan,nan,nan,nan,nan,nan,nan,nan,nan,nan,nan,nan,nan,nan,nan,nan,195.56192276912043,362.61507668945706,nan,362.894029713294,nan,nan,nan,nan
1,112,1,1,1.0,1.0,0.28648241655901074,0.0,7,5,4,8,0,2,nan,nan,nan,nan,nan,nan,nan,nan,nan,nan,nan,nan,0.0,nan,nan,nan,nan,nan,nan,nan,nan,nan,nan,nan,nan,nan,nan,nan,nan,nan,nan,195.56192276912043,363.62353350035846,nan,363.9100159169175,nan,nan,nan,nan
1,113,1,1,1.0,1.0,0.23000883514760062,0.0,2,6,1,0,4,5,nan,nan,nan,nan,nan,nan,nan,nan,nan,nan,nan,nan,0.0,nan,nan,nan,nan,nan,nan,nan,nan,nan,nan,nan,nan,nan,nan,nan,nan,nan,nan,195.56192276912043,364.63198118819855,nan,364.86199002334615,nan,nan,nan,nan
1,114,1,1,1.0,1.0,0.229521605593618,0.0,0,3,5,4,8,7,nan,nan,nan,nan,nan,nan,nan,nan,nan,nan,nan,nan,0.0,nan,nan,nan,nan,nan,nan,nan,nan,nan,nan,nan,nan,nan,nan,nan,nan,nan,nan,195.56192276912043,365.6404260250274,nan,365.869947630621,nan,nan,nan,nan
1,115,0,0,0.0,1.0,0.39735721453325823,1.0,8,5,3,6,2,0,1.0,1.0,1.0,1.0,1.0,1.0,1.0,1.0,1.0,0.0,0.0,1.0,4.0,8.0,5.0,3.0,1.0,7.0,0.0,3.0,2.0,1.0,6.0,5.0,4.0,3.3361775488592684,2.2257380929077044,1.1929141030996107,11.000116034178063,9.344155968225095,8.248294910474215,195.56192276912043,366.64057199435774,367.4489716149401,367.037929208891,379.50877939735074,380.5085789746372,368.46577205351787,379.50046370906057
1,116,1,1,1.0,1.0,0.4643132158671506,0.0,0,3,5,2,1,8,nan,nan,nan,nan,nan,nan,nan,nan,nan,nan,nan,nan,0.0,nan,nan,nan,nan,nan,nan,nan,nan,nan,nan,nan,nan,nan,nan,nan,nan,nan,nan,195.56192276912043,380.71729282836895,nan,381.1816060442361,nan,nan,nan,nan
1,117,1,1,1.0,1.0,0.3438318137777969,0.0,5,2,3,1,0,6,nan,nan,nan,nan,nan,nan,nan,nan,nan,nan,nan,nan,0.0,nan,nan,nan,nan,nan,nan,nan,nan,nan,nan,nan,nan,nan,nan,nan,nan,nan,nan,195.56192276912043,381.72575106471777,nan,382.06958287849557,nan,nan,nan,nan
1,118,1,1,1.0,1.0,0.31932465254794806,0.0,4,0,1,7,2,3,nan,nan,nan,nan,nan,nan,nan,nan,nan,nan,nan,nan,0.0,nan,nan,nan,nan,nan,nan,nan,nan,nan,nan,nan,nan,nan,nan,nan,nan,nan,nan,195.56192276912043,382.73421386268456,nan,383.0535385152325,nan,nan,nan,nan
1,119,1,1,1.0,1.0,0.30288058426231146,0.0,1,6,7,5,4,8,nan,nan,nan,nan,nan,nan,nan,nan,nan,nan,nan,nan,0.0,nan,nan,nan,nan,nan,nan,nan,nan,nan,nan,nan,nan,nan,nan,nan,nan,nan,nan,195.56192276912043,383.7426638312754,nan,384.04554441553773,nan,nan,nan,nan
1,120,1,1,1.0,1.0,0.3104054154246114,0.0,0,4,8,3,1,5,nan,nan,nan,nan,nan,nan,nan,nan,nan,nan,nan,nan,0.0,nan,nan,nan,nan,nan,nan,nan,nan,nan,nan,nan,nan,nan,nan,nan,nan,nan,nan,195.56192276912043,384.7511217825813,nan,385.06152719800593,nan,nan,nan,nan
1,121,1,1,1.0,1.0,0.34189971623709425,0.0,3,6,5,0,2,4,nan,nan,nan,nan,nan,nan,nan,nan,nan,nan,nan,nan,0.0,nan,nan,nan,nan,nan,nan,nan,nan,nan,nan,nan,nan,nan,nan,nan,nan,nan,nan,195.56192276912043,385.7595908525982,nan,386.1014905688353,nan,nan,nan,nan
1,122,1,1,1.0,1.0,0.32543683162657544,0.0,2,0,3,7,1,5,nan,nan,nan,nan,nan,nan,nan,nan,nan,nan,nan,nan,0.0,nan,nan,nan,nan,nan,nan,nan,nan,nan,nan,nan,nan,nan,nan,nan,nan,nan,nan,195.56192276912043,386.7680388255394,nan,387.093475657166,nan,nan,nan,nan
1,123,1,1,1.0,1.0,0.2929555275477469,0.0,3,6,7,0,4,1,nan,nan,nan,nan,nan,nan,nan,nan,nan,nan,nan,nan,0.0,nan,nan,nan,nan,nan,nan,nan,nan,nan,nan,nan,nan,nan,nan,nan,nan,nan,nan,195.56192276912043,387.77649506623857,nan,388.0694505937863,nan,nan,nan,nan
1,124,1,1,1.0,1.0,0.30846676079090685,0.0,4,0,2,3,7,8,nan,nan,nan,nan,nan,nan,nan,nan,nan,nan,nan,nan,0.0,nan,nan,nan,nan,nan,nan,nan,nan,nan,nan,nan,nan,nan,nan,nan,nan,nan,nan,195.56192276912043,388.78496271080803,nan,389.09342947159894,nan,nan,nan,nan
1,125,1,1,1.0,1.0,0.2999860017444007,0.0,2,5,6,0,8,4,nan,nan,nan,nan,nan,nan,nan,nan,nan,nan,nan,nan,0.0,nan,nan,nan,nan,nan,nan,nan,nan,nan,nan,nan,nan,nan,nan,nan,nan,nan,nan,195.56192276912043,389.7934112539515,nan,390.0933972556959,nan,nan,nan,nan
1,126,0,0,0.0,1.0,0.5154965507681482,0.0,6,1,2,7,3,0,nan,nan,nan,nan,nan,nan,nan,nan,nan,nan,nan,nan,0.0,nan,nan,nan,nan,nan,nan,nan,nan,nan,nan,nan,nan,nan,nan,nan,nan,nan,nan,195.56192276912043,390.80186264798976,nan,391.3173591987579,nan,nan,nan,nan
1,127,1,1,1.0,1.0,0.45902410976123065,0.0,5,4,1,2,6,8,nan,nan,nan,nan,nan,nan,nan,nan,nan,nan,nan,nan,0.0,nan,nan,nan,nan,nan,nan,nan,nan,nan,nan,nan,nan,nan,nan,nan,nan,nan,nan,195.56192276912043,391.8103234502487,nan,392.2693475600099,nan,nan,nan,nan
1,128,1,1,1.0,1.0,0.33056029689032584,0.0,0,7,2,6,3,5,nan,nan,nan,nan,nan,nan,nan,nan,nan,nan,nan,nan,0.0,nan,nan,nan,nan,nan,nan,nan,nan,nan,nan,nan,nan,nan,nan,nan,nan,nan,nan,195.56192276912043,392.818763725576,nan,393.1493240224663,nan,nan,nan,nan
1,129,1,1,1.0,1.0,0.37007492617703974,0.0,2,0,6,1,8,7,nan,nan,nan,nan,nan,nan,nan,nan,nan,nan,nan,nan,0.0,nan,nan,nan,nan,nan,nan,nan,nan,nan,nan,nan,nan,nan,nan,nan,nan,nan,nan,195.56192276912043,393.82724391436204,nan,394.1973188405391,nan,nan,nan,nan
1,130,1,1,1.0,1.0,0.36156822339398786,0.0,5,4,2,6,7,3,nan,nan,nan,nan,nan,nan,nan,nan,nan,nan,nan,nan,0.0,nan,nan,nan,nan,nan,nan,nan,nan,nan,nan,nan,nan,nan,nan,nan,nan,nan,nan,195.56192276912043,394.8357104185852,nan,395.1972786419792,nan,nan,nan,nan
1,131,1,1,1.0,1.0,0.33709071221528575,0.0,7,3,8,4,2,1,nan,nan,nan,nan,nan,nan,nan,nan,nan,nan,nan,nan,0.0,nan,nan,nan,nan,nan,nan,nan,nan,nan,nan,nan,nan,nan,nan,nan,nan,nan,nan,195.56192276912043,395.84416494873585,nan,396.18125566095114,nan,nan,nan,nan
1,132,1,1,1.0,1.0,0.40862478961935267,0.0,6,1,0,2,7,8,nan,nan,nan,nan,nan,nan,nan,nan,nan,nan,nan,nan,0.0,nan,nan,nan,nan,nan,nan,nan,nan,nan,nan,nan,nan,nan,nan,nan,nan,nan,nan,195.56192276912043,396.8526143471245,nan,397.2612391367438,nan,nan,nan,nan
1,133,1,1,1.0,1.0,0.38413501932518557,0.0,1,8,7,3,5,4,nan,nan,nan,nan,nan,nan,nan,nan,nan,nan,nan,nan,0.0,nan,nan,nan,nan,nan,nan,nan,nan,nan,nan,nan,nan,nan,nan,nan,nan,nan,nan,195.56192276912043,397.861071443127,nan,398.2452064624522,nan,nan,nan,nan
1,134,1,1,1.0,1.0,0.391676671220921,0.0,5,4,8,7,3,1,nan,nan,nan,nan,nan,nan,nan,nan,nan,nan,nan,nan,0.0,nan,nan,nan,nan,nan,nan,nan,nan,nan,nan,nan,nan,nan,nan,nan,nan,nan,nan,195.56192276912043,398.8695094376453,nan,399.26118610886624,nan,nan,nan,nan
1,135,1,1,1.0,1.0,0.3031782247708179,0.0,1,0,3,4,5,6,nan,nan,nan,nan,nan,nan,nan,nan,nan,nan,nan,nan,0.0,nan,nan,nan,nan,nan,nan,nan,nan,nan,nan,nan,nan,nan,nan,nan,nan,nan,nan,195.56192276912043,399.8779921923415,nan,400.1811704171123,nan,nan,nan,nan
1,136,1,1,1.0,1.0,0.3427170872455463,0.0,6,1,7,8,4,2,nan,nan,nan,nan,nan,nan,nan,nan,nan,nan,nan,nan,0.0,nan,nan,nan,nan,nan,nan,nan,nan,nan,nan,nan,nan,nan,nan,nan,nan,nan,nan,195.56192276912043,400.88642334460746,nan,401.229140431853,nan,nan,nan,nan
1,137,1,1,1.0,1.0,0.3582688041497022,0.0,4,5,1,2,3,8,nan,nan,nan,nan,nan,nan,nan,nan,nan,nan,nan,nan,0.0,nan,nan,nan,nan,nan,nan,nan,nan,nan,nan,nan,nan,nan,nan,nan,nan,nan,nan,195.56192276912043,401.89487131749047,nan,402.2531401216402,nan,nan,nan,nan
1,138,1,1,1.0,1.0,0.35005888662999496,0.0,3,1,4,5,6,7,nan,nan,nan,nan,nan,nan,nan,nan,nan,nan,nan,nan,0.0,nan,nan,nan,nan,nan,nan,nan,nan,nan,nan,nan,nan,nan,nan,nan,nan,nan,nan,195.56192276912043,402.89503952430096,nan,403.24509841093095,nan,nan,nan,nan
1,139,1,1,1.0,1.0,0.27760622900677845,0.0,1,3,2,7,8,0,nan,nan,nan,nan,nan,nan,nan,nan,nan,nan,nan,nan,0.0,nan,nan,nan,nan,nan,nan,nan,nan,nan,nan,nan,nan,nan,nan,nan,nan,nan,nan,195.56192276912043,403.9034780890797,nan,404.1810843180865,nan,nan,nan,nan
1,140,1,1,1.0,1.0,0.29311318579129875,0.0,8,4,1,5,0,6,nan,nan,nan,nan,nan,nan,nan,nan,nan,nan,nan,nan,0.0,nan,nan,nan,nan,nan,nan,nan,nan,nan,nan,nan,nan,nan,nan,nan,nan,nan,nan,195.56192276912043,404.91193290427327,nan,405.20504609006457,nan,nan,nan,nan
1,141,1,1,1.0,1.0,0.26067036972381175,0.0,4,0,5,1,3,8,nan,nan,nan,nan,nan,nan,nan,nan,nan,nan,nan,nan,0.0,nan,nan,nan,nan,nan,nan,nan,nan,nan,nan,nan,nan,nan,nan,nan,nan,nan,nan,195.56192276912043,405.92036548198666,nan,406.1810358517105,nan,nan,nan,nan
1,142,1,1,1.0,1.0,0.2761542336666025,0.0,6,3,8,7,1,4,nan,nan,nan,nan,nan,nan,nan,nan,nan,nan,nan,nan,0.0,nan,nan,nan,nan,nan,nan,nan,nan,nan,nan,nan,nan,nan,nan,nan,nan,nan,nan,195.56192276912043,406.9288565044408,nan,407.2050107381074,nan,nan,nan,nan
1,143,1,1,1.0,1.0,0.347667213936802,0.0,1,4,6,5,7,3,nan,nan,nan,nan,nan,nan,nan,nan,nan,nan,nan,nan,0.0,nan,nan,nan,nan,nan,nan,nan,nan,nan,nan,nan,nan,nan,nan,nan,nan,nan,nan,195.56192276912043,407.9373061879887,nan,408.2849734019255,nan,nan,nan,nan
1,144,1,1,1.0,1.0,0.33117496443446726,0.0,6,5,7,8,0,2,nan,nan,nan,nan,nan,nan,nan,nan,nan,nan,nan,nan,0.0,nan,nan,nan,nan,nan,nan,nan,nan,nan,nan,nan,nan,nan,nan,nan,nan,nan,nan,195.56192276912043,408.94577981956536,nan,409.2769547839998,nan,nan,nan,nan
1,145,1,1,1.0,1.0,0.28269776346860453,0.0,3,2,8,6,7,1,nan,nan,nan,nan,nan,nan,nan,nan,nan,nan,nan,nan,0.0,nan,nan,nan,nan,nan,nan,nan,nan,nan,nan,nan,nan,nan,nan,nan,nan,nan,nan,195.56192276912043,409.954229217954,nan,410.2369269814226,nan,nan,nan,nan
1,146,1,1,1.0,1.0,0.42656418785918504,0.0,7,3,2,8,6,0,nan,nan,nan,nan,nan,nan,nan,nan,nan,nan,nan,nan,0.0,nan,nan,nan,nan,nan,nan,nan,nan,nan,nan,nan,nan,nan,nan,nan,nan,nan,nan,195.56192276912043,410.95435437525157,nan,411.38091856311075,nan,nan,nan,nan
1,147,1,1,1.0,1.0,0.41806290193926543,0.0,3,2,6,5,0,1,nan,nan,nan,nan,nan,nan,nan,nan,nan,nan,nan,nan,0.0,nan,nan,nan,nan,nan,nan,nan,nan,nan,nan,nan,nan,nan,nan,nan,nan,nan,nan,195.56192276912043,411.96282601112034,nan,412.3808889130596,nan,nan,nan,nan
1,148,1,1,1.0,1.0,0.2895879702991806,0.0,7,5,1,0,2,3,nan,nan,nan,nan,nan,nan,nan,nan,nan,nan,nan,nan,0.0,nan,nan,nan,nan,nan,nan,nan,nan,nan,nan,nan,nan,nan,nan,nan,nan,nan,nan,195.56192276912043,412.97127769031795,nan,413.2608656606171,nan,nan,nan,nan
1,149,1,1,1.0,1.0,0.3051037650438957,0.0,5,1,4,6,3,2,nan,nan,nan,nan,nan,nan,nan,nan,nan,nan,nan,nan,0.0,nan,nan,nan,nan,nan,nan,nan,nan,nan,nan,nan,nan,nan,nan,nan,nan,nan,nan,195.56192276912043,413.97972908441443,nan,414.2848328494583,nan,nan,nan,nan
1,150,1,1,1.0,1.0,0.48867497796891257,0.0,4,0,2,5,6,7,nan,nan,nan,nan,nan,nan,nan,nan,nan,nan,nan,nan,0.0,nan,nan,nan,nan,nan,nan,nan,nan,nan,nan,nan,nan,nan,nan,nan,nan,nan,nan,195.56192276912043,414.9881539645139,nan,415.4768289424828,nan,nan,nan,nan
1,151,1,1,1.0,1.0,0.3761434855405241,0.0,6,1,8,3,4,5,nan,nan,nan,nan,nan,nan,nan,nan,nan,nan,nan,nan,0.0,nan,nan,nan,nan,nan,nan,nan,nan,nan,nan,nan,nan,nan,nan,nan,nan,nan,nan,195.56192276912043,415.99665525043383,nan,416.37279873597436,nan,nan,nan,nan
1,152,1,1,1.0,1.0,0.3356985870632343,0.0,1,2,0,6,7,8,nan,nan,nan,nan,nan,nan,nan,nan,nan,nan,nan,nan,0.0,nan,nan,nan,nan,nan,nan,nan,nan,nan,nan,nan,nan,nan,nan,nan,nan,nan,nan,195.56192276912043,417.0050835517468,nan,417.34078213881,nan,nan,nan,nan
1,153,1,1,1.0,1.0,0.3591973627335392,0.0,7,0,8,2,3,4,nan,nan,nan,nan,nan,nan,nan,nan,nan,nan,nan,nan,0.0,nan,nan,nan,nan,nan,nan,nan,nan,nan,nan,nan,nan,nan,nan,nan,nan,nan,nan,195.56192276912043,418.0135466347565,nan,418.37274399749003,nan,nan,nan,nan
1,154,0,0,0.0,1.0,0.5747330001904629,1.0,0,1,3,5,4,7,1.0,1.0,1.0,1.0,1.0,1.0,1.0,0.0,1.0,1.0,0.0,0.0,3.0,0.0,0.0,3.0,5.0,1.0,1.0,3.0,4.0,2.0,1.0,6.0,5.0,3.729595588054508,4.547070393397007,2.689655595109798,1.2419321316992864,8.00933148630429,6.594312557310332,195.56192276912043,419.02200800721766,419.83042843983276,419.5967410074081,428.8982157819555,429.8970773924957,420.8472223212011,428.88987586053554
1,155,1,1,1.0,1.0,0.6580911606433801,0.0,7,8,6,4,3,2,nan,nan,nan,nan,nan,nan,nan,nan,nan,nan,nan,nan,0.0,nan,nan,nan,nan,nan,nan,nan,nan,nan,nan,nan,nan,nan,nan,nan,nan,nan,nan,195.56192276912043,430.0983887213515,nan,430.7564798819949,nan,nan,nan,nan
1,156,1,1,1.0,1.0,0.6016195749398321,0.0,4,7,5,1,8,3,nan,nan,nan,nan,nan,nan,nan,nan,nan,nan,nan,nan,0.0,nan,nan,nan,nan,nan,nan,nan,nan,nan,nan,nan,nan,nan,nan,nan,nan,nan,nan,195.56192276912043,431.10680818464607,nan,431.7084277595859,nan,nan,nan,nan
1,157,1,1,1.0,1.0,0.3691078795818612,0.0,8,5,7,3,6,1,nan,nan,nan,nan,nan,nan,nan,nan,nan,nan,nan,nan,0.0,nan,nan,nan,nan,nan,nan,nan,nan,nan,nan,nan,nan,nan,nan,nan,nan,nan,nan,195.56192276912043,432.1152997773024,nan,432.4844076568843,nan,nan,nan,nan
1,158,1,1,1.0,1.0,0.4006361067877151,0.0,2,1,5,0,4,6,nan,nan,nan,nan,nan,nan,nan,nan,nan,nan,nan,nan,0.0,nan,nan,nan,nan,nan,nan,nan,nan,nan,nan,nan,nan,nan,nan,nan,nan,nan,nan,195.56192276912043,433.12374660983915,nan,433.52438271662686,nan,nan,nan,nan
1,159,1,1,1.0,1.0,0.4561457777163014,0.0,7,2,6,8,0,5,nan,nan,nan,nan,nan,nan,nan,nan,nan,nan,nan,nan,0.0,nan,nan,nan,nan,nan,nan,nan,nan,nan,nan,nan,nan,nan,nan,nan,nan,nan,nan,195.56192276912043,434.13221254380187,nan,434.5883583215182,nan,nan,nan,nan
1,160,0,0,0.0,1.0,0.5036565023474395,1.0,4,6,0,7,8,1,1.0,1.0,1.0,1.0,1.0,1.0,1.0,1.0,1.0,1.0,0.0,1.0,5.0,4.0,6.0,0.0,7.0,5.0,1.0,3.0,4.0,2.0,1.0,5.0,6.0,3.4747443185187876,4.474786797887646,2.506851861369796,1.619719197275117,5.723068308783695,6.731130261323415,195.56192276912043,435.14067762251943,435.9490775282029,435.6443341248669,443.72499498940306,444.73235132871196,436.9575326285558,443.7166944112978
1,161,1,1,1.0,1.0,0.6622723827022128,0.0,1,4,6,0,7,2,nan,nan,nan,nan,nan,nan,nan,nan,nan,nan,nan,nan,0.0,nan,nan,nan,nan,nan,nan,nan,nan,nan,nan,nan,nan,nan,nan,nan,nan,nan,nan,195.56192276912043,444.94185318850214,nan,445.60412557120435,nan,nan,nan,nan
1,162,1,1,1.0,1.0,0.38176102261058986,0.0,0,8,2,4,1,5,nan,nan,nan,nan,nan,nan,nan,nan,nan,nan,nan,nan,0.0,nan,nan,nan,nan,nan,nan,nan,nan,nan,nan,nan,nan,nan,nan,nan,nan,nan,nan,195.56192276912043,445.950373005704,nan,446.3321340283146,nan,nan,nan,nan
1,163,1,1,1.0,1.0,0.3892792965634726,0.0,1,2,7,5,6,8,nan,nan,nan,nan,nan,nan,nan,nan,nan,nan,nan,nan,0.0,nan,nan,nan,nan,nan,nan,nan,nan,nan,nan,nan,nan,nan,nan,nan,nan,nan,nan,195.56192276912043,446.9587899031467,nan,447.34806919971015,nan,nan,nan,nan
1,164,1,1,1.0,1.0,0.3248050582478754,0.0,7,8,5,6,3,1,nan,nan,nan,nan,nan,nan,nan,nan,nan,nan,nan,nan,0.0,nan,nan,nan,nan,nan,nan,nan,nan,nan,nan,nan,nan,nan,nan,nan,nan,nan,nan,195.56192276912043,447.96724386309506,nan,448.29204892134294,nan,nan,nan,nan
1,165,1,1,1.0,1.0,0.3243366450769827,0.0,4,1,7,3,8,5,nan,nan,nan,nan,nan,nan,nan,nan,nan,nan,nan,nan,0.0,nan,nan,nan,nan,nan,nan,nan,nan,nan,nan,nan,nan,nan,nan,nan,nan,nan,nan,195.56192276912043,448.9757035249495,nan,449.3000401700265,nan,nan,nan,nan
1,166,1,1,1.0,1.0,0.3398302023415454,0.0,2,5,0,1,4,3,nan,nan,nan,nan,nan,nan,nan,nan,nan,nan,nan,nan,0.0,nan,nan,nan,nan,nan,nan,nan,nan,nan,nan,nan,nan,nan,nan,nan,nan,nan,nan,195.56192276912043,449.98416831856593,nan,450.3239985209075,nan,nan,nan,nan
1,167,1,1,1.0,1.0,0.4033750267699361,0.0,7,3,1,5,6,2,nan,nan,nan,nan,nan,nan,nan,nan,nan,nan,nan,nan,0.0,nan,nan,nan,nan,nan,nan,nan,nan,nan,nan,nan,nan,nan,nan,nan,nan,nan,nan,195.56192276912043,450.9926274102181,nan,451.39600243698806,nan,nan,nan,nan
1,168,1,1,1.0,1.0,0.2508909971220419,0.0,4,8,7,1,2,3,nan,nan,nan,nan,nan,nan,nan,nan,nan,nan,nan,nan,0.0,nan,nan,nan,nan,nan,nan,nan,nan,nan,nan,nan,nan,nan,nan,nan,nan,nan,nan,195.56192276912043,452.0010750980582,nan,452.25196609518025,nan,nan,nan,nan
1,169,1,1,1.0,1.0,0.3783985971240327,0.0,6,3,2,7,5,1,nan,nan,nan,nan,nan,nan,nan,nan,nan,nan,nan,nan,0.0,nan,nan,nan,nan,nan,nan,nan,nan,nan,nan,nan,nan,nan,nan,nan,nan,nan,nan,195.56192276912043,453.009530483454,nan,453.38792908057803,nan,nan,nan,nan
1,170,1,1,1.0,1.0,0.3382618877803907,0.0,2,1,4,3,8,0,nan,nan,nan,nan,nan,nan,nan,nan,nan,nan,nan,nan,0.0,nan,nan,nan,nan,nan,nan,nan,nan,nan,nan,nan,nan,nan,nan,nan,nan,nan,nan,195.56192276912043,454.009657066199,nan,454.3479189539794,nan,nan,nan,nan
1,171,1,1,1.0,1.0,0.2497719942475669,0.0,7,4,0,5,3,6,nan,nan,nan,nan,nan,nan,nan,nan,nan,nan,nan,nan,0.0,nan,nan,nan,nan,nan,nan,nan,nan,nan,nan,nan,nan,nan,nan,nan,nan,nan,nan,195.56192276912043,455.0181252809707,nan,455.2678972752183,nan,nan,nan,nan
1,172,1,1,1.0,1.0,0.31328004121314734,0.0,1,0,2,3,6,4,nan,nan,nan,nan,nan,nan,nan,nan,nan,nan,nan,nan,0.0,nan,nan,nan,nan,nan,nan,nan,nan,nan,nan,nan,nan,nan,nan,nan,nan,nan,nan,195.56192276912043,456.0265872236341,nan,456.33986726484727,nan,nan,nan,nan
1,173,1,1,1.0,1.0,0.2568098809570074,0.0,0,8,4,7,3,2,nan,nan,nan,nan,nan,nan,nan,nan,nan,nan,nan,nan,0.0,nan,nan,nan,nan,nan,nan,nan,nan,nan,nan,nan,nan,nan,nan,nan,nan,nan,nan,195.56192276912043,457.0350300648133,nan,457.29183994577033,nan,nan,nan,nan
1,174,1,1,1.0,1.0,0.3123215475352481,0.0,3,0,8,2,5,4,nan,nan,nan,nan,nan,nan,nan,nan,nan,nan,nan,nan,0.0,nan,nan,nan,nan,nan,nan,nan,nan,nan,nan,nan,nan,nan,nan,nan,nan,nan,nan,195.56192276912043,458.0435002752347,nan,458.35582182276994,nan,nan,nan,nan
1,175,1,1,1.0,1.0,0.2718307485920377,0.0,6,5,7,4,2,8,nan,nan,nan,nan,nan,nan,nan,nan,nan,nan,nan,nan,0.0,nan,nan,nan,nan,nan,nan,nan,nan,nan,nan,nan,nan,nan,nan,nan,nan,nan,nan,195.56192276912043,459.05195879674284,nan,459.3237895453349,nan,nan,nan,nan
1,176,1,1,1.0,1.0,0.2633884776150808,0.0,7,1,4,2,0,6,nan,nan,nan,nan,nan,nan,nan,nan,nan,nan,nan,nan,0.0,nan,nan,nan,nan,nan,nan,nan,nan,nan,nan,nan,nan,nan,nan,nan,nan,nan,nan,195.56192276912043,460.06043584947474,nan,460.3238243270898,nan,nan,nan,nan
1,177,0,0,1.0,0.0,0.23089092306327075,1.0,8,7,6,5,3,2,1.0,1.0,1.0,1.0,1.0,1.0,0.0,0.0,0.0,0.0,0.0,0.0,0.0,6.0,5.0,5.0,8.0,5.0,5.0,1.0,4.0,3.0,2.0,6.0,5.0,2.612017036182806,5.539371653518174,4.946041537972633,3.8347040287335403,7.682250789483078,6.674255549442023,195.56192276912043,461.06886757188477,461.87727289443137,461.29975849494804,470.6033452627016,471.61054879036965,462.8857402538997,470.5949657128658
1,178,1,1,1.0,1.0,0.5592927559628151,0.0,2,3,5,8,6,4,nan,nan,nan,nan,nan,nan,nan,nan,nan,nan,nan,nan,0.0,nan,nan,nan,nan,nan,nan,nan,nan,nan,nan,nan,nan,nan,nan,nan,nan,nan,nan,195.56192276912043,471.8201920579304,nan,472.3794848138932,nan,nan,nan,nan
1,179,1,1,1.0,1.0,0.40684892487479374,0.0,3,6,4,0,1,5,nan,nan,nan,nan,nan,nan,nan,nan,nan,nan,nan,nan,0.0,nan,nan,nan,nan,nan,nan,nan,nan,nan,nan,nan,nan,nan,nan,nan,nan,nan,nan,195.56192276912043,472.8286309078103,nan,473.2354798326851,nan,nan,nan,nan
1,180,0,0,0.0,1.0,0.6223301090067253,1.0,2,0,6,1,3,4,1.0,1.0,1.0,1.0,1.0,1.0,0.0,0.0,0.0,1.0,0.0,0.0,1.0,0.0,2.0,2.0,1.0,8.0,7.0,2.0,3.0,4.0,1.0,5.0,6.0,2.8835549909854308,3.777559900889173,4.529985143628437,1.202625052537769,6.033824107609689,7.097132587165106,195.56192276912043,473.83711223694263,474.6455158489407,474.45944234594936,482.79651281633414,483.79387567576487,475.6623074495001,482.78817260981305
1,181,1,1,1.0,1.0,0.534550960524939,0.0,4,3,0,7,8,2,nan,nan,nan,nan,nan,nan,nan,nan,nan,nan,nan,nan,0.0,nan,nan,nan,nan,nan,nan,nan,nan,nan,nan,nan,nan,nan,nan,nan,nan,nan,nan,195.56192276912043,483.99668974708766,nan,484.5312407076126,nan,nan,nan,nan
1,182,1,1,1.0,1.0,0.7900442668469623,0.0,6,4,1,8,0,5,nan,nan,nan,nan,nan,nan,nan,nan,nan,nan,nan,nan,0.0,nan,nan,nan,nan,nan,nan,nan,nan,nan,nan,nan,nan,nan,nan,nan,nan,nan,nan,195.56192276912043,485.00513857533224,nan,485.7951828421792,nan,nan,nan,nan
1,183,1,1,1.0,1.0,0.5095619866042398,0.0,1,2,7,4,3,8,nan,nan,nan,nan,nan,nan,nan,nan,nan,nan,nan,nan,0.0,nan,nan,nan,nan,nan,nan,nan,nan,nan,nan,nan,nan,nan,nan,nan,nan,nan,nan,195.56192276912043,486.0136087857536,nan,486.52317077235784,nan,nan,nan,nan
1,184,1,1,1.0,1.0,0.4530972432112321,0.0,4,6,1,8,2,3,nan,nan,nan,nan,nan,nan,nan,nan,nan,nan,nan,nan,0.0,nan,nan,nan,nan,nan,nan,nan,nan,nan,nan,nan,nan,nan,nan,nan,nan,nan,nan,195.56192276912043,487.0220578990411,nan,487.47515514225233,nan,nan,nan,nan
1,185,0,0,0.0,1.0,0.5886057851021178,0.0,0,5,4,1,7,6,nan,nan,nan,nan,nan,nan,nan,nan,nan,nan,nan,nan,0.0,nan,nan,nan,nan,nan,nan,nan,nan,nan,nan,nan,nan,nan,nan,nan,nan,nan,nan,195.56192276912043,488.03050131042255,nan,488.61910709552467,nan,nan,nan,nan
1,186,1,1,1.0,1.0,0.6841118980082683,0.0,4,6,1,2,8,7,nan,nan,nan,nan,nan,nan,nan,nan,nan,nan,nan,nan,0.0,nan,nan,nan,nan,nan,nan,nan,nan,nan,nan,nan,nan,nan,nan,nan,nan,nan,nan,195.56192276912043,489.03897209104616,nan,489.72308398905443,nan,nan,nan,nan
1,187,1,1,1.0,1.0,0.38796471763635054,0.0,7,1,0,8,4,3,nan,nan,nan,nan,nan,nan,nan,nan,nan,nan,nan,nan,0.0,nan,nan,nan,nan,nan,nan,nan,nan,nan,nan,nan,nan,nan,nan,nan,nan,nan,nan,195.56192276912043,490.03910466079833,nan,490.4270693784347,nan,nan,nan,nan
1,188,1,1,1.0,1.0,0.259482373483479,0.0,3,5,4,7,0,2,nan,nan,nan,nan,nan,nan,nan,nan,nan,nan,nan,nan,0.0,nan,nan,nan,nan,nan,nan,nan,nan,nan,nan,nan,nan,nan,nan,nan,nan,nan,nan,195.56192276912043,491.0475663183606,nan,491.3070486918441,nan,nan,nan,nan
1,189,1,1,1.0,1.0,0.2993519476149231,0.0,2,3,0,8,6,4,nan,nan,nan,nan,nan,nan,nan,nan,nan,nan,nan,nan,0.0,nan,nan,nan,nan,nan,nan,nan,nan,nan,nan,nan,nan,nan,nan,nan,nan,nan,nan,195.56192276912043,492.04768463334767,nan,492.3470365809626,nan,nan,nan,nan
1,190,1,1,1.0,1.0,0.25085764087270945,0.0,5,8,3,7,0,2,nan,nan,nan,nan,nan,nan,nan,nan,nan,nan,nan,nan,0.0,nan,nan,nan,nan,nan,nan,nan,nan,nan,nan,nan,nan,nan,nan,nan,nan,nan,nan,195.56192276912043,493.0561554139713,nan,493.307013054844,nan,nan,nan,nan
1,191,1,1,1.0,1.0,0.5303948269574903,0.0,2,5,4,3,7,6,nan,nan,nan,nan,nan,nan,nan,nan,nan,nan,nan,nan,0.0,nan,nan,nan,nan,nan,nan,nan,nan,nan,nan,nan,nan,nan,nan,nan,nan,nan,nan,195.56192276912043,494.06459426379297,nan,494.59498909075046,nan,nan,nan,nan
1,192,1,1,1.0,1.0,0.4258805269491859,0.0,0,1,5,4,8,7,nan,nan,nan,nan,nan,nan,nan,nan,nan,nan,nan,nan,0.0,nan,nan,nan,nan,nan,nan,nan,nan,nan,nan,nan,nan,nan,nan,nan,nan,nan,nan,195.56192276912043,495.07307958434103,nan,495.4989601112902,nan,nan,nan,nan
1,193,1,1,1.0,1.0,0.42545202729525045,0.0,5,2,8,0,7,6,nan,nan,nan,nan,nan,nan,nan,nan,nan,nan,nan,nan,0.0,nan,nan,nan,nan,nan,nan,nan,nan,nan,nan,nan,nan,nan,nan,nan,nan,nan,nan,195.56192276912043,496.081503324036,nan,496.50695535133127,nan,nan,nan,nan
1,194,1,1,1.0,1.0,0.40893839549971744,0.0,7,5,0,8,6,3,nan,nan,nan,nan,nan,nan,nan,nan,nan,nan,nan,nan,0.0,nan,nan,nan,nan,nan,nan,nan,nan,nan,nan,nan,nan,nan,nan,nan,nan,nan,nan,195.56192276912043,497.089977240772,nan,497.4989156362717,nan,nan,nan,nan
1,195,0,0,0.0,1.0,0.4244627432199195,0.0,4,8,2,6,1,0,nan,nan,nan,nan,nan,nan,nan,nan,nan,nan,nan,nan,0.0,nan,nan,nan,nan,nan,nan,nan,nan,nan,nan,nan,nan,nan,nan,nan,nan,nan,nan,195.56192276912043,498.0984215073986,nan,498.5228842506185,nan,nan,nan,nan
1,196,1,1,1.0,1.0,0.6479514264501631,0.0,0,4,7,1,5,3,nan,nan,nan,nan,nan,nan,nan,nan,nan,nan,nan,nan,0.0,nan,nan,nan,nan,nan,nan,nan,nan,nan,nan,nan,nan,nan,nan,nan,nan,nan,nan,195.56192276912043,499.1068868712173,nan,499.75483829766745,nan,nan,nan,nan
1,197,1,1,1.0,1.0,0.4874943942995742,0.0,3,6,4,5,0,1,nan,nan,nan,nan,nan,nan,nan,nan,nan,nan,nan,nan,0.0,nan,nan,nan,nan,nan,nan,nan,nan,nan,nan,nan,nan,nan,nan,nan,nan,nan,nan,195.56192276912043,500.11535080953036,nan,500.60284520382993,nan,nan,nan,nan
1,198,1,1,1.0,1.0,0.4870148623595014,0.0,5,0,7,8,6,4,nan,nan,nan,nan,nan,nan,nan,nan,nan,nan,nan,nan,0.0,nan,nan,nan,nan,nan,nan,nan,nan,nan,nan,nan,nan,nan,nan,nan,nan,nan,nan,195.56192276912043,501.12380648002727,nan,501.61082134238677,nan,nan,nan,nan
1,199,0,0,nan,nan,nan,0.0,1,3,2,0,8,6,nan,nan,nan,nan,nan,nan,nan,nan,nan,nan,nan,nan,0.0,nan,nan,nan,nan,nan,nan,nan,nan,nan,nan,nan,nan,nan,nan,nan,nan,nan,nan,195.56192276912043,502.13226043997565,nan,nan,nan,nan,nan,nan
1,200,1,1,0.0,0.0,0.11804610979743302,0.0,2,6,8,5,3,7,nan,nan,nan,nan,nan,nan,nan,nan,nan,nan,nan,nan,0.0,nan,nan,nan,nan,nan,nan,nan,nan,nan,nan,nan,nan,nan,nan,nan,nan,nan,nan,195.56192276912043,503.14072067203233,nan,503.25876678182976,nan,nan,nan,nan
1,201,1,1,1.0,1.0,0.4615309613291174,0.0,4,2,5,7,1,3,nan,nan,nan,nan,nan,nan,nan,nan,nan,nan,nan,nan,0.0,nan,nan,nan,nan,nan,nan,nan,nan,nan,nan,nan,nan,nan,nan,nan,nan,nan,nan,195.56192276912043,504.1491797637427,nan,504.61071072507184,nan,nan,nan,nan
1,202,1,1,1.0,1.0,0.3331042109057307,0.0,5,0,4,8,2,7,nan,nan,nan,nan,nan,nan,nan,nan,nan,nan,nan,nan,0.0,nan,nan,nan,nan,nan,nan,nan,nan,nan,nan,nan,nan,nan,nan,nan,nan,nan,nan,195.56192276912043,505.1576345789945,nan,505.4907387899002,nan,nan,nan,nan
1,203,1,1,1.0,1.0,0.29262852208921686,0.0,6,7,0,3,4,2,nan,nan,nan,nan,nan,nan,nan,nan,nan,nan,nan,nan,0.0,nan,nan,nan,nan,nan,nan,nan,nan,nan,nan,nan,nan,nan,nan,nan,nan,nan,nan,195.56192276912043,506.1660739990184,nan,506.4587025211076,nan,nan,nan,nan
1,204,1,1,1.0,1.0,0.348141043970827,0.0,5,2,1,7,6,4,nan,nan,nan,nan,nan,nan,nan,nan,nan,nan,nan,nan,0.0,nan,nan,nan,nan,nan,nan,nan,nan,nan,nan,nan,nan,nan,nan,nan,nan,nan,nan,195.56192276912043,507.17454249883303,nan,507.52268354280386,nan,nan,nan,nan
1,205,1,1,1.0,1.0,0.31564120861003175,0.0,1,0,5,3,4,8,nan,nan,nan,nan,nan,nan,nan,nan,nan,nan,nan,nan,0.0,nan,nan,nan,nan,nan,nan,nan,nan,nan,nan,nan,nan,nan,nan,nan,nan,nan,nan,195.56192276912043,508.18300928815734,nan,508.49865049676737,nan,nan,nan,nan
1,206,1,1,1.0,1.0,0.38719809375470504,0.0,7,5,4,2,3,1,nan,nan,nan,nan,nan,nan,nan,nan,nan,nan,nan,nan,0.0,nan,nan,nan,nan,nan,nan,nan,nan,nan,nan,nan,nan,nan,nan,nan,nan,nan,nan,195.56192276912043,509.1914412956685,nan,509.5786393894232,nan,nan,nan,nan
1,207,1,1,1.0,1.0,0.33869409369071946,0.0,6,4,5,3,8,0,nan,nan,nan,nan,nan,nan,nan,nan,nan,nan,nan,nan,0.0,nan,nan,nan,nan,nan,nan,nan,nan,nan,nan,nan,nan,nan,nan,nan,nan,nan,nan,195.56192276912043,510.19991549744736,nan,510.5386095911381,nan,nan,nan,nan
1,208,1,1,1.0,1.0,0.35421045863768086,0.0,8,5,0,1,2,7,nan,nan,nan,nan,nan,nan,nan,nan,nan,nan,nan,nan,0.0,nan,nan,nan,nan,nan,nan,nan,nan,nan,nan,nan,nan,nan,nan,nan,nan,nan,nan,195.56192276912043,511.2083842824213,nan,511.562594741059,nan,nan,nan,nan
1,209,1,1,1.0,1.0,0.32971612678375095,0.0,4,0,7,3,1,6,nan,nan,nan,nan,nan,nan,nan,nan,nan,nan,nan,nan,0.0,nan,nan,nan,nan,nan,nan,nan,nan,nan,nan,nan,nan,nan,nan,nan,nan,nan,nan,195.56192276912043,512.2168467952288,nan,512.5465629220125,nan,nan,nan,nan
1,210,1,1,1.0,1.0,0.32923545443918556,0.0,0,4,5,7,3,8,nan,nan,nan,nan,nan,nan,nan,nan,nan,nan,nan,nan,0.0,nan,nan,nan,nan,nan,nan,nan,nan,nan,nan,nan,nan,nan,nan,nan,nan,nan,nan,195.56192276912043,513.2253050316358,nan,513.554540486075,nan,nan,nan,nan
1,211,0,0,0.0,1.0,0.40876562718767673,1.0,6,5,7,1,4,0,1.0,1.0,1.0,1.0,1.0,1.0,0.0,0.0,1.0,1.0,0.0,0.0,2.0,5.0,6.0,7.0,1.0,3.0,3.0,4.0,3.0,2.0,1.0,6.0,5.0,3.5091925018350594,2.565338792745024,1.8606275482452475,1.0311889626900665,6.3879535988671705,5.531856230518315,195.56192276912043,514.2337550002267,515.0421663097804,514.6425206274143,522.4764124168432,523.4793962344993,516.0506251163315,522.4680764867808
1,212,1,1,1.0,1.0,0.5173673524986953,0.0,7,6,4,5,2,3,nan,nan,nan,nan,nan,nan,nan,nan,nan,nan,nan,nan,0.0,nan,nan,nan,nan,nan,nan,nan,nan,nan,nan,nan,nan,nan,nan,nan,nan,nan,nan,195.56192276912043,523.6849480853998,nan,524.2023154378985,nan,nan,nan,nan
1,213,1,1,1.0,1.0,0.29291618429124355,0.0,1,5,6,2,3,7,nan,nan,nan,nan,nan,nan,nan,nan,nan,nan,nan,nan,0.0,nan,nan,nan,nan,nan,nan,nan,nan,nan,nan,nan,nan,nan,nan,nan,nan,nan,nan,195.56192276912043,524.6933649827843,nan,524.9862811670755,nan,nan,nan,nan
1,214,1,1,1.0,1.0,0.37242754065664485,0.0,8,0,2,3,4,5,nan,nan,nan,nan,nan,nan,nan,nan,nan,nan,nan,nan,0.0,nan,nan,nan,nan,nan,nan,nan,nan,nan,nan,nan,nan,nan,nan,nan,nan,nan,nan,195.56192276912043,525.7018186576315,nan,526.0742461982882,nan,nan,nan,nan
1,215,1,1,1.0,1.0,0.2999480839353055,0.0,6,1,0,8,2,7,nan,nan,nan,nan,nan,nan,nan,nan,nan,nan,nan,nan,0.0,nan,nan,nan,nan,nan,nan,nan,nan,nan,nan,nan,nan,nan,nan,nan,nan,nan,nan,195.56192276912043,526.7102880128077,nan,527.010236096743,nan,nan,nan,nan
1,216,0,0,1.0,0.0,0.26777724974090233,1.0,8,0,4,7,5,3,1.0,1.0,1.0,1.0,1.0,1.0,1.0,1.0,1.0,1.0,0.0,0.0,4.0,8.0,0.0,4.0,7.0,7.0,7.0,3.0,2.0,1.0,6.0,5.0,4.0,4.886884630424902,2.8568212278187275,1.8311314872698858,8.19072342326399,6.951933907868806,5.839148964849301,195.56192276912043,527.7104265695671,528.518821913749,527.978203819308,537.7532856633188,538.7514567706967,529.52729411982,537.744948877953
1,217,1,1,1.0,1.0,0.736518866091501,0.0,5,7,3,1,4,0,nan,nan,nan,nan,nan,nan,nan,nan,nan,nan,nan,nan,0.0,nan,nan,nan,nan,nan,nan,nan,nan,nan,nan,nan,nan,nan,nan,nan,nan,nan,nan,195.56192276912043,538.9534420671407,nan,539.6899609332322,nan,nan,nan,nan
1,218,1,1,1.0,1.0,0.35199811146594584,0.0,6,3,0,4,7,5,nan,nan,nan,nan,nan,nan,nan,nan,nan,nan,nan,nan,0.0,nan,nan,nan,nan,nan,nan,nan,nan,nan,nan,nan,nan,nan,nan,nan,nan,nan,nan,195.56192276912043,539.9619245367358,nan,540.3139226482017,nan,nan,nan,nan
1,219,0,0,0.0,1.0,0.4955323987524025,1.0,2,4,8,7,3,6,1.0,1.0,1.0,1.0,1.0,1.0,0.0,1.0,1.0,1.0,0.0,0.0,3.0,5.0,4.0,8.0,7.0,5.0,5.0,4.0,3.0,2.0,1.0,6.0,5.0,5.563874823390506,4.314561263949145,2.739870172867086,1.4619235388818197,7.714465528610162,6.70682295266306,195.56192276912043,540.9703739351244,541.778796078288,541.4659063338768,550.5381924952962,551.5431719868793,542.7872568805469,550.5298659733962
1,220,1,1,1.0,1.0,0.47896060737548396,0.0,6,8,7,4,5,1,nan,nan,nan,nan,nan,nan,nan,nan,nan,nan,nan,nan,0.0,nan,nan,nan,nan,nan,nan,nan,nan,nan,nan,nan,nan,nan,nan,nan,nan,nan,nan,195.56192276912043,551.7467102027731,nan,552.2256708101486,nan,nan,nan,nan
1,221,1,1,1.0,1.0,0.3107865891652182,0.0,2,4,6,5,7,8,nan,nan,nan,nan,nan,nan,nan,nan,nan,nan,nan,nan,0.0,nan,nan,nan,nan,nan,nan,nan,nan,nan,nan,nan,nan,nan,nan,nan,nan,nan,nan,195.56192276912043,552.746842202323,nan,553.0576287914882,nan,nan,nan,nan
1,222,1,1,1.0,1.0,0.3023480244446546,0.0,4,8,1,2,5,7,nan,nan,nan,nan,nan,nan,nan,nan,nan,nan,nan,nan,0.0,nan,nan,nan,nan,nan,nan,nan,nan,nan,nan,nan,nan,nan,nan,nan,nan,nan,nan,195.56192276912043,553.7552821925492,nan,554.0576302169939,nan,nan,nan,nan
1,223,1,1,1.0,1.0,0.3178236206294969,0.0,7,6,4,1,8,5,nan,nan,nan,nan,nan,nan,nan,nan,nan,nan,nan,nan,0.0,nan,nan,nan,nan,nan,nan,nan,nan,nan,nan,nan,nan,nan,nan,nan,nan,nan,nan,195.56192276912043,554.76374556066,nan,555.0815691812895,nan,nan,nan,nan
1,224,1,1,1.0,1.0,0.3093457125942223,0.0,5,3,1,7,0,2,nan,nan,nan,nan,nan,nan,nan,nan,nan,nan,nan,nan,0.0,nan,nan,nan,nan,nan,nan,nan,nan,nan,nan,nan,nan,nan,nan,nan,nan,nan,nan,195.56192276912043,555.772211494681,nan,556.0815572072752,nan,nan,nan,nan
1,225,1,1,1.0,1.0,0.30887872487073764,0.0,1,7,0,4,6,8,nan,nan,nan,nan,nan,nan,nan,nan,nan,nan,nan,nan,0.0,nan,nan,nan,nan,nan,nan,nan,nan,nan,nan,nan,nan,nan,nan,nan,nan,nan,nan,195.56192276912043,556.7806580421166,nan,557.0895367669873,nan,nan,nan,nan
1,226,1,1,1.0,1.0,0.1883896251092665,0.0,8,6,2,3,7,1,nan,nan,nan,nan,nan,nan,nan,nan,nan,nan,nan,nan,0.0,nan,nan,nan,nan,nan,nan,nan,nan,nan,nan,nan,nan,nan,nan,nan,nan,nan,nan,195.56192276912043,557.789122835733,nan,557.9775124608423,nan,nan,nan,nan
1,227,1,1,1.0,1.0,0.2839199712034315,0.0,3,5,1,0,8,4,nan,nan,nan,nan,nan,nan,nan,nan,nan,nan,nan,nan,0.0,nan,nan,nan,nan,nan,nan,nan,nan,nan,nan,nan,nan,nan,nan,nan,nan,nan,nan,195.56192276912043,558.7975722341216,nan,559.081492205325,nan,nan,nan,nan
1,228,1,1,1.0,1.0,0.2434391506249085,0.0,8,0,5,4,3,7,nan,nan,nan,nan,nan,nan,nan,nan,nan,nan,nan,nan,0.0,nan,nan,nan,nan,nan,nan,nan,nan,nan,nan,nan,nan,nan,nan,nan,nan,nan,nan,195.56192276912043,559.8060256238678,nan,560.0494647744927,nan,nan,nan,nan
1,229,0,0,0.0,1.0,0.4269453615997918,0.0,6,7,4,2,5,1,nan,nan,nan,nan,nan,nan,nan,nan,nan,nan,nan,nan,0.0,nan,nan,nan,nan,nan,nan,nan,nan,nan,nan,nan,nan,nan,nan,nan,nan,nan,nan,195.56192276912043,560.8144884217763,nan,561.2414337833761,nan,nan,nan,nan
1,230,1,1,1.0,1.0,0.40250234701670706,0.0,7,1,8,3,2,4,nan,nan,nan,nan,nan,nan,nan,nan,nan,nan,nan,nan,0.0,nan,nan,nan,nan,nan,nan,nan,nan,nan,nan,nan,nan,nan,nan,nan,nan,nan,nan,195.56192276912043,561.8229278418585,nan,562.2254301888752,nan,nan,nan,nan
1,231,1,1,1.0,1.0,0.3379790721810423,0.0,2,8,6,0,1,7,nan,nan,nan,nan,nan,nan,nan,nan,nan,nan,nan,nan,0.0,nan,nan,nan,nan,nan,nan,nan,nan,nan,nan,nan,nan,nan,nan,nan,nan,nan,nan,195.56192276912043,562.8314188643126,nan,563.1693979364936,nan,nan,nan,nan
1,232,1,1,1.0,1.0,0.31350298650795594,0.0,8,1,3,7,4,5,nan,nan,nan,nan,nan,nan,nan,nan,nan,nan,nan,nan,0.0,nan,nan,nan,nan,nan,nan,nan,nan,nan,nan,nan,nan,nan,nan,nan,nan,nan,nan,195.56192276912043,563.8398591396399,nan,564.1533621261478,nan,nan,nan,nan
1,233,1,1,1.0,1.0,0.3290281894733198,0.0,3,6,5,1,0,8,nan,nan,nan,nan,nan,nan,nan,nan,nan,nan,nan,nan,0.0,nan,nan,nan,nan,nan,nan,nan,nan,nan,nan,nan,nan,nan,nan,nan,nan,nan,nan,195.56192276912043,564.8483185163932,nan,565.1773467058665,nan,nan,nan,nan
1,234,1,1,1.0,1.0,0.33652508119121194,0.0,1,5,0,6,8,7,nan,nan,nan,nan,nan,nan,nan,nan,nan,nan,nan,nan,0.0,nan,nan,nan,nan,nan,nan,nan,nan,nan,nan,nan,nan,nan,nan,nan,nan,nan,nan,195.56192276912043,565.8567938585766,nan,566.1933189397678,nan,nan,nan,nan
1,235,1,1,1.0,1.0,0.352413211716339,0.0,4,3,6,0,2,8,nan,nan,nan,nan,nan,nan,nan,nan,nan,nan,nan,nan,0.0,nan,nan,nan,nan,nan,nan,nan,nan,nan,nan,nan,nan,nan,nan,nan,nan,nan,nan,195.56192276912043,566.8569093225524,nan,567.2093225342687,nan,nan,nan,nan
1,236,1,1,1.0,1.0,0.35223531164228916,0.0,8,2,5,6,7,4,nan,nan,nan,nan,nan,nan,nan,nan,nan,nan,nan,nan,0.0,nan,nan,nan,nan,nan,nan,nan,nan,nan,nan,nan,nan,nan,nan,nan,nan,nan,nan,195.56192276912043,567.8570359052974,nan,568.2092712169397,nan,nan,nan,nan
1,237,1,1,1.0,1.0,0.384093395259697,0.0,6,5,0,4,3,8,nan,nan,nan,nan,nan,nan,nan,nan,nan,nan,nan,nan,0.0,nan,nan,nan,nan,nan,nan,nan,nan,nan,nan,nan,nan,nan,nan,nan,nan,nan,nan,195.56192276912043,568.8571622029413,nan,569.241255598201,nan,nan,nan,nan
1,238,1,1,1.0,1.0,0.36762309819459915,0.0,3,7,5,0,2,4,nan,nan,nan,nan,nan,nan,nan,nan,nan,nan,nan,nan,0.0,nan,nan,nan,nan,nan,nan,nan,nan,nan,nan,nan,nan,nan,nan,nan,nan,nan,nan,195.56192276912043,569.865614737384,nan,570.2332378355786,nan,nan,nan,nan
1,239,1,1,1.0,1.0,0.551132730266545,0.0,5,8,1,4,0,7,nan,nan,nan,nan,nan,nan,nan,nan,nan,nan,nan,nan,0.0,nan,nan,nan,nan,nan,nan,nan,nan,nan,nan,nan,nan,nan,nan,nan,nan,nan,nan,195.56192276912043,570.8740724035888,nan,571.4252051338553,nan,nan,nan,nan
1,240,0,0,0.0,1.0,0.5106576116522774,0.0,3,2,4,6,1,8,nan,nan,nan,nan,nan,nan,nan,nan,nan,nan,nan,nan,0.0,nan,nan,nan,nan,nan,nan,nan,nan,nan,nan,nan,nan,nan,nan,nan,nan,nan,nan,195.56192276912043,571.8825255082338,nan,572.3931831198861,nan,nan,nan,nan
1,241,1,1,1.0,1.0,0.7264646607800387,0.0,1,5,2,3,0,4,nan,nan,nan,nan,nan,nan,nan,nan,nan,nan,nan,nan,0.0,nan,nan,nan,nan,nan,nan,nan,nan,nan,nan,nan,nan,nan,nan,nan,nan,nan,nan,195.56192276912043,572.8826911491924,nan,573.6091558099724,nan,nan,nan,nan
1,242,0,0,0.0,1.0,0.6780176799511537,0.0,5,2,6,7,1,3,nan,nan,nan,nan,nan,nan,nan,nan,nan,nan,nan,nan,0.0,nan,nan,nan,nan,nan,nan,nan,nan,nan,nan,nan,nan,nan,nan,nan,nan,nan,nan,195.56192276912043,573.8911009192234,nan,574.5691185991745,nan,nan,nan,nan
1,243,1,1,1.0,1.0,0.5258740552817471,0.0,3,0,1,2,8,5,nan,nan,nan,nan,nan,nan,nan,nan,nan,nan,nan,nan,0.0,nan,nan,nan,nan,nan,nan,nan,nan,nan,nan,nan,nan,nan,nan,nan,nan,nan,nan,195.56192276912043,574.8912474586978,nan,575.4171215139795,nan,nan,nan,nan
1,244,1,1,1.0,1.0,0.2936959225917235,0.0,8,2,0,1,4,7,nan,nan,nan,nan,nan,nan,nan,nan,nan,nan,nan,nan,0.0,nan,nan,nan,nan,nan,nan,nan,nan,nan,nan,nan,nan,nan,nan,nan,nan,nan,nan,195.56192276912043,575.8913686246378,nan,576.1850645472296,nan,nan,nan,nan
1,245,1,1,1.0,1.0,0.4132328007835895,0.0,0,1,5,7,2,4,nan,nan,nan,nan,nan,nan,nan,nan,nan,nan,nan,nan,0.0,nan,nan,nan,nan,nan,nan,nan,nan,nan,nan,nan,nan,nan,nan,nan,nan,nan,nan,195.56192276912043,576.8998060490121,nan,577.3130388497957,nan,nan,nan,nan
1,246,1,1,1.0,1.0,0.3010813416913152,0.0,1,6,3,2,0,5,nan,nan,nan,nan,nan,nan,nan,nan,nan,nan,nan,nan,0.0,nan,nan,nan,nan,nan,nan,nan,nan,nan,nan,nan,nan,nan,nan,nan,nan,nan,nan,195.56192276912043,577.8999454610748,nan,578.2010268027661,nan,nan,nan,nan
1,247,1,1,1.0,1.0,0.27661323867505416,0.0,5,1,2,4,7,6,nan,nan,nan,nan,nan,nan,nan,nan,nan,nan,nan,nan,0.0,nan,nan,nan,nan,nan,nan,nan,nan,nan,nan,nan,nan,nan,nan,nan,nan,nan,nan,195.56192276912043,578.9083905830048,nan,579.1850038216799,nan,nan,nan,nan
1,248,1,1,1.0,1.0,0.27615138271357864,0.0,6,3,8,0,5,2,nan,nan,nan,nan,nan,nan,nan,nan,nan,nan,nan,nan,0.0,nan,nan,nan,nan,nan,nan,nan,nan,nan,nan,nan,nan,nan,nan,nan,nan,nan,nan,195.56192276912043,579.9168462535599,nan,580.1929976362735,nan,nan,nan,nan
1,249,1,1,1.0,1.0,0.30764283251482993,0.0,4,7,1,3,2,6,nan,nan,nan,nan,nan,nan,nan,nan,nan,nan,nan,nan,0.0,nan,nan,nan,nan,nan,nan,nan,nan,nan,nan,nan,nan,nan,nan,nan,nan,nan,nan,195.56192276912043,580.9253024942591,nan,581.2329453267739,nan,nan,nan,nan
1,250,1,1,1.0,1.0,0.2751783491112292,0.0,0,3,6,7,8,4,nan,nan,nan,nan,nan,nan,nan,nan,nan,nan,nan,nan,0.0,nan,nan,nan,nan,nan,nan,nan,nan,nan,nan,nan,nan,nan,nan,nan,nan,nan,nan,195.56192276912043,581.9337650070665,nan,582.2089433561778,nan,nan,nan,nan
1,251,1,1,1.0,1.0,0.2906890121521428,0.0,6,7,4,5,3,0,nan,nan,nan,nan,nan,nan,nan,nan,nan,nan,nan,nan,0.0,nan,nan,nan,nan,nan,nan,nan,nan,nan,nan,nan,nan,nan,nan,nan,nan,nan,nan,195.56192276912043,582.9422275199322,nan,583.2329165320843,nan,nan,nan,nan
1,252,1,1,1.0,1.0,0.3141949151759036,0.0,7,4,5,8,0,2,nan,nan,nan,nan,nan,nan,nan,nan,nan,nan,nan,nan,0.0,nan,nan,nan,nan,nan,nan,nan,nan,nan,nan,nan,nan,nan,nan,nan,nan,nan,nan,195.56192276912043,583.9506849010359,nan,584.2648798162118,nan,nan,nan,nan
1,253,1,1,1.0,1.0,0.2980613167746924,0.0,8,3,4,1,5,7,nan,nan,nan,nan,nan,nan,nan,nan,nan,nan,nan,nan,0.0,nan,nan,nan,nan,nan,nan,nan,nan,nan,nan,nan,nan,nan,nan,nan,nan,nan,nan,195.56192276912043,584.9508143347339,nan,585.2488756515086,nan,nan,nan,nan
1,254,1,1,1.0,1.0,0.2656119434395805,0.0,7,2,0,5,4,6,nan,nan,nan,nan,nan,nan,nan,nan,nan,nan,nan,nan,0.0,nan,nan,nan,nan,nan,nan,nan,nan,nan,nan,nan,nan,nan,nan,nan,nan,nan,nan,195.56192276912043,585.9592520442093,nan,586.2248639876489,nan,nan,nan,nan
1,255,1,1,1.0,1.0,0.35344240930862725,0.0,1,3,2,8,5,4,nan,nan,nan,nan,nan,nan,nan,nan,nan,nan,nan,nan,0.0,nan,nan,nan,nan,nan,nan,nan,nan,nan,nan,nan,nan,nan,nan,nan,nan,nan,nan,195.56192276912043,586.9593769163475,nan,587.3128193256562,nan,nan,nan,nan
1,256,1,1,1.0,1.0,0.2890006719972007,0.0,0,8,3,4,2,5,nan,nan,nan,nan,nan,nan,nan,nan,nan,nan,nan,nan,0.0,nan,nan,nan,nan,nan,nan,nan,nan,nan,nan,nan,nan,nan,nan,nan,nan,nan,nan,195.56192276912043,587.9678334421478,nan,588.256834114145,nan,nan,nan,nan
1,257,1,1,1.0,1.0,0.2005116337677464,0.0,3,1,5,7,4,0,nan,nan,nan,nan,nan,nan,nan,nan,nan,nan,nan,nan,0.0,nan,nan,nan,nan,nan,nan,nan,nan,nan,nan,nan,nan,nan,nan,nan,nan,nan,nan,195.56192276912043,588.9762811299879,nan,589.1767927637557,nan,nan,nan,nan
1,258,1,1,1.0,1.0,0.24797531752847135,0.0,4,2,6,1,7,8,nan,nan,nan,nan,nan,nan,nan,nan,nan,nan,nan,nan,0.0,nan,nan,nan,nan,nan,nan,nan,nan,nan,nan,nan,nan,nan,nan,nan,nan,nan,nan,195.56192276912043,589.9847735779476,nan,590.2327488954761,nan,nan,nan,nan
1,259,0,0,1.0,0.0,0.18350535567151383,0.0,3,0,7,4,1,5,nan,nan,nan,nan,nan,nan,nan,nan,nan,nan,nan,nan,0.0,nan,nan,nan,nan,nan,nan,nan,nan,nan,nan,nan,nan,nan,nan,nan,nan,nan,nan,195.56192276912043,590.9932175595313,nan,591.1767229152028,nan,nan,nan,nan
1,260,1,1,1.0,1.0,0.4950095321983099,0.0,1,7,3,8,0,4,nan,nan,nan,nan,nan,nan,nan,nan,nan,nan,nan,nan,0.0,nan,nan,nan,nan,nan,nan,nan,nan,nan,nan,nan,nan,nan,nan,nan,nan,nan,nan,195.56192276912043,592.0016680983244,nan,592.4966776305228,nan,nan,nan,nan
1,261,1,1,1.0,1.0,0.382547888380941,0.0,2,4,1,0,5,6,nan,nan,nan,nan,nan,nan,nan,nan,nan,nan,nan,nan,0.0,nan,nan,nan,nan,nan,nan,nan,nan,nan,nan,nan,nan,nan,nan,nan,nan,nan,nan,195.56192276912043,593.0101231986191,nan,593.392671087,nan,nan,nan,nan
1,262,1,1,1.0,1.0,0.25407010572962463,0.0,6,3,4,8,0,1,nan,nan,nan,nan,nan,nan,nan,nan,nan,nan,nan,nan,0.0,nan,nan,nan,nan,nan,nan,nan,nan,nan,nan,nan,nan,nan,nan,nan,nan,nan,nan,195.56192276912043,594.018594549445,nan,594.2726646551746,nan,nan,nan,nan
1,263,1,1,1.0,1.0,0.12590678432025015,0.0,4,1,6,7,2,8,nan,nan,nan,nan,nan,nan,nan,nan,nan,nan,nan,nan,0.0,nan,nan,nan,nan,nan,nan,nan,nan,nan,nan,nan,nan,nan,nan,nan,nan,nan,nan,195.56192276912043,595.0187254086486,nan,595.1446321929689,nan,nan,nan,nan
1,264,1,1,1.0,1.0,0.75773373543052,0.0,8,5,4,2,3,6,nan,nan,nan,nan,nan,nan,nan,nan,nan,nan,nan,nan,0.0,nan,nan,nan,nan,nan,nan,nan,nan,nan,nan,nan,nan,nan,nan,nan,nan,nan,nan,195.56192276912043,596.0188494255417,nan,596.7765831609722,nan,nan,nan,nan
1,265,1,1,nan,nan,nan,0.0,5,0,2,7,4,1,nan,nan,nan,nan,nan,nan,nan,nan,nan,nan,nan,nan,0.0,nan,nan,nan,nan,nan,nan,nan,nan,nan,nan,nan,nan,nan,nan,nan,nan,nan,nan,195.56192276912043,597.0272991090314,nan,nan,nan,nan,nan,nan
1,266,1,1,nan,nan,nan,0.0,2,1,5,8,6,7,nan,nan,nan,nan,nan,nan,nan,nan,nan,nan,nan,nan,0.0,nan,nan,nan,nan,nan,nan,nan,nan,nan,nan,nan,nan,nan,nan,nan,nan,nan,nan,195.56192276912043,598.0274288278306,nan,nan,nan,nan,nan,nan
1,267,1,1,1.0,1.0,0.2130242243874818,0.0,7,4,6,0,3,2,nan,nan,nan,nan,nan,nan,nan,nan,nan,nan,nan,nan,0.0,nan,nan,nan,nan,nan,nan,nan,nan,nan,nan,nan,nan,nan,nan,nan,nan,nan,nan,195.56192276912043,599.027551134117,nan,599.2405753585044,nan,nan,nan,nan
1,268,1,1,1.0,1.0,0.3568453184561804,0.0,2,8,1,7,5,4,nan,nan,nan,nan,nan,nan,nan,nan,nan,nan,nan,nan,0.0,nan,nan,nan,nan,nan,nan,nan,nan,nan,nan,nan,nan,nan,nan,nan,nan,nan,nan,195.56192276912043,600.0276748659089,nan,600.3845201843651,nan,nan,nan,nan
1,269,1,1,1.0,1.0,0.2843946564826183,0.0,1,7,6,4,2,3,nan,nan,nan,nan,nan,nan,nan,nan,nan,nan,nan,nan,0.0,nan,nan,nan,nan,nan,nan,nan,nan,nan,nan,nan,nan,nan,nan,nan,nan,nan,nan,195.56192276912043,601.036116851843,nan,601.3205115083256,nan,nan,nan,nan
1,270,1,1,1.0,1.0,0.2999030387145467,0.0,6,8,4,5,7,1,nan,nan,nan,nan,nan,nan,nan,nan,nan,nan,nan,nan,0.0,nan,nan,nan,nan,nan,nan,nan,nan,nan,nan,nan,nan,nan,nan,nan,nan,nan,nan,195.56192276912043,602.0445879175677,nan,602.3444909562822,nan,nan,nan,nan
1,271,1,1,1.0,1.0,0.3154219695716165,0.0,0,1,3,8,5,7,nan,nan,nan,nan,nan,nan,nan,nan,nan,nan,nan,nan,0.0,nan,nan,nan,nan,nan,nan,nan,nan,nan,nan,nan,nan,nan,nan,nan,nan,nan,nan,195.56192276912043,603.0530487198266,nan,603.3684706893982,nan,nan,nan,nan
1,272,1,1,1.0,1.0,0.2909356204327196,0.0,1,4,2,7,6,5,nan,nan,nan,nan,nan,nan,nan,nan,nan,nan,nan,nan,0.0,nan,nan,nan,nan,nan,nan,nan,nan,nan,nan,nan,nan,nan,nan,nan,nan,nan,nan,195.56192276912043,604.0615069561754,nan,604.3524425766082,nan,nan,nan,nan
1,273,1,1,1.0,1.0,0.306431743549183,0.0,2,3,1,0,4,8,nan,nan,nan,nan,nan,nan,nan,nan,nan,nan,nan,nan,0.0,nan,nan,nan,nan,nan,nan,nan,nan,nan,nan,nan,nan,nan,nan,nan,nan,nan,nan,195.56192276912043,605.069972034893,nan,605.3764037784422,nan,nan,nan,nan
1,274,1,1,1.0,1.0,0.3060040991404094,0.0,0,8,5,4,1,2,nan,nan,nan,nan,nan,nan,nan,nan,nan,nan,nan,nan,0.0,nan,nan,nan,nan,nan,nan,nan,nan,nan,nan,nan,nan,nan,nan,nan,nan,nan,nan,195.56192276912043,606.0783840856748,nan,606.3843881848152,nan,nan,nan,nan
1,275,0,0,0.0,1.0,0.5134963152813725,0.0,5,4,0,7,8,3,nan,nan,nan,nan,nan,nan,nan,nan,nan,nan,nan,nan,0.0,nan,nan,nan,nan,nan,nan,nan,nan,nan,nan,nan,nan,nan,nan,nan,nan,nan,nan,195.56192276912043,607.0868759634322,nan,607.6003722787136,nan,nan,nan,nan
1,276,1,1,1.0,1.0,0.3850165369804017,0.0,1,5,2,0,7,6,nan,nan,nan,nan,nan,nan,nan,nan,nan,nan,nan,nan,0.0,nan,nan,nan,nan,nan,nan,nan,nan,nan,nan,nan,nan,nan,nan,nan,nan,nan,nan,195.56192276912043,608.0953162387596,nan,608.48033277574,nan,nan,nan,nan
1,277,1,1,1.0,1.0,0.23257413145620376,0.0,4,3,6,5,2,1,nan,nan,nan,nan,nan,nan,nan,nan,nan,nan,nan,nan,0.0,nan,nan,nan,nan,nan,nan,nan,nan,nan,nan,nan,nan,nan,nan,nan,nan,nan,nan,195.56192276912043,609.1037556587835,nan,609.3363297902397,nan,nan,nan,nan
1,278,1,1,1.0,1.0,0.2960767616168596,0.0,0,7,4,8,1,2,nan,nan,nan,nan,nan,nan,nan,nan,nan,nan,nan,nan,0.0,nan,nan,nan,nan,nan,nan,nan,nan,nan,nan,nan,nan,nan,nan,nan,nan,nan,nan,195.56192276912043,610.1122224480496,nan,610.4082992096664,nan,nan,nan,nan
1,279,1,1,1.0,1.0,0.2155772615224123,0.0,8,6,5,1,0,3,nan,nan,nan,nan,nan,nan,nan,nan,nan,nan,nan,nan,0.0,nan,nan,nan,nan,nan,nan,nan,nan,nan,nan,nan,nan,nan,nan,nan,nan,nan,nan,195.56192276912043,611.1206932286732,nan,611.3362704901956,nan,nan,nan,nan
1,280,1,1,1.0,1.0,0.13509201625129208,0.0,0,5,8,7,3,2,nan,nan,nan,nan,nan,nan,nan,nan,nan,nan,nan,nan,0.0,nan,nan,nan,nan,nan,nan,nan,nan,nan,nan,nan,nan,nan,nan,nan,nan,nan,nan,195.56192276912043,612.1291625838494,nan,612.2642546001007,nan,nan,nan,nan
1,281,1,1,1.0,1.0,0.24661198712419719,0.0,2,7,4,1,8,5,nan,nan,nan,nan,nan,nan,nan,nan,nan,nan,nan,nan,0.0,nan,nan,nan,nan,nan,nan,nan,nan,nan,nan,nan,nan,nan,nan,nan,nan,nan,nan,195.56192276912043,613.1376211052993,nan,613.3842330924235,nan,nan,nan,nan
1,282,1,1,1.0,1.0,0.5261235145153478,0.0,3,4,1,2,5,6,nan,nan,nan,nan,nan,nan,nan,nan,nan,nan,nan,nan,0.0,nan,nan,nan,nan,nan,nan,nan,nan,nan,nan,nan,nan,nan,nan,nan,nan,nan,nan,195.56192276912043,614.1460730695981,nan,614.6721965841134,nan,nan,nan,nan
1,283,1,1,1.0,1.0,0.38965932989958674,0.0,0,8,6,1,7,3,nan,nan,nan,nan,nan,nan,nan,nan,nan,nan,nan,nan,0.0,nan,nan,nan,nan,nan,nan,nan,nan,nan,nan,nan,nan,nan,nan,nan,nan,nan,nan,195.56192276912043,615.1545224679867,nan,615.5441817978863,nan,nan,nan,nan
1,284,1,1,1.0,1.0,0.41348425566684455,0.0,1,3,7,4,8,2,nan,nan,nan,nan,nan,nan,nan,nan,nan,nan,nan,nan,0.0,nan,nan,nan,nan,nan,nan,nan,nan,nan,nan,nan,nan,nan,nan,nan,nan,nan,nan,195.56192276912043,616.1546670118114,nan,616.5681512674782,nan,nan,nan,nan
1,285,1,1,1.0,1.0,0.3170247808448039,0.0,7,0,8,2,5,3,nan,nan,nan,nan,nan,nan,nan,nan,nan,nan,nan,nan,0.0,nan,nan,nan,nan,nan,nan,nan,nan,nan,nan,nan,nan,nan,nan,nan,nan,nan,nan,195.56192276912043,617.1631089976872,nan,617.480133778532,nan,nan,nan,nan
1,286,1,1,1.0,1.0,0.2685769447707571,0.0,0,1,2,7,8,6,nan,nan,nan,nan,nan,nan,nan,nan,nan,nan,nan,nan,0.0,nan,nan,nan,nan,nan,nan,nan,nan,nan,nan,nan,nan,nan,nan,nan,nan,nan,nan,195.56192276912043,618.171539579751,nan,618.4401165245217,nan,nan,nan,nan
1,287,1,1,1.0,1.0,0.2840687914285809,0.0,1,8,0,6,3,5,nan,nan,nan,nan,nan,nan,nan,nan,nan,nan,nan,nan,0.0,nan,nan,nan,nan,nan,nan,nan,nan,nan,nan,nan,nan,nan,nan,nan,nan,nan,nan,195.56192276912043,619.1800257556024,nan,619.464094547031,nan,nan,nan,nan
1,288,1,1,1.0,1.0,0.3476056331419386,0.0,8,6,5,3,4,7,nan,nan,nan,nan,nan,nan,nan,nan,nan,nan,nan,nan,0.0,nan,nan,nan,nan,nan,nan,nan,nan,nan,nan,nan,nan,nan,nan,nan,nan,nan,nan,195.56192276912043,620.1884648905252,nan,620.5360705236671,nan,nan,nan,nan
1,289,1,1,1.0,1.0,0.339092088106554,0.0,2,0,6,8,7,3,nan,nan,nan,nan,nan,nan,nan,nan,nan,nan,nan,nan,0.0,nan,nan,nan,nan,nan,nan,nan,nan,nan,nan,nan,nan,nan,nan,nan,nan,nan,nan,195.56192276912043,621.1969422283582,nan,621.5360343164648,nan,nan,nan,nan
1,290,1,1,1.0,1.0,0.3066361575620249,0.0,6,2,5,7,8,0,nan,nan,nan,nan,nan,nan,nan,nan,nan,nan,nan,nan,0.0,nan,nan,nan,nan,nan,nan,nan,nan,nan,nan,nan,nan,nan,nan,nan,nan,nan,nan,195.56192276912043,622.2053930522525,nan,622.5120292098145,nan,nan,nan,nan
1,291,1,1,1.0,1.0,0.3781420104787685,0.0,8,6,7,2,0,3,nan,nan,nan,nan,nan,nan,nan,nan,nan,nan,nan,nan,0.0,nan,nan,nan,nan,nan,nan,nan,nan,nan,nan,nan,nan,nan,nan,nan,nan,nan,nan,195.56192276912043,623.2138481525471,nan,623.5919901630259,nan,nan,nan,nan
1,292,1,1,1.0,1.0,0.27367760229390115,0.0,3,7,2,6,5,0,nan,nan,nan,nan,nan,nan,nan,nan,nan,nan,nan,nan,0.0,nan,nan,nan,nan,nan,nan,nan,nan,nan,nan,nan,nan,nan,nan,nan,nan,nan,nan,195.56192276912043,624.2222998317447,nan,624.4959774340387,nan,nan,nan,nan
1,293,1,1,1.0,1.0,0.3691500738495961,0.0,2,5,1,3,0,7,nan,nan,nan,nan,nan,nan,nan,nan,nan,nan,nan,nan,0.0,nan,nan,nan,nan,nan,nan,nan,nan,nan,nan,nan,nan,nan,nan,nan,nan,nan,nan,195.56192276912043,625.2307868628413,nan,625.5999369366909,nan,nan,nan,nan
1,294,0,0,1.0,0.0,0.30502450827043504,0.0,8,2,4,6,7,1,nan,nan,nan,nan,nan,nan,nan,nan,nan,nan,nan,nan,0.0,nan,nan,nan,nan,nan,nan,nan,nan,nan,nan,nan,nan,nan,nan,nan,nan,nan,nan,195.56192276912043,626.230898620619,nan,626.5359231288894,nan,nan,nan,nan
1,295,1,1,1.0,1.0,0.6885194864589721,0.0,7,1,8,4,0,5,nan,nan,nan,nan,nan,nan,nan,nan,nan,nan,nan,nan,0.0,nan,nan,nan,nan,nan,nan,nan,nan,nan,nan,nan,nan,nan,nan,nan,nan,nan,nan,195.56192276912043,627.2393659800873,nan,627.9278854665463,nan,nan,nan,nan
1,296,0,0,0.0,1.0,0.6320530324592255,1.0,6,7,0,5,4,8,1.0,1.0,1.0,1.0,1.0,1.0,0.0,1.0,1.0,1.0,0.0,1.0,4.0,7.0,7.0,0.0,5.0,8.0,8.0,4.0,3.0,2.0,1.0,6.0,5.0,4.027231541229412,2.780466742522549,1.9795377848204225,1.221144906769041,7.011471133911982,6.084133052150719,195.56192276912043,628.2478156635771,629.0562269731308,628.8798686960363,637.1155498067383,638.1212366222171,630.0647054513101,637.1072038982529
1,297,1,1,1.0,1.0,0.3876074919826351,0.0,5,0,6,8,7,1,nan,nan,nan,nan,nan,nan,nan,nan,nan,nan,nan,nan,0.0,nan,nan,nan,nan,nan,nan,nan,nan,nan,nan,nan,nan,nan,nan,nan,nan,nan,nan,195.56192276912043,638.3240598166012,nan,638.7116673085839,nan,nan,nan,nan
1,298,1,1,1.0,1.0,0.2831433688988909,0.0,8,7,0,1,2,3,nan,nan,nan,nan,nan,nan,nan,nan,nan,nan,nan,nan,0.0,nan,nan,nan,nan,nan,nan,nan,nan,nan,nan,nan,nan,nan,nan,nan,nan,nan,nan,195.56192276912043,639.3324869775097,nan,639.6156303464086,nan,nan,nan,nan
1,299,1,1,1.0,1.0,0.30661163927288726,0.0,4,0,2,3,1,6,nan,nan,nan,nan,nan,nan,nan,nan,nan,nan,nan,nan,0.0,nan,nan,nan,nan,nan,nan,nan,nan,nan,nan,nan,nan,nan,nan,nan,nan,nan,nan,195.56192276912043,640.3409908292815,nan,640.6476024685544,nan,nan,nan,nan
1,300,1,1,1.0,1.0,0.34615563350962475,0.0,2,8,7,0,6,5,nan,nan,nan,nan,nan,nan,nan,nan,nan,nan,nan,nan,0.0,nan,nan,nan,nan,nan,nan,nan,nan,nan,nan,nan,nan,nan,nan,nan,nan,nan,nan,195.56192276912043,641.3494197007385,nan,641.6955753342481,nan,nan,nan,nan
1,301,1,1,1.0,1.0,0.37764964916277677,0.0,5,0,6,1,8,7,nan,nan,nan,nan,nan,nan,nan,nan,nan,nan,nan,nan,0.0,nan,nan,nan,nan,nan,nan,nan,nan,nan,nan,nan,nan,nan,nan,nan,nan,nan,nan,195.56192276912043,642.3578947578208,nan,642.7355444069835,nan,nan,nan,nan
1,302,1,1,1.0,1.0,0.4011968912091106,0.0,0,4,7,5,3,1,nan,nan,nan,nan,nan,nan,nan,nan,nan,nan,nan,nan,0.0,nan,nan,nan,nan,nan,nan,nan,nan,nan,nan,nan,nan,nan,nan,nan,nan,nan,nan,195.56192276912043,643.3663390245056,nan,643.7675359157147,nan,nan,nan,nan
1,303,1,1,1.0,1.0,0.40069170063361526,0.0,2,3,8,7,4,0,nan,nan,nan,nan,nan,nan,nan,nan,nan,nan,nan,nan,0.0,nan,nan,nan,nan,nan,nan,nan,nan,nan,nan,nan,nan,nan,nan,nan,nan,nan,nan,195.56192276912043,644.3748049584683,nan,644.7754966591019,nan,nan,nan,nan
1,304,1,1,1.0,1.0,0.28822920145466924,0.0,6,1,4,8,7,3,nan,nan,nan,nan,nan,nan,nan,nan,nan,nan,nan,nan,0.0,nan,nan,nan,nan,nan,nan,nan,nan,nan,nan,nan,nan,nan,nan,nan,nan,nan,nan,195.56192276912043,645.3832566376659,nan,645.6714858391206,nan,nan,nan,nan
1,305,1,1,1.0,1.0,0.3597490240354091,0.0,3,5,0,7,8,4,nan,nan,nan,nan,nan,nan,nan,nan,nan,nan,nan,nan,0.0,nan,nan,nan,nan,nan,nan,nan,nan,nan,nan,nan,nan,nan,nan,nan,nan,nan,nan,195.56192276912043,646.3916989086429,nan,646.7514479326783,nan,nan,nan,nan
1,306,1,1,1.0,1.0,0.3195883666048758,0.0,4,6,7,2,3,1,nan,nan,nan,nan,nan,nan,nan,nan,nan,nan,nan,nan,0.0,nan,nan,nan,nan,nan,nan,nan,nan,nan,nan,nan,nan,nan,nan,nan,nan,nan,nan,195.56192276912043,647.3918562817853,nan,647.7114446483902,nan,nan,nan,nan
1,307,1,1,1.0,1.0,0.4151201381464489,0.0,0,7,8,3,1,4,nan,nan,nan,nan,nan,nan,nan,nan,nan,nan,nan,nan,0.0,nan,nan,nan,nan,nan,nan,nan,nan,nan,nan,nan,nan,nan,nan,nan,nan,nan,nan,195.56192276912043,648.4002871489502,nan,648.8154072870966,nan,nan,nan,nan
1,308,1,1,1.0,1.0,0.7346329542342573,0.0,6,2,3,4,5,7,nan,nan,nan,nan,nan,nan,nan,nan,nan,nan,nan,nan,0.0,nan,nan,nan,nan,nan,nan,nan,nan,nan,nan,nan,nan,nan,nan,nan,nan,nan,nan,195.56192276912043,649.4087576444726,nan,650.1433905987069,nan,nan,nan,nan
1,309,1,1,nan,nan,nan,0.0,2,4,6,7,8,3,nan,nan,nan,nan,nan,nan,nan,nan,nan,nan,nan,nan,0.0,nan,nan,nan,nan,nan,nan,nan,nan,nan,nan,nan,nan,nan,nan,nan,nan,nan,nan,195.56192276912043,650.4172247188399,nan,nan,nan,nan,nan,nan
1,310,1,1,nan,nan,nan,0.0,8,3,7,5,2,1,nan,nan,nan,nan,nan,nan,nan,nan,nan,nan,nan,nan,0.0,nan,nan,nan,nan,nan,nan,nan,nan,nan,nan,nan,nan,nan,nan,nan,nan,nan,nan,195.56192276912043,651.4256521648495,nan,nan,nan,nan,nan,nan
1,311,1,1,1.0,1.0,0.39719585003331304,0.0,6,8,0,1,5,3,nan,nan,nan,nan,nan,nan,nan,nan,nan,nan,nan,nan,0.0,nan,nan,nan,nan,nan,nan,nan,nan,nan,nan,nan,nan,nan,nan,nan,nan,nan,nan,195.56192276912043,652.4341360598919,nan,652.8313319099252,nan,nan,nan,nan
1,312,1,1,1.0,1.0,0.34069347387412563,0.0,0,7,4,6,8,2,nan,nan,nan,nan,nan,nan,nan,nan,nan,nan,nan,nan,0.0,nan,nan,nan,nan,nan,nan,nan,nan,nan,nan,nan,nan,nan,nan,nan,nan,nan,nan,195.56192276912043,653.4425977174542,nan,653.7832911913283,nan,nan,nan,nan
1,313,1,1,1.0,1.0,0.41222812148043886,0.0,8,4,0,3,2,7,nan,nan,nan,nan,nan,nan,nan,nan,nan,nan,nan,nan,0.0,nan,nan,nan,nan,nan,nan,nan,nan,nan,nan,nan,nan,nan,nan,nan,nan,nan,nan,195.56192276912043,654.4510454052943,nan,654.8632735267747,nan,nan,nan,nan
1,314,1,1,1.0,1.0,0.3557622376829386,0.0,1,8,7,4,0,6,nan,nan,nan,nan,nan,nan,nan,nan,nan,nan,nan,nan,0.0,nan,nan,nan,nan,nan,nan,nan,nan,nan,nan,nan,nan,nan,nan,nan,nan,nan,nan,195.56192276912043,655.4594973695348,nan,655.8152596072177,nan,nan,nan,nan
1,315,1,1,1.0,1.0,0.3472612368641421,0.0,5,3,0,8,4,2,nan,nan,nan,nan,nan,nan,nan,nan,nan,nan,nan,nan,0.0,nan,nan,nan,nan,nan,nan,nan,nan,nan,nan,nan,nan,nan,nan,nan,nan,nan,nan,195.56192276912043,656.4679647290031,nan,656.8152259658673,nan,nan,nan,nan
1,316,1,1,1.0,1.0,0.32276490930235013,0.0,0,4,5,6,2,3,nan,nan,nan,nan,nan,nan,nan,nan,nan,nan,nan,nan,0.0,nan,nan,nan,nan,nan,nan,nan,nan,nan,nan,nan,nan,nan,nan,nan,nan,nan,nan,195.56192276912043,657.4764261014643,nan,657.7991910107667,nan,nan,nan,nan
1,317,1,1,1.0,1.0,0.2583214614423923,0.0,3,5,2,4,0,1,nan,nan,nan,nan,nan,nan,nan,nan,nan,nan,nan,nan,0.0,nan,nan,nan,nan,nan,nan,nan,nan,nan,nan,nan,nan,nan,nan,nan,nan,nan,nan,195.56192276912043,658.4848583940766,nan,658.743179855519,nan,nan,nan,nan
1,318,0,0,1.0,0.0,0.12183931574691087,1.0,8,1,7,2,3,4,1.0,1.0,1.0,1.0,1.0,1.0,0.0,0.0,0.0,0.0,0.0,0.0,0.0,7.0,5.0,4.0,4.0,5.0,7.0,3.0,6.0,2.0,1.0,5.0,4.0,4.293610678811092,7.164957276894711,3.151145502633881,2.3088251267909072,6.156479939061683,5.21291759837186,195.56192276912043,659.4933234727941,660.3017367779976,659.615162788541,668.5194231817732,669.5233389791683,661.3185440588859,668.5110938089201
1,319,1,1,1.0,1.0,0.33467195538105443,0.0,1,7,8,0,5,6,nan,nan,nan,nan,nan,nan,nan,nan,nan,nan,nan,nan,0.0,nan,nan,nan,nan,nan,nan,nan,nan,nan,nan,nan,nan,nan,nan,nan,nan,nan,nan,195.56192276912043,669.7362591433921,nan,670.0709310987731,nan,nan,nan,nan
1,320,0,0,0.0,1.0,0.5421712989918888,1.0,0,8,2,4,7,3,1.0,1.0,1.0,1.0,1.0,1.0,1.0,1.0,1.0,1.0,0.0,0.0,4.0,0.0,8.0,2.0,4.0,1.0,1.0,2.0,4.0,3.0,1.0,5.0,6.0,1.777704444655683,4.018696899001952,3.0577023463556543,0.6439221607288346,5.137960654974449,5.897274679155089,195.56192276912043,670.7447313494631,671.5531375273131,671.286902648455,678.4956438713707,679.4915168176522,672.5615906319581,678.4873213408282
1,321,1,1,1.0,1.0,0.5108640213147737,0.0,6,3,5,7,2,1,nan,nan,nan,nan,nan,nan,nan,nan,nan,nan,nan,nan,0.0,nan,nan,nan,nan,nan,nan,nan,nan,nan,nan,nan,nan,nan,nan,nan,nan,nan,nan,195.56192276912043,679.6958319208934,nan,680.2066959422082,nan,nan,nan,nan
1,322,1,1,1.0,1.0,0.4063634059857577,0.0,7,4,2,5,8,6,nan,nan,nan,nan,nan,nan,nan,nan,nan,nan,nan,nan,0.0,nan,nan,nan,nan,nan,nan,nan,nan,nan,nan,nan,nan,nan,nan,nan,nan,nan,nan,195.56192276912043,680.7042855957407,nan,681.1106490017264,nan,nan,nan,nan
1,323,0,0,0.0,1.0,0.5739002339541912,1.0,8,1,3,4,6,5,1.0,1.0,1.0,1.0,1.0,1.0,0.0,1.0,1.0,1.0,0.0,1.0,4.0,5.0,1.0,3.0,4.0,5.0,5.0,4.0,3.0,2.0,1.0,6.0,5.0,4.177676277176943,3.280939574702643,1.7772232021670789,1.0407069019274786,6.224657007784117,5.224243047996424,195.56192276912043,681.7127441172488,682.5211545714992,682.286644351203,689.8137178065372,690.8168664098484,683.5462863786379,689.8053855827311
1,324,1,1,1.0,1.0,0.5521687701693736,0.0,3,0,5,8,4,6,nan,nan,nan,nan,nan,nan,nan,nan,nan,nan,nan,nan,0.0,nan,nan,nan,nan,nan,nan,nan,nan,nan,nan,nan,nan,nan,nan,nan,nan,nan,nan,195.56192276912043,691.0222671597148,nan,691.5744359298842,nan,nan,nan,nan
1,325,1,1,1.0,1.0,0.3916487317183055,0.0,4,6,7,1,0,2,nan,nan,nan,nan,nan,nan,nan,nan,nan,nan,nan,nan,0.0,nan,nan,nan,nan,nan,nan,nan,nan,nan,nan,nan,nan,nan,nan,nan,nan,nan,nan,195.56192276912043,692.0307667350862,nan,692.4224154668045,nan,nan,nan,nan
1,326,1,1,1.0,1.0,0.35923984210239723,0.0,8,5,3,2,4,0,nan,nan,nan,nan,nan,nan,nan,nan,nan,nan,nan,nan,0.0,nan,nan,nan,nan,nan,nan,nan,nan,nan,nan,nan,nan,nan,nan,nan,nan,nan,nan,195.56192276912043,693.0391397276544,nan,693.3983795697568,nan,nan,nan,nan
1,327,1,1,1.0,1.0,0.35876031016232446,0.0,6,0,4,8,5,7,nan,nan,nan,nan,nan,nan,nan,nan,nan,nan,nan,nan,0.0,nan,nan,nan,nan,nan,nan,nan,nan,nan,nan,nan,nan,nan,nan,nan,nan,nan,nan,195.56192276912043,694.0475936876028,nan,694.4063539977651,nan,nan,nan,nan
1,328,1,1,1.0,1.0,0.46226993086747825,0.0,4,8,5,7,0,2,nan,nan,nan,nan,nan,nan,nan,nan,nan,nan,nan,nan,0.0,nan,nan,nan,nan,nan,nan,nan,nan,nan,nan,nan,nan,nan,nan,nan,nan,nan,nan,195.56192276912043,695.0560527793132,nan,695.5183227101807,nan,nan,nan,nan
1,329,1,1,1.0,1.0,0.5497845099889673,0.0,1,7,2,3,4,6,nan,nan,nan,nan,nan,nan,nan,nan,nan,nan,nan,nan,0.0,nan,nan,nan,nan,nan,nan,nan,nan,nan,nan,nan,nan,nan,nan,nan,nan,nan,nan,195.56192276912043,696.0645158623229,nan,696.6143003723118,nan,nan,nan,nan
1,330,1,1,1.0,1.0,0.7812989385565743,0.0,0,2,5,4,8,1,nan,nan,nan,nan,nan,nan,nan,nan,nan,nan,nan,nan,0.0,nan,nan,nan,nan,nan,nan,nan,nan,nan,nan,nan,nan,nan,nan,nan,nan,nan,nan,195.56192276912043,697.0729726732243,nan,697.8542716117809,nan,nan,nan,nan
1,331,1,1,1.0,1.0,0.46081622497877106,0.0,4,0,8,7,6,5,nan,nan,nan,nan,nan,nan,nan,nan,nan,nan,nan,nan,0.0,nan,nan,nan,nan,nan,nan,nan,nan,nan,nan,nan,nan,nan,nan,nan,nan,nan,nan,195.56192276912043,698.0814391773893,nan,698.542255402368,nan,nan,nan,nan
1,332,0,0,0.0,1.0,0.46833906043320894,1.0,7,5,0,8,4,2,1.0,1.0,1.0,1.0,1.0,1.0,1.0,0.0,1.0,0.0,1.0,0.0,3.0,7.0,7.0,0.0,0.0,4.0,6.0,5.0,4.0,3.0,2.0,1.0,6.0,6.176227702992037,5.088930652360432,4.169346619222779,2.1605454119853675,1.233584227564279,7.087676513823681,195.56192276912043,699.0898979839985,699.8982993151294,699.5582370444317,708.0326344007626,709.0372660749126,700.9067333183484,708.0242987558013
1,333,1,1,1.0,1.0,0.3885503053897992,0.0,0,7,8,1,3,5,nan,nan,nan,nan,nan,nan,nan,nan,nan,nan,nan,nan,0.0,nan,nan,nan,nan,nan,nan,nan,nan,nan,nan,nan,nan,nan,nan,nan,nan,nan,nan,195.56192276912043,709.2494726431323,nan,709.6380229485221,nan,nan,nan,nan
1,334,1,1,1.0,1.0,0.2840590981650166,0.0,7,0,6,2,8,4,nan,nan,nan,nan,nan,nan,nan,nan,nan,nan,nan,nan,0.0,nan,nan,nan,nan,nan,nan,nan,nan,nan,nan,nan,nan,nan,nan,nan,nan,nan,nan,195.56192276912043,710.257927173283,nan,710.541986271448,nan,nan,nan,nan
1,335,1,1,1.0,1.0,0.25154415267752483,0.0,8,4,2,5,6,1,nan,nan,nan,nan,nan,nan,nan,nan,nan,nan,nan,nan,0.0,nan,nan,nan,nan,nan,nan,nan,nan,nan,nan,nan,nan,nan,nan,nan,nan,nan,nan,195.56192276912043,711.2664087875746,nan,711.5179529402521,nan,nan,nan,nan
1,336,1,1,1.0,1.0,0.2830758010968566,0.0,0,3,6,2,7,8,nan,nan,nan,nan,nan,nan,nan,nan,nan,nan,nan,nan,0.0,nan,nan,nan,nan,nan,nan,nan,nan,nan,nan,nan,nan,nan,nan,nan,nan,nan,nan,195.56192276912043,712.274849348003,nan,712.5579251490999,nan,nan,nan,nan
1,337,0,0,0.0,1.0,0.5225931673194282,0.0,7,8,1,5,6,3,nan,nan,nan,nan,nan,nan,nan,nan,nan,nan,nan,nan,0.0,nan,nan,nan,nan,nan,nan,nan,nan,nan,nan,nan,nan,nan,nan,nan,nan,nan,nan,195.56192276912043,713.2833178478177,nan,713.8059110151371,nan,nan,nan,nan
1,338,1,1,1.0,1.0,0.5460888068773784,0.0,5,7,4,1,3,6,nan,nan,nan,nan,nan,nan,nan,nan,nan,nan,nan,nan,0.0,nan,nan,nan,nan,nan,nan,nan,nan,nan,nan,nan,nan,nan,nan,nan,nan,nan,nan,195.56192276912043,714.2917840669397,nan,714.8378728738171,nan,nan,nan,nan
1,339,1,1,1.0,1.0,0.361632370040752,0.0,3,2,1,7,6,5,nan,nan,nan,nan,nan,nan,nan,nan,nan,nan,nan,nan,0.0,nan,nan,nan,nan,nan,nan,nan,nan,nan,nan,nan,nan,nan,nan,nan,nan,nan,nan,195.56192276912043,715.3002240571659,nan,715.6618564272067,nan,nan,nan,nan
1,340,1,1,1.0,1.0,0.3051616396405734,0.0,7,0,8,3,5,1,nan,nan,nan,nan,nan,nan,nan,nan,nan,nan,nan,nan,0.0,nan,nan,nan,nan,nan,nan,nan,nan,nan,nan,nan,nan,nan,nan,nan,nan,nan,nan,195.56192276912043,716.3086754512042,nan,716.6138370908448,nan,nan,nan,nan
1,341,1,1,1.0,1.0,0.29668430174933746,0.0,3,7,4,8,6,0,nan,nan,nan,nan,nan,nan,nan,nan,nan,nan,nan,nan,0.0,nan,nan,nan,nan,nan,nan,nan,nan,nan,nan,nan,nan,nan,nan,nan,nan,nan,nan,195.56192276912043,717.3171405299217,nan,717.6138248316711,nan,nan,nan,nan
1,342,1,1,1.0,1.0,0.27218996989540756,0.0,6,4,5,1,2,3,nan,nan,nan,nan,nan,nan,nan,nan,nan,nan,nan,nan,0.0,nan,nan,nan,nan,nan,nan,nan,nan,nan,nan,nan,nan,nan,nan,nan,nan,nan,nan,195.56192276912043,718.3255979110254,nan,718.5977878809208,nan,nan,nan,nan
1,343,1,1,1.0,1.0,0.2877200194634497,0.0,3,5,0,8,4,2,nan,nan,nan,nan,nan,nan,nan,nan,nan,nan,nan,nan,0.0,nan,nan,nan,nan,nan,nan,nan,nan,nan,nan,nan,nan,nan,nan,nan,nan,nan,nan,195.56192276912043,719.3340530113783,nan,719.6217730308417,nan,nan,nan,nan
1,344,1,1,1.0,1.0,0.2875726247439161,0.0,7,6,8,4,2,1,nan,nan,nan,nan,nan,nan,nan,nan,nan,nan,nan,nan,0.0,nan,nan,nan,nan,nan,nan,nan,nan,nan,nan,nan,nan,nan,nan,nan,nan,nan,nan,195.56192276912043,720.3341815897729,nan,720.6217542145168,nan,nan,nan,nan
1,345,1,1,1.0,1.0,0.3590910218190402,0.0,3,2,6,0,7,4,nan,nan,nan,nan,nan,nan,nan,nan,nan,nan,nan,nan,0.0,nan,nan,nan,nan,nan,nan,nan,nan,nan,nan,nan,nan,nan,nan,nan,nan,nan,nan,195.56192276912043,721.3426358348224,nan,721.7017268566415,nan,nan,nan,nan
1,346,1,1,1.0,1.0,0.2786086275591515,0.0,8,3,5,2,1,0,nan,nan,nan,nan,nan,nan,nan,nan,nan,nan,nan,nan,0.0,nan,nan,nan,nan,nan,nan,nan,nan,nan,nan,nan,nan,nan,nan,nan,nan,nan,nan,195.56192276912043,722.3510920755216,nan,722.6297007030807,nan,nan,nan,nan
1,347,0,0,0.0,1.0,0.4461143800872378,1.0,2,6,8,5,4,7,1.0,1.0,1.0,1.0,1.0,1.0,1.0,0.0,0.0,0.0,0.0,1.0,2.0,2.0,4.0,4.0,4.0,6.0,7.0,2.0,6.0,5.0,4.0,3.0,1.0,2.354876443510875,7.06518184725428,6.033598311303649,4.866559261397924,3.25044738734141,1.5238398933433928,195.56192276912043,723.359548886423,724.167960766179,723.8056632665102,732.277297184628,733.2791212305892,725.1764181472827,732.2689518463449
1,348,1,1,1.0,1.0,0.5436620673863217,0.0,1,4,2,7,5,3,nan,nan,nan,nan,nan,nan,nan,nan,nan,nan,nan,nan,0.0,nan,nan,nan,nan,nan,nan,nan,nan,nan,nan,nan,nan,nan,nan,nan,nan,nan,nan,195.56192276912043,733.4857940800721,nan,734.0294561474584,nan,nan,nan,nan
1,349,1,1,1.0,1.0,0.47115951793966815,0.0,2,6,0,3,1,5,nan,nan,nan,nan,nan,nan,nan,nan,nan,nan,nan,nan,0.0,nan,nan,nan,nan,nan,nan,nan,nan,nan,nan,nan,nan,nan,nan,nan,nan,nan,nan,195.56192276912043,734.4942565928795,nan,734.9654161108192,nan,nan,nan,nan
1,350,1,1,1.0,1.0,0.32668355765054,0.0,6,8,7,5,2,4,nan,nan,nan,nan,nan,nan,nan,nan,nan,nan,nan,nan,0.0,nan,nan,nan,nan,nan,nan,nan,nan,nan,nan,nan,nan,nan,nan,nan,nan,nan,nan,195.56192276912043,735.5027114081313,nan,735.8293949657818,nan,nan,nan,nan
1,351,1,1,1.0,1.0,0.2302084025577642,0.0,3,7,2,0,6,1,nan,nan,nan,nan,nan,nan,nan,nan,nan,nan,nan,nan,0.0,nan,nan,nan,nan,nan,nan,nan,nan,nan,nan,nan,nan,nan,nan,nan,nan,nan,nan,195.56192276912043,736.5111682190327,nan,736.7413766215905,nan,nan,nan,nan
1,352,0,0,1.0,0.0,0.06172676547430456,0.0,6,5,1,3,8,0,nan,nan,nan,nan,nan,nan,nan,nan,nan,nan,nan,nan,0.0,nan,nan,nan,nan,nan,nan,nan,nan,nan,nan,nan,nan,nan,nan,nan,nan,nan,nan,195.56192276912043,737.5196358636022,nan,737.5813626290765,nan,nan,nan,nan
1,353,1,1,1.0,1.0,0.6292362812091596,0.0,1,4,8,2,5,6,nan,nan,nan,nan,nan,nan,nan,nan,nan,nan,nan,nan,0.0,nan,nan,nan,nan,nan,nan,nan,nan,nan,nan,nan,nan,nan,nan,nan,nan,nan,nan,195.56192276912043,738.5280869725975,nan,739.1573232538067,nan,nan,nan,nan
1,354,1,1,1.0,1.0,0.45275256177410483,0.0,2,8,0,5,4,1,nan,nan,nan,nan,nan,nan,nan,nan,nan,nan,nan,nan,0.0,nan,nan,nan,nan,nan,nan,nan,nan,nan,nan,nan,nan,nan,nan,nan,nan,nan,nan,195.56192276912043,739.5365483450587,nan,739.9893009068328,nan,nan,nan,nan
1,355,1,1,1.0,1.0,0.2922610330278985,0.0,4,6,2,0,7,5,nan,nan,nan,nan,nan,nan,nan,nan,nan,nan,nan,nan,0.0,nan,nan,nan,nan,nan,nan,nan,nan,nan,nan,nan,nan,nan,nan,nan,nan,nan,nan,195.56192276912043,740.5450085771154,nan,740.8372696101433,nan,nan,nan,nan
1,356,1,1,1.0,1.0,0.23579372372478247,0.0,7,4,3,5,0,8,nan,nan,nan,nan,nan,nan,nan,nan,nan,nan,nan,nan,0.0,nan,nan,nan,nan,nan,nan,nan,nan,nan,nan,nan,nan,nan,nan,nan,nan,nan,nan,195.56192276912043,741.5534710899228,nan,741.7892648136476,nan,nan,nan,nan
1,357,1,1,1.0,1.0,0.09930302511202171,0.0,0,2,8,1,7,3,nan,nan,nan,nan,nan,nan,nan,nan,nan,nan,nan,nan,0.0,nan,nan,nan,nan,nan,nan,nan,nan,nan,nan,nan,nan,nan,nan,nan,nan,nan,nan,195.56192276912043,742.5619261902757,nan,742.6612292153877,nan,nan,nan,nan
1,358,0,0,1.0,0.0,0.07486656785476953,0.0,1,7,5,2,4,0,nan,nan,nan,nan,nan,nan,nan,nan,nan,nan,nan,nan,0.0,nan,nan,nan,nan,nan,nan,nan,nan,nan,nan,nan,nan,nan,nan,nan,nan,nan,nan,195.56192276912043,743.5703544915305,nan,743.6452210593852,nan,nan,nan,nan
1,359,1,1,1.0,1.0,0.4583504272159189,0.0,6,4,1,5,2,7,nan,nan,nan,nan,nan,nan,nan,nan,nan,nan,nan,nan,0.0,nan,nan,nan,nan,nan,nan,nan,nan,nan,nan,nan,nan,nan,nan,nan,nan,nan,nan,195.56192276912043,744.578835820721,nan,745.0371862479369,nan,nan,nan,nan
1,360,1,1,1.0,1.0,0.281868418387603,0.0,3,7,5,2,1,8,nan,nan,nan,nan,nan,nan,nan,nan,nan,nan,nan,nan,0.0,nan,nan,nan,nan,nan,nan,nan,nan,nan,nan,nan,nan,nan,nan,nan,nan,nan,nan,195.56192276912043,745.5872963378788,nan,745.8691647562664,nan,nan,nan,nan
1,361,1,1,1.0,1.0,0.2733819574350491,0.0,8,1,3,6,0,7,nan,nan,nan,nan,nan,nan,nan,nan,nan,nan,nan,nan,0.0,nan,nan,nan,nan,nan,nan,nan,nan,nan,nan,nan,nan,nan,nan,nan,nan,nan,nan,195.56192276912043,746.5957457363256,nan,746.8691276937607,nan,nan,nan,nan
1,362,1,1,1.0,1.0,0.3208932522102259,0.0,0,7,1,4,6,2,nan,nan,nan,nan,nan,nan,nan,nan,nan,nan,nan,nan,0.0,nan,nan,nan,nan,nan,nan,nan,nan,nan,nan,nan,nan,nan,nan,nan,nan,nan,nan,195.56192276912043,747.6042125255917,nan,747.925105777802,nan,nan,nan,nan
1,363,1,1,1.0,1.0,0.36042213637847453,0.0,2,8,4,3,0,6,nan,nan,nan,nan,nan,nan,nan,nan,nan,nan,nan,nan,0.0,nan,nan,nan,nan,nan,nan,nan,nan,nan,nan,nan,nan,nan,nan,nan,nan,nan,nan,195.56192276912043,748.6126687662909,nan,748.9730909026694,nan,nan,nan,nan
1,364,1,1,1.0,1.0,0.33593293628655374,0.0,5,6,0,1,7,4,nan,nan,nan,nan,nan,nan,nan,nan,nan,nan,nan,nan,0.0,nan,nan,nan,nan,nan,nan,nan,nan,nan,nan,nan,nan,nan,nan,nan,nan,nan,nan,195.56192276912043,749.6211241516867,nan,749.9570570879732,nan,nan,nan,nan
1,365,1,1,1.0,1.0,0.41545626666629687,0.0,2,7,1,8,6,5,nan,nan,nan,nan,nan,nan,nan,nan,nan,nan,nan,nan,0.0,nan,nan,nan,nan,nan,nan,nan,nan,nan,nan,nan,nan,nan,nan,nan,nan,nan,nan,195.56192276912043,750.6295801073429,nan,751.0450363740092,nan,nan,nan,nan
1,366,1,1,1.0,1.0,0.38298294524429366,0.0,1,2,0,5,8,3,nan,nan,nan,nan,nan,nan,nan,nan,nan,nan,nan,nan,0.0,nan,nan,nan,nan,nan,nan,nan,nan,nan,nan,nan,nan,nan,nan,nan,nan,nan,nan,195.56192276912043,751.6380397691973,nan,752.0210227144416,nan,nan,nan,nan
1,367,1,1,1.0,1.0,0.35048225458012894,0.0,7,4,6,8,2,0,nan,nan,nan,nan,nan,nan,nan,nan,nan,nan,nan,nan,0.0,nan,nan,nan,nan,nan,nan,nan,nan,nan,nan,nan,nan,nan,nan,nan,nan,nan,nan,195.56192276912043,752.6465057032183,nan,752.9969879577984,nan,nan,nan,nan
1,368,1,1,1.0,1.0,0.38198140205349773,0.0,6,2,1,4,8,7,nan,nan,nan,nan,nan,nan,nan,nan,nan,nan,nan,nan,0.0,nan,nan,nan,nan,nan,nan,nan,nan,nan,nan,nan,nan,nan,nan,nan,nan,nan,nan,195.56192276912043,753.654977339087,nan,754.0369587411406,nan,nan,nan,nan
1,369,1,1,1.0,1.0,0.30153835099190474,0.0,2,7,3,0,5,1,nan,nan,nan,nan,nan,nan,nan,nan,nan,nan,nan,nan,0.0,nan,nan,nan,nan,nan,nan,nan,nan,nan,nan,nan,nan,nan,nan,nan,nan,nan,nan,195.56192276912043,754.6634147634613,nan,754.9649531144532,nan,nan,nan,nan
1,370,1,1,1.0,1.0,0.36505609122104943,0.0,0,4,6,7,3,8,nan,nan,nan,nan,nan,nan,nan,nan,nan,nan,nan,nan,0.0,nan,nan,nan,nan,nan,nan,nan,nan,nan,nan,nan,nan,nan,nan,nan,nan,nan,nan,195.56192276912043,755.6718738551717,nan,756.0369299463928,nan,nan,nan,nan
1,371,1,1,1.0,1.0,0.5005577908596024,0.0,4,6,0,3,7,2,nan,nan,nan,nan,nan,nan,nan,nan,nan,nan,nan,nan,0.0,nan,nan,nan,nan,nan,nan,nan,nan,nan,nan,nan,nan,nan,nan,nan,nan,nan,nan,195.56192276912043,756.6803326617228,nan,757.1808904525824,nan,nan,nan,nan
1,372,1,1,1.0,1.0,0.6600808476214297,0.0,8,7,3,1,6,0,nan,nan,nan,nan,nan,nan,nan,nan,nan,nan,nan,nan,0.0,nan,nan,nan,nan,nan,nan,nan,nan,nan,nan,nan,nan,nan,nan,nan,nan,nan,nan,195.56192276912043,757.6887900428264,nan,758.3488708904479,nan,nan,nan,nan
1,373,1,1,1.0,1.0,0.6836004352662712,0.0,5,6,4,2,1,7,nan,nan,nan,nan,nan,nan,nan,nan,nan,nan,nan,nan,0.0,nan,nan,nan,nan,nan,nan,nan,nan,nan,nan,nan,nan,nan,nan,nan,nan,nan,nan,195.56192276912043,758.6972397263162,nan,759.3808401615825,nan,nan,nan,nan
1,374,1,1,1.0,1.0,0.5311141248675995,0.0,6,4,2,3,5,8,nan,nan,nan,nan,nan,nan,nan,nan,nan,nan,nan,nan,0.0,nan,nan,nan,nan,nan,nan,nan,nan,nan,nan,nan,nan,nan,nan,nan,nan,nan,nan,195.56192276912043,759.7057016689796,nan,760.2368157938472,nan,nan,nan,nan
1,375,1,1,1.0,1.0,0.44265359634300694,0.0,5,0,7,4,3,6,nan,nan,nan,nan,nan,nan,nan,nan,nan,nan,nan,nan,0.0,nan,nan,nan,nan,nan,nan,nan,nan,nan,nan,nan,nan,nan,nan,nan,nan,nan,nan,195.56192276912043,760.7141553438269,nan,761.1568089401699,nan,nan,nan,nan
1,376,1,1,1.0,1.0,0.3861626240541227,0.0,2,6,4,8,5,3,nan,nan,nan,nan,nan,nan,nan,nan,nan,nan,nan,nan,0.0,nan,nan,nan,nan,nan,nan,nan,nan,nan,nan,nan,nan,nan,nan,nan,nan,nan,nan,195.56192276912043,761.7226189970388,nan,762.1087816210929,nan,nan,nan,nan
1,377,1,1,1.0,1.0,0.40968192665604874,0.0,4,2,1,6,7,8,nan,nan,nan,nan,nan,nan,nan,nan,nan,nan,nan,nan,0.0,nan,nan,nan,nan,nan,nan,nan,nan,nan,nan,nan,nan,nan,nan,nan,nan,nan,nan,195.56192276912043,762.7310760930413,nan,763.1407580196974,nan,nan,nan,nan
1,378,1,1,1.0,1.0,0.417203621705994,0.0,0,4,2,8,1,6,nan,nan,nan,nan,nan,nan,nan,nan,nan,nan,nan,nan,0.0,nan,nan,nan,nan,nan,nan,nan,nan,nan,nan,nan,nan,nan,nan,nan,nan,nan,nan,195.56192276912043,763.7395343294484,nan,764.1567379511544,nan,nan,nan,nan
1,379,1,1,1.0,1.0,0.34472644585184753,0.0,7,6,3,1,2,8,nan,nan,nan,nan,nan,nan,nan,nan,nan,nan,nan,nan,0.0,nan,nan,nan,nan,nan,nan,nan,nan,nan,nan,nan,nan,nan,nan,nan,nan,nan,nan,195.56192276912043,764.747992280696,nan,765.0927187265479,nan,nan,nan,nan
1,380,1,1,1.0,1.0,0.28824431158136576,0.0,8,5,2,3,4,6,nan,nan,nan,nan,nan,nan,nan,nan,nan,nan,nan,nan,0.0,nan,nan,nan,nan,nan,nan,nan,nan,nan,nan,nan,nan,nan,nan,nan,nan,nan,nan,195.56192276912043,765.7564496617997,nan,766.0446939733811,nan,nan,nan,nan
