block,trial,time,setsize,freqtrials,colorind,colordeg,colorrgb,correctresp,actualresp,acc,rts,probe_trials,fast_rt_trigger,slow_rt_trigger,rt_trailingavg,rt_runningavg,rt_runningstd,rt_runningslowthresh,rt_runningfastthresh,wm_mousepos,wm_respdeg,wm_colorind,wm_colorrgb,wm_colorhsv,wm_degdiff,wm_rts,timeBlockStart,timeEncArrayOnset,timeResponse,timeProbeOnset,timeProbeOffset
0,0,17:13:13:340000,6,1,10,7.03125,[ 0.9268115   0.16840058 -1.        ],1,1,1,0.709913821,0,nan,nan,nan,nan,nan,nan,nan,nan,nan,nan,[ nan  nan  nan],nan,nan,nan,666.4532029,667.4792506,668.1891644,nan,nan
0,1,17:13:14:292000,6,1,113,79.453125,[ 1.         -0.30219199 -0.31457635],1,1,1,0.445824286,0,nan,nan,nan,nan,nan,nan,nan,nan,nan,nan,[ nan  nan  nan],nan,nan,nan,666.4532029,668.4233323,668.8691566,nan,nan
0,2,17:13:15:228000,6,1,5,3.515625,[ 0.88714031  0.19065985 -1.        ],1,1,1,0.426319889,0,nan,nan,nan,nan,nan,nan,nan,nan,nan,nan,[ nan  nan  nan],nan,nan,nan,666.4532029,669.3628349,669.7891548,nan,nan
0,3,17:13:16:164000,6,1,483,339.609375,[ 0.60602571  0.31931445 -1.        ],1,1,1,0.348515838,0,nan,nan,nan,nan,nan,nan,nan,nan,nan,nan,[ nan  nan  nan],nan,nan,nan,666.4532029,670.3046045,670.6531203,nan,nan
0,4,17:13:17:100000,6,1,104,73.125,[ 1.         -0.28235148 -0.41264457],1,1,1,0.414681911,0,nan,nan,nan,nan,nan,nan,nan,nan,nan,nan,[ nan  nan  nan],nan,nan,nan,666.4532029,671.2464237,671.6611056,nan,nan
0,5,17:13:18:051000,6,1,201,141.328125,[ 1.         -0.01357126  0.48142235],1,1,1,0.312886308,0,nan,nan,nan,nan,nan,nan,nan,nan,nan,nan,[ nan  nan  nan],nan,nan,nan,666.4532029,672.1882068,672.5010931,nan,nan
0,6,17:13:18:987000,6,0,463,325.546875,[ 0.44023832  0.3760118  -1.        ],0,0,1,0.427088228,0,nan,nan,nan,nan,nan,nan,nan,nan,nan,nan,[ nan  nan  nan],nan,nan,nan,666.4532029,673.1299912,673.5570794,nan,nan
0,7,17:13:19:939000,6,1,383,269.296875,[-0.09687871  0.47813121 -0.21108141],1,1,1,0.333289903,0,nan,nan,nan,nan,nan,nan,nan,nan,nan,nan,[ nan  nan  nan],nan,nan,nan,666.4532029,674.0717591,674.405049,nan,nan
0,8,17:13:20:875000,6,1,506,355.78125,[ 0.79777474  0.23670313 -1.        ],1,1,1,0.351464605,0,nan,nan,nan,nan,nan,nan,nan,nan,nan,nan,[ nan  nan  nan],nan,nan,nan,666.4532029,675.0135701,675.3650347,nan,nan
0,9,17:13:21:811000,6,1,207,145.546875,[ 0.98565351  0.01954319  0.51699622],1,1,1,0.32966745,0,nan,nan,nan,nan,nan,nan,nan,nan,nan,nan,[ nan  nan  nan],nan,nan,nan,666.4532029,675.9553574,676.2850248,nan,nan
0,10,17:13:22:762000,6,1,349,245.390625,[-0.17565689  0.46876851  0.14794518],1,1,1,0.307860603,0,nan,nan,nan,nan,nan,nan,nan,nan,nan,nan,[ nan  nan  nan],nan,nan,nan,666.4532029,676.8971458,677.2050064,nan,nan
0,11,17:13:23:698000,6,0,428,300.9375,[ 0.17037832  0.44348657 -0.8686614 ],0,1,0,0.302060573,0,0,0,nan,nan,nan,nan,nan,nan,nan,nan,[ nan  nan  nan],nan,nan,nan,666.4532029,677.8389351,678.1409957,nan,nan
0,12,17:13:29:268000,6,1,350,246.09375,[-0.17575682  0.46949094  0.13824748],1,1,1,0.360249894,1,nan,nan,nan,nan,nan,nan,nan,nan,-131.9444065,316,[-0.07182156  0.42820351  0.42789226],nan,-24.14934346,2.583970432,666.4532029,678.7807199,679.1409698,680.5975622,683.1895607
0,13,17:13:30:219000,6,1,420,295.3125,[ 0.11466019  0.4536941  -0.6950475 ],1,1,1,0.616771792,0,nan,nan,nan,nan,nan,nan,nan,nan,nan,nan,[ nan  nan  nan],nan,nan,nan,666.4532029,684.3481039,684.9648757,nan,nan
0,14,17:13:31:155000,6,1,71,49.921875,[ 1.         -0.14450407 -0.87798077],1,1,1,0.634995245,0,nan,nan,nan,nan,nan,nan,nan,nan,nan,nan,[ nan  nan  nan],nan,nan,nan,666.4532029,685.2898587,685.9248539,nan,nan
0,15,17:13:32:091000,6,0,198,139.21875,[ 1.         -0.0302355   0.46232694],0,0,1,0.669173342,0,nan,nan,nan,nan,nan,nan,nan,nan,nan,nan,[ nan  nan  nan],nan,nan,nan,666.4532029,686.2316702,686.9008435,nan,nan
0,16,17:13:33:027000,6,1,122,85.78125,[ 1.         -0.31115954 -0.21914422],1,1,1,0.359358393,0,nan,nan,nan,nan,nan,nan,nan,nan,nan,nan,[ nan  nan  nan],nan,nan,nan,666.4532029,687.1734615,687.5328199,nan,nan
0,17,17:13:33:979000,6,1,195,137.109375,[ 1.         -0.04692453  0.44239605],1,1,1,0.329560539,0,nan,nan,nan,nan,nan,nan,nan,nan,nan,nan,[ nan  nan  nan],nan,nan,nan,666.4532029,688.1152454,688.4448059,nan,nan
0,18,17:13:39:985000,6,1,8,5.625,[ 0.91102659  0.17740094 -1.        ],1,1,1,0.515731698,1,nan,nan,nan,nan,nan,nan,nan,nan,114.4206164,477,[ 0.55587987  0.33778403 -1.        ],nan,-30.04561638,3.025754882,666.4532029,689.0570449,689.5727766,690.8822452,693.9160013
0,19,17:13:40:921000,6,1,465,326.953125,[ 0.45658868  0.37096153 -1.        ],1,1,1,0.514511194,0,nan,nan,nan,nan,nan,nan,nan,nan,nan,nan,[ nan  nan  nan],nan,nan,nan,666.4532029,695.0661538,695.580665,nan,nan
0,20,17:13:41:873000,6,1,217,152.578125,[ 0.89125041  0.07353733  0.56804835],1,1,1,0.420714296,0,nan,nan,nan,nan,nan,nan,nan,nan,nan,nan,[ nan  nan  nan],nan,nan,nan,666.4532029,696.0079443,696.4286585,nan,nan
0,21,17:13:42:809000,6,1,369,259.453125,[-0.14769469  0.47799919 -0.05643387],1,1,1,0.454931451,0,nan,nan,nan,nan,nan,nan,nan,nan,nan,nan,[ nan  nan  nan],nan,nan,nan,666.4532029,696.949729,697.4046604,nan,nan
0,22,17:13:43:760000,6,1,310,217.96875,[-0.03285454  0.41708073  0.46882802],1,1,1,0.361126855,0,nan,nan,nan,nan,nan,nan,nan,nan,nan,nan,[ nan  nan  nan],nan,nan,nan,666.4532029,697.8915177,698.2526446,nan,nan
0,23,17:13:44:696000,6,1,443,311.484375,[ 0.28155878  0.41926821 -1.        ],1,1,1,0.339309459,0,nan,nan,nan,nan,nan,nan,nan,nan,nan,nan,[ nan  nan  nan],nan,nan,nan,666.4532029,698.8333107,699.1726202,nan,nan
0,24,17:13:45:632000,6,1,350,246.09375,[-0.17575682  0.46949094  0.13824748],1,1,1,0.301515751,0,nan,nan,nan,nan,nan,nan,nan,nan,nan,nan,[ nan  nan  nan],nan,nan,nan,666.4532029,699.7750926,700.0766084,nan,nan
0,25,17:13:46:584000,6,1,431,303.046875,[ 0.19195726  0.43918129 -0.98229877],1,1,1,0.335694133,0,nan,nan,nan,nan,nan,nan,nan,nan,nan,nan,[ nan  nan  nan],nan,nan,nan,666.4532029,700.7168842,701.0525783,nan,nan
0,26,17:13:47:520000,6,1,39,27.421875,[ 1.          0.02537899 -1.        ],1,1,1,0.329894103,0,nan,nan,nan,nan,nan,nan,nan,nan,nan,nan,[ nan  nan  nan],nan,nan,nan,666.4532029,701.6586726,701.9885667,nan,nan
0,27,17:13:48:456000,6,1,145,101.953125,[ 1.         -0.28166741  0.01505517],1,1,1,0.364094723,0,nan,nan,nan,nan,nan,nan,nan,nan,nan,nan,[ nan  nan  nan],nan,nan,nan,666.4532029,702.6004588,702.9645535,nan,nan
0,28,17:13:55:055000,6,1,319,224.296875,[-0.08918918  0.43330867  0.4061371 ],1,1,1,0.318307728,1,nan,nan,nan,nan,nan,nan,nan,nan,-121.0110693,300,[ 0.04335371  0.39574842  0.52895103],nan,-13.2858057,3.592428999,666.4532029,703.5422381,703.8605458,705.3757817,708.9762291
0,29,17:13:55:991000,6,1,386,271.40625,[-0.08339466  0.47749559 -0.24542474],1,1,1,0.5736325,0,nan,nan,nan,nan,nan,nan,nan,nan,nan,nan,[ nan  nan  nan],nan,nan,nan,666.4532029,710.1347734,710.7084059,nan,nan
0,30,17:13:56:942000,6,1,98,68.90625,[ 1.         -0.26382291 -0.48021779],1,1,1,0.359848191,0,nan,nan,nan,nan,nan,nan,nan,nan,nan,nan,[ nan  nan  nan],nan,nan,nan,666.4532029,711.0765533,711.4364015,nan,nan
0,31,17:13:57:878000,6,1,455,319.921875,[ 0.37560825  0.39487537 -1.        ],1,1,1,0.346040048,0,nan,nan,nan,nan,nan,nan,nan,nan,nan,nan,[ nan  nan  nan],nan,nan,nan,666.4532029,712.0183463,712.3643864,nan,nan
0,32,17:13:58:814000,6,1,244,171.5625,[ 0.61137236  0.20616355  0.64888072],1,1,1,0.292227834,0,nan,nan,nan,nan,nan,nan,nan,nan,nan,nan,[ nan  nan  nan],nan,nan,nan,666.4532029,712.9601376,713.2523655,nan,nan
0,33,17:13:59:766000,6,0,177,124.453125,[ 1.         -0.14519215  0.30692121],0,0,1,0.478416954,0,nan,nan,nan,nan,nan,nan,nan,nan,nan,nan,[ nan  nan  nan],nan,nan,nan,666.4532029,713.9019244,714.3803413,nan,nan
0,34,17:14:00:702000,6,1,22,15.46875,[ 1.          0.11184242 -1.        ],1,1,1,0.328622282,0,nan,nan,nan,nan,nan,nan,nan,nan,nan,nan,[ nan  nan  nan],nan,nan,nan,666.4532029,714.8437071,715.1723294,nan,nan
0,35,17:14:01:653000,6,1,444,312.1875,[ 0.2892412   0.41740978 -1.        ],1,1,1,0.346813519,0,nan,nan,nan,nan,nan,nan,nan,nan,nan,nan,[ nan  nan  nan],nan,nan,nan,666.4532029,715.7854893,716.1323028,nan,nan
0,36,17:14:02:589000,6,1,142,99.84375,[ 1.         -0.28956812 -0.01462735],1,1,1,0.373018855,0,nan,nan,nan,nan,nan,nan,nan,nan,nan,nan,[ nan  nan  nan],nan,nan,nan,666.4532029,716.7272837,717.1003025,nan,nan
0,37,17:14:03:525000,6,0,259,182.109375,[ 0.44882283  0.26890698  0.65501178],0,0,1,0.479188999,0,nan,nan,nan,nan,nan,nan,nan,nan,nan,nan,[ nan  nan  nan],nan,nan,nan,666.4532029,717.6690964,718.1482854,nan,nan
0,38,17:14:04:477000,6,1,2,1.40625,[ 0.86302458  0.20362286 -1.        ],1,1,1,0.417407446,0,nan,nan,nan,nan,nan,nan,nan,nan,nan,nan,[ nan  nan  nan],nan,nan,nan,666.4532029,718.6108654,719.0282729,nan,nan
0,39,17:14:05:413000,6,1,393,276.328125,[-0.04894566  0.47510217 -0.32744323],1,1,1,0.355599663,0,nan,nan,nan,nan,nan,nan,nan,nan,nan,nan,[ nan  nan  nan],nan,nan,nan,666.4532029,719.552649,719.9082487,nan,nan
0,40,17:14:06:349000,6,1,2,1.40625,[ 0.86302458  0.20362286 -1.        ],1,1,1,0.525793085,0,nan,nan,nan,nan,nan,nan,nan,nan,nan,nan,[ nan  nan  nan],nan,nan,nan,666.4532029,720.4944414,721.0202345,nan,nan
0,41,17:14:07:301000,6,0,198,139.21875,[ 1.         -0.0302355   0.46232694],0,0,1,0.479981856,0,nan,nan,nan,nan,nan,nan,nan,nan,nan,nan,[ nan  nan  nan],nan,nan,nan,666.4532029,721.4362393,721.9162212,nan,nan
0,42,17:14:08:237000,6,1,391,274.921875,[-0.0591908   0.47591628 -0.30371871],1,1,1,0.346178606,0,nan,nan,nan,nan,nan,nan,nan,nan,nan,nan,[ nan  nan  nan],nan,nan,nan,666.4532029,722.3780195,722.7241981,nan,nan
0,43,17:14:09:188000,6,1,282,198.28125,[ 0.20814231  0.34807905  0.6092955 ],1,1,1,0.332390135,0,nan,nan,nan,nan,nan,nan,nan,nan,nan,nan,[ nan  nan  nan],nan,nan,nan,666.4532029,723.3198051,723.6521952,nan,nan
0,44,17:14:10:124000,6,1,127,89.296875,[ 1.         -0.31111021 -0.16703665],1,1,1,0.358494262,0,nan,nan,nan,nan,nan,nan,nan,nan,nan,nan,[ nan  nan  nan],nan,nan,nan,666.4532029,724.2615969,724.6200912,nan,nan
0,45,17:14:11:060000,6,1,456,320.625,[ 0.38361243  0.39263319 -1.        ],1,1,1,0.440759523,0,nan,nan,nan,nan,nan,nan,nan,nan,nan,nan,[ nan  nan  nan],nan,nan,nan,666.4532029,725.2033839,725.6441435,nan,nan
0,46,17:14:12:012000,6,1,318,223.59375,[-0.08356276  0.43164026  0.41348156],1,1,1,0.370949045,0,nan,nan,nan,nan,nan,nan,nan,nan,nan,nan,[ nan  nan  nan],nan,nan,nan,666.4532029,726.1451735,726.5161226,nan,nan
0,47,17:14:12:948000,6,1,6,4.21875,[ 0.89512908  0.18627278 -1.        ],1,1,1,0.365156713,0,nan,nan,nan,nan,nan,nan,nan,nan,nan,nan,[ nan  nan  nan],nan,nan,nan,666.4532029,727.0869588,727.4521155,nan,nan
0,48,17:14:13:884000,6,1,240,168.75,[ 0.65437302  0.18801506  0.64246395],1,1,1,0.399327682,0,nan,nan,nan,nan,nan,nan,nan,nan,nan,nan,[ nan  nan  nan],nan,nan,nan,666.4532029,728.0287567,728.4280844,nan,nan
0,49,17:14:14:835000,6,1,486,341.71875,[ 0.63115176  0.30960306 -1.        ],1,1,1,0.385531799,0,nan,nan,nan,nan,nan,nan,nan,nan,nan,nan,[ nan  nan  nan],nan,nan,nan,666.4532029,728.9705528,729.3560846,nan,nan
0,50,17:14:15:771000,6,1,422,296.71875,[ 0.12832838  0.45131367 -0.73089489],1,1,1,0.403750975,0,nan,nan,nan,nan,nan,nan,nan,nan,nan,nan,[ nan  nan  nan],nan,nan,nan,666.4532029,729.912315,730.316066,nan,nan
0,51,17:14:16:723000,6,1,157,110.390625,[ 1.         -0.24004838  0.1304259 ],1,1,1,0.461941436,0,nan,nan,nan,nan,nan,nan,nan,nan,nan,nan,[ nan  nan  nan],nan,nan,nan,666.4532029,730.854114,731.3160555,nan,nan
0,52,17:14:17:659000,6,1,393,276.328125,[-0.04894566  0.47510217 -0.32744323],1,1,1,0.448134149,0,nan,nan,nan,nan,nan,nan,nan,nan,nan,nan,[ nan  nan  nan],nan,nan,nan,666.4532029,731.7959019,732.244036,nan,nan
0,53,17:14:18:595000,6,0,443,311.484375,[ 0.28155878  0.41926821 -1.        ],0,0,1,0.514333293,0,nan,nan,nan,nan,nan,nan,nan,nan,nan,nan,[ nan  nan  nan],nan,nan,nan,666.4532029,732.7376903,733.2520236,nan,nan
0,54,17:14:19:547000,6,1,128,90,[ 1.         -0.31066301 -0.15668979],1,1,1,0.388519909,0,nan,nan,nan,nan,nan,nan,nan,nan,nan,nan,[ nan  nan  nan],nan,nan,nan,666.4532029,733.6794742,734.0679941,nan,nan
0,55,17:14:20:483000,6,1,215,151.171875,[ 0.91063986  0.06289474  0.55869515],1,1,1,0.358729182,0,nan,nan,nan,nan,nan,nan,nan,nan,nan,nan,[ nan  nan  nan],nan,nan,nan,666.4532029,734.6212655,734.9799947,nan,nan
0,56,17:14:21:419000,6,1,330,232.03125,[-0.13976633  0.44951833  0.31954025],1,1,1,0.328926481,0,nan,nan,nan,nan,nan,nan,nan,nan,nan,nan,[ nan  nan  nan],nan,nan,nan,666.4532029,735.5630525,735.891979,nan,nan
0,57,17:14:22:370000,6,1,456,320.625,[ 0.38361243  0.39263319 -1.        ],1,1,1,0.363082056,0,nan,nan,nan,nan,nan,nan,nan,nan,nan,nan,[ nan  nan  nan],nan,nan,nan,666.4532029,736.5048606,736.8679427,nan,nan
0,58,17:14:23:306000,6,1,130,91.40625,[ 1.         -0.30933315 -0.13607149],1,1,1,0.373301672,0,nan,nan,nan,nan,nan,nan,nan,nan,nan,nan,[ nan  nan  nan],nan,nan,nan,666.4532029,737.4466294,737.8199311,nan,nan
0,59,17:14:24:258000,6,1,460,323.4375,[ 0.41584892  0.38333493 -1.        ],1,1,1,0.359502653,0,nan,nan,nan,nan,nan,nan,nan,nan,nan,nan,[ nan  nan  nan],nan,nan,nan,666.4532029,738.3884181,738.7479208,nan,nan
0,60,17:14:25:194000,6,1,26,18.28125,[ 1.          0.09209217 -1.        ],1,1,1,0.281696321,0,nan,nan,nan,nan,nan,nan,nan,nan,nan,nan,[ nan  nan  nan],nan,nan,nan,666.4532029,739.3302083,739.6119046,nan,nan
0,61,17:14:26:130000,6,1,364,255.9375,[-0.16019432  0.47670452 -0.00341125],1,1,1,0.299898961,0,nan,nan,nan,nan,nan,nan,nan,nan,nan,nan,[ nan  nan  nan],nan,nan,nan,666.4532029,740.2719896,740.5718886,nan,nan
0,62,17:14:30:981000,6,1,398,279.84375,[-0.02203778  0.4726088  -0.38794338],1,1,1,0.35809769,1,nan,nan,nan,nan,nan,nan,nan,nan,-158.7789147,354,[-0.17447067  0.47210079  0.09886772],nan,-31.06483534,1.842206338,666.4532029,741.2137835,741.5718811,743.0472966,744.8975555
0,63,17:14:31:917000,6,1,317,222.890625,[-0.07777284  0.42993861  0.42073361],1,1,1,0.395708936,0,nan,nan,nan,nan,nan,nan,nan,nan,nan,nan,[ nan  nan  nan],nan,nan,nan,666.4532029,746.056083,746.451792,nan,nan
0,64,17:14:32:853000,6,1,7,4.921875,[ 0.90309146  0.18185306 -1.        ],1,1,1,0.325925827,0,nan,nan,nan,nan,nan,nan,nan,nan,nan,nan,[ nan  nan  nan],nan,nan,nan,666.4532029,746.9978472,747.3237731,nan,nan
0,65,17:14:33:805000,6,1,183,128.671875,[ 1.         -0.113109    0.35490284],1,1,1,0.360104209,0,nan,nan,nan,nan,nan,nan,nan,nan,nan,nan,[ nan  nan  nan],nan,nan,nan,666.4532029,747.9396491,748.2997533,nan,nan
0,66,17:14:34:741000,6,1,457,321.328125,[ 0.39163925  0.39035818 -1.        ],1,1,1,0.362294901,0,nan,nan,nan,nan,nan,nan,nan,nan,nan,nan,[ nan  nan  nan],nan,nan,nan,666.4532029,748.8814332,749.2437281,nan,nan
0,67,17:14:35:693000,6,1,232,163.125,[ 0.73915824  0.15004662  0.62371202],1,1,1,0.356466076,0,nan,nan,nan,nan,nan,nan,nan,nan,nan,nan,[ nan  nan  nan],nan,nan,nan,666.4532029,749.8232431,750.1797091,nan,nan
0,68,17:14:36:629000,6,1,57,40.078125,[ 1.         -0.07073133 -1.        ],1,1,1,0.350683436,0,nan,nan,nan,nan,nan,nan,nan,nan,nan,nan,[ nan  nan  nan],nan,nan,nan,666.4532029,750.7650098,751.1156933,nan,nan
0,69,17:14:37:565000,6,1,192,135,[ 1.         -0.06359976  0.42165841],1,1,1,0.376878224,0,nan,nan,nan,nan,nan,nan,nan,nan,nan,nan,[ nan  nan  nan],nan,nan,nan,666.4532029,751.7068091,752.0836873,nan,nan
0,70,17:14:38:516000,6,1,156,109.6875,[ 1.         -0.24406061  0.12104147],1,1,1,0.451054691,0,nan,nan,nan,nan,nan,nan,nan,nan,nan,nan,[ nan  nan  nan],nan,nan,nan,666.4532029,752.6486001,753.0996548,nan,nan
0,71,17:14:39:452000,6,1,384,270,[-0.09247501  0.47794532 -0.22247927],1,1,1,0.42125256,0,nan,nan,nan,nan,nan,nan,nan,nan,nan,nan,[ nan  nan  nan],nan,nan,nan,666.4532029,753.5903843,754.0116368,nan,nan
0,72,17:14:40:388000,6,1,123,86.484375,[ 1.         -0.31144114 -0.20867286],1,1,1,0.407454396,0,nan,nan,nan,nan,nan,nan,nan,nan,nan,nan,[ nan  nan  nan],nan,nan,nan,666.4532029,754.5321784,754.9396328,nan,nan
0,73,17:14:41:340000,6,1,385,270.703125,[-0.08797966  0.47773344 -0.23392672],1,1,1,0.449665124,0,nan,nan,nan,nan,nan,nan,nan,nan,nan,nan,[ nan  nan  nan],nan,nan,nan,666.4532029,755.4739586,755.9236237,nan,nan
0,74,17:14:42:276000,6,1,491,345.234375,[ 0.67303348  0.29270771 -1.        ],1,1,1,0.363854101,0,nan,nan,nan,nan,nan,nan,nan,nan,nan,nan,[ nan  nan  nan],nan,nan,nan,666.4532029,756.4157496,756.7796037,nan,nan
0,75,17:14:43:227000,6,1,44,30.9375,[ 1.         -0.00106984 -1.        ],1,1,1,0.334027452,0,nan,nan,nan,nan,nan,nan,nan,nan,nan,nan,[ nan  nan  nan],nan,nan,nan,666.4532029,757.3575566,757.691584,nan,nan
0,76,17:14:44:163000,6,1,189,132.890625,[ 1.         -0.08021946  0.40014347],1,1,1,0.328234549,0,nan,nan,nan,nan,nan,nan,nan,nan,nan,nan,[ nan  nan  nan],nan,nan,nan,666.4532029,758.2993208,758.6275553,nan,nan
0,77,17:14:45:099000,6,1,16,11.25,[ 0.97341943  0.14065211 -1.        ],1,1,1,0.338431358,0,nan,nan,nan,nan,nan,nan,nan,nan,nan,nan,[ nan  nan  nan],nan,nan,nan,666.4532029,759.2411149,759.5795463,nan,nan
0,78,17:14:46:051000,6,1,68,47.8125,[ 1.         -0.12901814 -0.9729032 ],1,1,1,0.380627261,0,nan,nan,nan,nan,nan,nan,nan,nan,nan,nan,[ nan  nan  nan],nan,nan,nan,666.4532029,760.1829034,760.5635306,nan,nan
0,79,17:14:46:987000,6,1,292,205.3125,[ 0.11288167  0.37606958  0.56926185],1,1,1,0.310811081,0,nan,nan,nan,nan,nan,nan,nan,nan,nan,nan,[ nan  nan  nan],nan,nan,nan,666.4532029,761.1246958,761.4355069,nan,nan
0,80,17:14:47:923000,6,1,190,133.59375,[ 1.         -0.07468844  0.40739964],1,1,1,0.297008925,0,0,0,0.329482422,0.394303525,0.085474059,0.479777583,0.308829466,nan,nan,nan,[ nan  nan  nan],nan,nan,nan,666.4532029,762.0664834,762.3634923,nan,nan
0,81,17:14:48:875000,6,1,280,196.875,[ 0.22808935  0.34201885  0.61587222],1,1,1,0.283214752,0,1,0,0.297011586,0.393102357,0.085621515,0.478723872,0.307480842,nan,nan,nan,[ nan  nan  nan],nan,nan,nan,666.4532029,763.0082695,763.2914843,nan,nan
0,82,17:14:57:049000,6,1,331,232.734375,[-0.14329784  0.45080175  0.31116671],1,1,1,0.3253964,1,0,0,0.301873359,0.391762264,0.085948267,0.477710531,0.305813997,nan,-144.1131556,333,[-0.14981348  0.45327595  0.29418374],nan,1.378780575,5.192646016,666.4532029,763.9500574,764.2754538,765.7752554,770.9759306
0,83,17:14:57:985000,6,1,37,26.015625,[ 1.          0.03585655 -1.        ],1,1,1,0.4452233,0,0,0,0.351278151,0.390962675,0.085735229,0.476697904,0.305227447,nan,nan,nan,[ nan  nan  nan],nan,nan,nan,666.4532029,772.1261039,772.5713272,nan,nan
0,84,17:14:58:937000,6,1,385,270.703125,[-0.08797966  0.47773344 -0.23392672],1,1,1,0.319409631,0,0,0,0.36334311,0.391608635,0.085426319,0.477034954,0.306182316,nan,nan,nan,[ nan  nan  nan],nan,nan,nan,666.4532029,773.067902,773.3873117,nan,nan
0,85,17:14:59:873000,6,0,433,304.453125,[ 0.2065363   0.43616372 -1.        ],0,1,0,0.329588763,0,0,0,0.364740565,0.390759235,0.085278401,0.476037636,0.305480834,nan,nan,nan,[ nan  nan  nan],nan,nan,nan,666.4532029,774.0096948,774.3392835,nan,nan
0,86,17:15:00:809000,6,1,92,64.6875,[ 1.         -0.24170366 -0.55060884],1,1,1,0.515784441,0,0,0,0.388260945,0.39004795,0.085034384,0.475082334,0.305013567,nan,nan,nan,[ nan  nan  nan],nan,nan,nan,666.4532029,774.9514786,775.4672631,nan,nan
0,87,17:15:01:760000,6,1,502,352.96875,[ 0.76474094  0.25241358 -1.        ],1,1,1,0.39798031,0,0,0,0.414451171,0.391493197,0.085600028,0.477093225,0.305893169,nan,nan,nan,[ nan  nan  nan],nan,nan,nan,666.4532029,775.8932731,776.2912534,nan,nan
0,88,17:15:02:696000,6,1,74,52.03125,[ 1.         -0.15971516 -0.81044328],1,1,1,0.512178239,0,0,0,0.47531433,0.391566915,0.085115052,0.476681967,0.306451863,nan,nan,nan,[ nan  nan  nan],nan,nan,nan,666.4532029,776.8350521,777.3472303,nan,nan
0,89,17:15:03:632000,6,1,352,247.5,[-0.17544713  0.4708516   0.11867359],1,1,1,0.594379068,0,0,1,0.501512539,0.392922098,0.085584966,0.478507064,0.307337132,nan,nan,nan,[ nan  nan  nan],nan,nan,nan,666.4532029,777.776834,778.371213,nan,nan
0,90,17:15:09:264000,6,0,125,87.890625,[ 1.         -0.31156743 -0.18780506],0,0,1,0.492569781,1,0,0,0.533042362,0.395160509,0.087688841,0.48284935,0.307471668,nan,-33.84534026,176,[ 1.         -0.15042967  0.29867547],nan,35.95471526,2.625661712,666.4532029,778.7186375,779.2112073,780.5521472,783.1858422
0,91,17:15:10:200000,6,1,283,198.984375,[ 0.19826868  0.35105092  0.60582595],1,1,1,0.362723973,0,0,0,0.483224274,0.39623094,0.087794981,0.484025922,0.308435959,nan,nan,nan,[ nan  nan  nan],nan,nan,nan,666.4532029,784.3443605,784.7070845,nan,nan
0,92,17:15:11:151000,6,0,412,289.6875,[ 0.06188912  0.46209661 -0.57115894],0,1,0,0.364938328,0,0,0,0.406744027,0.395866734,0.087385625,0.483252359,0.30848111,nan,nan,nan,[ nan  nan  nan],nan,nan,nan,666.4532029,785.2861493,785.6510876,nan,nan
0,93,17:15:12:087000,6,1,472,331.875,[ 0.51429865  0.35221228 -1.        ],1,1,1,0.463123737,0,0,0,0.396928679,0.395534171,0.086973055,0.482507226,0.308561116,nan,nan,nan,[ nan  nan  nan],nan,nan,nan,666.4532029,786.2279326,786.6910563,nan,nan
0,94,17:15:13:039000,6,1,240,168.75,[ 0.65437302  0.18801506  0.64246395],1,1,1,0.409282158,0,0,0,0.412448074,0.396253209,0.086786654,0.483039863,0.309466555,nan,nan,nan,[ nan  nan  nan],nan,nan,nan,666.4532029,787.1697529,787.5790351,nan,nan
0,95,17:15:13:975000,6,1,182,127.96875,[ 1.         -0.11852384  0.34708947],1,1,1,0.379521081,0,0,0,0.417308992,0.396390355,0.086338913,0.482729269,0.310051442,nan,nan,nan,[ nan  nan  nan],nan,nan,nan,666.4532029,788.1115194,788.4910405,nan,nan
0,96,17:15:14:911000,6,1,369,259.453125,[-0.14769469  0.47799919 -0.05643387],1,1,1,0.397708042,0,0,0,0.39550376,0.396214634,0.08590513,0.482119764,0.310309504,nan,nan,nan,[ nan  nan  nan],nan,nan,nan,666.4532029,789.0533147,789.4510228,nan,nan
0,97,17:15:15:863000,6,1,282,198.28125,[ 0.20814231  0.34807905  0.6092955 ],1,1,1,0.495908276,0,0,0,0.424379133,0.39623003,0.085461306,0.481691336,0.310768724,nan,nan,nan,[ nan  nan  nan],nan,nan,nan,666.4532029,789.995104,790.4910123,nan,nan
0,98,17:15:16:799000,6,1,43,30.234375,[ 1.          0.00424534 -1.        ],1,1,1,0.514101794,0,0,0,0.46923937,0.397247155,0.085612257,0.482859412,0.311634898,nan,nan,nan,[ nan  nan  nan],nan,nan,nan,666.4532029,790.9368819,791.4509837,nan,nan
0,99,17:15:17:735000,6,1,268,188.4375,[ 0.35230222  0.30236752  0.64500531],1,1,1,0.59629236,0,0,1,0.535434143,0.398427505,0.085976507,0.484404012,0.312450998,nan,nan,nan,[ nan  nan  nan],nan,nan,nan,666.4532029,791.8786686,792.474961,nan,nan
0,100,17:15:23:678000,6,1,404,284.0625,[ 0.01248946  0.46874627 -0.4633491 ],1,1,1,0.606482041,1,0,0,0.572292065,0.400406153,0.087781719,0.488187872,0.312624434,nan,-177.7652011,381,[-0.10540306  0.47842508 -0.18843114],nan,-16.29729886,2.942356071,666.4532029,792.8204568,793.4269388,794.6539728,797.6043683
0,101,17:15:24:614000,6,1,178,125.15625,[ 1.         -0.13991966  0.31509783],1,1,1,0.44829751,0,0,0,0.550357304,0.402446509,0.089697501,0.49214401,0.312749007,nan,nan,nan,[ nan  nan  nan],nan,nan,nan,666.4532029,798.754551,799.2028485,nan,nan
0,102,17:15:25:566000,6,1,35,24.609375,[ 1.          0.04626536 -1.        ],1,1,1,0.66648715,0,0,0,0.573755567,0.402896028,0.089370978,0.492267007,0.31352505,nan,nan,nan,[ nan  nan  nan],nan,nan,nan,666.4532029,799.6963477,800.3628349,nan,nan
0,103,17:15:26:502000,6,1,269,189.140625,[ 0.34171297  0.30588835  0.64326235],1,1,1,0.63667219,0,0,1,0.58381895,0.405455165,0.092615566,0.498070731,0.312839599,nan,nan,nan,[ nan  nan  nan],nan,nan,nan,666.4532029,800.638133,801.2748052,nan,nan
0,104,17:15:30:761000,6,1,195,137.109375,[ 1.         -0.04692453  0.44239605],1,1,1,0.582873661,1,0,0,0.628677667,0.407678406,0.094890853,0.502569259,0.312787553,nan,-68.40468955,225,[ 0.81146625  0.11513113  0.60098195],nan,21.29531455,1.275453819,666.4532029,801.5799257,802.1627994,803.4051035,804.6885951
0,105,17:15:31:697000,6,1,374,262.96875,[-0.13203913  0.47863408 -0.11062844],1,1,1,0.507907473,0,0,0,0.575817775,0.409346932,0.0959586,0.505305532,0.313388332,nan,nan,nan,[ nan  nan  nan],nan,nan,nan,666.4532029,805.8387957,806.3467032,nan,nan
0,106,17:15:32:648000,6,1,253,177.890625,[ 0.5138659   0.24483993  0.65597719],1,1,1,0.398093494,0,0,0,0.496291543,0.410276749,0.095978972,0.506255721,0.314297776,nan,nan,nan,[ nan  nan  nan],nan,nan,nan,666.4532029,806.7806044,807.1786979,nan,nan
0,107,17:15:33:584000,6,1,474,333.28125,[ 0.53090176  0.34654538 -1.        ],1,1,1,0.320301417,0,0,0,0.408767461,0.410162886,0.095536612,0.505699499,0.314626274,nan,nan,nan,[ nan  nan  nan],nan,nan,nan,666.4532029,807.7223851,808.0426866,nan,nan
0,108,17:15:34:520000,6,1,319,224.296875,[-0.08918918  0.43330867  0.4061371 ],1,1,1,0.474518242,0,0,0,0.397637717,0.409330836,0.095481986,0.504812822,0.313848849,nan,nan,nan,[ nan  nan  nan],nan,nan,nan,666.4532029,808.6641602,809.1386784,nan,nan
0,109,17:15:35:472000,6,1,239,168.046875,[ 0.66506983  0.18338886  0.64054927],1,1,1,0.46069955,0,0,0,0.418506403,0.409928885,0.095245981,0.505174866,0.314682904,nan,nan,nan,[ nan  nan  nan],nan,nan,nan,666.4532029,809.6059674,810.066667,nan,nan
0,110,17:15:36:408000,6,1,441,310.078125,[ 0.26628726  0.42289189 -1.        ],1,1,1,0.542908933,0,0,0,0.492708908,0.410390437,0.094934431,0.505324868,0.315456005,nan,nan,nan,[ nan  nan  nan],nan,nan,nan,666.4532029,810.5477399,811.0906488,nan,nan
0,111,17:15:37:360000,6,1,225,158.203125,[ 0.81146625  0.11513113  0.60098195],1,1,1,0.53708524,0,0,1,0.513564574,0.411584297,0.095331713,0.50691601,0.316252584,nan,nan,nan,[ nan  nan  nan],nan,nan,nan,666.4532029,811.4895452,812.0266304,nan,nan
0,112,17:15:41:946000,6,1,102,71.71875,[ 1.         -0.27661034 -0.43492695],1,1,1,0.515274971,1,0,0,0.531756381,0.412704841,0.095636631,0.508341472,0.317068211,nan,-36.75655303,180,[ 1.         -0.12927862  0.33123896],nan,55.03780303,1.600500119,666.4532029,812.4313308,812.9466057,814.2565065,815.865047
0,113,17:15:42:882000,6,1,52,36.5625,[ 1.         -0.04388606 -1.        ],1,1,1,0.426926862,0,0,0,0.493095691,0.413612542,0.095695887,0.509308429,0.317916654,nan,nan,nan,[ nan  nan  nan],nan,nan,nan,666.4532029,817.0235947,817.4505216,nan,nan
0,114,17:15:43:834000,6,0,288,202.5,[ 0.15000513  0.36533195  0.58668724],0,0,1,0.525145058,0,0,0,0.48911563,0.413729334,0.095283333,0.509012666,0.318446001,nan,nan,nan,[ nan  nan  nan],nan,nan,nan,666.4532029,817.965362,818.4905071,nan,nan
0,115,17:15:44:770000,6,1,156,109.6875,[ 1.         -0.24406061  0.12104147],1,1,1,0.351327472,0,0,0,0.434466464,0.414698166,0.095430451,0.510128617,0.319267715,nan,nan,nan,[ nan  nan  nan],nan,nan,nan,666.4532029,818.9071645,819.2584919,nan,nan
0,116,17:15:45:706000,6,0,466,327.65625,[ 0.46478901  0.3683856  -1.        ],0,0,1,0.497511951,0,0,0,0.457994827,0.414151867,0.095198653,0.50935052,0.318953214,nan,nan,nan,[ nan  nan  nan],nan,nan,nan,666.4532029,819.8489535,820.3464654,nan,nan
0,117,17:15:46:657000,6,1,10,7.03125,[ 0.9268115   0.16840058 -1.        ],1,1,1,0.44370829,0,0,0,0.430849238,0.414864346,0.095101044,0.50996539,0.319763303,nan,nan,nan,[ nan  nan  nan],nan,nan,nan,666.4532029,820.7907408,821.2344491,nan,nan
0,118,17:15:47:593000,6,1,148,104.0625,[ 1.         -0.27269559  0.04442646],1,1,1,0.565915472,0,0,0,0.502378571,0.415108787,0.09473412,0.509842907,0.320374666,nan,nan,nan,[ nan  nan  nan],nan,nan,nan,666.4532029,821.7325292,822.2984447,nan,nan
0,119,17:15:48:545000,6,1,350,246.09375,[-0.17575682  0.46949094  0.13824748],1,1,1,0.480096751,0,0,0,0.496573504,0.41637607,0.09533439,0.511710459,0.32104168,nan,nan,nan,[ nan  nan  nan],nan,nan,nan,666.4532029,822.6743176,823.1544144,nan,nan
0,120,17:15:49:481000,6,1,440,309.375,[ 0.2586994  0.4246574 -1.       ],1,1,1,0.426303068,0,0,0,0.490771764,0.416907075,0.095112887,0.512019962,0.321794189,nan,nan,nan,[ nan  nan  nan],nan,nan,nan,666.4532029,823.6161072,824.0424103,nan,nan
0,121,17:15:50:417000,6,1,258,181.40625,[ 0.45964229  0.26499291  0.65549006],1,1,1,0.444484612,0,0,0,0.45029481,0.416984728,0.094722862,0.511707591,0.322261866,nan,nan,nan,[ nan  nan  nan],nan,nan,nan,666.4532029,824.5578934,825.002378,nan,nan
0,122,17:15:51:368000,6,1,391,274.921875,[-0.0591908   0.47591628 -0.30371871],1,1,1,0.406659543,0,0,0,0.425815741,0.417210137,0.094366436,0.511576573,0.322843702,nan,nan,nan,[ nan  nan  nan],nan,nan,nan,666.4532029,825.4997086,825.9063682,nan,nan
0,123,17:15:52:304000,6,1,193,135.703125,[ 1.         -0.05804539  0.42865879],1,1,1,0.328873168,0,0,0,0.393339108,0.41712436,0.093986825,0.511111185,0.323137535,nan,nan,nan,[ nan  nan  nan],nan,nan,nan,666.4532029,826.4414669,826.77034,nan,nan
0,124,17:15:53:240000,6,0,108,75.9375,[ 1.         -0.29242661 -0.36866329],0,1,0,0.331037631,0,0,0,0.355523447,0.416412657,0.093939274,0.510351931,0.322473382,nan,nan,nan,[ nan  nan  nan],nan,nan,nan,666.4532029,827.3832929,827.7143306,nan,nan
0,125,17:15:54:192000,6,1,379,266.484375,[-0.11353594  0.47861499 -0.16597052],1,1,1,0.46926788,0,0,0,0.376392893,0.415729657,0.093871376,0.509601033,0.321858281,nan,nan,nan,[ nan  nan  nan],nan,nan,nan,666.4532029,828.3250469,828.7943148,nan,nan
0,126,17:15:55:128000,6,0,460,323.4375,[ 0.41584892  0.38333493 -1.        ],0,0,1,0.543465444,0,0,0,0.447923652,0.416154563,0.093618739,0.509773302,0.322535824,nan,nan,nan,[ nan  nan  nan],nan,nan,nan,666.4532029,829.2668399,829.8103053,nan,nan
0,127,17:15:56:080000,6,1,208,146.25,[ 0.97651258  0.02502074  0.52257448],1,1,1,0.369667815,0,0,0,0.46080038,0.417157011,0.093925898,0.511082909,0.323231113,nan,nan,nan,[ nan  nan  nan],nan,nan,nan,666.4532029,830.2086266,830.5782944,nan,nan
0,128,17:15:57:016000,6,1,492,345.9375,[ 0.68140332  0.28922202 -1.        ],1,1,1,0.339856276,0,0,0,0.417663179,0.416786002,0.093651658,0.51043766,0.323134343,nan,nan,nan,[ nan  nan  nan],nan,nan,nan,666.4532029,831.1504153,831.4902716,nan,nan
0,129,17:15:57:952000,6,1,439,308.671875,[ 0.25114429  0.4263922  -1.        ],1,1,1,0.358043807,0,0,0,0.355855966,0.416189647,0.093531628,0.509721275,0.322658019,nan,nan,nan,[ nan  nan  nan],nan,nan,nan,666.4532029,832.0922066,832.4502504,nan,nan
0,130,17:15:58:903000,6,1,265,186.328125,[ 0.38425915  0.29156831  0.64947886],1,1,1,0.376210525,0,0,0,0.35803687,0.415742371,0.093309587,0.509051959,0.322432784,nan,nan,nan,[ nan  nan  nan],nan,nan,nan,666.4532029,833.034019,833.4102295,nan,nan
0,131,17:15:59:839000,6,1,147,103.359375,[ 1.         -0.27580113  0.03467205],1,1,1,0.394437684,0,0,0,0.376230672,0.415440602,0.09301642,0.508457021,0.322424182,nan,nan,nan,[ nan  nan  nan],nan,nan,nan,666.4532029,833.9757789,834.3702166,nan,nan
0,132,17:16:00:775000,6,1,286,201.09375,[ 0.16907896  0.35973478  0.59469871],1,1,1,0.364644677,0,0,0,0.378430962,0.415281489,0.092681309,0.507962797,0.32260018,nan,nan,nan,[ nan  nan  nan],nan,nan,nan,666.4532029,834.9175682,835.2822129,nan,nan
0,133,17:16:01:727000,6,1,346,243.28125,[-0.17431756  0.46643129  0.17667017],1,1,1,0.35886717,0,0,0,0.372649844,0.414900761,0.092435782,0.507336542,0.322464979,nan,nan,nan,[ nan  nan  nan],nan,nan,nan,666.4532029,835.8593259,836.2181931,nan,nan
0,134,17:16:02:663000,6,1,403,283.359375,[ 0.00657627  0.46945644 -0.45052451],1,1,1,0.345029947,0,0,0,0.356180598,0.4144826,0.092216408,0.506699008,0.322266191,nan,nan,nan,[ nan  nan  nan],nan,nan,nan,666.4532029,836.8011448,837.1461748,nan,nan
0,135,17:16:03:599000,6,1,281,197.578125,[ 0.2180834   0.34506839  0.61264442],1,1,1,0.363218047,0,0,0,0.355705055,0.413968136,0.092067044,0.506035179,0.321901092,nan,nan,nan,[ nan  nan  nan],nan,nan,nan,666.4532029,837.742935,838.106153,nan,nan
0,136,17:16:04:550000,6,1,16,11.25,[ 0.97341943  0.14065211 -1.        ],1,1,1,0.365419858,0,0,0,0.357889284,0.413594973,0.091830351,0.505425324,0.321764622,nan,nan,nan,[ nan  nan  nan],nan,nan,nan,666.4532029,838.6847206,839.0501404,nan,nan
0,137,17:16:05:486000,6,1,309,217.265625,[-0.02583963  0.41510654  0.4753057 ],1,1,1,0.399609929,0,0,0,0.376082611,0.41324333,0.091586444,0.504829774,0.321656886,nan,nan,nan,[ nan  nan  nan],nan,nan,nan,666.4532029,839.6265096,840.0261195,nan,nan
0,138,17:16:06:438000,6,1,458,322.03125,[ 0.39968805  0.38805021 -1.        ],1,1,1,0.385761017,0,0,0,0.383596935,0.413144537,0.091261332,0.504405869,0.321883205,nan,nan,nan,[ nan  nan  nan],nan,nan,nan,666.4532029,840.5683525,840.9541135,nan,nan
0,139,17:16:07:374000,6,1,373,262.265625,[-0.13540771  0.47855957 -0.09969749],1,1,1,0.356015336,0,0,0,0.380462094,0.412947533,0.090961906,0.503909439,0.321985628,nan,nan,nan,[ nan  nan  nan],nan,nan,nan,666.4532029,841.5100882,841.8661035,nan,nan
0,140,17:16:08:310000,6,1,235,165.234375,[ 0.70759192  0.16453778  0.63165963],1,1,1,0.342194934,0,0,0,0.361323762,0.412540875,0.090763178,0.503304053,0.321777697,nan,nan,nan,[ nan  nan  nan],nan,nan,nan,666.4532029,842.4518758,842.7940707,nan,nan
0,141,17:16:09:262000,6,1,480,337.5,[ 0.58092807  0.32870764 -1.        ],1,1,1,0.392400946,0,0,0,0.363537072,0.412041968,0.090633197,0.502675165,0.32140877,nan,nan,nan,[ nan  nan  nan],nan,nan,nan,666.4532029,843.3936639,843.7860649,nan,nan
0,142,17:16:10:198000,6,1,101,71.015625,[ 1.         -0.27357267 -0.44615261],1,1,1,0.370590677,0,0,0,0.368395519,0.41190365,0.090328435,0.502232086,0.321575215,nan,nan,nan,[ nan  nan  nan],nan,nan,nan,666.4532029,844.3354544,844.706045,nan,nan
0,143,17:16:11:134000,6,1,156,109.6875,[ 1.         -0.24406061  0.12104147],1,1,1,0.32479855,0,0,0,0.362596724,0.411614749,0.090077859,0.501692607,0.32153689,nan,nan,nan,[ nan  nan  nan],nan,nan,nan,666.4532029,845.2772263,845.6020248,nan,nan
0,144,17:16:12:085000,6,1,61,42.890625,[ 1.        -0.0921164 -1.       ],1,1,1,0.36698419,0,0,0,0.354124472,0.411011858,0.090053598,0.501065456,0.320958261,nan,nan,nan,[ nan  nan  nan],nan,nan,nan,666.4532029,846.2190347,846.5860189,nan,nan
0,145,17:16:13:021000,6,1,250,175.78125,[ 0.54642845  0.23228666  0.65474773],1,1,1,0.393159591,0,0,0,0.361647443,0.410708219,0.089816469,0.500524688,0.32089175,nan,nan,nan,[ nan  nan  nan],nan,nan,nan,666.4532029,847.160822,847.5539816,nan,nan
0,146,17:16:13:973000,6,1,49,34.453125,[ 1.         -0.02778543 -1.        ],1,1,1,0.395317496,0,0,0,0.385153759,0.410588023,0.089520051,0.500108074,0.321067972,nan,nan,nan,[ nan  nan  nan],nan,nan,nan,666.4532029,848.1026463,848.4979638,nan,nan
0,147,17:16:14:909000,6,1,402,282.65625,[ 0.00072492  0.47013996 -0.43781156],1,1,1,0.381553829,0,0,0,0.390010305,0.410484142,0.089223871,0.499708013,0.321260271,nan,nan,nan,[ nan  nan  nan],nan,nan,nan,666.4532029,849.0443949,849.4259487,nan,nan
0,148,17:16:15:845000,6,1,354,248.90625,[-0.17447067  0.47210079  0.09886772],1,1,1,0.447749837,0,0,0,0.408207054,0.410288667,0.088953506,0.499242173,0.321335161,nan,nan,nan,[ nan  nan  nan],nan,nan,nan,666.4532029,849.9861867,850.4339366,nan,nan
0,149,17:16:16:796000,6,0,89,62.578125,[ 1.         -0.2294841  -0.58737049],0,0,1,0.553941363,0,0,0,0.461081676,0.410540084,0.088707248,0.499247332,0.321832836,nan,nan,nan,[ nan  nan  nan],nan,nan,nan,666.4532029,850.9279715,851.4819128,nan,nan
0,150,17:16:17:732000,6,1,166,116.71875,[ 1.         -0.20036215  0.21267421],1,1,1,0.436138373,0,0,0,0.479276524,0.411496093,0.089177884,0.500673976,0.322318209,nan,nan,nan,[ nan  nan  nan],nan,nan,nan,666.4532029,851.8697576,852.305896,nan,nan
0,151,17:16:18:668000,6,1,443,311.484375,[ 0.28155878  0.41926821 -1.        ],1,1,1,0.438338188,0,0,0,0.476139308,0.411659287,0.088904572,0.500563859,0.322754714,nan,nan,nan,[ nan  nan  nan],nan,nan,nan,666.4532029,852.8115512,853.2498894,nan,nan
0,152,17:16:19:620000,6,1,130,91.40625,[ 1.         -0.30933315 -0.13607149],1,1,1,0.568543504,0,0,0,0.481006688,0.411834806,0.088637885,0.50047269,0.323196921,nan,nan,nan,[ nan  nan  nan],nan,nan,nan,666.4532029,853.7533379,854.3218814,nan,nan
0,153,17:16:20:556000,6,1,185,130.078125,[ 1.         -0.10221447  0.37029995],1,1,1,0.498752982,0,0,0,0.501878224,0.412859045,0.089245628,0.502104673,0.323613418,nan,nan,nan,[ nan  nan  nan],nan,nan,nan,666.4532029,854.6950947,855.1938477,nan,nan
0,154,17:16:21:508000,6,1,69,48.515625,[ 1.         -0.1342072  -0.93964801],1,1,1,0.420877371,0,0,0,0.496057952,0.413416798,0.089222526,0.502639325,0.324194272,nan,nan,nan,[ nan  nan  nan],nan,nan,nan,666.4532029,855.6369693,856.0578466,nan,nan
0,155,17:16:22:444000,6,0,214,150.46875,[ 0.92024366  0.05754104  0.55385485],0,0,1,0.495123687,0,0,0,0.47158468,0.413464931,0.088936252,0.502401183,0.324528679,nan,nan,nan,[ nan  nan  nan],nan,nan,nan,666.4532029,856.5787015,857.0738252,nan,nan
0,156,17:16:23:380000,6,1,79,55.546875,[ 1.         -0.18429602 -0.72417078],1,1,1,0.393312974,0,0,0,0.436438011,0.413988385,0.088889957,0.502878342,0.325098427,nan,nan,nan,[ nan  nan  nan],nan,nan,nan,666.4532029,857.5204937,857.9138067,nan,nan
0,157,17:16:24:331000,6,1,250,175.78125,[ 0.54642845  0.23228666  0.65474773],1,1,1,0.363506566,0,0,0,0.417314409,0.413856694,0.088621681,0.502478375,0.325235013,nan,nan,nan,[ nan  nan  nan],nan,nan,nan,666.4532029,858.4622838,858.8257904,nan,nan
0,158,17:16:25:267000,6,1,301,211.640625,[ 0.03515994  0.39804276  0.52341451],1,1,1,0.421693036,0,0,0,0.392837525,0.413538022,0.088430981,0.501969003,0.325107042,nan,nan,nan,[ nan  nan  nan],nan,nan,nan,666.4532029,859.4040709,859.8257639,nan,nan
0,159,17:16:26:203000,6,1,46,32.34375,[ 1.         -0.01173137 -1.        ],1,1,1,0.327893857,0,0,0,0.371031153,0.413589312,0.088154815,0.501744127,0.325434497,nan,nan,nan,[ nan  nan  nan],nan,nan,nan,666.4532029,860.3458633,860.6737571,nan,nan
0,160,17:16:27:155000,6,1,395,277.734375,[-0.03839842  0.47418351 -0.35142722],1,1,1,0.282102015,0,0,0,0.343896303,0.413053715,0.08813803,0.501191745,0.324915686,nan,nan,nan,[ nan  nan  nan],nan,nan,nan,666.4532029,861.2876358,861.5697378,nan,nan
0,161,17:16:28:091000,6,1,183,128.671875,[ 1.         -0.113109    0.35490284],1,1,1,0.33228864,0,1,0,0.314094837,0.412240351,0.088464184,0.500704534,0.323776167,nan,nan,nan,[ nan  nan  nan],nan,nan,nan,666.4532029,862.2294365,862.5617251,nan,nan
0,162,17:16:33:613000,6,0,427,300.234375,[ 0.16326517  0.44486322 -0.84020871],0,0,1,0.510467937,1,0,0,0.374952864,0.411746822,0.088412774,0.500159596,0.323334048,nan,174.9078849,391,[-0.0591908   0.47591628 -0.30371871],nan,-25.14225988,2.525638847,666.4532029,863.1712372,863.6817051,865.0047378,867.5384417
0,163,17:16:34:549000,6,1,298,209.53125,[ 0.06008966  0.39105034  0.53969689],1,1,1,0.648982144,0,0,0,0.49724624,0.412352473,0.088477604,0.500830076,0.323874869,nan,nan,nan,[ nan  nan  nan],nan,nan,nan,666.4532029,868.688605,869.3375872,nan,nan
0,164,17:16:35:501000,6,1,42,29.53125,[ 1.          0.00954879 -1.        ],1,1,1,0.587183484,0,0,0,0.582211188,0.413795336,0.090110463,0.503905799,0.323684874,nan,nan,nan,[ nan  nan  nan],nan,nan,nan,666.4532029,869.6303972,870.2175807,nan,nan
0,165,17:16:36:437000,6,0,179,125.859375,[ 1.         -0.13461442  0.32320413],0,0,1,0.565382624,0,0,0,0.600516084,0.414846174,0.090839322,0.505685496,0.324006851,nan,nan,nan,[ nan  nan  nan],nan,nan,nan,666.4532029,870.5721785,871.1375611,nan,nan
0,166,17:16:37:373000,6,1,262,184.21875,[ 0.41645248  0.28041442  0.65281554],1,1,1,0.415577973,0,0,0,0.522714694,0.41575302,0.091311357,0.507064377,0.324441663,nan,nan,nan,[ nan  nan  nan],nan,nan,nan,666.4532029,871.5139701,871.9295481,nan,nan
0,167,17:16:38:324000,6,1,510,358.59375,[ 0.83055446  0.2204367  -1.        ],1,1,1,0.401749873,0,0,0,0.46090349,0.415751972,0.09103756,0.506789532,0.324714411,nan,nan,nan,[ nan  nan  nan],nan,nan,nan,666.4532029,872.4557805,872.8575303,nan,nan
0,168,17:16:39:260000,6,1,332,233.4375,[-0.14664709  0.45205424  0.30271419],1,1,1,0.411967779,0,0,0,0.409765209,0.415668626,0.090772601,0.506441227,0.324896025,nan,nan,nan,[ nan  nan  nan],nan,nan,nan,666.4532029,873.3975529,873.8095207,nan,nan
0,169,17:16:40:196000,6,1,499,350.859375,[ 0.73983189  0.26382776 -1.        ],1,1,1,0.36621186,0,0,0,0.393309837,0.415646727,0.09050409,0.506150817,0.325142637,nan,nan,nan,[ nan  nan  nan],nan,nan,nan,666.4532029,874.3393015,874.7055133,nan,nan
0,170,17:16:41:148000,6,1,316,222.1875,[-0.07182156  0.42820351  0.42789226],1,1,1,0.456362357,0,0,0,0.411513999,0.415355934,0.090316658,0.505672592,0.325039276,nan,nan,nan,[ nan  nan  nan],nan,nan,nan,666.4532029,875.2811273,875.7374896,nan,nan
0,171,17:16:42:084000,6,1,226,158.90625,[ 0.80126593  0.12020899  0.60458277],1,1,1,0.37058583,0,0,0,0.397720016,0.415595738,0.09010645,0.505702188,0.325489287,nan,nan,nan,[ nan  nan  nan],nan,nan,nan,666.4532029,876.2229032,876.593489,nan,nan
0,172,17:16:43:036000,6,1,36,25.3125,[ 1.          0.04106996 -1.        ],1,1,1,0.268759722,0,0,0,0.36523597,0.415334052,0.089909276,0.505243328,0.325424776,nan,nan,nan,[ nan  nan  nan],nan,nan,nan,666.4532029,877.1647056,877.4334653,nan,nan
0,173,17:16:43:972000,6,0,248,174.375,[ 0.5681159   0.2237282   0.65329577],0,0,1,0.398965893,0,0,0,0.346103815,0.414486802,0.090335036,0.504821838,0.324151766,nan,nan,nan,[ nan  nan  nan],nan,nan,nan,666.4532029,878.10648,878.5054459,nan,nan
0,174,17:16:44:908000,6,1,377,265.078125,[-0.12125986  0.47870083 -0.1436959 ],1,1,1,0.321144166,0,0,0,0.32962326,0.414397601,0.090082719,0.50448032,0.324314882,nan,nan,nan,[ nan  nan  nan],nan,nan,nan,666.4532029,879.048277,879.3694212,nan,nan
0,175,17:16:45:859000,6,1,464,326.25,[ 0.44840488  0.37350356 -1.        ],1,1,1,0.355315706,0,0,0,0.358475255,0.413864724,0.090099579,0.503964303,0.323765145,nan,nan,nan,[ nan  nan  nan],nan,nan,nan,666.4532029,879.9900923,880.345408,nan,nan
0,176,17:16:46:795000,6,1,139,97.734375,[ 1.         -0.29633561 -0.04459929],1,1,1,0.309526715,0,0,0,0.328662196,0.413532059,0.089950964,0.503483024,0.323581095,nan,nan,nan,[ nan  nan  nan],nan,nan,nan,666.4532029,880.9318534,881.2413801,nan,nan
0,177,17:16:47:731000,6,1,502,352.96875,[ 0.76474094  0.25241358 -1.        ],1,1,1,0.28772614,0,1,0,0.317522853,0.412944458,0.090034613,0.502979071,0.322909846,nan,nan,nan,[ nan  nan  nan],nan,nan,nan,666.4532029,881.8736452,882.1613714,nan,nan
0,178,17:16:53:722000,6,1,75,52.734375,[ 1.         -0.16471446 -0.79135592],1,1,1,0.31391209,1,0,0,0.303721648,0.412240985,0.090267845,0.502508829,0.32197314,nan,12.17710812,111,[ 1.         -0.29867781 -0.33610624],nan,25.08851688,2.992335715,666.4532029,882.8154339,883.129346,884.648969,887.6493348
0,179,17:16:54:658000,6,1,213,149.765625,[ 0.92978509  0.05216688  0.54890652],1,1,1,0.40968215,0,0,0,0.337106793,0.411691661,0.090313206,0.502004868,0.321378455,nan,nan,nan,[ nan  nan  nan],nan,nan,nan,666.4532029,888.799574,889.2092561,nan,nan
0,180,17:16:55:609000,6,1,390,274.21875,[-0.06419603  0.4762842  -0.29194755],1,1,1,0.355921824,0,0,0,0.359838688,0.411680497,0.090062111,0.501742608,0.321618387,nan,nan,nan,[ nan  nan  nan],nan,nan,nan,666.4532029,889.7413279,890.0972497,nan,nan
0,181,17:16:56:545000,6,1,140,98.4375,[ 1.         -0.29420925 -0.03457774],1,1,1,0.382104353,0,0,0,0.382569442,0.411372438,0.089908024,0.501280462,0.321464415,nan,nan,nan,[ nan  nan  nan],nan,nan,nan,666.4532029,890.6831098,891.0652141,nan,nan
0,182,17:16:57:497000,6,0,13,9.140625,[ 0.95026217  0.15466406 -1.        ],0,0,1,0.536290957,0,0,0,0.424772378,0.411211625,0.089686783,0.500898407,0.321524842,nan,nan,nan,[ nan  nan  nan],nan,nan,nan,666.4532029,891.6249082,892.1611992,nan,nan
0,183,17:16:58:433000,6,1,425,298.828125,[ 0.14916262  0.4475296  -0.79171567],1,1,1,0.346497345,0,0,0,0.421630885,0.411895118,0.089915449,0.501810567,0.321979669,nan,nan,nan,[ nan  nan  nan],nan,nan,nan,666.4532029,892.5666935,892.9131908,nan,nan
0,184,17:16:59:369000,6,1,30,21.09375,[ 1.          0.07194566 -1.        ],1,1,1,0.316690938,0,0,0,0.399826413,0.411539696,0.08979959,0.501339286,0.321740105,nan,nan,nan,[ nan  nan  nan],nan,nan,nan,666.4532029,893.5084876,893.8251786,nan,nan
0,185,17:17:00:320000,6,1,122,85.78125,[ 1.         -0.31115954 -0.21914422],1,1,1,0.382885521,0,0,0,0.348691268,0.411027,0.089826183,0.500853183,0.321200817,nan,nan,nan,[ nan  nan  nan],nan,nan,nan,666.4532029,894.4502721,894.8331576,nan,nan
0,186,17:17:01:256000,6,1,453,318.515625,[ 0.35967042  0.39926175 -1.        ],1,1,1,0.369073957,0,0,0,0.356216805,0.410875701,0.089608022,0.500483724,0.321267679,nan,nan,nan,[ nan  nan  nan],nan,nan,nan,666.4532029,895.3920642,895.7611382,nan,nan
0,187,17:17:02:192000,6,1,180,126.5625,[ 1.         -0.12927862  0.33123896],1,1,1,0.323269285,0,0,0,0.358409588,0.410652163,0.089420093,0.500072256,0.32123207,nan,nan,nan,[ nan  nan  nan],nan,nan,nan,666.4532029,896.3338496,896.6571188,nan,nan
0,188,17:17:03:144000,6,1,246,172.96875,[ 0.58976884  0.2150199   0.65133953],1,1,1,0.293481409,0,0,0,0.328608217,0.41018736,0.089408171,0.499595531,0.320779189,nan,nan,nan,[ nan  nan  nan],nan,nan,nan,666.4532029,897.2756272,897.5691086,nan,nan
0,189,17:17:04:080000,6,1,419,294.609375,[ 0.10789467  0.45484197 -0.67809886],1,1,1,0.287645742,0,1,0,0.301465479,0.409569868,0.08957237,0.499142238,0.319997499,nan,nan,nan,[ nan  nan  nan],nan,nan,nan,666.4532029,898.2174284,898.5050742,nan,nan
0,190,17:17:08:729000,6,1,232,163.125,[ 0.73915824  0.15004662  0.62371202],1,1,1,0.297833143,1,0,0,0.292986765,0.408928162,0.089770873,0.498699035,0.319157289,nan,-78.91171354,240,[ 0.65437302  0.18801506  0.64246395],nan,5.786713536,1.650504566,666.4532029,899.1592226,899.4570557,900.992722,902.6512786
0,191,17:17:09:665000,6,1,343,241.171875,[-0.17138818  0.46383642  0.20482281],1,1,1,0.26350822,0,0,0,0.282995701,0.408346513,0.089893809,0.498240322,0.318452704,nan,nan,nan,[ nan  nan  nan],nan,nan,nan,666.4532029,903.8014815,904.0649898,nan,nan
0,192,17:17:10:601000,6,1,11,7.734375,[ 0.9346595  0.1638529 -1.       ],1,1,1,0.313701687,0,0,0,0.291681017,0.407592147,0.090263508,0.497855655,0.317328639,nan,nan,nan,[ nan  nan  nan],nan,nan,nan,666.4532029,904.7432754,905.0569771,nan,nan
0,193,17:17:11:552000,6,1,479,336.796875,[ 0.57257215  0.33176822 -1.        ],1,1,1,0.355906999,0,1,0,0.311038969,0.407105668,0.090281366,0.497387034,0.316824302,nan,nan,nan,[ nan  nan  nan],nan,nan,nan,666.4532029,905.6850268,906.0409338,nan,nan
0,194,17:17:17:949000,6,1,380,267.1875,[-0.10951951  0.47853303 -0.17717739],1,1,1,0.334087607,1,0,0,0.334565431,0.406841757,0.090122989,0.496964747,0.316718768,nan,-149.8431729,341,[-0.16853588  0.4619615   0.22326011],nan,-27.34432708,3.409056646,666.4532029,906.6268494,906.960937,908.4520468,911.8691273
0,195,17:17:18:885000,6,1,303,213.046875,[ 0.01913493  0.40252284  0.51201836],1,1,1,0.357458216,0,0,0,0.349150941,0.406468659,0.090041692,0.496510351,0.316426967,nan,nan,nan,[ nan  nan  nan],nan,nan,nan,666.4532029,913.0193784,913.3768366,nan,nan
0,196,17:17:19:821000,6,1,358,251.71875,[-0.17058391  0.47426832  0.05858744],1,1,1,0.367655595,0,0,0,0.353067139,0.406218606,0.089879554,0.49609816,0.316339052,nan,nan,nan,[ nan  nan  nan],nan,nan,nan,666.4532029,913.9611531,914.3288087,nan,nan
0,197,17:17:20:772000,6,1,31,21.796875,[ 1.          0.06685157 -1.        ],1,1,1,0.449867829,0,0,0,0.391660547,0.406022854,0.08969302,0.495715875,0.316329834,nan,nan,nan,[ nan  nan  nan],nan,nan,nan,666.4532029,914.9029193,915.3527872,nan,nan
0,198,17:17:21:708000,6,1,300,210.9375,[ 0.04335371  0.39574842  0.52895103],1,1,1,0.404054604,0,0,0,0.407192676,0.406244294,0.089520206,0.4957645,0.316724087,nan,nan,nan,[ nan  nan  nan],nan,nan,nan,666.4532029,915.8447092,916.2487638,nan,nan
0,199,17:17:22:644000,6,1,435,305.859375,[ 0.22126383  0.43302706 -1.        ],1,1,1,0.462232806,0,0,0,0.438718413,0.40623329,0.089295132,0.495528423,0.316938158,nan,nan,nan,[ nan  nan  nan],nan,nan,nan,666.4532029,916.7865125,917.2487453,nan,nan
0,200,17:17:23:596000,6,1,130,91.40625,[ 1.         -0.30933315 -0.13607149],1,1,1,0.336446221,0,0,0,0.400911211,0.406513288,0.089159149,0.495672437,0.317354139,nan,nan,nan,[ nan  nan  nan],nan,nan,nan,666.4532029,917.7282852,918.0647315,nan,nan
0,201,17:17:24:532000,6,1,324,227.8125,[-0.11479964  0.44115833  0.36806404],1,1,1,0.30664124,0,0,0,0.368440089,0.406164695,0.089073611,0.495238307,0.317091084,nan,nan,nan,[ nan  nan  nan],nan,nan,nan,666.4532029,918.6700705,918.9767118,nan,nan
0,202,17:17:25:483000,6,1,151,106.171875,[ 1.         -0.26272029  0.07346267],1,1,1,0.356857515,0,0,0,0.333314992,0.405672005,0.089126999,0.494799004,0.316545006,nan,nan,nan,[ nan  nan  nan],nan,nan,nan,666.4532029,919.6118824,919.9687399,nan,nan
0,203,17:17:26:419000,6,1,206,144.84375,[ 0.99472346  0.01405192  0.51131616],1,1,1,0.367031801,0,0,0,0.343510185,0.40543154,0.088972868,0.494404407,0.316458672,nan,nan,nan,[ nan  nan  nan],nan,nan,nan,666.4532029,920.5536506,920.9206824,nan,nan
0,204,17:17:27:355000,6,0,350,246.09375,[-0.17575682  0.46949094  0.13824748],0,0,1,0.505261765,0,0,0,0.409717027,0.405243306,0.08879504,0.494038345,0.316448266,nan,nan,nan,[ nan  nan  nan],nan,nan,nan,666.4532029,921.4954056,922.0006674,nan,nan
0,205,17:17:28:307000,6,1,486,341.71875,[ 0.63115176  0.30960306 -1.        ],1,1,1,0.427427209,0,0,0,0.433240258,0.405731201,0.08885189,0.49458309,0.316879311,nan,nan,nan,[ nan  nan  nan],nan,nan,nan,666.4532029,922.437228,922.8646552,nan,nan
0,206,17:17:29:243000,6,1,126,88.59375,[ 1.         -0.31141175 -0.17740843],1,1,1,0.421636302,0,0,0,0.451441759,0.405836521,0.088648794,0.494485315,0.317187727,nan,nan,nan,[ nan  nan  nan],nan,nan,nan,666.4532029,923.3790042,923.8006405,nan,nan
0,207,17:17:30:179000,6,1,282,198.28125,[ 0.20814231  0.34807905  0.6092955 ],1,1,1,0.351795603,0,0,0,0.400286371,0.405912848,0.088441192,0.494354041,0.317471656,nan,nan,nan,[ nan  nan  nan],nan,nan,nan,666.4532029,924.32082,924.6726156,nan,nan
0,208,17:17:31:131000,6,1,386,271.40625,[-0.08339466  0.47749559 -0.24542474],1,1,1,0.330013559,0,0,0,0.367815155,0.405652669,0.088307712,0.493960381,0.317344958,nan,nan,nan,[ nan  nan  nan],nan,nan,nan,666.4532029,925.2625945,925.592608,nan,nan
0,209,17:17:32:067000,6,1,294,206.71875,[ 0.0948762   0.38121213  0.55985823],1,1,1,0.324206687,0,0,0,0.335338616,0.40529076,0.088250684,0.493541444,0.317040075,nan,nan,nan,[ nan  nan  nan],nan,nan,nan,666.4532029,926.2043812,926.5285879,nan,nan
0,210,17:17:33:018000,6,1,30,21.09375,[ 1.          0.07194566 -1.        ],1,1,1,0.37440386,0,0,0,0.342874702,0.404904645,0.088217092,0.493121737,0.316687553,nan,nan,nan,[ nan  nan  nan],nan,nan,nan,666.4532029,927.1461702,927.5205741,nan,nan
0,211,17:17:33:954000,6,1,99,69.609375,[ 1.         -0.26717627 -0.4687933 ],1,1,1,0.336593047,0,0,0,0.345067865,0.404760092,0.088032725,0.492792817,0.316727366,nan,nan,nan,[ nan  nan  nan],nan,nan,nan,666.4532029,928.0879601,928.4245531,nan,nan
0,212,17:17:34:890000,6,1,471,331.171875,[ 0.50601401  0.35499378 -1.        ],1,1,1,0.306780653,0,0,0,0.339259187,0.404438549,0.087948965,0.492387514,0.316489584,nan,nan,nan,[ nan  nan  nan],nan,nan,nan,666.4532029,929.0297497,929.3365303,nan,nan
0,213,17:17:35:842000,6,1,280,196.875,[ 0.22808935  0.34201885  0.61587222],1,1,1,0.324987855,0,0,0,0.322787185,0.403980061,0.087995855,0.491975917,0.315984206,nan,nan,nan,[ nan  nan  nan],nan,nan,nan,666.4532029,929.9715327,930.2965206,nan,nan
0,214,17:17:36:778000,6,1,435,305.859375,[ 0.22126383  0.43302706 -1.        ],1,1,1,0.383172899,0,0,0,0.338313802,0.403610939,0.087955151,0.49156609,0.315655788,nan,nan,nan,[ nan  nan  nan],nan,nan,nan,666.4532029,930.9133231,931.296496,nan,nan
0,215,17:17:37:714000,6,1,254,178.59375,[ 0.50301113  0.24894782  0.65613358],1,1,1,0.361396842,0,0,0,0.356519199,0.403515878,0.087761384,0.491277262,0.315754494,nan,nan,nan,[ nan  nan  nan],nan,nan,nan,666.4532029,931.8550794,932.2164762,nan,nan
0,216,17:17:38:665000,6,1,142,99.84375,[ 1.         -0.28956812 -0.01462735],1,1,1,0.419554518,0,0,0,0.38804142,0.403320883,0.087604668,0.49092555,0.315716215,nan,nan,nan,[ nan  nan  nan],nan,nan,nan,666.4532029,932.7969012,933.2164557,nan,nan
0,217,17:17:39:601000,6,1,429,301.640625,[ 0.17753182  0.44208078 -0.9018852 ],1,1,1,0.38977605,0,0,0,0.39024247,0.403395692,0.087409496,0.490805188,0.315986196,nan,nan,nan,[ nan  nan  nan],nan,nan,nan,666.4532029,933.7386899,934.1284659,nan,nan
0,218,17:17:40:553000,6,1,487,342.421875,[ 0.63952974  0.30629503 -1.        ],1,1,1,0.343950281,0,0,0,0.38442695,0.403333216,0.087213641,0.490546857,0.316119576,nan,nan,nan,[ nan  nan  nan],nan,nan,nan,666.4532029,934.6804994,935.0244497,nan,nan
0,219,17:17:41:489000,6,1,128,90,[ 1.         -0.31066301 -0.15668979],1,1,1,0.41014857,0,0,0,0.381291634,0.403062062,0.087106349,0.49016841,0.315955713,nan,nan,nan,[ nan  nan  nan],nan,nan,nan,666.4532029,935.6222665,936.0324151,nan,nan
0,220,17:17:42:425000,6,1,54,37.96875,[ 1.         -0.05462921 -1.        ],1,1,1,0.356365151,0,0,0,0.370154667,0.403094273,0.086909462,0.490003735,0.316184811,nan,nan,nan,[ nan  nan  nan],nan,nan,nan,666.4532029,936.5640541,936.9204192,nan,nan
0,221,17:17:43:377000,6,1,449,315.703125,[ 0.32809501  0.40764625 -1.        ],1,1,1,0.32653223,0,0,0,0.36434865,0.402882829,0.086769308,0.489652137,0.316113521,nan,nan,nan,[ nan  nan  nan],nan,nan,nan,666.4532029,937.5058499,937.8323822,nan,nan
0,222,17:17:44:313000,6,0,247,173.671875,[ 0.57894763  0.21939267  0.65238059],0,1,0,0.31273264,0,0,0,0.331876674,0.402538907,0.086724501,0.489263408,0.315814406,nan,nan,nan,[ nan  nan  nan],nan,nan,nan,666.4532029,938.4476367,938.7603693,nan,nan
0,223,17:17:45:249000,6,1,203,142.734375,[ 1.         -0.00249325  0.49367467],1,1,1,0.378920095,0,0,0,0.339394988,0.402136189,0.08673763,0.488873819,0.315398558,nan,nan,nan,[ nan  nan  nan],nan,nan,nan,666.4532029,939.3894268,939.7683469,nan,nan
0,224,17:17:46:200000,6,1,392,275.625,[-0.05410679  0.47552228 -0.31554984],1,1,1,0.341124677,0,0,0,0.344259137,0.402032545,0.086557641,0.488590187,0.315474904,nan,nan,nan,[ nan  nan  nan],nan,nan,nan,666.4532029,940.3312147,940.6723394,nan,nan
0,225,17:17:47:136000,6,1,325,228.515625,[-0.1194049   0.44263104  0.36018642],1,1,1,0.367308061,0,0,0,0.362450944,0.401761844,0.086460055,0.488221898,0.315301789,nan,nan,nan,[ nan  nan  nan],nan,nan,nan,666.4532029,941.2730043,941.6403123,nan,nan
0,226,17:17:48:088000,6,1,11,7.734375,[ 0.9346595  0.1638529 -1.       ],1,1,1,0.345502354,0,0,0,0.351311697,0.401609393,0.086298862,0.487908255,0.315310531,nan,nan,nan,[ nan  nan  nan],nan,nan,nan,666.4532029,942.2147887,942.5602911,nan,nan
0,227,17:17:49:024000,6,1,508,357.1875,[ 0.81419982  0.22863893 -1.        ],1,nan,nan,nan,0,0,0,0.356405207,0.401362226,0.0861887,0.487550926,0.315173526,nan,nan,nan,[ nan  nan  nan],nan,nan,nan,666.4532029,943.1565752,nan,nan,nan
0,228,17:17:49:960000,6,1,329,231.328125,[-0.13605328  0.44820379  0.32783374],1,1,1,0.477905489,0,0,0,0.411703921,0.401362226,0.0861887,0.487550926,0.315173526,nan,nan,nan,[ nan  nan  nan],nan,nan,nan,666.4532029,944.0983659,944.5762714,nan,nan
0,229,17:17:50:911000,6,1,115,80.859375,[ 1.         -0.30516629 -0.29317275],1,1,1,0.440100092,0,0,0,0.459002791,0.401697942,0.086148099,0.487846041,0.315549843,nan,nan,nan,[ nan  nan  nan],nan,nan,nan,666.4532029,945.0401532,945.4802533,nan,nan
0,230,17:17:51:847000,6,1,333,234.140625,[-0.14981348  0.45327595  0.29418374],1,1,1,0.394301123,0,0,0,0.437435568,0.401865637,0.085997084,0.487862721,0.315868553,nan,nan,nan,[ nan  nan  nan],nan,nan,nan,666.4532029,945.9819345,946.3762356,nan,nan
0,231,17:17:52:783000,6,1,498,350.15625,[ 0.73150794  0.26756188 -1.        ],1,1,1,0.420489638,0,0,0,0.418296951,0.401832748,0.085811373,0.487644121,0.316021374,nan,nan,nan,[ nan  nan  nan],nan,nan,nan,666.4532029,946.9237255,947.3442151,nan,nan
0,232,17:17:53:735000,6,1,100,70.3125,[ 1.         -0.27042709 -0.4574399 ],1,1,1,0.454708505,0,0,0,0.423166422,0.401913513,0.085634194,0.487547707,0.31627932,nan,nan,nan,[ nan  nan  nan],nan,nan,nan,666.4532029,947.8654985,948.320207,nan,nan
0,233,17:17:54:671000,6,1,468,329.0625,[ 0.48123648  0.36313162 -1.        ],1,1,1,0.432873718,0,0,0,0.436023954,0.402141078,0.085519407,0.487660485,0.316621671,nan,nan,nan,[ nan  nan  nan],nan,nan,nan,666.4532029,948.8073106,949.2401844,nan,nan
0,234,17:17:55:607000,6,1,372,261.5625,[-0.13866002  0.47845887 -0.08881238],1,1,1,0.523098626,0,0,0,0.470226949,0.402272978,0.085359337,0.487632315,0.316913641,nan,nan,nan,[ nan  nan  nan],nan,nan,nan,666.4532029,949.7490694,950.2721681,nan,nan
0,235,17:17:56:559000,6,1,240,168.75,[ 0.65437302  0.18801506  0.64246395],1,1,1,0.565279419,0,0,1,0.507083921,0.402789327,0.085540636,0.488329962,0.317248691,nan,nan,nan,[ nan  nan  nan],nan,nan,nan,666.4532029,950.6908815,951.256161,nan,nan
0,236,17:18:01:597000,6,1,399,280.546875,[-0.01644604  0.47203125 -0.40027452],1,1,1,0.527494834,1,0,0,0.538624293,0.403480774,0.08601127,0.489492044,0.317469504,nan,-174.6266023,376,[-0.12496282  0.47870467 -0.13262763],nan,-15.92027274,2.058892087,666.4532029,951.6326432,952.160138,953.4578474,955.524781
0,237,17:18:02:533000,6,1,178,125.15625,[ 1.         -0.13991966  0.31509783],1,1,1,0.669029082,0,0,0,0.587267778,0.404006257,0.086206047,0.490212304,0.31780021,nan,nan,nan,[ nan  nan  nan],nan,nan,nan,666.4532029,956.6749905,957.3440196,nan,nan
0,238,17:18:03:485000,6,1,345,242.578125,[-0.17351954  0.46559515  0.18611928],1,1,1,0.407252261,0,0,0,0.534592059,0.405124497,0.087722487,0.492846984,0.31740201,nan,nan,nan,[ nan  nan  nan],nan,nan,nan,666.4532029,957.6167801,958.0240323,nan,nan
0,239,17:18:04:421000,6,1,220,154.6875,[ 0.86173155  0.08932726  0.58124768],1,1,1,0.361427633,0,0,0,0.479236326,0.405133437,0.08753811,0.492671547,0.317595327,nan,nan,nan,[ nan  nan  nan],nan,nan,nan,666.4532029,958.5585728,958.9200004,nan,nan
0,240,17:18:05:373000,6,1,344,241.875,[-0.17254346  0.46473023  0.19550382],1,1,1,0.323638202,0,0,0,0.364106032,0.404950568,0.087400328,0.492350895,0.31755024,nan,nan,nan,[ nan  nan  nan],nan,nan,nan,666.4532029,959.5003589,959.8239971,nan,nan
0,241,17:18:06:309000,6,1,126,88.59375,[ 1.         -0.31141175 -0.17740843],1,1,1,0.357829128,0,0,0,0.347631654,0.404611766,0.087375184,0.49198695,0.317236582,nan,nan,nan,[ nan  nan  nan],nan,nan,nan,666.4532029,960.442148,960.7999771,nan,nan
0,242,17:18:07:245000,6,1,408,286.875,[ 0.03673793  0.46563766 -0.51593845],1,1,1,0.335999758,0,0,0,0.339155696,0.404417647,0.087245564,0.491663211,0.317172083,nan,nan,nan,[ nan  nan  nan],nan,nan,nan,666.4532029,961.3839364,961.7199361,nan,nan
0,243,17:18:08:196000,6,1,92,64.6875,[ 1.         -0.24170366 -0.55060884],1,1,1,0.330192886,0,0,0,0.341340591,0.404134929,0.087175672,0.491310601,0.316959257,nan,nan,nan,[ nan  nan  nan],nan,nan,nan,666.4532029,962.3257528,962.6559457,nan,nan
0,244,17:18:09:132000,6,1,19,13.359375,[ 0.99625917  0.12637453 -1.        ],1,1,1,0.452436845,0,0,0,0.372876496,0.403830641,0.087124801,0.490955441,0.31670584,nan,nan,nan,[ nan  nan  nan],nan,nan,nan,666.4532029,963.2675104,963.7199473,nan,nan
0,245,17:18:10:068000,6,1,200,140.625,[ 1.         -0.01912099  0.47515178],1,1,1,0.350611022,0,0,0,0.377746918,0.404029846,0.087001519,0.491031365,0.317028327,nan,nan,nan,[ nan  nan  nan],nan,nan,nan,666.4532029,964.2093068,964.5599179,nan,nan
0,246,17:18:11:020000,6,1,93,65.390625,[ 1.         -0.2456143  -0.53861988],1,1,1,0.312795646,0,0,0,0.371947838,0.40381181,0.086890558,0.490702368,0.316921253,nan,nan,nan,[ nan  nan  nan],nan,nan,nan,666.4532029,965.1510944,965.4638901,nan,nan
0,247,17:18:11:956000,6,1,503,353.671875,[ 0.7730202   0.24853846 -1.        ],1,1,1,0.419000858,0,0,0,0.360802509,0.403441826,0.086906937,0.490348763,0.316534889,nan,nan,nan,[ nan  nan  nan],nan,nan,nan,666.4532029,966.09288,966.5118809,nan,nan
0,248,17:18:12:907000,6,1,440,309.375,[ 0.2586994  0.4246574 -1.       ],1,1,1,0.413195981,0,0,0,0.381664162,0.403504818,0.086736461,0.490241279,0.316768357,nan,nan,nan,[ nan  nan  nan],nan,nan,nan,666.4532029,967.0346719,967.4478679,nan,nan
0,249,17:18:13:843000,6,1,178,125.15625,[ 1.         -0.13991966  0.31509783],1,1,1,0.383375604,0,0,0,0.405190814,0.403543895,0.086563591,0.490107486,0.316980304,nan,nan,nan,[ nan  nan  nan],nan,nan,nan,666.4532029,967.9764598,968.3598354,nan,nan
0,250,17:18:14:779000,6,1,405,284.765625,[ 0.01846332  0.46800938 -0.47629333],1,1,1,0.465557902,0,0,0,0.420709829,0.403462898,0.08639901,0.489861908,0.317063888,nan,nan,nan,[ nan  nan  nan],nan,nan,nan,666.4532029,968.918255,969.3838129,nan,nan
0,251,17:18:15:731000,6,1,302,212.34375,[ 0.02708608  0.40030084  0.51777002],1,1,1,0.371757868,0,0,0,0.406897125,0.403711278,0.08631507,0.490026348,0.317396208,nan,nan,nan,[ nan  nan  nan],nan,nan,nan,666.4532029,969.8600483,970.2318062,nan,nan
0,252,17:18:16:667000,6,0,487,342.421875,[ 0.63952974  0.30629503 -1.        ],0,0,1,0.397985157,0,0,0,0.411766975,0.403583974,0.086166469,0.489750443,0.317417504,nan,nan,nan,[ nan  nan  nan],nan,nan,nan,666.4532029,970.8018077,971.1997928,nan,nan
0,253,17:18:17:603000,6,1,84,59.0625,[ 1.         -0.20765784 -0.65219109],1,1,1,0.352153971,0,0,0,0.373965665,0.403561756,0.085996054,0.48955781,0.317565702,nan,nan,nan,[ nan  nan  nan],nan,nan,nan,666.4532029,971.7436135,972.0957675,nan,nan
0,254,17:18:18:555000,6,1,441,310.078125,[ 0.26628726  0.42289189 -1.        ],1,1,1,0.354360913,0,0,0,0.36816668,0.403358563,0.085886525,0.489245089,0.317472038,nan,nan,nan,[ nan  nan  nan],nan,nan,nan,666.4532029,972.6854023,973.0397632,nan,nan
0,255,17:18:19:491000,6,1,74,52.03125,[ 1.         -0.15971516 -0.81044328],1,1,1,0.532607778,0,0,0,0.413040888,0.403165659,0.08577219,0.488937849,0.317393469,nan,nan,nan,[ nan  nan  nan],nan,nan,nan,666.4532029,973.6271593,974.1597671,nan,nan
0,256,17:18:20:442000,6,1,301,211.640625,[ 0.03515994  0.39804276  0.52341451],1,1,1,0.374769356,0,0,0,0.420579349,0.403673275,0.085985274,0.489658549,0.317688001,nan,nan,nan,[ nan  nan  nan],nan,nan,nan,666.4532029,974.5689697,974.9437391,nan,nan
0,257,17:18:21:378000,6,1,387,272.109375,[-0.07872193  0.47723176 -0.25697445],1,1,1,0.560955055,0,0,1,0.489444063,0.403560369,0.085836107,0.489396476,0.317724262,nan,nan,nan,[ nan  nan  nan],nan,nan,nan,666.4532029,975.5107656,976.0717206,nan,nan
0,258,17:18:27:587000,6,1,293,206.015625,[ 0.10383026  0.3786596   0.56461706],1,1,1,0.403150844,1,0,0,0.446291752,0.4041728,0.08622753,0.49040033,0.31794527,nan,-121.2469294,300,[ 0.04335371  0.39574842  0.52895103],nan,5.231304413,3.225725631,666.4532029,976.4525537,976.8557046,978.2777548,981.5114991
0,259,17:18:28:523000,6,1,99,69.609375,[ 1.         -0.26717627 -0.4687933 ],1,1,1,0.585878021,0,0,0,0.516661307,0.404168839,0.086060284,0.490229122,0.318108555,nan,nan,nan,[ nan  nan  nan],nan,nan,nan,666.4532029,982.6616878,983.2475658,nan,nan
0,260,17:18:29:475000,6,1,402,282.65625,[ 0.00072492  0.47013996 -0.43781156],1,1,1,0.468061061,0,0,0,0.485696642,0.404870419,0.086630062,0.491500481,0.318240357,nan,nan,nan,[ nan  nan  nan],nan,nan,nan,666.4532029,983.6034788,984.0715399,nan,nan
0,261,17:18:30:411000,6,1,326,229.21875,[-0.12383419  0.44407177  0.35222354],1,1,1,0.542272595,0,0,1,0.532070559,0.40511346,0.08655173,0.49166519,0.318561729,nan,nan,nan,[ nan  nan  nan],nan,nan,nan,666.4532029,984.5452664,985.087539,nan,nan
0,262,17:18:34:903000,6,0,509,357.890625,[ 0.82238638  0.224555   -1.        ],0,0,1,0.496489591,1,0,0,0.502274415,0.405638974,0.086800363,0.492439336,0.318838611,nan,116.5650512,474,[ 0.53090176  0.34654538 -1.        ],nan,-24.45567618,1.517257256,666.4532029,985.4870551,985.9835447,987.3039214,988.8291389
0,263,17:18:35:839000,6,1,365,256.640625,[-0.15796203  0.47701659 -0.01391969],1,1,1,0.500170774,0,0,0,0.512977653,0.405985732,0.086815488,0.49280122,0.319170243,nan,nan,nan,[ nan  nan  nan],nan,nan,nan,666.4532029,989.9792894,990.4794601,nan,nan
0,264,17:18:36:791000,6,1,420,295.3125,[ 0.11466019  0.4536941  -0.6950475 ],1,1,1,0.39035936,0,0,0,0.462339908,0.40634385,0.086843955,0.493187805,0.319499894,nan,nan,nan,[ nan  nan  nan],nan,nan,nan,666.4532029,990.9210909,991.3114503,nan,nan
0,265,17:18:37:727000,6,1,90,63.28125,[ 1.         -0.23363579 -0.57497187],1,1,1,0.400541059,0,0,0,0.430357064,0.406283302,0.086684884,0.492968186,0.319598419,nan,nan,nan,[ nan  nan  nan],nan,nan,nan,666.4532029,991.8628808,992.2634218,nan,nan
0,266,17:18:38:663000,6,0,343,241.171875,[-0.17138818  0.46383642  0.20482281],0,0,1,0.450727113,0,0,0,0.413875844,0.406261634,0.086521889,0.492783523,0.319739745,nan,nan,nan,[ nan  nan  nan],nan,nan,nan,666.4532029,992.8046741,993.2554012,nan,nan
0,267,17:18:39:615000,6,1,242,170.15625,[ 0.63291185  0.19716118  0.6459214 ],1,1,1,0.452936337,0,0,0,0.434734836,0.406428797,0.086401964,0.492830761,0.320026833,nan,nan,nan,[ nan  nan  nan],nan,nan,nan,666.4532029,993.7464588,994.1993951,nan,nan
0,268,17:18:40:551000,6,1,313,220.078125,[-0.05302215  0.42279583  0.44879796],1,1,1,0.471123582,0,0,0,0.458262344,0.406602983,0.086286789,0.492889772,0.320316193,nan,nan,nan,[ nan  nan  nan],nan,nan,nan,666.4532029,994.688249,995.1593725,nan,nan
0,269,17:18:41:502000,6,1,389,273.515625,[-0.06912081  0.47662608 -0.28023432],1,1,1,0.361288505,0,0,0,0.428449475,0.406843731,0.086215451,0.493059182,0.320628281,nan,nan,nan,[ nan  nan  nan],nan,nan,nan,666.4532029,995.6300742,995.9913627,nan,nan
0,270,17:18:42:438000,6,1,132,92.8125,[ 1.         -0.30742683 -0.11555536],1,1,1,0.315522322,0,0,0,0.382644803,0.406674381,0.086099696,0.492774077,0.320574685,nan,nan,nan,[ nan  nan  nan],nan,nan,nan,666.4532029,996.5718221,996.8873445,nan,nan
0,271,17:18:43:374000,6,0,279,196.171875,[ 0.23815758  0.33893035  0.61897842],0,1,0,0.293703786,0,0,0,0.323504871,0.406336781,0.086118294,0.492455074,0.320218487,nan,nan,nan,[ nan  nan  nan],nan,nan,nan,666.4532029,997.5136183,997.8073221,nan,nan
0,272,17:18:44:326000,6,1,387,272.109375,[-0.07872193  0.47723176 -0.25697445],1,1,1,0.383889065,0,0,0,0.331038391,0.405921161,0.08623012,0.492151281,0.31969104,nan,nan,nan,[ nan  nan  nan],nan,nan,nan,666.4532029,998.4554021,998.8392912,nan,nan
0,273,17:18:45:262000,6,0,195,137.109375,[ 1.         -0.04692453  0.44239605],0,0,1,0.450093341,0,0,0,0.375895397,0.40584016,0.086081791,0.491921952,0.319758369,nan,nan,nan,[ nan  nan  nan],nan,nan,nan,666.4532029,999.3971969,999.8472902,nan,nan
0,274,17:18:46:198000,6,1,314,220.78125,[-0.05944389  0.42463231  0.44192541],1,1,1,0.340340373,0,0,0,0.391440926,0.40600226,0.085965568,0.491967828,0.320036692,nan,nan,nan,[ nan  nan  nan],nan,nan,nan,666.4532029,1000.33898,1000.67932,nan,nan
0,275,17:18:47:149000,6,1,257,180.703125,[ 0.4704729   0.26103985  0.65584138],1,1,1,0.454509506,0,0,0,0.414981073,0.405762618,0.085899858,0.491662476,0.31986276,nan,nan,nan,[ nan  nan  nan],nan,nan,nan,666.4532029,1001.280759,1001.735269,nan,nan
0,276,17:18:48:085000,6,1,163,114.609375,[ 1.         -0.2142478   0.18572368],1,1,1,0.504689004,0,0,0,0.433179628,0.405939879,0.085793725,0.491733604,0.320146155,nan,nan,nan,[ nan  nan  nan],nan,nan,nan,666.4532029,1002.222549,1002.727238,nan,nan
0,277,17:18:49:037000,6,1,485,341.015625,[ 0.62277456  0.31287562 -1.        ],1,1,1,0.474831279,0,0,0,0.47800993,0.406297666,0.085843448,0.492141114,0.320454218,nan,nan,nan,[ nan  nan  nan],nan,nan,nan,666.4532029,1003.16437,1003.639201,nan,nan
0,278,17:18:49:973000,6,1,413,290.390625,[ 0.06831062  0.46114313 -0.5854956 ],1,1,1,0.381107651,0,0,0,0.453542645,0.40654508,0.085786883,0.492331963,0.320758197,nan,nan,nan,[ nan  nan  nan],nan,nan,nan,666.4532029,1004.106105,1004.487212,nan,nan
0,279,17:18:50:909000,6,1,241,169.453125,[ 0.64365311  0.19260594  0.64425478],1,1,1,0.351264181,0,0,0,0.402401037,0.406453578,0.085645992,0.49209957,0.320807587,nan,nan,nan,[ nan  nan  nan],nan,nan,nan,666.4532029,1005.047923,1005.399187,nan,nan
0,280,17:18:51:861000,6,1,176,123.75,[ 1.         -0.15042967  0.29867547],1,1,1,0.329455908,0,0,0,0.35394258,0.406255767,0.085555962,0.491811729,0.320699805,nan,nan,nan,[ nan  nan  nan],nan,nan,nan,666.4532029,1005.989713,1006.319169,nan,nan
0,281,17:18:52:797000,6,0,249,175.078125,[ 0.55727555  0.22802627  0.65408488],0,0,1,0.435667106,0,0,0,0.372129065,0.405981482,0.085525846,0.491507327,0.320455636,nan,nan,nan,[ nan  nan  nan],nan,nan,nan,666.4532029,1006.931499,1007.367166,nan,nan
0,282,17:18:53:733000,6,1,153,107.578125,[ 1.         -0.25554786  0.09262139],1,1,1,0.333852972,0,0,0,0.366325329,0.406087124,0.085391828,0.491478953,0.320695296,nan,nan,nan,[ nan  nan  nan],nan,nan,nan,666.4532029,1007.873284,1008.207137,nan,nan
0,283,17:18:54:684000,6,1,254,178.59375,[ 0.50301113  0.24894782  0.65613358],1,1,1,0.344042368,0,0,0,0.371187482,0.405830975,0.085348369,0.491179344,0.320482606,nan,nan,nan,[ nan  nan  nan],nan,nan,nan,666.4532029,1008.815076,1009.159119,nan,nan
0,284,17:18:55:620000,6,1,455,319.921875,[ 0.37560825  0.39487537 -1.        ],1,1,1,0.354232334,0,0,0,0.344042558,0.405612641,0.0852763,0.490888941,0.320336341,nan,nan,nan,[ nan  nan  nan],nan,nan,nan,666.4532029,1009.756862,1010.111095,nan,nan
0,285,17:18:56:572000,6,1,366,257.34375,[-0.15559338  0.47730203 -0.02447665],1,1,1,0.308400293,0,0,0,0.335558332,0.405431724,0.085180422,0.490612146,0.320251302,nan,nan,nan,[ nan  nan  nan],nan,nan,nan,666.4532029,1010.698682,1011.007082,nan,nan
0,286,17:18:57:508000,6,1,110,77.34375,[ 1.         -0.29672275 -0.34692196],1,1,1,0.334632144,0,0,0,0.332421591,0.405091263,0.085224206,0.490315469,0.319867057,nan,nan,nan,[ nan  nan  nan],nan,nan,nan,666.4532029,1011.640446,1011.975078,nan,nan
0,287,17:18:58:444000,6,1,234,164.53125,[ 0.71814775  0.15974031  0.6291316 ],1,1,1,0.304830298,0,1,0,0.315954245,0.404844902,0.085176682,0.490021585,0.31966822,nan,nan,nan,[ nan  nan  nan],nan,nan,nan,666.4532029,1012.582233,1012.887063,nan,nan
0,288,17:19:03:841000,6,1,449,315.703125,[ 0.32809501  0.40764625 -1.        ],1,1,1,0.291010467,1,0,0,0.310157636,0.404496419,0.085232155,0.489728574,0.319264265,nan,164.8686301,406,[ 0.02449675  0.4672457  -0.4893661 ],nan,-30.57175509,2.392306578,666.4532029,1013.524024,1013.815035,1015.357529,1017.757856
0,289,17:19:04:777000,6,1,87,61.171875,[ 1.         -0.22095901 -0.61267562],1,1,1,0.59453074,0,0,0,0.396790502,0.404102371,0.085345532,0.489447903,0.318756839,nan,nan,nan,[ nan  nan  nan],nan,nan,nan,666.4532029,1018.916383,1019.510914,nan,nan
0,290,17:19:05:729000,6,1,354,248.90625,[-0.17447067  0.47210079  0.09886772],1,1,1,0.468744441,0,0,0,0.451428549,0.404761293,0.085928455,0.490689748,0.318832838,nan,nan,nan,[ nan  nan  nan],nan,nan,nan,666.4532029,1019.858174,1020.326918,nan,nan
0,291,17:19:06:665000,6,1,249,175.078125,[ 0.55727555  0.22802627  0.65408488],1,1,1,0.358941865,0,0,0,0.474072349,0.404981924,0.085862136,0.49084406,0.319119788,nan,nan,nan,[ nan  nan  nan],nan,nan,nan,666.4532029,1020.799961,1021.158903,nan,nan
0,292,17:19:07:601000,6,1,197,138.515625,[ 1.         -0.0357976   0.45577474],1,1,1,0.393138209,0,0,0,0.406941505,0.404823711,0.085756814,0.490580525,0.319066897,nan,nan,nan,[ nan  nan  nan],nan,nan,nan,666.4532029,1021.741756,1022.134894,nan,nan
0,293,17:19:08:553000,6,0,336,236.25,[-0.15821161  0.45675811  0.26813527],0,0,1,0.523353788,0,0,0,0.425144621,0.404783692,0.085612566,0.490396258,0.319171126,nan,nan,nan,[ nan  nan  nan],nan,nan,nan,666.4532029,1022.683529,1023.206883,nan,nan
0,294,17:19:09:489000,6,1,451,317.109375,[ 0.34383096  0.40351836 -1.        ],1,1,1,0.445525219,0,0,0,0.454005738,0.405188368,0.08574564,0.490934008,0.319442728,nan,nan,nan,[ nan  nan  nan],nan,nan,nan,666.4532029,1023.625333,1024.070858,nan,nan
0,295,17:19:10:440000,6,1,162,113.90625,[ 1.         -0.21873956  0.17663297],1,1,1,0.407709558,0,0,0,0.458862855,0.405325568,0.0856319,0.490957468,0.319693668,nan,nan,nan,[ nan  nan  nan],nan,nan,nan,666.4532029,1024.56713,1024.97484,nan,nan
0,296,17:19:11:376000,6,0,388,272.8125,[-0.07396337  0.47694192 -0.26857716],0,0,1,0.489933196,0,0,0,0.447722658,0.40533365,0.08548675,0.4908204,0.3198469,nan,nan,nan,[ nan  nan  nan],nan,nan,nan,666.4532029,1025.508909,1025.998842,nan,nan
0,297,17:19:12:312000,6,1,511,359.296875,[ 0.83870319  0.21628417 -1.        ],1,1,1,0.436165172,0,0,0,0.444602642,0.405619459,0.085483291,0.49110275,0.320136168,nan,nan,nan,[ nan  nan  nan],nan,nan,nan,666.4532029,1026.450671,1026.886836,nan,nan
0,298,17:19:13:264000,6,1,378,265.78125,[-0.11745014  0.47867092 -0.15481012],1,1,1,0.366317631,0,0,0,0.430805333,0.405722306,0.0853576,0.491079907,0.320364706,nan,nan,nan,[ nan  nan  nan],nan,nan,nan,666.4532029,1027.39248,1027.758797,nan,nan
0,299,17:19:14:200000,6,1,174,122.34375,[ 1.         -0.16079069  0.28198128],1,1,1,0.376538958,0,0,0,0.393007254,0.405590076,0.085244727,0.490834803,0.320345349,nan,nan,nan,[ nan  nan  nan],nan,nan,nan,666.4532029,1028.334241,1028.71078,nan,nan
0,300,17:19:15:136000,6,1,392,275.625,[-0.05410679  0.47552228 -0.31554984],1,1,1,0.32271477,0,0,0,0.355190453,0.405492915,0.085118585,0.4906115,0.32037433,nan,nan,nan,[ nan  nan  nan],nan,nan,nan,666.4532029,1029.276044,1029.598758,nan,nan
0,301,17:19:16:088000,6,1,257,180.703125,[ 0.4704729   0.26103985  0.65584138],1,1,1,0.300887966,0,0,0,0.333380565,0.405216988,0.085110443,0.490327431,0.320106545,nan,nan,nan,[ nan  nan  nan],nan,nan,nan,666.4532029,1030.217846,1030.518734,nan,nan
0,302,17:19:17:024000,6,1,313,220.078125,[-0.05302215  0.42279583  0.44879796],1,1,1,0.319090606,0,1,0,0.314231114,0.40487038,0.085180766,0.490051146,0.319689614,nan,nan,nan,[ nan  nan  nan],nan,nan,nan,666.4532029,1031.159632,1031.478723,nan,nan
0,303,17:19:21:204000,6,1,415,291.796875,[ 0.08130773  0.45915368 -0.61496802],1,1,1,0.32924294,1,0,0,0.316407171,0.404586341,0.085182283,0.489768624,0.319404058,nan,-139.5818559,327,[-0.12808616  0.44548068  0.34417644],nan,-62.21501914,1.175438937,666.4532029,1032.101458,1032.430701,1033.934942,1035.118432
0,304,17:19:22:140000,6,1,491,345.234375,[ 0.67303348  0.29270771 -1.        ],1,1,1,0.36963731,0,0,0,0.339323619,0.404337683,0.085151318,0.489489001,0.319186365,nan,nan,nan,[ nan  nan  nan],nan,nan,nan,666.4532029,1036.276969,1036.646606,nan,nan
0,305,17:19:23:092000,6,0,372,261.5625,[-0.13866002  0.47845887 -0.08881238],0,0,1,0.491849909,0,0,0,0.396910053,0.404223537,0.085034368,0.489257905,0.319189169,nan,nan,nan,[ nan  nan  nan],nan,nan,nan,666.4532029,1037.218766,1037.710616,nan,nan
0,306,17:19:24:028000,6,1,23,16.171875,[ 1.          0.10694394 -1.        ],1,1,1,0.358038105,0,0,0,0.406508441,0.404510836,0.08504251,0.489553347,0.319468326,nan,nan,nan,[ nan  nan  nan],nan,nan,nan,666.4532029,1038.160543,1038.518581,nan,nan
0,307,17:19:24:964000,6,1,500,351.5625,[ 0.74814593  0.26005829 -1.        ],1,1,1,0.34425163,0,0,0,0.398046548,0.404358965,0.084944856,0.489303821,0.319414108,nan,nan,nan,[ nan  nan  nan],nan,nan,nan,666.4532029,1039.102332,1039.446584,nan,nan
0,308,17:19:25:916000,6,1,452,317.8125,[ 0.35173807  0.40140621 -1.        ],1,1,1,0.506444351,0,0,0,0.402911362,0.404163175,0.084875526,0.489038702,0.319287649,nan,nan,nan,[ nan  nan  nan],nan,nan,nan,666.4532029,1040.044123,1040.550567,nan,nan
0,309,17:19:26:852000,6,1,168,118.125,[ 1.         -0.19079002  0.2303618 ],1,1,1,0.468615291,0,0,0,0.439770424,0.404495257,0.084937161,0.489432418,0.319558096,nan,nan,nan,[ nan  nan  nan],nan,nan,nan,666.4532029,1040.985912,1041.454527,nan,nan
0,310,17:19:27:788000,6,0,345,242.578125,[-0.17351954  0.46559515  0.18611928],0,0,1,0.486808524,0,0,0,0.487289389,0.404702765,0.084877773,0.489580538,0.319824992,nan,nan,nan,[ nan  nan  nan],nan,nan,nan,666.4532029,1041.92771,1042.414519,nan,nan
0,311,17:19:28:739000,6,1,292,205.3125,[ 0.11288167  0.37606958  0.56926185],1,1,1,0.409033553,0,0,0,0.454819123,0.404967623,0.084868563,0.489836186,0.320099059,nan,nan,nan,[ nan  nan  nan],nan,nan,nan,666.4532029,1042.869482,1043.278515,nan,nan
0,312,17:19:29:675000,6,1,131,92.109375,[ 1.         -0.30845167 -0.1258005 ],1,1,1,0.355221624,0,0,0,0.417021233,0.404980696,0.084732321,0.489713018,0.320248375,nan,nan,nan,[ nan  nan  nan],nan,nan,nan,666.4532029,1043.811276,1044.166498,nan,nan
0,313,17:19:30:627000,6,1,375,263.671875,[-0.1285567   0.47868243 -0.12160516],1,1,1,0.341416047,0,0,0,0.368557074,0.404821212,0.084643164,0.489464376,0.320178048,nan,nan,nan,[ nan  nan  nan],nan,nan,nan,666.4532029,1044.753061,1045.094477,nan,nan
0,314,17:19:31:563000,6,1,169,118.828125,[ 1.         -0.18591738  0.2391183 ],1,1,1,0.311598521,0,0,0,0.33607873,0.40461864,0.08458356,0.4892022,0.32003508,nan,nan,nan,[ nan  nan  nan],nan,nan,nan,666.4532029,1045.694854,1046.006453,nan,nan
0,315,17:19:32:499000,6,1,379,266.484375,[-0.11353594  0.47861499 -0.16597052],1,1,1,0.345799996,0,0,0,0.332938188,0.404322397,0.084611245,0.488933642,0.319711152,nan,nan,nan,[ nan  nan  nan],nan,nan,nan,666.4532029,1046.636644,1046.982444,nan,nan
0,316,17:19:33:450000,6,1,247,173.671875,[ 0.57894763  0.21939267  0.65238059],1,1,1,0.363994939,0,0,0,0.340464485,0.404136612,0.084540958,0.48867757,0.319595653,nan,nan,nan,[ nan  nan  nan],nan,nan,nan,666.4532029,1047.578426,1047.942421,nan,nan
0,317,17:19:34:386000,6,1,489,343.828125,[ 0.65628486  0.29957244 -1.        ],1,1,1,0.446188926,0,0,0,0.385327954,0.404009581,0.08443719,0.488446772,0.319572391,nan,nan,nan,[ nan  nan  nan],nan,nan,nan,666.4532029,1048.520216,1048.966405,nan,nan
0,318,17:19:35:322000,6,1,312,219.375,[-0.04644836  0.4209252   0.45557321],1,1,1,0.376378448,0,0,0,0.395520771,0.404142639,0.084337078,0.488479717,0.319805561,nan,nan,nan,[ nan  nan  nan],nan,nan,nan,666.4532029,1049.462018,1049.838396,nan,nan
0,319,17:19:36:274000,6,0,389,273.515625,[-0.06912081  0.47662608 -0.28023432],0,0,1,0.458586405,0,0,0,0.42705126,0.40405533,0.084218715,0.488274046,0.319836615,nan,nan,nan,[ nan  nan  nan],nan,nan,nan,666.4532029,1050.403792,1050.862378,nan,nan
0,320,17:19:37:210000,6,1,461,324.140625,[ 0.42395965  0.38092737 -1.        ],1,1,1,0.364795494,0,0,0,0.399920116,0.404226274,0.084141845,0.488368119,0.320084429,nan,nan,nan,[ nan  nan  nan],nan,nan,nan,666.4532029,1051.345571,1051.710367,nan,nan
0,321,17:19:38:162000,6,1,401,281.953125,[-0.00506341  0.47079689 -0.4252031 ],1,1,1,0.422997644,0,0,0,0.415459848,0.404103053,0.084039093,0.488142146,0.32006396,nan,nan,nan,[ nan  nan  nan],nan,nan,nan,666.4532029,1052.287356,1052.710354,nan,nan
0,322,17:19:39:098000,6,1,337,236.953125,[-0.16064337  0.45785839  0.25930356],1,1,1,0.433167653,0,0,0,0.40698693,0.404161915,0.083914695,0.48807661,0.32024722,nan,nan,nan,[ nan  nan  nan],nan,nan,nan,666.4532029,1053.22916,1053.662328,nan,nan
0,323,17:19:40:034000,6,1,37,26.015625,[ 1.          0.03585655 -1.        ],1,1,1,0.563369833,0,0,0,0.473178377,0.404251995,0.083799834,0.488051829,0.320452161,nan,nan,nan,[ nan  nan  nan],nan,nan,nan,666.4532029,1054.170948,1054.734318,nan,nan
0,324,17:19:40:985000,6,1,306,215.15625,[-0.00395437  0.40897401  0.49412883],1,1,1,0.47757449,0,0,1,0.491370659,0.40474462,0.084135686,0.488880306,0.320608933,nan,nan,nan,[ nan  nan  nan],nan,nan,nan,666.4532029,1055.11274,1055.590315,nan,nan
0,325,17:19:45:306000,6,1,479,336.796875,[ 0.57257215  0.33176822 -1.        ],1,1,1,0.431761551,1,0,0,0.490901958,0.404969403,0.08410283,0.489072233,0.320866573,nan,95.4268125,504,[ 0.78128615  0.24462829 -1.        ],nan,17.7763125,1.342133353,666.4532029,1056.054525,1056.486286,1057.879727,1059.229902
0,326,17:19:46:242000,6,1,181,127.265625,[ 1.         -0.12391439  0.33920113],1,1,1,0.370127963,0,0,0,0.426488002,0.40505184,0.083986451,0.489038291,0.32106539,nan,nan,nan,[ nan  nan  nan],nan,nan,nan,666.4532029,1060.380087,1060.750215,nan,nan
0,327,17:19:47:194000,6,1,477,335.390625,[ 0.55587987  0.33778403 -1.        ],1,1,1,0.348333375,0,0,0,0.38340763,0.404944712,0.083879774,0.488824486,0.321064938,nan,nan,nan,[ nan  nan  nan],nan,nan,nan,666.4532029,1061.32187,1061.670204,nan,nan
0,328,17:19:48:130000,6,1,347,243.984375,[-0.17493884  0.46723881  0.16715748],1,1,1,0.3825052,0,0,0,0.366988846,0.404771589,0.083809731,0.48858132,0.320961857,nan,nan,nan,[ nan  nan  nan],nan,nan,nan,666.4532029,1062.263668,1062.646173,nan,nan
0,329,17:19:49:066000,6,0,211,148.359375,[ 0.94867577  0.04136069  0.53868916],0,0,1,0.544710751,0,0,0,0.425183109,0.404703703,0.083690879,0.488394582,0.321012825,nan,nan,nan,[ nan  nan  nan],nan,nan,nan,666.4532029,1063.205454,1063.750165,nan,nan
0,330,17:19:50:018000,6,1,112,78.75,[ 1.         -0.30050152 -0.32532486],1,1,1,0.386936191,0,0,0,0.438050714,0.405129257,0.083918254,0.48904751,0.321211003,nan,nan,nan,[ nan  nan  nan],nan,nan,nan,666.4532029,1064.147203,1064.534139,nan,nan
0,331,17:19:50:954000,6,1,370,260.15625,[-0.144806    0.47817873 -0.06718033],1,1,1,0.285090695,0,0,0,0.405579212,0.405074126,0.083796975,0.488871101,0.321277151,nan,nan,nan,[ nan  nan  nan],nan,nan,nan,666.4532029,1065.089026,1065.374116,nan,nan
0,332,17:19:51:905000,6,1,423,297.421875,[ 0.13522958  0.45008089 -0.75003992],1,1,1,0.319277631,0,0,0,0.330434839,0.404711638,0.083929017,0.488640655,0.320782622,nan,nan,nan,[ nan  nan  nan],nan,nan,nan,666.4532029,1066.030818,1066.350096,nan,nan
0,333,17:19:52:841000,6,1,312,219.375,[-0.04644836  0.4209252   0.45557321],1,1,1,0.297485608,0,1,0,0.300617978,0.404454307,0.083933196,0.488387503,0.320521111,nan,nan,nan,[ nan  nan  nan],nan,nan,nan,666.4532029,1066.97261,1067.270096,nan,nan
0,334,17:19:53:777000,6,0,146,102.65625,[ 1.         -0.27879258  0.02488132],0,1,0,0.267683763,0,0,0,0.294815667,0.40413308,0.084011213,0.488144293,0.320121867,nan,nan,nan,[ nan  nan  nan],nan,nan,nan,666.4532029,1067.914396,1068.182079,nan,nan
0,335,17:19:54:729000,6,1,91,63.984375,[ 1.         -0.2377099  -0.56272232],1,1,1,0.357874459,0,0,0,0.307681277,0.403724549,0.084215969,0.487940518,0.31950858,nan,nan,nan,[ nan  nan  nan],nan,nan,nan,666.4532029,1068.856182,1069.214056,nan,nan
0,336,17:19:55:665000,6,1,160,112.5,[ 1.         -0.22750142  0.15829752],1,1,1,0.400068366,0,0,0,0.341875529,0.403587683,0.084127373,0.487715056,0.31946031,nan,nan,nan,[ nan  nan  nan],nan,nan,nan,666.4532029,1069.797977,1070.198045,nan,nan
0,337,17:19:56:601000,6,1,221,155.390625,[ 0.85178146  0.09454116  0.58542294],1,1,1,0.338252601,0,0,0,0.365398476,0.403577209,0.084002309,0.487579518,0.3195749,nan,nan,nan,[ nan  nan  nan],nan,nan,nan,666.4532029,1070.739765,1071.078018,nan,nan
0,338,17:19:57:552000,6,1,108,75.9375,[ 1.         -0.29242661 -0.36866329],1,1,1,0.31645003,0,0,0,0.351590333,0.403383367,0.083952809,0.487336176,0.319430558,nan,nan,nan,[ nan  nan  nan],nan,nan,nan,666.4532029,1071.681546,1071.997996,nan,nan
0,339,17:19:58:488000,6,1,474,333.28125,[ 0.53090176  0.34654538 -1.        ],1,1,1,0.342653941,0,0,0,0.332452191,0.403126168,0.083961389,0.487087557,0.319164779,nan,nan,nan,[ nan  nan  nan],nan,nan,nan,666.4532029,1072.623338,1072.965992,nan,nan
0,340,17:19:59:440000,6,1,83,58.359375,[ 1.         -0.20309788 -0.66587671],1,1,1,0.312847534,0,0,0,0.323983835,0.402947784,0.083901581,0.486849365,0.319046203,nan,nan,nan,[ nan  nan  nan],nan,nan,nan,666.4532029,1073.565121,1073.877968,nan,nan
0,341,17:20:00:376000,6,1,326,229.21875,[-0.12383419  0.44407177  0.35222354],1,1,1,0.443049429,0,0,0,0.366183635,0.402682783,0.083920065,0.486602848,0.318762718,nan,nan,nan,[ nan  nan  nan],nan,nan,nan,666.4532029,1074.506914,1074.949964,nan,nan
0,342,17:20:01:312000,6,1,16,11.25,[ 0.97341943  0.14065211 -1.        ],1,1,1,0.389220965,0,0,0,0.381705976,0.40280116,0.083825349,0.486626509,0.318975812,nan,nan,nan,[ nan  nan  nan],nan,nan,nan,666.4532029,1075.448712,1075.837933,nan,nan
0,343,17:20:02:264000,6,0,186,130.78125,[ 1.         -0.09673867  0.37788139],0,1,0,0.327422875,0,0,0,0.386564423,0.402761452,0.083705919,0.486467371,0.319055533,nan,nan,nan,[ nan  nan  nan],nan,nan,nan,666.4532029,1076.390491,1076.717914,nan,nan
0,344,17:20:03:200000,6,1,344,241.875,[-0.17254346  0.46473023  0.19550382],1,1,1,0.36962163,0,0,0,0.36208849,0.402541806,0.083682452,0.486224259,0.318859354,nan,nan,nan,[ nan  nan  nan],nan,nan,nan,666.4532029,1077.332278,1077.7019,nan,nan
0,345,17:20:04:136000,6,1,483,339.609375,[ 0.60602571  0.31931445 -1.        ],1,1,1,0.483801027,0,0,0,0.393615177,0.402446108,0.083579526,0.486025634,0.318866582,nan,nan,nan,[ nan  nan  nan],nan,nan,nan,666.4532029,1078.274065,1078.757866,nan,nan
0,346,17:20:05:087000,6,1,275,193.359375,[ 0.27900239  0.32618525  0.63017847],1,1,1,0.422002082,0,0,0,0.42514158,0.402681919,0.083572831,0.48625475,0.319109088,nan,nan,nan,[ nan  nan  nan],nan,nan,nan,666.4532029,1079.215864,1079.637866,nan,nan
0,347,17:20:06:023000,6,1,141,99.140625,[ 1.         -0.29195274 -0.02458685],1,1,1,0.368206689,0,0,0,0.424669933,0.402737758,0.083458418,0.486196176,0.319279339,nan,nan,nan,[ nan  nan  nan],nan,nan,nan,666.4532029,1080.157652,1080.525859,nan,nan
0,348,17:20:06:975000,6,1,14,9.84375,[ 0.95801505  0.15002356 -1.        ],1,1,1,0.338413682,0,0,0,0.376207484,0.402638245,0.083358629,0.485996874,0.319279616,nan,nan,nan,[ nan  nan  nan],nan,nan,nan,666.4532029,1081.099436,1081.43785,nan,nan
0,349,17:20:07:911000,6,1,272,191.25,[ 0.3101667   0.31621412  0.63728143],1,1,1,0.324604683,0,0,0,0.343741685,0.402453691,0.083309738,0.48576343,0.319143953,nan,nan,nan,[ nan  nan  nan],nan,nan,nan,666.4532029,1082.041224,1082.365828,nan,nan
0,350,17:20:08:847000,6,1,400,281.25,[-0.01078748  0.4714273  -0.41269269],1,1,1,0.334784671,0,0,0,0.332601012,0.402230628,0.083294304,0.485524932,0.318936324,nan,nan,nan,[ nan  nan  nan],nan,nan,nan,666.4532029,1082.983014,1083.317799,nan,nan
0,351,17:20:09:798000,6,1,49,34.453125,[ 1.         -0.02778543 -1.        ],1,1,1,0.416979229,0,0,0,0.358789528,0.402037926,0.083253098,0.485291023,0.318784828,nan,nan,nan,[ nan  nan  nan],nan,nan,nan,666.4532029,1083.924801,1084.34178,nan,nan
0,352,17:20:10:734000,6,1,301,211.640625,[ 0.03515994  0.39804276  0.52341451],1,1,1,0.419189022,0,0,0,0.390317641,0.402080493,0.083138233,0.485218727,0.31894226,nan,nan,nan,[ nan  nan  nan],nan,nan,nan,666.4532029,1084.866585,1085.285774,nan,nan
0,353,17:20:11:670000,6,1,361,253.828125,[-0.16604781  0.47560771  0.02781731],1,1,1,0.46936852,0,0,0,0.435178924,0.402129097,0.083025049,0.485154146,0.319104048,nan,nan,nan,[ nan  nan  nan],nan,nan,nan,666.4532029,1085.808379,1086.277748,nan,nan
0,354,17:20:12:622000,6,1,417,293.203125,[ 0.0945046   0.45705356 -0.6457202 ],1,1,1,0.55157163,0,0,0,0.480043057,0.402319577,0.082984353,0.48530393,0.319335224,nan,nan,nan,[ nan  nan  nan],nan,nan,nan,666.4532029,1086.750166,1087.301738,nan,nan
0,355,17:20:13:558000,6,1,202,142.03125,[ 1.         -0.00802826  0.48759698],1,1,1,0.513761387,0,0,1,0.511567179,0.402741193,0.083244814,0.485986007,0.319496379,nan,nan,nan,[ nan  nan  nan],nan,nan,nan,666.4532029,1087.691956,1088.205718,nan,nan
0,356,17:20:19:720000,6,1,507,356.484375,[ 0.80599565  0.23268835 -1.        ],1,1,1,0.547948322,1,0,0,0.537760446,0.403053926,0.08333547,0.486389396,0.319718456,nan,102.9305515,494,[ 0.69812996  0.282144   -1.        ],nan,-9.414926467,3.167368958,666.4532029,1088.633746,1089.181694,1090.467282,1093.64269
0,357,17:20:20:656000,6,1,378,265.78125,[-0.11745014  0.47867092 -0.15481012],1,1,1,0.348725385,0,0,0,0.470145031,0.403460933,0.083570929,0.487031861,0.319890004,nan,nan,nan,[ nan  nan  nan],nan,nan,nan,666.4532029,1094.792875,1095.1416,nan,nan
0,358,17:20:21:608000,6,1,444,312.1875,[ 0.2892412   0.41740978 -1.        ],1,1,1,0.382908328,0,0,0,0.426527345,0.403307612,0.083503924,0.486811536,0.319803688,nan,nan,nan,[ nan  nan  nan],nan,nan,nan,666.4532029,1095.734653,1096.117562,nan,nan
0,359,17:20:22:544000,6,1,253,177.890625,[ 0.5138659   0.24483993  0.65597719],1,1,1,0.489096149,0,0,0,0.406909954,0.403250631,0.083394167,0.486644798,0.319856464,nan,nan,nan,[ nan  nan  nan],nan,nan,nan,666.4532029,1096.676452,1097.165549,nan,nan
0,360,17:20:23:480000,6,0,362,254.53125,[-0.16423973  0.47600016  0.01745785],0,0,1,0.451327815,0,0,0,0.441110764,0.403489755,0.083400753,0.486890507,0.320089002,nan,nan,nan,[ nan  nan  nan],nan,nan,nan,666.4532029,1097.618218,1098.069545,nan,nan
0,361,17:20:24:431000,6,1,92,64.6875,[ 1.         -0.24170366 -0.55060884],1,1,1,0.37349953,0,0,0,0.437974498,0.403622638,0.083322887,0.486945525,0.320299752,nan,nan,nan,[ nan  nan  nan],nan,nan,nan,666.4532029,1098.560028,1098.933527,nan,nan
0,362,17:20:25:367000,6,1,471,331.171875,[ 0.50601401  0.35499378 -1.        ],1,1,1,0.479694193,0,0,0,0.434840512,0.403539195,0.083222462,0.486761657,0.320316733,nan,nan,nan,[ nan  nan  nan],nan,nan,nan,666.4532029,1099.501816,1099.98151,nan,nan
0,363,17:20:26:319000,6,0,69,48.515625,[ 1.         -0.1342072  -0.93964801],0,0,1,0.465897739,0,0,0,0.439697154,0.403749568,0.0832035,0.486953067,0.320546068,nan,nan,nan,[ nan  nan  nan],nan,nan,nan,666.4532029,1100.443609,1100.909507,nan,nan
0,364,17:20:27:255000,6,1,26,18.28125,[ 1.          0.09209217 -1.        ],1,1,1,0.340092623,0,0,0,0.428561518,0.403920775,0.083152643,0.487073418,0.320768131,nan,nan,nan,[ nan  nan  nan],nan,nan,nan,666.4532029,1101.385395,1101.725488,nan,nan
0,365,17:20:28:191000,6,1,165,116.015625,[ 1.         -0.20505638  0.20374544],1,1,1,0.350278312,0,0,0,0.385422891,0.403745423,0.083105525,0.486850947,0.320639898,nan,nan,nan,[ nan  nan  nan],nan,nan,nan,666.4532029,1102.327185,1102.677463,nan,nan
0,366,17:20:29:142000,6,1,511,359.296875,[ 0.83870319  0.21628417 -1.        ],1,1,1,0.368444746,0,0,0,0.35293856,0.403598937,0.083038647,0.486637585,0.32056029,nan,nan,nan,[ nan  nan  nan],nan,nan,nan,666.4532029,1103.268993,1103.637438,nan,nan
0,367,17:20:30:078000,6,1,70,49.21875,[ 1.         -0.13936985 -0.90643691],1,1,1,0.426659155,0,0,0,0.381794071,0.403502888,0.08294543,0.486448318,0.320557458,nan,nan,nan,[ nan  nan  nan],nan,nan,nan,666.4532029,1104.210764,1104.637423,nan,nan
0,368,17:20:31:014000,6,0,147,103.359375,[ 1.         -0.27580113  0.03467205],0,0,1,0.508836892,0,0,0,0.434646931,0.403565984,0.082841143,0.486407127,0.320724841,nan,nan,nan,[ nan  nan  nan],nan,nan,nan,666.4532029,1105.152567,1105.661404,nan,nan
0,369,17:20:31:966000,6,1,453,318.515625,[ 0.35967042  0.39926175 -1.        ],1,1,1,0.439052643,0,0,0,0.458182897,0.403852046,0.082909822,0.486761869,0.320942224,nan,nan,nan,[ nan  nan  nan],nan,nan,nan,666.4532029,1106.094335,1106.533388,nan,nan
0,370,17:20:32:902000,6,1,333,234.140625,[-0.14981348  0.45327595  0.29418374],1,1,1,0.385241854,0,0,0,0.44437713,0.403947441,0.082817623,0.486765064,0.321129818,nan,nan,nan,[ nan  nan  nan],nan,nan,nan,666.4532029,1107.036129,1107.421371,nan,nan
0,371,17:20:33:838000,6,1,144,101.25,[ 1.         -0.28442319  0.00519445],1,1,1,0.435436747,0,0,0,0.419910415,0.403896885,0.082711333,0.486608218,0.321185552,nan,nan,nan,[ nan  nan  nan],nan,nan,nan,666.4532029,1107.977917,1108.413354,nan,nan
0,372,17:20:34:790000,6,1,185,130.078125,[ 1.         -0.10221447  0.37029995],1,1,1,0.541641958,0,0,0,0.454106853,0.403981898,0.082615972,0.48659787,0.321365926,nan,nan,nan,[ nan  nan  nan],nan,nan,nan,666.4532029,1108.919691,1109.461333,nan,nan
0,373,17:20:35:726000,6,1,425,298.828125,[ 0.14916262  0.4475296  -0.79171567],1,1,1,0.503823732,0,0,1,0.493634146,0.404351952,0.082812171,0.487164123,0.321539781,nan,nan,nan,[ nan  nan  nan],nan,nan,nan,666.4532029,1109.8615,1110.365323,nan,nan
0,374,17:20:41:154000,6,1,311,218.671875,[-0.03972498  0.41902022  0.46225021],1,1,1,0.394033986,1,0,0,0.479833225,0.404618632,0.082860884,0.487479517,0.321757748,nan,-132.2169792,316,[-0.07182156  0.42820351  0.42789226],nan,3.545104246,2.433951102,666.4532029,1110.803279,1111.197313,1112.636797,1115.078781
0,375,17:20:42:090000,6,1,82,57.65625,[ 1.         -0.19847916 -0.67987248],1,1,1,0.3045586,0,0,0,0.400805439,0.404590331,0.082751839,0.48734217,0.321838493,nan,nan,nan,[ nan  nan  nan],nan,nan,nan,666.4532029,1116.22066,1116.525219,nan,nan
0,376,17:20:43:026000,6,1,452,317.8125,[ 0.35173807  0.40140621 -1.        ],1,1,1,0.338711609,0,0,0,0.345768065,0.40432358,0.082802284,0.487125864,0.321521296,nan,nan,nan,[ nan  nan  nan],nan,nan,nan,666.4532029,1117.162471,1117.501183,nan,nan
0,377,17:20:43:978000,6,1,384,270,[-0.09247501  0.47794532 -0.22247927],1,1,1,0.396948826,0,0,0,0.346739678,0.40414908,0.082761117,0.486910197,0.321387963,nan,nan,nan,[ nan  nan  nan],nan,nan,nan,666.4532029,1118.104228,1118.501177,nan,nan
0,378,17:20:44:914000,6,1,339,238.359375,[-0.16495584  0.45996923  0.2414231 ],1,1,1,0.391139673,0,0,0,0.375600036,0.404129981,0.082652111,0.486782092,0.32147787,nan,nan,nan,[ nan  nan  nan],nan,nan,nan,666.4532029,1119.046018,1119.437157,nan,nan
0,379,17:20:45:866000,6,1,42,29.53125,[ 1.          0.00954879 -1.        ],1,1,1,0.497371968,0,0,0,0.428486822,0.404095615,0.082545407,0.486641023,0.321550208,nan,nan,nan,[ nan  nan  nan],nan,nan,nan,666.4532029,1119.987774,1120.485146,nan,nan
0,380,17:20:46:802000,6,1,201,141.328125,[ 1.         -0.01357126  0.48142235],1,1,1,0.427544384,0,0,0,0.438685342,0.404341727,0.082575189,0.486916916,0.321766538,nan,nan,nan,[ nan  nan  nan],nan,nan,nan,666.4532029,1120.929591,1121.357135,nan,nan
0,381,17:20:47:738000,6,1,34,23.90625,[ 1.          0.05144197 -1.        ],1,1,1,0.357678882,0,0,0,0.427531745,0.404402787,0.082475033,0.48687782,0.321927754,nan,nan,nan,[ nan  nan  nan],nan,nan,nan,666.4532029,1121.87144,1122.229119,nan,nan
0,382,17:20:48:689000,6,1,239,168.046875,[ 0.66506983  0.18338886  0.64054927],1,1,1,0.311932085,0,0,0,0.36571845,0.404280152,0.082401412,0.486681563,0.32187874,nan,nan,nan,[ nan  nan  nan],nan,nan,nan,666.4532029,1122.813168,1123.1251,nan,nan
0,383,17:20:49:625000,6,1,484,340.3125,[ 0.61439895  0.31611274 -1.        ],1,1,1,0.306128919,0,0,0,0.325246629,0.404038403,0.082428662,0.486467065,0.321609741,nan,nan,nan,[ nan  nan  nan],nan,nan,nan,666.4532029,1123.75496,1124.061089,nan,nan
0,384,17:20:50:561000,6,1,37,26.015625,[ 1.          0.03585655 -1.        ],1,1,1,0.30833301,0,1,0,0.308798005,0.403782765,0.08247247,0.486255234,0.321310295,nan,nan,nan,[ nan  nan  nan],nan,nan,nan,666.4532029,1124.696744,1125.005077,nan,nan
0,385,17:20:54:820000,6,1,418,293.90625,[ 0.10117589  0.45596175 -0.66167931],1,1,1,0.326530519,1,0,0,0.313664149,0.403534197,0.082508541,0.486042739,0.321025656,nan,165.6889587,404,[ 0.01248946  0.46874627 -0.4633491 ],nan,-9.595208737,1.250438766,666.4532029,1125.638524,1125.965054,1127.472074,1128.730548
0,386,17:20:55:756000,6,1,325,228.515625,[-0.1194049   0.44263104  0.36018642],1,1,1,0.435875228,0,0,0,0.356912919,0.403334188,0.082494476,0.485828664,0.320839712,nan,nan,nan,[ nan  nan  nan],nan,nan,nan,666.4532029,1129.889087,1130.324962,nan,nan
0,387,17:20:56:692000,6,1,92,64.6875,[ 1.         -0.24170366 -0.55060884],1,1,1,0.422080484,0,0,0,0.394828744,0.403418491,0.082404153,0.485822644,0.321014338,nan,nan,nan,[ nan  nan  nan],nan,nan,nan,666.4532029,1130.830877,1131.252958,nan,nan
0,388,17:20:57:644000,6,1,238,167.34375,[ 0.67574183  0.17872767  0.63851109],1,1,1,0.432273302,0,0,0,0.430076338,0.403466713,0.082303072,0.485769785,0.321163641,nan,nan,nan,[ nan  nan  nan],nan,nan,nan,666.4532029,1131.772663,1132.204937,nan,nan
0,389,17:20:58:580000,6,1,505,355.078125,[ 0.78953796  0.24068314 -1.        ],1,1,1,0.378469355,0,0,0,0.410941047,0.403540957,0.082209918,0.485750875,0.321331039,nan,nan,nan,[ nan  nan  nan],nan,nan,nan,666.4532029,1132.714451,1133.092921,nan,nan
0,390,17:20:59:531000,6,0,442,310.78125,[ 0.27390726  0.42109554 -1.        ],0,0,1,0.524624754,0,0,0,0.44512247,0.403476506,0.082113996,0.485590502,0.321362509,nan,nan,nan,[ nan  nan  nan],nan,nan,nan,666.4532029,1133.656272,1134.180896,nan,nan
0,391,17:21:00:467000,6,1,202,142.03125,[ 1.         -0.00802826  0.48759698],1,1,1,0.70282914,0,0,0,0.53530775,0.403787142,0.082237193,0.486024336,0.321549949,nan,nan,nan,[ nan  nan  nan],nan,nan,nan,666.4532029,1134.598051,1135.300881,nan,nan
0,392,17:21:01:403000,6,1,506,355.78125,[ 0.79777474  0.23670313 -1.        ],1,1,1,0.577057095,0,0,0,0.601503663,0.404551956,0.083509196,0.488061151,0.32104276,nan,nan,nan,[ nan  nan  nan],nan,nan,nan,666.4532029,1135.539819,1136.116876,nan,nan
0,393,17:21:02:355000,6,1,144,101.25,[ 1.         -0.28442319  0.00519445],1,1,1,0.515241615,0,0,1,0.59837595,0.40499202,0.083855323,0.488847342,0.321136697,nan,nan,nan,[ nan  nan  nan],nan,nan,nan,666.4532029,1136.481607,1136.996848,nan,nan
0,394,17:21:09:032000,6,1,292,205.3125,[ 0.11288167  0.37606958  0.56926185],1,1,1,0.493105194,1,0,0,0.528467968,0.405272553,0.083932549,0.489205102,0.321340004,nan,-128.8298249,311,[-0.03972498  0.41902022  0.46225021],nan,13.51732491,3.675778203,666.4532029,1137.431732,1137.924837,1139.265266,1142.949078
0,395,17:21:09:968000,6,1,373,262.265625,[-0.13540771  0.47855957 -0.09969749],1,1,1,0.377458113,0,0,0,0.461934974,0.405495478,0.083942381,0.489437859,0.321553098,nan,nan,nan,[ nan  nan  nan],nan,nan,nan,666.4532029,1144.099263,1144.476721,nan,nan
0,396,17:21:10:904000,6,1,159,111.796875,[ 1.         -0.23176597  0.14905501],1,1,1,0.347653702,0,0,0,0.406072337,0.405424498,0.083847895,0.489272393,0.321576602,nan,nan,nan,[ nan  nan  nan],nan,nan,nan,666.4532029,1145.04105,1145.388704,nan,nan
0,397,17:21:11:855000,6,1,350,246.09375,[-0.17575682  0.46949094  0.13824748],1,1,1,0.325845144,0,0,0,0.350318986,0.405278612,0.083792139,0.489070751,0.321486473,nan,nan,nan,[ nan  nan  nan],nan,nan,nan,666.4532029,1145.982838,1146.308683,nan,nan
0,398,17:21:12:791000,6,1,413,290.390625,[ 0.06831062  0.46114313 -0.5854956 ],1,1,1,0.280053872,0,1,0,0.317850906,0.405078528,0.083781206,0.488859733,0.321297322,nan,nan,nan,[ nan  nan  nan],nan,nan,nan,666.4532029,1146.924615,1147.204669,nan,nan
0,399,17:21:17:440000,6,1,369,259.453125,[-0.14769469  0.47799919 -0.05643387],1,1,1,0.306252081,1,0,0,0.304050366,0.404764395,0.083909652,0.488674047,0.320854744,nan,-153.0645071,346,[-0.17431756  0.46643129  0.17667017],nan,-16.38861787,1.650525093,666.4532029,1147.866412,1148.172664,1149.69993,1151.358482
0,400,17:21:18:376000,6,1,44,30.9375,[ 1.         -0.00106984 -1.        ],1,1,1,0.535886403,0,0,0,0.374064119,0.404517497,0.083949062,0.488466559,0.320568436,nan,nan,nan,[ nan  nan  nan],nan,nan,nan,666.4532029,1152.508681,1153.044567,nan,nan
0,401,17:21:19:312000,6,1,89,62.578125,[ 1.         -0.2294841  -0.58737049],1,1,1,0.3940739,0,0,0,0.412070795,0.40484592,0.084100315,0.488946235,0.320745605,nan,nan,nan,[ nan  nan  nan],nan,nan,nan,666.4532029,1153.450475,1153.844548,nan,nan
0,402,17:21:20:264000,6,1,161,113.203125,[ 1.         -0.22315835  0.16749055],1,1,1,0.332291206,0,0,0,0.420750503,0.404819057,0.083997104,0.488816161,0.320821952,nan,nan,nan,[ nan  nan  nan],nan,nan,nan,666.4532029,1154.392248,1154.72454,nan,nan
0,403,17:21:21:200000,6,1,376,264.375,[-0.12496282  0.47870467 -0.13262763],1,1,1,0.350474745,0,0,0,0.358946617,0.404638639,0.083970324,0.488608963,0.320668315,nan,nan,nan,[ nan  nan  nan],nan,nan,nan,666.4532029,1155.33405,1155.684525,nan,nan
0,404,17:21:22:151000,6,1,505,355.078125,[ 0.78953796  0.24068314 -1.        ],1,1,1,0.36066072,0,0,0,0.34780889,0.404504237,0.08390936,0.488413597,0.320594878,nan,nan,nan,[ nan  nan  nan],nan,nan,nan,666.4532029,1156.275845,1156.636506,nan,nan
0,405,17:21:23:087000,6,1,181,127.265625,[ 1.         -0.12391439  0.33920113],1,1,1,0.314881707,0,0,0,0.342005724,0.404395714,0.083833759,0.488229473,0.320561954,nan,nan,nan,[ nan  nan  nan],nan,nan,nan,666.4532029,1157.217609,1157.53249,nan,nan
0,406,17:21:24:023000,6,1,46,32.34375,[ 1.         -0.01173137 -1.        ],1,1,1,0.333055268,0,0,0,0.336199232,0.404174692,0.083847967,0.488022659,0.320326724,nan,nan,nan,[ nan  nan  nan],nan,nan,nan,666.4532029,1158.15941,1158.492465,nan,nan
0,407,17:21:24:975000,6,1,251,176.484375,[ 0.53557652  0.23650919  0.65528415],1,1,1,0.399212218,0,0,0,0.349049731,0.403999521,0.083818808,0.487818328,0.320180713,nan,nan,nan,[ nan  nan  nan],nan,nan,nan,666.4532029,1159.101238,1159.50045,nan,nan
0,408,17:21:25:911000,6,1,141,99.140625,[ 1.         -0.29195274 -0.02458685],1,1,1,0.425443783,0,0,0,0.385903756,0.403987758,0.083716108,0.487703867,0.32027165,nan,nan,nan,[ nan  nan  nan],nan,nan,nan,666.4532029,1160.042992,1160.468436,nan,nan
0,409,17:21:26:847000,6,1,29,20.390625,[ 1.          0.07701739 -1.        ],1,1,1,0.403647199,0,0,0,0.4094344,0.404040347,0.083620183,0.487660529,0.320420164,nan,nan,nan,[ nan  nan  nan],nan,nan,nan,666.4532029,1160.984777,1161.388424,nan,nan
0,410,17:21:27:799000,6,1,356,250.3125,[-0.17284378  0.47323941  0.07883681],1,1,1,0.613835854,0,0,0,0.480975612,0.404039385,0.083517897,0.487557283,0.320521488,nan,nan,nan,[ nan  nan  nan],nan,nan,nan,666.4532029,1161.926567,1162.540402,nan,nan
