block,trial,freq_trials,correct_response,actual_response,acc,rts,probe_trials,fast_rt_trigger,slow_rt_trigger,rt_triggered,rts_runningavg,rts_runningstd,rts_runningfastthresh,rts_runningslowthresh,rts_runningstd,rts_trailingavg,trials_colorind,trials_colorrgb0,trials_colorrgb1,trials_colorrgb2,wm_respdeg,wm_respdeg_in_colorspace,wm_respcolorminusorigcolor,wm_resptexind,wm_resptexrgb0,wm_resptexrgb1,wm_resptexrgb2,wm_rts,time_blockstart,time_encarray_offset,time_encarray_onset,time_response,time_iti_offset,time_iti_onset,time_memprobe_offset,time_memprobe_onset
1,1,1,1,1.0,1.0,0.70991382061,0,nan,nan,nan,nan,nan,nan,nan,nan,nan,10,0.926811495151,0.168400576072,-1.0,nan,nan,nan,nan,nan,nan,nan,nan,666.453202903,667.47925058,nan,668.189164401,nan,nan,nan,nan
1,2,1,1,1.0,1.0,0.445824286202,0,nan,nan,nan,nan,nan,nan,nan,nan,nan,113,1.0,-0.302191989669,-0.314576349441,nan,nan,nan,nan,nan,nan,nan,nan,666.453202903,668.423332349,nan,668.869156635,nan,nan,nan,nan
1,3,1,1,1.0,1.0,0.426319888851,0,nan,nan,nan,nan,nan,nan,nan,nan,nan,5,0.88714030954,0.190659852496,-1.0,nan,nan,nan,nan,nan,nan,nan,nan,666.453202903,669.362834876,nan,669.789154765,nan,nan,nan,nan
1,4,1,1,1.0,1.0,0.348515837803,0,nan,nan,nan,nan,nan,nan,nan,nan,nan,483,0.606025706087,0.319314454546,-1.0,nan,nan,nan,nan,nan,nan,nan,nan,666.453202903,670.304604501,nan,670.653120339,nan,nan,nan,nan
1,5,1,1,1.0,1.0,0.414681910654,0,nan,nan,nan,nan,nan,nan,nan,nan,nan,104,1.0,-0.282351481576,-0.412644567278,nan,nan,nan,nan,nan,nan,nan,nan,666.453202903,671.246423733,nan,671.661105644,nan,nan,nan,nan
1,6,1,1,1.0,1.0,0.31288630754,0,nan,nan,nan,nan,nan,nan,nan,nan,nan,201,1.0,-0.0135712615467,0.48142235136,nan,nan,nan,nan,nan,nan,nan,nan,666.453202903,672.188206758,nan,672.501093065,nan,nan,nan,nan
1,7,0,0,0.0,1.0,0.42708822753,0,nan,nan,nan,nan,nan,nan,nan,nan,nan,463,0.440238315199,0.376011795327,-1.0,nan,nan,nan,nan,nan,nan,nan,nan,666.453202903,673.129991208,nan,673.557079435,nan,nan,nan,nan
1,8,1,1,1.0,1.0,0.333289903414,0,nan,nan,nan,nan,nan,nan,nan,nan,nan,383,-0.0968787136249,0.478131214543,-0.211081409456,nan,nan,nan,nan,nan,nan,nan,nan,666.453202903,674.071759122,nan,674.405049025,nan,nan,nan,nan
1,9,1,1,1.0,1.0,0.351464604551,0,nan,nan,nan,nan,nan,nan,nan,nan,nan,506,0.797774742377,0.236703125255,-1.0,nan,nan,nan,nan,nan,nan,nan,nan,666.453202903,675.013570086,nan,675.365034691,nan,nan,nan,nan
1,10,1,1,1.0,1.0,0.329667450453,0,nan,nan,nan,nan,nan,nan,nan,nan,nan,207,0.985653507947,0.0195431921708,0.51699622314,nan,nan,nan,nan,nan,nan,nan,nan,666.453202903,675.955357387,nan,676.285024838,nan,nan,nan,nan
1,11,1,1,1.0,1.0,0.30786060309,0,nan,nan,nan,nan,nan,nan,nan,nan,nan,349,-0.175656888649,0.468768509344,0.147945183432,nan,nan,nan,nan,nan,nan,nan,nan,666.453202903,676.897145829,nan,677.205006432,nan,nan,nan,nan
1,12,0,0,1.0,0.0,0.302060573013,0,0.0,0.0,0.0,nan,nan,nan,nan,nan,nan,428,0.170378320166,0.443486568519,-0.86866140055,nan,nan,nan,nan,nan,nan,nan,nan,666.453202903,677.838935125,nan,678.140995698,nan,nan,nan,nan
1,13,1,1,1.0,1.0,0.360249893914,1,nan,nan,nan,nan,nan,nan,nan,nan,nan,350,-0.175756816429,0.469490941964,0.138247479403,-131.944406542,221.944406542,-24.1493434578,316.0,-0.0718215561597,0.428203514031,0.427892255365,2.58397043194,666.453202903,678.780719861,679.589144957,679.140969755,683.197896377,684.20463609,680.597562186,683.189560687
1,14,1,1,1.0,1.0,0.616771791771,0,nan,nan,nan,nan,nan,nan,nan,nan,nan,420,0.1146601879,0.45369410126,-0.695047497311,nan,nan,nan,nan,nan,nan,nan,nan,666.453202903,684.348103871,nan,684.964875663,nan,nan,nan,nan
1,15,1,1,1.0,1.0,0.63499524456,0,nan,nan,nan,nan,nan,nan,nan,nan,nan,71,1.0,-0.144504067012,-0.877980773838,nan,nan,nan,nan,nan,nan,nan,nan,666.453202903,685.289858671,nan,685.924853916,nan,nan,nan,nan
1,16,0,0,0.0,1.0,0.66917334171,0,nan,nan,nan,nan,nan,nan,nan,nan,nan,198,1.0,-0.0302354974571,0.462326941081,nan,nan,nan,nan,nan,nan,nan,nan,666.453202903,686.231670206,nan,686.900843547,nan,nan,nan,nan
1,17,1,1,1.0,1.0,0.359358393063,0,nan,nan,nan,nan,nan,nan,nan,nan,nan,122,1.0,-0.311159539646,-0.219144224573,nan,nan,nan,nan,nan,nan,nan,nan,666.453202903,687.173461498,nan,687.532819891,nan,nan,nan,nan
1,18,1,1,1.0,1.0,0.329560538812,0,nan,nan,nan,nan,nan,nan,nan,nan,nan,195,1.0,-0.0469245268387,0.442396054288,nan,nan,nan,nan,nan,nan,nan,nan,666.453202903,688.115245378,nan,688.444805917,nan,nan,nan,nan
1,19,1,1,1.0,1.0,0.515731697844,1,nan,nan,nan,nan,nan,nan,nan,nan,nan,8,0.91102658764,0.177400941622,-1.0,114.420616379,335.579383621,-30.0456163786,477.0,0.555879874869,0.337784025865,-1.0,3.02575488202,666.453202903,689.057044938,689.865457491,689.572776636,693.924307098,694.921663671,690.882245191,693.916001343
1,20,1,1,1.0,1.0,0.51451119408,0,nan,nan,nan,nan,nan,nan,nan,nan,nan,465,0.456588679398,0.37096152752,-1.0,nan,nan,nan,nan,nan,nan,nan,nan,666.453202903,695.066153814,nan,695.580665008,nan,nan,nan,nan
1,21,1,1,1.0,1.0,0.420714295527,0,nan,nan,nan,nan,nan,nan,nan,nan,nan,217,0.891250405156,0.0735373331823,0.568048345461,nan,nan,nan,nan,nan,nan,nan,nan,666.453202903,696.007944251,nan,696.428658546,nan,nan,nan,nan
1,22,1,1,1.0,1.0,0.454931451066,0,nan,nan,nan,nan,nan,nan,nan,nan,nan,369,-0.147694689129,0.477999187239,-0.0564338676883,nan,nan,nan,nan,nan,nan,nan,nan,666.453202903,696.949728986,nan,697.404660437,nan,nan,nan,nan
1,23,1,1,1.0,1.0,0.361126854841,0,nan,nan,nan,nan,nan,nan,nan,nan,nan,310,-0.032854544558,0.417080732083,0.468828018046,nan,nan,nan,nan,nan,nan,nan,nan,666.453202903,697.891517713,nan,698.252644567,nan,nan,nan,nan
1,24,1,1,1.0,1.0,0.339309458854,0,nan,nan,nan,nan,nan,nan,nan,nan,nan,443,0.281558783006,0.419268214519,-1.0,nan,nan,nan,nan,nan,nan,nan,nan,666.453202903,698.833310716,nan,699.172620174,nan,nan,nan,nan
1,25,1,1,1.0,1.0,0.301515751053,0,nan,nan,nan,nan,nan,nan,nan,nan,nan,350,-0.175756816429,0.469490941964,0.138247479403,nan,nan,nan,nan,nan,nan,nan,nan,666.453202903,699.7750926,nan,700.076608351,nan,nan,nan,nan
1,26,1,1,1.0,1.0,0.335694133362,0,nan,nan,nan,nan,nan,nan,nan,nan,nan,431,0.191957257768,0.43918128748,-0.982298765802,nan,nan,nan,nan,nan,nan,nan,nan,666.453202903,700.716884177,nan,701.052578311,nan,nan,nan,nan
1,27,1,1,1.0,1.0,0.329894103284,0,nan,nan,nan,nan,nan,nan,nan,nan,nan,39,1.0,0.0253789930673,-1.0,nan,nan,nan,nan,nan,nan,nan,nan,666.453202903,701.658672619,nan,701.988566722,nan,nan,nan,nan
1,28,1,1,1.0,1.0,0.364094723191,0,nan,nan,nan,nan,nan,nan,nan,nan,nan,145,1.0,-0.281667413287,0.0150551701241,nan,nan,nan,nan,nan,nan,nan,nan,666.453202903,702.600458779,nan,702.964553503,nan,nan,nan,nan
1,29,1,1,1.0,1.0,0.31830772775,1,nan,nan,nan,nan,nan,nan,nan,nan,nan,319,-0.0891891826932,0.433308674125,0.406137099325,-121.011069304,211.011069304,-13.2858056963,300.0,0.0433537089178,0.395748422077,0.528951029102,3.5924289992,666.453202903,703.542238098,704.350658348,703.860545826,708.98459588,709.991017138,705.375781738,708.976229114
1,30,1,1,1.0,1.0,0.573632499785,0,nan,nan,nan,nan,nan,nan,nan,nan,nan,386,-0.0833946583454,0.477495592553,-0.245424736514,nan,nan,nan,nan,nan,nan,nan,nan,666.453202903,710.134773438,nan,710.708405938,nan,nan,nan,nan
1,31,1,1,1.0,1.0,0.359848191147,0,nan,nan,nan,nan,nan,nan,nan,nan,nan,98,1.0,-0.263822910468,-0.480217789416,nan,nan,nan,nan,nan,nan,nan,nan,666.453202903,711.076553327,nan,711.436401518,nan,nan,nan,nan
1,32,1,1,1.0,1.0,0.346040048287,0,nan,nan,nan,nan,nan,nan,nan,nan,nan,455,0.375608248681,0.394875365091,-1.0,nan,nan,nan,nan,nan,nan,nan,nan,666.453202903,712.01834633,nan,712.364386378,nan,nan,nan,nan
1,33,1,1,1.0,1.0,0.29222783423,0,nan,nan,nan,nan,nan,nan,nan,nan,nan,244,0.611372359265,0.206163547436,0.648880721676,nan,nan,nan,nan,nan,nan,nan,nan,666.453202903,712.960137622,nan,713.252365457,nan,nan,nan,nan
1,34,0,0,0.0,1.0,0.478416954458,0,nan,nan,nan,nan,nan,nan,nan,nan,nan,177,1.0,-0.145192147526,0.306921212481,nan,nan,nan,nan,nan,nan,nan,nan,666.453202903,713.901924353,nan,714.380341308,nan,nan,nan,nan
1,35,1,1,1.0,1.0,0.328622281842,0,nan,nan,nan,nan,nan,nan,nan,nan,nan,22,1.0,0.111842423158,-1.0,nan,nan,nan,nan,nan,nan,nan,nan,666.453202903,714.843707093,nan,715.172329375,nan,nan,nan,nan
1,36,1,1,1.0,1.0,0.34681351867,0,nan,nan,nan,nan,nan,nan,nan,nan,nan,444,0.289241202529,0.417409780569,-1.0,nan,nan,nan,nan,nan,nan,nan,nan,666.453202903,715.785489262,nan,716.132302781,nan,nan,nan,nan
1,37,1,1,1.0,1.0,0.373018855229,0,nan,nan,nan,nan,nan,nan,nan,nan,nan,142,1.0,-0.289568116499,-0.0146273521697,nan,nan,nan,nan,nan,nan,nan,nan,666.453202903,716.727283691,nan,717.100302546,nan,nan,nan,nan
1,38,0,0,0.0,1.0,0.479188999336,0,nan,nan,nan,nan,nan,nan,nan,nan,nan,259,0.44882283482,0.268906983076,0.655011783756,nan,nan,nan,nan,nan,nan,nan,nan,666.453202903,717.669096365,nan,718.148285365,nan,nan,nan,nan
1,39,1,1,1.0,1.0,0.417407445842,0,nan,nan,nan,nan,nan,nan,nan,nan,nan,2,0.863024578927,0.203622855609,-1.0,nan,nan,nan,nan,nan,nan,nan,nan,666.453202903,718.61086542,nan,719.028272866,nan,nan,nan,nan
1,40,1,1,1.0,1.0,0.355599663395,0,nan,nan,nan,nan,nan,nan,nan,nan,nan,393,-0.0489456633786,0.475102171109,-0.327443230616,nan,nan,nan,nan,nan,nan,nan,nan,666.453202903,719.552649015,nan,719.908248678,nan,nan,nan,nan
1,41,1,1,1.0,1.0,0.525793085108,0,nan,nan,nan,nan,nan,nan,nan,nan,nan,2,0.863024578927,0.203622855609,-1.0,nan,nan,nan,nan,nan,nan,nan,nan,666.453202903,720.494441448,nan,721.020234533,nan,nan,nan,nan
1,42,0,0,0.0,1.0,0.479981856362,0,nan,nan,nan,nan,nan,nan,nan,nan,nan,198,1.0,-0.0302354974571,0.462326941081,nan,nan,nan,nan,nan,nan,nan,nan,666.453202903,721.436239297,nan,721.916221154,nan,nan,nan,nan
1,43,1,1,1.0,1.0,0.346178605803,0,nan,nan,nan,nan,nan,nan,nan,nan,nan,391,-0.0591907973189,0.475916278612,-0.303718712187,nan,nan,nan,nan,nan,nan,nan,nan,666.453202903,722.378019471,nan,722.724198077,nan,nan,nan,nan
1,44,1,1,1.0,1.0,0.332390134747,0,nan,nan,nan,nan,nan,nan,nan,nan,nan,282,0.208142307666,0.34807905204,0.609295500931,nan,nan,nan,nan,nan,nan,nan,nan,666.453202903,723.319805062,nan,723.652195196,nan,nan,nan,nan
1,45,1,1,1.0,1.0,0.358494261513,0,nan,nan,nan,nan,nan,nan,nan,nan,nan,127,1.0,-0.31111021432,-0.167036648065,nan,nan,nan,nan,nan,nan,nan,nan,666.453202903,724.261596924,nan,724.620091186,nan,nan,nan,nan
1,46,1,1,1.0,1.0,0.440759523422,0,nan,nan,nan,nan,nan,nan,nan,nan,nan,456,0.383612429175,0.392633185378,-1.0,nan,nan,nan,nan,nan,nan,nan,nan,666.453202903,725.20338394,nan,725.644143464,nan,nan,nan,nan
1,47,1,1,1.0,1.0,0.370949045056,0,nan,nan,nan,nan,nan,nan,nan,nan,nan,318,-0.0835627602325,0.431640264478,0.413481556053,nan,nan,nan,nan,nan,nan,nan,nan,666.453202903,726.145173522,nan,726.516122567,nan,nan,nan,nan
1,48,1,1,1.0,1.0,0.365156712534,0,nan,nan,nan,nan,nan,nan,nan,nan,nan,6,0.895129075663,0.186272780825,-1.0,nan,nan,nan,nan,nan,nan,nan,nan,666.453202903,727.086958827,nan,727.45211554,nan,nan,nan,nan
1,49,1,1,1.0,1.0,0.399327682331,0,nan,nan,nan,nan,nan,nan,nan,nan,nan,240,0.654373017221,0.188015059697,0.642463954019,nan,nan,nan,nan,nan,nan,nan,nan,666.453202903,728.028756677,nan,728.428084359,nan,nan,nan,nan
1,50,1,1,1.0,1.0,0.385531798645,0,nan,nan,nan,nan,nan,nan,nan,nan,nan,486,0.631151757674,0.309603058574,-1.0,nan,nan,nan,nan,nan,nan,nan,nan,666.453202903,728.970552816,nan,729.356084615,nan,nan,nan,nan
1,51,1,1,1.0,1.0,0.403750975034,0,nan,nan,nan,nan,nan,nan,nan,nan,nan,422,0.128328379107,0.451313674078,-0.730894888444,nan,nan,nan,nan,nan,nan,nan,nan,666.453202903,729.912315029,nan,730.316066004,nan,nan,nan,nan
1,52,1,1,1.0,1.0,0.461941436341,0,nan,nan,nan,nan,nan,nan,nan,nan,nan,157,1.0,-0.240048375319,0.130425901556,nan,nan,nan,nan,nan,nan,nan,nan,666.453202903,730.854114019,nan,731.316055455,nan,nan,nan,nan
1,53,1,1,1.0,1.0,0.448134148784,0,nan,nan,nan,nan,nan,nan,nan,nan,nan,393,-0.0489456633786,0.475102171109,-0.327443230616,nan,nan,nan,nan,nan,nan,nan,nan,666.453202903,731.79590189,nan,732.244036039,nan,nan,nan,nan
1,54,0,0,0.0,1.0,0.514333293075,0,nan,nan,nan,nan,nan,nan,nan,nan,nan,443,0.281558783006,0.419268214519,-1.0,nan,nan,nan,nan,nan,nan,nan,nan,666.453202903,732.737690331,nan,733.252023624,nan,nan,nan,nan
1,55,1,1,1.0,1.0,0.388519908942,0,nan,nan,nan,nan,nan,nan,nan,nan,nan,128,1.0,-0.310663006781,-0.156689791083,nan,nan,nan,nan,nan,nan,nan,nan,666.453202903,733.679474211,nan,734.06799412,nan,nan,nan,nan
1,56,1,1,1.0,1.0,0.35872918216,0,nan,nan,nan,nan,nan,nan,nan,nan,nan,215,0.910639861846,0.0628947364355,0.558695148714,nan,nan,nan,nan,nan,nan,nan,nan,666.453202903,734.621265504,nan,734.979994686,nan,nan,nan,nan
1,57,1,1,1.0,1.0,0.328926481248,0,nan,nan,nan,nan,nan,nan,nan,nan,nan,330,-0.139766326074,0.449518327743,0.319540245599,nan,nan,nan,nan,nan,nan,nan,nan,666.453202903,735.56305252,nan,735.891979001,nan,nan,nan,nan
1,58,1,1,1.0,1.0,0.363082055759,0,nan,nan,nan,nan,nan,nan,nan,nan,nan,456,0.383612429175,0.392633185378,-1.0,nan,nan,nan,nan,nan,nan,nan,nan,666.453202903,736.504860633,nan,736.867942689,nan,nan,nan,nan
1,59,1,1,1.0,1.0,0.373301672284,0,nan,nan,nan,nan,nan,nan,nan,nan,nan,130,1.0,-0.309333154106,-0.136071487739,nan,nan,nan,nan,nan,nan,nan,nan,666.453202903,737.446629402,nan,737.819931075,nan,nan,nan,nan
1,60,1,1,1.0,1.0,0.359502652544,0,nan,nan,nan,nan,nan,nan,nan,nan,nan,460,0.415848916989,0.383334931935,-1.0,nan,nan,nan,nan,nan,nan,nan,nan,666.453202903,738.388418129,nan,738.747920782,nan,nan,nan,nan
1,61,1,1,1.0,1.0,0.281696320686,0,nan,nan,nan,nan,nan,nan,nan,nan,nan,26,1.0,0.0920921692153,-1.0,nan,nan,nan,nan,nan,nan,nan,nan,666.453202903,739.330208281,nan,739.611904602,nan,nan,nan,nan
1,62,1,1,1.0,1.0,0.299898961326,0,nan,nan,nan,nan,nan,nan,nan,nan,nan,364,-0.160194321586,0.476704516321,-0.00341124574885,nan,nan,nan,nan,nan,nan,nan,nan,666.453202903,740.271989595,nan,740.571888556,nan,nan,nan,nan
1,63,1,1,1.0,1.0,0.358097690449,1,nan,nan,nan,nan,nan,nan,nan,nan,nan,398,-0.0220377755791,0.472608796233,-0.387943383198,-158.778914659,248.778914659,-31.0648353405,354.0,-0.174470673547,0.472100788149,0.0988677247603,1.84220633784,666.453202903,741.213783453,742.022196291,741.571881144,744.905868967,745.917205026,743.047296588,744.897555514
1,64,1,1,1.0,1.0,0.395708935685,0,nan,nan,nan,nan,nan,nan,nan,nan,nan,317,-0.077772836126,0.429938605076,0.420733606481,nan,nan,nan,nan,nan,nan,nan,nan,666.453202903,746.056083018,nan,746.451791954,nan,nan,nan,nan
1,65,1,1,1.0,1.0,0.325925826677,0,nan,nan,nan,nan,nan,nan,nan,nan,nan,7,0.9030914636,0.181853060355,-1.0,nan,nan,nan,nan,nan,nan,nan,nan,666.453202903,746.997847226,nan,747.323773053,nan,nan,nan,nan
1,66,1,1,1.0,1.0,0.360104208929,0,nan,nan,nan,nan,nan,nan,nan,nan,nan,183,1.0,-0.113108999915,0.354902835149,nan,nan,nan,nan,nan,nan,nan,nan,666.453202903,747.939649067,nan,748.299753276,nan,nan,nan,nan
1,67,1,1,1.0,1.0,0.36229490058,0,nan,nan,nan,nan,nan,nan,nan,nan,nan,457,0.391639248186,0.390358177281,-1.0,nan,nan,nan,nan,nan,nan,nan,nan,666.453202903,748.881433232,nan,749.243728133,nan,nan,nan,nan
1,68,1,1,1.0,1.0,0.356466075638,0,nan,nan,nan,nan,nan,nan,nan,nan,nan,232,0.739158239773,0.150046616059,0.623712016981,nan,nan,nan,nan,nan,nan,nan,nan,666.453202903,749.823243056,nan,750.179709132,nan,nan,nan,nan
1,69,1,1,1.0,1.0,0.350683436496,0,nan,nan,nan,nan,nan,nan,nan,nan,nan,57,1.0,-0.0707313323512,-1.0,nan,nan,nan,nan,nan,nan,nan,nan,666.453202903,750.76500983,nan,751.115693267,nan,nan,nan,nan
1,70,1,1,1.0,1.0,0.37687822443,0,nan,nan,nan,nan,nan,nan,nan,nan,nan,192,1.0,-0.0635997558896,0.421658406928,nan,nan,nan,nan,nan,nan,nan,nan,666.453202903,751.706809105,nan,752.08368733,nan,nan,nan,nan
1,71,1,1,1.0,1.0,0.451054690871,0,nan,nan,nan,nan,nan,nan,nan,nan,nan,156,1.0,-0.244060613314,0.121041471254,nan,nan,nan,nan,nan,nan,nan,nan,666.453202903,752.648600113,nan,753.099654804,nan,nan,nan,nan
1,72,1,1,1.0,1.0,0.421252560162,0,nan,nan,nan,nan,nan,nan,nan,nan,nan,384,-0.0924750057551,0.477945316949,-0.222479273925,nan,nan,nan,nan,nan,nan,nan,nan,666.453202903,753.590384278,nan,754.011636838,nan,nan,nan,nan
1,73,1,1,1.0,1.0,0.407454395725,0,nan,nan,nan,nan,nan,nan,nan,nan,nan,123,1.0,-0.311441137266,-0.208672863777,nan,nan,nan,nan,nan,nan,nan,nan,666.453202903,754.532178421,nan,754.939632817,nan,nan,nan,nan
1,74,1,1,1.0,1.0,0.449665124121,0,nan,nan,nan,nan,nan,nan,nan,nan,nan,385,-0.0879796604702,0.477733444059,-0.233926720364,nan,nan,nan,nan,nan,nan,nan,nan,666.453202903,755.473958595,nan,755.923623719,nan,nan,nan,nan
1,75,1,1,1.0,1.0,0.363854100637,0,nan,nan,nan,nan,nan,nan,nan,nan,nan,491,0.673033477965,0.292707709811,-1.0,nan,nan,nan,nan,nan,nan,nan,nan,666.453202903,756.415749602,nan,756.779603703,nan,nan,nan,nan
1,76,1,1,1.0,1.0,0.334027451521,0,nan,nan,nan,nan,nan,nan,nan,nan,nan,44,1.0,-0.00106984144607,-1.0,nan,nan,nan,nan,nan,nan,nan,nan,666.453202903,757.357556575,nan,757.691584026,nan,nan,nan,nan
1,77,1,1,1.0,1.0,0.328234548855,0,nan,nan,nan,nan,nan,nan,nan,nan,nan,189,1.0,-0.0802194643608,0.400143472992,nan,nan,nan,nan,nan,nan,nan,nan,666.453202903,758.299320783,nan,758.627555332,nan,nan,nan,nan
1,78,1,1,1.0,1.0,0.338431357581,0,nan,nan,nan,nan,nan,nan,nan,nan,nan,16,0.973419431522,0.140652110383,-1.0,nan,nan,nan,nan,nan,nan,nan,nan,666.453202903,759.241114926,nan,759.579546284,nan,nan,nan,nan
1,79,1,1,1.0,1.0,0.380627260834,0,nan,nan,nan,nan,nan,nan,nan,nan,nan,68,1.0,-0.129018143495,-0.972903198114,nan,nan,nan,nan,nan,nan,nan,nan,666.453202903,760.182903368,nan,760.563530629,nan,nan,nan,nan
1,80,1,1,1.0,1.0,0.310811080504,0,nan,nan,nan,nan,nan,nan,nan,nan,nan,292,0.112881669716,0.376069582356,0.569261850688,nan,nan,nan,nan,nan,nan,nan,nan,666.453202903,761.124695801,nan,761.435506881,nan,nan,nan,nan
1,81,1,1,1.0,1.0,0.29700892471,0,0.0,0.0,0.0,0.39430352455,0.0854740589344,0.308829465616,0.479777583485,0.0854740589344,0.329482422016,190,1.0,-0.0746884387243,0.407399635172,nan,nan,nan,nan,nan,nan,nan,nan,666.453202903,762.066483387,nan,762.363492312,nan,nan,nan,nan
1,82,1,1,1.0,1.0,0.283214751631,0,1.0,0.0,0.0,0.393102356651,0.0856215151272,0.307480841524,0.478723871778,0.0856215151272,0.297011585615,280,0.228089347314,0.342018854333,0.61587222022,nan,nan,nan,nan,nan,nan,nan,nan,666.453202903,763.008269547,nan,763.291484299,nan,nan,nan,nan
1,83,1,1,1.0,1.0,0.325396400003,1,0.0,0.0,1.0,0.391762263907,0.0859482670707,0.305813996836,0.477710530977,0.0859482670707,0.301873358781,331,-0.143297839787,0.450801753776,0.311166711333,-144.113155575,234.113155575,1.37878057508,333.0,-0.149813480994,0.453275949072,0.294183738108,5.19264601573,666.453202903,763.950057419,764.758473678,764.275453819,770.984264881,771.984336441,765.775255391,770.975930616
1,84,1,1,1.0,1.0,0.445223300019,0,0.0,0.0,0.0,0.390962675185,0.0857352285016,0.305227446683,0.476697903687,0.0857352285016,0.351278150551,37,1.0,0.0358565504353,-1.0,nan,nan,nan,nan,nan,nan,nan,nan,666.453202903,772.126103899,nan,772.571327199,nan,nan,nan,nan
1,85,1,1,1.0,1.0,0.319409630843,0,0.0,0.0,0.0,0.391608635005,0.0854263192646,0.30618231574,0.477034954269,0.0854263192646,0.363343110289,385,-0.0879796604702,0.477733444059,-0.233926720364,nan,nan,nan,nan,nan,nan,nan,nan,666.453202903,773.067902034,nan,773.387311664,nan,nan,nan,nan
1,86,0,0,1.0,0.0,0.329588763474,0,0.0,0.0,0.0,0.390759234956,0.0852784005689,0.305480834387,0.476037635524,0.0852784005689,0.364740564779,433,0.206536295144,0.436163724167,-1.0,nan,nan,nan,nan,nan,nan,nan,nan,666.453202903,774.009694751,nan,774.339283515,nan,nan,nan,nan
1,87,1,1,1.0,1.0,0.51578444097,0,0.0,0.0,0.0,0.390047950403,0.0850343838305,0.305013566573,0.475082334234,0.0850343838305,0.388260945096,92,1.0,-0.241703663401,-0.55060883727,nan,nan,nan,nan,nan,nan,nan,nan,666.453202903,774.951478631,nan,775.467263072,nan,nan,nan,nan
1,88,1,1,1.0,1.0,0.397980310023,0,0.0,0.0,0.0,0.391493197421,0.0856000280674,0.305893169354,0.477093225489,0.0856000280674,0.414451171489,502,0.764740937618,0.25241357569,-1.0,nan,nan,nan,nan,nan,nan,nan,nan,666.453202903,775.89327306,nan,776.29125337,nan,nan,nan,nan
1,89,1,1,1.0,1.0,0.512178238598,0,0.0,0.0,0.0,0.39156691461,0.0851150519794,0.306451862631,0.47668196659,0.0851150519794,0.475314329863,74,1.0,-0.159715158178,-0.810443278181,nan,nan,nan,nan,nan,nan,nan,nan,666.453202903,776.835052093,nan,777.347230332,nan,nan,nan,nan
1,90,1,1,1.0,1.0,0.594379068352,0,0.0,1.0,0.0,0.392922098026,0.0855849655673,0.307337132458,0.478507063593,0.0855849655673,0.501512538991,352,-0.17544712699,0.470851603012,0.118673592819,nan,nan,nan,nan,nan,nan,nan,nan,666.453202903,777.776833977,nan,778.371213046,nan,nan,nan,nan
1,91,0,0,0.0,1.0,0.492569780501,1,0.0,0.0,1.0,0.395160508807,0.0876888407262,0.307471668081,0.482849349533,0.0876888407262,0.533042362484,125,1.0,-0.311567427947,-0.187805059354,-33.8453402611,123.845340261,35.9547152611,176.0,1.0,-0.150429669724,0.298675466069,2.62566171208,666.453202903,778.718637529,779.527053218,779.211207309,783.194178131,784.19895352,780.552147243,783.185842156
1,92,1,1,1.0,1.0,0.362723972823,0,0.0,0.0,0.0,0.396230940364,0.0877949814059,0.308435958958,0.48402592177,0.0877949814059,0.483224273892,283,0.19826868328,0.351050922538,0.605825948857,nan,nan,nan,nan,nan,nan,nan,nan,666.453202903,784.344360537,nan,784.70708451,nan,nan,nan,nan
1,93,0,0,1.0,0.0,0.364938327635,0,0.0,0.0,0.0,0.395866734195,0.0873856246631,0.308481109532,0.483252358858,0.0873856246631,0.406744026986,412,0.0618891196837,0.462096609288,-0.571158935758,nan,nan,nan,nan,nan,nan,nan,nan,666.453202903,785.286149264,nan,785.651087591,nan,nan,nan,nan
1,94,1,1,1.0,1.0,0.463123737019,0,0.0,0.0,0.0,0.395534170684,0.0869730548601,0.308561115824,0.482507225544,0.0869730548601,0.396928679159,472,0.51429864939,0.352212277195,-1.0,nan,nan,nan,nan,nan,nan,nan,nan,666.453202903,786.227932573,nan,786.69105631,nan,nan,nan,nan
1,95,1,1,1.0,1.0,0.409282157896,0,0.0,0.0,0.0,0.396253208624,0.0867866539942,0.309466554629,0.483039862618,0.0867866539942,0.412448074184,240,0.654373017221,0.188015059697,0.642463954019,nan,nan,nan,nan,nan,nan,nan,nan,666.453202903,787.169752946,nan,787.579035104,nan,nan,nan,nan
1,96,1,1,1.0,1.0,0.379521081282,0,0.0,0.0,0.0,0.396390355458,0.0863389134639,0.310051441994,0.482729268922,0.0863389134639,0.417308992066,182,1.0,-0.118523835432,0.347089474713,nan,nan,nan,nan,nan,nan,nan,nan,666.453202903,788.111519435,nan,788.491040516,nan,nan,nan,nan
1,97,1,1,1.0,1.0,0.397708041593,0,0.0,0.0,0.0,0.396214633852,0.085905129724,0.310309504128,0.482119763576,0.085905129724,0.395503760257,369,-0.147694689129,0.477999187239,-0.0564338676883,nan,nan,nan,nan,nan,nan,nan,nan,666.453202903,789.053314718,nan,789.45102276,nan,nan,nan,nan
1,98,1,1,1.0,1.0,0.495908276062,0,0.0,0.0,0.0,0.396230029808,0.0854613057261,0.310768724082,0.481691335534,0.0854613057261,0.424379132979,282,0.208142307666,0.34807905204,0.609295500931,nan,nan,nan,nan,nan,nan,nan,nan,666.453202903,789.995104015,nan,790.491012291,nan,nan,nan,nan
1,99,1,1,1.0,1.0,0.51410179364,0,0.0,0.0,0.0,0.39724715477,0.0856122571841,0.311634897586,0.482859411954,0.0856122571841,0.469239370432,43,1.0,0.00424534395127,-1.0,nan,nan,nan,nan,nan,nan,nan,nan,666.453202903,790.936881908,nan,791.450983702,nan,nan,nan,nan
1,100,1,1,1.0,1.0,0.596292359813,0,0.0,1.0,0.0,0.398427504657,0.0859765071342,0.312450997523,0.484404011792,0.0859765071342,0.535434143171,268,0.35230222188,0.302367520405,0.645005310408,nan,nan,nan,nan,nan,nan,nan,nan,666.453202903,791.878668639,nan,792.474960999,nan,nan,nan,nan
1,101,1,1,1.0,1.0,0.606482041127,1,0.0,0.0,1.0,0.400406153209,0.0877817187128,0.312624434496,0.488187871922,0.0877817187128,0.57229206486,404,0.0124894593597,0.468746268022,-0.463349101315,-177.765201141,267.765201141,-16.2972988587,381.0,-0.105403061426,0.478425078289,-0.188431136224,2.9423560712,666.453202903,792.820456795,793.628872484,793.426938836,797.61269974,798.613121684,794.653972781,797.604368326
1,102,1,1,1.0,1.0,0.448297509865,0,0.0,0.0,0.0,0.402446508535,0.0896975014036,0.312749007131,0.492144009939,0.0896975014036,0.550357303602,178,1.0,-0.139919655122,0.315097826042,nan,nan,nan,nan,nan,nan,nan,nan,666.453202903,798.754551017,nan,799.202848526,nan,nan,nan,nan
1,103,1,1,1.0,1.0,0.666487150069,0,0.0,0.0,0.0,0.402896028156,0.0893709783662,0.31352504979,0.492267006522,0.0893709783662,0.57375556702,35,1.0,0.0462653595507,-1.0,nan,nan,nan,nan,nan,nan,nan,nan,666.453202903,799.696347726,nan,800.362834876,nan,nan,nan,nan
1,104,1,1,1.0,1.0,0.636672189983,0,0.0,1.0,0.0,0.405455165262,0.0926155659447,0.312839599317,0.498070731207,0.0926155659447,0.583818949972,269,0.34171296506,0.305888347675,0.643262349404,nan,nan,nan,nan,nan,nan,nan,nan,666.453202903,800.638133031,nan,801.274805221,nan,nan,nan,nan
1,105,1,1,1.0,1.0,0.582873660605,1,0.0,0.0,1.0,0.407678405884,0.0948908530959,0.312787552788,0.50256925898,0.0948908530959,0.628677666886,195,1.0,-0.0469245268387,0.442396054288,-68.404689551,158.404689551,21.295314551,225.0,0.81146624694,0.115131125244,0.600981946568,1.27545381873,666.453202903,801.579925749,802.3883326,802.16279941,804.696924764,805.695388372,803.405103479,804.688595061
1,106,1,1,1.0,1.0,0.507907473249,0,0.0,0.0,0.0,0.40934693212,0.0959585999783,0.313388332141,0.505305532098,0.0959585999783,0.575817774613,374,-0.132039125116,0.478634076427,-0.110628443238,nan,nan,nan,nan,nan,nan,nan,nan,666.453202903,805.838795713,nan,806.346703186,nan,nan,nan,nan
1,107,1,1,1.0,1.0,0.39809349383,0,0.0,0.0,0.0,0.410276748545,0.0959789723721,0.314297776173,0.506255720917,0.0959789723721,0.496291542562,253,0.513865899396,0.244839928328,0.655977188727,nan,nan,nan,nan,nan,nan,nan,nan,666.453202903,806.780604396,nan,807.17869789,nan,nan,nan,nan
1,108,1,1,1.0,1.0,0.320301416854,0,0.0,0.0,0.0,0.410162886352,0.0955366122054,0.314626274146,0.505699498557,0.0955366122054,0.408767461311,474,0.530901762182,0.346545376391,-1.0,nan,nan,nan,nan,nan,nan,nan,nan,666.453202903,807.72238514,nan,808.042686557,nan,nan,nan,nan
1,109,1,1,1.0,1.0,0.47451824171,0,0.0,0.0,0.0,0.409330835708,0.0954819864472,0.313848849261,0.504812822155,0.0954819864472,0.397637717465,319,-0.0891891826932,0.433308674125,0.406137099325,nan,nan,nan,nan,nan,nan,nan,nan,666.453202903,808.664160182,nan,809.138678423,nan,nan,nan,nan
1,110,1,1,1.0,1.0,0.460699550225,0,0.0,0.0,0.0,0.409928885305,0.0952459811128,0.314682904192,0.505174866417,0.0952459811128,0.41850640293,239,0.665069831863,0.183388857662,0.640549267122,nan,nan,nan,nan,nan,nan,nan,nan,666.453202903,809.60596744,nan,810.06666699,nan,nan,nan,nan
1,111,1,1,1.0,1.0,0.542908932897,0,0.0,0.0,0.0,0.410390436804,0.0949344314977,0.315456005306,0.505324868302,0.0949344314977,0.492708908278,441,0.266287261384,0.422891888867,-1.0,nan,nan,nan,nan,nan,nan,nan,nan,666.453202903,810.547739916,nan,811.090648848,nan,nan,nan,nan
1,112,1,1,1.0,1.0,0.537085239717,0,0.0,1.0,0.0,0.411584297129,0.0953317126956,0.316252584433,0.506916009825,0.0953317126956,0.51356457428,225,0.81146624694,0.115131125244,0.600981946568,nan,nan,nan,nan,nan,nan,nan,nan,666.453202903,811.489545178,nan,812.026630417,nan,nan,nan,nan
1,113,1,1,1.0,1.0,0.515274971141,1,0.0,0.0,1.0,0.412704841259,0.0956366305576,0.317068210702,0.508341471817,0.0956366305576,0.531756381252,102,1.0,-0.276610342793,-0.434926949461,-36.7565530271,126.756553027,55.0378030271,180.0,1.0,-0.129278616986,0.331238955499,1.60050011863,666.453202903,812.431330768,813.239734483,812.946605739,815.873389197,816.880422846,814.256506503,815.86504695
1,114,1,1,1.0,1.0,0.426926862099,0,0.0,0.0,0.0,0.413612541524,0.0956958872395,0.317916654284,0.509308428763,0.0956958872395,0.493095690986,52,1.0,-0.0438860552364,-1.0,nan,nan,nan,nan,nan,nan,nan,nan,666.453202903,817.023594696,nan,817.450521558,nan,nan,nan,nan
1,115,0,0,0.0,1.0,0.525145057763,0,0.0,0.0,0.0,0.413729333809,0.0952833326318,0.318446001178,0.509012666441,0.0952833326318,0.489115630335,288,0.150005133015,0.365331945294,0.586687239957,nan,nan,nan,nan,nan,nan,nan,nan,666.453202903,817.96536204,nan,818.490507098,nan,nan,nan,nan
1,116,1,1,1.0,1.0,0.351327472483,0,0.0,0.0,0.0,0.414698166192,0.0954304507418,0.31926771545,0.510128616933,0.0954304507418,0.434466464115,156,1.0,-0.244060613314,0.121041471254,nan,nan,nan,nan,nan,nan,nan,nan,666.453202903,818.907164451,nan,819.258491924,nan,nan,nan,nan
1,117,0,0,0.0,1.0,0.497511951311,0,0.0,0.0,0.0,0.414151867108,0.0951986526581,0.31895321445,0.509350519766,0.0951986526581,0.457994827186,466,0.464789014893,0.368385601135,-1.0,nan,nan,nan,nan,nan,nan,nan,nan,666.453202903,819.848953463,nan,820.346465414,nan,nan,nan,nan
1,118,1,1,1.0,1.0,0.443708290171,0,0.0,0.0,0.0,0.41486434646,0.0951010435911,0.319763302869,0.509965390051,0.0951010435911,0.430849237988,10,0.926811495151,0.168400576072,-1.0,nan,nan,nan,nan,nan,nan,nan,nan,666.453202903,820.790740764,nan,821.234449054,nan,nan,nan,nan
1,119,1,1,1.0,1.0,0.565915471874,0,0.0,0.0,0.0,0.415108786661,0.0947341201776,0.320374666483,0.509842906839,0.0947341201776,0.502378571119,148,1.0,-0.272695592461,0.0444264621409,nan,nan,nan,nan,nan,nan,nan,nan,666.453202903,821.732529205,nan,822.298444677,nan,nan,nan,nan
1,120,1,1,1.0,1.0,0.480096750776,0,0.0,0.0,0.0,0.41637606973,0.095334389714,0.321041680016,0.511710459444,0.095334389714,0.496573504274,350,-0.175756816429,0.469490941964,0.138247479403,nan,nan,nan,nan,nan,nan,nan,nan,666.453202903,822.674317647,nan,823.154414398,nan,nan,nan,nan
1,121,1,1,1.0,1.0,0.426303068118,0,0.0,0.0,0.0,0.416907075405,0.095112886734,0.321794188672,0.512019962139,0.095112886734,0.490771763589,440,0.258699398066,0.424657399123,-1.0,nan,nan,nan,nan,nan,nan,nan,nan,666.453202903,823.616107229,nan,824.042410297,nan,nan,nan,nan
1,122,1,1,1.0,1.0,0.444484611566,0,0.0,0.0,0.0,0.416984728238,0.0947228624779,0.32226186576,0.511707590716,0.0947228624779,0.450294810153,258,0.459642287315,0.26499291187,0.655490062901,nan,nan,nan,nan,nan,nan,nan,nan,666.453202903,824.557893389,nan,825.002378001,nan,nan,nan,nan
1,123,1,1,1.0,1.0,0.406659543049,0,0.0,0.0,0.0,0.417210137118,0.0943664355212,0.322843701596,0.511576572639,0.0943664355212,0.425815740911,391,-0.0591907973189,0.475916278612,-0.303718712187,nan,nan,nan,nan,nan,nan,nan,nan,666.453202903,825.49970863,nan,825.906368173,nan,nan,nan,nan
1,124,1,1,1.0,1.0,0.328873167979,0,0.0,0.0,0.0,0.41712435993,0.0939868247425,0.323137535187,0.511111184673,0.0939868247425,0.393339107531,193,1.0,-0.0580453890011,0.428658791268,nan,nan,nan,nan,nan,nan,nan,nan,666.453202903,826.441466851,nan,826.770340019,nan,nan,nan,nan
1,125,0,0,1.0,0.0,0.331037630618,0,0.0,0.0,0.0,0.416412656769,0.0939392743507,0.322473382418,0.51035193112,0.0939392743507,0.355523447215,108,1.0,-0.292426609412,-0.368663285579,nan,nan,nan,nan,nan,nan,nan,nan,666.453202903,827.383292925,nan,827.714330556,nan,nan,nan,nan
1,126,1,1,1.0,1.0,0.469267880195,0,0.0,0.0,0.0,0.41572965656,0.0938713760358,0.321858280524,0.509601032596,0.0938713760358,0.376392892931,379,-0.113535935895,0.478614986251,-0.165970515924,nan,nan,nan,nan,nan,nan,nan,nan,666.453202903,828.32504687,nan,828.79431475,nan,nan,nan,nan
1,127,0,0,0.0,1.0,0.543465443887,0,0.0,0.0,0.0,0.416154563097,0.0936187386914,0.322535824405,0.509773301788,0.0936187386914,0.447923651567,460,0.415848916989,0.383334931935,-1.0,nan,nan,nan,nan,nan,nan,nan,nan,666.453202903,829.266839873,nan,829.810305317,nan,nan,nan,nan
1,128,1,1,1.0,1.0,0.369667815452,0,0.0,0.0,0.0,0.417157010977,0.0939258978881,0.323231113089,0.511082908865,0.0939258978881,0.460800379845,208,0.97651257568,0.025020743352,0.522574479073,nan,nan,nan,nan,nan,nan,nan,nan,666.453202903,830.208626604,nan,830.578294419,nan,nan,nan,nan
1,129,1,1,1.0,1.0,0.339856276463,0,0.0,0.0,0.0,0.416786001637,0.0936516584254,0.323134343211,0.510437660062,0.0936516584254,0.417663178601,492,0.681403316433,0.289222019555,-1.0,nan,nan,nan,nan,nan,nan,nan,nan,666.453202903,831.150415331,nan,831.490271607,nan,nan,nan,nan
1,130,1,1,1.0,1.0,0.358043806977,0,0.0,0.0,0.0,0.416189647178,0.0935316281678,0.32265801901,0.509721275346,0.0935316281678,0.355855966297,439,0.251144291643,0.426392204401,-1.0,nan,nan,nan,nan,nan,nan,nan,nan,666.453202903,832.092206623,nan,832.45025043,nan,nan,nan,nan
1,131,1,1,1.0,1.0,0.376210525399,0,0.0,0.0,0.0,0.415742371484,0.0933095871424,0.322432784342,0.509051958627,0.0933095871424,0.358036869613,265,0.384259149088,0.291568309415,0.649478858709,nan,nan,nan,nan,nan,nan,nan,nan,666.453202903,833.034019013,nan,833.410229538,nan,nan,nan,nan
1,132,1,1,1.0,1.0,0.394437684445,0,0.0,0.0,0.0,0.415440601667,0.0930164195546,0.322424182112,0.508457021221,0.0930164195546,0.376230672273,147,1.0,-0.275801134503,0.0346720467303,nan,nan,nan,nan,nan,nan,nan,nan,666.453202903,833.975778944,nan,834.370216629,nan,nan,nan,nan
1,133,1,1,1.0,1.0,0.364644676913,0,0.0,0.0,0.0,0.415281488658,0.092681308586,0.322600180072,0.507962797244,0.092681308586,0.378430962252,286,0.169078956243,0.359734776014,0.594698705761,nan,nan,nan,nan,nan,nan,nan,nan,666.453202903,834.917568241,nan,835.282212918,nan,nan,nan,nan
1,134,1,1,1.0,1.0,0.358867169532,0,0.0,0.0,0.0,0.41490076075,0.0924357815177,0.322464979232,0.507336542267,0.0924357815177,0.37264984363,346,-0.174317561957,0.466431294057,0.176670174816,nan,nan,nan,nan,nan,nan,nan,nan,666.453202903,835.859325892,nan,836.218193061,nan,nan,nan,nan
1,135,1,1,1.0,1.0,0.345029946708,0,0.0,0.0,0.0,0.414482599621,0.0922164081545,0.322266191467,0.506699007776,0.0922164081545,0.356180597718,403,0.00657627305109,0.469456436931,-0.450524507496,nan,nan,nan,nan,nan,nan,nan,nan,666.453202903,836.801144839,nan,837.146174786,nan,nan,nan,nan
1,136,1,1,1.0,1.0,0.363218047365,0,0.0,0.0,0.0,0.413968135526,0.0920670438125,0.321901091713,0.506035179338,0.0920670438125,0.355705054535,281,0.218083397074,0.345068392493,0.612644422055,nan,nan,nan,nan,nan,nan,nan,nan,666.453202903,837.742934991,nan,838.106153038,nan,nan,nan,nan
1,137,1,1,1.0,1.0,0.365419857844,0,0.0,0.0,0.0,0.413594973113,0.0918303506366,0.321764622476,0.505425323749,0.0918303506366,0.357889283972,16,0.973419431522,0.140652110383,-1.0,nan,nan,nan,nan,nan,nan,nan,nan,666.453202903,838.684720581,nan,839.050140439,nan,nan,nan,nan
1,138,1,1,1.0,1.0,0.399609929183,0,0.0,0.0,0.0,0.413243329936,0.0915864439422,0.321656885993,0.504829773878,0.0915864439422,0.376082611464,309,-0.0258396312562,0.415106541901,0.475305697888,nan,nan,nan,nan,nan,nan,nan,nan,666.453202903,839.626509593,nan,840.026119522,nan,nan,nan,nan
1,139,1,1,1.0,1.0,0.385761017329,0,0.0,0.0,0.0,0.413144537176,0.0912613317383,0.321883205438,0.504405868915,0.0912613317383,0.383596934786,458,0.399688045963,0.388050214986,-1.0,nan,nan,nan,nan,nan,nan,nan,nan,666.453202903,840.568352488,nan,840.954113505,nan,nan,nan,nan
1,140,1,1,1.0,1.0,0.356015335943,0,0.0,0.0,0.0,0.412947533437,0.0909619058163,0.32198562762,0.503909439253,0.0909619058163,0.380462094152,373,-0.135407706169,0.478559568072,-0.0996974893599,nan,nan,nan,nan,nan,nan,nan,nan,666.453202903,841.510088186,nan,841.866103522,nan,nan,nan,nan
1,141,1,1,1.0,1.0,0.34219493391,0,0.0,0.0,0.0,0.412540874883,0.0907631776422,0.321777697241,0.503304052525,0.0907631776422,0.361323762394,235,0.707591924495,0.164537776567,0.631659631194,nan,nan,nan,nan,nan,nan,nan,nan,666.453202903,842.451875773,nan,842.794070707,nan,nan,nan,nan
1,142,1,1,1.0,1.0,0.392400945653,0,0.0,0.0,0.0,0.4120419675,0.0906331970517,0.321408770449,0.502675164552,0.0906331970517,0.363537071835,480,0.580928072941,0.32870764083,-1.0,nan,nan,nan,nan,nan,nan,nan,nan,666.453202903,843.393663929,nan,843.786064875,nan,nan,nan,nan
1,143,1,1,1.0,1.0,0.370590677077,0,0.0,0.0,0.0,0.411903650445,0.0903284354084,0.321575215037,0.502232085853,0.0903284354084,0.36839551888,101,1.0,-0.273572672894,-0.446152610616,nan,nan,nan,nan,nan,nan,nan,nan,666.453202903,844.335454366,nan,844.706045043,nan,nan,nan,nan
1,144,1,1,1.0,1.0,0.324798549875,0,0.0,0.0,0.0,0.411614748533,0.0900778588212,0.321536889712,0.501692607355,0.0900778588212,0.362596724202,156,1.0,-0.244060613314,0.121041471254,nan,nan,nan,nan,nan,nan,nan,nan,666.453202903,845.277226272,nan,845.602024822,nan,nan,nan,nan
1,145,1,1,1.0,1.0,0.366984189604,0,0.0,0.0,0.0,0.411011858265,0.0900535976452,0.32095826062,0.50106545591,0.0900535976452,0.354124472186,61,1.0,-0.0921163965413,-1.0,nan,nan,nan,nan,nan,nan,nan,nan,666.453202903,846.21903467,nan,846.58601886,nan,nan,nan,nan
1,146,1,1,1.0,1.0,0.393159590894,0,0.0,0.0,0.0,0.410708219171,0.0898164692569,0.320891749914,0.500524688428,0.0898164692569,0.361647443458,250,0.546428449327,0.232286661223,0.654747725831,nan,nan,nan,nan,nan,nan,nan,nan,666.453202903,847.160821971,nan,847.553981562,nan,nan,nan,nan
1,147,1,1,1.0,1.0,0.395317496324,0,0.0,0.0,0.0,0.410588023087,0.0895200512014,0.321067971885,0.500108074288,0.0895200512014,0.385153758941,49,1.0,-0.027785429985,-1.0,nan,nan,nan,nan,nan,nan,nan,nan,666.453202903,848.102646335,nan,848.497963831,nan,nan,nan,nan
1,148,1,1,1.0,1.0,0.381553828716,0,0.0,0.0,0.0,0.410484141952,0.0892238711334,0.321260270819,0.499708013085,0.0892238711334,0.390010305312,402,0.000724920831492,0.470139955471,-0.437811562499,nan,nan,nan,nan,nan,nan,nan,nan,666.453202903,849.044394863,nan,849.425948691,nan,nan,nan,nan
1,149,1,1,1.0,1.0,0.447749836952,0,0.0,0.0,0.0,0.410288666863,0.0889535062027,0.32133516066,0.499242173065,0.0889535062027,0.408207053998,354,-0.174470673547,0.472100788149,0.0988677247603,nan,nan,nan,nan,nan,nan,nan,nan,666.453202903,849.986186725,nan,850.433936562,nan,nan,nan,nan
1,150,0,0,0.0,1.0,0.553941363352,0,0.0,0.0,0.0,0.410540084112,0.088707248261,0.321832835851,0.499247332373,0.088707248261,0.46108167634,89,1.0,-0.229484098413,-0.587370487375,nan,nan,nan,nan,nan,nan,nan,nan,666.453202903,850.927971461,nan,851.481912824,nan,nan,nan,nan
1,151,1,1,1.0,1.0,0.43613837281,0,0.0,0.0,0.0,0.41149609264,0.0891778837401,0.3223182089,0.50067397638,0.0891778837401,0.479276524372,166,1.0,-0.20036215083,0.21267421211,nan,nan,nan,nan,nan,nan,nan,nan,666.453202903,851.869757621,nan,852.305895994,nan,nan,nan,nan
1,152,1,1,1.0,1.0,0.438338187581,0,0.0,0.0,0.0,0.411659286548,0.0889045720543,0.322754714494,0.500563858603,0.0889045720543,0.476139307915,443,0.281558783006,0.419268214519,-1.0,nan,nan,nan,nan,nan,nan,nan,nan,666.453202903,852.811551194,nan,853.249889382,nan,nan,nan,nan
1,153,1,1,1.0,1.0,0.568543503643,0,0.0,0.0,0.0,0.411834805634,0.0886378848499,0.323196920784,0.500472690484,0.0886378848499,0.481006688011,130,1.0,-0.309333154106,-0.136071487739,nan,nan,nan,nan,nan,nan,nan,nan,666.453202903,853.753337925,nan,854.321881429,nan,nan,nan,nan
1,154,1,1,1.0,1.0,0.498752982123,0,0.0,0.0,0.0,0.41285904549,0.0892456275855,0.323613417905,0.502104673076,0.0892456275855,0.501878224449,185,1.0,-0.102214474652,0.370299946716,nan,nan,nan,nan,nan,nan,nan,nan,666.453202903,854.695094721,nan,855.193847703,nan,nan,nan,nan
1,155,1,1,1.0,1.0,0.420877371449,0,0.0,0.0,0.0,0.413416798326,0.0892225261785,0.324194272147,0.502639324504,0.0892225261785,0.496057952405,69,1.0,-0.134207199312,-0.939648005704,nan,nan,nan,nan,nan,nan,nan,nan,666.453202903,855.636969262,nan,856.057846633,nan,nan,nan,nan
1,156,0,0,0.0,1.0,0.495123686851,0,0.0,0.0,0.0,0.413464931055,0.0889362517042,0.324528679351,0.50240118276,0.0889362517042,0.471584680141,214,0.920243657418,0.0575410437433,0.553854850604,nan,nan,nan,nan,nan,nan,nan,nan,666.453202903,856.578701539,nan,857.073825226,nan,nan,nan,nan
1,157,1,1,1.0,1.0,0.393312973552,0,0.0,0.0,0.0,0.413988384618,0.0888899572594,0.325098427359,0.502878341878,0.0888899572594,0.436438010617,79,1.0,-0.184296021705,-0.724170777997,nan,nan,nan,nan,nan,nan,nan,nan,666.453202903,857.520493687,nan,857.91380666,nan,nan,nan,nan
1,158,1,1,1.0,1.0,0.363506566384,0,0.0,0.0,0.0,0.413856694102,0.0886216811517,0.32523501295,0.502478375254,0.0886216811517,0.417314408929,250,0.546428449327,0.232286661223,0.654747725831,nan,nan,nan,nan,nan,nan,nan,nan,666.453202903,858.462283839,nan,858.825790405,nan,nan,nan,nan
1,159,1,1,1.0,1.0,0.421693036275,0,0.0,0.0,0.0,0.413538022407,0.0884309808217,0.325107041586,0.501969003229,0.0884309808217,0.392837525404,301,0.0351599448551,0.39804275895,0.523414514543,nan,nan,nan,nan,nan,nan,nan,nan,666.453202903,859.404070855,nan,859.825763891,nan,nan,nan,nan
1,160,1,1,1.0,1.0,0.327893856913,0,0.0,0.0,0.0,0.413589311803,0.088154814803,0.325434497,0.501744126606,0.088154814803,0.37103115319,46,1.0,-0.0117313672748,-1.0,nan,nan,nan,nan,nan,nan,nan,nan,666.453202903,860.345863288,nan,860.673757145,nan,nan,nan,nan
1,161,1,1,1.0,1.0,0.282102014869,0,0.0,0.0,0.0,0.41305371521,0.0881380295721,0.324915685638,0.501191744782,0.0881380295721,0.343896302686,395,-0.0383984177995,0.474183508328,-0.351427224487,nan,nan,nan,nan,nan,nan,nan,nan,666.453202903,861.287635764,nan,861.569737778,nan,nan,nan,nan
1,162,1,1,1.0,1.0,0.332288639853,0,1.0,0.0,0.0,0.412240350611,0.0884641836301,0.323776166981,0.500704534241,0.0884641836301,0.314094837212,183,1.0,-0.113108999915,0.354902835149,nan,nan,nan,nan,nan,nan,nan,nan,666.453202903,862.229436464,nan,862.561725104,nan,nan,nan,nan
1,163,0,0,0.0,1.0,0.510467936751,1,0.0,0.0,1.0,0.411746821533,0.0884127740268,0.323334047506,0.500159595559,0.0884127740268,0.374952863824,427,0.163265173604,0.444863218481,-0.840208708629,174.907884876,275.092115124,-25.1422598755,391.0,-0.0591907973189,0.475916278612,-0.303718712187,2.5256388472,666.453202903,863.171237165,863.979642305,863.681705102,867.546761175,868.546728674,865.004737756,867.538441735
1,164,1,1,1.0,1.0,0.648982143786,0,0.0,0.0,0.0,0.412352472546,0.0884776039405,0.323874868606,0.500830076487,0.0884776039405,0.49724624013,298,0.0600896634305,0.391050340636,0.53969689008,nan,nan,nan,nan,nan,nan,nan,nan,666.453202903,868.688605039,nan,869.337587183,nan,nan,nan,nan
1,165,1,1,1.0,1.0,0.5871834844,0,0.0,0.0,0.0,0.413795336395,0.0901104626975,0.323684873698,0.503905799093,0.0901104626975,0.582211188312,42,1.0,0.00954878589686,-1.0,nan,nan,nan,nan,nan,nan,nan,nan,666.453202903,869.630397187,nan,870.217580671,nan,nan,nan,nan
1,166,0,0,0.0,1.0,0.565382624103,0,0.0,0.0,0.0,0.414846173656,0.0908393222524,0.324006851403,0.505685495908,0.0908393222524,0.600516084097,179,1.0,-0.13461441766,0.323204131591,nan,nan,nan,nan,nan,nan,nan,nan,666.453202903,870.572178501,nan,871.137561125,nan,nan,nan,nan
1,167,1,1,1.0,1.0,0.415577973123,0,0.0,0.0,0.0,0.415753019743,0.0913113572101,0.324441662533,0.507064376953,0.0913113572101,0.522714693875,262,0.416452475899,0.2804144186,0.652815538838,nan,nan,nan,nan,nan,nan,nan,nan,666.453202903,871.513970078,nan,871.929548052,nan,nan,nan,nan
1,168,1,1,1.0,1.0,0.401749873417,0,0.0,0.0,0.0,0.41575197156,0.0910375604224,0.324714411137,0.506789531982,0.0910375604224,0.460903490214,510,0.830554458933,0.220436700166,-1.0,nan,nan,nan,nan,nan,nan,nan,nan,666.453202903,872.455780472,nan,872.857530346,nan,nan,nan,nan
1,169,1,1,1.0,1.0,0.411967779393,0,0.0,0.0,0.0,0.415668625737,0.0907726011085,0.324896024629,0.506441226846,0.0907726011085,0.409765208644,332,-0.146647089803,0.45205423783,0.302714191958,nan,nan,nan,nan,nan,nan,nan,nan,666.453202903,873.397552948,nan,873.809520728,nan,nan,nan,nan
1,170,1,1,1.0,1.0,0.366211859626,0,0.0,0.0,0.0,0.415646727238,0.090504089745,0.325142637493,0.506150816983,0.090504089745,0.393309837479,499,0.739831889234,0.263827757734,-1.0,nan,nan,nan,nan,nan,nan,nan,nan,666.453202903,874.339301476,nan,874.705513336,nan,nan,nan,nan
1,171,1,1,1.0,1.0,0.456362357014,0,0.0,0.0,0.0,0.415355933899,0.0903166581222,0.325039275777,0.505672592022,0.0903166581222,0.411513998678,316,-0.0718215561597,0.428203514031,0.427892255365,nan,nan,nan,nan,nan,nan,nan,nan,666.453202903,875.281127265,nan,875.737489622,nan,nan,nan,nan
1,172,1,1,1.0,1.0,0.370585830417,0,0.0,0.0,0.0,0.415595737543,0.0901064503046,0.325489287239,0.505702187848,0.0901064503046,0.397720015685,226,0.801265930663,0.120208988367,0.60458276857,nan,nan,nan,nan,nan,nan,nan,nan,666.453202903,876.222903163,nan,876.593488993,nan,nan,nan,nan
1,173,1,1,1.0,1.0,0.268759721832,0,0.0,0.0,0.0,0.415334052037,0.0899092757001,0.325424776337,0.505243327737,0.0899092757001,0.365235969754,36,1.0,0.0410699577143,-1.0,nan,nan,nan,nan,nan,nan,nan,nan,666.453202903,877.164705574,nan,877.433465296,nan,nan,nan,nan
1,174,0,0,0.0,1.0,0.398965893197,0,0.0,0.0,0.0,0.414486801573,0.0903350360114,0.324151765562,0.504821837585,0.0903350360114,0.346103815148,248,0.568115903494,0.223728204869,0.653295769881,nan,nan,nan,nan,nan,nan,nan,nan,666.453202903,878.106480045,nan,878.505445939,nan,nan,nan,nan
1,175,1,1,1.0,1.0,0.321144165995,0,0.0,0.0,0.0,0.41439760095,0.090082719158,0.324314881792,0.504480320108,0.090082719158,0.329623260341,377,-0.121259861678,0.478700828387,-0.143695900877,nan,nan,nan,nan,nan,nan,nan,nan,666.453202903,879.04827704,nan,879.369421206,nan,nan,nan,nan
1,176,1,1,1.0,1.0,0.355315705878,0,0.0,0.0,0.0,0.413864724179,0.0900995787261,0.323765145453,0.503964302905,0.0900995787261,0.358475255023,464,0.448404880525,0.373503555275,-1.0,nan,nan,nan,nan,nan,nan,nan,nan,666.453202903,879.99009228,nan,880.345407986,nan,nan,nan,nan
1,177,1,1,1.0,1.0,0.309526714787,0,0.0,0.0,0.0,0.413532059302,0.0899509644037,0.323581094899,0.503483023706,0.0899509644037,0.328662195553,139,1.0,-0.296335611021,-0.0445992895203,nan,nan,nan,nan,nan,nan,nan,nan,666.453202903,880.931853353,nan,881.241380067,nan,nan,nan,nan
1,178,1,1,1.0,1.0,0.287726139592,0,1.0,0.0,0.0,0.412944458486,0.0900346127279,0.322909845758,0.502979071214,0.0900346127279,0.317522853419,502,0.764740937618,0.25241357569,-1.0,nan,nan,nan,nan,nan,nan,nan,nan,666.453202903,881.873645215,nan,882.161371355,nan,nan,nan,nan
1,179,1,1,1.0,1.0,0.313912089507,1,0.0,0.0,1.0,0.412240984784,0.0902678446722,0.321973140112,0.502508829456,0.0902678446722,0.303721647962,75,1.0,-0.164714458691,-0.791355921409,12.1771081227,77.8228918773,25.0885168773,111.0,1.0,-0.298677811705,-0.336106236365,2.99233571521,666.453202903,882.815433942,883.623845354,883.129346031,887.657665938,888.654792437,884.648969029,887.64933481
1,180,1,1,1.0,1.0,0.409682150115,0,0.0,0.0,0.0,0.411691661347,0.0903132064198,0.321378454927,0.502004867767,0.0903132064198,0.337106793071,213,0.929785093221,0.0521668813814,0.548906519778,nan,nan,nan,nan,nan,nan,nan,nan,666.453202903,888.79957395,nan,889.2092561,nan,nan,nan,nan
1,181,1,1,1.0,1.0,0.355921823881,0,0.0,0.0,0.0,0.411680497396,0.0900621108562,0.321618386539,0.501742608252,0.0900621108562,0.359838687834,390,-0.0641960347588,0.476284203309,-0.291947553613,nan,nan,nan,nan,nan,nan,nan,nan,666.453202903,889.741327894,nan,890.097249718,nan,nan,nan,nan
1,182,1,1,1.0,1.0,0.38210435264,0,0.0,0.0,0.0,0.411372438426,0.089908023562,0.321464414864,0.501280461988,0.089908023562,0.382569442212,140,1.0,-0.294209249228,-0.0345777392028,nan,nan,nan,nan,nan,nan,nan,nan,666.453202903,890.683109779,nan,891.065214131,nan,nan,nan,nan
1,183,0,0,0.0,1.0,0.536290957185,0,0.0,0.0,0.0,0.411211624768,0.0896867825962,0.321524842172,0.500898407364,0.0896867825962,0.424772377902,13,0.950262168777,0.154664060346,-1.0,nan,nan,nan,nan,nan,nan,nan,nan,666.453202903,891.624908198,nan,892.161199156,nan,nan,nan,nan
1,184,1,1,1.0,1.0,0.346497345192,0,0.0,0.0,0.0,0.411895118388,0.0899154490959,0.321979669292,0.501810567483,0.0899154490959,0.421630885006,425,0.149162615564,0.447529597292,-0.791715667876,nan,nan,nan,nan,nan,nan,nan,nan,666.453202903,892.566693504,nan,892.913190849,nan,nan,nan,nan
1,185,1,1,1.0,1.0,0.316690938023,0,0.0,0.0,0.0,0.411539695707,0.0897995904642,0.321740105243,0.501339286171,0.0897995904642,0.399826413467,30,1.0,0.071945658744,-1.0,nan,nan,nan,nan,nan,nan,nan,nan,666.453202903,893.508487647,nan,893.825178585,nan,nan,nan,nan
1,186,1,1,1.0,1.0,0.382885520696,0,0.0,0.0,0.0,0.41102699972,0.0898261830427,0.321200816677,0.500853182762,0.0898261830427,0.34869126797,122,1.0,-0.311159539646,-0.219144224573,nan,nan,nan,nan,nan,nan,nan,nan,666.453202903,894.450272097,nan,894.833157618,nan,nan,nan,nan
1,187,1,1,1.0,1.0,0.369073956681,0,0.0,0.0,0.0,0.410875701445,0.0896080224449,0.321267679,0.50048372389,0.0896080224449,0.356216805133,453,0.359670421306,0.39926174925,-1.0,nan,nan,nan,nan,nan,nan,nan,nan,666.453202903,895.392064245,nan,895.761138202,nan,nan,nan,nan
1,188,1,1,1.0,1.0,0.323269285145,0,0.0,0.0,0.0,0.410652162703,0.0894200928276,0.321232069876,0.500072255531,0.0894200928276,0.358409587507,180,1.0,-0.129278616986,0.331238955499,nan,nan,nan,nan,nan,nan,nan,nan,666.453202903,896.33384955,nan,896.657118836,nan,nan,nan,nan
1,189,1,1,1.0,1.0,0.293481409375,0,0.0,0.0,0.0,0.410187360163,0.0894081712063,0.320779188957,0.499595531369,0.0894081712063,0.328608217067,246,0.589768841079,0.215019897151,0.651339528662,nan,nan,nan,nan,nan,nan,nan,nan,666.453202903,897.275627158,nan,897.569108568,nan,nan,nan,nan
1,190,1,1,1.0,1.0,0.287645742006,0,1.0,0.0,0.0,0.40956986836,0.0895723696276,0.319997498732,0.499142237988,0.0895723696276,0.301465478842,419,0.107894673663,0.454841969249,-0.678098861371,nan,nan,nan,nan,nan,nan,nan,nan,666.453202903,898.217428429,nan,898.505074171,nan,nan,nan,nan
1,191,1,1,1.0,1.0,0.297833142511,1,0.0,0.0,1.0,0.408928162432,0.0897708729542,0.319157289478,0.498699035386,0.0897708729542,0.292986764631,232,0.739158239773,0.150046616059,0.623712016981,-78.9117135364,168.911713536,5.78671353644,240.0,0.654373017221,0.188015059697,0.642463954019,1.65050456609,666.453202903,899.159222572,899.967625717,899.457055715,902.659613727,903.661762794,900.992722023,902.651278607
1,192,1,1,1.0,1.0,0.263508219912,0,0.0,0.0,0.0,0.408346513113,0.0898938092258,0.318452703887,0.498240322339,0.0898938092258,0.282995701476,343,-0.171388175652,0.463836419185,0.204822810802,nan,nan,nan,nan,nan,nan,nan,nan,666.453202903,903.801481539,nan,904.064989759,nan,nan,nan,nan
1,193,1,1,1.0,1.0,0.313701687322,0,0.0,0.0,0.0,0.407592147002,0.0902635084844,0.317328638518,0.497855655487,0.0902635084844,0.291681016582,11,0.934659501434,0.163852895862,-1.0,nan,nan,nan,nan,nan,nan,nan,nan,666.453202903,904.743275398,nan,905.056977085,nan,nan,nan,nan
1,194,1,1,1.0,1.0,0.355906998797,0,1.0,0.0,0.0,0.407105667937,0.0902813658195,0.316824302117,0.497387033756,0.0902813658195,0.311038968677,479,0.572572153349,0.331768222426,-1.0,nan,nan,nan,nan,nan,nan,nan,nan,666.453202903,905.685026776,nan,906.040933775,nan,nan,nan,nan
1,195,1,1,1.0,1.0,0.33408760716,1,0.0,0.0,1.0,0.406841757271,0.0901229892634,0.316718768008,0.496964746534,0.0901229892634,0.334565431093,380,-0.109519508899,0.478533032186,-0.177177385375,-149.843172923,239.843172923,-27.344327077,341.0,-0.168535884224,0.46196150489,0.223260112086,3.40905664553,666.453202903,906.62684943,907.43525628,906.960937037,911.877510857,912.881202588,908.452046831,911.86912727
1,196,1,1,1.0,1.0,0.35745821608,0,0.0,0.0,0.0,0.406468659065,0.0900416923803,0.316426966685,0.496510351446,0.0900416923803,0.349150940679,303,0.0191349273956,0.402522842081,0.512018356663,nan,nan,nan,nan,nan,nan,nan,nan,666.453202903,913.019378384,nan,913.3768366,nan,nan,nan,nan
1,197,1,1,1.0,1.0,0.367655595008,0,0.0,0.0,0.0,0.406218605785,0.089879554036,0.316339051749,0.496098159821,0.089879554036,0.353067139416,358,-0.170583909915,0.474268316859,0.0585874414746,nan,nan,nan,nan,nan,nan,nan,nan,666.453202903,913.961153141,nan,914.328808736,nan,nan,nan,nan
1,198,1,1,1.0,1.0,0.449867828633,0,0.0,0.0,0.0,0.406022854461,0.0896930203682,0.316329834093,0.495715874829,0.0896930203682,0.391660546573,31,1.0,0.0668515730764,-1.0,nan,nan,nan,nan,nan,nan,nan,nan,666.453202903,914.902919345,nan,915.352787173,nan,nan,nan,nan
1,199,1,1,1.0,1.0,0.404054604238,0,0.0,0.0,0.0,0.406244293725,0.0895202064998,0.316724087225,0.495764500224,0.0895202064998,0.407192675959,300,0.0433537089178,0.395748422077,0.528951029102,nan,nan,nan,nan,nan,nan,nan,nan,666.453202903,915.844709212,nan,916.248763816,nan,nan,nan,nan
1,200,1,1,1.0,1.0,0.462232806312,0,0.0,0.0,0.0,0.40623329026,0.0892951323116,0.316938157948,0.495528422571,0.0892951323116,0.438718413061,435,0.221263830514,0.433027056876,-1.0,nan,nan,nan,nan,nan,nan,nan,nan,666.453202903,916.786512478,nan,917.248745285,nan,nan,nan,nan
1,201,1,1,1.0,1.0,0.336446221394,0,0.0,0.0,0.0,0.40651328784,0.089159149175,0.317354138665,0.495672437015,0.089159149175,0.400911210648,130,1.0,-0.309333154106,-0.136071487739,nan,nan,nan,nan,nan,nan,nan,nan,666.453202903,917.728285239,nan,918.064731461,nan,nan,nan,nan
1,202,1,1,1.0,1.0,0.306641239731,0,0.0,0.0,0.0,0.40616469547,0.0890736110499,0.31709108442,0.49523830652,0.0890736110499,0.368440089146,324,-0.114799643766,0.441158325109,0.368064040095,nan,nan,nan,nan,nan,nan,nan,nan,666.453202903,918.670070545,nan,918.976711784,nan,nan,nan,nan
1,203,1,1,1.0,1.0,0.35685751494,0,0.0,0.0,0.0,0.405672005095,0.0891269988673,0.316545006227,0.494799003962,0.0891269988673,0.333314992022,151,1.0,-0.262720288689,0.0734626651272,nan,nan,nan,nan,nan,nan,nan,nan,666.453202903,919.611882364,nan,919.968739879,nan,nan,nan,nan
1,204,1,1,1.0,1.0,0.367031800968,0,0.0,0.0,0.0,0.405431539626,0.0889728675508,0.316458672075,0.494404407177,0.0889728675508,0.343510185213,206,0.994723455659,0.014051917983,0.511316161583,nan,nan,nan,nan,nan,nan,nan,nan,666.453202903,920.553650564,nan,920.920682365,nan,nan,nan,nan
1,205,0,0,0.0,1.0,0.505261765386,0,0.0,0.0,0.0,0.405243305613,0.0887950398642,0.316448265749,0.494038345477,0.0887950398642,0.409717027098,350,-0.175756816429,0.469490941964,0.138247479403,nan,nan,nan,nan,nan,nan,nan,nan,666.453202903,921.495405649,nan,922.000667414,nan,nan,nan,nan
1,206,1,1,1.0,1.0,0.427427208866,0,0.0,0.0,0.0,0.405731200539,0.088851889671,0.316879310868,0.49458309021,0.088851889671,0.433240258407,486,0.631151757674,0.309603058574,-1.0,nan,nan,nan,nan,nan,nan,nan,nan,666.453202903,922.437228017,nan,922.864655226,nan,nan,nan,nan
1,207,1,1,1.0,1.0,0.42163630185,0,0.0,0.0,0.0,0.405836520967,0.0886487938702,0.317187727097,0.494485314838,0.0886487938702,0.4514417587,126,1.0,-0.311411754845,-0.177408431044,nan,nan,nan,nan,nan,nan,nan,nan,666.453202903,923.379004199,nan,923.800640501,nan,nan,nan,nan
1,208,1,1,1.0,1.0,0.351795603114,0,0.0,0.0,0.0,0.405912848411,0.0884411922841,0.317471656127,0.494354040695,0.0884411922841,0.400286371276,282,0.208142307666,0.34807905204,0.609295500931,nan,nan,nan,nan,nan,nan,nan,nan,666.453202903,924.32082001,nan,924.672615613,nan,nan,nan,nan
1,209,1,1,1.0,1.0,0.330013559258,0,0.0,0.0,0.0,0.405652669347,0.0883077117363,0.317344957611,0.493960381084,0.0883077117363,0.36781515474,386,-0.0833946583454,0.477495592553,-0.245424736514,nan,nan,nan,nan,nan,nan,nan,nan,666.453202903,925.262594481,nan,925.592608041,nan,nan,nan,nan
1,210,1,1,1.0,1.0,0.324206686812,0,0.0,0.0,0.0,0.40529075973,0.0882506843297,0.3170400754,0.493541444059,0.0882506843297,0.335338616394,294,0.0948761993654,0.381212130724,0.559858230992,nan,nan,nan,nan,nan,nan,nan,nan,666.453202903,926.204381212,nan,926.528587899,nan,nan,nan,nan
1,211,1,1,1.0,1.0,0.37440386042,0,0.0,0.0,0.0,0.404904645097,0.0882170922221,0.316687552875,0.493121737319,0.0882170922221,0.342874702163,30,1.0,0.071945658744,-1.0,nan,nan,nan,nan,nan,nan,nan,nan,666.453202903,927.146170224,nan,927.520574084,nan,nan,nan,nan
1,212,1,1,1.0,1.0,0.336593046784,0,0.0,0.0,0.0,0.404760091615,0.0880327253481,0.316727366267,0.492792816963,0.0880327253481,0.345067864672,99,1.0,-0.267176270739,-0.468793303331,nan,nan,nan,nan,nan,nan,nan,nan,666.453202903,928.087960091,nan,928.424553138,nan,nan,nan,nan
1,213,1,1,1.0,1.0,0.306780652551,0,0.0,0.0,0.0,0.404438548951,0.0879489652048,0.316489583746,0.492387514155,0.0879489652048,0.339259186585,471,0.506014005179,0.354993781952,-1.0,nan,nan,nan,nan,nan,nan,nan,nan,666.453202903,929.029749673,nan,929.336530325,nan,nan,nan,nan
1,214,1,1,1.0,1.0,0.324987854809,0,0.0,0.0,0.0,0.403980061174,0.0879958554205,0.315984205754,0.491975916595,0.0879958554205,0.322787184714,280,0.228089347314,0.342018854333,0.61587222022,nan,nan,nan,nan,nan,nan,nan,nan,666.453202903,929.971532697,nan,930.296520552,nan,nan,nan,nan
1,215,1,1,1.0,1.0,0.38317289931,0,0.0,0.0,0.0,0.403610938714,0.0879551511281,0.315655787586,0.491566089843,0.0879551511281,0.338313802223,435,0.221263830514,0.433027056876,-1.0,nan,nan,nan,nan,nan,nan,nan,nan,666.453202903,930.913323134,nan,931.296496034,nan,nan,nan,nan
1,216,1,1,1.0,1.0,0.361396842462,0,0.0,0.0,0.0,0.403515878066,0.0877613840262,0.31575449404,0.491277262092,0.0877613840262,0.35651919886,254,0.503011129055,0.248947817922,0.65613358125,nan,nan,nan,nan,nan,nan,nan,nan,666.453202903,931.85507936,nan,932.216476202,nan,nan,nan,nan
1,217,1,1,1.0,1.0,0.419554517546,0,0.0,0.0,0.0,0.403320882531,0.0876046679077,0.315716214623,0.490925550439,0.0876046679077,0.388041419773,142,1.0,-0.289568116499,-0.0146273521697,nan,nan,nan,nan,nan,nan,nan,nan,666.453202903,932.796901158,nan,933.216455675,nan,nan,nan,nan
1,218,1,1,1.0,1.0,0.389776049939,0,0.0,0.0,0.0,0.403395691909,0.0874094957814,0.315986196127,0.49080518769,0.0874094957814,0.390242469982,429,0.177531820842,0.442080780324,-0.901885199234,nan,nan,nan,nan,nan,nan,nan,nan,666.453202903,933.738689884,nan,934.128465934,nan,nan,nan,nan
1,219,1,1,1.0,1.0,0.343950281269,0,0.0,0.0,0.0,0.403333216487,0.0872136408167,0.31611957567,0.490546857304,0.0872136408167,0.384426949585,487,0.639529740128,0.306295026098,-1.0,nan,nan,nan,nan,nan,nan,nan,nan,666.453202903,934.680499423,nan,935.024449704,nan,nan,nan,nan
1,220,1,1,1.0,1.0,0.410148570139,0,0.0,0.0,0.0,0.403062061532,0.0871063488063,0.315955712725,0.490168410338,0.0871063488063,0.381291633782,128,1.0,-0.310663006781,-0.156689791083,nan,nan,nan,nan,nan,nan,nan,nan,666.453202903,935.622266482,nan,936.032415052,nan,nan,nan,nan
1,221,1,1,1.0,1.0,0.356365151005,0,0.0,0.0,0.0,0.403094272934,0.0869094616373,0.316184811297,0.490003734572,0.0869094616373,0.370154667471,54,1.0,-0.0546292063271,-1.0,nan,nan,nan,nan,nan,nan,nan,nan,666.453202903,936.564054068,nan,936.920419219,nan,nan,nan,nan
1,222,1,1,1.0,1.0,0.326532229723,0,0.0,0.0,0.0,0.402882828944,0.0867693078413,0.316113521102,0.489652136785,0.0867693078413,0.364348650289,449,0.328095008353,0.407646248688,-1.0,nan,nan,nan,nan,nan,nan,nan,nan,666.453202903,937.505849922,nan,937.832382152,nan,nan,nan,nan
1,223,0,0,1.0,0.0,0.312732639839,0,0.0,0.0,0.0,0.402538907326,0.0867245011589,0.315814406167,0.489263408485,0.0867245011589,0.331876673522,247,0.578947625354,0.219392674348,0.6523805853,nan,nan,nan,nan,nan,nan,nan,nan,666.453202903,938.447636653,nan,938.760369293,nan,nan,nan,nan
1,224,1,1,1.0,1.0,0.378920095041,0,0.0,0.0,0.0,0.402136188637,0.086737630242,0.315398558395,0.488873818879,0.086737630242,0.339394988201,203,1.0,-0.00249325098487,0.493674673203,nan,nan,nan,nan,nan,nan,nan,nan,666.453202903,939.389426805,nan,939.7683469,nan,nan,nan,nan
1,225,1,1,1.0,1.0,0.341124676692,0,0.0,0.0,0.0,0.402032545362,0.0865576413105,0.315474904052,0.488590186673,0.0865576413105,0.344259137191,392,-0.0541067903503,0.475522277549,-0.315549842675,nan,nan,nan,nan,nan,nan,nan,nan,666.453202903,940.331214676,nan,940.672339353,nan,nan,nan,nan
1,226,1,1,1.0,1.0,0.367308060755,0,0.0,0.0,0.0,0.401761843724,0.0864600547694,0.315301788954,0.488221898493,0.0864600547694,0.362450944163,325,-0.119404900653,0.442631039184,0.360186421743,nan,nan,nan,nan,nan,nan,nan,nan,666.453202903,941.273004258,nan,941.640312319,nan,nan,nan,nan
1,227,1,1,1.0,1.0,0.345502353739,0,0.0,0.0,0.0,0.401609393357,0.0862988620497,0.315310531307,0.487908255406,0.0862988620497,0.351311697062,11,0.934659501434,0.163852895862,-1.0,nan,nan,nan,nan,nan,nan,nan,nan,666.453202903,942.214788708,nan,942.560291062,nan,nan,nan,nan
1,228,1,1,nan,nan,nan,0,0.0,0.0,0.0,0.401362225781,0.0861886999461,0.315173525835,0.487550925727,0.0861886999461,0.356405207247,508,0.814199817736,0.228638933499,-1.0,nan,nan,nan,nan,nan,nan,nan,nan,666.453202903,943.156575154,nan,nan,nan,nan,nan,nan
1,229,1,1,1.0,1.0,0.477905488922,0,0.0,0.0,0.0,0.401362225781,0.0861886999461,0.315173525835,0.487550925727,0.0861886999461,0.411703921331,329,-0.136053278316,0.448203788942,0.3278337444,nan,nan,nan,nan,nan,nan,nan,nan,666.453202903,944.098365876,nan,944.576271365,nan,nan,nan,nan
1,230,1,1,1.0,1.0,0.44010009215,0,0.0,0.0,0.0,0.401697941848,0.0861480991728,0.315549842675,0.48784604102,0.0861480991728,0.459002790536,115,1.0,-0.305166285737,-0.293172749504,nan,nan,nan,nan,nan,nan,nan,nan,666.453202903,945.040153177,nan,945.480253269,nan,nan,nan,nan
1,231,1,1,1.0,1.0,0.394301122578,0,0.0,0.0,0.0,0.401865636827,0.0859970839169,0.31586855291,0.487862720744,0.0859970839169,0.437435567883,333,-0.149813480994,0.453275949072,0.294183738108,nan,nan,nan,nan,nan,nan,nan,nan,666.453202903,945.981934491,nan,946.376235614,nan,nan,nan,nan
1,232,1,1,1.0,1.0,0.420489638404,0,0.0,0.0,0.0,0.401832747635,0.0858113734317,0.316021374203,0.487644121066,0.0858113734317,0.418296951044,498,0.731507943485,0.267561876527,-1.0,nan,nan,nan,nan,nan,nan,nan,nan,666.453202903,946.923725499,nan,947.344215137,nan,nan,nan,nan
1,233,1,1,1.0,1.0,0.454708504549,0,0.0,0.0,0.0,0.401913513396,0.085634193546,0.31627931985,0.487547706942,0.085634193546,0.423166421844,100,1.0,-0.270427092546,-0.457439896749,nan,nan,nan,nan,nan,nan,nan,nan,666.453202903,947.865498545,nan,948.320207049,nan,nan,nan,nan
1,234,1,1,1.0,1.0,0.432873717626,0,0.0,0.0,0.0,0.402141078013,0.0855194065974,0.316621671415,0.48766048461,0.0855194065974,0.436023953526,468,0.481236483515,0.363131620867,-1.0,nan,nan,nan,nan,nan,nan,nan,nan,666.453202903,948.807310649,nan,949.240184367,nan,nan,nan,nan
1,235,1,1,1.0,1.0,0.523098625592,0,0.0,0.0,0.0,0.402272977754,0.0853593370797,0.316913640674,0.487632314833,0.0853593370797,0.470226949255,372,-0.138660017671,0.478458869494,-0.0888123791441,nan,nan,nan,nan,nan,nan,nan,nan,666.453202903,949.749069441,nan,950.272168066,nan,nan,nan,nan
1,236,1,1,1.0,1.0,0.565279418661,0,0.0,1.0,0.0,0.402789326676,0.0855406355278,0.317248691148,0.488329962204,0.0855406355278,0.507083920626,240,0.654373017221,0.188015059697,0.642463954019,nan,nan,nan,nan,nan,nan,nan,nan,666.453202903,950.690881545,nan,951.256160964,nan,nan,nan,nan
1,237,1,1,1.0,1.0,0.527494834037,1,0.0,0.0,1.0,0.403480773876,0.0860112697483,0.317469504128,0.489492043624,0.0860112697483,0.538624292763,399,-0.0164460389312,0.472031251936,-0.400274523968,-174.62660226,264.62660226,-15.9202727396,376.0,-0.124962824795,0.478704673615,-0.132627625282,2.05889208708,666.453202903,951.632643188,952.441086816,952.160138022,955.533114967,956.529274985,953.457847432,955.524780988
1,238,1,1,1.0,1.0,0.669029082288,0,0.0,0.0,0.0,0.404006257182,0.0862060468423,0.317800210339,0.490212304024,0.0862060468423,0.587267778329,178,1.0,-0.139919655122,0.315097826042,nan,nan,nan,nan,nan,nan,nan,nan,666.453202903,956.674990478,nan,957.34401956,nan,nan,nan,nan
1,239,1,1,1.0,1.0,0.407252261415,0,0.0,0.0,0.0,0.40512449695,0.0877224865599,0.31740201039,0.49284698351,0.0877224865599,0.534592059247,345,-0.173519535469,0.465595146217,0.186119282857,nan,nan,nan,nan,nan,nan,nan,nan,666.453202903,957.61678006,nan,958.024032321,nan,nan,nan,nan
1,240,1,1,1.0,1.0,0.361427633034,0,0.0,0.0,0.0,0.405133437137,0.087538109828,0.317595327309,0.492671546965,0.087538109828,0.479236325579,220,0.861731547614,0.0893272636146,0.581247684387,nan,nan,nan,nan,nan,nan,nan,nan,666.453202903,958.558572777,nan,958.920000411,nan,nan,nan,nan
1,241,1,1,1.0,1.0,0.323638201749,0,0.0,0.0,0.0,0.404950567664,0.0874003275668,0.317550240097,0.49235089523,0.0874003275668,0.364106032066,344,-0.172543464245,0.464730234515,0.195503824632,nan,nan,nan,nan,nan,nan,nan,nan,666.453202903,959.500358938,nan,959.82399714,nan,nan,nan,nan
1,242,1,1,1.0,1.0,0.357829128334,0,0.0,0.0,0.0,0.404611766139,0.087375184238,0.317236581901,0.491986950377,0.087375184238,0.347631654372,126,1.0,-0.311411754845,-0.177408431044,nan,nan,nan,nan,nan,nan,nan,nan,666.453202903,960.44214795,nan,960.799977078,nan,nan,nan,nan
1,243,1,1,1.0,1.0,0.335999758216,0,0.0,0.0,0.0,0.40441764731,0.0872455639353,0.317172083375,0.491663211245,0.0872455639353,0.3391556961,408,0.036737934283,0.465637664749,-0.515938449969,nan,nan,nan,nan,nan,nan,nan,nan,666.453202903,961.383936391,nan,961.719936149,nan,nan,nan,nan
1,244,1,1,1.0,1.0,0.330192885827,0,0.0,0.0,0.0,0.40413492876,0.0871756722476,0.316959256512,0.491310601008,0.0871756722476,0.341340590792,92,1.0,-0.241703663401,-0.55060883727,nan,nan,nan,nan,nan,nan,nan,nan,666.453202903,962.325752772,nan,962.655945658,nan,nan,nan,nan
1,245,1,1,1.0,1.0,0.452436845109,0,0.0,0.0,0.0,0.403830640517,0.0871248005428,0.316705839975,0.49095544106,0.0871248005428,0.372876496384,19,0.99625917486,0.126374530333,-1.0,nan,nan,nan,nan,nan,nan,nan,nan,666.453202903,963.267510423,nan,963.719947268,nan,nan,nan,nan
1,246,1,1,1.0,1.0,0.350611021684,0,0.0,0.0,0.0,0.404029846274,0.0870015187781,0.317028327496,0.491031365052,0.0870015187781,0.37774691754,200,1.0,-0.0191209939188,0.47515178387,nan,nan,nan,nan,nan,nan,nan,nan,666.453202903,964.209306847,nan,964.559917869,nan,nan,nan,nan
1,247,1,1,1.0,1.0,0.312795646489,0,0.0,0.0,0.0,0.403811810255,0.0868905576092,0.316921252646,0.490702367864,0.0868905576092,0.371947837761,93,1.0,-0.245614297951,-0.538619881923,nan,nan,nan,nan,nan,nan,nan,nan,666.453202903,965.151094434,nan,965.46389008,nan,nan,nan,nan
1,248,1,1,1.0,1.0,0.419000857568,0,0.0,0.0,0.0,0.40344182585,0.0869069372577,0.316534888592,0.490348763107,0.0869069372577,0.36080250858,503,0.773020196022,0.248538461814,-1.0,nan,nan,nan,nan,nan,nan,nan,nan,666.453202903,966.092880024,nan,966.511880882,nan,nan,nan,nan
1,249,1,1,1.0,1.0,0.413195980771,0,0.0,0.0,0.0,0.403504817881,0.0867364610135,0.316768356867,0.490241278894,0.0867364610135,0.381664161609,440,0.258699398066,0.424657399123,-1.0,nan,nan,nan,nan,nan,nan,nan,nan,666.453202903,967.034671887,nan,967.447867867,nan,nan,nan,nan
1,250,1,1,1.0,1.0,0.383375603822,0,0.0,0.0,0.0,0.403543895151,0.0865635911184,0.316980304032,0.490107486269,0.0865635911184,0.405190814054,178,1.0,-0.139919655122,0.315097826042,nan,nan,nan,nan,nan,nan,nan,nan,666.453202903,967.976459758,nan,968.359835362,nan,nan,nan,nan
1,251,1,1,1.0,1.0,0.465557902178,0,0.0,0.0,0.0,0.403462897997,0.0863990099837,0.317063888013,0.48986190798,0.0863990099837,0.420709828924,405,0.018463324075,0.468009379796,-0.476293327428,nan,nan,nan,nan,nan,nan,nan,nan,666.453202903,968.918255042,nan,969.383812944,nan,nan,nan,nan
1,252,1,1,1.0,1.0,0.371757867571,0,0.0,0.0,0.0,0.403711278013,0.0863150695765,0.317396208437,0.49002634759,0.0863150695765,0.406897124524,302,0.027086081288,0.400300843718,0.517770016443,nan,nan,nan,nan,nan,nan,nan,nan,666.453202903,969.86004833,nan,970.231806197,nan,nan,nan,nan
1,253,0,0,0.0,1.0,0.397985156626,0,0.0,0.0,0.0,0.403583973589,0.0861664691449,0.317417504444,0.489750442734,0.0861664691449,0.411766975458,487,0.639529740128,0.306295026098,-1.0,nan,nan,nan,nan,nan,nan,nan,nan,666.453202903,970.801807691,nan,971.199792848,nan,nan,nan,nan
1,254,1,1,1.0,1.0,0.352153971093,0,0.0,0.0,0.0,0.403561756062,0.0859960543573,0.317565701704,0.489557810419,0.0859960543573,0.373965665097,84,1.0,-0.20765784414,-0.652191087791,nan,nan,nan,nan,nan,nan,nan,nan,666.453202903,971.743613524,nan,972.095767495,nan,nan,nan,nan
1,255,1,1,1.0,1.0,0.354360913334,0,0.0,0.0,0.0,0.403358563236,0.0858865254366,0.317472037799,0.489245088672,0.0858865254366,0.368166680351,441,0.266287261384,0.422891888867,-1.0,nan,nan,nan,nan,nan,nan,nan,nan,666.453202903,972.68540225,nan,973.039763164,nan,nan,nan,nan
1,256,1,1,1.0,1.0,0.532607778383,0,0.0,0.0,0.0,0.403165659102,0.0857721899504,0.317393469152,0.488937849053,0.0857721899504,0.413040887603,74,1.0,-0.159715158178,-0.810443278181,nan,nan,nan,nan,nan,nan,nan,nan,666.453202903,973.627159331,nan,974.159767109,nan,nan,nan,nan
1,257,1,1,1.0,1.0,0.374769355869,0,0.0,0.0,0.0,0.403673275256,0.0859852739747,0.317688001282,0.489658549231,0.0859852739747,0.420579349195,301,0.0351599448551,0.39804275895,0.523414514543,nan,nan,nan,nan,nan,nan,nan,nan,666.453202903,974.568969725,nan,974.943739081,nan,nan,nan,nan
1,258,1,1,1.0,1.0,0.560955054883,0,0.0,1.0,0.0,0.403560369321,0.085836107117,0.317724262204,0.489396476438,0.085836107117,0.489444063045,387,-0.0787219327085,0.477231755363,-0.256974454483,nan,nan,nan,nan,nan,nan,nan,nan,666.453202903,975.510765579,nan,976.071720634,nan,nan,nan,nan
1,259,1,1,1.0,1.0,0.403150844155,1,0.0,0.0,1.0,0.404172800004,0.0862275299478,0.317945270057,0.490400329952,0.0862275299478,0.446291751636,293,0.103830259013,0.378659598285,0.564617056734,-121.246929413,211.246929413,5.23130441348,300.0,0.0433537089178,0.395748422077,0.528951029102,3.225725631,666.453202903,976.452553735,977.260966288,976.855704579,981.519831405,982.518407911,978.277754843,981.511499136
1,260,1,1,1.0,1.0,0.585878021433,0,0.0,0.0,0.0,0.404168838935,0.0860602835185,0.318108555417,0.490229122454,0.0860602835185,0.516661306824,99,1.0,-0.267176270739,-0.468793303331,nan,nan,nan,nan,nan,nan,nan,nan,666.453202903,982.661687813,nan,983.247565835,nan,nan,nan,nan
1,261,1,1,1.0,1.0,0.46806106111,0,0.0,0.0,0.0,0.40487041879,0.0866300620715,0.318240356719,0.491500480862,0.0866300620715,0.485696642233,402,0.000724920831492,0.470139955471,-0.437811562499,nan,nan,nan,nan,nan,nan,nan,nan,666.453202903,983.603478821,nan,984.071539882,nan,nan,nan,nan
1,262,1,1,1.0,1.0,0.542272594525,0,0.0,1.0,0.0,0.405113459722,0.0865517302383,0.318561729484,0.491665189961,0.0865517302383,0.532070559023,326,-0.12383419111,0.444071765824,0.352223541474,nan,nan,nan,nan,nan,nan,nan,nan,666.453202903,984.545266407,nan,985.087539001,nan,nan,nan,nan
1,263,0,0,0.0,1.0,0.4964895905,1,0.0,0.0,1.0,0.405638973649,0.08680036264,0.318838611009,0.492439336289,0.08680036264,0.502274415378,509,0.822386376617,0.224555004187,-1.0,116.565051177,333.434948823,-24.4556761771,474.0,0.530901762182,0.346545376391,-1.0,1.51725725632,666.453202903,985.487055133,986.295464265,985.983544724,988.837467727,989.834691729,987.303921407,988.829138879
1,264,1,1,1.0,1.0,0.500170773594,0,0.0,0.0,0.0,0.405985731728,0.0868154883485,0.31917024338,0.492801220077,0.0868154883485,0.512977652873,365,-0.157962026257,0.477016591838,-0.0139196855225,nan,nan,nan,nan,nan,nan,nan,nan,666.453202903,989.979289354,nan,990.479460127,nan,nan,nan,nan
1,265,1,1,1.0,1.0,0.390359360084,0,0.0,0.0,0.0,0.406343849758,0.0868439554921,0.319499894266,0.49318780525,0.0868439554921,0.462339908059,420,0.1146601879,0.45369410126,-0.695047497311,nan,nan,nan,nan,nan,nan,nan,nan,666.453202903,990.92109091,nan,991.31145027,nan,nan,nan,nan
1,266,1,1,1.0,1.0,0.400541058683,0,0.0,0.0,0.0,0.406283302449,0.0866848836772,0.319598418772,0.492968186126,0.0866848836772,0.43035706412,90,1.0,-0.233635786423,-0.574971871003,nan,nan,nan,nan,nan,nan,nan,nan,666.453202903,991.862880777,nan,992.263421835,nan,nan,nan,nan
1,267,0,0,0.0,1.0,0.450727113464,0,0.0,0.0,0.0,0.406261633605,0.0865218890459,0.319739744559,0.49278352265,0.0865218890459,0.413875844077,343,-0.171388175652,0.463836419185,0.204822810802,nan,nan,nan,nan,nan,nan,nan,nan,666.453202903,992.804674065,nan,993.255401178,nan,nan,nan,nan
1,268,1,1,1.0,1.0,0.452936336515,0,0.0,0.0,0.0,0.406428797063,0.0864019637886,0.320026833274,0.492830760851,0.0864019637886,0.434734836221,242,0.632911854383,0.197161183215,0.645921401967,nan,nan,nan,nan,nan,nan,nan,nan,666.453202903,993.7464588,nan,994.199395136,nan,nan,nan,nan
1,269,1,1,1.0,1.0,0.471123581927,0,0.0,0.0,0.0,0.406602982604,0.0862867893956,0.320316193208,0.492889771999,0.0862867893956,0.458262343969,313,-0.0530221528698,0.42279583272,0.448797959603,nan,nan,nan,nan,nan,nan,nan,nan,666.453202903,994.688248952,nan,995.159372534,nan,nan,nan,nan
1,270,1,1,1.0,1.0,0.361288505315,0,0.0,0.0,0.0,0.406843731109,0.0862154505961,0.320628280512,0.493059181705,0.0862154505961,0.428449474586,389,-0.0691208065164,0.476626077068,-0.280234315682,nan,nan,nan,nan,nan,nan,nan,nan,666.453202903,995.630074171,nan,995.991362676,nan,nan,nan,nan
1,271,1,1,1.0,1.0,0.315522322024,0,0.0,0.0,0.0,0.406674380827,0.0860996961418,0.320574684685,0.492774076969,0.0860996961418,0.382644803089,132,1.0,-0.307426825298,-0.115555361894,nan,nan,nan,nan,nan,nan,nan,nan,666.453202903,996.571822129,nan,996.887344451,nan,nan,nan,nan
1,272,0,0,1.0,0.0,0.293703785632,0,0.0,0.0,0.0,0.406336780609,0.0861182937428,0.320218486866,0.492455074352,0.0861182937428,0.32350487099,279,0.238157575771,0.338930353633,0.618978422254,nan,nan,nan,nan,nan,nan,nan,nan,666.453202903,997.513618268,nan,997.807322053,nan,nan,nan,nan
1,273,1,1,1.0,1.0,0.383889065008,0,0.0,0.0,0.0,0.405921160701,0.0862301203076,0.319691040394,0.492151281009,0.0862301203076,0.331038390888,387,-0.0787219327085,0.477231755363,-0.256974454483,nan,nan,nan,nan,nan,nan,nan,nan,666.453202903,998.455402148,nan,998.839291213,nan,nan,nan,nan
1,274,0,0,0.0,1.0,0.450093341002,0,0.0,0.0,0.0,0.40584016035,0.0860817913748,0.319758368975,0.491921951724,0.0860817913748,0.375895397214,195,1.0,-0.0469245268387,0.442396054288,nan,nan,nan,nan,nan,nan,nan,nan,666.453202903,999.397196861,nan,999.847290202,nan,nan,nan,nan
1,275,1,1,1.0,1.0,0.340340372582,0,0.0,0.0,0.0,0.406002259912,0.0859655676425,0.32003669227,0.491967827555,0.0859655676425,0.391440926197,314,-0.0594438881467,0.42463230952,0.441925406839,nan,nan,nan,nan,nan,nan,nan,nan,666.453202903,1000.3389796,nan,1000.67931997,nan,nan,nan,nan
1,276,1,1,1.0,1.0,0.454509506293,0,0.0,0.0,0.0,0.405762617988,0.0858998582206,0.319862759767,0.491662476208,0.0858998582206,0.414981073292,257,0.470472903111,0.261039853404,0.655841377839,nan,nan,nan,nan,nan,nan,nan,nan,666.453202903,1001.2807592,nan,1001.73526871,nan,nan,nan,nan
1,277,1,1,1.0,1.0,0.504689003865,0,0.0,0.0,0.0,0.4059398794,0.0857937248007,0.320146154599,0.491733604201,0.0857937248007,0.43317962758,163,1.0,-0.214247802105,0.185723682048,nan,nan,nan,nan,nan,nan,nan,nan,666.453202903,1002.22254879,nan,1002.72723779,nan,nan,nan,nan
1,278,1,1,1.0,1.0,0.474831279134,0,0.0,0.0,0.0,0.406297666083,0.0858434483128,0.32045421777,0.492141114396,0.0858434483128,0.478009929764,485,0.622774561467,0.312875618285,-1.0,nan,nan,nan,nan,nan,nan,nan,nan,666.453202903,1003.16436973,nan,1003.63920101,nan,nan,nan,nan
1,279,1,1,1.0,1.0,0.381107650639,0,0.0,0.0,0.0,0.406545079848,0.0857868831666,0.320758196682,0.492331963015,0.0857868831666,0.453542644546,413,0.0683106243366,0.461143133648,-0.585495598612,nan,nan,nan,nan,nan,nan,nan,nan,666.453202903,1004.10610457,nan,1004.48721222,nan,nan,nan,nan
1,280,1,1,1.0,1.0,0.35126418079,0,0.0,0.0,0.0,0.406453578304,0.0856459916837,0.320807586621,0.492099569988,0.0856459916837,0.402401036855,241,0.64365311028,0.192605941253,0.644254782112,nan,nan,nan,nan,nan,nan,nan,nan,666.453202903,1005.04792266,nan,1005.39918684,nan,nan,nan,nan
1,281,1,1,1.0,1.0,0.329455907922,0,0.0,0.0,0.0,0.406255766844,0.0855559623251,0.320699804519,0.491811729169,0.0855559623251,0.353942579784,176,1.0,-0.150429669724,0.298675466069,nan,nan,nan,nan,nan,nan,nan,nan,666.453202903,1005.9897131,nan,1006.31916901,nan,nan,nan,nan
1,282,0,0,0.0,1.0,0.435667106067,0,0.0,0.0,0.0,0.405981481633,0.0855258457928,0.32045563584,0.491507327426,0.0855258457928,0.372129064926,249,0.557275547736,0.228026269286,0.654084877906,nan,nan,nan,nan,nan,nan,nan,nan,666.453202903,1006.93149926,nan,1007.36716637,nan,nan,nan,nan
1,283,1,1,1.0,1.0,0.333852971671,0,0.0,0.0,0.0,0.406087124425,0.0853918283869,0.320695296038,0.491478952812,0.0853918283869,0.366325328553,153,1.0,-0.255547855702,0.0926213922694,nan,nan,nan,nan,nan,nan,nan,nan,666.453202903,1007.87328371,nan,1008.20713668,nan,nan,nan,nan
1,284,1,1,1.0,1.0,0.344042367826,0,0.0,0.0,0.0,0.405830974947,0.0853483694209,0.320482605526,0.491179344368,0.0853483694209,0.371187481855,254,0.503011129055,0.248947817922,0.65613358125,nan,nan,nan,nan,nan,nan,nan,nan,666.453202903,1008.81507643,nan,1009.1591188,nan,nan,nan,nan
1,285,1,1,1.0,1.0,0.354232334241,0,0.0,0.0,0.0,0.405612640646,0.0852762999505,0.320336340696,0.490888940597,0.0852762999505,0.344042557913,455,0.375608248681,0.394875365091,-1.0,nan,nan,nan,nan,nan,nan,nan,nan,666.453202903,1009.7568623,nan,1010.11109464,nan,nan,nan,nan
1,286,1,1,1.0,1.0,0.308400293346,0,0.0,0.0,0.0,0.405431724074,0.0851804223449,0.320251301729,0.490612146419,0.0851804223449,0.335558331804,366,-0.155593376329,0.477302029306,-0.0244766492797,nan,nan,nan,nan,nan,nan,nan,nan,666.453202903,1010.69868211,nan,1011.0070824,nan,nan,nan,nan
1,287,1,1,1.0,1.0,0.334632144019,0,0.0,0.0,0.0,0.405091262914,0.0852242058268,0.319867057087,0.490315468741,0.0852242058268,0.332421590535,110,1.0,-0.296722754836,-0.346921960777,nan,nan,nan,nan,nan,nan,nan,nan,666.453202903,1011.64044603,nan,1011.97507817,nan,nan,nan,nan
1,288,1,1,1.0,1.0,0.304830298352,0,1.0,0.0,0.0,0.404844902358,0.0851766824327,0.319668219926,0.490021584791,0.0851766824327,0.315954245239,234,0.71814774995,0.15974031316,0.62913160129,nan,nan,nan,nan,nan,nan,nan,nan,666.453202903,1012.58223305,nan,1012.88706334,nan,nan,nan,nan
1,289,1,1,1.0,1.0,0.291010466521,1,0.0,0.0,1.0,0.404496419418,0.0852321546912,0.319264264726,0.489728574109,0.0852321546912,0.310157636297,449,0.328095008353,0.407646248688,-1.0,164.868630088,285.131369912,-30.5717550883,406.0,0.0244967455079,0.467245700284,-0.489366101921,2.39230657823,666.453202903,1013.52402434,1014.33242748,1013.8150348,1017.76619128,1018.77220655,1015.35752921,1017.75785644
1,290,1,1,1.0,1.0,0.594530740404,0,0.0,0.0,0.0,0.40410237097,0.0853455321282,0.318756838842,0.489447903098,0.0853455321282,0.396790501759,87,1.0,-0.220959007447,-0.612675615602,nan,nan,nan,nan,nan,nan,nan,nan,666.453202903,1018.91638309,nan,1019.51091383,nan,nan,nan,nan
1,291,1,1,1.0,1.0,0.468744440586,0,0.0,0.0,0.0,0.404761292664,0.0859284550822,0.318832837581,0.490689747746,0.0859284550822,0.45142854917,354,-0.174470673547,0.472100788149,0.0988677247603,nan,nan,nan,nan,nan,nan,nan,nan,666.453202903,1019.85817381,nan,1020.32691825,nan,nan,nan,nan
1,292,1,1,1.0,1.0,0.358941865154,0,0.0,0.0,0.0,0.404981924208,0.0858621359092,0.319119788299,0.490844060117,0.0858621359092,0.474072348714,249,0.557275547736,0.228026269286,0.654084877906,nan,nan,nan,nan,nan,nan,nan,nan,666.453202903,1020.79996083,nan,1021.15890269,nan,nan,nan,nan
1,293,1,1,1.0,1.0,0.393138208543,0,0.0,0.0,0.0,0.404823710947,0.0857568138002,0.319066897147,0.490580524747,0.0857568138002,0.406941504761,197,1.0,-0.035797595552,0.455774741445,nan,nan,nan,nan,nan,nan,nan,nan,666.453202903,1021.74175583,nan,1022.13489403,nan,nan,nan,nan
1,294,0,0,0.0,1.0,0.523353788129,0,0.0,0.0,0.0,0.404783692103,0.0856125658356,0.319171126267,0.490396257938,0.0856125658356,0.425144620608,336,-0.158211608236,0.456758111158,0.268135266647,nan,nan,nan,nan,nan,nan,nan,nan,666.453202903,1022.68352916,nan,1023.20688295,nan,nan,nan,nan
1,295,1,1,1.0,1.0,0.445525218616,0,0.0,0.0,0.0,0.405188368199,0.0857456398446,0.319442728354,0.490934008043,0.0857456398446,0.454005738429,451,0.343830962376,0.403518361206,-1.0,nan,nan,nan,nan,nan,nan,nan,nan,666.453202903,1023.62533271,nan,1024.07085793,nan,nan,nan,nan
1,296,1,1,1.0,1.0,0.40770955832,0,0.0,0.0,0.0,0.40532556837,0.0856318998853,0.319693668485,0.490957468255,0.0856318998853,0.458862855022,162,1.0,-0.218739557155,0.176632971453,nan,nan,nan,nan,nan,nan,nan,nan,666.453202903,1024.56712999,nan,1024.97483955,nan,nan,nan,nan
1,297,0,0,0.0,1.0,0.489933195873,0,0.0,0.0,0.0,0.405333649692,0.085486750165,0.319846899527,0.490820399857,0.085486750165,0.447722657603,388,-0.0739633693698,0.476941921698,-0.268577162136,nan,nan,nan,nan,nan,nan,nan,nan,666.453202903,1025.50890902,nan,1025.99884222,nan,nan,nan,nan
1,298,1,1,1.0,1.0,0.436165171966,0,0.0,0.0,0.0,0.40561945897,0.0854832905622,0.320136168407,0.491102749532,0.0854832905622,0.444602642053,511,0.838703193994,0.216284169582,-1.0,nan,nan,nan,nan,nan,nan,nan,nan,666.453202903,1026.45067095,nan,1026.88683612,nan,nan,nan,nan
1,299,1,1,1.0,1.0,0.36631763092,0,0.0,0.0,0.0,0.405722306488,0.085357600258,0.32036470623,0.491079906746,0.085357600258,0.43080533292,378,-0.117450136118,0.478670924818,-0.154810124165,nan,nan,nan,nan,nan,nan,nan,nan,666.453202903,1027.39247963,nan,1027.75879726,nan,nan,nan,nan
1,300,1,1,1.0,1.0,0.376538958051,0,0.0,0.0,0.0,0.405590076033,0.0852447273406,0.320345348692,0.490834803374,0.0852447273406,0.393007253646,174,1.0,-0.160790688716,0.281981279739,nan,nan,nan,nan,nan,nan,nan,nan,666.453202903,1028.33424099,nan,1028.71077995,nan,nan,nan,nan
1,301,1,1,1.0,1.0,0.322714769864,0,0.0,0.0,0.0,0.405492915103,0.0851185849872,0.320374330116,0.490611500091,0.0851185849872,0.355190452945,392,-0.0541067903503,0.475522277549,-0.315549842675,nan,nan,nan,nan,nan,nan,nan,nan,666.453202903,1029.27604369,nan,1029.59875846,nan,nan,nan,nan
1,302,1,1,1.0,1.0,0.300887965655,0,0.0,0.0,0.0,0.405216987953,0.0851104431537,0.320106544799,0.490327431106,0.0851104431537,0.333380564523,257,0.470472903111,0.261039853404,0.655841377839,nan,nan,nan,nan,nan,nan,nan,nan,666.453202903,1030.21784581,nan,1030.51873378,nan,nan,nan,nan
1,303,1,1,1.0,1.0,0.319090606354,0,1.0,0.0,0.0,0.404870379905,0.0851807662333,0.319689613672,0.490051146138,0.0851807662333,0.314231113958,313,-0.0530221528698,0.42279583272,0.448797959603,nan,nan,nan,nan,nan,nan,nan,nan,666.453202903,1031.15963197,nan,1031.47872258,nan,nan,nan,nan
1,304,1,1,1.0,1.0,0.329242939828,1,0.0,0.0,1.0,0.40458634092,0.0851822830916,0.319404057828,0.489768624011,0.0851822830916,0.316407170612,415,0.0813077335083,0.459153678902,-0.614968023274,-139.581855864,229.581855864,-62.2150191356,327.0,-0.128086156831,0.445480682368,0.344176439252,1.17543893663,666.453202903,1032.10145833,1032.90986062,1032.43070127,1035.12676504,1036.13474721,1033.93494182,1035.11843163
1,305,1,1,1.0,1.0,0.369637309923,0,0.0,0.0,0.0,0.40433768283,0.0851513182683,0.319186364562,0.489489001099,0.0851513182683,0.339323618702,491,0.673033477965,0.292707709811,-1.0,nan,nan,nan,nan,nan,nan,nan,nan,666.453202903,1036.27696883,nan,1036.64660614,nan,nan,nan,nan
1,306,0,0,0.0,1.0,0.491849908547,0,0.0,0.0,0.0,0.404223536867,0.0850343679906,0.319189168876,0.489257904858,0.0850343679906,0.396910052766,372,-0.138660017671,0.478458869494,-0.0888123791441,nan,nan,nan,nan,nan,nan,nan,nan,666.453202903,1037.21876582,nan,1037.71061573,nan,nan,nan,nan
1,307,1,1,1.0,1.0,0.358038105071,0,0.0,0.0,0.0,0.404510836446,0.0850425101572,0.319468326289,0.489553346603,0.0850425101572,0.40650844118,23,1.0,0.106943944166,-1.0,nan,nan,nan,nan,nan,nan,nan,nan,666.453202903,1038.16054315,nan,1038.51858125,nan,nan,nan,nan
1,308,1,1,1.0,1.0,0.344251629664,0,0.0,0.0,0.0,0.404358964775,0.084944856386,0.319414108389,0.489303821161,0.084944856386,0.39804654776,500,0.748145934353,0.260058294274,-1.0,nan,nan,nan,nan,nan,nan,nan,nan,666.453202903,1039.10233187,nan,1039.4465835,nan,nan,nan,nan
1,309,1,1,1.0,1.0,0.506444351166,0,0.0,0.0,0.0,0.40416317541,0.0848755264705,0.319287648939,0.48903870188,0.0848755264705,0.402911361967,452,0.351738073422,0.401406211611,-1.0,nan,nan,nan,nan,nan,nan,nan,nan,666.453202903,1040.04412288,nan,1040.55056723,nan,nan,nan,nan
1,310,1,1,1.0,1.0,0.468615291291,0,0.0,0.0,0.0,0.404495257149,0.0849371608104,0.319558096339,0.48943241796,0.0849371608104,0.43977042404,168,1.0,-0.190790017254,0.230361799274,nan,nan,nan,nan,nan,nan,nan,nan,666.453202903,1040.98591161,nan,1041.4545269,nan,nan,nan,nan
1,311,0,0,0.0,1.0,0.486808523769,0,0.0,0.0,0.0,0.40470276535,0.0848777729546,0.319824992396,0.489580538305,0.0848777729546,0.487289388742,345,-0.173519535469,0.465595146217,0.186119282857,nan,nan,nan,nan,nan,nan,nan,nan,666.453202903,1041.92771003,nan,1042.41451855,nan,nan,nan,nan
1,312,1,1,1.0,1.0,0.409033552569,0,0.0,0.0,0.0,0.404967622636,0.0848685632526,0.320099059383,0.489836185888,0.0848685632526,0.454819122543,292,0.112881669716,0.376069582356,0.569261850688,nan,nan,nan,nan,nan,nan,nan,nan,666.453202903,1042.86948193,nan,1043.27851548,nan,nan,nan,nan
1,313,1,1,1.0,1.0,0.355221623613,0,0.0,0.0,0.0,0.404980696365,0.0847323214255,0.32024837494,0.489713017791,0.0847323214255,0.417021233317,131,1.0,-0.308451667147,-0.125800503078,nan,nan,nan,nan,nan,nan,nan,nan,666.453202903,1043.81127608,nan,1044.1664977,nan,nan,nan,nan
1,314,1,1,1.0,1.0,0.341416046722,0,0.0,0.0,0.0,0.404821212158,0.084643164017,0.320178048141,0.489464376175,0.084643164017,0.368557074301,375,-0.128556699755,0.478682433309,-0.121605159467,nan,nan,nan,nan,nan,nan,nan,nan,666.453202903,1044.7530611,nan,1045.09447714,nan,nan,nan,nan
1,315,1,1,1.0,1.0,0.311598520668,0,0.0,0.0,0.0,0.404618639744,0.0845835601721,0.320035079572,0.489202199916,0.0845835601721,0.336078730334,169,1.0,-0.185917379452,0.239118302078,nan,nan,nan,nan,nan,nan,nan,nan,666.453202903,1045.6948541,nan,1046.00645262,nan,nan,nan,nan
1,316,1,1,1.0,1.0,0.345799995936,0,0.0,0.0,0.0,0.404322397327,0.0846112448282,0.319711152499,0.488933642155,0.0846112448282,0.332938187775,379,-0.113535935895,0.478614986251,-0.165970515924,nan,nan,nan,nan,nan,nan,nan,nan,666.453202903,1046.63664397,nan,1046.98244396,nan,nan,nan,nan
1,317,1,1,1.0,1.0,0.363994938903,0,0.0,0.0,0.0,0.404136611926,0.0845409584737,0.319595653452,0.488677570399,0.0845409584737,0.340464485169,247,0.578947625354,0.219392674348,0.6523805853,nan,nan,nan,nan,nan,nan,nan,nan,666.453202903,1047.57842613,nan,1047.94242107,nan,nan,nan,nan
1,318,1,1,1.0,1.0,0.446188926348,0,0.0,0.0,0.0,0.404009581315,0.0844371903012,0.319572391014,0.488446771616,0.0844371903012,0.385327953729,489,0.656284860842,0.299572439858,-1.0,nan,nan,nan,nan,nan,nan,nan,nan,666.453202903,1048.52021572,nan,1048.96640464,nan,nan,nan,nan
1,319,1,1,1.0,1.0,0.376378447982,0,0.0,0.0,0.0,0.404142639185,0.0843370779687,0.319805561217,0.488479717154,0.0843370779687,0.395520771078,312,-0.0464483572634,0.420925197877,0.455573212045,nan,nan,nan,nan,nan,nan,nan,nan,666.453202903,1049.46201784,nan,1049.83839629,nan,nan,nan,nan
1,320,0,0,0.0,1.0,0.458586405148,0,0.0,0.0,0.0,0.404055330408,0.0842187154948,0.319836614913,0.488274045903,0.0842187154948,0.427051259826,389,-0.0691208065164,0.476626077068,-0.280234315682,nan,nan,nan,nan,nan,nan,nan,nan,666.453202903,1050.40379203,nan,1050.86237843,nan,nan,nan,nan
1,321,1,1,1.0,1.0,0.364795493602,0,0.0,0.0,0.0,0.404226274216,0.0841418451757,0.32008442904,0.488368119392,0.0841418451757,0.399920115577,461,0.423959648591,0.380927367285,-1.0,nan,nan,nan,nan,nan,nan,nan,nan,666.453202903,1051.34557106,nan,1051.71036656,nan,nan,nan,nan
1,322,1,1,1.0,1.0,0.422997643938,0,0.0,0.0,0.0,0.404103053027,0.0840390927022,0.320063960324,0.488142145729,0.0840390927022,0.415459847563,401,-0.00506340639596,0.470796889516,-0.425203102762,nan,nan,nan,nan,nan,nan,nan,nan,666.453202903,1052.28735608,nan,1052.71035373,nan,nan,nan,nan
1,323,1,1,1.0,1.0,0.433167653449,0,0.0,0.0,0.0,0.404161914681,0.0839146949674,0.320247219713,0.488076609648,0.0839146949674,0.40698693033,337,-0.160643365934,0.457858386897,0.259303564052,nan,nan,nan,nan,nan,nan,nan,nan,666.453202903,1053.22915992,nan,1053.66232757,nan,nan,nan,nan
1,324,1,1,1.0,1.0,0.563369833457,0,0.0,0.0,0.0,0.404251994615,0.083799834087,0.320452160528,0.488051828702,0.083799834087,0.473178376948,37,1.0,0.0358565504353,-1.0,nan,nan,nan,nan,nan,nan,nan,nan,666.453202903,1054.17094808,nan,1054.73431791,nan,nan,nan,nan
1,325,1,1,1.0,1.0,0.47757449036,0,0.0,1.0,0.0,0.404744619503,0.0841356862875,0.320608933215,0.48888030579,0.0841356862875,0.491370659089,306,-0.00395437407881,0.408974006242,0.494128827808,nan,nan,nan,nan,nan,nan,nan,nan,666.453202903,1055.11274022,nan,1055.59031471,nan,nan,nan,nan
1,326,1,1,1.0,1.0,0.431761551066,1,0.0,0.0,1.0,0.404969403055,0.0841028295959,0.320866573459,0.489072232651,0.0841028295959,0.490901958294,479,0.572572153349,0.331768222426,-1.0,95.4268124986,354.573187501,17.7763125014,504.0,0.78128615449,0.244628286196,-1.0,1.34213335282,666.453202903,1056.05452467,1056.8629338,1056.48628622,1059.2382343,1060.236325,1057.87972721,1059.22990203
1,327,1,1,1.0,1.0,0.370127963251,0,0.0,0.0,0.0,0.405051840433,0.0839864505012,0.321065389932,0.489038290934,0.0839864505012,0.426488001559,181,1.0,-0.123914391386,0.3392011262,nan,nan,nan,nan,nan,nan,nan,nan,666.453202903,1060.38008672,nan,1060.75021468,nan,nan,nan,nan
1,328,1,1,1.0,1.0,0.348333375121,0,0.0,0.0,0.0,0.404944711976,0.0838797743357,0.32106493764,0.488824486311,0.0838797743357,0.383407629813,477,0.555879874869,0.337784025865,-1.0,nan,nan,nan,nan,nan,nan,nan,nan,666.453202903,1061.32187031,nan,1061.67020369,nan,nan,nan,nan
1,329,1,1,1.0,1.0,0.382505200163,0,0.0,0.0,0.0,0.404771588621,0.0838097312781,0.320961857343,0.488581319899,0.0838097312781,0.366988846178,347,-0.174938837379,0.46723881498,0.167157479366,nan,nan,nan,nan,nan,nan,nan,nan,666.453202903,1062.26366787,nan,1062.64617307,nan,nan,nan,nan
1,330,0,0,0.0,1.0,0.544710751157,0,0.0,0.0,0.0,0.404703703291,0.0836908785881,0.321012824703,0.488394581879,0.0836908785881,0.425183108814,211,0.948675772315,0.0413606888024,0.538689155053,nan,nan,nan,nan,nan,nan,nan,nan,666.453202903,1063.20545432,nan,1063.75016507,nan,nan,nan,nan
1,331,1,1,1.0,1.0,0.386936190596,0,0.0,0.0,0.0,0.405129256628,0.083918253556,0.321211003072,0.489047510184,0.083918253556,0.438050713972,112,1.0,-0.300501516081,-0.325324861792,nan,nan,nan,nan,nan,nan,nan,nan,666.453202903,1064.14720313,nan,1064.53413932,nan,nan,nan,nan
1,332,1,1,1.0,1.0,0.28509069531,0,0.0,0.0,0.0,0.405074126125,0.0837969749534,0.321277151171,0.488871101078,0.0837969749534,0.405579212354,370,-0.144805996584,0.478178727438,-0.0671803333712,nan,nan,nan,nan,nan,nan,nan,nan,666.453202903,1065.08902579,nan,1065.37411648,nan,nan,nan,nan
1,333,1,1,1.0,1.0,0.319277630537,0,0.0,0.0,0.0,0.404711638418,0.0839290166362,0.320782621782,0.488640655054,0.0839290166362,0.330434838814,423,0.135229581944,0.450080889006,-0.750039916123,nan,nan,nan,nan,nan,nan,nan,nan,666.453202903,1066.03081793,nan,1066.35009556,nan,nan,nan,nan
1,334,1,1,1.0,1.0,0.297485608258,0,1.0,0.0,0.0,0.404454307069,0.0839331957849,0.320521111284,0.488387502854,0.0839331957849,0.300617978035,312,-0.0464483572634,0.420925197877,0.455573212045,nan,nan,nan,nan,nan,nan,nan,nan,666.453202903,1066.97261037,nan,1067.27009598,nan,nan,nan,nan
1,335,0,0,1.0,0.0,0.26768376265,0,0.0,0.0,0.0,0.404133079745,0.084011213162,0.320121866583,0.488144292907,0.084011213162,0.294815667148,146,1.0,-0.278792578557,0.0248813210997,nan,nan,nan,nan,nan,nan,nan,nan,666.453202903,1067.91439567,nan,1068.18207944,nan,nan,nan,nan
1,336,1,1,1.0,1.0,0.357874458889,0,0.0,0.0,0.0,0.403724548856,0.0842159688617,0.319508579994,0.487940517718,0.0842159688617,0.307681276599,91,1.0,-0.237709898716,-0.562722318432,nan,nan,nan,nan,nan,nan,nan,nan,666.453202903,1068.85618155,nan,1069.21405601,nan,nan,nan,nan
1,337,1,1,1.0,1.0,0.400068366434,0,0.0,0.0,0.0,0.403587682916,0.084127372847,0.319460310069,0.487715055763,0.084127372847,0.341875529324,160,1.0,-0.227501418013,0.158297521075,nan,nan,nan,nan,nan,nan,nan,nan,666.453202903,1069.79797655,nan,1070.19804491,nan,nan,nan,nan
1,338,1,1,1.0,1.0,0.338252601214,0,0.0,0.0,0.0,0.403577208759,0.0840023087754,0.319574899984,0.487579517535,0.0840023087754,0.365398475512,221,0.851781464038,0.0945411604707,0.585422935822,nan,nan,nan,nan,nan,nan,nan,nan,666.453202903,1070.73976499,nan,1071.07801759,nan,nan,nan,nan
1,339,1,1,1.0,1.0,0.316450030368,0,0.0,0.0,0.0,0.403383367194,0.0839528087248,0.319430558469,0.487336175919,0.0839528087248,0.351590332672,108,1.0,-0.292426609412,-0.368663285579,nan,nan,nan,nan,nan,nan,nan,nan,666.453202903,1071.68154602,nan,1071.99799605,nan,nan,nan,nan
1,340,1,1,1.0,1.0,0.342653941421,0,0.0,0.0,0.0,0.403126167973,0.0839613889694,0.319164779003,0.487087556942,0.0839613889694,0.332452191001,474,0.530901762182,0.346545376391,-1.0,nan,nan,nan,nan,nan,nan,nan,nan,666.453202903,1072.62333816,nan,1072.96599211,nan,nan,nan,nan
1,341,1,1,1.0,1.0,0.312847534253,0,0.0,0.0,0.0,0.402947783824,0.0839015808816,0.319046202942,0.486849364705,0.0839015808816,0.323983835347,83,1.0,-0.203097876184,-0.665876706514,nan,nan,nan,nan,nan,nan,nan,nan,666.453202903,1073.5651209,nan,1073.87796844,nan,nan,nan,nan
1,342,1,1,1.0,1.0,0.443049429101,0,0.0,0.0,0.0,0.402682783089,0.0839200651946,0.318762717895,0.486602848284,0.0839200651946,0.366183634925,326,-0.12383419111,0.444071765824,0.352223541474,nan,nan,nan,nan,nan,nan,nan,nan,666.453202903,1074.50691448,nan,1074.94996391,nan,nan,nan,nan
1,343,1,1,1.0,1.0,0.389220964513,0,0.0,0.0,0.0,0.402801160351,0.083825348807,0.318975811544,0.486626509157,0.083825348807,0.381705975956,16,0.973419431522,0.140652110383,-1.0,nan,nan,nan,nan,nan,nan,nan,nan,666.453202903,1075.44871233,nan,1075.83793329,nan,nan,nan,nan
1,344,0,0,1.0,0.0,0.327422875329,0,0.0,0.0,0.0,0.402761452176,0.0837059191222,0.319055533053,0.486467371298,0.0837059191222,0.386564422981,186,1.0,-0.0967386681424,0.377881386018,nan,nan,nan,nan,nan,nan,nan,nan,666.453202903,1076.39049108,nan,1076.71791395,nan,nan,nan,nan
1,345,1,1,1.0,1.0,0.369621629536,0,0.0,0.0,0.0,0.402541806179,0.0836824523268,0.318859353852,0.486224258506,0.0836824523268,0.362088489792,344,-0.172543464245,0.464730234515,0.195503824632,nan,nan,nan,nan,nan,nan,nan,nan,666.453202903,1077.33227838,nan,1077.70190001,nan,nan,nan,nan
1,346,1,1,1.0,1.0,0.483801026829,0,0.0,0.0,0.0,0.402446107991,0.0835795263861,0.318866581605,0.486025634377,0.0835795263861,0.393615177231,483,0.606025706087,0.319314454546,-1.0,nan,nan,nan,nan,nan,nan,nan,nan,666.453202903,1078.27406511,nan,1078.75786613,nan,nan,nan,nan
1,347,1,1,1.0,1.0,0.422002082341,0,0.0,0.0,0.0,0.40268191935,0.0835728311348,0.319109088215,0.486254750485,0.0835728311348,0.425141579569,275,0.279002393219,0.326185254474,0.630178474337,nan,nan,nan,nan,nan,nan,nan,nan,666.453202903,1079.21586353,nan,1079.63786561,nan,nan,nan,nan
1,348,1,1,1.0,1.0,0.368206689076,0,0.0,0.0,0.0,0.402737757971,0.0834584184952,0.319279339476,0.486196176466,0.0834584184952,0.424669932749,141,1.0,-0.291952736687,-0.024586852943,nan,nan,nan,nan,nan,nan,nan,nan,666.453202903,1080.15765225,nan,1080.52585894,nan,nan,nan,nan
1,349,1,1,1.0,1.0,0.338413681544,0,0.0,0.0,0.0,0.402638244804,0.0833586292968,0.319279615508,0.485996874101,0.0833586292968,0.37620748432,14,0.95801504718,0.150023555696,-1.0,nan,nan,nan,nan,nan,nan,nan,nan,666.453202903,1081.09943613,nan,1081.43784982,nan,nan,nan,nan
1,350,1,1,1.0,1.0,0.324604683323,0,0.0,0.0,0.0,0.402453691462,0.0833097380818,0.31914395338,0.485763429544,0.0833097380818,0.343741684648,272,0.310166696092,0.316214117232,0.637281430288,nan,nan,nan,nan,nan,nan,nan,nan,666.453202903,1082.04122372,nan,1082.3658284,nan,nan,nan,nan
1,351,1,1,1.0,1.0,0.334784671315,0,0.0,0.0,0.0,0.402230628401,0.0832943040367,0.318936324364,0.485524932438,0.0832943040367,0.332601012061,400,-0.0107874812989,0.471427301814,-0.412692688905,nan,nan,nan,nan,nan,nan,nan,nan,666.453202903,1082.98301387,nan,1083.31779854,nan,nan,nan,nan
1,352,1,1,1.0,1.0,0.416979228903,0,0.0,0.0,0.0,0.402037925667,0.0832530977331,0.318784827934,0.4852910234,0.0832530977331,0.358789527847,49,1.0,-0.027785429985,-1.0,nan,nan,nan,nan,nan,nan,nan,nan,666.453202903,1083.92480089,nan,1084.34178012,nan,nan,nan,nan
1,353,1,1,1.0,1.0,0.419189022097,0,0.0,0.0,0.0,0.402080493482,0.0831382332445,0.318942260238,0.485218726727,0.0831382332445,0.390317640772,301,0.0351599448551,0.39804275895,0.523414514543,nan,nan,nan,nan,nan,nan,nan,nan,666.453202903,1084.86658505,nan,1085.28577407,nan,nan,nan,nan
1,354,1,1,1.0,1.0,0.469368519727,0,0.0,0.0,0.0,0.402129097257,0.0830250488539,0.319104048403,0.485154146111,0.0830250488539,0.435178923576,361,-0.166047812515,0.475607712818,0.0278173107143,nan,nan,nan,nan,nan,nan,nan,nan,666.453202903,1085.8083792,nan,1086.27774772,nan,nan,nan,nan
1,355,1,1,1.0,1.0,0.551571630291,0,0.0,0.0,0.0,0.402319577207,0.0829843530708,0.319335224136,0.485303930278,0.0829843530708,0.480043057372,417,0.0945046041228,0.457053563907,-0.645720198395,nan,nan,nan,nan,nan,nan,nan,nan,666.453202903,1086.75016621,nan,1087.30173784,nan,nan,nan,nan
1,356,1,1,1.0,1.0,0.513761386799,0,0.0,1.0,0.0,0.402741193176,0.0832448138214,0.319496379355,0.485986006998,0.0832448138214,0.511567178939,202,1.0,-0.00802826454356,0.487596984314,nan,nan,nan,nan,nan,nan,nan,nan,666.453202903,1087.69195636,nan,1088.20571775,nan,nan,nan,nan
1,357,1,1,1.0,1.0,0.547948322026,1,0.0,0.0,1.0,0.403053926116,0.0833354703523,0.319718455764,0.486389396468,0.0833354703523,0.537760446372,507,0.805995650865,0.232688349973,-1.0,102.930551467,347.069448533,-9.41492646694,494.0,0.698129958021,0.282143999684,-1.0,3.16736895766,666.453202903,1088.63374566,1089.44215251,1089.18169398,1093.65102145,1094.64929347,1090.46728189,1093.64268975
1,358,1,1,1.0,1.0,0.348725384683,0,0.0,0.0,0.0,0.403460932846,0.0835709285083,0.319890004338,0.487031861354,0.0835709285083,0.47014503117,378,-0.117450136118,0.478670924818,-0.154810124165,nan,nan,nan,nan,nan,nan,nan,nan,666.453202903,1094.79287472,nan,1095.14160011,nan,nan,nan,nan
1,359,1,1,1.0,1.0,0.382908328495,0,0.0,0.0,0.0,0.403307611983,0.0835039243411,0.319803687642,0.486811536324,0.0835039243411,0.426527345068,444,0.289241202529,0.417409780569,-1.0,nan,nan,nan,nan,nan,nan,nan,nan,666.453202903,1095.73465347,nan,1096.1175618,nan,nan,nan,nan
1,360,1,1,1.0,1.0,0.489096148696,0,0.0,0.0,0.0,0.403250630744,0.0833941671858,0.319856463558,0.48664479793,0.0833941671858,0.406909953958,253,0.513865899396,0.244839928328,0.655977188727,nan,nan,nan,nan,nan,nan,nan,nan,666.453202903,1096.67645246,nan,1097.16554861,nan,nan,nan,nan
1,361,0,0,0.0,1.0,0.451327814604,0,0.0,0.0,0.0,0.403489754749,0.0834007527272,0.320089002022,0.486890507477,0.0834007527272,0.441110763932,362,-0.164239727892,0.476000155386,0.0174578511848,nan,nan,nan,nan,nan,nan,nan,nan,666.453202903,1097.61821752,nan,1098.06954534,nan,nan,nan,nan
1,362,1,1,1.0,1.0,0.373499530135,0,0.0,0.0,0.0,0.403622638249,0.0833228866367,0.320299751612,0.486945524886,0.0833228866367,0.437974497812,92,1.0,-0.241703663401,-0.55060883727,nan,nan,nan,nan,nan,nan,nan,nan,666.453202903,1098.56002792,nan,1098.93352745,nan,nan,nan,nan
1,363,1,1,1.0,1.0,0.479694192705,0,0.0,0.0,0.0,0.403539194736,0.0832224620348,0.320316732701,0.486761656771,0.0832224620348,0.434840512481,471,0.506014005179,0.354993781952,-1.0,nan,nan,nan,nan,nan,nan,nan,nan,666.453202903,1099.5018155,nan,1099.9815097,nan,nan,nan,nan
1,364,0,0,0.0,1.0,0.465897738817,0,0.0,0.0,0.0,0.403749567659,0.0832034995864,0.320546068072,0.486953067245,0.0832034995864,0.439697153886,69,1.0,-0.134207199312,-0.939648005704,nan,nan,nan,nan,nan,nan,nan,nan,666.453202903,1100.44360879,nan,1100.90950653,nan,nan,nan,nan
1,365,1,1,1.0,1.0,0.340092622559,0,0.0,0.0,0.0,0.403920774742,0.0831526433899,0.320768131352,0.487073418132,0.0831526433899,0.428561518027,26,1.0,0.0920921692153,-1.0,nan,nan,nan,nan,nan,nan,nan,nan,666.453202903,1101.38539524,nan,1101.72548786,nan,nan,nan,nan
1,366,1,1,1.0,1.0,0.350278312457,0,0.0,0.0,0.0,0.403745422675,0.0831055248012,0.320639897874,0.486850947477,0.0831055248012,0.385422891278,165,1.0,-0.205056383665,0.203745440608,nan,nan,nan,nan,nan,nan,nan,nan,666.453202903,1102.32718482,nan,1102.67746313,nan,nan,nan,nan
1,367,1,1,1.0,1.0,0.368444745778,0,0.0,0.0,0.0,0.403598937442,0.0830386472763,0.320560290166,0.486637584718,0.0830386472763,0.352938560264,511,0.838703193994,0.216284169582,-1.0,nan,nan,nan,nan,nan,nan,nan,nan,666.453202903,1103.26899293,nan,1103.63743768,nan,nan,nan,nan
1,368,1,1,1.0,1.0,0.426659155288,0,0.0,0.0,0.0,0.403502887738,0.0829454298237,0.320557457914,0.486448317562,0.0829454298237,0.381794071174,70,1.0,-0.13936984996,-0.906436913284,nan,nan,nan,nan,nan,nan,nan,nan,666.453202903,1104.2107637,nan,1104.63742285,nan,nan,nan,nan
1,369,0,0,0.0,1.0,0.508836892084,0,0.0,0.0,0.0,0.403565983835,0.0828411430106,0.320724840824,0.486407126845,0.0828411430106,0.43464693105,147,1.0,-0.275801134503,0.0346720467303,nan,nan,nan,nan,nan,nan,nan,nan,666.453202903,1105.15256725,nan,1105.66140414,nan,nan,nan,nan
1,370,1,1,1.0,1.0,0.439052642731,0,0.0,0.0,0.0,0.403852046086,0.0829098224439,0.320942223642,0.486761868529,0.0829098224439,0.458182896701,453,0.359670421306,0.39926174925,-1.0,nan,nan,nan,nan,nan,nan,nan,nan,666.453202903,1106.09433545,nan,1106.53338809,nan,nan,nan,nan
