block,trial,freq_trials,correct_response,actual_response,acc,rts,probe_trials,fast_rt_trigger,slow_rt_trigger,rt_triggered,rts_runningavg,rts_runningstd,rts_runningfastthresh,rts_runningslowthresh,rts_runningstd,rts_trailingavg,trials_colorind0,trials_colorind1,trials_colorind2,trials_colorind3,trials_colorind4,trials_colorind5,wholereport_resp0,wholereport_resp1,wholereport_resp2,wholereport_resp3,wholereport_resp4,wholereport_resp5,wholereport_respacc0,wholereport_respacc1,wholereport_respacc2,wholereport_respacc3,wholereport_respacc4,wholereport_respacc5,wholereport_respacc_total,wholereport_respcolorind0,wholereport_respcolorind1,wholereport_respcolorind2,wholereport_respcolorind3,wholereport_respcolorind4,wholereport_respcolorind5,wholereport_resporder0,wholereport_resporder1,wholereport_resporder2,wholereport_resporder3,wholereport_resporder4,wholereport_resporder5,wholereport_rts0,wholereport_rts1,wholereport_rts2,wholereport_rts3,wholereport_rts4,wholereport_rts5,time_blockstart,time_encarray_offset,time_encarray_onset,time_response,time_iti_offset,time_iti_onset,time_memprobe_offset,time_memprobe_onset
1,1,1,1,nan,nan,nan,0,nan,nan,nan,nan,nan,nan,nan,nan,nan,8,1,3,7,6,0,nan,nan,nan,nan,nan,nan,nan,nan,nan,nan,nan,nan,0.0,nan,nan,nan,nan,nan,nan,nan,nan,nan,nan,nan,nan,nan,nan,nan,nan,nan,nan,1174.5404343989212,1175.5517690654378,nan,nan,nan,nan,nan,nan
1,2,1,1,1.0,1.0,0.40338691463693976,0,nan,nan,nan,nan,nan,nan,nan,nan,nan,7,1,5,4,2,3,nan,nan,nan,nan,nan,nan,nan,nan,nan,nan,nan,nan,0.0,nan,nan,nan,nan,nan,nan,nan,nan,nan,nan,nan,nan,nan,nan,nan,nan,nan,nan,1174.5404343989212,1176.577033081092,nan,1176.9804199957289,nan,nan,nan,nan
1,3,1,1,1.0,1.0,0.3546530094463378,0,nan,nan,nan,nan,nan,nan,nan,nan,nan,0,7,8,2,6,4,nan,nan,nan,nan,nan,nan,nan,nan,nan,nan,nan,nan,0.0,nan,nan,nan,nan,nan,nan,nan,nan,nan,nan,nan,nan,nan,nan,nan,nan,nan,nan,1174.5404343989212,1177.593746703351,nan,1177.9483997127973,nan,nan,nan,nan
1,4,1,1,1.0,1.0,0.3935327655635774,0,nan,nan,nan,nan,nan,nan,nan,nan,nan,5,3,2,7,1,8,nan,nan,nan,nan,nan,nan,nan,nan,nan,nan,nan,nan,0.0,nan,nan,nan,nan,nan,nan,nan,nan,nan,nan,nan,nan,nan,nan,nan,nan,nan,nan,1174.5404343989212,1178.6188499233685,nan,1179.0123826889321,nan,nan,nan,nan
1,5,0,0,1.0,0.0,0.2643904963042587,0,nan,nan,nan,nan,nan,nan,nan,nan,nan,4,6,7,0,3,2,nan,nan,nan,nan,nan,nan,nan,nan,nan,nan,nan,nan,0.0,nan,nan,nan,nan,nan,nan,nan,nan,nan,nan,nan,nan,nan,nan,nan,nan,nan,nan,1174.5404343989212,1179.6439853594638,nan,1179.908375855768,nan,nan,nan,nan
1,6,1,1,1.0,1.0,0.5351777505129576,0,nan,nan,nan,nan,nan,nan,nan,nan,nan,3,0,6,2,8,1,nan,nan,nan,nan,nan,nan,nan,nan,nan,nan,nan,nan,0.0,nan,nan,nan,nan,nan,nan,nan,nan,nan,nan,nan,nan,nan,nan,nan,nan,nan,nan,1174.5404343989212,1180.669182376936,nan,1181.204360127449,nan,nan,nan,nan
1,7,1,1,1.0,1.0,0.4060762501321733,1,nan,nan,nan,nan,nan,nan,nan,nan,nan,0,5,3,6,2,4,1.0,1.0,1.0,1.0,1.0,1.0,1.0,0.0,1.0,0.0,0.0,0.0,2.0,0.0,0.0,3.0,3.0,0.0,3.0,3.0,1.0,2.0,6.0,5.0,4.0,4.777372747659683,1.5210160459391773,2.5935331645887345,7.481321192812175,6.561960771679878,5.673104763962328,1174.5404343989212,1181.6942664952949,1182.5026870544534,1182.100342745427,1191.0371574752498,1192.0437312796712,1183.5195090144407,1191.0288260378875
1,8,1,1,nan,nan,nan,0,nan,nan,nan,nan,nan,nan,nan,nan,nan,3,0,5,8,4,2,nan,nan,nan,nan,nan,nan,nan,nan,nan,nan,nan,nan,0.0,nan,nan,nan,nan,nan,nan,nan,nan,nan,nan,nan,nan,nan,nan,nan,nan,nan,nan,1174.5404343989212,1192.2623517557513,nan,nan,nan,nan,nan,nan
1,9,1,1,1.0,1.0,0.5806923222262412,0,nan,nan,nan,nan,nan,nan,nan,nan,nan,8,4,7,5,2,0,nan,nan,nan,nan,nan,nan,nan,nan,nan,nan,nan,nan,0.0,nan,nan,nan,nan,nan,nan,nan,nan,nan,nan,nan,nan,nan,nan,nan,nan,nan,nan,1174.5404343989212,1193.2874814898241,nan,1193.8681738120504,nan,nan,nan,nan
1,10,1,1,1.0,1.0,0.4034972479566932,0,nan,nan,nan,nan,nan,nan,nan,nan,nan,6,0,2,8,4,5,nan,nan,nan,nan,nan,nan,nan,nan,nan,nan,nan,nan,0.0,nan,nan,nan,nan,nan,nan,nan,nan,nan,nan,nan,nan,nan,nan,nan,nan,nan,nan,1174.5404343989212,1194.31266510766,nan,1194.7161623556167,nan,nan,nan,nan
1,11,1,1,nan,nan,nan,0,nan,nan,nan,nan,nan,nan,nan,nan,nan,1,5,0,2,6,4,nan,nan,nan,nan,nan,nan,nan,nan,nan,nan,nan,nan,0.0,nan,nan,nan,nan,nan,nan,nan,nan,nan,nan,nan,nan,nan,nan,nan,nan,nan,nan,1174.5404343989212,1195.3377580640372,nan,nan,nan,nan,nan,nan
1,12,1,1,1.0,1.0,0.0655627076048404,0,nan,nan,nan,nan,nan,nan,nan,nan,nan,2,3,8,7,1,6,nan,nan,nan,nan,nan,nan,nan,nan,nan,nan,nan,nan,0.0,nan,nan,nan,nan,nan,nan,nan,nan,nan,nan,nan,nan,nan,nan,nan,nan,nan,nan,1174.5404343989212,1196.3545754624065,nan,1196.4201381700113,nan,nan,nan,nan
1,13,1,1,1.0,1.0,0.4327458022162318,0,nan,nan,nan,nan,nan,nan,nan,nan,nan,0,8,7,6,2,5,nan,nan,nan,nan,nan,nan,nan,nan,nan,nan,nan,nan,0.0,nan,nan,nan,nan,nan,nan,nan,nan,nan,nan,nan,nan,nan,nan,nan,nan,nan,nan,1174.5404343989212,1197.37136691669,nan,1197.8041127189063,nan,nan,nan,nan
1,14,1,1,1.0,1.0,0.4156070975586772,0,nan,nan,nan,nan,nan,nan,nan,nan,nan,1,3,2,0,7,8,nan,nan,nan,nan,nan,nan,nan,nan,nan,nan,nan,nan,0.0,nan,nan,nan,nan,nan,nan,nan,nan,nan,nan,nan,nan,nan,nan,nan,nan,nan,nan,1174.5404343989212,1198.3965037784074,nan,1198.812110875966,nan,nan,nan,nan
1,15,1,1,1.0,1.0,0.6224444471299648,0,nan,nan,nan,nan,nan,nan,nan,nan,nan,0,4,8,1,2,6,nan,nan,nan,nan,nan,nan,nan,nan,nan,nan,nan,nan,0.0,nan,nan,nan,nan,nan,nan,nan,nan,nan,nan,nan,nan,nan,nan,nan,nan,nan,nan,1174.5404343989212,1199.4216349378694,nan,1200.0440793849993,nan,nan,nan,nan
1,16,1,1,1.0,1.0,0.5896233220119029,0,nan,nan,nan,nan,nan,nan,nan,nan,nan,8,1,5,2,0,7,nan,nan,nan,nan,nan,nan,nan,nan,nan,nan,nan,nan,0.0,nan,nan,nan,nan,nan,nan,nan,nan,nan,nan,nan,nan,nan,nan,nan,nan,nan,nan,1174.5404343989212,1200.4384477746207,nan,1201.0280710966326,nan,nan,nan,nan
1,17,1,1,1.0,1.0,0.6608110258821398,0,nan,nan,nan,nan,nan,nan,nan,nan,nan,2,6,8,5,4,0,nan,nan,nan,nan,nan,nan,nan,nan,nan,nan,nan,nan,0.0,nan,nan,nan,nan,nan,nan,nan,nan,nan,nan,nan,nan,nan,nan,nan,nan,nan,nan,1174.5404343989212,1201.4552383737173,nan,1202.1160493995994,nan,nan,nan,nan
1,18,1,1,nan,nan,nan,0,nan,nan,nan,nan,nan,nan,nan,nan,nan,4,7,2,1,0,3,nan,nan,nan,nan,nan,nan,nan,nan,nan,nan,nan,nan,0.0,nan,nan,nan,nan,nan,nan,nan,nan,nan,nan,nan,nan,nan,nan,nan,nan,nan,nan,1174.5404343989212,1202.4803815074265,nan,nan,nan,nan,nan,nan
1,19,1,1,nan,nan,nan,0,nan,nan,nan,nan,nan,nan,nan,nan,nan,8,4,0,3,5,6,nan,nan,nan,nan,nan,nan,nan,nan,nan,nan,nan,nan,0.0,nan,nan,nan,nan,nan,nan,nan,nan,nan,nan,nan,nan,nan,nan,nan,nan,nan,nan,1174.5404343989212,1203.5055169435218,nan,nan,nan,nan,nan,nan
1,20,1,1,nan,nan,nan,0,nan,nan,nan,nan,nan,nan,nan,nan,nan,3,0,6,4,2,7,nan,nan,nan,nan,nan,nan,nan,nan,nan,nan,nan,nan,0.0,nan,nan,nan,nan,nan,nan,nan,nan,nan,nan,nan,nan,nan,nan,nan,nan,nan,nan,1174.5404343989212,1204.5306566562504,nan,nan,nan,nan,nan,nan
1,21,1,1,nan,nan,nan,0,nan,nan,nan,nan,nan,nan,nan,nan,nan,1,5,8,2,6,4,nan,nan,nan,nan,nan,nan,nan,nan,nan,nan,nan,nan,0.0,nan,nan,nan,nan,nan,nan,nan,nan,nan,nan,nan,nan,nan,nan,nan,nan,nan,nan,1174.5404343989212,1205.5558146149851,nan,nan,nan,nan,nan,nan
1,22,1,1,nan,nan,nan,0,nan,nan,nan,nan,nan,nan,nan,nan,nan,5,2,3,1,0,7,nan,nan,nan,nan,nan,nan,nan,nan,nan,nan,nan,nan,0.0,nan,nan,nan,nan,nan,nan,nan,nan,nan,nan,nan,nan,nan,nan,nan,nan,nan,nan,1174.5404343989212,1206.5808981631417,nan,nan,nan,nan,nan,nan
1,23,1,1,nan,nan,nan,1,nan,nan,nan,nan,nan,nan,nan,nan,nan,7,8,6,0,1,3,1.0,1.0,1.0,1.0,1.0,1.0,1.0,1.0,0.0,0.0,0.0,0.0,2.0,7.0,8.0,0.0,6.0,6.0,6.0,2.0,1.0,4.0,5.0,6.0,3.0,2.4985505586955696,1.561496060807258,6.161806875374168,7.024786190362647,7.841151308268309,3.4576169517822564,1174.5404343989212,1207.6060649601277,1208.414492361946,nan,1217.315670902608,1218.3136940286495,1209.431293509435,1217.307341460837
1,24,1,1,nan,nan,nan,0,nan,nan,nan,nan,nan,nan,nan,nan,nan,5,1,4,3,7,0,nan,nan,nan,nan,nan,nan,nan,nan,nan,nan,nan,nan,0.0,nan,nan,nan,nan,nan,nan,nan,nan,nan,nan,nan,nan,nan,nan,nan,nan,nan,nan,1174.5404343989212,1218.5325388773344,nan,nan,nan,nan,nan,nan
1,25,1,1,1.0,1.0,0.5580617624800652,0,nan,nan,nan,nan,nan,nan,nan,nan,nan,6,3,0,4,8,5,nan,nan,nan,nan,nan,nan,nan,nan,nan,nan,nan,nan,0.0,nan,nan,nan,nan,nan,nan,nan,nan,nan,nan,nan,nan,nan,nan,nan,nan,nan,nan,1174.5404343989212,1219.5576657606289,nan,1220.115727523109,nan,nan,nan,nan
1,26,1,1,1.0,1.0,0.6289626571815461,0,nan,nan,nan,nan,nan,nan,nan,nan,nan,3,4,1,0,2,6,nan,nan,nan,nan,nan,nan,nan,nan,nan,nan,nan,nan,0.0,nan,nan,nan,nan,nan,nan,nan,nan,nan,nan,nan,nan,nan,nan,nan,nan,nan,nan,1174.5404343989212,1220.5827989159152,nan,1221.2117615730967,nan,nan,nan,nan
1,27,1,1,1.0,1.0,0.6278219774831086,0,nan,nan,nan,nan,nan,nan,nan,nan,nan,4,5,0,6,1,7,nan,nan,nan,nan,nan,nan,nan,nan,nan,nan,nan,nan,0.0,nan,nan,nan,nan,nan,nan,nan,nan,nan,nan,nan,nan,nan,nan,nan,nan,nan,nan,1174.5404343989212,1221.6079326414037,nan,1222.2357546188869,nan,nan,nan,nan
1,28,1,1,1.0,1.0,0.4666520126629621,0,nan,nan,nan,nan,nan,nan,nan,nan,nan,6,1,4,2,8,3,nan,nan,nan,nan,nan,nan,nan,nan,nan,nan,nan,nan,0.0,nan,nan,nan,nan,nan,nan,nan,nan,nan,nan,nan,nan,nan,nan,nan,nan,nan,nan,1174.5404343989212,1222.6330829025246,nan,1223.0997349151876,nan,nan,nan,nan
1,29,1,1,1.0,1.0,0.6894836807623506,0,nan,nan,nan,nan,nan,nan,nan,nan,nan,3,4,7,0,2,5,nan,nan,nan,nan,nan,nan,nan,nan,nan,nan,nan,nan,0.0,nan,nan,nan,nan,nan,nan,nan,nan,nan,nan,nan,nan,nan,nan,nan,nan,nan,nan,1174.5404343989212,1223.6582189088222,nan,1224.3477025895845,nan,nan,nan,nan
1,30,1,1,1.0,1.0,0.7126684717368335,0,nan,nan,nan,nan,nan,nan,nan,nan,nan,5,3,2,1,6,0,nan,nan,nan,nan,nan,nan,nan,nan,nan,nan,nan,nan,0.0,nan,nan,nan,nan,nan,nan,nan,nan,nan,nan,nan,nan,nan,nan,nan,nan,nan,nan,1174.5404343989212,1224.6750209119637,nan,1225.3876893837005,nan,nan,nan,nan
1,31,1,1,nan,nan,nan,0,nan,nan,nan,nan,nan,nan,nan,nan,nan,2,7,1,3,5,8,nan,nan,nan,nan,nan,nan,nan,nan,nan,nan,nan,nan,0.0,nan,nan,nan,nan,nan,nan,nan,nan,nan,nan,nan,nan,nan,nan,nan,nan,nan,nan,1174.5404343989212,1225.7001512162387,nan,nan,nan,nan,nan,nan
1,32,1,1,nan,nan,nan,0,nan,nan,nan,nan,nan,nan,nan,nan,nan,1,3,4,6,2,7,nan,nan,nan,nan,nan,nan,nan,nan,nan,nan,nan,nan,0.0,nan,nan,nan,nan,nan,nan,nan,nan,nan,nan,nan,nan,nan,nan,nan,nan,nan,nan,1174.5404343989212,1226.7252578574698,nan,nan,nan,nan,nan,nan
1,33,0,0,nan,nan,nan,0,nan,nan,nan,nan,nan,nan,nan,nan,nan,4,7,6,8,1,5,nan,nan,nan,nan,nan,nan,nan,nan,nan,nan,nan,nan,0.0,nan,nan,nan,nan,nan,nan,nan,nan,nan,nan,nan,nan,nan,nan,nan,nan,nan,nan,1174.5404343989212,1227.7504146758001,nan,nan,nan,nan,nan,nan
1,34,1,1,0.0,0.0,0.3080864236690104,0,nan,nan,nan,nan,nan,nan,nan,nan,nan,8,3,1,6,7,0,nan,nan,nan,nan,nan,nan,nan,nan,nan,nan,nan,nan,0.0,nan,nan,nan,nan,nan,nan,nan,nan,nan,nan,nan,nan,nan,nan,nan,nan,nan,nan,1174.5404343989212,1228.7755652221385,nan,1229.0836516458075,nan,nan,nan,nan
1,35,0,0,0.0,1.0,0.6286211090628058,0,nan,nan,nan,nan,nan,nan,nan,nan,nan,0,2,7,8,4,3,nan,nan,nan,nan,nan,nan,nan,nan,nan,nan,nan,nan,0.0,nan,nan,nan,nan,nan,nan,nan,nan,nan,nan,nan,nan,nan,nan,nan,nan,nan,nan,1174.5404343989212,1229.8070030487143,nan,1230.435624157777,nan,nan,nan,nan
1,36,1,1,1.0,1.0,0.5457708754111081,0,nan,nan,nan,nan,nan,nan,nan,nan,nan,4,1,6,3,7,8,nan,nan,nan,nan,nan,nan,nan,nan,nan,nan,nan,nan,0.0,nan,nan,nan,nan,nan,nan,nan,nan,nan,nan,nan,nan,nan,nan,nan,nan,nan,nan,1174.5404343989212,1230.825849779183,nan,1231.3716206545942,nan,nan,nan,nan
1,37,1,1,1.0,1.0,0.6886164105962962,0,nan,nan,nan,nan,nan,nan,nan,nan,nan,8,7,3,2,6,0,nan,nan,nan,nan,nan,nan,nan,nan,nan,nan,nan,nan,0.0,nan,nan,nan,nan,nan,nan,nan,nan,nan,nan,nan,nan,nan,nan,nan,nan,nan,nan,1174.5404343989212,1231.850971815642,nan,1232.5395882262383,nan,nan,nan,nan
1,38,1,1,1.0,1.0,0.4554596103262156,1,nan,nan,nan,nan,nan,nan,nan,nan,nan,3,6,0,1,5,8,1.0,1.0,1.0,1.0,1.0,1.0,0.0,1.0,0.0,0.0,0.0,0.0,1.0,6.0,6.0,4.0,6.0,0.0,0.0,2.0,1.0,4.0,5.0,6.0,3.0,2.7467326272744685,1.4596123571973294,9.826440218603238,10.81809024978429,12.186311673372984,8.386205445509404,1174.5404343989212,1232.8761160897557,1233.6845315173268,1233.3315757000819,1246.9363024074119,1247.9377259048633,1234.7096794976387,1246.9279912121128
1,39,1,1,1.0,1.0,0.5618433109484613,0,nan,nan,nan,nan,nan,nan,nan,nan,nan,1,2,5,7,8,3,nan,nan,nan,nan,nan,nan,nan,nan,nan,nan,nan,nan,0.0,nan,nan,nan,nan,nan,nan,nan,nan,nan,nan,nan,nan,nan,nan,nan,nan,nan,nan,1174.5404343989212,1248.1614861392882,nan,1248.7233294502366,nan,nan,nan,nan
1,40,1,1,1.0,1.0,0.31301235780119896,0,nan,nan,nan,nan,nan,nan,nan,nan,nan,0,6,4,8,3,7,nan,nan,nan,nan,nan,nan,nan,nan,nan,nan,nan,nan,0.0,nan,nan,nan,nan,nan,nan,nan,nan,nan,nan,nan,nan,nan,nan,nan,nan,nan,nan,1174.5404343989212,1249.1783072438557,nan,1249.4913196016569,nan,nan,nan,nan
1,41,1,1,1.0,1.0,0.6078801832627505,0,nan,nan,nan,nan,nan,nan,nan,nan,nan,7,5,2,0,6,8,nan,nan,nan,nan,nan,nan,nan,nan,nan,nan,nan,nan,0.0,nan,nan,nan,nan,nan,nan,nan,nan,nan,nan,nan,nan,nan,nan,nan,nan,nan,nan,1174.5404343989212,1250.2034332717303,nan,1250.811313454993,nan,nan,nan,nan
1,42,1,1,1.0,1.0,0.6150341634638608,0,nan,nan,nan,nan,nan,nan,nan,nan,nan,1,2,8,4,0,6,nan,nan,nan,nan,nan,nan,nan,nan,nan,nan,nan,nan,0.0,nan,nan,nan,nan,nan,nan,nan,nan,nan,nan,nan,nan,nan,nan,nan,nan,nan,nan,1174.5404343989212,1251.2202700567432,nan,1251.835304220207,nan,nan,nan,nan
1,43,1,1,1.0,1.0,0.6299060485325754,0,nan,nan,nan,nan,nan,nan,nan,nan,nan,3,6,5,0,1,2,nan,nan,nan,nan,nan,nan,nan,nan,nan,nan,nan,nan,0.0,nan,nan,nan,nan,nan,nan,nan,nan,nan,nan,nan,nan,nan,nan,nan,nan,nan,nan,1174.5404343989212,1252.245369285345,nan,1252.8752753338777,nan,nan,nan,nan
1,44,1,1,1.0,1.0,0.47676674206741154,0,nan,nan,nan,nan,nan,nan,nan,nan,nan,1,3,2,7,6,8,nan,nan,nan,nan,nan,nan,nan,nan,nan,nan,nan,nan,0.0,nan,nan,nan,nan,nan,nan,nan,nan,nan,nan,nan,nan,nan,nan,nan,nan,nan,nan,1174.5404343989212,1253.2705152700655,nan,1253.747282012133,nan,nan,nan,nan
1,45,1,1,1.0,1.0,0.5799516360275447,0,nan,nan,nan,nan,nan,nan,nan,nan,nan,0,8,7,2,1,6,nan,nan,nan,nan,nan,nan,nan,nan,nan,nan,nan,nan,0.0,nan,nan,nan,nan,nan,nan,nan,nan,nan,nan,nan,nan,nan,nan,nan,nan,nan,nan,1174.5404343989212,1254.2873184133787,nan,1254.8672700494062,nan,nan,nan,nan
1,46,1,1,1.0,1.0,0.4111147983931005,0,nan,nan,nan,nan,nan,nan,nan,nan,nan,6,3,4,1,5,2,nan,nan,nan,nan,nan,nan,nan,nan,nan,nan,nan,nan,0.0,nan,nan,nan,nan,nan,nan,nan,nan,nan,nan,nan,nan,nan,nan,nan,nan,nan,nan,1174.5404343989212,1255.3041341011412,nan,1255.7152488995343,nan,nan,nan,nan
1,47,0,0,0.0,1.0,0.7542940131388605,0,nan,nan,nan,nan,nan,nan,nan,nan,nan,0,4,7,8,6,5,nan,nan,nan,nan,nan,nan,nan,nan,nan,nan,nan,nan,0.0,nan,nan,nan,nan,nan,nan,nan,nan,nan,nan,nan,nan,nan,nan,nan,nan,nan,nan,1174.5404343989212,1256.3209312574472,nan,1257.075225270586,nan,nan,nan,nan
1,48,1,1,1.0,1.0,0.4971530050970614,0,nan,nan,nan,nan,nan,nan,nan,nan,nan,6,1,5,4,0,3,nan,nan,nan,nan,nan,nan,nan,nan,nan,nan,nan,nan,0.0,nan,nan,nan,nan,nan,nan,nan,nan,nan,nan,nan,nan,nan,nan,nan,nan,nan,nan,1174.5404343989212,1257.346051868517,nan,1257.843204873614,nan,nan,nan,nan
1,49,1,1,1.0,1.0,0.42404886800795794,0,nan,nan,nan,nan,nan,nan,nan,nan,nan,7,5,8,6,3,1,nan,nan,nan,nan,nan,nan,nan,nan,nan,nan,nan,nan,0.0,nan,nan,nan,nan,nan,nan,nan,nan,nan,nan,nan,nan,nan,nan,nan,nan,nan,nan,1174.5404343989212,1258.3711673477665,nan,1258.7952162157744,nan,nan,nan,nan
1,50,1,1,1.0,1.0,0.3720195076894015,0,nan,nan,nan,nan,nan,nan,nan,nan,nan,5,7,3,0,2,6,nan,nan,nan,nan,nan,nan,nan,nan,nan,nan,nan,nan,0.0,nan,nan,nan,nan,nan,nan,nan,nan,nan,nan,nan,nan,nan,nan,nan,nan,nan,nan,1174.5404343989212,1259.3991771482397,nan,1259.771196655929,nan,nan,nan,nan
1,51,1,1,0.0,0.0,0.49370559211820364,0,nan,nan,nan,nan,nan,nan,nan,nan,nan,7,0,8,1,3,2,nan,nan,nan,nan,nan,nan,nan,nan,nan,nan,nan,nan,0.0,nan,nan,nan,nan,nan,nan,nan,nan,nan,nan,nan,nan,nan,nan,nan,nan,nan,nan,1174.5404343989212,1260.42147015105,nan,1260.9151757431682,nan,nan,nan,nan
1,52,1,1,1.0,1.0,0.5325773658696562,0,nan,nan,nan,nan,nan,nan,nan,nan,nan,2,6,3,5,8,1,nan,nan,nan,nan,nan,nan,nan,nan,nan,nan,nan,nan,0.0,nan,nan,nan,nan,nan,nan,nan,nan,nan,nan,nan,nan,nan,nan,nan,nan,nan,nan,1174.5404343989212,1261.4465728006326,nan,1261.9791501665022,nan,nan,nan,nan
1,53,0,0,nan,nan,nan,0,nan,nan,nan,nan,nan,nan,nan,nan,nan,8,4,7,1,6,3,nan,nan,nan,nan,nan,nan,nan,nan,nan,nan,nan,nan,0.0,nan,nan,nan,nan,nan,nan,nan,nan,nan,nan,nan,nan,nan,nan,nan,nan,nan,nan,1174.5404343989212,1262.4717458698433,nan,nan,nan,nan,nan,nan
1,54,1,1,1.0,1.0,0.4502309013623744,0,nan,nan,nan,nan,nan,nan,nan,nan,nan,0,6,3,5,8,7,nan,nan,nan,nan,nan,nan,nan,nan,nan,nan,nan,nan,0.0,nan,nan,nan,nan,nan,nan,nan,nan,nan,nan,nan,nan,nan,nan,nan,nan,nan,nan,1174.5404343989212,1263.4968807357363,nan,1263.9471116370987,nan,nan,nan,nan
1,55,1,1,1.0,1.0,0.7690909174270928,0,nan,nan,nan,nan,nan,nan,nan,nan,nan,7,0,1,3,5,6,nan,nan,nan,nan,nan,nan,nan,nan,nan,nan,nan,nan,0.0,nan,nan,nan,nan,nan,nan,nan,nan,nan,nan,nan,nan,nan,nan,nan,nan,nan,nan,1174.5404343989212,1264.5220173122361,nan,1265.2911082296632,nan,nan,nan,nan
1,56,1,1,nan,nan,nan,0,nan,nan,nan,nan,nan,nan,nan,nan,nan,1,6,3,0,4,8,nan,nan,nan,nan,nan,nan,nan,nan,nan,nan,nan,nan,0.0,nan,nan,nan,nan,nan,nan,nan,nan,nan,nan,nan,nan,nan,nan,nan,nan,nan,nan,1174.5404343989212,1265.547147046309,nan,nan,nan,nan,nan,nan
1,57,0,0,0.0,1.0,0.5427941605448723,0,nan,nan,nan,nan,nan,nan,nan,nan,nan,6,1,7,3,8,2,nan,nan,nan,nan,nan,nan,nan,nan,nan,nan,nan,nan,0.0,nan,nan,nan,nan,nan,nan,nan,nan,nan,nan,nan,nan,nan,nan,nan,nan,nan,nan,1174.5404343989212,1266.57228647382,nan,1267.1150806343649,nan,nan,nan,nan
1,58,1,1,1.0,1.0,0.5976391551084816,0,nan,nan,nan,nan,nan,nan,nan,nan,nan,3,8,0,5,1,6,nan,nan,nan,nan,nan,nan,nan,nan,nan,nan,nan,nan,0.0,nan,nan,nan,nan,nan,nan,nan,nan,nan,nan,nan,nan,nan,nan,nan,nan,nan,nan,1174.5404343989212,1267.5974164931104,nan,1268.1950556482188,nan,nan,nan,nan
1,59,1,1,1.0,1.0,0.6607922094408423,0,nan,nan,nan,nan,nan,nan,nan,nan,nan,6,2,7,4,5,3,nan,nan,nan,nan,nan,nan,nan,nan,nan,nan,nan,nan,0.0,nan,nan,nan,nan,nan,nan,nan,nan,nan,nan,nan,nan,nan,nan,nan,nan,nan,nan,1174.5404343989212,1268.6142598353326,nan,1269.2750520447735,nan,nan,nan,nan
1,60,1,1,nan,nan,nan,0,nan,nan,nan,nan,nan,nan,nan,nan,nan,0,5,6,1,2,7,nan,nan,nan,nan,nan,nan,nan,nan,nan,nan,nan,nan,0.0,nan,nan,nan,nan,nan,nan,nan,nan,nan,nan,nan,nan,nan,nan,nan,nan,nan,nan,1174.5404343989212,1269.6393639105372,nan,nan,nan,nan,nan,nan
1,61,1,1,1.0,1.0,0.7705295251216739,0,nan,nan,nan,nan,nan,nan,nan,nan,nan,6,1,4,5,7,0,nan,nan,nan,nan,nan,nan,nan,nan,nan,nan,nan,nan,0.0,nan,nan,nan,nan,nan,nan,nan,nan,nan,nan,nan,nan,nan,nan,nan,nan,nan,nan,1174.5404343989212,1270.664490508614,nan,1271.4350200337358,nan,nan,nan,nan
1,62,1,1,1.0,1.0,0.7773493696004152,0,nan,nan,nan,nan,nan,nan,nan,nan,nan,8,2,5,7,3,4,nan,nan,nan,nan,nan,nan,nan,nan,nan,nan,nan,nan,0.0,nan,nan,nan,nan,nan,nan,nan,nan,nan,nan,nan,nan,nan,nan,nan,nan,nan,nan,1174.5404343989212,1271.68965217378,nan,1272.4670015433803,nan,nan,nan,nan
1,63,0,0,1.0,0.0,0.7601875721011311,0,nan,nan,nan,nan,nan,nan,nan,nan,nan,2,4,6,1,0,5,nan,nan,nan,nan,nan,nan,nan,nan,nan,nan,nan,nan,0.0,nan,nan,nan,nan,nan,nan,nan,nan,nan,nan,nan,nan,nan,nan,nan,nan,nan,nan,1174.5404343989212,1272.7147981587332,nan,1273.4749857308343,nan,nan,nan,nan
1,64,1,1,1.0,1.0,0.6550560249015689,0,nan,nan,nan,nan,nan,nan,nan,nan,nan,8,5,0,4,7,3,nan,nan,nan,nan,nan,nan,nan,nan,nan,nan,nan,nan,0.0,nan,nan,nan,nan,nan,nan,nan,nan,nan,nan,nan,nan,nan,nan,nan,nan,nan,nan,1174.5404343989212,1273.7399147781543,nan,1274.394970803056,nan,nan,nan,nan
1,65,1,1,1.0,1.0,0.5819037060718983,0,nan,nan,nan,nan,nan,nan,nan,nan,nan,6,7,4,2,8,0,nan,nan,nan,nan,nan,nan,nan,nan,nan,nan,nan,nan,0.0,nan,nan,nan,nan,nan,nan,nan,nan,nan,nan,nan,nan,nan,nan,nan,nan,nan,nan,1174.5404343989212,1274.7650584822986,nan,1275.3469621883705,nan,nan,nan,nan
1,66,1,1,1.0,1.0,0.6690837328787893,0,nan,nan,nan,nan,nan,nan,nan,nan,nan,5,2,1,8,7,3,nan,nan,nan,nan,nan,nan,nan,nan,nan,nan,nan,nan,0.0,nan,nan,nan,nan,nan,nan,nan,nan,nan,nan,nan,nan,nan,nan,nan,nan,nan,nan,1174.5404343989212,1275.781860770192,nan,1276.4509445030708,nan,nan,nan,nan
1,67,1,1,1.0,1.0,0.483928419649601,0,nan,nan,nan,nan,nan,nan,nan,nan,nan,4,7,3,6,2,8,nan,nan,nan,nan,nan,nan,nan,nan,nan,nan,nan,nan,0.0,nan,nan,nan,nan,nan,nan,nan,nan,nan,nan,nan,nan,nan,nan,nan,nan,nan,nan,1174.5404343989212,1276.8069922151044,nan,1277.290920634754,nan,nan,nan,nan
1,68,1,1,1.0,1.0,0.5468080642167479,0,nan,nan,nan,nan,nan,nan,nan,nan,nan,5,1,0,4,8,3,nan,nan,nan,nan,nan,nan,nan,nan,nan,nan,nan,nan,0.0,nan,nan,nan,nan,nan,nan,nan,nan,nan,nan,nan,nan,nan,nan,nan,nan,nan,nan,1174.5404343989212,1277.8320960050914,nan,1278.3789040693082,nan,nan,nan,nan
1,69,1,1,1.0,1.0,0.6176054677926004,0,nan,nan,nan,nan,nan,nan,nan,nan,nan,7,6,8,2,0,4,nan,nan,nan,nan,nan,nan,nan,nan,nan,nan,nan,nan,0.0,nan,nan,nan,nan,nan,nan,nan,nan,nan,nan,nan,nan,nan,nan,nan,nan,nan,nan,1174.5404343989212,1278.857295018388,nan,1279.4749004861806,nan,nan,nan,nan
1,70,1,1,1.0,1.0,0.6247933749109507,0,nan,nan,nan,nan,nan,nan,nan,nan,nan,2,5,1,8,4,0,nan,nan,nan,nan,nan,nan,nan,nan,nan,nan,nan,nan,0.0,nan,nan,nan,nan,nan,nan,nan,nan,nan,nan,nan,nan,nan,nan,nan,nan,nan,nan,1174.5404343989212,1279.874081625836,nan,1280.498875000747,nan,nan,nan,nan
1,71,1,1,1.0,1.0,0.6316688135266304,0,nan,nan,nan,nan,nan,nan,nan,nan,nan,8,1,4,5,6,3,nan,nan,nan,nan,nan,nan,nan,nan,nan,nan,nan,nan,0.0,nan,nan,nan,nan,nan,nan,nan,nan,nan,nan,nan,nan,nan,nan,nan,nan,nan,nan,1174.5404343989212,1280.8991999560967,nan,1281.5308687696233,nan,nan,nan,nan
1,72,0,0,0.0,1.0,0.6625122094992548,0,nan,nan,nan,nan,nan,nan,nan,nan,nan,6,5,7,3,0,4,nan,nan,nan,nan,nan,nan,nan,nan,nan,nan,nan,nan,0.0,nan,nan,nan,nan,nan,nan,nan,nan,nan,nan,nan,nan,nan,nan,nan,nan,nan,nan,1174.5404343989212,1281.9243425196037,nan,1282.586854729103,nan,nan,nan,nan
1,73,1,1,1.0,1.0,0.413379336707294,0,nan,nan,nan,nan,nan,nan,nan,nan,nan,4,8,3,1,5,0,nan,nan,nan,nan,nan,nan,nan,nan,nan,nan,nan,nan,0.0,nan,nan,nan,nan,nan,nan,nan,nan,nan,nan,nan,nan,nan,nan,nan,nan,nan,nan,1174.5404343989212,1282.9494711135048,nan,1283.3628504502121,nan,nan,nan,nan
1,74,1,1,1.0,1.0,0.43622143962420523,0,nan,nan,nan,nan,nan,nan,nan,nan,nan,0,1,5,2,7,4,nan,nan,nan,nan,nan,nan,nan,nan,nan,nan,nan,nan,0.0,nan,nan,nan,nan,nan,nan,nan,nan,nan,nan,nan,nan,nan,nan,nan,nan,nan,nan,1174.5404343989212,1283.9746145321988,nan,1284.410835971823,nan,nan,nan,nan
1,75,1,1,1.0,1.0,0.5870272137690336,1,nan,nan,nan,nan,nan,nan,nan,nan,nan,8,7,4,6,5,1,1.0,1.0,1.0,1.0,1.0,1.0,0.0,1.0,1.0,1.0,0.0,0.0,3.0,3.0,7.0,4.0,6.0,6.0,0.0,3.0,2.0,1.0,6.0,5.0,4.0,3.20617677597329,2.262607489246875,1.1365705141797662,7.6617951861117035,6.734106178628281,4.222387484274805,1174.5404343989212,1284.9997553853318,1285.8081765146926,1285.5867825991008,1294.5259955786169,1295.5326301089954,1286.8249802284408,1294.5176715536509
1,76,1,1,1.0,1.0,0.25147410249337554,0,nan,nan,nan,nan,nan,nan,nan,nan,nan,7,5,8,2,0,4,nan,nan,nan,nan,nan,nan,nan,nan,nan,nan,nan,nan,0.0,nan,nan,nan,nan,nan,nan,nan,nan,nan,nan,nan,nan,nan,nan,nan,nan,nan,nan,1174.5404343989212,1295.7511867228895,nan,1296.002660825383,nan,nan,nan,nan
1,77,0,0,0.0,1.0,0.6662894811015576,0,nan,nan,nan,nan,nan,nan,nan,nan,nan,5,3,4,0,8,6,nan,nan,nan,nan,nan,nan,nan,nan,nan,nan,nan,nan,0.0,nan,nan,nan,nan,nan,nan,nan,nan,nan,nan,nan,nan,nan,nan,nan,nan,nan,nan,1174.5404343989212,1296.776345537277,nan,1297.4426350183785,nan,nan,nan,nan
1,78,1,1,1.0,1.0,0.697106362786144,0,nan,nan,nan,nan,nan,nan,nan,nan,nan,3,2,7,4,5,8,nan,nan,nan,nan,nan,nan,nan,nan,nan,nan,nan,nan,0.0,nan,nan,nan,nan,nan,nan,nan,nan,nan,nan,nan,nan,nan,nan,nan,nan,nan,nan,1174.5404343989212,1297.8015097682364,nan,1298.4986161310226,nan,nan,nan,nan
1,79,1,1,nan,nan,nan,0,nan,nan,nan,nan,nan,nan,nan,nan,nan,6,7,4,1,8,0,nan,nan,nan,nan,nan,nan,nan,nan,nan,nan,nan,nan,0.0,nan,nan,nan,nan,nan,nan,nan,nan,nan,nan,nan,nan,nan,nan,nan,nan,nan,nan,1174.5404343989212,1298.8182396413758,nan,nan,nan,nan,nan,nan
1,80,1,1,1.0,1.0,0.4471757842693478,0,nan,nan,nan,nan,nan,nan,nan,nan,nan,8,4,1,3,2,7,nan,nan,nan,nan,nan,nan,nan,nan,nan,nan,nan,nan,0.0,nan,nan,nan,nan,nan,nan,nan,nan,nan,nan,nan,nan,nan,nan,nan,nan,nan,nan,1174.5404343989212,1299.8433750774711,nan,1300.2905508617405,nan,nan,nan,nan
1,81,1,1,1.0,1.0,0.6700314008630812,0,0.0,0.0,0.0,0.5398152553631613,0.14268100053186397,0.3971342548312974,0.6824962558950253,0.14268100053186397,0.5586035925662145,7,0,4,2,3,6,nan,nan,nan,nan,nan,nan,nan,nan,nan,nan,nan,nan,0.0,nan,nan,nan,nan,nan,nan,nan,nan,nan,nan,nan,nan,nan,nan,nan,nan,nan,nan,1174.5404343989212,1300.868542729644,nan,1301.5385741305072,nan,nan,nan,nan
1,82,1,1,1.0,1.0,0.693209349643439,0,0.0,0.0,0.0,0.5418498826365976,0.14248009629267783,0.3993697863439198,0.6843299789292754,0.14248009629267783,0.6034721782586226,5,1,0,7,6,8,nan,nan,nan,nan,nan,nan,nan,nan,nan,nan,nan,nan,0.0,nan,nan,nan,nan,nan,nan,nan,nan,nan,nan,nan,nan,nan,nan,nan,nan,nan,nan,1174.5404343989212,1301.8853587023914,nan,1302.5785680520348,nan,nan,nan,nan
1,83,1,1,1.0,1.0,0.5640542509499937,0,0.0,0.0,0.0,0.5441784898213182,0.14260187792715212,0.4015766118941661,0.6867803677484703,0.14260187792715212,0.6424316671521714,2,6,8,0,3,4,nan,nan,nan,nan,nan,nan,nan,nan,nan,nan,nan,nan,0.0,nan,nan,nan,nan,nan,nan,nan,nan,nan,nan,nan,nan,nan,nan,nan,nan,nan,nan,1174.5404343989212,1302.9104858706705,nan,1303.4745401216205,nan,nan,nan,nan
1,84,1,1,1.0,1.0,0.5789409612771124,0,0.0,0.0,0.0,0.5444796377172073,0.14153826303413808,0.40294137468306923,0.6860179007513454,0.14153826303413808,0.6120681872901818,1,8,3,7,2,0,nan,nan,nan,nan,nan,nan,nan,nan,nan,nan,nan,nan,0.0,nan,nan,nan,nan,nan,nan,nan,nan,nan,nan,nan,nan,nan,nan,nan,nan,nan,nan,1174.5404343989212,1303.9355902310926,nan,1304.5145311923698,nan,nan,nan,nan
1,85,1,1,1.0,1.0,0.6177568554412574,0,0.0,0.0,0.0,0.5449939858300417,0.14054016960606164,0.40445381622398,0.6855341554361033,0.14054016960606164,0.5869173558894545,6,3,1,5,0,7,nan,nan,nan,nan,nan,nan,nan,nan,nan,nan,nan,nan,0.0,nan,nan,nan,nan,nan,nan,nan,nan,nan,nan,nan,nan,nan,nan,nan,nan,nan,nan,1174.5404343989212,1304.9607578832656,nan,1305.5785147387069,nan,nan,nan,nan
1,86,1,1,1.0,1.0,0.6329400683753192,0,0.0,0.0,0.0,0.5460640280302066,0.13977764417403366,0.40628638385617294,0.6858416722042402,0.13977764417403366,0.6098792950312296,5,4,0,8,7,1,nan,nan,nan,nan,nan,nan,nan,nan,nan,nan,nan,nan,0.0,nan,nan,nan,nan,nan,nan,nan,nan,nan,nan,nan,nan,nan,nan,nan,nan,nan,nan,1174.5404343989212,1305.9775573203806,nan,1306.610497388756,nan,nan,nan,nan
1,87,1,1,1.0,1.0,0.6317737298086286,0,0.0,0.0,0.0,0.5473231010786865,0.13914895419221932,0.40817414688646725,0.6864720552709058,0.13914895419221932,0.6274902178750684,7,8,3,5,0,2,nan,nan,nan,nan,nan,nan,nan,nan,nan,nan,nan,nan,0.0,nan,nan,nan,nan,nan,nan,nan,nan,nan,nan,nan,nan,nan,nan,nan,nan,nan,nan,1174.5404343989212,1307.0027181303594,nan,1307.634491860168,nan,nan,nan,nan
1,88,1,1,1.0,1.0,0.6386659892741591,0,0.0,0.0,0.0,0.5485295386319714,0.13851445486845562,0.4100150837635158,0.687043993500427,0.13851445486845562,0.6344599291527023,5,6,7,4,8,1,nan,nan,nan,nan,nan,nan,nan,nan,nan,nan,nan,nan,0.0,nan,nan,nan,nan,nan,nan,nan,nan,nan,nan,nan,nan,nan,nan,nan,nan,nan,nan,1174.5404343989212,1308.0278065251186,nan,1308.6664725143928,nan,nan,nan,nan
1,89,1,1,1.0,1.0,0.5094818104989827,0,0.0,0.0,0.0,0.549799066105805,0.13794507702517927,0.4118539890806257,0.6877441431309843,0.13794507702517927,0.5933071765272567,1,3,8,6,7,4,nan,nan,nan,nan,nan,nan,nan,nan,nan,nan,nan,nan,0.0,nan,nan,nan,nan,nan,nan,nan,nan,nan,nan,nan,nan,nan,nan,nan,nan,nan,nan,1174.5404343989212,1309.0529664796777,nan,1309.5624482901767,nan,nan,nan,nan
1,90,1,1,1.0,1.0,0.47664586012251675,0,0.0,0.0,0.0,0.549239104222377,0.13706501136588378,0.4121740928564932,0.6863041155882608,0.13706501136588378,0.5415978866318861,8,7,0,2,6,1,nan,nan,nan,nan,nan,nan,nan,nan,nan,nan,nan,nan,0.0,nan,nan,nan,nan,nan,nan,nan,nan,nan,nan,nan,nan,nan,nan,nan,nan,nan,nan,1174.5404343989212,1310.0697912906762,nan,1310.5464371507987,nan,nan,nan,nan
1,91,1,1,1.0,1.0,0.5235172163229436,0,0.0,0.0,0.0,0.548244676221009,0.13638424962627177,0.41186042659473726,0.6846289258472809,0.13638424962627177,0.5032149623148143,6,1,4,0,8,5,nan,nan,nan,nan,nan,nan,nan,nan,nan,nan,nan,nan,0.0,nan,nan,nan,nan,nan,nan,nan,nan,nan,nan,nan,nan,nan,nan,nan,nan,nan,nan,1174.5404343989212,1311.0949073398951,nan,1311.618424556218,nan,nan,nan,nan
1,92,1,1,1.0,1.0,0.47469350486062467,0,0.0,0.0,0.0,0.5479105213575216,0.1354896836273678,0.4124208377301538,0.6834002049848894,0.1354896836273678,0.4916188604353617,2,7,3,1,5,8,nan,nan,nan,nan,nan,nan,nan,nan,nan,nan,nan,nan,0.0,nan,nan,nan,nan,nan,nan,nan,nan,nan,nan,nan,nan,nan,nan,nan,nan,nan,nan,1174.5404343989212,1312.111721317051,nan,1312.5864148219116,nan,nan,nan,nan
1,93,0,0,0.0,1.0,0.48954115668311715,0,0.0,0.0,0.0,0.5469342944708964,0.13484513974301612,0.4120891547278802,0.6817794342139125,0.13484513974301612,0.49591729262222844,1,0,4,7,3,6,nan,nan,nan,nan,nan,nan,nan,nan,nan,nan,nan,nan,0.0,nan,nan,nan,nan,nan,nan,nan,nan,nan,nan,nan,nan,nan,nan,nan,nan,nan,nan,1174.5404343989212,1313.1368519065436,nan,1313.6263930632267,nan,nan,nan,nan
1,94,1,1,1.0,1.0,0.4883973409887403,0,0.0,0.0,0.0,0.5461791216052676,0.13411461658185825,0.41206450502340936,0.6802937381871259,0.13411461658185825,0.48421066751082736,0,7,2,3,6,8,nan,nan,nan,nan,nan,nan,nan,nan,nan,nan,nan,nan,0.0,nan,nan,nan,nan,nan,nan,nan,nan,nan,nan,nan,nan,nan,nan,nan,nan,nan,nan,1174.5404343989212,1314.161980500212,nan,1314.6503778412007,nan,nan,nan,nan
1,95,1,1,1.0,1.0,0.535259858937934,0,0.0,0.0,0.0,0.5454287088699881,0.13340140008491932,0.41202730878506877,0.6788301089549074,0.13340140008491932,0.5043994522032639,5,1,4,8,7,2,nan,nan,nan,nan,nan,nan,nan,nan,nan,nan,nan,nan,0.0,nan,nan,nan,nan,nan,nan,nan,nan,nan,nan,nan,nan,nan,nan,nan,nan,nan,nan,1174.5404343989212,1315.1871150811203,nan,1315.7223749400582,nan,nan,nan,nan
1,96,1,1,1.0,1.0,0.6943999216891825,0,0.0,0.0,0.0,0.5452983389990643,0.1325484412047339,0.4127498977943304,0.6778467802037982,0.1325484412047339,0.5726857072052857,1,3,8,5,4,0,nan,nan,nan,nan,nan,nan,nan,nan,nan,nan,nan,nan,0.0,nan,nan,nan,nan,nan,nan,nan,nan,nan,nan,nan,nan,nan,nan,nan,nan,nan,nan,1174.5404343989212,1316.2039450237062,nan,1316.8983449453954,nan,nan,nan,nan
1,97,1,1,nan,nan,nan,0,0.0,0.0,0.0,0.0,0.0,0.0,0.0,0.0,0.0,2,4,7,1,8,3,nan,nan,nan,nan,nan,nan,nan,nan,nan,nan,nan,nan,0.0,nan,nan,nan,nan,nan,nan,nan,nan,nan,nan,nan,nan,nan,nan,nan,nan,nan,nan,1174.5404343989212,1317.2290616433602,nan,nan,nan,nan,nan,nan
1,98,1,1,nan,nan,nan,0,0.0,0.0,0.0,0.0,0.0,0.0,0.0,0.0,0.0,1,3,6,7,4,2,nan,nan,nan,nan,nan,nan,nan,nan,nan,nan,nan,nan,0.0,nan,nan,nan,nan,nan,nan,nan,nan,nan,nan,nan,nan,nan,nan,nan,nan,nan,nan,1174.5404343989212,1318.254271205049,nan,nan,nan,nan,nan,nan
1,99,1,1,1.0,1.0,0.05096964887343347,1,1.0,0.0,1.0,0.5471857008052683,0.1327574563955675,0.41442824440970083,0.6799431572008358,0.1327574563955675,0.05096964887343347,4,7,2,0,1,5,1.0,1.0,1.0,1.0,1.0,1.0,1.0,1.0,0.0,0.0,0.0,0.0,2.0,4.0,7.0,0.0,2.0,2.0,6.0,2.0,1.0,3.0,6.0,5.0,4.0,2.736697440268472,1.9044500475283712,3.742272258969024,7.77440487081185,6.926481614820659,5.302732556359842,1174.5404343989212,1319.2793365069665,1320.0877659043763,1319.33030615584,1328.9139301474206,1329.914590435801,1321.0962301976979,1328.9055955738295
1,100,1,1,1.0,1.0,0.7430012561380863,0,0.0,0.0,0.0,0.5409830001561204,0.14298126304818934,0.3980017371079311,0.6839642632043098,0.14298126304818934,0.3969854525057599,3,0,7,4,2,1,nan,nan,nan,nan,nan,nan,nan,nan,nan,nan,nan,nan,0.0,nan,nan,nan,nan,nan,nan,nan,nan,nan,nan,nan,nan,nan,nan,nan,nan,nan,nan,1174.5404343989212,1330.1391295595095,nan,1330.8821308156475,nan,nan,nan,nan
1,101,1,1,nan,nan,nan,0,0.0,0.0,0.0,0.0,0.0,0.0,0.0,0.0,0.0,5,4,8,6,7,2,nan,nan,nan,nan,nan,nan,nan,nan,nan,nan,nan,nan,0.0,nan,nan,nan,nan,nan,nan,nan,nan,nan,nan,nan,nan,nan,nan,nan,nan,nan,nan,1174.5404343989212,1331.164251881186,nan,nan,nan,nan,nan,nan
1,102,1,1,1.0,1.0,0.5247009457089007,0,0.0,0.0,0.0,0.5434770526991076,0.14383627773619778,0.39964077496290984,0.6873133304353054,0.14383627773619778,0.6338511009234935,6,3,7,8,1,5,nan,nan,nan,nan,nan,nan,nan,nan,nan,nan,nan,nan,0.0,nan,nan,nan,nan,nan,nan,nan,nan,nan,nan,nan,nan,nan,nan,nan,nan,nan,nan,1174.5404343989212,1332.1893964405172,nan,1332.714097386226,nan,nan,nan,nan
1,103,1,1,1.0,1.0,0.09821305866353214,1,1.0,0.0,1.0,0.5432480757845929,0.14297138981799212,0.40027668596660076,0.6862194656025851,0.14297138981799212,0.3114570021862164,5,7,3,6,8,0,1.0,1.0,1.0,1.0,1.0,1.0,0.0,0.0,0.0,0.0,0.0,1.0,1.0,7.0,3.0,0.0,0.0,3.0,0.0,2.0,1.0,4.0,5.0,6.0,3.0,3.6450847000814974,2.8059872426092625,5.685512541793287,6.588909435085952,9.221044669859111,4.589217341737822,1174.5404343989212,1333.247868745122,1334.0562924405094,1333.3460818037856,1344.3326545134187,1345.3427455795463,1335.0730941582005,1344.3243276374415
1,104,0,0,nan,nan,nan,0,0.0,0.0,0.0,0.0,0.0,0.0,0.0,0.0,0.0,8,1,7,5,2,4,nan,nan,nan,nan,nan,nan,nan,nan,nan,nan,nan,nan,0.0,nan,nan,nan,nan,nan,nan,nan,nan,nan,nan,nan,nan,nan,nan,nan,nan,nan,nan,1174.5404343989212,1345.5661753846798,nan,nan,nan,nan,nan,nan
1,105,1,1,nan,nan,nan,0,0.0,0.0,0.0,0.0,0.0,0.0,0.0,0.0,0.0,7,8,4,2,6,5,nan,nan,nan,nan,nan,nan,nan,nan,nan,nan,nan,nan,0.0,nan,nan,nan,nan,nan,nan,nan,nan,nan,nan,nan,nan,nan,nan,nan,nan,nan,nan,1174.5404343989212,1346.5913188033737,nan,nan,nan,nan,nan,nan
1,106,1,1,1.0,1.0,0.1454174101818353,1,1.0,0.0,1.0,0.5378862081084356,0.15017327536954073,0.38771293273889484,0.6880594834779763,0.15017327536954073,0.1454174101818353,0,4,5,6,3,2,1.0,1.0,1.0,1.0,1.0,1.0,0.0,0.0,0.0,0.0,0.0,1.0,1.0,4.0,0.0,1.0,1.0,1.0,2.0,2.0,1.0,6.0,5.0,4.0,3.0,11.05358913517557,7.868290132377297,19.259983726544306,18.65252434881404,18.005313953384757,15.716758211841807,1174.5404343989212,1347.6164716305211,1348.424889623886,1347.761889040703,1368.7442482775077,1369.740803715773,1349.4416787975933,1368.7359214015305
1,107,1,1,nan,nan,nan,0,0.0,0.0,0.0,0.0,0.0,0.0,0.0,0.0,0.0,2,8,6,5,4,1,nan,nan,nan,nan,nan,nan,nan,nan,nan,nan,nan,nan,0.0,nan,nan,nan,nan,nan,nan,nan,nan,nan,nan,nan,nan,nan,nan,nan,nan,nan,nan,1174.5404343989212,1369.9611082696356,nan,nan,nan,nan,nan,nan
1,108,1,1,1.0,1.0,0.255266199586913,0,0.0,0.0,0.0,0.5332139605140712,0.15522698796830736,0.37798697254576386,0.6884409484823786,0.15522698796830736,0.20034180488437414,6,7,3,2,0,5,nan,nan,nan,nan,nan,nan,nan,nan,nan,nan,nan,nan,0.0,nan,nan,nan,nan,nan,nan,nan,nan,nan,nan,nan,nan,nan,nan,nan,nan,nan,nan,1174.5404343989212,1370.9862650879659,nan,1371.2415312875528,nan,nan,nan,nan
1,109,1,1,1.0,1.0,0.5420945284422487,0,0.0,0.0,0.0,0.5299439868561047,0.15719456548830305,0.37274942136780165,0.6871385523444077,0.15719456548830305,0.39868036401458085,2,3,1,8,6,0,nan,nan,nan,nan,nan,nan,nan,nan,nan,nan,nan,nan,0.0,nan,nan,nan,nan,nan,nan,nan,nan,nan,nan,nan,nan,nan,nan,nan,nan,nan,nan,1174.5404343989212,1372.0113782864064,nan,1372.5534728148486,nan,nan,nan,nan
1,110,1,1,1.0,1.0,0.340975972590968,0,0.0,0.0,0.0,0.5300852722233854,0.15628339976372455,0.3738018724596609,0.6863686719871099,0.15628339976372455,0.37944556687337655,8,4,5,7,3,6,nan,nan,nan,nan,nan,nan,nan,nan,nan,nan,nan,nan,0.0,nan,nan,nan,nan,nan,nan,nan,nan,nan,nan,nan,nan,nan,nan,nan,nan,nan,nan,1174.5404343989212,1373.0365265519358,nan,1373.3775025245268,nan,nan,nan,nan
1,111,1,1,1.0,1.0,0.323454950703308,0,0.0,0.0,0.0,0.527911602112668,0.15668470263859074,0.3712268994740772,0.6845963047512587,0.15668470263859074,0.40217515057884157,1,5,0,3,6,4,nan,nan,nan,nan,nan,nan,nan,nan,nan,nan,nan,nan,0.0,nan,nan,nan,nan,nan,nan,nan,nan,nan,nan,nan,nan,nan,nan,nan,nan,nan,nan,1174.5404343989212,1374.069999127416,nan,1374.3934540781192,nan,nan,nan,nan
1,112,1,1,1.0,1.0,0.2983483097050339,1,1.0,0.0,1.0,0.5255882310739253,0.157291920601222,0.3682963104727033,0.6828801516751473,0.157291920601222,0.32092641099977,7,4,3,8,1,2,1.0,1.0,1.0,1.0,1.0,1.0,1.0,1.0,0.0,0.0,0.0,0.0,2.0,7.0,4.0,2.0,6.0,6.0,1.0,2.0,1.0,4.0,5.0,6.0,3.0,3.6801333006005734,2.4798295565415174,5.926254391204566,8.430010565789416,9.637821527197957,4.694934766506776,1174.5404343989212,1375.0951368443202,1375.9035519869067,1375.3934851540253,1386.5883135788608,1387.5869493817445,1376.9120413688943,1386.5799801456742
1,113,1,1,1.0,1.0,0.2600980510469526,0,0.0,0.0,0.0,0.5230349735304546,0.15822909109878677,0.3648058824316678,0.6812640646292414,0.15822909109878677,0.2939671038184315,6,2,1,3,0,7,nan,nan,nan,nan,nan,nan,nan,nan,nan,nan,nan,nan,0.0,nan,nan,nan,nan,nan,nan,nan,nan,nan,nan,nan,nan,nan,nan,nan,nan,nan,nan,1174.5404343989212,1387.8051732857712,nan,1388.0652713368181,nan,nan,nan,nan
1,114,1,1,1.0,1.0,0.6032670023851097,0,0.0,0.0,0.0,0.5201134521695268,0.15974324115052982,0.3603702110189969,0.6798566933200566,0.15974324115052982,0.3872377877123654,2,7,3,4,6,8,nan,nan,nan,nan,nan,nan,nan,nan,nan,nan,nan,nan,0.0,nan,nan,nan,nan,nan,nan,nan,nan,nan,nan,nan,nan,nan,nan,nan,nan,nan,nan,1174.5404343989212,1388.8219886883162,nan,1389.4252556907013,nan,nan,nan,nan
1,115,1,1,nan,nan,nan,0,0.0,0.0,0.0,0.0,0.0,0.0,0.0,0.0,0.0,3,1,5,2,0,7,nan,nan,nan,nan,nan,nan,nan,nan,nan,nan,nan,nan,0.0,nan,nan,nan,nan,nan,nan,nan,nan,nan,nan,nan,nan,nan,nan,nan,nan,nan,nan,1174.5404343989212,1389.8387815682217,nan,nan,nan,nan,nan,nan
1,116,1,1,nan,nan,nan,0,0.0,0.0,0.0,0.0,0.0,0.0,0.0,0.0,0.0,5,3,7,6,4,1,nan,nan,nan,nan,nan,nan,nan,nan,nan,nan,nan,nan,0.0,nan,nan,nan,nan,nan,nan,nan,nan,nan,nan,nan,nan,nan,nan,nan,nan,nan,nan,1174.5404343989212,1390.8639067406766,nan,nan,nan,nan,nan,nan
1,117,0,0,0.0,1.0,0.6081513119861484,0,0.0,0.0,0.0,0.5210272274466211,0.15909945081269258,0.3619277766339285,0.6801266782593137,0.15909945081269258,0.6081513119861484,4,5,8,7,3,2,nan,nan,nan,nan,nan,nan,nan,nan,nan,nan,nan,nan,0.0,nan,nan,nan,nan,nan,nan,nan,nan,nan,nan,nan,nan,nan,nan,nan,nan,nan,nan,1174.5404343989212,1391.8890353345778,nan,1392.497186646564,nan,nan,nan,nan
1,118,1,1,1.0,1.0,0.42301224963739514,0,0.0,0.0,0.0,0.521974228365529,0.15849008702949202,0.36348414133603696,0.680464315395021,0.15849008702949202,0.5155817808117718,5,4,0,6,7,8,nan,nan,nan,nan,nan,nan,nan,nan,nan,nan,nan,nan,0.0,nan,nan,nan,nan,nan,nan,nan,nan,nan,nan,nan,nan,nan,nan,nan,nan,nan,nan,1174.5404343989212,1392.914183885092,nan,1393.3371961347293,nan,nan,nan,nan
1,119,1,1,1.0,1.0,0.5098749613389373,0,0.0,0.0,0.0,0.520910121067377,0.15796576715847008,0.3629443539089069,0.6788758882258471,0.15796576715847008,0.5136795076541603,3,0,8,1,4,5,nan,nan,nan,nan,nan,nan,nan,nan,nan,nan,nan,nan,0.0,nan,nan,nan,nan,nan,nan,nan,nan,nan,nan,nan,nan,nan,nan,nan,nan,nan,nan,1174.5404343989212,1393.9393227424007,nan,1394.4491977037396,nan,nan,nan,nan
1,120,1,1,1.0,1.0,0.5010272103827447,0,0.0,0.0,0.0,0.520792725751117,0.15712735563368405,0.36366537011743294,0.6779200813848011,0.15712735563368405,0.477971473786359,1,7,2,6,8,0,nan,nan,nan,nan,nan,nan,nan,nan,nan,nan,nan,nan,0.0,nan,nan,nan,nan,nan,nan,nan,nan,nan,nan,nan,nan,nan,nan,nan,nan,nan,nan,1174.5404343989212,1394.9561435619835,nan,1395.4571707723662,nan,nan,nan,nan
1,121,1,1,1.0,1.0,0.3878957952838391,0,0.0,0.0,0.0,0.5205846676946079,0.15631119826321774,0.36427346943139016,0.6768958659578256,0.15631119826321774,0.46626598900184035,2,6,8,1,0,3,nan,nan,nan,nan,nan,nan,nan,nan,nan,nan,nan,nan,0.0,nan,nan,nan,nan,nan,nan,nan,nan,nan,nan,nan,nan,nan,nan,nan,nan,nan,nan,1174.5404343989212,1395.9812670238316,nan,1396.3691628191154,nan,nan,nan,nan
1,122,1,1,1.0,1.0,0.33073722501285374,0,0.0,0.0,0.0,0.519202491940329,0.15607743985542927,0.3631250520848997,0.6752799317957583,0.15607743985542927,0.4065534102264792,1,8,3,0,5,4,nan,nan,nan,nan,nan,nan,nan,nan,nan,nan,nan,nan,0.0,nan,nan,nan,nan,nan,nan,nan,nan,nan,nan,nan,nan,nan,nan,nan,nan,nan,nan,1174.5404343989212,1397.0063987537287,nan,1397.3371359787416,nan,nan,nan,nan
1,123,1,1,1.0,1.0,0.33764402475208044,1,1.0,0.0,1.0,0.5172595510441694,0.1564334789693696,0.36082607207479983,0.6736930300135391,0.1564334789693696,0.3520923483495911,0,7,5,2,1,8,1.0,1.0,1.0,1.0,1.0,1.0,0.0,0.0,1.0,0.0,1.0,0.0,2.0,6.0,3.0,5.0,5.0,1.0,0.0,3.0,2.0,1.0,6.0,5.0,4.0,4.533397594699636,3.5407679644413292,2.7348032449372113,7.212000770960003,6.261050280649215,5.429566096980125,1174.5404343989212,1398.0315039693378,1398.8400103433523,1398.3691479940899,1407.1160519653931,1408.1162692105863,1399.8650970275048,1407.1077168215998
1,124,1,1,1.0,1.0,0.27568182768300176,0,0.0,0.0,0.0,0.5154267395513931,0.15667663208617574,0.3587501074652173,0.6721033716375688,0.15667663208617574,0.31468769248264533,4,5,3,0,7,1,nan,nan,nan,nan,nan,nan,nan,nan,nan,nan,nan,nan,0.0,nan,nan,nan,nan,nan,nan,nan,nan,nan,nan,nan,nan,nan,nan,nan,nan,nan,nan,1174.5404343989212,1408.3413058314472,nan,1408.6169876591302,nan,nan,nan,nan
1,125,1,1,nan,nan,nan,0,0.0,0.0,0.0,0.0,0.0,0.0,0.0,0.0,0.0,7,3,8,2,5,0,nan,nan,nan,nan,nan,nan,nan,nan,nan,nan,nan,nan,0.0,nan,nan,nan,nan,nan,nan,nan,nan,nan,nan,nan,nan,nan,nan,nan,nan,nan,nan,1174.5404343989212,1409.3663819669746,nan,nan,nan,nan,nan,nan
1,126,1,1,1.0,1.0,0.08176372293382883,1,1.0,0.0,1.0,0.5130050737749446,0.157715977003721,0.35528909677122367,0.6707210507786656,0.157715977003721,0.1787227753084153,8,0,3,4,6,1,1.0,1.0,1.0,1.0,1.0,1.0,0.0,1.0,0.0,0.0,1.0,0.0,2.0,3.0,0.0,8.0,6.0,6.0,6.0,3.0,2.0,1.0,6.0,5.0,4.0,4.438392465701327,3.182854281971231,2.1894802595488727,7.109021433163434,6.461940757697448,5.614353633020073,1174.5404343989212,1410.383194803726,1411.1916108014993,1410.4649585266598,1419.3510610514786,1420.3620997855905,1412.2000847882591,1419.3426837131847
1,127,1,1,nan,nan,nan,0,0.0,0.0,0.0,0.0,0.0,0.0,0.0,0.0,0.0,4,8,0,7,2,6,nan,nan,nan,nan,nan,nan,nan,nan,nan,nan,nan,nan,0.0,nan,nan,nan,nan,nan,nan,nan,nan,nan,nan,nan,nan,nan,nan,nan,nan,nan,nan,1174.5404343989212,1420.5845730847213,nan,nan,nan,nan,nan,nan
1,128,0,0,0.0,1.0,0.6953495852649212,0,0.0,0.0,0.0,0.5086926602665335,0.1626858328948807,0.3460068273716528,0.6713784931614142,0.1626858328948807,0.388556654099375,8,7,1,3,4,0,nan,nan,nan,nan,nan,nan,nan,nan,nan,nan,nan,nan,0.0,nan,nan,nan,nan,nan,nan,nan,nan,nan,nan,nan,nan,nan,nan,nan,nan,nan,nan,1174.5404343989212,1421.6014323923737,nan,1422.2967819776386,nan,nan,nan,nan
1,129,1,1,1.0,1.0,0.3102289398666471,0,0.0,0.0,0.0,0.5105407486328541,0.1629299755932456,0.3476107730396085,0.6734707242260998,0.1629299755932456,0.5027892625657842,4,3,0,6,1,5,nan,nan,nan,nan,nan,nan,nan,nan,nan,nan,nan,nan,0.0,nan,nan,nan,nan,nan,nan,nan,nan,nan,nan,nan,nan,nan,nan,nan,nan,nan,nan,1174.5404343989212,1422.6264922774862,nan,1422.936721217353,nan,nan,nan,nan
1,130,1,1,1.0,1.0,0.3971247230656445,0,0.0,0.0,0.0,0.5085769073704404,0.16332618967263632,0.345250717697804,0.6719030970430767,0.16332618967263632,0.4675677493990709,6,0,5,7,3,4,nan,nan,nan,nan,nan,nan,nan,nan,nan,nan,nan,nan,0.0,nan,nan,nan,nan,nan,nan,nan,nan,nan,nan,nan,nan,nan,nan,nan,nan,nan,nan,1174.5404343989212,1423.651618305361,nan,1424.0487430284265,nan,nan,nan,nan
1,131,0,0,1.0,0.0,0.7722777498420328,0,0.0,0.0,0.0,0.5074948473286462,0.16289839299019798,0.34459645433844827,0.6703932403188442,0.16289839299019798,0.4932104709247748,7,6,4,3,8,2,nan,nan,nan,nan,nan,nan,nan,nan,nan,nan,nan,nan,0.0,nan,nan,nan,nan,nan,nan,nan,nan,nan,nan,nan,nan,nan,nan,nan,nan,nan,nan,1174.5404343989212,1424.6684428311419,nan,1425.440720580984,nan,nan,nan,nan
1,132,1,1,1.0,1.0,0.5391574422828853,0,0.0,0.0,0.0,0.5100408367758903,0.16415963601907174,0.34588120075681855,0.674200472794962,0.16415963601907174,0.5695199717301875,4,3,7,2,6,8,nan,nan,nan,nan,nan,nan,nan,nan,nan,nan,nan,nan,0.0,nan,nan,nan,nan,nan,nan,nan,nan,nan,nan,nan,nan,nan,nan,nan,nan,nan,nan,1174.5404343989212,1425.69356629299,nan,1426.2327237352729,nan,nan,nan,nan
1,133,1,1,1.0,1.0,0.6099916237872094,0,0.0,0.0,0.0,0.5103181377807189,0.16340052622271606,0.3469176115580028,0.6737186640034349,0.16340052622271606,0.6404756053040425,8,0,2,6,5,1,nan,nan,nan,nan,nan,nan,nan,nan,nan,nan,nan,nan,0.0,nan,nan,nan,nan,nan,nan,nan,nan,nan,nan,nan,nan,nan,nan,nan,nan,nan,nan,1174.5404343989212,1426.718712562928,nan,1427.3287041867152,nan,nan,nan,nan
1,134,0,0,nan,nan,nan,0,0.0,0.0,0.0,0.0,0.0,0.0,0.0,0.0,0.0,6,4,3,7,2,5,nan,nan,nan,nan,nan,nan,nan,nan,nan,nan,nan,nan,0.0,nan,nan,nan,nan,nan,nan,nan,nan,nan,nan,nan,nan,nan,nan,nan,nan,nan,nan,1174.5404343989212,1427.7438308931887,nan,nan,nan,nan,nan,nan
1,135,1,1,1.0,1.0,0.6635793335735798,0,0.0,0.0,0.0,0.5112584536864405,0.16291313045995398,0.34834532322648654,0.6741715841463944,0.16291313045995398,0.6367854786803946,8,6,0,1,5,4,nan,nan,nan,nan,nan,nan,nan,nan,nan,nan,nan,nan,0.0,nan,nan,nan,nan,nan,nan,nan,nan,nan,nan,nan,nan,nan,nan,nan,nan,nan,nan,1174.5404343989212,1428.7690236340277,nan,1429.4326029676013,nan,nan,nan,nan
1,136,1,1,1.0,1.0,0.42285943659953773,0,0.0,0.0,0.0,0.5126820133115539,0.16281110402895735,0.34987090928259656,0.6754931173405113,0.16281110402895735,0.5432193850865588,6,1,5,0,3,7,nan,nan,nan,nan,nan,nan,nan,nan,nan,nan,nan,nan,0.0,nan,nan,nan,nan,nan,nan,nan,nan,nan,nan,nan,nan,nan,nan,nan,nan,nan,nan,1174.5404343989212,1429.7857880040538,nan,1430.2086474406533,nan,nan,nan,nan
1,137,1,1,1.0,1.0,0.6540182658936828,0,0.0,0.0,0.0,0.5118503227864427,0.1622837917610144,0.34956653102542834,0.6741341145474571,0.1622837917610144,0.5801523453556001,3,4,0,6,5,1,nan,nan,nan,nan,nan,nan,nan,nan,nan,nan,nan,nan,0.0,nan,nan,nan,nan,nan,nan,nan,nan,nan,nan,nan,nan,nan,nan,nan,nan,nan,nan,1174.5404343989212,1430.80262222304,nan,1431.4566404889338,nan,nan,nan,nan
1,138,1,1,1.0,1.0,0.4128835501614958,0,0.0,0.0,0.0,0.5131546158424724,0.16210534106981192,0.35104927477266046,0.6752599569122842,0.16210534106981192,0.4965870842182388,5,8,3,1,0,2,nan,nan,nan,nan,nan,nan,nan,nan,nan,nan,nan,nan,0.0,nan,nan,nan,nan,nan,nan,nan,nan,nan,nan,nan,nan,nan,nan,nan,nan,nan,nan,1174.5404343989212,1431.8277385577094,nan,1432.2406221078709,nan,nan,nan,nan
1,139,1,1,1.0,1.0,0.5397532985080034,0,0.0,0.0,0.0,0.5122430606999181,0.16164721179085906,0.35059584890905904,0.6738902724907772,0.16164721179085906,0.535551704854394,2,5,7,6,4,3,nan,nan,nan,nan,nan,nan,nan,nan,nan,nan,nan,nan,0.0,nan,nan,nan,nan,nan,nan,nan,nan,nan,nan,nan,nan,nan,nan,nan,nan,nan,nan,1174.5404343989212,1432.8528537517413,nan,1433.3926070502494,nan,nan,nan,nan
1,140,1,1,1.0,1.0,0.4585814403835684,0,0.0,0.0,0.0,0.5124909006801711,0.16093841678849338,0.3515524838916777,0.6734293174686645,0.16093841678849338,0.47040609635102254,6,1,0,8,2,7,nan,nan,nan,nan,nan,nan,nan,nan,nan,nan,nan,nan,0.0,nan,nan,nan,nan,nan,nan,nan,nan,nan,nan,nan,nan,nan,nan,nan,nan,nan,nan,1174.5404343989212,1433.8780082894955,nan,1434.336589729879,nan,nan,nan,nan
1,141,1,1,1.0,1.0,0.44943918264470994,0,0.0,0.0,0.0,0.5120095662132371,0.16029856616552707,0.35171100004771005,0.6723081323787642,0.16029856616552707,0.4825913071787606,0,8,2,7,1,3,nan,nan,nan,nan,nan,nan,nan,nan,nan,nan,nan,nan,0.0,nan,nan,nan,nan,nan,nan,nan,nan,nan,nan,nan,nan,nan,nan,nan,nan,nan,nan,1174.5404343989212,1434.9031417297665,nan,1435.3525809124112,nan,nan,nan,nan
1,142,1,1,1.0,1.0,0.4482885242905468,0,0.0,0.0,0.0,0.5114558460046661,0.15969525739970186,0.35176058860496423,0.671151103404368,0.15969525739970186,0.452103049106275,6,2,7,0,3,4,nan,nan,nan,nan,nan,nan,nan,nan,nan,nan,nan,nan,0.0,nan,nan,nan,nan,nan,nan,nan,nan,nan,nan,nan,nan,nan,nan,nan,nan,nan,nan,1174.5404343989212,1435.9282785914838,nan,1436.3765671157744,nan,nan,nan,nan
1,143,1,1,1.0,1.0,0.5270370438229293,0,0.0,0.0,0.0,0.5109017466913843,0.15910236446758508,0.35179938222379925,0.6700041111589694,0.15910236446758508,0.474921583586062,7,0,3,1,5,6,nan,nan,nan,nan,nan,nan,nan,nan,nan,nan,nan,nan,0.0,nan,nan,nan,nan,nan,nan,nan,nan,nan,nan,nan,nan,nan,nan,nan,nan,nan,nan,1174.5404343989212,1436.95350525924,nan,1437.480542303063,nan,nan,nan,nan
1,144,1,1,1.0,1.0,0.5420158412307501,0,0.0,0.0,0.0,0.511042053622963,0.15841618810411992,0.352625865518843,0.6694582417270829,0.15841618810411992,0.5057804697814087,4,6,0,7,3,8,nan,nan,nan,nan,nan,nan,nan,nan,nan,nan,nan,nan,0.0,nan,nan,nan,nan,nan,nan,nan,nan,nan,nan,nan,nan,nan,nan,nan,nan,nan,nan,1174.5404343989212,1437.9785246599931,nan,1438.5205405012239,nan,nan,nan,nan
1,145,1,1,1.0,1.0,0.4451555754058063,0,0.0,0.0,0.0,0.5113090690333749,0.15775787045740847,0.35355119857596645,0.6690669394907833,0.15775787045740847,0.5047361534864953,0,3,6,2,7,1,nan,nan,nan,nan,nan,nan,nan,nan,nan,nan,nan,nan,0.0,nan,nan,nan,nan,nan,nan,nan,nan,nan,nan,nan,nan,nan,nan,nan,nan,nan,nan,1174.5404343989212,1438.9953591644298,nan,1439.4405147398356,nan,nan,nan,nan
1,146,1,1,1.0,1.0,0.5160191222093999,0,0.0,0.0,0.0,0.5107436545579256,0.1572002419682895,0.35354341258963606,0.6679438965262151,0.1572002419682895,0.5010635129486521,6,8,5,3,2,7,nan,nan,nan,nan,nan,nan,nan,nan,nan,nan,nan,nan,0.0,nan,nan,nan,nan,nan,nan,nan,nan,nan,nan,nan,nan,nan,nan,nan,nan,nan,nan,1174.5404343989212,1440.0204854772892,nan,1440.5365045994986,nan,nan,nan,nan
1,147,1,1,1.0,1.0,0.5388754797168076,0,0.0,0.0,0.0,0.5107883619109043,0.15653346897948683,0.35425489293141743,0.6673218308903911,0.15653346897948683,0.5000167257773379,5,2,1,6,8,3,nan,nan,nan,nan,nan,nan,nan,nan,nan,nan,nan,nan,0.0,nan,nan,nan,nan,nan,nan,nan,nan,nan,nan,nan,nan,nan,nan,nan,nan,nan,nan,1174.5404343989212,1441.045614356175,nan,1441.5844898358919,nan,nan,nan,nan
1,148,0,0,1.0,0.0,0.6420235959812999,0,0.0,0.0,0.0,0.5110243881109539,0.1558954625058515,0.35512892560510234,0.6669198506168054,0.1558954625058515,0.5656393993025025,4,8,7,3,6,5,nan,nan,nan,nan,nan,nan,nan,nan,nan,nan,nan,nan,0.0,nan,nan,nan,nan,nan,nan,nan,nan,nan,nan,nan,nan,nan,nan,nan,nan,nan,nan,1174.5404343989212,1442.0624403073452,nan,1442.7044639033265,nan,nan,nan,nan
1,149,1,1,1.0,1.0,0.6172308484092355,0,0.0,0.0,0.0,0.5121160481765401,0.15570061598621704,0.35641543219032307,0.6678166641627572,0.15570061598621704,0.5993766413691143,2,3,8,7,0,6,nan,nan,nan,nan,nan,nan,nan,nan,nan,nan,nan,nan,0.0,nan,nan,nan,nan,nan,nan,nan,nan,nan,nan,nan,nan,nan,nan,nan,nan,nan,nan,1174.5404343989212,1443.079226915026,nan,1443.6964577634353,nan,nan,nan,nan
1,150,1,1,1.0,1.0,0.6643721929285675,0,0.0,0.0,0.0,0.5129847655338351,0.15534764065736484,0.35763712487647026,0.6683324061911999,0.15534764065736484,0.6412088791063676,7,6,1,0,4,3,nan,nan,nan,nan,nan,nan,nan,nan,nan,nan,nan,nan,0.0,nan,nan,nan,nan,nan,nan,nan,nan,nan,nan,nan,nan,nan,nan,nan,nan,nan,nan,1174.5404343989212,1444.0960574278142,nan,1444.7604296207428,nan,nan,nan,nan
1,151,1,1,1.0,1.0,0.6872599113266915,0,0.0,0.0,0.0,0.5142256460862509,0.15531063330780823,0.3589150127784426,0.6695362793940591,0.15531063330780823,0.6562876508881649,1,4,6,3,8,5,nan,nan,nan,nan,nan,nan,nan,nan,nan,nan,nan,nan,0.0,nan,nan,nan,nan,nan,nan,nan,nan,nan,nan,nan,nan,nan,nan,nan,nan,nan,nan,1174.5404343989212,1445.1211617882363,nan,1445.808421699563,nan,nan,nan,nan
1,152,1,1,1.0,1.0,0.5901185383554548,0,0.0,0.0,0.0,0.5156324287304821,0.15545650998770968,0.36017591874277244,0.6710889387181918,0.15545650998770968,0.6472502142035713,6,7,2,1,0,8,nan,nan,nan,nan,nan,nan,nan,nan,nan,nan,nan,nan,0.0,nan,nan,nan,nan,nan,nan,nan,nan,nan,nan,nan,nan,nan,nan,nan,nan,nan,nan,1174.5404343989212,1446.146293232916,nan,1446.7364117712714,nan,nan,nan,nan
1,153,1,1,1.0,1.0,0.4529592953622341,0,0.0,0.0,0.0,0.5162331231629416,0.1549716622466169,0.36126146091632466,0.6712047854095584,0.1549716622466169,0.5767792483481268,4,0,7,8,6,3,nan,nan,nan,nan,nan,nan,nan,nan,nan,nan,nan,nan,0.0,nan,nan,nan,nan,nan,nan,nan,nan,nan,nan,nan,nan,nan,nan,nan,nan,nan,nan,1174.5404343989212,1447.1714400730561,nan,1447.6243993684184,nan,nan,nan,nan
1,154,1,1,1.0,1.0,0.5641181129030883,0,0.0,0.0,0.0,0.5157269325405359,0.1544534193859556,0.36127351315458034,0.6701803519264915,0.1544534193859556,0.5357319822069257,1,8,4,5,0,6,nan,nan,nan,nan,nan,nan,nan,nan,nan,nan,nan,nan,0.0,nan,nan,nan,nan,nan,nan,nan,nan,nan,nan,nan,nan,nan,nan,nan,nan,nan,nan,1174.5404343989212,1448.1882506289985,nan,1448.7523687419016,nan,nan,nan,nan
1,155,1,1,1.0,1.0,0.5073253244627267,0,0.0,0.0,0.0,0.5161109895275403,0.15389920083870218,0.36221178868883813,0.6700101903662425,0.15389920083870218,0.508134244242683,7,0,2,6,1,4,nan,nan,nan,nan,nan,nan,nan,nan,nan,nan,nan,nan,0.0,nan,nan,nan,nan,nan,nan,nan,nan,nan,nan,nan,nan,nan,nan,nan,nan,nan,nan,1174.5404343989212,1449.2050449342933,nan,1449.712370258756,nan,nan,nan,nan
1,156,1,1,1.0,1.0,0.4901546889450401,0,0.0,0.0,0.0,0.516041811062463,0.15329406783134011,0.3627477432311229,0.6693358788938032,0.15329406783134011,0.520532708770285,1,5,0,7,4,2,nan,nan,nan,nan,nan,nan,nan,nan,nan,nan,nan,nan,0.0,nan,nan,nan,nan,nan,nan,nan,nan,nan,nan,nan,nan,nan,nan,nan,nan,nan,nan,1174.5404343989212,1450.2301857871935,nan,1450.7203404761385,nan,nan,nan,nan
1,157,1,1,1.0,1.0,0.624976693186909,0,0.0,0.0,0.0,0.5158395679209207,0.15271109759572662,0.363128470325194,0.6685506655166473,0.15271109759572662,0.5408189021982253,8,2,3,4,1,7,nan,nan,nan,nan,nan,nan,nan,nan,nan,nan,nan,nan,0.0,nan,nan,nan,nan,nan,nan,nan,nan,nan,nan,nan,nan,nan,nan,nan,nan,nan,nan,1174.5404343989212,1451.2553571457975,nan,1451.8803338389844,nan,nan,nan,nan
1,158,1,1,1.0,1.0,0.5278629746753722,0,0.0,0.0,0.0,0.5166855921477888,0.1524188825704052,0.36426670957738355,0.669104474718194,0.1524188825704052,0.5476647856024405,3,7,1,6,4,5,nan,nan,nan,nan,nan,nan,nan,nan,nan,nan,nan,nan,0.0,nan,nan,nan,nan,nan,nan,nan,nan,nan,nan,nan,nan,nan,nan,nan,nan,nan,nan,1174.5404343989212,1452.2804492469877,nan,1452.808312221663,nan,nan,nan,nan
1,159,1,1,1.0,1.0,0.5667390245944262,0,0.0,0.0,0.0,0.5167715720133856,0.15183466479663218,0.3649369072167534,0.6686062368100179,0.15183466479663218,0.5731928974855691,8,5,3,1,7,6,nan,nan,nan,nan,nan,nan,nan,nan,nan,nan,nan,nan,0.0,nan,nan,nan,nan,nan,nan,nan,nan,nan,nan,nan,nan,nan,nan,nan,nan,nan,nan,1174.5404343989212,1453.3055678622331,nan,1453.8723068868276,nan,nan,nan,nan
1,160,1,1,1.0,1.0,0.5499045203905553,0,0.0,0.0,0.0,0.5171530029491187,0.15131654283090648,0.36583646011821225,0.6684695457800252,0.15131654283090648,0.5481688398867846,2,1,0,3,6,7,nan,nan,nan,nan,nan,nan,nan,nan,nan,nan,nan,nan,0.0,nan,nan,nan,nan,nan,nan,nan,nan,nan,nan,nan,nan,nan,nan,nan,nan,nan,nan,1174.5404343989212,1454.3223881116137,nan,1454.8722926320042,nan,nan,nan,nan
1,161,1,1,1.0,1.0,0.5567292117048055,0,0.0,0.0,0.0,0.5174011205054933,0.15076903189730867,0.3666320886081846,0.6681701524028019,0.15076903189730867,0.5577909188965956,1,7,8,5,3,0,nan,nan,nan,nan,nan,nan,nan,nan,nan,nan,nan,nan,0.0,nan,nan,nan,nan,nan,nan,nan,nan,nan,nan,nan,nan,nan,nan,nan,nan,nan,nan,1174.5404343989212,1455.3475295347162,nan,1455.904258746421,nan,nan,nan,nan
1,162,0,0,0.0,1.0,0.7475842167623341,0,0.0,0.0,0.0,0.5176968204393226,0.1502395780655953,0.36745724237372734,0.6679363985049179,0.1502395780655953,0.6180726496192316,7,3,5,6,4,1,nan,nan,nan,nan,nan,nan,nan,nan,nan,nan,nan,nan,0.0,nan,nan,nan,nan,nan,nan,nan,nan,nan,nan,nan,nan,nan,nan,nan,nan,nan,nan,1174.5404343989212,1456.372661549598,nan,1457.1202457663603,nan,nan,nan,nan
1,163,1,1,1.0,1.0,0.4824302264023572,0,0.0,0.0,0.0,0.5194123980238228,0.15097989942394674,0.36843249859987603,0.6703922974477695,0.15097989942394674,0.5955812182898322,0,7,4,8,3,2,nan,nan,nan,nan,nan,nan,nan,nan,nan,nan,nan,nan,0.0,nan,nan,nan,nan,nan,nan,nan,nan,nan,nan,nan,nan,nan,nan,nan,nan,nan,nan,1174.5404343989212,1457.3978103853296,nan,1457.880240611732,nan,nan,nan,nan
1,164,1,1,1.0,1.0,0.4252861961722374,0,0.0,0.0,0.0,0.5191384560118119,0.15045309775071303,0.36868535826109883,0.6695915537625249,0.15045309775071303,0.5517668797789762,8,5,1,0,2,3,nan,nan,nan,nan,nan,nan,nan,nan,nan,nan,nan,nan,0.0,nan,nan,nan,nan,nan,nan,nan,nan,nan,nan,nan,nan,nan,nan,nan,nan,nan,nan,1174.5404343989212,1458.4229515234474,nan,1458.8482377196196,nan,nan,nan,nan
1,165,1,1,1.0,1.0,0.36806604475714266,0,0.0,0.0,0.0,0.5184483658659327,0.15011323309993677,0.36833513276599594,0.6685615989658694,0.15011323309993677,0.42526082244391245,5,6,3,7,0,2,nan,nan,nan,nan,nan,nan,nan,nan,nan,nan,nan,nan,0.0,nan,nan,nan,nan,nan,nan,nan,nan,nan,nan,nan,nan,nan,nan,nan,nan,nan,nan,1174.5404343989212,1459.4481402731035,nan,1459.8162063178606,nan,nan,nan,nan
1,166,1,1,1.0,1.0,0.4469861937686801,0,0.0,0.0,0.0,0.5173506846899562,0.15011118567551088,0.3672394990144453,0.667461870365467,0.15011118567551088,0.4134461448993534,3,2,0,8,1,7,nan,nan,nan,nan,nan,nan,nan,nan,nan,nan,nan,nan,0.0,nan,nan,nan,nan,nan,nan,nan,nan,nan,nan,nan,nan,nan,nan,nan,nan,nan,nan,1174.5404343989212,1460.4732158384286,nan,1460.9202020321973,nan,nan,nan,nan
1,167,1,1,1.0,1.0,0.5897775604389608,0,0.0,0.0,0.0,0.5168407970745845,0.14968533924929794,0.3671554578252866,0.6665261363238825,0.14968533924929794,0.46827659965492785,7,0,2,4,3,6,nan,nan,nan,nan,nan,nan,nan,nan,nan,nan,nan,nan,0.0,nan,nan,nan,nan,nan,nan,nan,nan,nan,nan,nan,nan,nan,nan,nan,nan,nan,nan,1174.5404343989212,1461.4983623933513,nan,1462.0881399537902,nan,nan,nan,nan
1,168,1,1,1.0,1.0,0.5566570814698935,0,0.0,0.0,0.0,0.517365521990875,0.14927325646278242,0.3680922655280926,0.6666387784536575,0.14927325646278242,0.5311402785591781,5,3,0,8,1,2,nan,nan,nan,nan,nan,nan,nan,nan,nan,nan,nan,nan,0.0,nan,nan,nan,nan,nan,nan,nan,nan,nan,nan,nan,nan,nan,nan,nan,nan,nan,nan,1174.5404343989212,1462.5234986848664,nan,1463.0801557663362,nan,nan,nan,nan
1,169,1,1,1.0,1.0,0.6275294662918895,0,0.0,0.0,0.0,0.5176461759871537,0.14877598230509922,0.3688701936820544,0.6664221582922529,0.14877598230509922,0.5913213694002479,3,2,8,0,7,5,nan,nan,nan,nan,nan,nan,nan,nan,nan,nan,nan,nan,0.0,nan,nan,nan,nan,nan,nan,nan,nan,nan,nan,nan,nan,nan,nan,nan,nan,nan,nan,1174.5404343989212,1463.5486326953396,nan,1464.1761621616315,nan,nan,nan,nan
1,170,1,1,1.0,1.0,0.6663522028829902,0,0.0,0.0,0.0,0.5184254901027902,0.1485339637213566,0.3698915263814335,0.6669594538241468,0.1485339637213566,0.6168462502149245,0,7,3,2,6,4,nan,nan,nan,nan,nan,nan,nan,nan,nan,nan,nan,nan,0.0,nan,nan,nan,nan,nan,nan,nan,nan,nan,nan,nan,nan,nan,nan,nan,nan,nan,nan,1174.5404343989212,1464.573768131435,nan,1465.240120334318,nan,nan,nan,nan
1,171,1,1,1.0,1.0,0.7455457614269108,1,0.0,1.0,1.0,0.5194672275167352,0.14852604274345446,0.37094118477328075,0.6679932702601897,0.14852604274345446,0.6798091435339302,4,1,8,3,7,0,1.0,1.0,1.0,1.0,1.0,1.0,1.0,1.0,1.0,0.0,0.0,0.0,3.0,4.0,1.0,8.0,6.0,2.0,7.0,3.0,2.0,1.0,6.0,5.0,4.0,3.078801547875628,1.7832822720520198,0.8856064532883465,6.188639218453318,5.293633063090965,3.9340526941232383,1174.5404343989212,1465.5905701345764,1466.398988412926,1466.3361158960033,1473.6332881737035,1474.633745471947,1467.4074681017082,1473.62495302991
1,172,1,1,1.0,1.0,0.5495173565577716,0,0.0,0.0,0.0,0.5210481962853378,0.1492000113276383,0.37184818495769956,0.6702482076129761,0.1492000113276383,0.6538051069558909,1,6,0,4,3,5,nan,nan,nan,nan,nan,nan,nan,nan,nan,nan,nan,nan,0.0,nan,nan,nan,nan,nan,nan,nan,nan,nan,nan,nan,nan,nan,nan,nan,nan,nan,nan,1174.5404343989212,1474.8584693395533,nan,1475.407986696111,nan,nan,nan,nan
1,173,1,1,1.0,1.0,0.47669945866800845,0,0.0,0.0,0.0,0.5212458987872297,0.14869984840896644,0.37254605037826327,0.6699457471961962,0.14869984840896644,0.5905875255508969,4,2,7,8,5,3,nan,nan,nan,nan,nan,nan,nan,nan,nan,nan,nan,nan,0.0,nan,nan,nan,nan,nan,nan,nan,nan,nan,nan,nan,nan,nan,nan,nan,nan,nan,nan,1174.5404343989212,1475.875275048893,nan,1476.351974507561,nan,nan,nan,nan
1,174,1,1,1.0,1.0,0.37152714212425053,0,0.0,0.0,0.0,0.5209386819588213,0.14823205404987624,0.37270662790894504,0.6691707360086976,0.14823205404987624,0.4659146524500102,3,6,1,4,7,2,nan,nan,nan,nan,nan,nan,nan,nan,nan,nan,nan,nan,0.0,nan,nan,nan,nan,nan,nan,nan,nan,nan,nan,nan,nan,nan,nan,nan,nan,nan,nan,1174.5404343989212,1476.9004238846246,nan,1477.2719510267489,nan,nan,nan,nan
1,175,1,1,1.0,1.0,0.3623677783180028,0,0.0,0.0,0.0,0.5199153152476256,0.14823663222267455,0.371678683024951,0.6681519474703002,0.14823663222267455,0.4035314597034206,5,4,8,0,2,7,nan,nan,nan,nan,nan,nan,nan,nan,nan,nan,nan,nan,0.0,nan,nan,nan,nan,nan,nan,nan,nan,nan,nan,nan,nan,nan,nan,nan,nan,nan,nan,1174.5404343989212,1477.9255245386157,nan,1478.2878923169337,nan,nan,nan,nan
1,176,1,1,1.0,1.0,0.28923769760876894,1,1.0,0.0,1.0,0.5188435632957235,0.14829807380113286,0.3705454894945906,0.6671416370968564,0.14829807380113286,0.3410442060170074,6,2,4,3,5,0,1.0,1.0,1.0,1.0,1.0,1.0,1.0,0.0,0.0,1.0,1.0,0.0,3.0,6.0,0.0,1.0,3.0,5.0,3.0,5.0,4.0,3.0,2.0,1.0,6.0,5.620959083084017,4.6207820367999375,3.556183247594163,2.2284150396008044,1.2452178979292512,6.708174461964518,1174.5404343989212,1478.9506859187968,1479.7591096141841,1479.2399236164056,1487.5268055438064,1488.5331338781398,1480.7759195999242,1487.5184712554328
1,177,1,1,nan,nan,nan,0,0.0,0.0,0.0,0.0,0.0,0.0,0.0,0.0,0.0,4,8,5,7,1,3,nan,nan,nan,nan,nan,nan,nan,nan,nan,nan,nan,nan,0.0,nan,nan,nan,nan,nan,nan,nan,nan,nan,nan,nan,nan,nan,nan,nan,nan,nan,nan,1174.5404343989212,1488.7520032455213,nan,nan,nan,nan,nan,nan
1,178,0,0,nan,nan,nan,0,0.0,0.0,0.0,0.0,0.0,0.0,0.0,0.0,0.0,7,5,8,4,6,1,nan,nan,nan,nan,nan,nan,nan,nan,nan,nan,nan,nan,0.0,nan,nan,nan,nan,nan,nan,nan,nan,nan,nan,nan,nan,nan,nan,nan,nan,nan,nan,1174.5404343989212,1489.7771834421437,nan,nan,nan,nan,nan,nan
1,179,1,1,1.0,1.0,0.5254635848104954,0,0.0,0.0,0.0,0.5172921723113522,0.14898833377549683,0.36830383853585535,0.666280506086849,0.14898833377549683,0.5254635848104954,5,1,4,7,0,3,nan,nan,nan,nan,nan,nan,nan,nan,nan,nan,nan,nan,0.0,nan,nan,nan,nan,nan,nan,nan,nan,nan,nan,nan,nan,nan,nan,nan,nan,nan,nan,1174.5404343989212,1490.8022738324944,nan,1491.327737417305,nan,nan,nan,nan
1,180,1,1,nan,nan,nan,0,0.0,0.0,0.0,0.0,0.0,0.0,0.0,0.0,0.0,4,6,8,5,3,7,nan,nan,nan,nan,nan,nan,nan,nan,nan,nan,nan,nan,0.0,nan,nan,nan,nan,nan,nan,nan,nan,nan,nan,nan,nan,nan,nan,nan,nan,nan,nan,1174.5404343989212,1491.8274337872863,nan,nan,nan,nan,nan,nan
1,181,0,0,0.0,1.0,0.77913066605106,0,0.0,0.0,0.0,0.5173470140059773,0.14848903009728326,0.368857983908694,0.6658360441032605,0.14848903009728326,0.6522971254307777,3,1,2,6,8,0,nan,nan,nan,nan,nan,nan,nan,nan,nan,nan,nan,nan,0.0,nan,nan,nan,nan,nan,nan,nan,nan,nan,nan,nan,nan,nan,nan,nan,nan,nan,nan,1174.5404343989212,1492.8525335858576,nan,1493.6316642519087,nan,nan,nan,nan
1,182,1,1,nan,nan,nan,0,0.0,0.0,0.0,0.0,0.0,0.0,0.0,0.0,0.0,2,4,3,8,6,1,nan,nan,nan,nan,nan,nan,nan,nan,nan,nan,nan,nan,0.0,nan,nan,nan,nan,nan,nan,nan,nan,nan,nan,nan,nan,nan,nan,nan,nan,nan,nan,1174.5404343989212,1493.8776895492338,nan,nan,nan,nan,nan,nan
1,183,1,1,nan,nan,nan,0,0.0,0.0,0.0,0.0,0.0,0.0,0.0,0.0,0.0,7,3,0,5,2,6,nan,nan,nan,nan,nan,nan,nan,nan,nan,nan,nan,nan,0.0,nan,nan,nan,nan,nan,nan,nan,nan,nan,nan,nan,nan,nan,nan,nan,nan,nan,nan,1174.5404343989212,1494.9028261257336,nan,nan,nan,nan,nan,nan
1,184,1,1,nan,nan,nan,0,0.0,0.0,0.0,0.0,0.0,0.0,0.0,0.0,0.0,3,7,2,8,4,5,nan,nan,nan,nan,nan,nan,nan,nan,nan,nan,nan,nan,0.0,nan,nan,nan,nan,nan,nan,nan,nan,nan,nan,nan,nan,nan,nan,nan,nan,nan,nan,1174.5404343989212,1495.919647230301,nan,nan,nan,nan,nan,nan
1,185,1,1,nan,nan,nan,0,0.0,0.0,0.0,0.0,0.0,0.0,0.0,0.0,0.0,6,2,8,0,3,1,nan,nan,nan,nan,nan,nan,nan,nan,nan,nan,nan,nan,0.0,nan,nan,nan,nan,nan,nan,nan,nan,nan,nan,nan,nan,nan,nan,nan,nan,nan,nan,1174.5404343989212,1496.9447561521083,nan,nan,nan,nan,nan,nan
1,186,1,1,nan,nan,nan,0,0.0,0.0,0.0,0.0,0.0,0.0,0.0,0.0,0.0,2,6,1,7,5,4,nan,nan,nan,nan,nan,nan,nan,nan,nan,nan,nan,nan,0.0,nan,nan,nan,nan,nan,nan,nan,nan,nan,nan,nan,nan,nan,nan,nan,nan,nan,nan,1174.5404343989212,1497.9698856011964,nan,nan,nan,nan,nan,nan
1,187,1,1,nan,nan,nan,0,0.0,0.0,0.0,0.0,0.0,0.0,0.0,0.0,0.0,7,2,3,6,0,8,nan,nan,nan,nan,nan,nan,nan,nan,nan,nan,nan,nan,0.0,nan,nan,nan,nan,nan,nan,nan,nan,nan,nan,nan,nan,nan,nan,nan,nan,nan,nan,1174.5404343989212,1498.9950395687483,nan,nan,nan,nan,nan,nan
1,188,1,1,nan,nan,nan,0,0.0,0.0,0.0,0.0,0.0,0.0,0.0,0.0,0.0,6,5,0,7,2,1,nan,nan,nan,nan,nan,nan,nan,nan,nan,nan,nan,nan,0.0,nan,nan,nan,nan,nan,nan,nan,nan,nan,nan,nan,nan,nan,nan,nan,nan,nan,nan,1174.5404343989212,1500.020170158241,nan,nan,nan,nan,nan,nan
1,189,1,1,nan,nan,nan,0,0.0,0.0,0.0,0.0,0.0,0.0,0.0,0.0,0.0,0,3,1,4,6,2,nan,nan,nan,nan,nan,nan,nan,nan,nan,nan,nan,nan,0.0,nan,nan,nan,nan,nan,nan,nan,nan,nan,nan,nan,nan,nan,nan,nan,nan,nan,nan,1174.5404343989212,1501.045305879321,nan,nan,nan,nan,nan,nan
1,190,1,1,1.0,1.0,0.5851264612283558,0,0.0,0.0,0.0,0.5190922383529445,0.14951864156018418,0.3695735967927603,0.6686108799131287,0.14951864156018418,0.5851264612283558,6,1,4,2,0,8,nan,nan,nan,nan,nan,nan,nan,nan,nan,nan,nan,nan,0.0,nan,nan,nan,nan,nan,nan,nan,nan,nan,nan,nan,nan,nan,nan,nan,nan,nan,nan,1174.5404343989212,1502.0704378942028,nan,1502.6555643554311,nan,nan,nan,nan
1,191,0,0,1.0,0.0,0.4239832954481244,0,0.0,0.0,0.0,0.5195295510872187,0.14911894152794514,0.3704106095592735,0.6686484926151638,0.14911894152794514,0.5045548783382401,3,6,8,7,5,2,nan,nan,nan,nan,nan,nan,nan,nan,nan,nan,nan,nan,0.0,nan,nan,nan,nan,nan,nan,nan,nan,nan,nan,nan,nan,nan,nan,nan,nan,nan,nan,1174.5404343989212,1503.0955867301673,nan,1503.5195700256154,nan,nan,nan,nan
1,192,1,1,1.0,1.0,0.6551364227198064,0,0.0,0.0,0.0,0.5189009573001194,0.1488281925017772,0.3700727647983422,0.6677291498018967,0.1488281925017772,0.5547487264654288,1,2,0,3,4,6,nan,nan,nan,nan,nan,nan,nan,nan,nan,nan,nan,nan,0.0,nan,nan,nan,nan,nan,nan,nan,nan,nan,nan,nan,nan,nan,nan,nan,nan,nan,nan,1174.5404343989212,1504.1124012772925,nan,1504.7675377000123,nan,nan,nan,nan
1,193,1,1,0.0,0.0,0.3663223816547543,0,0.0,0.0,0.0,0.5197913851786794,0.14874668312774228,0.3710447020509371,0.6685380683064217,0.14874668312774228,0.4818140332742284,0,8,5,7,2,1,nan,nan,nan,nan,nan,nan,nan,nan,nan,nan,nan,nan,0.0,nan,nan,nan,nan,nan,nan,nan,nan,nan,nan,nan,nan,nan,nan,nan,nan,nan,nan,1174.5404343989212,1505.1292101226281,nan,1505.495532504283,nan,nan,nan,nan
1,194,1,1,1.0,1.0,0.4532013440039009,0,0.0,0.0,0.0,0.5187948332077449,0.14877449342499302,0.37002033978275184,0.6675693266327379,0.14877449342499302,0.4915533827928205,5,6,0,2,1,7,nan,nan,nan,nan,nan,nan,nan,nan,nan,nan,nan,nan,0.0,nan,nan,nan,nan,nan,nan,nan,nan,nan,nan,nan,nan,nan,nan,nan,nan,nan,nan,1174.5404343989212,1506.1543290230911,nan,1506.607530367095,nan,nan,nan,nan
1,195,1,1,1.0,1.0,0.42002954753115773,0,0.0,0.0,0.0,0.5183716494064298,0.14838675776450905,0.3699848916419207,0.6667584071709388,0.14838675776450905,0.4131844243966043,8,1,5,3,4,6,nan,nan,nan,nan,nan,nan,nan,nan,nan,nan,nan,nan,0.0,nan,nan,nan,nan,nan,nan,nan,nan,nan,nan,nan,nan,nan,nan,nan,nan,nan,nan,1174.5404343989212,1507.179469306022,nan,1507.599498853553,nan,nan,nan,nan
1,196,1,1,1.0,1.0,0.3868734317366034,0,0.0,0.0,0.0,0.5177412513174857,0.14811847314857457,0.36962277816891115,0.6658597244660602,0.14811847314857457,0.4200347744238873,4,8,2,1,6,5,nan,nan,nan,nan,nan,nan,nan,nan,nan,nan,nan,nan,0.0,nan,nan,nan,nan,nan,nan,nan,nan,nan,nan,nan,nan,nan,nan,nan,nan,nan,nan,1174.5404343989212,1508.2046075928956,nan,1508.5914810246322,nan,nan,nan,nan
1,197,1,1,1.0,1.0,0.3457396854646504,0,0.0,0.0,0.0,0.5169076983265246,0.14801261150102255,0.3688950868255021,0.6649203098275471,0.14801261150102255,0.3842142215774705,6,1,5,7,2,8,nan,nan,nan,nan,nan,nan,nan,nan,nan,nan,nan,nan,0.0,nan,nan,nan,nan,nan,nan,nan,nan,nan,nan,nan,nan,nan,nan,nan,nan,nan,nan,1174.5404343989212,1509.229742173804,nan,1509.5754818592686,nan,nan,nan,nan
1,198,1,1,1.0,1.0,0.35258319322019815,1,1.0,0.0,1.0,0.5158243564729685,0.14816658350348674,0.36765777296948177,0.6639909399764553,0.14816658350348674,0.3617321034738173,0,7,1,2,5,3,1.0,1.0,1.0,1.0,1.0,1.0,1.0,0.0,1.0,1.0,0.0,0.0,3.0,0.0,4.0,1.0,2.0,0.0,7.0,1.0,3.0,4.0,2.0,5.0,6.0,1.7341201486997306,3.7325381364207715,4.476502170553431,2.669080311898142,5.323395935352892,7.043351813452318,1174.5404343989212,1510.2548813160975,1511.0633035860956,1510.6074645093177,1519.1727050556801,1520.1694991216063,1512.0884393071756,1519.1643798905425
1,199,1,1,1.0,1.0,0.5857083476148546,0,0.0,0.0,0.0,0.5147976824902467,0.14826262699788703,0.36653505549235965,0.6630603094881338,0.14826262699788703,0.4280104087665677,1,2,3,5,4,7,nan,nan,nan,nan,nan,nan,nan,nan,nan,nan,nan,nan,0.0,nan,nan,nan,nan,nan,nan,nan,nan,nan,nan,nan,nan,nan,nan,nan,nan,nan,nan,1174.5404343989212,1520.3895892810542,nan,1520.975297628669,nan,nan,nan,nan
1,200,1,1,1.0,1.0,0.4245988233014941,0,0.0,0.0,0.0,0.5152408741472755,0.14790419490203904,0.36733667924523644,0.6631450690493146,0.14790419490203904,0.4542967880455156,6,1,5,3,0,2,nan,nan,nan,nan,nan,nan,nan,nan,nan,nan,nan,nan,0.0,nan,nan,nan,nan,nan,nan,nan,nan,nan,nan,nan,nan,nan,nan,nan,nan,nan,nan,1174.5404343989212,1521.414704475319,nan,1521.8393032986205,nan,nan,nan,nan
1,201,1,1,1.0,1.0,0.3834342865739018,0,0.0,0.0,0.0,0.5146778800426433,0.14761602636445204,0.3670618536781912,0.6622939064070953,0.14761602636445204,0.4645804858300835,3,2,1,7,4,6,nan,nan,nan,nan,nan,nan,nan,nan,nan,nan,nan,nan,0.0,nan,nan,nan,nan,nan,nan,nan,nan,nan,nan,nan,nan,nan,nan,nan,nan,nan,nan,1174.5404343989212,1522.4398399114143,nan,1522.8232741979882,nan,nan,nan,nan
1,202,1,1,1.0,1.0,0.4066031123511493,0,0.0,0.0,0.0,0.5138677344039474,0.14751831114592956,0.36634942325801784,0.661386045549877,0.14751831114592956,0.4048787407421817,0,4,3,8,7,2,nan,nan,nan,nan,nan,nan,nan,nan,nan,nan,nan,nan,0.0,nan,nan,nan,nan,nan,nan,nan,nan,nan,nan,nan,nan,nan,nan,nan,nan,nan,nan,1174.5404343989212,1523.4566521779634,nan,1523.8632552903146,nan,nan,nan,nan
1,203,1,1,1.0,1.0,0.3894578507170081,0,0.0,0.0,0.0,0.5132096692379793,0.1473034253391852,0.3659062438987941,0.6605130945771645,0.1473034253391852,0.3931650832140197,3,5,7,4,1,0,nan,nan,nan,nan,nan,nan,nan,nan,nan,nan,nan,nan,0.0,nan,nan,nan,nan,nan,nan,nan,nan,nan,nan,nan,nan,nan,nan,nan,nan,nan,nan,1174.5404343989212,1524.4817870438565,nan,1524.8712448945735,nan,nan,nan,nan
1,204,1,1,1.0,1.0,0.3406486790627241,0,0.0,0.0,0.0,0.5124550849787051,0.14716930451569787,0.3652857804630072,0.6596243894944029,0.14716930451569787,0.3789032140436272,7,3,6,2,0,1,nan,nan,nan,nan,nan,nan,nan,nan,nan,nan,nan,nan,0.0,nan,nan,nan,nan,nan,nan,nan,nan,nan,nan,nan,nan,nan,nan,nan,nan,nan,nan,1174.5404343989212,1525.4985881915782,nan,1525.839236870641,nan,nan,nan,nan
1,205,1,1,1.0,1.0,0.3874835427850485,0,0.0,0.0,0.0,0.5114138340337597,0.14732735011077286,0.36408648392298687,0.6587411841445325,0.14732735011077286,0.37253002418826026,2,0,1,7,6,5,nan,nan,nan,nan,nan,nan,nan,nan,nan,nan,nan,nan,0.0,nan,nan,nan,nan,nan,nan,nan,nan,nan,nan,nan,nan,nan,nan,nan,nan,nan,nan,1174.5404343989212,1526.5237239126582,nan,1526.9112074554432,nan,nan,nan,nan
1,206,1,1,1.0,1.0,0.5063537082169205,0,0.0,0.0,0.0,0.5106672660141891,0.14719564534991125,0.36347162066427785,0.6578629113641004,0.14719564534991125,0.41149531002156436,6,7,3,1,2,4,nan,nan,nan,nan,nan,nan,nan,nan,nan,nan,nan,nan,0.0,nan,nan,nan,nan,nan,nan,nan,nan,nan,nan,nan,nan,nan,nan,nan,nan,nan,nan,1174.5404343989212,1527.5488587785512,nan,1528.0552124867681,nan,nan,nan,nan
1,207,1,1,1.0,1.0,0.6251215231604874,0,0.0,0.0,0.0,0.5106414363267804,0.14675465543665184,0.36388678089012855,0.6573960917634323,0.14675465543665184,0.5063195913874855,0,8,1,5,7,3,nan,nan,nan,nan,nan,nan,nan,nan,nan,nan,nan,nan,0.0,nan,nan,nan,nan,nan,nan,nan,nan,nan,nan,nan,nan,nan,nan,nan,nan,nan,nan,1174.5404343989212,1528.5740586470347,nan,1529.1991801701952,nan,nan,nan,nan
1,208,1,1,nan,nan,nan,0,0.0,0.0,0.0,0.0,0.0,0.0,0.0,0.0,0.0,7,5,2,3,4,1,nan,nan,nan,nan,nan,nan,nan,nan,nan,nan,nan,nan,0.0,nan,nan,nan,nan,nan,nan,nan,nan,nan,nan,nan,nan,nan,nan,nan,nan,nan,nan,1174.5404343989212,1529.5908076216,nan,nan,nan,nan,nan,nan
1,209,1,1,1.0,1.0,0.799237817293033,1,0.0,1.0,1.0,0.5113228654150762,0.14658198594171,0.3647408794733662,0.6579048513567862,0.14658198594171,0.7121796702267602,8,3,0,2,5,7,1.0,1.0,1.0,1.0,1.0,1.0,1.0,0.0,0.0,0.0,0.0,0.0,1.0,8.0,0.0,3.0,5.0,4.0,2.0,4.0,3.0,2.0,1.0,6.0,5.0,4.651285025058314,3.7065699270460755,2.5222433956805617,1.6602106080390513,6.001904743956402,5.3548924922943115,1174.5404343989212,1530.6158982971683,1531.4326391750947,1531.4151361144613,1538.4836304916535,1539.4820219650865,1532.4411570669618,1538.4752927820664
1,210,1,1,1.0,1.0,0.7625057091936469,0,0.0,0.0,0.0,0.5130265041835849,0.14780643270305913,0.3652200714805257,0.660832936886644,0.14780643270305913,0.78087176324334,1,2,7,5,3,0,nan,nan,nan,nan,nan,nan,nan,nan,nan,nan,nan,nan,0.0,nan,nan,nan,nan,nan,nan,nan,nan,nan,nan,nan,nan,nan,nan,nan,nan,nan,nan,1174.5404343989212,1539.700491623953,nan,1540.4629973331466,nan,nan,nan,nan
1,211,1,1,1.0,1.0,0.7693877052515745,0,0.0,0.0,0.0,0.5144940289189381,0.1486007892962256,0.36589323962271253,0.6630948182151637,0.1486007892962256,0.7770437439127514,6,3,8,0,7,2,nan,nan,nan,nan,nan,nan,nan,nan,nan,nan,nan,nan,0.0,nan,nan,nan,nan,nan,nan,nan,nan,nan,nan,nan,nan,nan,nan,nan,nan,nan,nan,1174.5404343989212,1540.7255951289553,nan,1541.494982834207,nan,nan,nan,nan
1,212,1,1,nan,nan,nan,0,0.0,0.0,0.0,0.0,0.0,0.0,0.0,0.0,0.0,7,8,6,2,4,1,nan,nan,nan,nan,nan,nan,nan,nan,nan,nan,nan,nan,0.0,nan,nan,nan,nan,nan,nan,nan,nan,nan,nan,nan,nan,nan,nan,nan,nan,nan,nan,1174.5404343989212,1541.7507684833836,nan,nan,nan,nan,nan,nan
1,213,1,1,nan,nan,nan,0,0.0,0.0,0.0,0.0,0.0,0.0,0.0,0.0,0.0,1,6,4,0,7,8,nan,nan,nan,nan,nan,nan,nan,nan,nan,nan,nan,nan,0.0,nan,nan,nan,nan,nan,nan,nan,nan,nan,nan,nan,nan,nan,nan,nan,nan,nan,nan,1174.5404343989212,1542.7675659246743,nan,nan,nan,nan,nan,nan
1,214,1,1,1.0,1.0,0.6782613431569189,1,0.0,1.0,1.0,0.5159846352132811,0.14943487929479707,0.36654975591848404,0.6654195145080781,0.14943487929479707,0.6782613431569189,8,7,0,2,6,4,1.0,1.0,1.0,1.0,1.0,1.0,1.0,1.0,1.0,0.0,1.0,0.0,4.0,8.0,7.0,0.0,6.0,6.0,0.0,4.0,1.0,6.0,3.0,2.0,5.0,6.393362561706454,2.026255873730406,8.353791441302747,4.713846499565989,3.707504195161164,7.034353245282546,1174.5404343989212,1543.792695658747,1544.601115932921,1544.470957001904,1554.0023737312295,1555.0037969434634,1545.6095922004897,1553.9940633911174
1,215,1,1,1.0,1.0,0.6271904841996729,0,0.0,0.0,0.0,0.5169281044455115,0.14950975206359857,0.36741835238191295,0.66643785650911,0.14950975206359857,0.6527259136782959,3,2,7,4,1,8,nan,nan,nan,nan,nan,nan,nan,nan,nan,nan,nan,nan,0.0,nan,nan,nan,nan,nan,nan,nan,nan,nan,nan,nan,nan,nan,nan,nan,nan,nan,nan,1174.5404343989212,1555.2275916747749,nan,1555.8547821589746,nan,nan,nan,nan
1,216,1,1,nan,nan,nan,0,0.0,0.0,0.0,0.0,0.0,0.0,0.0,0.0,0.0,6,5,3,8,7,4,nan,nan,nan,nan,nan,nan,nan,nan,nan,nan,nan,nan,0.0,nan,nan,nan,nan,nan,nan,nan,nan,nan,nan,nan,nan,nan,nan,nan,nan,nan,nan,1174.5404343989212,1556.252692328766,nan,nan,nan,nan,nan,nan
1,217,1,1,1.0,1.0,0.08126337477006018,1,1.0,0.0,1.0,0.5175654592417783,0.14931117488574774,0.3682542843560306,0.6668766341275261,0.14931117488574774,0.35422692948486656,0,7,8,2,6,3,1.0,1.0,1.0,1.0,1.0,1.0,1.0,1.0,1.0,0.0,0.0,0.0,3.0,0.0,7.0,8.0,7.0,4.0,4.0,3.0,2.0,1.0,6.0,5.0,4.0,2.8443552465178072,1.9655589445028454,0.757036946946755,9.38831717101857,7.701118270866573,7.061246314318851,1174.5404343989212,1557.2695034549106,1558.0779197379015,1557.3507668296807,1568.5126455498394,1569.5115293888375,1559.0863974308595,1568.5043155378662
1,218,0,0,0.0,1.0,0.6610408152919263,0,0.0,0.0,0.0,0.515057975997688,0.1524907675811898,0.3625672084164982,0.6675487435788778,0.1524907675811898,0.3711520950309932,6,3,4,5,7,1,nan,nan,nan,nan,nan,nan,nan,nan,nan,nan,nan,nan,0.0,nan,nan,nan,nan,nan,nan,nan,nan,nan,nan,nan,nan,nan,nan,nan,nan,nan,nan,1174.5404343989212,1569.7295274946373,nan,1570.3905683099292,nan,nan,nan,nan
1,219,1,1,1.0,1.0,0.7078962058294564,0,0.0,0.0,0.0,0.5158921636507979,0.152452086386911,0.36344007726388694,0.6683442500377089,0.152452086386911,0.4834001319638143,3,2,5,6,1,0,nan,nan,nan,nan,nan,nan,nan,nan,nan,nan,nan,nan,0.0,nan,nan,nan,nan,nan,nan,nan,nan,nan,nan,nan,nan,nan,nan,nan,nan,nan,nan,1174.5404343989212,1570.7546435438562,nan,1571.4625397496857,nan,nan,nan,nan
1,220,1,1,nan,nan,nan,0,0.0,0.0,0.0,0.0,0.0,0.0,0.0,0.0,0.0,5,6,7,3,0,4,nan,nan,nan,nan,nan,nan,nan,nan,nan,nan,nan,nan,0.0,nan,nan,nan,nan,nan,nan,nan,nan,nan,nan,nan,nan,nan,nan,nan,nan,nan,nan,1174.5404343989212,1571.7797735631466,nan,nan,nan,nan,nan,nan
1,221,1,1,1.0,1.0,0.6416047860402614,1,0.0,1.0,1.0,0.5169830957086312,0.15270185693301994,0.36428123877561125,0.6696849526416512,0.15270185693301994,0.6747504959348589,3,7,8,4,1,0,1.0,1.0,1.0,1.0,1.0,1.0,0.0,1.0,1.0,1.0,1.0,0.0,4.0,0.0,7.0,8.0,4.0,1.0,6.0,4.0,3.0,2.0,1.0,6.0,5.0,4.454324062447995,3.724931704578921,2.974918447434902,1.613665689714253,6.732688668183982,5.5252563178073615,1174.5404343989212,1572.8049072886351,1573.6133304138202,1573.4465120746754,1581.3976986266207,1582.3970018455293,1574.6218175152317,1581.3893748868722
1,222,1,1,nan,nan,nan,0,0.0,0.0,0.0,0.0,0.0,0.0,0.0,0.0,0.0,1,4,3,6,8,5,nan,nan,nan,nan,nan,nan,nan,nan,nan,nan,nan,nan,0.0,nan,nan,nan,nan,nan,nan,nan,nan,nan,nan,nan,nan,nan,nan,nan,nan,nan,nan,1174.5404343989212,1582.6229650371242,nan,nan,nan,nan,nan,nan
1,223,1,1,1.0,1.0,0.606330102076754,0,0.0,0.0,0.0,0.5176871730551377,0.15255610570940045,0.3651310673457372,0.6702432787645382,0.15255610570940045,0.6239674440585077,5,6,8,2,1,7,nan,nan,nan,nan,nan,nan,nan,nan,nan,nan,nan,nan,0.0,nan,nan,nan,nan,nan,nan,nan,nan,nan,nan,nan,nan,nan,nan,nan,nan,nan,nan,1174.5404343989212,1583.6480246370193,nan,1584.254354739096,nan,nan,nan,nan
1,224,0,0,0.0,1.0,0.5252107020933181,0,0.0,0.0,0.0,0.5181851670384051,0.15227117847039448,0.3659139885680106,0.6704563455087996,0.15227117847039448,0.565770402085036,2,8,0,4,5,1,nan,nan,nan,nan,nan,nan,nan,nan,nan,nan,nan,nan,0.0,nan,nan,nan,nan,nan,nan,nan,nan,nan,nan,nan,nan,nan,nan,nan,nan,nan,nan,1174.5404343989212,1584.6731449628714,nan,1585.1983556649648,nan,nan,nan,nan
1,225,1,1,1.0,1.0,0.4920354844070971,0,0.0,0.0,0.0,0.5182244158375946,0.1518461471709922,0.3663782686666024,0.6700705630085868,0.1518461471709922,0.5411920961923897,5,3,2,7,8,4,nan,nan,nan,nan,nan,nan,nan,nan,nan,nan,nan,nan,0.0,nan,nan,nan,nan,nan,nan,nan,nan,nan,nan,nan,nan,nan,nan,nan,nan,nan,nan,1174.5404343989212,1585.6983017814346,nan,1586.1903372658417,nan,nan,nan,nan
1,226,1,1,1.0,1.0,0.3548893560655415,0,0.0,0.0,0.0,0.5180789217740919,0.1514362761344809,0.36664264563961096,0.6695151979085727,0.1514362761344809,0.4573785141886522,2,6,0,4,1,8,nan,nan,nan,nan,nan,nan,nan,nan,nan,nan,nan,nan,0.0,nan,nan,nan,nan,nan,nan,nan,nan,nan,nan,nan,nan,nan,nan,nan,nan,nan,nan,1174.5404343989212,1586.7234429195523,nan,1587.0783322756179,nan,nan,nan,nan
1,227,1,1,1.0,1.0,0.3140455554239452,0,0.0,0.0,0.0,0.5171773219635474,0.15150103356467445,0.3656762883988729,0.6686783555282219,0.15150103356467445,0.38699013196552795,8,4,2,7,5,0,nan,nan,nan,nan,nan,nan,nan,nan,nan,nan,nan,nan,0.0,nan,nan,nan,nan,nan,nan,nan,nan,nan,nan,nan,nan,nan,nan,nan,nan,nan,nan,1174.5404343989212,1587.7402486286592,nan,1588.0542941840831,nan,nan,nan,nan
1,228,1,1,1.0,1.0,0.2729269196279347,1,1.0,0.0,1.0,0.5160612133561869,0.1518285928320072,0.3642326205241797,0.6678898061881942,0.1518285928320072,0.31395394370580715,6,0,8,1,7,2,1.0,1.0,1.0,1.0,1.0,1.0,0.0,1.0,0.0,0.0,0.0,0.0,1.0,1.0,0.0,1.0,2.0,6.0,6.0,3.0,1.0,2.0,4.0,5.0,6.0,3.9341413599904627,1.8218797808513045,2.6614319707732648,5.740845625521615,7.077010843437165,7.9962329918053,1174.5404343989212,1588.765370665118,1589.5738000625279,1589.038297584746,1598.6166749058757,1599.6191883354913,1590.5822917253245,1598.6083389068954
1,229,1,1,1.0,1.0,0.4361721174791455,0,0.0,0.0,0.0,0.5147326106582183,0.15247038568236,0.3622622249758583,0.6672029963405783,0.15247038568236,0.3410481975103418,0,2,4,3,1,8,nan,nan,nan,nan,nan,nan,nan,nan,nan,nan,nan,nan,0.0,nan,nan,nan,nan,nan,nan,nan,nan,nan,nan,nan,nan,nan,nan,nan,nan,nan,nan,1174.5404343989212,1599.8419076746795,nan,1600.2780797921587,nan,nan,nan,nan
1,230,1,1,1.0,1.0,0.37139628175646067,0,0.0,0.0,0.0,0.5143056514561581,0.15216515620400484,0.3621404952521533,0.666470807660163,0.15216515620400484,0.360165106287847,3,8,1,2,0,5,nan,nan,nan,nan,nan,nan,nan,nan,nan,nan,nan,nan,0.0,nan,nan,nan,nan,nan,nan,nan,nan,nan,nan,nan,nan,nan,nan,nan,nan,nan,nan,1174.5404343989212,1600.8586811679415,nan,1601.230077449698,nan,nan,nan,nan
1,231,1,1,1.0,1.0,0.42665096349082887,0,0.0,0.0,0.0,0.5135331683767003,0.15211467738757625,0.36141849098912404,0.6656478457642765,0.15211467738757625,0.411406454242145,5,2,6,4,7,0,nan,nan,nan,nan,nan,nan,nan,nan,nan,nan,nan,nan,0.0,nan,nan,nan,nan,nan,nan,nan,nan,nan,nan,nan,nan,nan,nan,nan,nan,nan,nan,1174.5404343989212,1601.875448388746,nan,1602.3020993522368,nan,nan,nan,nan
1,232,1,1,1.0,1.0,0.5134469624608755,0,0.0,0.0,0.0,0.5130660597482817,0.15183819598387602,0.36122786376440563,0.6649042557321577,0.15183819598387602,0.4371647359027217,4,6,1,0,3,8,nan,nan,nan,nan,nan,nan,nan,nan,nan,nan,nan,nan,0.0,nan,nan,nan,nan,nan,nan,nan,nan,nan,nan,nan,nan,nan,nan,nan,nan,nan,nan,1174.5404343989212,1602.9005920926575,nan,1603.4140390551183,nan,nan,nan,nan
1,233,1,1,1.0,1.0,0.4803350365255028,0,0.0,0.0,0.0,0.5130680966611832,0.15143166983460435,0.3616364268265789,0.6644997664957876,0.15143166983460435,0.47347765415906906,3,1,8,6,5,2,nan,nan,nan,nan,nan,nan,nan,nan,nan,nan,nan,nan,0.0,nan,nan,nan,nan,nan,nan,nan,nan,nan,nan,nan,nan,nan,nan,nan,nan,nan,nan,1174.5404343989212,1603.9257320903707,nan,1604.4060671268962,nan,nan,nan,nan
1,234,1,1,nan,nan,nan,0,0.0,0.0,0.0,0.0,0.0,0.0,0.0,0.0,0.0,1,7,0,2,4,3,nan,nan,nan,nan,nan,nan,nan,nan,nan,nan,nan,nan,0.0,nan,nan,nan,nan,nan,nan,nan,nan,nan,nan,nan,nan,nan,nan,nan,nan,nan,nan,1174.5404343989212,1604.9425497739576,nan,nan,nan,nan,nan,nan
1,235,1,1,1.0,1.0,0.550294820452109,0,0.0,0.0,0.0,0.5128939846391849,0.15104715555102124,0.3618468290881637,0.6639411401902061,0.15104715555102124,0.5153149284888059,8,3,6,0,1,2,nan,nan,nan,nan,nan,nan,nan,nan,nan,nan,nan,nan,0.0,nan,nan,nan,nan,nan,nan,nan,nan,nan,nan,nan,nan,nan,nan,nan,nan,nan,nan,1174.5404343989212,1605.9676809334196,nan,1606.5179757538717,nan,nan,nan,nan
1,236,1,1,1.0,1.0,0.4132062818389386,0,0.0,0.0,0.0,0.5130918726593591,0.15067146261071038,0.36242041004864867,0.6637633352700695,0.15067146261071038,0.4817505511455238,2,5,1,4,3,7,nan,nan,nan,nan,nan,nan,nan,nan,nan,nan,nan,nan,0.0,nan,nan,nan,nan,nan,nan,nan,nan,nan,nan,nan,nan,nan,nan,nan,nan,nan,nan,1174.5404343989212,1606.9928195057437,nan,1607.4060257875826,nan,nan,nan,nan
1,237,0,0,0.0,1.0,0.42806904413737357,0,0.0,0.0,0.0,0.5125661590234621,0.15044813344749683,0.3621180255759653,0.663014292470959,0.15044813344749683,0.4638567154761404,4,8,2,3,1,0,nan,nan,nan,nan,nan,nan,nan,nan,nan,nan,nan,nan,0.0,nan,nan,nan,nan,nan,nan,nan,nan,nan,nan,nan,nan,nan,nan,nan,nan,nan,nan,1174.5404343989212,1608.017935269978,nan,1608.4460043141153,nan,nan,nan,nan
1,238,1,1,1.0,1.0,0.2752265250310302,0,0.0,0.0,0.0,0.5121237657518073,0.15017762858712075,0.36194613716468654,0.662301394338928,0.15017762858712075,0.3721672836691141,2,7,0,5,4,6,nan,nan,nan,nan,nan,nan,nan,nan,nan,nan,nan,nan,0.0,nan,nan,nan,nan,nan,nan,nan,nan,nan,nan,nan,nan,nan,nan,nan,nan,nan,nan,1174.5404343989212,1609.0347660679836,nan,1609.3099925930146,nan,nan,nan,nan
1,239,1,1,1.0,1.0,0.6580757894553244,0,0.0,0.0,0.0,0.5108899259563865,0.1507535266633481,0.3601363992930384,0.6616434526197346,0.1507535266633481,0.45379045287457603,0,2,8,6,5,7,nan,nan,nan,nan,nan,nan,nan,nan,nan,nan,nan,nan,0.0,nan,nan,nan,nan,nan,nan,nan,nan,nan,nan,nan,nan,nan,nan,nan,nan,nan,nan,1174.5404343989212,1610.0598943766672,nan,1610.7179701661225,nan,nan,nan,nan
1,240,1,1,nan,nan,nan,0,0.0,0.0,0.0,0.0,0.0,0.0,0.0,0.0,0.0,4,6,2,8,1,3,nan,nan,nan,nan,nan,nan,nan,nan,nan,nan,nan,nan,0.0,nan,nan,nan,nan,nan,nan,nan,nan,nan,nan,nan,nan,nan,nan,nan,nan,nan,nan,1174.5404343989212,1611.0850266765337,nan,nan,nan,nan,nan,nan
1,241,1,1,nan,nan,nan,0,0.0,0.0,0.0,0.0,0.0,0.0,0.0,0.0,0.0,3,7,1,2,0,8,nan,nan,nan,nan,nan,nan,nan,nan,nan,nan,nan,nan,0.0,nan,nan,nan,nan,nan,nan,nan,nan,nan,nan,nan,nan,nan,nan,nan,nan,nan,nan,1174.5404343989212,1612.110245646676,nan,nan,nan,nan,nan,nan
1,242,0,0,1.0,0.0,0.11895655049011111,0,0.0,0.0,0.0,0.5116525470107852,0.15073332979519508,0.36091921721559017,0.6623858768059803,0.15073332979519508,0.11895655049011111,6,4,5,7,8,1,nan,nan,nan,nan,nan,nan,nan,nan,nan,nan,nan,nan,0.0,nan,nan,nan,nan,nan,nan,nan,nan,nan,nan,nan,nan,nan,nan,nan,nan,nan,nan,1174.5404343989212,1613.1269726685714,nan,1613.2459292190615,nan,nan,nan,nan
1,243,1,1,nan,nan,nan,0,0.0,0.0,0.0,0.0,0.0,0.0,0.0,0.0,0.0,1,8,0,2,4,3,nan,nan,nan,nan,nan,nan,nan,nan,nan,nan,nan,nan,0.0,nan,nan,nan,nan,nan,nan,nan,nan,nan,nan,nan,nan,nan,nan,nan,nan,nan,nan,1174.5404343989212,1614.1521012624726,nan,nan,nan,nan,nan,nan
1,244,1,1,nan,nan,nan,0,0.0,0.0,0.0,0.0,0.0,0.0,0.0,0.0,0.0,5,3,6,8,0,7,nan,nan,nan,nan,nan,nan,nan,nan,nan,nan,nan,nan,0.0,nan,nan,nan,nan,nan,nan,nan,nan,nan,nan,nan,nan,nan,nan,nan,nan,nan,nan,1174.5404343989212,1615.1772324219346,nan,nan,nan,nan,nan,nan
1,245,1,1,1.0,1.0,0.051838629646226764,1,1.0,0.0,1.0,0.5096283408431528,0.15295169430276176,0.356676646540391,0.6625800351459146,0.15295169430276176,0.051838629646226764,4,6,7,1,2,5,1.0,1.0,1.0,1.0,1.0,1.0,1.0,1.0,1.0,0.0,1.0,0.0,4.0,4.0,6.0,7.0,0.0,2.0,1.0,3.0,2.0,1.0,6.0,5.0,4.0,3.6307325495872647,2.495770561741665,1.6324770681094378,8.078481667209417,6.838456840952858,5.84733851859346,1174.5404343989212,1616.1940424076747,1617.002482068725,1616.245881037321,1626.1453464203514,1627.152803460369,1618.0276106623933,1626.1370155531913
1,246,1,1,nan,nan,nan,0,0.0,0.0,0.0,0.0,0.0,0.0,0.0,0.0,0.0,7,2,6,0,4,1,nan,nan,nan,nan,nan,nan,nan,nan,nan,nan,nan,nan,0.0,nan,nan,nan,nan,nan,nan,nan,nan,nan,nan,nan,nan,nan,nan,nan,nan,nan,nan,1174.5404343989212,1627.3705677853432,nan,nan,nan,nan,nan,nan
1,247,1,1,nan,nan,nan,0,0.0,0.0,0.0,0.0,0.0,0.0,0.0,0.0,0.0,4,1,2,3,6,0,nan,nan,nan,nan,nan,nan,nan,nan,nan,nan,nan,nan,0.0,nan,nan,nan,nan,nan,nan,nan,nan,nan,nan,nan,nan,nan,nan,nan,nan,nan,nan,1174.5404343989212,1628.3956798433792,nan,nan,nan,nan,nan,nan
1,248,1,1,1.0,1.0,0.5288596795871854,0,0.0,0.0,0.0,0.5072807012985532,0.15602392202718396,0.3512567792713692,0.6633046233257371,0.15602392202718396,0.5288596795871854,2,5,7,1,3,4,nan,nan,nan,nan,nan,nan,nan,nan,nan,nan,nan,nan,0.0,nan,nan,nan,nan,nan,nan,nan,nan,nan,nan,nan,nan,nan,nan,nan,nan,nan,nan,1174.5404343989212,1629.4208209812641,nan,1629.9496806608513,nan,nan,nan,nan
1,249,0,0,0.0,1.0,0.5760392274241894,0,0.0,0.0,0.0,0.5073907981265564,0.15563298671010237,0.351757811416454,0.6630237848366588,0.15563298671010237,0.5524494535056874,5,1,4,2,7,6,nan,nan,nan,nan,nan,nan,nan,nan,nan,nan,nan,nan,0.0,nan,nan,nan,nan,nan,nan,nan,nan,nan,nan,nan,nan,nan,nan,nan,nan,nan,nan,1174.5404343989212,1630.4376238395926,nan,1631.0136630670168,nan,nan,nan,nan
1,250,1,1,1.0,1.0,0.4789149600546807,0,0.0,0.0,0.0,0.5077392673108084,0.15531411579326848,0.35242515151753995,0.6630533831040769,0.15531411579326848,0.5279379556886852,0,6,5,4,8,3,nan,nan,nan,nan,nan,nan,nan,nan,nan,nan,nan,nan,0.0,nan,nan,nan,nan,nan,nan,nan,nan,nan,nan,nan,nan,nan,nan,nan,nan,nan,nan,1174.5404343989212,1631.4627444506623,nan,1631.941659410717,nan,nan,nan,nan
1,251,1,1,1.0,1.0,0.5580623329151422,0,0.0,0.0,0.0,0.507593690001434,0.15493488586295634,0.3526588041384776,0.6625285758643903,0.15493488586295634,0.5376721734646708,8,7,0,2,6,1,nan,nan,nan,nan,nan,nan,nan,nan,nan,nan,nan,nan,0.0,nan,nan,nan,nan,nan,nan,nan,nan,nan,nan,nan,nan,nan,nan,nan,nan,nan,nan,1174.5404343989212,1632.4795644148253,nan,1633.0376267477404,nan,nan,nan,nan
1,252,1,1,1.0,1.0,0.5008838057983667,0,0.0,0.0,0.0,0.5078473012723571,0.15458630833590228,0.35326099293645485,0.6624336096082594,0.15458630833590228,0.5126203662560632,6,3,2,8,1,0,nan,nan,nan,nan,nan,nan,nan,nan,nan,nan,nan,nan,0.0,nan,nan,nan,nan,nan,nan,nan,nan,nan,nan,nan,nan,nan,nan,nan,nan,nan,nan,1174.5404343989212,1633.504729215987,nan,1634.0056130217854,nan,nan,nan,nan
1,253,1,1,1.0,1.0,0.49976935517042875,0,0.0,0.0,0.0,0.5078124837949872,0.15420014050054362,0.3536123432944436,0.6620126242955309,0.15420014050054362,0.5195718312946459,3,4,0,7,8,6,nan,nan,nan,nan,nan,nan,nan,nan,nan,nan,nan,nan,0.0,nan,nan,nan,nan,nan,nan,nan,nan,nan,nan,nan,nan,nan,nan,nan,nan,nan,nan,1174.5404343989212,1634.5298369976226,nan,1635.029606352793,nan,nan,nan,nan
1,254,0,0,1.0,0.0,0.5386089126113802,0,0.0,0.0,0.0,0.5077724682296909,0.1538171207879299,0.35395534744176105,0.6615895890176208,0.1538171207879299,0.5130873578600585,2,5,7,0,1,3,nan,nan,nan,nan,nan,nan,nan,nan,nan,nan,nan,nan,0.0,nan,nan,nan,nan,nan,nan,nan,nan,nan,nan,nan,nan,nan,nan,nan,nan,nan,nan,1174.5404343989212,1635.5549735741224,nan,1636.0935824867338,nan,nan,nan,nan
1,255,1,1,1.0,1.0,0.48149852408096194,0,0.0,0.0,0.0,0.5079251238949468,0.1534511760822854,0.3544739478126614,0.6613762999772322,0.1534511760822854,0.5066255972875903,6,4,1,7,5,0,nan,nan,nan,nan,nan,nan,nan,nan,nan,nan,nan,nan,0.0,nan,nan,nan,nan,nan,nan,nan,nan,nan,nan,nan,nan,nan,nan,nan,nan,nan,nan,1174.5404343989212,1636.5801010273863,nan,1637.0615995514672,nan,nan,nan,nan
1,256,1,1,1.0,1.0,0.4166371589526534,0,0.0,0.0,0.0,0.5077949436002966,0.15308393235427128,0.35471101124602533,0.660878875954568,0.15308393235427128,0.47891486521499854,8,3,2,6,1,5,nan,nan,nan,nan,nan,nan,nan,nan,nan,nan,nan,nan,0.0,nan,nan,nan,nan,nan,nan,nan,nan,nan,nan,nan,nan,nan,nan,nan,nan,nan,nan,1174.5404343989212,1637.5969201363623,nan,1638.013557295315,nan,nan,nan,nan
1,257,1,1,1.0,1.0,0.3594897077418864,0,0.0,0.0,0.0,0.5073480917147689,0.15284092633625943,0.35450716537850946,0.6601890180510284,0.15284092633625943,0.4192084635918339,2,7,3,1,0,6,nan,nan,nan,nan,nan,nan,nan,nan,nan,nan,nan,nan,0.0,nan,nan,nan,nan,nan,nan,nan,nan,nan,nan,nan,nan,nan,nan,nan,nan,nan,nan,1174.5404343989212,1638.6220527214464,nan,1638.9815424291883,nan,nan,nan,nan
1,258,1,1,1.0,1.0,0.7423392571508884,0,0.0,0.0,0.0,0.5066268313051451,0.1528153134490823,0.3538115178560628,0.6594421447542274,0.1528153134490823,0.5061553746151427,1,0,7,4,8,3,nan,nan,nan,nan,nan,nan,nan,nan,nan,nan,nan,nan,0.0,nan,nan,nan,nan,nan,nan,nan,nan,nan,nan,nan,nan,nan,nan,nan,nan,nan,nan,1174.5404343989212,1639.647175613325,nan,1640.389514870476,nan,nan,nan,nan
1,259,0,0,0.0,1.0,0.7892194511368871,0,0.0,0.0,0.0,0.5077710663820663,0.15332175132269044,0.3544493150593758,0.6610928177047567,0.15332175132269044,0.6303494720098873,0,2,6,7,3,1,nan,nan,nan,nan,nan,nan,nan,nan,nan,nan,nan,nan,0.0,nan,nan,nan,nan,nan,nan,nan,nan,nan,nan,nan,nan,nan,nan,nan,nan,nan,nan,1174.5404343989212,1640.6722871011589,nan,1641.4615065522958,nan,nan,nan,nan
1,260,1,1,1.0,1.0,0.5640180434565991,1,0.0,1.0,1.0,0.5091307204146982,0.15419085612269878,0.3549398642919994,0.663321576537397,0.15419085612269878,0.6985255839147916,5,4,7,6,0,3,1.0,1.0,1.0,1.0,1.0,1.0,1.0,1.0,1.0,1.0,0.0,1.0,5.0,5.0,4.0,7.0,6.0,1.0,3.0,4.0,3.0,2.0,1.0,6.0,5.0,5.471434257226065,4.439760083798319,3.2487114968243986,1.8178447796963155,8.510471102781594,7.255224575055763,1174.5404343989212,1641.6974741399754,1642.5059252048377,1642.261492183432,1652.0821534525603,1653.0796289041173,1643.5310221526306,1652.0738257213961
1,261,1,1,1.0,1.0,0.6663231228012592,0,0.0,0.0,0.0,0.5093946017754766,0.15386660521439827,0.3555279965610783,0.6632612069898749,0.15386660521439827,0.6731868724649152,6,2,1,4,3,8,nan,nan,nan,nan,nan,nan,nan,nan,nan,nan,nan,nan,0.0,nan,nan,nan,nan,nan,nan,nan,nan,nan,nan,nan,nan,nan,nan,nan,nan,nan,nan,1174.5404343989212,1653.2990017556585,nan,1653.9653248784598,nan,nan,nan,nan
1,262,1,1,nan,nan,nan,0,0.0,0.0,0.0,0.0,0.0,0.0,0.0,0.0,0.0,8,6,2,1,7,0,nan,nan,nan,nan,nan,nan,nan,nan,nan,nan,nan,nan,0.0,nan,nan,nan,nan,nan,nan,nan,nan,nan,nan,nan,nan,nan,nan,nan,nan,nan,nan,1174.5404343989212,1654.3241511615925,nan,nan,nan,nan,nan,nan
1,263,1,1,1.0,1.0,0.7279657244216651,1,0.0,1.0,1.0,0.510145455943064,0.1538795687045141,0.3562658872385499,0.6640250246475782,0.1538795687045141,0.6971444236114621,0,2,1,6,3,5,1.0,1.0,1.0,1.0,1.0,1.0,0.0,1.0,1.0,0.0,0.0,0.0,2.0,6.0,2.0,1.0,7.0,6.0,0.0,3.0,2.0,1.0,6.0,5.0,4.0,4.010975157143548,2.7793191159144044,1.8049874014686793,7.786759335082024,6.9953183953184634,5.65912894369103,1174.5404343989212,1655.349333638791,1656.1576940424275,1656.0772993632127,1665.0088819628581,1666.0118583925068,1657.1828494353686,1665.0005682015326
1,264,0,0,nan,nan,nan,0,0.0,0.0,0.0,0.0,0.0,0.0,0.0,0.0,0.0,6,1,3,5,8,7,nan,nan,nan,nan,nan,nan,nan,nan,nan,nan,nan,nan,0.0,nan,nan,nan,nan,nan,nan,nan,nan,nan,nan,nan,nan,nan,nan,nan,nan,nan,nan,1174.5404343989212,1666.2674305029213,nan,nan,nan,nan,nan,nan
1,265,1,1,nan,nan,nan,0,0.0,0.0,0.0,0.0,0.0,0.0,0.0,0.0,0.0,8,6,0,7,4,2,nan,nan,nan,nan,nan,nan,nan,nan,nan,nan,nan,nan,0.0,nan,nan,nan,nan,nan,nan,nan,nan,nan,nan,nan,nan,nan,nan,nan,nan,nan,nan,1174.5404343989212,1667.2925821896642,nan,nan,nan,nan,nan,nan
1,266,1,1,1.0,1.0,0.063757463125512,1,1.0,0.0,1.0,0.5111826953167716,0.15424338166739807,0.3569393136493736,0.6654260769841697,0.15424338166739807,0.063757463125512,3,5,8,1,2,6,1.0,1.0,1.0,1.0,1.0,1.0,0.0,1.0,1.0,0.0,1.0,0.0,3.0,6.0,5.0,8.0,0.0,2.0,1.0,3.0,2.0,1.0,6.0,5.0,4.0,3.523315366357565,2.6508639343082905,1.6126692700199783,7.171008148696274,5.939605845371261,4.636436803033575,1174.5404343989212,1668.3093702227343,1669.11776996986,1668.3731276858598,1677.3355362904258,1678.3356680059806,1670.1262439566199,1677.3272017168347
1,267,1,1,1.0,1.0,0.7001982575748116,0,0.0,0.0,0.0,0.5090621965860074,0.15691569474490533,0.3521465018411021,0.6659778913309127,0.15691569474490533,0.3819778603501618,7,3,6,2,0,5,nan,nan,nan,nan,nan,nan,nan,nan,nan,nan,nan,nan,0.0,nan,nan,nan,nan,nan,nan,nan,nan,nan,nan,nan,nan,nan,nan,nan,nan,nan,nan,1174.5404343989212,1678.5607205925044,nan,1679.2609188500792,nan,nan,nan,nan
1,268,1,1,1.0,1.0,0.6514509525150061,0,0.0,0.0,0.0,0.5099637817793509,0.15709202338019748,0.3528717583991534,0.6670558051595483,0.15709202338019748,0.4718022244051099,6,1,0,4,7,8,nan,nan,nan,nan,nan,nan,nan,nan,nan,nan,nan,nan,0.0,nan,nan,nan,nan,nan,nan,nan,nan,nan,nan,nan,nan,nan,nan,nan,nan,nan,nan,1174.5404343989212,1679.5774855324998,nan,1680.2289364850149,nan,nan,nan,nan
1,269,1,1,1.0,1.0,0.6665660268627107,1,0.0,1.0,1.0,0.5106280407968891,0.15702097947515617,0.3536070613217329,0.6676490202720452,0.15702097947515617,0.6727384123175094,8,5,4,1,2,7,1.0,1.0,1.0,1.0,1.0,1.0,0.0,0.0,0.0,1.0,0.0,0.0,1.0,0.0,1.0,5.0,1.0,4.0,8.0,4.0,3.0,2.0,1.0,6.0,5.0,5.526632489170879,4.455408292589709,2.5508869704790413,1.0293745677918196,7.877396182855591,7.1973378630355,1174.5404343989212,1680.5943397085648,1681.4027462981176,1681.2609057354275,1690.3372691199183,1691.3459130255505,1682.4195588496514,1690.328938537743
1,270,1,1,1.0,1.0,0.594276987016201,0,0.0,0.0,0.0,0.5113567229747668,0.15701424528018393,0.3543424776945828,0.6683709682549507,0.15701424528018393,0.6374313221313059,6,7,2,5,4,8,nan,nan,nan,nan,nan,nan,nan,nan,nan,nan,nan,nan,0.0,nan,nan,nan,nan,nan,nan,nan,nan,nan,nan,nan,nan,nan,nan,nan,nan,nan,nan,1174.5404343989212,1691.562480791472,nan,1692.156757778488,nan,nan,nan,nan
1,271,1,1,1.0,1.0,0.6394041096791625,0,0.0,0.0,0.0,0.5117423986214711,0.1567502391843593,0.3549921594371118,0.6684926378058303,0.1567502391843593,0.6334157078526914,5,6,7,4,2,1,nan,nan,nan,nan,nan,nan,nan,nan,nan,nan,nan,nan,0.0,nan,nan,nan,nan,nan,nan,nan,nan,nan,nan,nan,nan,nan,nan,nan,nan,nan,nan,1174.5404343989212,1692.5893322362099,nan,1693.228736345889,nan,nan,nan,nan
1,272,1,1,1.0,1.0,0.7519773014355451,0,0.0,0.0,0.0,0.512333425061553,0.15662690275749472,0.3557065223040583,0.6689603278190477,0.15662690275749472,0.6618861327103028,1,4,2,8,0,3,nan,nan,nan,nan,nan,nan,nan,nan,nan,nan,nan,nan,0.0,nan,nan,nan,nan,nan,nan,nan,nan,nan,nan,nan,nan,nan,nan,nan,nan,nan,nan,1174.5404343989212,1693.6127394044306,nan,1694.3647167058662,nan,nan,nan,nan
1,273,1,1,nan,nan,nan,0,0.0,0.0,0.0,0.0,0.0,0.0,0.0,0.0,0.0,3,6,0,2,1,4,nan,nan,nan,nan,nan,nan,nan,nan,nan,nan,nan,nan,0.0,nan,nan,nan,nan,nan,nan,nan,nan,nan,nan,nan,nan,nan,nan,nan,nan,nan,nan,1174.5404343989212,1694.6378677131142,nan,nan,nan,nan,nan,nan
1,274,1,1,nan,nan,nan,0,0.0,0.0,0.0,0.0,0.0,0.0,0.0,0.0,0.0,0,7,1,4,3,5,nan,nan,nan,nan,nan,nan,nan,nan,nan,nan,nan,nan,0.0,nan,nan,nan,nan,nan,nan,nan,nan,nan,nan,nan,nan,nan,nan,nan,nan,nan,nan,1174.5404343989212,1695.6629971619695,nan,nan,nan,nan,nan,nan
1,275,1,1,1.0,1.0,0.5648693479597569,0,0.0,0.0,0.0,0.5134377747222627,0.15710622865753493,0.3563315460647278,0.6705440033797976,0.15710622865753493,0.5648693479597569,8,1,7,5,2,6,nan,nan,nan,nan,nan,nan,nan,nan,nan,nan,nan,nan,0.0,nan,nan,nan,nan,nan,nan,nan,nan,nan,nan,nan,nan,nan,nan,nan,nan,nan,nan,1174.5404343989212,1696.6798122795299,nan,1697.2446816274896,nan,nan,nan,nan
1,276,0,0,1.0,0.0,0.37204031995497644,0,0.0,0.0,0.0,0.5136736993701411,0.15678400279048518,0.35688969657965586,0.6704577021606263,0.15678400279048518,0.46845483395736665,3,4,2,7,1,0,nan,nan,nan,nan,nan,nan,nan,nan,nan,nan,nan,nan,0.0,nan,nan,nan,nan,nan,nan,nan,nan,nan,nan,nan,nan,nan,nan,nan,nan,nan,nan,1174.5404343989212,1697.696629962884,nan,1698.0686702828389,nan,nan,nan,nan
1,277,1,1,1.0,1.0,0.3948627507779747,0,0.0,0.0,0.0,0.5130269716102545,0.15671681620867575,0.35631015540157873,0.6697437878189302,0.15671681620867575,0.443924139564236,6,7,5,0,4,3,nan,nan,nan,nan,nan,nan,nan,nan,nan,nan,nan,nan,0.0,nan,nan,nan,nan,nan,nan,nan,nan,nan,nan,nan,nan,nan,nan,nan,nan,nan,nan,1174.5404343989212,1698.7217537099496,nan,1699.1166164607275,nan,nan,nan,nan
1,278,1,1,1.0,1.0,0.44173154095187783,0,0.0,0.0,0.0,0.5124898615155623,0.1565621349435036,0.35592772657205873,0.6690519964590659,0.1565621349435036,0.402878203894943,1,6,0,2,7,8,nan,nan,nan,nan,nan,nan,nan,nan,nan,nan,nan,nan,0.0,nan,nan,nan,nan,nan,nan,nan,nan,nan,nan,nan,nan,nan,nan,nan,nan,nan,nan,1174.5404343989212,1699.746876031626,nan,1700.188607572578,nan,nan,nan,nan
1,279,1,1,1.0,1.0,0.3845820939168334,0,0.0,0.0,0.0,0.5121696881193465,0.1562796910660269,0.3558899970533196,0.6684493791853734,0.1562796910660269,0.407058795215562,2,4,7,6,1,3,nan,nan,nan,nan,nan,nan,nan,nan,nan,nan,nan,nan,0.0,nan,nan,nan,nan,nan,nan,nan,nan,nan,nan,nan,nan,nan,nan,nan,nan,nan,nan,1174.5404343989212,1700.7720402625855,nan,1701.1566223565023,nan,nan,nan,nan
1,280,1,1,1.0,1.0,0.38377041812054813,0,0.0,0.0,0.0,0.5115949692265425,0.15616120992561094,0.3554337593009315,0.6677561791521534,0.15616120992561094,0.4033613509964198,4,3,8,1,5,2,nan,nan,nan,nan,nan,nan,nan,nan,nan,nan,nan,nan,0.0,nan,nan,nan,nan,nan,nan,nan,nan,nan,nan,nan,nan,nan,nan,nan,nan,nan,nan,1174.5404343989212,1701.7888419805095,nan,1702.17261239863,nan,nan,nan,nan
1,281,1,1,1.0,1.0,0.4149573578033596,0,0.0,0.0,0.0,0.5110217649614931,0.15604457308562902,0.3549771918758641,0.6670663380471221,0.15604457308562902,0.39443662328024703,7,0,3,8,1,5,nan,nan,nan,nan,nan,nan,nan,nan,nan,nan,nan,nan,0.0,nan,nan,nan,nan,nan,nan,nan,nan,nan,nan,nan,nan,nan,nan,nan,nan,nan,nan,1174.5404343989212,1702.80564027722,nan,1703.2205976350233,nan,nan,nan,nan
1,282,1,1,1.0,1.0,0.4141331377904862,0,0.0,0.0,0.0,0.5105929060009657,0.1558275264557347,0.354765379545231,0.6664204324567005,0.1558275264557347,0.40428697123813134,5,1,2,6,8,4,nan,nan,nan,nan,nan,nan,nan,nan,nan,nan,nan,nan,0.0,nan,nan,nan,nan,nan,nan,nan,nan,nan,nan,nan,nan,nan,nan,nan,nan,nan,nan,1174.5404343989212,1703.8224408547394,nan,1704.2365739925299,nan,nan,nan,nan
1,283,1,1,1.0,1.0,0.3409945040475577,0,0.0,0.0,0.0,0.5101641959200303,0.15561319518318814,0.3545510007368421,0.6657773911032184,0.15561319518318814,0.3900283332138012,8,3,1,5,7,6,nan,nan,nan,nan,nan,nan,nan,nan,nan,nan,nan,nan,0.0,nan,nan,nan,nan,nan,nan,nan,nan,nan,nan,nan,nan,nan,nan,nan,nan,nan,nan,1174.5404343989212,1704.8475705888122,nan,1705.1885650928598,nan,nan,nan,nan
1,284,0,0,0.0,1.0,0.5001548086293042,0,0.0,0.0,0.0,0.5094156574604176,0.1556739803047945,0.3537416771556231,0.6650896377652121,0.1556739803047945,0.418427483489116,7,1,2,6,8,0,nan,nan,nan,nan,nan,nan,nan,nan,nan,nan,nan,nan,0.0,nan,nan,nan,nan,nan,nan,nan,nan,nan,nan,nan,nan,nan,nan,nan,nan,nan,nan,1174.5404343989212,1705.8643831405789,nan,1706.3645379492082,nan,nan,nan,nan