block,trial,freq_trials,correct_response,actual_response,acc,rts,probe_trials,trials_colorind0,trials_colorind1,trials_colorind2,trials_colorind3,trials_colorind4,trials_colorind5,wholereport_resp0,wholereport_resp1,wholereport_resp2,wholereport_resp3,wholereport_resp4,wholereport_resp5,wholereport_respacc0,wholereport_respacc1,wholereport_respacc2,wholereport_respacc3,wholereport_respacc4,wholereport_respacc5,wholereport_respacc_total,wholereport_respcolorind0,wholereport_respcolorind1,wholereport_respcolorind2,wholereport_respcolorind3,wholereport_respcolorind4,wholereport_respcolorind5,wholereport_resporder0,wholereport_resporder1,wholereport_resporder2,wholereport_resporder3,wholereport_resporder4,wholereport_resporder5,wholereport_rts0,wholereport_rts1,wholereport_rts2,wholereport_rts3,wholereport_rts4,wholereport_rts5,time_blockstart,time_encarray_offset,time_encarray_onset,time_response,time_iti_offset,time_iti_onset,time_memprobe_offset,time_memprobe_onset
1,1,1,1,nan,nan,nan,0,8,0,1,2,4,7,nan,nan,nan,nan,nan,nan,nan,nan,nan,nan,nan,nan,0.0,nan,nan,nan,nan,nan,nan,nan,nan,nan,nan,nan,nan,nan,nan,nan,nan,nan,nan,254.03583925997373,255.05690678860992,nan,nan,nan,nan,nan,nan
1,2,1,1,nan,nan,nan,0,4,3,5,1,2,6,nan,nan,nan,nan,nan,nan,nan,nan,nan,nan,nan,nan,0.0,nan,nan,nan,nan,nan,nan,nan,nan,nan,nan,nan,nan,nan,nan,nan,nan,nan,nan,254.03583925997373,256.0654095218051,nan,nan,nan,nan,nan,nan
1,3,1,1,nan,nan,nan,0,7,6,3,2,0,1,nan,nan,nan,nan,nan,nan,nan,nan,nan,nan,nan,nan,0.0,nan,nan,nan,nan,nan,nan,nan,nan,nan,nan,nan,nan,nan,nan,nan,nan,nan,nan,254.03583925997373,257.06546169461217,nan,nan,nan,nan,nan,nan
1,4,1,1,0.0,0.0,0.010187941719777882,0,3,4,6,8,1,0,nan,nan,nan,nan,nan,nan,nan,nan,nan,nan,nan,nan,0.0,nan,nan,nan,nan,nan,nan,nan,nan,nan,nan,nan,nan,nan,nan,nan,nan,nan,nan,254.03583925997373,258.06558998825494,nan,258.0757779299747,nan,nan,nan,nan
1,5,1,1,nan,nan,nan,0,5,3,7,6,4,8,nan,nan,nan,nan,nan,nan,nan,nan,nan,nan,nan,nan,0.0,nan,nan,nan,nan,nan,nan,nan,nan,nan,nan,nan,nan,nan,nan,nan,nan,nan,nan,254.03583925997373,259.07405252277385,nan,nan,nan,nan,nan,nan
1,6,1,1,1.0,1.0,0.48149606375955045,0,1,4,5,8,3,2,nan,nan,nan,nan,nan,nan,nan,nan,nan,nan,nan,nan,0.0,nan,nan,nan,nan,nan,nan,nan,nan,nan,nan,nan,nan,nan,nan,nan,nan,nan,nan,254.03583925997373,260.074205334764,nan,260.5557013985235,nan,nan,nan,nan
1,7,1,1,1.0,1.0,0.13736373069696128,0,0,3,8,1,2,5,nan,nan,nan,nan,nan,nan,nan,nan,nan,nan,nan,nan,0.0,nan,nan,nan,nan,nan,nan,nan,nan,nan,nan,nan,nan,nan,nan,nan,nan,nan,nan,254.03583925997373,261.07430682936683,nan,261.2116705600638,nan,nan,nan,nan
1,8,1,1,1.0,1.0,0.3451943192631006,0,6,1,4,3,5,7,nan,nan,nan,nan,nan,nan,nan,nan,nan,nan,nan,nan,0.0,nan,nan,nan,nan,nan,nan,nan,nan,nan,nan,nan,nan,nan,nan,nan,nan,nan,nan,254.03583925997373,262.0744553648401,nan,262.4196496841032,nan,nan,nan,nan
1,9,1,1,1.0,1.0,0.28910062718205154,0,1,7,8,6,4,5,nan,nan,nan,nan,nan,nan,nan,nan,nan,nan,nan,nan,0.0,nan,nan,nan,nan,nan,nan,nan,nan,nan,nan,nan,nan,nan,nan,nan,nan,nan,nan,254.03583925997373,263.07454174931627,nan,263.3636423764983,nan,nan,nan,nan
1,10,1,1,1.0,1.0,0.32895804452709854,0,6,0,3,4,2,1,nan,nan,nan,nan,nan,nan,nan,nan,nan,nan,nan,nan,0.0,nan,nan,nan,nan,nan,nan,nan,nan,nan,nan,nan,nan,nan,nan,nan,nan,nan,nan,254.03583925997373,264.07467660016846,nan,264.40363464469556,nan,nan,nan,nan
1,11,0,0,0.0,1.0,0.5688246989157051,0,0,1,2,8,6,5,nan,nan,nan,nan,nan,nan,nan,nan,nan,nan,nan,nan,0.0,nan,nan,nan,nan,nan,nan,nan,nan,nan,nan,nan,nan,nan,nan,nan,nan,nan,nan,254.03583925997373,265.07478465198074,nan,265.64360935089644,nan,nan,nan,nan
1,12,1,1,1.0,1.0,0.48866368760354817,0,4,7,3,5,8,1,nan,nan,nan,nan,nan,nan,nan,nan,nan,nan,nan,nan,0.0,nan,nan,nan,nan,nan,nan,nan,nan,nan,nan,nan,nan,nan,nan,nan,nan,nan,nan,254.03583925997373,266.074903822504,nan,266.56356751010753,nan,nan,nan,nan
1,13,1,1,1.0,1.0,0.4725021083140746,0,5,4,6,3,2,0,nan,nan,nan,nan,nan,nan,nan,nan,nan,nan,nan,nan,0.0,nan,nan,nan,nan,nan,nan,nan,nan,nan,nan,nan,nan,nan,nan,nan,nan,nan,nan,254.03583925997373,267.0750477964757,nan,267.5475499047898,nan,nan,nan,nan
1,14,1,1,1.0,1.0,0.44835809781216085,0,4,0,2,7,6,8,nan,nan,nan,nan,nan,nan,nan,nan,nan,nan,nan,nan,0.0,nan,nan,nan,nan,nan,nan,nan,nan,nan,nan,nan,nan,nan,nan,nan,nan,nan,nan,254.03583925997373,268.075174949714,nan,268.52353304752614,nan,nan,nan,nan
1,15,0,0,0.0,1.0,0.5282109193503857,0,2,8,4,3,7,1,nan,nan,nan,nan,nan,nan,nan,nan,nan,nan,nan,nan,0.0,nan,nan,nan,nan,nan,nan,nan,nan,nan,nan,nan,nan,nan,nan,nan,nan,nan,nan,254.03583925997373,269.07531436218414,nan,269.60352528153453,nan,nan,nan,nan
1,16,1,1,1.0,1.0,0.6880770719144493,0,8,7,1,4,0,2,nan,nan,nan,nan,nan,nan,nan,nan,nan,nan,nan,nan,0.0,nan,nan,nan,nan,nan,nan,nan,nan,nan,nan,nan,nan,nan,nan,nan,nan,nan,nan,254.03583925997373,270.07543780922424,nan,270.7635148811387,nan,nan,nan,nan
1,17,1,1,1.0,1.0,0.49593679734971374,0,7,0,3,1,2,5,nan,nan,nan,nan,nan,nan,nan,nan,nan,nan,nan,nan,0.0,nan,nan,nan,nan,nan,nan,nan,nan,nan,nan,nan,nan,nan,nan,nan,nan,nan,nan,254.03583925997373,271.07554899703246,nan,271.57148579438217,nan,nan,nan,nan
1,18,1,1,1.0,1.0,0.39980237069539726,0,4,2,5,7,8,1,nan,nan,nan,nan,nan,nan,nan,nan,nan,nan,nan,nan,0.0,nan,nan,nan,nan,nan,nan,nan,nan,nan,nan,nan,nan,nan,nan,nan,nan,nan,nan,254.03583925997373,272.07567215897143,nan,272.4754745296668,nan,nan,nan,nan
1,19,1,1,1.0,1.0,0.5356468195095658,0,6,7,2,3,1,8,nan,nan,nan,nan,nan,nan,nan,nan,nan,nan,nan,nan,0.0,nan,nan,nan,nan,nan,nan,nan,nan,nan,nan,nan,nan,nan,nan,nan,nan,nan,nan,254.03583925997373,273.0758015930187,nan,273.61144841252826,nan,nan,nan,nan
1,20,1,1,1.0,1.0,0.43146752554457635,0,7,8,0,6,3,4,nan,nan,nan,nan,nan,nan,nan,nan,nan,nan,nan,nan,0.0,nan,nan,nan,nan,nan,nan,nan,nan,nan,nan,nan,nan,nan,nan,nan,nan,nan,nan,254.03583925997373,274.0759238995379,nan,274.50739142508246,nan,nan,nan,nan
1,21,1,1,nan,nan,nan,0,5,0,6,2,7,8,nan,nan,nan,nan,nan,nan,nan,nan,nan,nan,nan,nan,0.0,nan,nan,nan,nan,nan,nan,nan,nan,nan,nan,nan,nan,nan,nan,nan,nan,nan,nan,254.03583925997373,275.0760524782818,nan,nan,nan,nan,nan,nan
1,22,1,1,1.0,1.0,0.16720854106824845,0,3,6,5,1,4,7,nan,nan,nan,nan,nan,nan,nan,nan,nan,nan,nan,nan,0.0,nan,nan,nan,nan,nan,nan,nan,nan,nan,nan,nan,nan,nan,nan,nan,nan,nan,nan,254.03583925997373,276.07617706572637,nan,276.2433856067946,nan,nan,nan,nan
1,23,1,1,1.0,1.0,0.5430276960832998,0,4,2,3,8,1,0,nan,nan,nan,nan,nan,nan,nan,nan,nan,nan,nan,nan,0.0,nan,nan,nan,nan,nan,nan,nan,nan,nan,nan,nan,nan,nan,nan,nan,nan,nan,nan,254.03583925997373,277.0762899641413,nan,277.6193176602246,nan,nan,nan,nan
1,24,1,1,1.0,1.0,0.3108717753784731,1,7,8,6,4,5,2,1.0,1.0,1.0,1.0,1.0,1.0,0.0,0.0,0.0,0.0,0.0,1.0,1.0,2.0,5.0,4.0,8.0,8.0,2.0,2.0,1.0,6.0,5.0,4.0,3.0,3.395428982679732,1.9070138996466994,10.569860456394963,6.722253931337036,5.594080587849021,4.779054949060082,254.03583925997373,278.0764487631386,278.884842190193,278.3873205385171,290.5029513242189,291.5029704257613,279.8932907549897,290.49462563626
1,25,1,1,nan,nan,nan,0,8,2,3,5,1,4,nan,nan,nan,nan,nan,nan,nan,nan,nan,nan,nan,nan,0.0,nan,nan,nan,nan,nan,nan,nan,nan,nan,nan,nan,nan,nan,nan,nan,nan,nan,nan,254.03583925997373,291.70312962390017,nan,nan,nan,nan,nan,nan
1,26,1,1,1.0,1.0,0.3554886020720005,0,2,3,5,6,4,0,nan,nan,nan,nan,nan,nan,nan,nan,nan,nan,nan,nan,0.0,nan,nan,nan,nan,nan,nan,nan,nan,nan,nan,nan,nan,nan,nan,nan,nan,nan,nan,254.03583925997373,292.7115958647337,nan,293.0670844668057,nan,nan,nan,nan
1,27,1,1,1.0,1.0,0.03527875931467861,0,0,2,1,8,7,3,nan,nan,nan,nan,nan,nan,nan,nan,nan,nan,nan,nan,0.0,nan,nan,nan,nan,nan,nan,nan,nan,nan,nan,nan,nan,nan,nan,nan,nan,nan,nan,254.03583925997373,293.71173670259304,nan,293.7470154619077,nan,nan,nan,nan
1,28,1,1,1.0,1.0,0.17112092731986195,0,3,8,5,0,6,2,nan,nan,nan,nan,nan,nan,nan,nan,nan,nan,nan,nan,0.0,nan,nan,nan,nan,nan,nan,nan,nan,nan,nan,nan,nan,nan,nan,nan,nan,nan,nan,254.03583925997373,294.71186556643806,nan,294.8829864937579,nan,nan,nan,nan
1,29,1,1,1.0,1.0,0.20299534313380718,0,0,7,1,6,5,3,nan,nan,nan,nan,nan,nan,nan,nan,nan,nan,nan,nan,0.0,nan,nan,nan,nan,nan,nan,nan,nan,nan,nan,nan,nan,nan,nan,nan,nan,nan,nan,254.03583925997373,295.71195964852814,nan,295.91495499166194,nan,nan,nan,nan
1,30,1,1,1.0,1.0,0.3068530479213223,1,7,5,2,4,3,0,1.0,1.0,1.0,1.0,1.0,1.0,1.0,1.0,0.0,1.0,0.0,0.0,3.0,7.0,5.0,6.0,4.0,0.0,1.0,3.0,1.0,2.0,6.0,5.0,4.0,4.414530767360702,1.9421087712980807,3.039244743762538,7.973598876502365,6.526549088768661,5.422534010605887,254.03583925997373,296.71207824884914,297.5205164360814,297.01893129677046,306.5466541299829,307.55507504031993,298.53730323316995,306.5383290122263
1,31,1,1,nan,nan,nan,0,4,1,7,2,8,3,nan,nan,nan,nan,nan,nan,nan,nan,nan,nan,nan,nan,0.0,nan,nan,nan,nan,nan,nan,nan,nan,nan,nan,nan,nan,nan,nan,nan,nan,nan,nan,254.03583925997373,307.76347382715903,nan,nan,nan,nan,nan,nan
1,32,1,1,1.0,1.0,0.08708145620767027,0,8,0,1,3,4,5,nan,nan,nan,nan,nan,nan,nan,nan,nan,nan,nan,nan,0.0,nan,nan,nan,nan,nan,nan,nan,nan,nan,nan,nan,nan,nan,nan,nan,nan,nan,nan,254.03583925997373,308.76362521375995,nan,308.8507066699676,nan,nan,nan,nan
1,33,1,1,1.0,1.0,0.038967629545368254,0,7,3,0,6,5,4,nan,nan,nan,nan,nan,nan,nan,nan,nan,nan,nan,nan,0.0,nan,nan,nan,nan,nan,nan,nan,nan,nan,nan,nan,nan,nan,nan,nan,nan,nan,nan,254.03583925997373,309.76372870395426,nan,309.8026963334996,nan,nan,nan,nan
1,34,1,1,nan,nan,nan,0,8,5,3,1,4,7,nan,nan,nan,nan,nan,nan,nan,nan,nan,nan,nan,nan,0.0,nan,nan,nan,nan,nan,nan,nan,nan,nan,nan,nan,nan,nan,nan,nan,nan,nan,nan,254.03583925997373,310.7638125224039,nan,nan,nan,nan,nan,nan
1,35,1,1,1.0,1.0,0.4706632326124236,0,3,7,5,0,2,6,nan,nan,nan,nan,nan,nan,nan,nan,nan,nan,nan,nan,0.0,nan,nan,nan,nan,nan,nan,nan,nan,nan,nan,nan,nan,nan,nan,nan,nan,nan,nan,254.03583925997373,311.76395307527855,nan,312.234616307891,nan,nan,nan,nan
1,36,1,1,1.0,1.0,0.43049477448221296,0,7,5,8,6,3,1,nan,nan,nan,nan,nan,nan,nan,nan,nan,nan,nan,nan,0.0,nan,nan,nan,nan,nan,nan,nan,nan,nan,nan,nan,nan,nan,nan,nan,nan,nan,nan,254.03583925997373,312.7641050319653,nan,313.1945998064475,nan,nan,nan,nan
1,37,1,1,1.0,1.0,0.3903679405339062,0,2,4,6,1,0,5,nan,nan,nan,nan,nan,nan,nan,nan,nan,nan,nan,nan,0.0,nan,nan,nan,nan,nan,nan,nan,nan,nan,nan,nan,nan,nan,nan,nan,nan,nan,nan,254.03583925997373,313.7642413083231,nan,314.154609248857,nan,nan,nan,nan
1,38,1,1,1.0,1.0,0.47822286491282284,0,0,2,8,5,6,1,nan,nan,nan,nan,nan,nan,nan,nan,nan,nan,nan,nan,0.0,nan,nan,nan,nan,nan,nan,nan,nan,nan,nan,nan,nan,nan,nan,nan,nan,nan,nan,254.03583925997373,314.76434993033763,nan,315.24257279525045,nan,nan,nan,nan
1,39,1,1,nan,nan,nan,0,1,0,4,8,7,3,nan,nan,nan,nan,nan,nan,nan,nan,nan,nan,nan,nan,0.0,nan,nan,nan,nan,nan,nan,nan,nan,nan,nan,nan,nan,nan,nan,nan,nan,nan,nan,254.03583925997373,315.7644708114676,nan,nan,nan,nan,nan,nan
1,40,1,1,1.0,1.0,0.25394246401265264,0,0,6,1,4,8,5,nan,nan,nan,nan,nan,nan,nan,nan,nan,nan,nan,nan,0.0,nan,nan,nan,nan,nan,nan,nan,nan,nan,nan,nan,nan,nan,nan,nan,nan,nan,nan,254.03583925997373,316.76459967531264,nan,317.0185421393253,nan,nan,nan,nan
1,41,0,0,1.0,0.0,0.037797021213918924,0,7,1,3,2,5,6,nan,nan,nan,nan,nan,nan,nan,nan,nan,nan,nan,nan,0.0,nan,nan,nan,nan,nan,nan,nan,nan,nan,nan,nan,nan,nan,nan,nan,nan,nan,nan,254.03583925997373,317.76472084154375,nan,317.80251786275767,nan,nan,nan,nan
1,42,1,1,0.0,0.0,0.15762215410359204,0,2,5,1,3,7,0,nan,nan,nan,nan,nan,nan,nan,nan,nan,nan,nan,nan,0.0,nan,nan,nan,nan,nan,nan,nan,nan,nan,nan,nan,nan,nan,nan,nan,nan,nan,nan,254.03583925997373,318.76484685437754,nan,318.92246900848113,nan,nan,nan,nan
1,43,1,1,1.0,1.0,0.5734424153342843,0,8,1,5,2,4,7,nan,nan,nan,nan,nan,nan,nan,nan,nan,nan,nan,nan,0.0,nan,nan,nan,nan,nan,nan,nan,nan,nan,nan,nan,nan,nan,nan,nan,nan,nan,nan,254.03583925997373,319.7649988110643,nan,320.3384412263986,nan,nan,nan,nan
1,44,1,1,1.0,1.0,0.7253349748207256,0,5,8,2,6,1,4,nan,nan,nan,nan,nan,nan,nan,nan,nan,nan,nan,nan,0.0,nan,nan,nan,nan,nan,nan,nan,nan,nan,nan,nan,nan,nan,nan,nan,nan,nan,nan,254.03583925997373,320.7651045820676,nan,321.4904395568883,nan,nan,nan,nan
1,45,1,1,1.0,1.0,0.6691808422328904,0,8,6,1,4,2,5,nan,nan,nan,nan,nan,nan,nan,nan,nan,nan,nan,nan,0.0,nan,nan,nan,nan,nan,nan,nan,nan,nan,nan,nan,nan,nan,nan,nan,nan,nan,nan,254.03583925997373,321.7652257482987,nan,322.4344065905316,nan,nan,nan,nan
1,46,1,1,1.0,1.0,0.4530339738121256,0,1,3,8,0,6,7,nan,nan,nan,nan,nan,nan,nan,nan,nan,nan,nan,nan,0.0,nan,nan,nan,nan,nan,nan,nan,nan,nan,nan,nan,nan,nan,nan,nan,nan,nan,nan,254.03583925997373,322.76536744157784,nan,323.21840141538996,nan,nan,nan,nan
1,47,1,1,1.0,1.0,0.40490361163392663,0,8,4,3,7,1,0,nan,nan,nan,nan,nan,nan,nan,nan,nan,nan,nan,nan,0.0,nan,nan,nan,nan,nan,nan,nan,nan,nan,nan,nan,nan,nan,nan,nan,nan,nan,nan,254.03583925997373,323.7654752081726,nan,324.1703788198065,nan,nan,nan,nan
1,48,1,1,1.0,1.0,0.5887561159906909,0,0,5,6,4,8,2,nan,nan,nan,nan,nan,nan,nan,nan,nan,nan,nan,nan,0.0,nan,nan,nan,nan,nan,nan,nan,nan,nan,nan,nan,nan,nan,nan,nan,nan,nan,nan,254.03583925997373,324.7656029317295,nan,325.3543590477202,nan,nan,nan,nan
1,49,1,1,nan,nan,nan,0,2,6,4,8,7,1,nan,nan,nan,nan,nan,nan,nan,nan,nan,nan,nan,nan,0.0,nan,nan,nan,nan,nan,nan,nan,nan,nan,nan,nan,nan,nan,nan,nan,nan,nan,nan,254.03583925997373,325.76572837436106,nan,nan,nan,nan,nan,nan
1,50,1,1,nan,nan,nan,0,1,4,6,2,8,3,nan,nan,nan,nan,nan,nan,nan,nan,nan,nan,nan,nan,0.0,nan,nan,nan,nan,nan,nan,nan,nan,nan,nan,nan,nan,nan,nan,nan,nan,nan,nan,254.03583925997373,326.7658609445207,nan,nan,nan,nan,nan,nan
1,51,1,1,1.0,1.0,0.3003343048039824,0,3,6,5,7,0,8,nan,nan,nan,nan,nan,nan,nan,nan,nan,nan,nan,nan,0.0,nan,nan,nan,nan,nan,nan,nan,nan,nan,nan,nan,nan,nan,nan,nan,nan,nan,nan,254.03583925997373,327.7660026376834,nan,328.0663369424874,nan,nan,nan,nan
1,52,1,1,nan,nan,nan,0,5,7,8,6,2,3,nan,nan,nan,nan,nan,nan,nan,nan,nan,nan,nan,nan,0.0,nan,nan,nan,nan,nan,nan,nan,nan,nan,nan,nan,nan,nan,nan,nan,nan,nan,nan,254.03583925997373,328.7660907326499,nan,nan,nan,nan,nan,nan
1,53,1,1,nan,nan,nan,0,6,0,1,7,3,8,nan,nan,nan,nan,nan,nan,nan,nan,nan,nan,nan,nan,0.0,nan,nan,nan,nan,nan,nan,nan,nan,nan,nan,nan,nan,nan,nan,nan,nan,nan,nan,254.03583925997373,329.76624782115687,nan,nan,nan,nan,nan,nan
1,54,0,0,1.0,0.0,0.21989617904182523,0,5,6,8,4,1,7,nan,nan,nan,nan,nan,nan,nan,nan,nan,nan,nan,nan,0.0,nan,nan,nan,nan,nan,nan,nan,nan,nan,nan,nan,nan,nan,nan,nan,nan,nan,nan,254.03583925997373,330.76635843876284,nan,330.98625461780466,nan,nan,nan,nan
1,55,1,1,nan,nan,nan,0,4,0,3,7,8,5,nan,nan,nan,nan,nan,nan,nan,nan,nan,nan,nan,nan,0.0,nan,nan,nan,nan,nan,nan,nan,nan,nan,nan,nan,nan,nan,nan,nan,nan,nan,nan,254.03583925997373,331.7664716222789,nan,nan,nan,nan,nan,nan
1,56,1,1,1.0,1.0,0.7715523361694068,0,0,1,4,8,2,3,nan,nan,nan,nan,nan,nan,nan,nan,nan,nan,nan,nan,0.0,nan,nan,nan,nan,nan,nan,nan,nan,nan,nan,nan,nan,nan,nan,nan,nan,nan,nan,254.03583925997373,332.7665987755172,nan,333.5381511116866,nan,nan,nan,nan
1,57,1,1,1.0,1.0,0.5554402496200055,0,4,6,0,5,8,7,nan,nan,nan,nan,nan,nan,nan,nan,nan,nan,nan,nan,0.0,nan,nan,nan,nan,nan,nan,nan,nan,nan,nan,nan,nan,nan,nan,nan,nan,nan,nan,254.03583925997373,333.76673790288623,nan,334.32217815250624,nan,nan,nan,nan
1,58,1,1,1.0,1.0,0.6513069702778012,0,0,3,5,7,6,4,nan,nan,nan,nan,nan,nan,nan,nan,nan,nan,nan,nan,0.0,nan,nan,nan,nan,nan,nan,nan,nan,nan,nan,nan,nan,nan,nan,nan,nan,nan,nan,254.03583925997373,334.7668545074994,nan,335.4181614777772,nan,nan,nan,nan
1,59,1,1,1.0,1.0,0.6751416503684595,0,2,4,3,0,1,6,nan,nan,nan,nan,nan,nan,nan,nan,nan,nan,nan,nan,0.0,nan,nan,nan,nan,nan,nan,nan,nan,nan,nan,nan,nan,nan,nan,nan,nan,nan,nan,254.03583925997373,335.7669822310563,nan,336.4421238814248,nan,nan,nan,nan
1,60,1,1,1.0,1.0,0.5710302094230428,1,5,3,1,6,7,0,1.0,1.0,1.0,1.0,1.0,1.0,1.0,1.0,0.0,0.0,0.0,0.0,2.0,5.0,3.0,0.0,5.0,4.0,6.0,2.0,1.0,6.0,5.0,4.0,3.0,3.62213441869244,1.7269067146116868,7.629998249583878,6.590624071657658,5.751382863149047,4.767465755576268,254.03583925997373,336.7671033972874,337.57551393005997,337.33813360671047,346.2599320670124,347.25626771512907,338.59232011367567,346.25161151075736
1,61,1,1,1.0,1.0,0.5897645041113719,0,4,0,5,1,6,8,nan,nan,nan,nan,nan,nan,nan,nan,nan,nan,nan,nan,0.0,nan,nan,nan,nan,nan,nan,nan,nan,nan,nan,nan,nan,nan,nan,nan,nan,nan,nan,254.03583925997373,347.46012120041996,nan,348.04988570453133,nan,nan,nan,nan
1,62,1,1,1.0,1.0,0.25364254193846136,0,2,3,8,4,7,1,nan,nan,nan,nan,nan,nan,nan,nan,nan,nan,nan,nan,0.0,nan,nan,nan,nan,nan,nan,nan,nan,nan,nan,nan,nan,nan,nan,nan,nan,nan,nan,254.03583925997373,348.4602289671311,nan,348.7138715090696,nan,nan,nan,nan
1,63,1,1,1.0,1.0,0.02951267233584076,0,0,6,5,1,4,8,nan,nan,nan,nan,nan,nan,nan,nan,nan,nan,nan,nan,0.0,nan,nan,nan,nan,nan,nan,nan,nan,nan,nan,nan,nan,nan,nan,nan,nan,nan,nan,254.03583925997373,349.46036837948486,nan,349.4898810518207,nan,nan,nan,nan
1,64,1,1,1.0,1.0,0.04533127986360341,0,7,8,3,4,1,6,nan,nan,nan,nan,nan,nan,nan,nan,nan,nan,nan,nan,0.0,nan,nan,nan,nan,nan,nan,nan,nan,nan,nan,nan,nan,nan,nan,nan,nan,nan,nan,254.03583925997373,350.46049068612047,nan,350.50582196598407,nan,nan,nan,nan
1,65,1,1,1.0,1.0,0.0931731240125373,0,0,4,2,8,5,7,nan,nan,nan,nan,nan,nan,nan,nan,nan,nan,nan,nan,0.0,nan,nan,nan,nan,nan,nan,nan,nan,nan,nan,nan,nan,nan,nan,nan,nan,nan,nan,254.03583925997373,351.4606434981106,nan,351.5538166221231,nan,nan,nan,nan
1,66,1,1,1.0,1.0,0.4050290542654693,0,2,8,0,1,4,5,nan,nan,nan,nan,nan,nan,nan,nan,nan,nan,nan,nan,0.0,nan,nan,nan,nan,nan,nan,nan,nan,nan,nan,nan,nan,nan,nan,nan,nan,nan,nan,254.03583925997373,352.4607321632793,nan,352.8657612175448,nan,nan,nan,nan
1,67,1,1,1.0,1.0,0.28487691504415125,0,4,1,3,6,0,2,nan,nan,nan,nan,nan,nan,nan,nan,nan,nan,nan,nan,0.0,nan,nan,nan,nan,nan,nan,nan,nan,nan,nan,nan,nan,nan,nan,nan,nan,nan,nan,254.03583925997373,353.460902081104,nan,353.74577899614815,nan,nan,nan,nan
1,68,1,1,1.0,1.0,0.2607705374248326,0,7,6,0,2,4,5,nan,nan,nan,nan,nan,nan,nan,nan,nan,nan,nan,nan,0.0,nan,nan,nan,nan,nan,nan,nan,nan,nan,nan,nan,nan,nan,nan,nan,nan,nan,nan,254.03583925997373,354.4609824784566,nan,354.7217530158814,nan,nan,nan,nan
1,69,1,1,1.0,1.0,0.2286344023887068,0,6,2,8,7,0,4,nan,nan,nan,nan,nan,nan,nan,nan,nan,nan,nan,nan,0.0,nan,nan,nan,nan,nan,nan,nan,nan,nan,nan,nan,nan,nan,nan,nan,nan,nan,nan,254.03583925997373,355.4611139082117,nan,355.6897483106004,nan,nan,nan,nan
1,70,0,0,1.0,0.0,0.2284479490481317,0,4,5,7,2,3,1,nan,nan,nan,nan,nan,nan,nan,nan,nan,nan,nan,nan,0.0,nan,nan,nan,nan,nan,nan,nan,nan,nan,nan,nan,nan,nan,nan,nan,nan,nan,nan,254.03583925997373,356.46124106145,nan,356.6896890104981,nan,nan,nan,nan
1,71,1,1,1.0,1.0,0.5723114353604615,1,8,3,2,6,5,7,1.0,1.0,1.0,1.0,1.0,1.0,1.0,0.0,0.0,0.0,0.0,0.0,1.0,8.0,5.0,0.0,4.0,7.0,8.0,1.0,2.0,6.0,5.0,4.0,3.0,1.8650145485298708,2.6898318440653384,9.703820699127391,8.816189119708724,5.639939012005925,4.84830529789906,254.03583925997373,357.46135538537055,358.26977133506443,358.033666820731,369.0211370922625,370.031795443967,359.2782424225006,369.0128131149104
1,72,0,0,0.0,1.0,0.7874373713275418,0,1,6,4,7,8,2,nan,nan,nan,nan,nan,nan,nan,nan,nan,nan,nan,nan,0.0,nan,nan,nan,nan,nan,nan,nan,nan,nan,nan,nan,nan,nan,nan,nan,nan,nan,nan,254.03583925997373,370.2379562193528,nan,371.0253935906803,nan,nan,nan,nan
1,73,1,1,1.0,1.0,0.6352953519672155,0,2,4,0,5,1,8,nan,nan,nan,nan,nan,nan,nan,nan,nan,nan,nan,nan,0.0,nan,nan,nan,nan,nan,nan,nan,nan,nan,nan,nan,nan,nan,nan,nan,nan,nan,nan,254.03583925997373,371.2380902149016,nan,371.8733855668688,nan,nan,nan,nan
1,74,1,1,1.0,1.0,0.4831864038715139,0,4,6,1,3,2,0,nan,nan,nan,nan,nan,nan,nan,nan,nan,nan,nan,nan,0.0,nan,nan,nan,nan,nan,nan,nan,nan,nan,nan,nan,nan,nan,nan,nan,nan,nan,nan,254.03583925997373,372.2381874329876,nan,372.72137383685913,nan,nan,nan,nan
1,75,1,1,1.0,1.0,0.3710115640424192,0,5,0,3,4,6,7,nan,nan,nan,nan,nan,nan,nan,nan,nan,nan,nan,nan,0.0,nan,nan,nan,nan,nan,nan,nan,nan,nan,nan,nan,nan,nan,nan,nan,nan,nan,nan,254.03583925997373,373.23836077202577,nan,373.6093723360682,nan,nan,nan,nan
1,76,1,1,1.0,1.0,0.25888176972512156,0,3,6,2,8,4,5,nan,nan,nan,nan,nan,nan,nan,nan,nan,nan,nan,nan,0.0,nan,nan,nan,nan,nan,nan,nan,nan,nan,nan,nan,nan,nan,nan,nan,nan,nan,nan,254.03583925997373,374.238479942549,nan,374.49736171227414,nan,nan,nan,nan
1,77,0,0,0.0,1.0,0.5707639288157225,0,0,4,3,1,7,2,nan,nan,nan,nan,nan,nan,nan,nan,nan,nan,nan,nan,0.0,nan,nan,nan,nan,nan,nan,nan,nan,nan,nan,nan,nan,nan,nan,nan,nan,nan,nan,254.03583925997373,375.2385845731478,nan,375.80934850196354,nan,nan,nan,nan
1,78,1,1,1.0,1.0,0.47460640931967646,0,7,0,8,3,4,5,nan,nan,nan,nan,nan,nan,nan,nan,nan,nan,nan,nan,0.0,nan,nan,nan,nan,nan,nan,nan,nan,nan,nan,nan,nan,nan,nan,nan,nan,nan,nan,254.03583925997373,376.2387191388989,nan,376.71332554821856,nan,nan,nan,nan
1,79,0,0,0.0,1.0,0.5144544184440747,0,6,1,0,2,5,3,nan,nan,nan,nan,nan,nan,nan,nan,nan,nan,nan,nan,0.0,nan,nan,nan,nan,nan,nan,nan,nan,nan,nan,nan,nan,nan,nan,nan,nan,nan,nan,254.03583925997373,377.2388414455345,nan,377.75329586397856,nan,nan,nan,nan
1,80,1,1,1.0,1.0,0.4343011046294123,0,5,3,8,6,1,7,nan,nan,nan,nan,nan,nan,nan,nan,nan,nan,nan,nan,0.0,nan,nan,nan,nan,nan,nan,nan,nan,nan,nan,nan,nan,nan,nan,nan,nan,nan,nan,254.03583925997373,378.2389623266645,nan,378.6732634312939,nan,nan,nan,nan
1,81,1,1,1.0,1.0,0.4101322906790301,0,6,2,7,1,5,3,nan,nan,nan,nan,nan,nan,nan,nan,nan,nan,nan,nan,0.0,nan,nan,nan,nan,nan,nan,nan,nan,nan,nan,nan,nan,nan,nan,nan,nan,nan,nan,254.03583925997373,379.23909318621736,nan,379.6492254768964,nan,nan,nan,nan
1,82,1,1,1.0,1.0,0.338029261212796,0,8,4,6,2,1,5,nan,nan,nan,nan,nan,nan,nan,nan,nan,nan,nan,nan,0.0,nan,nan,nan,nan,nan,nan,nan,nan,nan,nan,nan,nan,nan,nan,nan,nan,nan,nan,254.03583925997373,380.239210931235,nan,380.5772401924478,nan,nan,nan,nan
1,83,1,1,1.0,1.0,0.3538892079377547,0,5,1,4,7,8,0,nan,nan,nan,nan,nan,nan,nan,nan,nan,nan,nan,nan,0.0,nan,nan,nan,nan,nan,nan,nan,nan,nan,nan,nan,nan,nan,nan,nan,nan,nan,nan,254.03583925997373,381.2393178426428,nan,381.59320705058053,nan,nan,nan,nan
1,84,1,1,1.0,1.0,0.4097630900796503,0,7,8,1,0,6,2,nan,nan,nan,nan,nan,nan,nan,nan,nan,nan,nan,nan,0.0,nan,nan,nan,nan,nan,nan,nan,nan,nan,nan,nan,nan,nan,nan,nan,nan,nan,nan,254.03583925997373,382.2394401492784,nan,382.64920323935803,nan,nan,nan,nan
1,85,1,1,1.0,1.0,0.36960632097907364,0,6,2,5,3,0,4,nan,nan,nan,nan,nan,nan,nan,nan,nan,nan,nan,nan,0.0,nan,nan,nan,nan,nan,nan,nan,nan,nan,nan,nan,nan,nan,nan,nan,nan,nan,nan,254.03583925997373,383.23956730251666,nan,383.60917362349574,nan,nan,nan,nan
1,86,1,1,1.0,1.0,0.4814493077574298,0,1,7,8,4,3,2,nan,nan,nan,nan,nan,nan,nan,nan,nan,nan,nan,nan,0.0,nan,nan,nan,nan,nan,nan,nan,nan,nan,nan,nan,nan,nan,nan,nan,nan,nan,nan,254.03583925997373,384.2397101360839,nan,384.7211594438413,nan,nan,nan,nan
1,87,1,1,1.0,1.0,0.5053142083343118,0,4,3,6,0,1,5,nan,nan,nan,nan,nan,nan,nan,nan,nan,nan,nan,nan,0.0,nan,nan,nan,nan,nan,nan,nan,nan,nan,nan,nan,nan,nan,nan,nan,nan,nan,nan,254.03583925997373,385.2398227493977,nan,385.74513695773203,nan,nan,nan,nan
1,88,1,1,1.0,1.0,0.641156661324203,0,1,6,7,5,4,0,nan,nan,nan,nan,nan,nan,nan,nan,nan,nan,nan,nan,0.0,nan,nan,nan,nan,nan,nan,nan,nan,nan,nan,nan,nan,nan,nan,nan,nan,nan,nan,254.03583925997373,386.2399473368423,nan,386.8811039981665,nan,nan,nan,nan
1,89,1,1,1.0,1.0,0.44103794696275145,0,2,8,4,1,0,6,nan,nan,nan,nan,nan,nan,nan,nan,nan,nan,nan,nan,0.0,nan,nan,nan,nan,nan,nan,nan,nan,nan,nan,nan,nan,nan,nan,nan,nan,nan,nan,254.03583925997373,387.2400673626689,nan,387.6811053096317,nan,nan,nan,nan
1,90,0,0,0.0,1.0,0.656885463395156,0,4,0,3,5,1,7,nan,nan,nan,nan,nan,nan,nan,nan,nan,nan,nan,nan,0.0,nan,nan,nan,nan,nan,nan,nan,nan,nan,nan,nan,nan,nan,nan,nan,nan,nan,nan,254.03583925997373,388.24019508610945,nan,388.8970805495046,nan,nan,nan,nan
1,91,1,1,1.0,1.0,0.44876436109188944,1,7,6,4,8,3,2,1.0,1.0,1.0,1.0,1.0,1.0,1.0,1.0,0.0,1.0,0.0,0.0,3.0,7.0,6.0,3.0,8.0,1.0,5.0,2.0,1.0,6.0,5.0,4.0,3.0,2.7894210763042793,1.4630625463323668,7.372141118510626,6.332332452759147,4.525392735376954,3.693542951834388,254.03583925997373,389.2402928743977,390.04876099689864,389.6890572354896,398.46646774490364,399.46846342401113,391.05719701736234,398.4581335040275
1,92,1,1,1.0,1.0,0.5097879505483434,0,8,4,2,7,6,1,nan,nan,nan,nan,nan,nan,nan,nan,nan,nan,nan,nan,0.0,nan,nan,nan,nan,nan,nan,nan,nan,nan,nan,nan,nan,nan,nan,nan,nan,nan,nan,254.03583925997373,399.6750056591118,nan,400.1847936096601,nan,nan,nan,nan
1,93,1,1,1.0,1.0,0.6057287963340059,0,4,3,5,1,8,7,nan,nan,nan,nan,nan,nan,nan,nan,nan,nan,nan,nan,0.0,nan,nan,nan,nan,nan,nan,nan,nan,nan,nan,nan,nan,nan,nan,nan,nan,nan,nan,254.03583925997373,400.6751142811263,nan,401.2808430774603,nan,nan,nan,nan
1,94,1,1,1.0,1.0,0.41356086742598563,0,0,4,1,6,7,3,nan,nan,nan,nan,nan,nan,nan,nan,nan,nan,nan,nan,0.0,nan,nan,nan,nan,nan,nan,nan,nan,nan,nan,nan,nan,nan,nan,nan,nan,nan,nan,254.03583925997373,401.6752237583278,nan,402.08878462575376,nan,nan,nan,nan
1,95,1,1,1.0,1.0,0.4374360312940553,0,6,1,7,5,3,8,nan,nan,nan,nan,nan,nan,nan,nan,nan,nan,nan,nan,0.0,nan,nan,nan,nan,nan,nan,nan,nan,nan,nan,nan,nan,nan,nan,nan,nan,nan,nan,254.03583925997373,402.6753320952412,nan,403.11276812653523,nan,nan,nan,nan
1,96,1,1,1.0,1.0,0.30128196720033884,1,0,8,4,7,5,3,1.0,1.0,1.0,1.0,1.0,1.0,0.0,0.0,1.0,0.0,0.0,0.0,1.0,8.0,5.0,4.0,3.0,1.0,5.0,1.0,2.0,6.0,5.0,4.0,3.0,1.5121648042695597,2.792741601122543,7.184272737475112,6.00101779634133,5.02512018266134,4.089286111411639,254.03583925997373,403.67547407350503,404.48390826943796,403.97675604070537,412.72658598038834,413.7265600365354,405.50070048333146,412.7182531650178
1,97,0,0,0.0,1.0,0.7136896172305569,0,7,1,3,2,6,5,nan,nan,nan,nan,nan,nan,nan,nan,nan,nan,nan,nan,0.0,nan,nan,nan,nan,nan,nan,nan,nan,nan,nan,nan,nan,nan,nan,nan,nan,nan,nan,254.03583925997373,413.9267933599185,nan,414.6404829771491,nan,nan,nan,nan
1,98,1,1,1.0,1.0,0.5776122440584004,0,4,6,8,1,7,3,nan,nan,nan,nan,nan,nan,nan,nan,nan,nan,nan,nan,0.0,nan,nan,nan,nan,nan,nan,nan,nan,nan,nan,nan,nan,nan,nan,nan,nan,nan,nan,254.03583925997373,414.92688459099736,nan,415.50449683505576,nan,nan,nan,nan
1,99,1,1,1.0,1.0,0.36947660183068365,0,6,0,2,3,1,8,nan,nan,nan,nan,nan,nan,nan,nan,nan,nan,nan,nan,0.0,nan,nan,nan,nan,nan,nan,nan,nan,nan,nan,nan,nan,nan,nan,nan,nan,nan,nan,254.03583925997373,415.92700917832553,nan,416.2964857801562,nan,nan,nan,nan
1,100,1,1,1.0,1.0,0.3453357274411246,0,7,5,4,1,6,3,nan,nan,nan,nan,nan,nan,nan,nan,nan,nan,nan,nan,0.0,nan,nan,nan,nan,nan,nan,nan,nan,nan,nan,nan,nan,nan,nan,nan,nan,nan,nan,254.03583925997373,416.927162845619,nan,417.27249857306015,nan,nan,nan,nan
1,101,1,1,1.0,1.0,0.4411790700396523,0,0,2,3,7,4,8,nan,nan,nan,nan,nan,nan,nan,nan,nan,nan,nan,nan,0.0,nan,nan,nan,nan,nan,nan,nan,nan,nan,nan,nan,nan,nan,nan,nan,nan,nan,nan,254.03583925997373,417.92726006370503,nan,418.3684391337447,nan,nan,nan,nan
1,102,1,1,1.0,1.0,0.3370659184874967,0,6,8,7,0,3,1,nan,nan,nan,nan,nan,nan,nan,nan,nan,nan,nan,nan,0.0,nan,nan,nan,nan,nan,nan,nan,nan,nan,nan,nan,nan,nan,nan,nan,nan,nan,nan,254.03583925997373,418.9273806597339,nan,419.2644465782214,nan,nan,nan,nan
1,103,1,1,1.0,1.0,0.2569000603398308,0,4,3,6,7,1,0,nan,nan,nan,nan,nan,nan,nan,nan,nan,nan,nan,nan,0.0,nan,nan,nan,nan,nan,nan,nan,nan,nan,nan,nan,nan,nan,nan,nan,nan,nan,nan,254.03583925997373,419.92750467697624,nan,420.1844047373161,nan,nan,nan,nan
1,104,1,1,1.0,1.0,0.30472137755714357,0,1,7,2,8,5,4,nan,nan,nan,nan,nan,nan,nan,nan,nan,nan,nan,nan,0.0,nan,nan,nan,nan,nan,nan,nan,nan,nan,nan,nan,nan,nan,nan,nan,nan,nan,nan,254.03583925997373,420.92765093175694,nan,421.2323723093141,nan,nan,nan,nan
1,105,1,1,1.0,1.0,0.28058962628711015,0,5,4,8,7,0,1,nan,nan,nan,nan,nan,nan,nan,nan,nan,nan,nan,nan,0.0,nan,nan,nan,nan,nan,nan,nan,nan,nan,nan,nan,nan,nan,nan,nan,nan,nan,nan,254.03583925997373,421.92776097916067,nan,422.2083506054478,nan,nan,nan,nan
1,106,1,1,1.0,1.0,0.2884665715973824,0,3,7,2,5,1,6,nan,nan,nan,nan,nan,nan,nan,nan,nan,nan,nan,nan,0.0,nan,nan,nan,nan,nan,nan,nan,nan,nan,nan,nan,nan,nan,nan,nan,nan,nan,nan,254.03583925997373,422.9278812900884,nan,423.2163478616858,nan,nan,nan,nan
1,107,1,1,1.0,1.0,0.4243110202951357,0,5,6,1,3,4,0,nan,nan,nan,nan,nan,nan,nan,nan,nan,nan,nan,nan,0.0,nan,nan,nan,nan,nan,nan,nan,nan,nan,nan,nan,nan,nan,nan,nan,nan,nan,nan,254.03583925997373,423.92801671125926,nan,424.3523277315544,nan,nan,nan,nan
1,108,1,1,1.0,1.0,0.3762060316512361,0,7,2,0,1,5,6,nan,nan,nan,nan,nan,nan,nan,nan,nan,nan,nan,nan,0.0,nan,nan,nan,nan,nan,nan,nan,nan,nan,nan,nan,nan,nan,nan,nan,nan,nan,nan,254.03583925997373,424.92813502647914,nan,425.3043410581304,nan,nan,nan,nan
1,109,1,1,1.0,1.0,0.32800753111951053,0,3,1,8,5,7,2,nan,nan,nan,nan,nan,nan,nan,nan,nan,nan,nan,nan,0.0,nan,nan,nan,nan,nan,nan,nan,nan,nan,nan,nan,nan,nan,nan,nan,nan,nan,nan,254.03583925997373,425.92826246481854,nan,426.25626999593806,nan,nan,nan,nan
1,110,1,1,1.0,1.0,0.35186958068516105,0,2,4,1,3,5,8,nan,nan,nan,nan,nan,nan,nan,nan,nan,nan,nan,nan,0.0,nan,nan,nan,nan,nan,nan,nan,nan,nan,nan,nan,nan,nan,nan,nan,nan,nan,nan,254.03583925997373,426.92839218396693,nan,427.2802617646521,nan,nan,nan,nan
1,111,1,1,1.0,1.0,0.27167834900319576,0,8,7,3,0,1,6,nan,nan,nan,nan,nan,nan,nan,nan,nan,nan,nan,nan,0.0,nan,nan,nan,nan,nan,nan,nan,nan,nan,nan,nan,nan,nan,nan,nan,nan,nan,nan,254.03583925997373,427.9285720802145,nan,428.2002504292177,nan,nan,nan,nan
1,112,0,0,1.0,0.0,0.24761359544936568,0,4,0,5,7,2,3,nan,nan,nan,nan,nan,nan,nan,nan,nan,nan,nan,nan,0.0,nan,nan,nan,nan,nan,nan,nan,nan,nan,nan,nan,nan,nan,nan,nan,nan,nan,nan,254.03583925997373,428.92862026160583,nan,429.1762338570552,nan,nan,nan,nan
1,113,1,1,1.0,1.0,0.6634315758710727,0,3,1,0,6,4,5,nan,nan,nan,nan,nan,nan,nan,nan,nan,nan,nan,nan,0.0,nan,nan,nan,nan,nan,nan,nan,nan,nan,nan,nan,nan,nan,nan,nan,nan,nan,nan,254.03583925997373,429.9287382917246,nan,430.59216986759566,nan,nan,nan,nan
1,114,0,0,0.0,1.0,0.5753049540799111,0,2,5,4,0,6,7,nan,nan,nan,nan,nan,nan,nan,nan,nan,nan,nan,nan,0.0,nan,nan,nan,nan,nan,nan,nan,nan,nan,nan,nan,nan,nan,nan,nan,nan,nan,nan,254.03583925997373,430.92887399788015,nan,431.50417895196006,nan,nan,nan,nan
1,115,1,1,1.0,1.0,0.42315637751016766,0,8,7,6,3,5,0,nan,nan,nan,nan,nan,nan,nan,nan,nan,nan,nan,nan,0.0,nan,nan,nan,nan,nan,nan,nan,nan,nan,nan,nan,nan,nan,nan,nan,nan,nan,nan,254.03583925997373,431.92899487901013,nan,432.3521512565203,nan,nan,nan,nan
1,116,1,1,0.0,0.0,0.3109960777219385,0,5,3,2,0,6,1,nan,nan,nan,nan,nan,nan,nan,nan,nan,nan,nan,nan,0.0,nan,nan,nan,nan,nan,nan,nan,nan,nan,nan,nan,nan,nan,nan,nan,nan,nan,nan,254.03583925997373,432.92913885298185,nan,433.2401349307038,nan,nan,nan,nan
1,117,1,1,1.0,1.0,0.5028512551216409,1,3,0,6,4,1,7,1.0,1.0,1.0,1.0,1.0,1.0,0.0,0.0,0.0,0.0,0.0,0.0,0.0,1.0,3.0,8.0,0.0,4.0,6.0,6.0,5.0,4.0,3.0,1.0,2.0,9.113674164982513,8.138045967905782,7.298945312155411,5.313796585658565,2.442718308768235,3.7563036375213414,254.03583925997373,433.92924319859594,434.73769991716836,434.4320944537176,444.9056257621851,445.9086945464369,435.75446077028755,444.89727527077775
1,118,1,1,1.0,1.0,0.7576778050279245,0,8,1,7,6,2,4,nan,nan,nan,nan,nan,nan,nan,nan,nan,nan,nan,nan,0.0,nan,nan,nan,nan,nan,nan,nan,nan,nan,nan,nan,nan,nan,nan,nan,nan,nan,nan,254.03583925997373,446.1141331710387,nan,446.8718109760666,nan,nan,nan,nan
1,119,1,1,1.0,1.0,0.3493162519298494,0,4,7,5,0,6,2,nan,nan,nan,nan,nan,nan,nan,nan,nan,nan,nan,nan,0.0,nan,nan,nan,nan,nan,nan,nan,nan,nan,nan,nan,nan,nan,nan,nan,nan,nan,nan,254.03583925997373,447.12258743774146,nan,447.4719036896713,nan,nan,nan,nan
1,120,1,1,1.0,1.0,0.02111228893045336,0,2,8,3,6,1,7,nan,nan,nan,nan,nan,nan,nan,nan,nan,nan,nan,nan,0.0,nan,nan,nan,nan,nan,nan,nan,nan,nan,nan,nan,nan,nan,nan,nan,nan,nan,nan,254.03583925997373,448.12270974437706,nan,448.1438220333075,nan,nan,nan,nan
1,121,1,1,1.0,1.0,0.13297694304492325,1,5,6,0,8,2,1,1.0,1.0,1.0,1.0,1.0,1.0,0.0,0.0,0.0,0.0,0.0,0.0,0.0,4.0,1.0,4.0,2.0,3.0,3.0,2.0,1.0,6.0,5.0,4.0,3.0,3.7049935882678255,2.5441173368599266,7.784072371316142,6.736253049923107,5.640857309568673,4.632332908920944,254.03583925997373,449.1228112389799,449.93124828580767,449.25578818202484,458.77401414874475,459.77684801304713,450.9480447761016,458.7656927371863
1,122,0,0,nan,nan,nan,0,0,8,2,6,5,3,nan,nan,nan,nan,nan,nan,nan,nan,nan,nan,nan,nan,0.0,nan,nan,nan,nan,nan,nan,nan,nan,nan,nan,nan,nan,nan,nan,nan,nan,nan,nan,254.03583925997373,459.9825178512838,nan,nan,nan,nan,nan,nan
1,123,1,1,0.0,0.0,0.0328859401633963,0,2,3,7,1,6,8,nan,nan,nan,nan,nan,nan,nan,nan,nan,nan,nan,nan,0.0,nan,nan,nan,nan,nan,nan,nan,nan,nan,nan,nan,nan,nan,nan,nan,nan,nan,nan,254.03583925997373,460.98264757043216,nan,461.01553351059556,nan,nan,nan,nan
1,124,1,1,1.0,1.0,0.47270908870268613,0,5,8,6,4,2,7,nan,nan,nan,nan,nan,nan,nan,nan,nan,nan,nan,nan,0.0,nan,nan,nan,nan,nan,nan,nan,nan,nan,nan,nan,nan,nan,nan,nan,nan,nan,nan,254.03583925997373,461.9827932550106,nan,462.4555023437133,nan,nan,nan,nan
1,125,1,1,1.0,1.0,0.01662457676138729,0,1,2,7,3,4,0,nan,nan,nan,nan,nan,nan,nan,nan,nan,nan,nan,nan,0.0,nan,nan,nan,nan,nan,nan,nan,nan,nan,nan,nan,nan,nan,nan,nan,nan,nan,nan,254.03583925997373,462.9829024472274,nan,462.9995270239888,nan,nan,nan,nan
1,126,1,1,1.0,1.0,0.05647942831274122,0,7,8,4,5,3,6,nan,nan,nan,nan,nan,nan,nan,nan,nan,nan,nan,nan,0.0,nan,nan,nan,nan,nan,nan,nan,nan,nan,nan,nan,nan,nan,nan,nan,nan,nan,nan,254.03583925997373,463.98302674945444,nan,464.0395061777672,nan,nan,nan,nan
1,127,1,1,1.0,1.0,0.7123043307801709,0,6,2,8,4,7,0,nan,nan,nan,nan,nan,nan,nan,nan,nan,nan,nan,nan,0.0,nan,nan,nan,nan,nan,nan,nan,nan,nan,nan,nan,nan,nan,nan,nan,nan,nan,nan,254.03583925997373,464.9831484858878,nan,465.69545281666797,nan,nan,nan,nan
1,128,0,0,0.0,1.0,0.5281427812296897,0,5,0,2,6,3,7,nan,nan,nan,nan,nan,nan,nan,nan,nan,nan,nan,nan,0.0,nan,nan,nan,nan,nan,nan,nan,nan,nan,nan,nan,nan,nan,nan,nan,nan,nan,nan,254.03583925997373,465.9832744987216,nan,466.5114172799513,nan,nan,nan,nan
1,129,1,1,1.0,1.0,0.4640415695030242,0,1,6,5,0,2,3,nan,nan,nan,nan,nan,nan,nan,nan,nan,nan,nan,nan,0.0,nan,nan,nan,nan,nan,nan,nan,nan,nan,nan,nan,nan,nan,nan,nan,nan,nan,nan,254.03583925997373,466.98339652025606,nan,467.4474380897591,nan,nan,nan,nan
1,130,1,1,1.0,1.0,0.4719073959859088,0,3,5,2,4,8,0,nan,nan,nan,nan,nan,nan,nan,nan,nan,nan,nan,nan,0.0,nan,nan,nan,nan,nan,nan,nan,nan,nan,nan,nan,nan,nan,nan,nan,nan,nan,nan,254.03583925997373,467.9835245287977,nan,468.4554319247836,nan,nan,nan,nan
1,131,1,1,1.0,1.0,0.6717549831373617,1,0,4,8,7,1,5,1.0,1.0,1.0,1.0,1.0,1.0,0.0,1.0,0.0,0.0,1.0,0.0,2.0,5.0,4.0,0.0,8.0,1.0,3.0,4.0,1.0,2.0,3.0,6.0,5.0,5.644163579447195,1.1168127978453413,2.6671309946104884,4.220953033654951,7.418825468746945,6.7149910849984735,254.03583925997373,468.98365367774386,469.7920690573519,469.6554086608812,478.259783246438,479.26086433429737,470.8005087841302,478.2514552776702
1,132,0,0,1.0,0.0,0.7548085887683555,0,6,1,5,2,3,8,nan,nan,nan,nan,nan,nan,nan,nan,nan,nan,nan,nan,0.0,nan,nan,nan,nan,nan,nan,nan,nan,nan,nan,nan,nan,nan,nan,nan,nan,nan,nan,254.03583925997373,479.46832258603536,nan,480.2231311748037,nan,nan,nan,nan
1,133,1,1,1.0,1.0,0.6103716011857614,0,4,0,1,6,8,7,nan,nan,nan,nan,nan,nan,nan,nan,nan,nan,nan,nan,0.0,nan,nan,nan,nan,nan,nan,nan,nan,nan,nan,nan,nan,nan,nan,nan,nan,nan,nan,254.03583925997373,480.4767412156798,nan,481.08711281686556,nan,nan,nan,nan
1,134,1,1,0.0,0.0,0.3382473604287952,0,3,2,8,7,5,6,nan,nan,nan,nan,nan,nan,nan,nan,nan,nan,nan,nan,0.0,nan,nan,nan,nan,nan,nan,nan,nan,nan,nan,nan,nan,nan,nan,nan,nan,nan,nan,254.03583925997373,481.4768814834533,nan,481.8151288438821,nan,nan,nan,nan
1,135,1,1,1.0,1.0,0.442077410640195,0,7,8,3,2,1,5,nan,nan,nan,nan,nan,nan,nan,nan,nan,nan,nan,nan,0.0,nan,nan,nan,nan,nan,nan,nan,nan,nan,nan,nan,nan,nan,nan,nan,nan,nan,nan,254.03583925997373,482.4770023645833,nan,482.9190797752235,nan,nan,nan,nan
1,136,1,1,1.0,1.0,0.3939342190278694,0,5,1,4,6,0,7,nan,nan,nan,nan,nan,nan,nan,nan,nan,nan,nan,nan,0.0,nan,nan,nan,nan,nan,nan,nan,nan,nan,nan,nan,nan,nan,nan,nan,nan,nan,nan,254.03583925997373,483.4771583125694,nan,483.87109253159724,nan,nan,nan,nan
1,137,1,1,1.0,1.0,0.45747407467570156,0,1,3,2,7,4,6,nan,nan,nan,nan,nan,nan,nan,nan,nan,nan,nan,nan,0.0,nan,nan,nan,nan,nan,nan,nan,nan,nan,nan,nan,nan,nan,nan,nan,nan,nan,nan,254.03583925997373,484.48560032015666,nan,484.94307439483237,nan,nan,nan,nan
1,138,1,1,1.0,1.0,0.6173305340344086,0,2,4,6,8,3,0,nan,nan,nan,nan,nan,nan,nan,nan,nan,nan,nan,nan,0.0,nan,nan,nan,nan,nan,nan,nan,nan,nan,nan,nan,nan,nan,nan,nan,nan,nan,nan,254.03583925997373,485.48571749508847,nan,486.1030480291229,nan,nan,nan,nan
1,139,0,0,0.0,1.0,0.744531411677599,0,5,0,8,6,7,2,nan,nan,nan,nan,nan,nan,nan,nan,nan,nan,nan,nan,0.0,nan,nan,nan,nan,nan,nan,nan,nan,nan,nan,nan,nan,nan,nan,nan,nan,nan,nan,254.03583925997373,486.5025091387797,nan,487.2470405504573,nan,nan,nan,nan
1,140,1,1,1.0,1.0,0.74435322615318,0,3,1,2,7,6,5,nan,nan,nan,nan,nan,nan,nan,nan,nan,nan,nan,nan,0.0,nan,nan,nan,nan,nan,nan,nan,nan,nan,nan,nan,nan,nan,nan,nan,nan,nan,nan,254.03583925997373,487.502634011209,nan,488.2469872373622,nan,nan,nan,nan
1,141,1,1,nan,nan,nan,0,8,5,3,4,0,7,nan,nan,nan,nan,nan,nan,nan,nan,nan,nan,nan,nan,0.0,nan,nan,nan,nan,nan,nan,nan,nan,nan,nan,nan,nan,nan,nan,nan,nan,nan,nan,254.03583925997373,488.5027195403818,nan,nan,nan,nan,nan,nan
1,142,1,1,1.0,1.0,0.5760655928170308,0,5,2,4,0,3,1,nan,nan,nan,nan,nan,nan,nan,nan,nan,nan,nan,nan,0.0,nan,nan,nan,nan,nan,nan,nan,nan,nan,nan,nan,nan,nan,nan,nan,nan,nan,nan,254.03583925997373,489.50287662877236,nan,490.0789422215894,nan,nan,nan,nan
1,143,0,0,0.0,1.0,0.5839553675614297,0,1,5,3,7,2,8,nan,nan,nan,nan,nan,nan,nan,nan,nan,nan,nan,nan,0.0,nan,nan,nan,nan,nan,nan,nan,nan,nan,nan,nan,nan,nan,nan,nan,nan,nan,nan,254.03583925997373,490.50299009738956,nan,491.086945464951,nan,nan,nan,nan
1,144,1,1,nan,nan,nan,1,7,2,1,6,3,4,1.0,1.0,1.0,1.0,1.0,1.0,1.0,0.0,1.0,1.0,0.0,0.0,3.0,7.0,5.0,1.0,6.0,0.0,1.0,1.0,5.0,6.0,2.0,4.0,3.0,2.173884942778386,7.715174972545356,8.482431181822903,3.988609234103933,6.203442660393193,5.363744156202301,254.03583925997373,491.50314604549203,492.311573398998,nan,501.84609151957557,502.84762847749516,493.32834451575764,501.8377658315003
1,145,1,1,1.0,1.0,0.6800701224710792,0,0,6,8,1,5,2,nan,nan,nan,nan,nan,nan,nan,nan,nan,nan,nan,nan,0.0,nan,nan,nan,nan,nan,nan,nan,nan,nan,nan,nan,nan,nan,nan,nan,nan,nan,nan,254.03583925997373,503.05460120912176,nan,503.73467133159284,nan,nan,nan,nan
1,146,1,1,1.0,1.0,0.5120003033662215,0,8,1,2,3,6,5,nan,nan,nan,nan,nan,nan,nan,nan,nan,nan,nan,nan,0.0,nan,nan,nan,nan,nan,nan,nan,nan,nan,nan,nan,nan,nan,nan,nan,nan,nan,nan,254.03583925997373,504.05469842720777,nan,504.566698730574,nan,nan,nan,nan
1,147,1,1,1.0,1.0,0.43188205652404577,0,7,5,1,6,2,3,nan,nan,nan,nan,nan,nan,nan,nan,nan,nan,nan,nan,0.0,nan,nan,nan,nan,nan,nan,nan,nan,nan,nan,nan,nan,nan,nan,nan,nan,nan,nan,254.03583925997373,505.05483413336333,nan,505.4867161898874,nan,nan,nan,nan
1,148,1,1,1.0,1.0,0.41575839510187507,0,0,8,2,7,1,4,nan,nan,nan,nan,nan,nan,nan,nan,nan,nan,nan,nan,0.0,nan,nan,nan,nan,nan,nan,nan,nan,nan,nan,nan,nan,nan,nan,nan,nan,nan,nan,254.03583925997373,506.05494788708165,nan,506.4707062821835,nan,nan,nan,nan
1,149,1,1,1.0,1.0,0.3675664517795667,0,4,2,1,0,6,7,nan,nan,nan,nan,nan,nan,nan,nan,nan,nan,nan,nan,0.0,nan,nan,nan,nan,nan,nan,nan,nan,nan,nan,nan,nan,nan,nan,nan,nan,nan,nan,254.03583925997373,507.0550622110022,nan,507.4226286627818,nan,nan,nan,nan
1,150,1,1,1.0,1.0,0.39940779644530267,0,5,3,8,2,7,0,nan,nan,nan,nan,nan,nan,nan,nan,nan,nan,nan,nan,0.0,nan,nan,nan,nan,nan,nan,nan,nan,nan,nan,nan,nan,nan,nan,nan,nan,nan,nan,254.03583925997373,508.05520532967057,nan,508.4546131261159,nan,nan,nan,nan
1,151,1,1,1.0,1.0,0.3512563370168209,0,7,6,4,1,0,8,nan,nan,nan,nan,nan,nan,nan,nan,nan,nan,nan,nan,0.0,nan,nan,nan,nan,nan,nan,nan,nan,nan,nan,nan,nan,nan,nan,nan,nan,nan,nan,254.03583925997373,509.05533276801,nan,509.4065891050268,nan,nan,nan,nan
1,152,1,1,1.0,1.0,0.2951261525740847,0,4,3,6,8,2,7,nan,nan,nan,nan,nan,nan,nan,nan,nan,nan,nan,nan,0.0,nan,nan,nan,nan,nan,nan,nan,nan,nan,nan,nan,nan,nan,nan,nan,nan,nan,nan,254.03583925997373,510.0554391092155,nan,510.3505652617896,nan,nan,nan,nan
1,153,1,1,1.0,1.0,0.4629661835497245,1,8,2,7,0,1,3,1.0,1.0,1.0,1.0,1.0,1.0,0.0,1.0,1.0,1.0,0.0,0.0,3.0,6.0,2.0,7.0,0.0,8.0,1.0,5.0,6.0,2.0,1.0,3.0,4.0,9.610789268277586,11.034296029945835,5.115848314715549,3.6530089994193986,6.65131780388765,8.105947180651128,254.03583925997373,511.05558194278274,511.86399675218854,511.51854812633246,523.948836775613,524.952365991543,512.8724552952917,523.9405045304447
1,154,1,1,1.0,1.0,0.5448831073008478,0,7,1,8,6,3,4,nan,nan,nan,nan,nan,nan,nan,nan,nan,nan,nan,nan,0.0,nan,nan,nan,nan,nan,nan,nan,nan,nan,nan,nan,nan,nan,nan,nan,nan,nan,nan,254.03583925997373,525.1573470354779,nan,525.7022301427787,nan,nan,nan,nan
1,155,0,0,nan,nan,nan,0,6,5,0,1,8,2,nan,nan,nan,nan,nan,nan,nan,nan,nan,nan,nan,nan,0.0,nan,nan,nan,nan,nan,nan,nan,nan,nan,nan,nan,nan,nan,nan,nan,nan,nan,nan,254.03583925997373,526.1574798906222,nan,nan,nan,nan,nan,nan
1,156,1,1,nan,nan,nan,0,2,4,8,7,0,3,nan,nan,nan,nan,nan,nan,nan,nan,nan,nan,nan,nan,0.0,nan,nan,nan,nan,nan,nan,nan,nan,nan,nan,nan,nan,nan,nan,nan,nan,nan,nan,254.03583925997373,527.1575728323078,nan,nan,nan,nan,nan,nan
1,157,1,1,1.0,1.0,0.1348300736863166,1,3,6,5,2,4,0,1.0,1.0,1.0,1.0,1.0,1.0,0.0,0.0,0.0,0.0,0.0,0.0,0.0,4.0,5.0,3.0,0.0,8.0,2.0,1.0,2.0,6.0,5.0,4.0,3.0,1.8365327869541943,3.3160023810341954,11.64985497109592,10.57050791173242,8.314379608840682,6.5235410302411765,254.03583925997373,528.1993754664436,529.0078475802438,528.3342055401299,541.7094168682816,542.7204469864955,530.0162682055961,541.7010831974912
1,158,1,1,1.0,1.0,0.7756212406093255,0,0,2,8,5,7,4,nan,nan,nan,nan,nan,nan,nan,nan,nan,nan,nan,nan,0.0,nan,nan,nan,nan,nan,nan,nan,nan,nan,nan,nan,nan,nan,nan,nan,nan,nan,nan,254.03583925997373,542.926247684285,nan,543.7018689248944,nan,nan,nan,nan
1,159,1,1,1.0,1.0,0.4791209204122424,0,7,3,0,2,6,5,nan,nan,nan,nan,nan,nan,nan,nan,nan,nan,nan,nan,0.0,nan,nan,nan,nan,nan,nan,nan,nan,nan,nan,nan,nan,nan,nan,nan,nan,nan,nan,254.03583925997373,543.9346899769735,nan,544.4138108973857,nan,nan,nan,nan
1,160,1,1,1.0,1.0,0.4150068793678656,0,8,5,1,3,0,2,nan,nan,nan,nan,nan,nan,nan,nan,nan,nan,nan,nan,0.0,nan,nan,nan,nan,nan,nan,nan,nan,nan,nan,nan,nan,nan,nan,nan,nan,nan,nan,254.03583925997373,544.9348179855151,nan,545.349824864883,nan,nan,nan,nan
1,161,1,1,1.0,1.0,0.40687790827360004,0,7,4,0,1,8,6,nan,nan,nan,nan,nan,nan,nan,nan,nan,nan,nan,nan,0.0,nan,nan,nan,nan,nan,nan,nan,nan,nan,nan,nan,nan,nan,nan,nan,nan,nan,nan,254.03583925997373,545.9349485599669,nan,546.3418264682405,nan,nan,nan,nan
1,162,1,1,1.0,1.0,0.41468614526093006,0,4,8,5,0,1,2,nan,nan,nan,nan,nan,nan,nan,nan,nan,nan,nan,nan,0.0,nan,nan,nan,nan,nan,nan,nan,nan,nan,nan,nan,nan,nan,nan,nan,nan,nan,nan,254.03583925997373,546.9351030824473,nan,547.3497892277082,nan,nan,nan,nan
1,163,0,0,0.0,1.0,0.5585634873714298,0,2,1,6,5,0,7,nan,nan,nan,nan,nan,nan,nan,nan,nan,nan,nan,nan,0.0,nan,nan,nan,nan,nan,nan,nan,nan,nan,nan,nan,nan,nan,nan,nan,nan,nan,nan,254.03583925997373,547.9351974496385,nan,548.4937609370099,nan,nan,nan,nan
1,164,1,1,1.0,1.0,0.3264828323153779,0,8,7,5,0,1,2,nan,nan,nan,nan,nan,nan,nan,nan,nan,nan,nan,nan,0.0,nan,nan,nan,nan,nan,nan,nan,nan,nan,nan,nan,nan,nan,nan,nan,nan,nan,nan,254.03583925997373,548.9352849744027,nan,549.2617678067181,nan,nan,nan,nan
1,165,1,1,1.0,1.0,0.38225179887376726,0,0,1,4,3,5,8,nan,nan,nan,nan,nan,nan,nan,nan,nan,nan,nan,nan,0.0,nan,nan,nan,nan,nan,nan,nan,nan,nan,nan,nan,nan,nan,nan,nan,nan,nan,nan,254.03583925997373,549.935465155635,nan,550.3177169545088,nan,nan,nan,nan
1,166,1,1,1.0,1.0,0.3581727904966101,0,3,0,1,5,6,7,nan,nan,nan,nan,nan,nan,nan,nan,nan,nan,nan,nan,0.0,nan,nan,nan,nan,nan,nan,nan,nan,nan,nan,nan,nan,nan,nan,nan,nan,nan,nan,254.03583925997373,550.9355552463094,nan,551.293728036806,nan,nan,nan,nan
1,167,1,1,1.0,1.0,0.35002956457901746,1,4,1,3,2,8,0,1.0,1.0,1.0,1.0,1.0,1.0,0.0,0.0,0.0,0.0,0.0,0.0,0.0,3.0,7.0,0.0,4.0,5.0,3.0,1.0,6.0,5.0,2.0,4.0,3.0,2.2278424029937014,12.792626422015019,11.057394589763135,4.346129437559284,9.618175561656244,8.290595676051453,254.03583925997373,551.9356789784506,552.7441140296869,552.2857085430296,566.5958236708539,567.601928453194,553.7609070987673,566.5874885746744
1,168,1,1,nan,nan,nan,0,5,3,7,8,2,4,nan,nan,nan,nan,nan,nan,nan,nan,nan,nan,nan,nan,0.0,nan,nan,nan,nan,nan,nan,nan,nan,nan,nan,nan,nan,nan,nan,nan,nan,nan,nan,254.03583925997373,567.804332220112,nan,nan,nan,nan,nan,nan
1,169,1,1,1.0,1.0,0.4408614719286561,0,1,7,0,6,3,2,nan,nan,nan,nan,nan,nan,nan,nan,nan,nan,nan,nan,0.0,nan,nan,nan,nan,nan,nan,nan,nan,nan,nan,nan,nan,nan,nan,nan,nan,nan,nan,254.03583925997373,568.8044693517732,nan,569.2453308237018,nan,nan,nan,nan
1,170,1,1,1.0,1.0,0.448748110444285,0,4,3,8,2,7,6,nan,nan,nan,nan,nan,nan,nan,nan,nan,nan,nan,nan,0.0,nan,nan,nan,nan,nan,nan,nan,nan,nan,nan,nan,nan,nan,nan,nan,nan,nan,nan,254.03583925997373,569.8046007815283,nan,570.2533488919726,nan,nan,nan,nan
1,171,1,1,1.0,1.0,0.6165821544127539,0,3,4,2,0,5,8,nan,nan,nan,nan,nan,nan,nan,nan,nan,nan,nan,nan,0.0,nan,nan,nan,nan,nan,nan,nan,nan,nan,nan,nan,nan,nan,nan,nan,nan,nan,nan,254.03583925997373,570.8047094034264,nan,571.4212915578391,nan,nan,nan,nan
1,172,0,0,0.0,1.0,0.4964154752669856,0,5,0,3,7,2,1,nan,nan,nan,nan,nan,nan,nan,nan,nan,nan,nan,nan,0.0,nan,nan,nan,nan,nan,nan,nan,nan,nan,nan,nan,nan,nan,nan,nan,nan,nan,nan,254.03583925997373,571.8048622154165,nan,572.3012776906835,nan,nan,nan,nan
1,173,1,1,1.0,1.0,0.4802855417365208,0,8,2,6,3,4,0,nan,nan,nan,nan,nan,nan,nan,nan,nan,nan,nan,nan,0.0,nan,nan,nan,nan,nan,nan,nan,nan,nan,nan,nan,nan,nan,nan,nan,nan,nan,nan,254.03583925997373,572.8049765393371,nan,573.2852620810736,nan,nan,nan,nan
1,174,1,1,1.0,1.0,0.38414056645706296,0,1,6,3,0,7,4,nan,nan,nan,nan,nan,nan,nan,nan,nan,nan,nan,nan,0.0,nan,nan,nan,nan,nan,nan,nan,nan,nan,nan,nan,nan,nan,nan,nan,nan,nan,nan,254.03583925997373,573.805099701276,nan,574.1892402677331,nan,nan,nan,nan
1,175,1,1,1.0,1.0,0.42398401407990605,0,6,4,7,3,2,5,nan,nan,nan,nan,nan,nan,nan,nan,nan,nan,nan,nan,0.0,nan,nan,nan,nan,nan,nan,nan,nan,nan,nan,nan,nan,nan,nan,nan,nan,nan,nan,254.03583925997373,574.8052302756114,nan,575.2292142896913,nan,nan,nan,nan
1,176,1,1,1.0,1.0,0.5198085402371362,0,2,3,6,7,8,0,nan,nan,nan,nan,nan,nan,nan,nan,nan,nan,nan,nan,0.0,nan,nan,nan,nan,nan,nan,nan,nan,nan,nan,nan,nan,nan,nan,nan,nan,nan,nan,254.03583925997373,575.8053782409988,nan,576.325186781236,nan,nan,nan,nan
1,177,1,1,1.0,1.0,0.3836980960331857,0,5,7,3,0,4,1,nan,nan,nan,nan,nan,nan,nan,nan,nan,nan,nan,nan,0.0,nan,nan,nan,nan,nan,nan,nan,nan,nan,nan,nan,nan,nan,nan,nan,nan,nan,nan,254.03583925997373,576.8054746037815,nan,577.1891726998147,nan,nan,nan,nan
1,178,1,1,1.0,1.0,0.6155307166045532,0,7,8,1,2,3,5,nan,nan,nan,nan,nan,nan,nan,nan,nan,nan,nan,nan,0.0,nan,nan,nan,nan,nan,nan,nan,nan,nan,nan,nan,nan,nan,nan,nan,nan,nan,nan,254.03583925997373,577.8055983359227,nan,578.4211290525272,nan,nan,nan,nan
1,179,1,1,nan,nan,nan,0,5,6,2,7,0,4,nan,nan,nan,nan,nan,nan,nan,nan,nan,nan,nan,nan,0.0,nan,nan,nan,nan,nan,nan,nan,nan,nan,nan,nan,nan,nan,nan,nan,nan,nan,nan,254.03583925997373,578.8057303358801,nan,nan,nan,nan,nan,nan
1,180,1,1,1.0,1.0,0.78326070017647,0,0,3,4,1,2,8,nan,nan,nan,nan,nan,nan,nan,nan,nan,nan,nan,nan,0.0,nan,nan,nan,nan,nan,nan,nan,nan,nan,nan,nan,nan,nan,nan,nan,nan,nan,nan,254.03583925997373,579.8058144394308,nan,580.5890751396073,nan,nan,nan,nan
1,181,1,1,nan,nan,nan,0,1,0,8,2,4,5,nan,nan,nan,nan,nan,nan,nan,nan,nan,nan,nan,nan,0.0,nan,nan,nan,nan,nan,nan,nan,nan,nan,nan,nan,nan,nan,nan,nan,nan,nan,nan,254.03583925997373,580.8059740937315,nan,nan,nan,nan,nan,nan
1,182,1,1,nan,nan,nan,0,3,1,7,6,5,4,nan,nan,nan,nan,nan,nan,nan,nan,nan,nan,nan,nan,0.0,nan,nan,nan,nan,nan,nan,nan,nan,nan,nan,nan,nan,nan,nan,nan,nan,nan,nan,254.03583925997373,581.8060821455438,nan,nan,nan,nan,nan,nan
1,183,1,1,nan,nan,nan,0,5,8,6,7,1,3,nan,nan,nan,nan,nan,nan,nan,nan,nan,nan,nan,nan,0.0,nan,nan,nan,nan,nan,nan,nan,nan,nan,nan,nan,nan,nan,nan,nan,nan,nan,nan,254.03583925997373,582.8062044521794,nan,nan,nan,nan,nan,nan
1,184,1,1,1.0,1.0,0.3827202132670209,0,2,7,4,5,3,1,nan,nan,nan,nan,nan,nan,nan,nan,nan,nan,nan,nan,0.0,nan,nan,nan,nan,nan,nan,nan,nan,nan,nan,nan,nan,nan,nan,nan,nan,nan,nan,254.03583925997373,583.8063367371215,nan,584.1890569503885,nan,nan,nan,nan
1,185,1,1,1.0,1.0,0.09456753346603364,0,3,1,2,7,5,4,nan,nan,nan,nan,nan,nan,nan,nan,nan,nan,nan,nan,0.0,nan,nan,nan,nan,nan,nan,nan,nan,nan,nan,nan,nan,nan,nan,nan,nan,nan,nan,254.03583925997373,584.8064610394649,nan,584.901028572931,nan,nan,nan,nan
1,186,1,1,1.0,1.0,0.29442852025385946,0,5,8,1,4,3,2,nan,nan,nan,nan,nan,nan,nan,nan,nan,nan,nan,nan,0.0,nan,nan,nan,nan,nan,nan,nan,nan,nan,nan,nan,nan,nan,nan,nan,nan,nan,nan,254.03583925997373,585.8065790695837,nan,586.1010075898375,nan,nan,nan,nan
1,187,1,1,1.0,1.0,0.44629542098846287,0,0,5,7,1,4,3,nan,nan,nan,nan,nan,nan,nan,nan,nan,nan,nan,nan,0.0,nan,nan,nan,nan,nan,nan,nan,nan,nan,nan,nan,nan,nan,nan,nan,nan,nan,nan,254.03583925997373,586.8067016613204,nan,587.2529970823089,nan,nan,nan,nan
1,188,1,1,1.0,1.0,0.3981254301033914,0,2,4,1,3,6,0,nan,nan,nan,nan,nan,nan,nan,nan,nan,nan,nan,nan,0.0,nan,nan,nan,nan,nan,nan,nan,nan,nan,nan,nan,nan,nan,nan,nan,nan,nan,nan,254.03583925997373,587.806839648285,nan,588.2049650783883,nan,nan,nan,nan
1,189,1,1,1.0,1.0,0.38994742243085057,0,1,6,8,4,0,2,nan,nan,nan,nan,nan,nan,nan,nan,nan,nan,nan,nan,0.0,nan,nan,nan,nan,nan,nan,nan,nan,nan,nan,nan,nan,nan,nan,nan,nan,nan,nan,254.03583925997373,588.8069836222567,nan,589.1969310446875,nan,nan,nan,nan
1,190,1,1,nan,nan,nan,0,0,7,3,5,6,1,nan,nan,nan,nan,nan,nan,nan,nan,nan,nan,nan,nan,0.0,nan,nan,nan,nan,nan,nan,nan,nan,nan,nan,nan,nan,nan,nan,nan,nan,nan,nan,254.03583925997373,589.8071005120873,nan,nan,nan,nan,nan,nan
1,191,1,1,1.0,1.0,0.7656223182566464,0,6,5,2,7,0,8,nan,nan,nan,nan,nan,nan,nan,nan,nan,nan,nan,nan,0.0,nan,nan,nan,nan,nan,nan,nan,nan,nan,nan,nan,nan,nan,nan,nan,nan,nan,nan,254.03583925997373,590.8072216783185,nan,591.5728439965751,nan,nan,nan,nan
1,192,1,1,1.0,1.0,0.7494849723298103,0,5,6,1,2,7,4,nan,nan,nan,nan,nan,nan,nan,nan,nan,nan,nan,nan,0.0,nan,nan,nan,nan,nan,nan,nan,nan,nan,nan,nan,nan,nan,nan,nan,nan,nan,nan,254.03583925997373,591.8073608055711,nan,592.5568457779009,nan,nan,nan,nan
1,193,1,1,1.0,1.0,0.7173268848564476,0,2,7,8,5,0,3,nan,nan,nan,nan,nan,nan,nan,nan,nan,nan,nan,nan,0.0,nan,nan,nan,nan,nan,nan,nan,nan,nan,nan,nan,nan,nan,nan,nan,nan,nan,nan,254.03583925997373,592.8074779805029,nan,593.5248048653593,nan,nan,nan,nan
1,194,1,1,1.0,1.0,0.6052367188967764,0,7,2,4,8,5,0,nan,nan,nan,nan,nan,nan,nan,nan,nan,nan,nan,nan,0.0,nan,nan,nan,nan,nan,nan,nan,nan,nan,nan,nan,nan,nan,nan,nan,nan,nan,nan,254.03583925997373,593.8076031380333,nan,594.4128398569301,nan,nan,nan,nan
1,195,1,1,1.0,1.0,0.6691067169886082,0,6,3,0,1,2,4,nan,nan,nan,nan,nan,nan,nan,nan,nan,nan,nan,nan,0.0,nan,nan,nan,nan,nan,nan,nan,nan,nan,nan,nan,nan,nan,nan,nan,nan,nan,nan,254.03583925997373,594.8077260148712,nan,595.4768327318598,nan,nan,nan,nan
1,196,1,1,1.0,1.0,0.5409550407202914,0,5,6,4,2,7,1,nan,nan,nan,nan,nan,nan,nan,nan,nan,nan,nan,nan,0.0,nan,nan,nan,nan,nan,nan,nan,nan,nan,nan,nan,nan,nan,nan,nan,nan,nan,nan,254.03583925997373,595.8078357772902,nan,596.3487908180105,nan,nan,nan,nan
1,197,1,1,1.0,1.0,0.7247861629584804,0,3,0,7,6,2,5,nan,nan,nan,nan,nan,nan,nan,nan,nan,nan,nan,nan,0.0,nan,nan,nan,nan,nan,nan,nan,nan,nan,nan,nan,nan,nan,nan,nan,nan,nan,nan,254.03583925997373,596.8079854531679,nan,597.5327716161264,nan,nan,nan,nan
1,198,1,1,1.0,1.0,0.6526281097903848,0,6,7,4,2,5,1,nan,nan,nan,nan,nan,nan,nan,nan,nan,nan,nan,nan,0.0,nan,nan,nan,nan,nan,nan,nan,nan,nan,nan,nan,nan,nan,nan,nan,nan,nan,nan,254.03583925997373,597.8080866625533,nan,598.4607147723436,nan,nan,nan,nan
1,199,1,1,1.0,1.0,0.69254254642874,0,0,5,1,4,3,2,nan,nan,nan,nan,nan,nan,nan,nan,nan,nan,nan,nan,0.0,nan,nan,nan,nan,nan,nan,nan,nan,nan,nan,nan,nan,nan,nan,nan,nan,nan,nan,254.03583925997373,598.8082075437997,nan,599.5007500902284,nan,nan,nan,nan
1,200,1,1,1.0,1.0,0.6603339968714863,0,6,3,8,2,1,7,nan,nan,nan,nan,nan,nan,nan,nan,nan,nan,nan,nan,0.0,nan,nan,nan,nan,nan,nan,nan,nan,nan,nan,nan,nan,nan,nan,nan,nan,nan,nan,254.03583925997373,599.808340398944,nan,600.4686743958155,nan,nan,nan,nan
1,201,1,1,1.0,1.0,0.6521611209027469,0,7,4,3,6,0,5,nan,nan,nan,nan,nan,nan,nan,nan,nan,nan,nan,nan,0.0,nan,nan,nan,nan,nan,nan,nan,nan,nan,nan,nan,nan,nan,nan,nan,nan,nan,nan,254.03583925997373,600.8085026191548,nan,601.4606637400575,nan,nan,nan,nan
1,202,1,1,nan,nan,nan,0,3,2,8,7,6,1,nan,nan,nan,nan,nan,nan,nan,nan,nan,nan,nan,nan,0.0,nan,nan,nan,nan,nan,nan,nan,nan,nan,nan,nan,nan,nan,nan,nan,nan,nan,nan,254.03583925997373,601.8086215045769,nan,nan,nan,nan,nan,nan
1,203,1,1,nan,nan,nan,0,0,3,6,1,2,7,nan,nan,nan,nan,nan,nan,nan,nan,nan,nan,nan,nan,0.0,nan,nan,nan,nan,nan,nan,nan,nan,nan,nan,nan,nan,nan,nan,nan,nan,nan,nan,254.03583925997373,602.8087617723504,nan,nan,nan,nan,nan,nan
1,204,1,1,1.0,1.0,0.7077216814504936,0,1,2,5,3,8,4,nan,nan,nan,nan,nan,nan,nan,nan,nan,nan,nan,nan,0.0,nan,nan,nan,nan,nan,nan,nan,nan,nan,nan,nan,nan,nan,nan,nan,nan,nan,nan,254.03583925997373,603.8088723899564,nan,604.5165940714069,nan,nan,nan,nan
1,205,0,0,0.0,1.0,0.7955515172798187,0,2,0,4,7,5,3,nan,nan,nan,nan,nan,nan,nan,nan,nan,nan,nan,nan,0.0,nan,nan,nan,nan,nan,nan,nan,nan,nan,nan,nan,nan,nan,nan,nan,nan,nan,nan,254.03583925997373,604.8090038197115,nan,605.6045553369913,nan,nan,nan,nan
1,206,1,1,1.0,1.0,0.659087837790139,0,6,7,2,4,0,1,nan,nan,nan,nan,nan,nan,nan,nan,nan,nan,nan,nan,0.0,nan,nan,nan,nan,nan,nan,nan,nan,nan,nan,nan,nan,nan,nan,nan,nan,nan,nan,254.03583925997373,605.8174512441037,nan,606.4765390818939,nan,nan,nan,nan
1,207,0,0,0.0,1.0,0.7789611521875486,0,1,2,0,8,3,4,nan,nan,nan,nan,nan,nan,nan,nan,nan,nan,nan,nan,0.0,nan,nan,nan,nan,nan,nan,nan,nan,nan,nan,nan,nan,nan,nan,nan,nan,nan,nan,254.03583925997373,606.8175695593236,nan,607.5965307115112,nan,nan,nan,nan
1,208,1,1,1.0,1.0,0.7387986809480935,0,0,7,4,5,6,2,nan,nan,nan,nan,nan,nan,nan,nan,nan,nan,nan,nan,0.0,nan,nan,nan,nan,nan,nan,nan,nan,nan,nan,nan,nan,nan,nan,nan,nan,nan,nan,254.03583925997373,607.8177026996855,nan,608.5565013806336,nan,nan,nan,nan
1,209,1,1,1.0,1.0,0.7066807922674343,0,6,2,5,0,8,7,nan,nan,nan,nan,nan,nan,nan,nan,nan,nan,nan,nan,0.0,nan,nan,nan,nan,nan,nan,nan,nan,nan,nan,nan,nan,nan,nan,nan,nan,nan,nan,254.03583925997373,608.8178190191975,nan,609.5244998114649,nan,nan,nan,nan
1,210,1,1,1.0,1.0,0.618562723393552,0,3,1,0,5,2,6,nan,nan,nan,nan,nan,nan,nan,nan,nan,nan,nan,nan,0.0,nan,nan,nan,nan,nan,nan,nan,nan,nan,nan,nan,nan,nan,nan,nan,nan,nan,nan,254.03583925997373,609.8179416109342,nan,610.4365043343278,nan,nan,nan,nan
1,211,1,1,1.0,1.0,0.5383880272274837,0,6,5,4,8,3,1,nan,nan,nan,nan,nan,nan,nan,nan,nan,nan,nan,nan,0.0,nan,nan,nan,nan,nan,nan,nan,nan,nan,nan,nan,nan,nan,nan,nan,nan,nan,nan,254.03583925997373,610.8180910018273,nan,611.3564790290548,nan,nan,nan,nan
1,212,1,1,1.0,1.0,0.434272309881635,0,7,8,2,0,4,3,nan,nan,nan,nan,nan,nan,nan,nan,nan,nan,nan,nan,0.0,nan,nan,nan,nan,nan,nan,nan,nan,nan,nan,nan,nan,nan,nan,nan,nan,nan,nan,254.03583925997373,611.8181847986998,nan,612.2524571085814,nan,nan,nan,nan
1,213,1,1,1.0,1.0,0.37811988790053874,0,4,0,8,5,7,1,nan,nan,nan,nan,nan,nan,nan,nan,nan,nan,nan,nan,0.0,nan,nan,nan,nan,nan,nan,nan,nan,nan,nan,nan,nan,nan,nan,nan,nan,nan,nan,254.03583925997373,612.8183284875704,nan,613.1964483754709,nan,nan,nan,nan
1,214,1,1,1.0,1.0,0.5779569264268503,0,6,8,1,4,0,2,nan,nan,nan,nan,nan,nan,nan,nan,nan,nan,nan,nan,0.0,nan,nan,nan,nan,nan,nan,nan,nan,nan,nan,nan,nan,nan,nan,nan,nan,nan,nan,254.03583925997373,613.818440530682,nan,614.3963974571088,nan,nan,nan,nan
1,215,1,1,1.0,1.0,0.4578181868419051,0,1,6,0,2,5,7,nan,nan,nan,nan,nan,nan,nan,nan,nan,nan,nan,nan,0.0,nan,nan,nan,nan,nan,nan,nan,nan,nan,nan,nan,nan,nan,nan,nan,nan,nan,nan,254.03583925997373,614.8185645479243,nan,615.2763827347662,nan,nan,nan,nan
1,216,1,1,1.0,1.0,0.5856973102781922,0,0,5,4,7,8,6,nan,nan,nan,nan,nan,nan,nan,nan,nan,nan,nan,nan,0.0,nan,nan,nan,nan,nan,nan,nan,nan,nan,nan,nan,nan,nan,nan,nan,nan,nan,nan,254.03583925997373,615.818690275657,nan,616.4043875859352,nan,nan,nan,nan
1,217,1,1,1.0,1.0,0.7375465349759907,0,5,7,1,3,4,0,nan,nan,nan,nan,nan,nan,nan,nan,nan,nan,nan,nan,0.0,nan,nan,nan,nan,nan,nan,nan,nan,nan,nan,nan,nan,nan,nan,nan,nan,nan,nan,254.03583925997373,616.8188148631016,nan,617.5563613980776,nan,nan,nan,nan
1,218,1,1,nan,nan,nan,0,8,0,6,2,5,3,nan,nan,nan,nan,nan,nan,nan,nan,nan,nan,nan,nan,0.0,nan,nan,nan,nan,nan,nan,nan,nan,nan,nan,nan,nan,nan,nan,nan,nan,nan,nan,254.03583925997373,617.8189676750917,nan,nan,nan,nan,nan,nan
1,219,1,1,1.0,1.0,0.7531795444665477,0,5,7,0,3,1,4,nan,nan,nan,nan,nan,nan,nan,nan,nan,nan,nan,nan,0.0,nan,nan,nan,nan,nan,nan,nan,nan,nan,nan,nan,nan,nan,nan,nan,nan,nan,nan,254.03583925997373,618.8190857052105,nan,619.572265249677,nan,nan,nan,nan
1,220,1,1,1.0,1.0,0.5850866325199604,0,6,8,5,4,0,3,nan,nan,nan,nan,nan,nan,nan,nan,nan,nan,nan,nan,0.0,nan,nan,nan,nan,nan,nan,nan,nan,nan,nan,nan,nan,nan,nan,nan,nan,nan,nan,254.03583925997373,619.8191983185243,nan,620.4042849510442,nan,nan,nan,nan
1,221,1,1,1.0,1.0,0.5289521715603769,0,8,2,7,3,6,4,nan,nan,nan,nan,nan,nan,nan,nan,nan,nan,nan,nan,0.0,nan,nan,nan,nan,nan,nan,nan,nan,nan,nan,nan,nan,nan,nan,nan,nan,nan,nan,254.03583925997373,620.8193012386328,nan,621.3482534101931,nan,nan,nan,nan
1,222,1,1,1.0,1.0,0.576792590203695,0,3,6,0,1,4,2,nan,nan,nan,nan,nan,nan,nan,nan,nan,nan,nan,nan,0.0,nan,nan,nan,nan,nan,nan,nan,nan,nan,nan,nan,nan,nan,nan,nan,nan,nan,nan,254.03583925997373,621.8194429317955,nan,622.3962355219992,nan,nan,nan,nan
1,223,1,1,1.0,1.0,0.520650431746617,0,2,5,4,6,3,8,nan,nan,nan,nan,nan,nan,nan,nan,nan,nan,nan,nan,0.0,nan,nan,nan,nan,nan,nan,nan,nan,nan,nan,nan,nan,nan,nan,nan,nan,nan,nan,254.03583925997373,622.8195723658428,nan,623.3402227975894,nan,nan,nan,nan
1,224,1,1,1.0,1.0,0.5925065671326593,0,1,6,8,7,0,5,nan,nan,nan,nan,nan,nan,nan,nan,nan,nan,nan,nan,0.0,nan,nan,nan,nan,nan,nan,nan,nan,nan,nan,nan,nan,nan,nan,nan,nan,nan,nan,254.03583925997373,623.8196963830851,nan,624.4122029502178,nan,nan,nan,nan
1,225,1,1,1.0,1.0,0.6323331940220669,0,3,2,4,8,6,7,nan,nan,nan,nan,nan,nan,nan,nan,nan,nan,nan,nan,0.0,nan,nan,nan,nan,nan,nan,nan,nan,nan,nan,nan,nan,nan,nan,nan,nan,nan,nan,254.03583925997373,624.8198395017534,nan,625.4521726957755,nan,nan,nan,nan
1,226,1,1,1.0,1.0,0.5122494781389832,0,6,7,8,3,1,2,nan,nan,nan,nan,nan,nan,nan,nan,nan,nan,nan,nan,0.0,nan,nan,nan,nan,nan,nan,nan,nan,nan,nan,nan,nan,nan,nan,nan,nan,nan,nan,254.03583925997373,625.8199321582215,nan,626.3321816363605,nan,nan,nan,nan
1,227,1,1,1.0,1.0,0.5360630612121895,0,3,1,2,4,0,8,nan,nan,nan,nan,nan,nan,nan,nan,nan,nan,nan,nan,0.0,nan,nan,nan,nan,nan,nan,nan,nan,nan,nan,nan,nan,nan,nan,nan,nan,nan,nan,254.03583925997373,626.8200658687856,nan,627.3561289299978,nan,nan,nan,nan
1,228,1,1,1.0,1.0,0.46392325416672975,0,0,4,1,6,7,3,nan,nan,nan,nan,nan,nan,nan,nan,nan,nan,nan,nan,0.0,nan,nan,nan,nan,nan,nan,nan,nan,nan,nan,nan,nan,nan,nan,nan,nan,nan,nan,254.03583925997373,627.820195587934,nan,628.2841188421007,nan,nan,nan,nan
1,229,1,1,1.0,1.0,0.5917801400646567,0,4,3,5,8,6,2,nan,nan,nan,nan,nan,nan,nan,nan,nan,nan,nan,nan,0.0,nan,nan,nan,nan,nan,nan,nan,nan,nan,nan,nan,nan,nan,nan,nan,nan,nan,nan,254.03583925997373,628.8203196050599,nan,629.4120997451246,nan,nan,nan,nan
1,230,0,0,0.0,1.0,0.6876143595436588,0,1,4,0,3,5,6,nan,nan,nan,nan,nan,nan,nan,nan,nan,nan,nan,nan,0.0,nan,nan,nan,nan,nan,nan,nan,nan,nan,nan,nan,nan,nan,nan,nan,nan,nan,nan,254.03583925997373,629.8204513199162,nan,630.5080656794598,nan,nan,nan,nan
1,231,1,1,nan,nan,nan,0,6,3,1,2,0,5,nan,nan,nan,nan,nan,nan,nan,nan,nan,nan,nan,nan,0.0,nan,nan,nan,nan,nan,nan,nan,nan,nan,nan,nan,nan,nan,nan,nan,nan,nan,nan,254.03583925997373,630.8205699202372,nan,nan,nan,nan,nan,nan
1,232,0,0,0.0,1.0,0.735331331146881,0,7,2,4,6,5,0,nan,nan,nan,nan,nan,nan,nan,nan,nan,nan,nan,nan,0.0,nan,nan,nan,nan,nan,nan,nan,nan,nan,nan,nan,nan,nan,nan,nan,nan,nan,nan,254.03583925997373,631.8206793975551,nan,632.556010728702,nan,nan,nan,nan
1,233,1,1,1.0,1.0,0.5512230946915224,0,5,8,2,7,1,3,nan,nan,nan,nan,nan,nan,nan,nan,nan,nan,nan,nan,0.0,nan,nan,nan,nan,nan,nan,nan,nan,nan,nan,nan,nan,nan,nan,nan,nan,nan,nan,254.03583925997373,632.8208014190895,nan,633.3720245137811,nan,nan,nan,nan
1,234,1,1,1.0,1.0,0.5510876736370847,0,4,3,0,6,5,1,nan,nan,nan,nan,nan,nan,nan,nan,nan,nan,nan,nan,0.0,nan,nan,nan,nan,nan,nan,nan,nan,nan,nan,nan,nan,nan,nan,nan,nan,nan,nan,254.03583925997373,633.8209277170245,nan,634.3720153906615,nan,nan,nan,nan
1,235,1,1,1.0,1.0,0.46291828714311123,0,8,6,3,1,4,7,nan,nan,nan,nan,nan,nan,nan,nan,nan,nan,nan,nan,0.0,nan,nan,nan,nan,nan,nan,nan,nan,nan,nan,nan,nan,nan,nan,nan,nan,nan,nan,254.03583925997373,634.8210517342668,nan,635.2839700214099,nan,nan,nan,nan
1,236,1,1,1.0,1.0,0.7347625626716763,0,1,7,0,8,6,2,nan,nan,nan,nan,nan,nan,nan,nan,nan,nan,nan,nan,0.0,nan,nan,nan,nan,nan,nan,nan,nan,nan,nan,nan,nan,nan,nan,nan,nan,nan,nan,254.03583925997373,635.821196848643,nan,636.5559594113147,nan,nan,nan,nan
1,237,1,1,1.0,1.0,0.7905948207480833,0,5,3,4,7,8,6,nan,nan,nan,nan,nan,nan,nan,nan,nan,nan,nan,nan,0.0,nan,nan,nan,nan,nan,nan,nan,nan,nan,nan,nan,nan,nan,nan,nan,nan,nan,nan,254.03583925997373,636.8213200104656,nan,637.6119148312137,nan,nan,nan,nan
1,238,1,1,nan,nan,nan,0,3,7,5,2,0,8,nan,nan,nan,nan,nan,nan,nan,nan,nan,nan,nan,nan,0.0,nan,nan,nan,nan,nan,nan,nan,nan,nan,nan,nan,nan,nan,nan,nan,nan,nan,nan,254.03583925997373,637.8214485893259,nan,nan,nan,nan,nan,nan
1,239,1,1,nan,nan,nan,0,1,3,7,8,5,2,nan,nan,nan,nan,nan,nan,nan,nan,nan,nan,nan,nan,0.0,nan,nan,nan,nan,nan,nan,nan,nan,nan,nan,nan,nan,nan,nan,nan,nan,nan,nan,254.03583925997373,638.8215689002536,nan,nan,nan,nan,nan,nan
1,240,1,1,nan,nan,nan,0,2,7,1,5,8,6,nan,nan,nan,nan,nan,nan,nan,nan,nan,nan,nan,nan,0.0,nan,nan,nan,nan,nan,nan,nan,nan,nan,nan,nan,nan,nan,nan,nan,nan,nan,nan,254.03583925997373,639.8217125891242,nan,nan,nan,nan,nan,nan
1,241,1,1,1.0,1.0,0.03005920327268541,0,6,0,5,1,4,2,nan,nan,nan,nan,nan,nan,nan,nan,nan,nan,nan,nan,0.0,nan,nan,nan,nan,nan,nan,nan,nan,nan,nan,nan,nan,nan,nan,nan,nan,nan,nan,254.03583925997373,640.8218214961234,nan,640.8518806993961,nan,nan,nan,nan
1,242,1,1,1.0,1.0,0.2778806344140321,0,5,7,3,2,0,6,nan,nan,nan,nan,nan,nan,nan,nan,nan,nan,nan,nan,0.0,nan,nan,nan,nan,nan,nan,nan,nan,nan,nan,nan,nan,nan,nan,nan,nan,nan,nan,254.03583925997373,641.821946083568,nan,642.0998267179821,nan,nan,nan,nan
1,243,1,1,1.0,1.0,0.32575526472646743,0,3,1,8,5,4,2,nan,nan,nan,nan,nan,nan,nan,nan,nan,nan,nan,nan,0.0,nan,nan,nan,nan,nan,nan,nan,nan,nan,nan,nan,nan,nan,nan,nan,nan,nan,nan,254.03583925997373,642.8220738070086,nan,643.147829071735,nan,nan,nan,nan
1,244,1,1,1.0,1.0,0.4296220925170928,0,0,6,1,2,7,4,nan,nan,nan,nan,nan,nan,nan,nan,nan,nan,nan,nan,0.0,nan,nan,nan,nan,nan,nan,nan,nan,nan,nan,nan,nan,nan,nan,nan,nan,nan,nan,254.03583925997373,643.8221952583408,nan,644.2518173508579,nan,nan,nan,nan
1,245,1,1,1.0,1.0,0.365450746845454,0,1,4,3,7,5,0,nan,nan,nan,nan,nan,nan,nan,nan,nan,nan,nan,nan,0.0,nan,nan,nan,nan,nan,nan,nan,nan,nan,nan,nan,nan,nan,nan,nan,nan,nan,nan,254.03583925997373,644.8223204159876,nan,645.1877711628331,nan,nan,nan,nan
1,246,1,1,1.0,1.0,0.34931938792578876,0,6,8,7,0,4,2,nan,nan,nan,nan,nan,nan,nan,nan,nan,nan,nan,nan,0.0,nan,nan,nan,nan,nan,nan,nan,nan,nan,nan,nan,nan,nan,nan,nan,nan,nan,nan,254.03583925997373,645.8224432927091,nan,646.1717626806349,nan,nan,nan,nan
1,247,1,1,1.0,1.0,0.397168644471094,0,3,2,4,5,1,0,nan,nan,nan,nan,nan,nan,nan,nan,nan,nan,nan,nan,0.0,nan,nan,nan,nan,nan,nan,nan,nan,nan,nan,nan,nan,nan,nan,nan,nan,nan,nan,254.03583925997373,646.8225698758615,nan,647.2197385203326,nan,nan,nan,nan
1,248,1,1,1.0,1.0,0.16463725117500871,0,8,0,5,2,3,6,nan,nan,nan,nan,nan,nan,nan,nan,nan,nan,nan,nan,0.0,nan,nan,nan,nan,nan,nan,nan,nan,nan,nan,nan,nan,nan,nan,nan,nan,nan,nan,254.03583925997373,647.8310706133489,nan,647.9957078645239,nan,nan,nan,nan
1,249,1,1,nan,nan,nan,0,5,6,8,7,1,3,nan,nan,nan,nan,nan,nan,nan,nan,nan,nan,nan,nan,0.0,nan,nan,nan,nan,nan,nan,nan,nan,nan,nan,nan,nan,nan,nan,nan,nan,nan,nan,254.03583925997373,648.8311641252367,nan,nan,nan,nan,nan,nan
1,250,0,0,0.0,1.0,0.6524162826826796,0,2,4,1,3,5,7,nan,nan,nan,nan,nan,nan,nan,nan,nan,nan,nan,nan,0.0,nan,nan,nan,nan,nan,nan,nan,nan,nan,nan,nan,nan,nan,nan,nan,nan,nan,nan,254.03583925997373,649.8312738875393,nan,650.483690170222,nan,nan,nan,nan
1,251,1,1,1.0,1.0,0.5802716290345415,0,0,5,7,4,6,8,nan,nan,nan,nan,nan,nan,nan,nan,nan,nan,nan,nan,0.0,nan,nan,nan,nan,nan,nan,nan,nan,nan,nan,nan,nan,nan,nan,nan,nan,nan,nan,254.03583925997373,650.8313870710554,nan,651.4116587000899,nan,nan,nan,nan
1,252,0,0,1.0,0.0,0.3321300338720903,0,7,2,8,0,3,1,nan,nan,nan,nan,nan,nan,nan,nan,nan,nan,nan,nan,0.0,nan,nan,nan,nan,nan,nan,nan,nan,nan,nan,nan,nan,nan,nan,nan,nan,nan,nan,254.03583925997373,651.8315130838891,nan,652.1636431177612,nan,nan,nan,nan
1,253,1,1,1.0,1.0,0.7399384989403188,0,4,0,6,2,7,3,nan,nan,nan,nan,nan,nan,nan,nan,nan,nan,nan,nan,0.0,nan,nan,nan,nan,nan,nan,nan,nan,nan,nan,nan,nan,nan,nan,nan,nan,nan,nan,254.03583925997373,652.8316325395135,nan,653.5715710384538,nan,nan,nan,nan
1,254,1,1,1.0,1.0,0.45982783555518836,0,6,3,5,4,0,7,nan,nan,nan,nan,nan,nan,nan,nan,nan,nan,nan,nan,0.0,nan,nan,nan,nan,nan,nan,nan,nan,nan,nan,nan,nan,nan,nan,nan,nan,nan,nan,254.03583925997373,653.8317665351788,nan,654.291594370734,nan,nan,nan,nan
1,255,1,1,1.0,1.0,0.2676878460915759,0,8,5,6,1,7,0,nan,nan,nan,nan,nan,nan,nan,nan,nan,nan,nan,nan,0.0,nan,nan,nan,nan,nan,nan,nan,nan,nan,nan,nan,nan,nan,nan,nan,nan,nan,nan,254.03583925997373,654.8318891269155,nan,655.0995769730071,nan,nan,nan,nan
1,256,1,1,1.0,1.0,0.37157035432755947,0,0,4,5,8,2,7,nan,nan,nan,nan,nan,nan,nan,nan,nan,nan,nan,nan,0.0,nan,nan,nan,nan,nan,nan,nan,nan,nan,nan,nan,nan,nan,nan,nan,nan,nan,nan,254.03583925997373,655.8320125738392,nan,656.2035829281667,nan,nan,nan,nan
1,257,1,1,1.0,1.0,0.3554073494160548,0,7,1,6,5,0,4,nan,nan,nan,nan,nan,nan,nan,nan,nan,nan,nan,nan,0.0,nan,nan,nan,nan,nan,nan,nan,nan,nan,nan,nan,nan,nan,nan,nan,nan,nan,nan,254.03583925997373,656.832140012295,nan,657.187547361711,nan,nan,nan,nan
1,258,1,1,1.0,1.0,0.7632386222248897,0,3,6,2,0,1,8,nan,nan,nan,nan,nan,nan,nan,nan,nan,nan,nan,nan,0.0,nan,nan,nan,nan,nan,nan,nan,nan,nan,nan,nan,nan,nan,nan,nan,nan,nan,nan,254.03583925997373,657.8322668804321,nan,658.595505502657,nan,nan,nan,nan
1,259,1,1,1.0,1.0,0.5230669140582904,0,1,5,3,7,6,0,nan,nan,nan,nan,nan,nan,nan,nan,nan,nan,nan,nan,0.0,nan,nan,nan,nan,nan,nan,nan,nan,nan,nan,nan,nan,nan,nan,nan,nan,nan,nan,254.03583925997373,658.8324085735949,nan,659.3554754876532,nan,nan,nan,nan
1,260,1,1,1.0,1.0,0.690947143593803,0,5,6,8,4,3,2,nan,nan,nan,nan,nan,nan,nan,nan,nan,nan,nan,nan,0.0,nan,nan,nan,nan,nan,nan,nan,nan,nan,nan,nan,nan,nan,nan,nan,nan,nan,nan,254.03583925997373,659.8325308802305,nan,660.5234780238243,nan,nan,nan,nan
1,261,1,1,1.0,1.0,0.5227664217818528,0,8,4,5,7,6,1,nan,nan,nan,nan,nan,nan,nan,nan,nan,nan,nan,nan,0.0,nan,nan,nan,nan,nan,nan,nan,nan,nan,nan,nan,nan,nan,nan,nan,nan,nan,nan,254.03583925997373,660.8326594589744,nan,661.3554258807562,nan,nan,nan,nan
1,262,1,1,1.0,1.0,0.32263060146942735,1,5,0,3,8,1,6,1.0,1.0,1.0,1.0,1.0,1.0,0.0,1.0,0.0,0.0,0.0,1.0,2.0,8.0,0.0,6.0,2.0,4.0,6.0,1.0,6.0,5.0,4.0,3.0,2.0,3.751551355351694,10.605471638846211,9.454318620963022,8.150538348709233,6.829582407022826,5.319434949196875,254.03583925997373,661.8327857570257,662.6411997110117,662.1554163584951,674.3009848961374,675.3022059665527,663.658012736938,674.2926535061561
1,263,1,1,nan,nan,nan,0,6,5,2,4,3,0,nan,nan,nan,nan,nan,nan,nan,nan,nan,nan,nan,nan,0.0,nan,nan,nan,nan,nan,nan,nan,nan,nan,nan,nan,nan,nan,nan,nan,nan,nan,nan,254.03583925997373,675.5095305079594,nan,nan,nan,nan,nan,nan
1,264,1,1,1.0,1.0,0.5094589486252517,0,3,4,8,7,6,5,nan,nan,nan,nan,nan,nan,nan,nan,nan,nan,nan,nan,0.0,nan,nan,nan,nan,nan,nan,nan,nan,nan,nan,nan,nan,nan,nan,nan,nan,nan,nan,254.03583925997373,676.5096257303376,nan,677.0190846789628,nan,nan,nan,nan
1,265,1,1,1.0,1.0,0.38137569569516927,0,5,3,0,6,8,4,nan,nan,nan,nan,nan,nan,nan,nan,nan,nan,nan,nan,0.0,nan,nan,nan,nan,nan,nan,nan,nan,nan,nan,nan,nan,nan,nan,nan,nan,nan,nan,254.03583925997373,677.5097360628424,nan,677.8911117585376,nan,nan,nan,nan
1,266,1,1,1.0,1.0,0.3492273016599938,0,1,4,5,8,6,0,nan,nan,nan,nan,nan,nan,nan,nan,nan,nan,nan,nan,0.0,nan,nan,nan,nan,nan,nan,nan,nan,nan,nan,nan,nan,nan,nan,nan,nan,nan,nan,254.03583925997373,678.5098700583912,nan,678.8590973600512,nan,nan,nan,nan
1,267,1,1,1.0,1.0,0.49303793103899807,0,6,5,0,7,1,2,nan,nan,nan,nan,nan,nan,nan,nan,nan,nan,nan,nan,0.0,nan,nan,nan,nan,nan,nan,nan,nan,nan,nan,nan,nan,nan,nan,nan,nan,nan,nan,254.03583925997373,679.509992650128,nan,680.003030581167,nan,nan,nan,nan
1,268,1,1,1.0,1.0,0.38057685387320817,0,4,6,8,1,2,5,nan,nan,nan,nan,nan,nan,nan,nan,nan,nan,nan,nan,0.0,nan,nan,nan,nan,nan,nan,nan,nan,nan,nan,nan,nan,nan,nan,nan,nan,nan,nan,254.03583925997373,680.5184526188532,nan,680.8990294727264,nan,nan,nan,nan
1,269,1,1,1.0,1.0,0.33243964915163815,0,0,8,4,3,5,7,nan,nan,nan,nan,nan,nan,nan,nan,nan,nan,nan,nan,0.0,nan,nan,nan,nan,nan,nan,nan,nan,nan,nan,nan,nan,nan,nan,nan,nan,nan,nan,254.03583925997373,681.5185840486083,nan,681.85102369776,nan,nan,nan,nan
1,270,1,1,1.0,1.0,0.27633711916860193,0,7,0,3,5,1,2,nan,nan,nan,nan,nan,nan,nan,nan,nan,nan,nan,nan,0.0,nan,nan,nan,nan,nan,nan,nan,nan,nan,nan,nan,nan,nan,nan,nan,nan,nan,nan,254.03583925997373,682.5187035042327,nan,682.7950406234013,nan,nan,nan,nan
1,271,1,1,1.0,1.0,0.4281626809388399,0,8,1,5,4,6,0,nan,nan,nan,nan,nan,nan,nan,nan,nan,nan,nan,nan,0.0,nan,nan,nan,nan,nan,nan,nan,nan,nan,nan,nan,nan,nan,nan,nan,nan,nan,nan,254.03583925997373,683.5188292319654,nan,683.9469919129042,nan,nan,nan,nan
1,272,1,1,1.0,1.0,0.6519954795949161,0,6,4,0,5,2,3,nan,nan,nan,nan,nan,nan,nan,nan,nan,nan,nan,nan,0.0,nan,nan,nan,nan,nan,nan,nan,nan,nan,nan,nan,nan,nan,nan,nan,nan,nan,nan,254.03583925997373,684.5189643679187,nan,685.1709598475136,nan,nan,nan,nan
1,273,0,0,0.0,1.0,0.6358510060235858,0,5,0,8,2,7,1,nan,nan,nan,nan,nan,nan,nan,nan,nan,nan,nan,nan,0.0,nan,nan,nan,nan,nan,nan,nan,nan,nan,nan,nan,nan,nan,nan,nan,nan,nan,nan,254.03583925997373,685.5190798322437,nan,686.1549308382673,nan,nan,nan,nan
1,274,1,1,1.0,1.0,0.6437079944880679,0,6,4,5,1,8,7,nan,nan,nan,nan,nan,nan,nan,nan,nan,nan,nan,nan,0.0,nan,nan,nan,nan,nan,nan,nan,nan,nan,nan,nan,nan,nan,nan,nan,nan,nan,nan,254.03583925997373,686.5191964369733,nan,687.1629044314614,nan,nan,nan,nan
1,275,0,0,0.0,1.0,0.5075433817692101,0,8,6,1,4,3,5,nan,nan,nan,nan,nan,nan,nan,nan,nan,nan,nan,nan,0.0,nan,nan,nan,nan,nan,nan,nan,nan,nan,nan,nan,nan,nan,nan,nan,nan,nan,nan,254.03583925997373,687.5193455426488,nan,688.026888924418,nan,nan,nan,nan
1,276,1,1,1.0,1.0,0.3714289461495355,0,4,5,2,8,0,1,nan,nan,nan,nan,nan,nan,nan,nan,nan,nan,nan,nan,0.0,nan,nan,nan,nan,nan,nan,nan,nan,nan,nan,nan,nan,nan,nan,nan,nan,nan,nan,254.03583925997373,688.5194299314171,nan,688.8908588775666,nan,nan,nan,nan
1,277,1,1,0.0,0.0,0.2832079571671784,1,6,2,5,1,7,4,1.0,1.0,1.0,1.0,1.0,1.0,0.0,0.0,0.0,0.0,0.0,0.0,0.0,4.0,0.0,3.0,2.0,5.0,1.0,1.0,6.0,5.0,4.0,3.0,2.0,3.1990347754908726,8.318008893867955,7.478465197375044,6.3747913802508265,5.0307246196316555,4.014947636169381,254.03583925997373,689.5195793221937,690.3279975526966,689.8027872793609,699.7124751039082,700.7141623080242,691.3531345560914,699.7041428586235
1,278,1,1,1.0,1.0,0.6415914343670011,0,3,4,8,6,5,1,nan,nan,nan,nan,nan,nan,nan,nan,nan,nan,nan,nan,0.0,nan,nan,nan,nan,nan,nan,nan,nan,nan,nan,nan,nan,nan,nan,nan,nan,nan,nan,254.03583925997373,700.9209833679488,nan,701.5625748023158,nan,nan,nan,nan
1,279,1,1,1.0,1.0,0.3854916412383318,0,7,3,2,4,6,0,nan,nan,nan,nan,nan,nan,nan,nan,nan,nan,nan,nan,0.0,nan,nan,nan,nan,nan,nan,nan,nan,nan,nan,nan,nan,nan,nan,nan,nan,nan,nan,254.03583925997373,701.921133043943,nan,702.3066246851813,nan,nan,nan,nan
1,280,0,0,1.0,0.0,0.337352440925315,0,1,6,8,2,3,7,nan,nan,nan,nan,nan,nan,nan,nan,nan,nan,nan,nan,0.0,nan,nan,nan,nan,nan,nan,nan,nan,nan,nan,nan,nan,nan,nan,nan,nan,nan,nan,254.03583925997373,702.9212371043395,nan,703.2585895452648,nan,nan,nan,nan
1,281,1,1,0.0,0.0,0.32126726768910885,0,6,4,1,5,0,2,nan,nan,nan,nan,nan,nan,nan,nan,nan,nan,nan,nan,0.0,nan,nan,nan,nan,nan,nan,nan,nan,nan,nan,nan,nan,nan,nan,nan,nan,nan,nan,254.03583925997373,703.9213542791549,nan,704.242621546844,nan,nan,nan,nan
1,282,1,1,nan,nan,nan,0,5,2,6,4,1,8,nan,nan,nan,nan,nan,nan,nan,nan,nan,nan,nan,nan,0.0,nan,nan,nan,nan,nan,nan,nan,nan,nan,nan,nan,nan,nan,nan,nan,nan,nan,nan,254.03583925997373,704.9215045253513,nan,nan,nan,nan,nan,nan
1,283,1,1,1.0,1.0,0.4728370972443372,0,4,7,2,0,5,1,nan,nan,nan,nan,nan,nan,nan,nan,nan,nan,nan,nan,0.0,nan,nan,nan,nan,nan,nan,nan,nan,nan,nan,nan,nan,nan,nan,nan,nan,nan,nan,254.03583925997373,705.9216311083874,nan,706.3944682056317,nan,nan,nan,nan
1,284,1,1,1.0,1.0,0.4247483591316268,0,7,8,0,1,3,4,nan,nan,nan,nan,nan,nan,nan,nan,nan,nan,nan,nan,0.0,nan,nan,nan,nan,nan,nan,nan,nan,nan,nan,nan,nan,nan,nan,nan,nan,nan,nan,254.03583925997373,706.921743151499,nan,707.3464915106306,nan,nan,nan,nan
1,285,1,1,nan,nan,nan,0,5,2,1,7,4,3,nan,nan,nan,nan,nan,nan,nan,nan,nan,nan,nan,nan,0.0,nan,nan,nan,nan,nan,nan,nan,nan,nan,nan,nan,nan,nan,nan,nan,nan,nan,nan,254.03583925997373,707.9218731557485,nan,nan,nan,nan,nan,nan
1,286,1,1,nan,nan,nan,0,4,6,5,0,8,2,nan,nan,nan,nan,nan,nan,nan,nan,nan,nan,nan,nan,0.0,nan,nan,nan,nan,nan,nan,nan,nan,nan,nan,nan,nan,nan,nan,nan,nan,nan,nan,254.03583925997373,708.922006581095,nan,nan,nan,nan,nan,nan
1,287,1,1,nan,nan,nan,0,1,7,6,2,0,4,nan,nan,nan,nan,nan,nan,nan,nan,nan,nan,nan,nan,0.0,nan,nan,nan,nan,nan,nan,nan,nan,nan,nan,nan,nan,nan,nan,nan,nan,nan,nan,254.03583925997373,709.9221673758002,nan,nan,nan,nan,nan,nan
1,288,1,1,nan,nan,nan,0,2,6,3,0,8,1,nan,nan,nan,nan,nan,nan,nan,nan,nan,nan,nan,nan,0.0,nan,nan,nan,nan,nan,nan,nan,nan,nan,nan,nan,nan,nan,nan,nan,nan,nan,nan,254.03583925997373,710.9222531900741,nan,nan,nan,nan,nan,nan
1,289,1,1,nan,nan,nan,0,3,8,7,2,6,4,nan,nan,nan,nan,nan,nan,nan,nan,nan,nan,nan,nan,0.0,nan,nan,nan,nan,nan,nan,nan,nan,nan,nan,nan,nan,nan,nan,nan,nan,nan,nan,254.03583925997373,711.9223800582113,nan,nan,nan,nan,nan,nan
1,290,1,1,1.0,1.0,0.055906668305397034,0,7,2,6,8,4,5,nan,nan,nan,nan,nan,nan,nan,nan,nan,nan,nan,nan,0.0,nan,nan,nan,nan,nan,nan,nan,nan,nan,nan,nan,nan,nan,nan,nan,nan,nan,nan,254.03583925997373,712.9225114879664,nan,712.9784181562718,nan,nan,nan,nan
1,291,1,1,1.0,1.0,0.03980353393126279,0,2,6,0,1,7,4,nan,nan,nan,nan,nan,nan,nan,nan,nan,nan,nan,nan,0.0,nan,nan,nan,nan,nan,nan,nan,nan,nan,nan,nan,nan,nan,nan,nan,nan,nan,nan,254.03583925997373,713.9225961617194,nan,713.9623996956507,nan,nan,nan,nan
1,292,1,1,1.0,1.0,0.6235522060887888,0,8,4,7,5,0,3,nan,nan,nan,nan,nan,nan,nan,nan,nan,nan,nan,nan,0.0,nan,nan,nan,nan,nan,nan,nan,nan,nan,nan,nan,nan,nan,nan,nan,nan,nan,nan,254.03583925997373,714.9227791940793,nan,715.5463314001681,nan,nan,nan,nan
1,293,0,0,0.0,1.0,0.5194222338031977,0,1,2,5,6,8,0,nan,nan,nan,nan,nan,nan,nan,nan,nan,nan,nan,nan,0.0,nan,nan,nan,nan,nan,nan,nan,nan,nan,nan,nan,nan,nan,nan,nan,nan,nan,nan,254.03583925997373,715.9228841097793,nan,716.4423063435825,nan,nan,nan,nan
1,294,1,1,0.0,0.0,0.15927543165162206,0,6,1,2,8,4,3,nan,nan,nan,nan,nan,nan,nan,nan,nan,nan,nan,nan,0.0,nan,nan,nan,nan,nan,nan,nan,nan,nan,nan,nan,nan,nan,nan,nan,nan,nan,nan,254.03583925997373,716.9230332154548,nan,717.0823086471064,nan,nan,nan,nan
1,295,1,1,1.0,1.0,0.43110972875729203,0,7,0,4,5,3,8,nan,nan,nan,nan,nan,nan,nan,nan,nan,nan,nan,nan,0.0,nan,nan,nan,nan,nan,nan,nan,nan,nan,nan,nan,nan,nan,nan,nan,nan,nan,nan,254.03583925997373,717.9231521008769,nan,718.3542618296342,nan,nan,nan,nan
1,296,1,1,nan,nan,nan,0,8,3,5,7,4,2,nan,nan,nan,nan,nan,nan,nan,nan,nan,nan,nan,nan,0.0,nan,nan,nan,nan,nan,nan,nan,nan,nan,nan,nan,nan,nan,nan,nan,nan,nan,nan,254.03583925997373,718.9232581569813,nan,nan,nan,nan,nan,nan
1,297,1,1,1.0,1.0,0.15890223963651806,0,2,6,8,1,7,3,nan,nan,nan,nan,nan,nan,nan,nan,nan,nan,nan,nan,0.0,nan,nan,nan,nan,nan,nan,nan,nan,nan,nan,nan,nan,nan,nan,nan,nan,nan,nan,254.03583925997373,719.9233642130857,nan,720.0822664527223,nan,nan,nan,nan
1,298,1,1,nan,nan,nan,0,0,1,2,6,3,4,nan,nan,nan,nan,nan,nan,nan,nan,nan,nan,nan,nan,0.0,nan,nan,nan,nan,nan,nan,nan,nan,nan,nan,nan,nan,nan,nan,nan,nan,nan,nan,254.03583925997373,720.923483383609,nan,nan,nan,nan,nan,nan
1,299,1,1,1.0,1.0,0.7345478846691549,0,3,8,7,4,2,1,nan,nan,nan,nan,nan,nan,nan,nan,nan,nan,nan,nan,0.0,nan,nan,nan,nan,nan,nan,nan,nan,nan,nan,nan,nan,nan,nan,nan,nan,nan,nan,254.03583925997373,721.9236133878585,nan,722.6581612725276,nan,nan,nan,nan
1,300,1,1,1.0,1.0,0.6304492729250342,0,7,2,5,1,3,4,nan,nan,nan,nan,nan,nan,nan,nan,nan,nan,nan,nan,0.0,nan,nan,nan,nan,nan,nan,nan,nan,nan,nan,nan,nan,nan,nan,nan,nan,nan,nan,254.03583925997373,722.9237374051008,nan,723.5541866780259,nan,nan,nan,nan
1,301,1,1,1.0,1.0,0.5902899379143491,0,5,3,4,7,2,8,nan,nan,nan,nan,nan,nan,nan,nan,nan,nan,nan,nan,0.0,nan,nan,nan,nan,nan,nan,nan,nan,nan,nan,nan,nan,nan,nan,nan,nan,nan,nan,254.03583925997373,723.9238659838447,nan,724.5141559217591,nan,nan,nan,nan
1,302,1,1,1.0,1.0,0.47013323719147593,0,8,5,0,3,6,7,nan,nan,nan,nan,nan,nan,nan,nan,nan,nan,nan,nan,0.0,nan,nan,nan,nan,nan,nan,nan,nan,nan,nan,nan,nan,nan,nan,nan,nan,nan,nan,254.03583925997373,724.9240059665171,nan,725.3941392037086,nan,nan,nan,nan
1,303,1,1,1.0,1.0,0.3499791023787111,0,5,6,7,0,1,3,nan,nan,nan,nan,nan,nan,nan,nan,nan,nan,nan,nan,0.0,nan,nan,nan,nan,nan,nan,nan,nan,nan,nan,nan,nan,nan,nan,nan,nan,nan,nan,254.03583925997373,725.924118579831,nan,726.2740976822097,nan,nan,nan,nan
1,304,1,1,1.0,1.0,0.23749151127412915,0,2,1,8,3,4,6,nan,nan,nan,nan,nan,nan,nan,nan,nan,nan,nan,nan,0.0,nan,nan,nan,nan,nan,nan,nan,nan,nan,nan,nan,nan,nan,nan,nan,nan,nan,nan,254.03583925997373,726.9326056326972,nan,727.1700971439714,nan,nan,nan,nan
1,305,1,1,1.0,1.0,0.2213339232839644,0,5,8,6,2,7,4,nan,nan,nan,nan,nan,nan,nan,nan,nan,nan,nan,nan,0.0,nan,nan,nan,nan,nan,nan,nan,nan,nan,nan,nan,nan,nan,nan,nan,nan,nan,nan,254.03583925997373,727.9327199566178,nan,728.1540538799018,nan,nan,nan,nan
1,306,0,0,1.0,0.0,0.07718516874592751,0,4,1,8,7,0,3,nan,nan,nan,nan,nan,nan,nan,nan,nan,nan,nan,nan,0.0,nan,nan,nan,nan,nan,nan,nan,nan,nan,nan,nan,nan,nan,nan,nan,nan,nan,nan,254.03583925997373,728.9328482502606,nan,729.0100334190065,nan,nan,nan,nan
1,307,1,1,0.0,0.0,0.06904450873844326,0,1,7,4,3,8,5,nan,nan,nan,nan,nan,nan,nan,nan,nan,nan,nan,nan,0.0,nan,nan,nan,nan,nan,nan,nan,nan,nan,nan,nan,nan,nan,nan,nan,nan,nan,nan,254.03583925997373,729.9329708419973,nan,730.0020153507357,nan,nan,nan,nan
1,308,1,1,1.0,1.0,0.06890081986784935,0,4,2,5,0,3,8,nan,nan,nan,nan,nan,nan,nan,nan,nan,nan,nan,nan,0.0,nan,nan,nan,nan,nan,nan,nan,nan,nan,nan,nan,nan,nan,nan,nan,nan,nan,nan,254.03583925997373,730.9330977101345,nan,731.0019985300023,nan,nan,nan,nan
1,309,1,1,1.0,1.0,0.10873685486149043,0,7,6,8,4,1,0,nan,nan,nan,nan,nan,nan,nan,nan,nan,nan,nan,nan,0.0,nan,nan,nan,nan,nan,nan,nan,nan,nan,nan,nan,nan,nan,nan,nan,nan,nan,nan,254.03583925997373,731.9332183061633,nan,732.0419551610248,nan,nan,nan,nan
1,310,1,1,1.0,1.0,0.13257980288472027,0,1,3,0,8,6,2,nan,nan,nan,nan,nan,nan,nan,nan,nan,nan,nan,nan,0.0,nan,nan,nan,nan,nan,nan,nan,nan,nan,nan,nan,nan,nan,nan,nan,nan,nan,nan,254.03583925997373,732.933380241273,nan,733.0659600441577,nan,nan,nan,nan
1,311,1,1,1.0,1.0,0.20448697078973055,0,2,8,3,5,1,6,nan,nan,nan,nan,nan,nan,nan,nan,nan,nan,nan,nan,0.0,nan,nan,nan,nan,nan,nan,nan,nan,nan,nan,nan,nan,nan,nan,nan,nan,nan,nan,254.03583925997373,733.9334483793937,nan,734.1379353501834,nan,nan,nan,nan
1,312,1,1,1.0,1.0,0.3083110339939594,0,0,2,8,3,5,4,nan,nan,nan,nan,nan,nan,nan,nan,nan,nan,nan,nan,0.0,nan,nan,nan,nan,nan,nan,nan,nan,nan,nan,nan,nan,nan,nan,nan,nan,nan,nan,254.03583925997373,734.9335914981784,nan,735.2419025321724,nan,nan,nan,nan
1,313,1,1,1.0,1.0,0.35617226467002183,0,7,4,2,5,0,1,nan,nan,nan,nan,nan,nan,nan,nan,nan,nan,nan,nan,0.0,nan,nan,nan,nan,nan,nan,nan,nan,nan,nan,nan,nan,nan,nan,nan,nan,nan,nan,254.03583925997373,735.9337220726302,nan,736.2898943373002,nan,nan,nan,nan
1,314,1,1,1.0,1.0,0.324064924614504,0,4,3,0,1,2,5,nan,nan,nan,nan,nan,nan,nan,nan,nan,nan,nan,nan,0.0,nan,nan,nan,nan,nan,nan,nan,nan,nan,nan,nan,nan,nan,nan,nan,nan,nan,nan,254.03583925997373,736.9338284137193,nan,737.2578933383338,nan,nan,nan,nan
1,315,1,1,1.0,1.0,0.27592116268351674,0,6,8,1,7,4,2,nan,nan,nan,nan,nan,nan,nan,nan,nan,nan,nan,nan,0.0,nan,nan,nan,nan,nan,nan,nan,nan,nan,nan,nan,nan,nan,nan,nan,nan,nan,nan,254.03583925997373,737.9339549968718,nan,738.2098761595553,nan,nan,nan,nan
1,316,1,1,1.0,1.0,0.28376617713365704,0,2,5,3,0,1,6,nan,nan,nan,nan,nan,nan,nan,nan,nan,nan,nan,nan,0.0,nan,nan,nan,nan,nan,nan,nan,nan,nan,nan,nan,nan,nan,nan,nan,nan,nan,nan,254.03583925997373,738.9340812948067,nan,739.2178474719403,nan,nan,nan,nan
1,317,1,1,1.0,1.0,0.523627414717339,0,1,2,5,4,6,3,nan,nan,nan,nan,nan,nan,nan,nan,nan,nan,nan,nan,0.0,nan,nan,nan,nan,nan,nan,nan,nan,nan,nan,nan,nan,nan,nan,nan,nan,nan,nan,254.03583925997373,739.9341782277916,nan,740.4578056425089,nan,nan,nan,nan
1,318,0,0,0.0,1.0,0.4114762380486354,0,3,6,1,8,2,7,nan,nan,nan,nan,nan,nan,nan,nan,nan,nan,nan,nan,0.0,nan,nan,nan,nan,nan,nan,nan,nan,nan,nan,nan,nan,nan,nan,nan,nan,nan,nan,254.03583925997373,740.9343378820922,nan,741.3458141201409,nan,nan,nan,nan
1,319,1,1,1.0,1.0,0.28330489015206695,1,1,0,4,5,8,6,1.0,1.0,1.0,1.0,1.0,1.0,0.0,0.0,0.0,1.0,1.0,0.0,2.0,6.0,4.0,3.0,5.0,8.0,5.0,2.0,3.0,4.0,5.0,6.0,1.0,3.3757319153519347,4.805968106840737,5.950757474289276,7.021910275449045,8.485677011311054,2.406996793812141,254.03583925997373,741.9344710224541,742.7428866870468,742.2177759126062,752.294056753628,753.3006727148313,743.7680262562353,752.2857239382574
1,320,1,1,nan,nan,nan,0,6,5,0,4,2,3,nan,nan,nan,nan,nan,nan,nan,nan,nan,nan,nan,nan,0.0,nan,nan,nan,nan,nan,nan,nan,nan,nan,nan,nan,nan,nan,nan,nan,nan,nan,nan,254.03583925997373,753.5026277391007,nan,nan,nan,nan,nan,nan
1,321,1,1,nan,nan,nan,0,3,8,5,0,7,1,nan,nan,nan,nan,nan,nan,nan,nan,nan,nan,nan,nan,0.0,nan,nan,nan,nan,nan,nan,nan,nan,nan,nan,nan,nan,nan,nan,nan,nan,nan,nan,254.03583925997373,754.5027118427679,nan,nan,nan,nan,nan,nan
1,322,1,1,nan,nan,nan,0,1,7,2,3,0,5,nan,nan,nan,nan,nan,nan,nan,nan,nan,nan,nan,nan,0.0,nan,nan,nan,nan,nan,nan,nan,nan,nan,nan,nan,nan,nan,nan,nan,nan,nan,nan,254.03583925997373,755.5028321536956,nan,nan,nan,nan,nan,nan
1,323,1,1,nan,nan,nan,0,8,6,4,1,3,7,nan,nan,nan,nan,nan,nan,nan,nan,nan,nan,nan,nan,0.0,nan,nan,nan,nan,nan,nan,nan,nan,nan,nan,nan,nan,nan,nan,nan,nan,nan,nan,254.03583925997373,756.5029963694979,nan,nan,nan,nan,nan,nan
1,324,1,1,1.0,1.0,0.7063403864158317,0,7,4,8,0,2,1,nan,nan,nan,nan,nan,nan,nan,nan,nan,nan,nan,nan,0.0,nan,nan,nan,nan,nan,nan,nan,nan,nan,nan,nan,nan,nan,nan,nan,nan,nan,nan,254.03583925997373,757.5030784774572,nan,758.209418863873,nan,nan,nan,nan
1,325,1,1,1.0,1.0,0.37020445440430194,0,4,3,2,1,5,6,nan,nan,nan,nan,nan,nan,nan,nan,nan,nan,nan,nan,0.0,nan,nan,nan,nan,nan,nan,nan,nan,nan,nan,nan,nan,nan,nan,nan,nan,nan,nan,254.03583925997373,758.503219315433,nan,758.8734237698372,nan,nan,nan,nan
1,326,1,1,1.0,1.0,0.2500939394813031,0,8,6,1,2,0,4,nan,nan,nan,nan,nan,nan,nan,nan,nan,nan,nan,nan,0.0,nan,nan,nan,nan,nan,nan,nan,nan,nan,nan,nan,nan,nan,nan,nan,nan,nan,nan,254.03583925997373,759.5033156782156,nan,759.7534096176969,nan,nan,nan,nan
1,327,1,1,1.0,1.0,0.16189946443773806,0,3,5,0,7,2,6,nan,nan,nan,nan,nan,nan,nan,nan,nan,nan,nan,nan,0.0,nan,nan,nan,nan,nan,nan,nan,nan,nan,nan,nan,nan,nan,nan,nan,nan,nan,nan,254.03583925997373,760.5035018465715,nan,760.6654013110092,nan,nan,nan,nan
1,328,1,1,1.0,1.0,0.017825975664891303,0,1,3,2,6,0,8,nan,nan,nan,nan,nan,nan,nan,nan,nan,nan,nan,nan,0.0,nan,nan,nan,nan,nan,nan,nan,nan,nan,nan,nan,nan,nan,nan,nan,nan,nan,nan,254.03583925997373,761.5035685591865,nan,761.5213945348514,nan,nan,nan,nan
1,329,1,1,1.0,1.0,0.22564829629845917,0,6,2,7,4,1,0,nan,nan,nan,nan,nan,nan,nan,nan,nan,nan,nan,nan,0.0,nan,nan,nan,nan,nan,nan,nan,nan,nan,nan,nan,nan,nan,nan,nan,nan,nan,nan,254.03583925997373,762.5037085418589,nan,762.7293568381574,nan,nan,nan,nan
1,330,1,1,1.0,1.0,0.2654866121010855,0,0,3,5,2,8,4,nan,nan,nan,nan,nan,nan,nan,nan,nan,nan,nan,nan,0.0,nan,nan,nan,nan,nan,nan,nan,nan,nan,nan,nan,nan,nan,nan,nan,nan,nan,nan,254.03583925997373,763.5038619240513,nan,763.7693485361524,nan,nan,nan,nan
1,331,0,0,1.0,0.0,0.2410127444891259,0,8,4,6,0,2,5,nan,nan,nan,nan,nan,nan,nan,nan,nan,nan,nan,nan,0.0,nan,nan,nan,nan,nan,nan,nan,nan,nan,nan,nan,nan,nan,nan,nan,nan,nan,nan,254.03583925997373,764.5123087782413,nan,764.7533215227304,nan,nan,nan,nan
1,332,1,1,0.0,0.0,0.1528339497745037,0,2,0,5,4,1,7,nan,nan,nan,nan,nan,nan,nan,nan,nan,nan,nan,nan,0.0,nan,nan,nan,nan,nan,nan,nan,nan,nan,nan,nan,nan,nan,nan,nan,nan,nan,nan,254.03583925997373,765.512417970458,nan,765.6652519202325,nan,nan,nan,nan
1,333,1,1,1.0,1.0,0.4567006065044552,0,3,4,7,6,0,2,nan,nan,nan,nan,nan,nan,nan,nan,nan,nan,nan,nan,0.0,nan,nan,nan,nan,nan,nan,nan,nan,nan,nan,nan,nan,nan,nan,nan,nan,nan,nan,254.03583925997373,766.5125451236963,nan,766.9692457302008,nan,nan,nan,nan
1,334,1,1,1.0,1.0,0.5525778756709769,0,7,2,1,0,5,8,nan,nan,nan,nan,nan,nan,nan,nan,nan,nan,nan,nan,0.0,nan,nan,nan,nan,nan,nan,nan,nan,nan,nan,nan,nan,nan,nan,nan,nan,nan,nan,254.03583925997373,767.5126737024402,nan,768.0652515781112,nan,nan,nan,nan
1,335,0,0,1.0,0.0,0.39244572748430073,0,1,5,4,8,7,0,nan,nan,nan,nan,nan,nan,nan,nan,nan,nan,nan,nan,0.0,nan,nan,nan,nan,nan,nan,nan,nan,nan,nan,nan,nan,nan,nan,nan,nan,nan,nan,254.03583925997373,768.5127928729635,nan,768.9052386004478,nan,nan,nan,nan
1,336,1,1,1.0,1.0,0.5283067119307816,0,4,8,2,1,6,3,nan,nan,nan,nan,nan,nan,nan,nan,nan,nan,nan,nan,0.0,nan,nan,nan,nan,nan,nan,nan,nan,nan,nan,nan,nan,nan,nan,nan,nan,nan,nan,254.03583925997373,769.5129077670863,nan,770.0412144790171,nan,nan,nan,nan
1,337,1,1,1.0,1.0,0.4001325130229816,0,0,3,7,8,4,2,nan,nan,nan,nan,nan,nan,nan,nan,nan,nan,nan,nan,0.0,nan,nan,nan,nan,nan,nan,nan,nan,nan,nan,nan,nan,nan,nan,nan,nan,nan,nan,254.03583925997373,770.5130488901632,nan,770.9131814031862,nan,nan,nan,nan
1,338,1,1,1.0,1.0,0.37599049822892994,0,8,0,1,2,3,6,nan,nan,nan,nan,nan,nan,nan,nan,nan,nan,nan,nan,0.0,nan,nan,nan,nan,nan,nan,nan,nan,nan,nan,nan,nan,nan,nan,nan,nan,nan,nan,254.03583925997373,771.513174902997,nan,771.8891654012259,nan,nan,nan,nan
1,339,1,1,1.0,1.0,0.31184851762373,0,5,6,7,0,1,2,nan,nan,nan,nan,nan,nan,nan,nan,nan,nan,nan,nan,0.0,nan,nan,nan,nan,nan,nan,nan,nan,nan,nan,nan,nan,nan,nan,nan,nan,nan,nan,254.03583925997373,772.513298064936,nan,772.8251465825597,nan,nan,nan,nan
1,340,1,1,1.0,1.0,0.3277164470637217,0,4,2,8,7,5,3,nan,nan,nan,nan,nan,nan,nan,nan,nan,nan,nan,nan,0.0,nan,nan,nan,nan,nan,nan,nan,nan,nan,nan,nan,nan,nan,nan,nan,nan,nan,nan,254.03583925997373,773.5134035508381,nan,773.8411199979018,nan,nan,nan,nan
1,341,1,1,1.0,1.0,0.3195558302104473,0,3,1,2,6,0,7,nan,nan,nan,nan,nan,nan,nan,nan,nan,nan,nan,nan,0.0,nan,nan,nan,nan,nan,nan,nan,nan,nan,nan,nan,nan,nan,nan,nan,nan,nan,nan,254.03583925997373,774.5135489503155,nan,774.8331047805259,nan,nan,nan,nan
1,342,1,1,1.0,1.0,0.40740020608063787,0,1,7,3,0,8,4,nan,nan,nan,nan,nan,nan,nan,nan,nan,nan,nan,nan,0.0,nan,nan,nan,nan,nan,nan,nan,nan,nan,nan,nan,nan,nan,nan,nan,nan,nan,nan,254.03583925997373,775.5136752482504,nan,775.921075454331,nan,nan,nan,nan
1,343,1,1,1.0,1.0,0.3032782165100798,0,3,4,6,2,7,8,nan,nan,nan,nan,nan,nan,nan,nan,nan,nan,nan,nan,0.0,nan,nan,nan,nan,nan,nan,nan,nan,nan,nan,nan,nan,nan,nan,nan,nan,nan,nan,254.03583925997373,776.5138006908819,nan,776.817078907392,nan,nan,nan,nan
1,344,1,1,1.0,1.0,0.7031549975508824,0,5,3,2,4,6,1,nan,nan,nan,nan,nan,nan,nan,nan,nan,nan,nan,nan,0.0,nan,nan,nan,nan,nan,nan,nan,nan,nan,nan,nan,nan,nan,nan,nan,nan,nan,nan,254.03583925997373,777.5139076022897,nan,778.2170625998406,nan,nan,nan,nan
1,345,1,1,1.0,1.0,0.5669849680271,0,2,0,8,7,4,6,nan,nan,nan,nan,nan,nan,nan,nan,nan,nan,nan,nan,0.0,nan,nan,nan,nan,nan,nan,nan,nan,nan,nan,nan,nan,nan,nan,nan,nan,nan,nan,254.03583925997373,778.5140435935464,nan,779.0810285615735,nan,nan,nan,nan
1,346,1,1,1.0,1.0,0.5188092752359807,0,4,8,0,2,5,1,nan,nan,nan,nan,nan,nan,nan,nan,nan,nan,nan,nan,0.0,nan,nan,nan,nan,nan,nan,nan,nan,nan,nan,nan,nan,nan,nan,nan,nan,nan,nan,254.03583925997373,779.5141724573914,nan,780.0329817326274,nan,nan,nan,nan
1,347,0,0,0.0,1.0,0.7186691215028986,0,1,5,6,3,4,7,nan,nan,nan,nan,nan,nan,nan,nan,nan,nan,nan,nan,0.0,nan,nan,nan,nan,nan,nan,nan,nan,nan,nan,nan,nan,nan,nan,nan,nan,nan,nan,254.03583925997373,780.5143112996593,nan,781.2329804211622,nan,nan,nan,nan
1,348,1,1,1.0,1.0,0.4705067143077031,0,3,7,4,2,0,8,nan,nan,nan,nan,nan,nan,nan,nan,nan,nan,nan,nan,0.0,nan,nan,nan,nan,nan,nan,nan,nan,nan,nan,nan,nan,nan,nan,nan,nan,nan,nan,254.03583925997373,781.514449571725,nan,781.9849562860327,nan,nan,nan,nan
1,349,1,1,1.0,1.0,0.49443091498687863,0,0,3,2,1,8,5,nan,nan,nan,nan,nan,nan,nan,nan,nan,nan,nan,nan,0.0,nan,nan,nan,nan,nan,nan,nan,nan,nan,nan,nan,nan,nan,nan,nan,nan,nan,nan,254.03583925997373,782.5145256926771,nan,783.008956607664,nan,nan,nan,nan
1,350,1,1,1.0,1.0,0.3662373295519501,0,7,6,3,4,2,0,nan,nan,nan,nan,nan,nan,nan,nan,nan,nan,nan,nan,0.0,nan,nan,nan,nan,nan,nan,nan,nan,nan,nan,nan,nan,nan,nan,nan,nan,nan,nan,254.03583925997373,783.5146705219522,nan,783.8809078515042,nan,nan,nan,nan
1,351,1,1,1.0,1.0,0.35014759469777346,0,1,4,7,6,5,2,nan,nan,nan,nan,nan,nan,nan,nan,nan,nan,nan,nan,0.0,nan,nan,nan,nan,nan,nan,nan,nan,nan,nan,nan,nan,nan,nan,nan,nan,nan,nan,254.03583925997373,784.5147628933191,nan,784.8649104880169,nan,nan,nan,nan
1,352,1,1,1.0,1.0,0.32591662963386625,0,5,8,4,3,0,6,nan,nan,nan,nan,nan,nan,nan,nan,nan,nan,nan,nan,0.0,nan,nan,nan,nan,nan,nan,nan,nan,nan,nan,nan,nan,nan,nan,nan,nan,nan,nan,254.03583925997373,785.5149675930152,nan,785.840884222649,nan,nan,nan,nan
1,353,0,0,0.0,1.0,0.6137853527907282,0,8,6,2,4,1,0,nan,nan,nan,nan,nan,nan,nan,nan,nan,nan,nan,nan,0.0,nan,nan,nan,nan,nan,nan,nan,nan,nan,nan,nan,nan,nan,nan,nan,nan,nan,nan,254.03583925997373,786.5150516965659,nan,787.1288370493567,nan,nan,nan,nan
1,354,1,1,1.0,1.0,0.37364586046896875,0,2,5,8,1,3,7,nan,nan,nan,nan,nan,nan,nan,nan,nan,nan,nan,nan,0.0,nan,nan,nan,nan,nan,nan,nan,nan,nan,nan,nan,nan,nan,nan,nan,nan,nan,nan,254.03583925997373,787.5151834114222,nan,787.8888292718912,nan,nan,nan,nan
1,355,1,1,1.0,1.0,0.32550780044402927,0,1,8,5,4,6,2,nan,nan,nan,nan,nan,nan,nan,nan,nan,nan,nan,nan,0.0,nan,nan,nan,nan,nan,nan,nan,nan,nan,nan,nan,nan,nan,nan,nan,nan,nan,nan,254.03583925997373,788.5153003012529,nan,788.8408081016969,nan,nan,nan,nan
1,356,1,1,1.0,1.0,0.33340128138661385,0,4,7,3,1,5,6,nan,nan,nan,nan,nan,nan,nan,nan,nan,nan,nan,nan,0.0,nan,nan,nan,nan,nan,nan,nan,nan,nan,nan,nan,nan,nan,nan,nan,nan,nan,nan,254.03583925997373,789.5154211823829,nan,789.8488224637695,nan,nan,nan,nan
1,357,1,1,1.0,1.0,0.30125032144133,1,0,1,4,8,2,5,1.0,1.0,1.0,1.0,1.0,1.0,0.0,0.0,0.0,0.0,0.0,0.0,0.0,3.0,5.0,8.0,2.0,5.0,6.0,3.0,2.0,1.0,6.0,5.0,4.0,5.481162215117365,4.634691516519524,3.315074675483629,9.640004869434051,8.240388952195644,6.8325055066961795,254.03583925997373,790.5155369316926,791.3239657108206,790.816787253134,802.0169681187253,803.0168880064739,792.3407619160134,802.0086327374447
1,358,1,1,nan,nan,nan,0,8,4,5,2,0,1,nan,nan,nan,nan,nan,nan,nan,nan,nan,nan,nan,nan,0.0,nan,nan,nan,nan,nan,nan,nan,nan,nan,nan,nan,nan,nan,nan,nan,nan,nan,nan,254.03583925997373,803.2171452780021,nan,nan,nan,nan,nan,nan
1,359,1,1,1.0,1.0,0.46320937119890004,0,7,0,3,8,4,6,nan,nan,nan,nan,nan,nan,nan,nan,nan,nan,nan,nan,0.0,nan,nan,nan,nan,nan,nan,nan,nan,nan,nan,nan,nan,nan,nan,nan,nan,nan,nan,254.03583925997373,804.2172610274283,nan,804.6804703986272,nan,nan,nan,nan
1,360,1,1,1.0,1.0,0.3111286477651447,0,8,3,1,0,6,7,nan,nan,nan,nan,nan,nan,nan,nan,nan,nan,nan,nan,0.0,nan,nan,nan,nan,nan,nan,nan,nan,nan,nan,nan,nan,nan,nan,nan,nan,nan,nan,254.03583925997373,805.2173753512325,nan,805.5285039989976,nan,nan,nan,nan
1,361,1,1,1.0,1.0,0.31899361894465983,0,2,5,4,8,0,3,nan,nan,nan,nan,nan,nan,nan,nan,nan,nan,nan,nan,0.0,nan,nan,nan,nan,nan,nan,nan,nan,nan,nan,nan,nan,nan,nan,nan,nan,nan,nan,254.03583925997373,806.2174734246219,nan,806.5364670435665,nan,nan,nan,nan
1,362,0,0,0.0,1.0,0.4627663304563612,0,7,4,8,5,6,0,nan,nan,nan,nan,nan,nan,nan,nan,nan,nan,nan,nan,0.0,nan,nan,nan,nan,nan,nan,nan,nan,nan,nan,nan,nan,nan,nan,nan,nan,nan,nan,254.03583925997373,807.2176484742668,nan,807.6804148047231,nan,nan,nan,nan
1,363,1,1,1.0,1.0,0.4866540387738496,0,8,5,6,1,2,3,nan,nan,nan,nan,nan,nan,nan,nan,nan,nan,nan,nan,0.0,nan,nan,nan,nan,nan,nan,nan,nan,nan,nan,nan,nan,nan,nan,nan,nan,nan,nan,254.03583925997373,808.2177491134498,nan,808.7044031522237,nan,nan,nan,nan
1,364,1,1,1.0,1.0,0.48654541675932705,0,1,6,2,0,3,8,nan,nan,nan,nan,nan,nan,nan,nan,nan,nan,nan,nan,0.0,nan,nan,nan,nan,nan,nan,nan,nan,nan,nan,nan,nan,nan,nan,nan,nan,nan,nan,254.03583925997373,809.2178551695542,nan,809.7044005863136,nan,nan,nan,nan
1,365,1,1,1.0,1.0,0.4063410706585273,0,2,3,0,8,5,7,nan,nan,nan,nan,nan,nan,nan,nan,nan,nan,nan,nan,0.0,nan,nan,nan,nan,nan,nan,nan,nan,nan,nan,nan,nan,nan,nan,nan,nan,nan,nan,254.03583925997373,810.2180239469744,nan,810.624365017633,nan,nan,nan,nan
1,366,1,1,1.0,1.0,0.3662233598297462,0,0,5,6,3,1,2,nan,nan,nan,nan,nan,nan,nan,nan,nan,nan,nan,nan,0.0,nan,nan,nan,nan,nan,nan,nan,nan,nan,nan,nan,nan,nan,nan,nan,nan,nan,nan,254.03583925997373,811.2181416919921,nan,811.5843650518218,nan,nan,nan,nan
1,367,1,1,1.0,1.0,0.5420697700465098,0,7,8,3,2,5,4,nan,nan,nan,nan,nan,nan,nan,nan,nan,nan,nan,nan,0.0,nan,nan,nan,nan,nan,nan,nan,nan,nan,nan,nan,nan,nan,nan,nan,nan,nan,nan,254.03583925997373,812.2182665645378,nan,812.7603363345843,nan,nan,nan,nan
1,368,1,1,1.0,1.0,0.7179127591662109,0,4,1,0,5,7,8,nan,nan,nan,nan,nan,nan,nan,nan,nan,nan,nan,nan,0.0,nan,nan,nan,nan,nan,nan,nan,nan,nan,nan,nan,nan,nan,nan,nan,nan,nan,nan,254.03583925997373,813.2183920071693,nan,813.9363047663355,nan,nan,nan,nan
1,369,1,1,1.0,1.0,0.6857646501157433,0,5,2,7,3,4,6,nan,nan,nan,nan,nan,nan,nan,nan,nan,nan,nan,nan,0.0,nan,nan,nan,nan,nan,nan,nan,nan,nan,nan,nan,nan,nan,nan,nan,nan,nan,nan,254.03583925997373,814.2185177350184,nan,814.9042823851341,nan,nan,nan,nan
1,370,1,1,1.0,1.0,0.5816167168086395,0,8,3,6,1,2,4,nan,nan,nan,nan,nan,nan,nan,nan,nan,nan,nan,nan,0.0,nan,nan,nan,nan,nan,nan,nan,nan,nan,nan,nan,nan,nan,nan,nan,nan,nan,nan,254.03583925997373,815.2186657002894,nan,815.8002824170981,nan,nan,nan,nan
1,371,1,1,1.0,1.0,0.4214982531266287,0,6,2,8,7,3,1,nan,nan,nan,nan,nan,nan,nan,nan,nan,nan,nan,nan,0.0,nan,nan,nan,nan,nan,nan,nan,nan,nan,nan,nan,nan,nan,nan,nan,nan,nan,nan,254.03583925997373,816.2187683352968,nan,816.6402665884234,nan,nan,nan,nan
1,372,1,1,1.0,1.0,0.3893643990159035,0,0,6,7,8,5,4,nan,nan,nan,nan,nan,nan,nan,nan,nan,nan,nan,nan,0.0,nan,nan,nan,nan,nan,nan,nan,nan,nan,nan,nan,nan,nan,nan,nan,nan,nan,nan,254.03583925997373,817.2188749616034,nan,817.6082393606193,nan,nan,nan,nan
1,373,1,1,1.0,1.0,0.30919169867411256,0,7,8,6,4,2,0,nan,nan,nan,nan,nan,nan,nan,nan,nan,nan,nan,nan,0.0,nan,nan,nan,nan,nan,nan,nan,nan,nan,nan,nan,nan,nan,nan,nan,nan,nan,nan,254.03583925997373,818.219002685044,nan,818.5281943837181,nan,nan,nan,nan
1,374,1,1,1.0,1.0,0.30102994141634554,0,0,4,3,8,5,1,nan,nan,nan,nan,nan,nan,nan,nan,nan,nan,nan,nan,0.0,nan,nan,nan,nan,nan,nan,nan,nan,nan,nan,nan,nan,nan,nan,nan,nan,nan,nan,254.03583925997373,819.2191480845213,nan,819.5201780259376,nan,nan,nan,nan
1,375,1,1,1.0,1.0,0.26890321471728384,0,1,0,7,3,4,2,nan,nan,nan,nan,nan,nan,nan,nan,nan,nan,nan,nan,0.0,nan,nan,nan,nan,nan,nan,nan,nan,nan,nan,nan,nan,nan,nan,nan,nan,nan,nan,254.03583925997373,820.2192669699434,nan,820.4881701846607,nan,nan,nan,nan
1,376,1,1,1.0,1.0,0.3327335842186585,0,8,7,1,5,0,4,nan,nan,nan,nan,nan,nan,nan,nan,nan,nan,nan,nan,0.0,nan,nan,nan,nan,nan,nan,nan,nan,nan,nan,nan,nan,nan,nan,nan,nan,nan,nan,254.03583925997373,821.2193969741929,nan,821.5521305584116,nan,nan,nan,nan
1,377,0,0,1.0,0.0,0.2766185099026188,0,3,5,7,0,1,6,nan,nan,nan,nan,nan,nan,nan,nan,nan,nan,nan,nan,0.0,nan,nan,nan,nan,nan,nan,nan,nan,nan,nan,nan,nan,nan,nan,nan,nan,nan,nan,254.03583925997373,822.2195189957274,nan,822.49613750563,nan,nan,nan,nan
1,378,1,1,1.0,1.0,0.5564517737366259,0,0,8,2,1,6,7,nan,nan,nan,nan,nan,nan,nan,nan,nan,nan,nan,nan,0.0,nan,nan,nan,nan,nan,nan,nan,nan,nan,nan,nan,nan,nan,nan,nan,nan,nan,nan,254.03583925997373,823.219641302363,nan,823.7760930760996,nan,nan,nan,nan
1,379,1,1,1.0,1.0,0.46831146732438356,0,3,5,4,2,7,1,nan,nan,nan,nan,nan,nan,nan,nan,nan,nan,nan,nan,0.0,nan,nan,nan,nan,nan,nan,nan,nan,nan,nan,nan,nan,nan,nan,nan,nan,nan,nan,254.03583925997373,824.2197809998179,nan,824.6880924671423,nan,nan,nan,nan
1,380,1,1,1.0,1.0,0.39616168197244406,0,0,4,5,6,8,3,nan,nan,nan,nan,nan,nan,nan,nan,nan,nan,nan,nan,0.0,nan,nan,nan,nan,nan,nan,nan,nan,nan,nan,nan,nan,nan,nan,nan,nan,nan,nan,254.03583925997373,825.2198950386373,nan,825.6160567206098,nan,nan,nan,nan
1,381,1,1,1.0,1.0,0.5320223812013865,0,8,7,0,5,2,1,nan,nan,nan,nan,nan,nan,nan,nan,nan,nan,nan,nan,0.0,nan,nan,nan,nan,nan,nan,nan,nan,nan,nan,nan,nan,nan,nan,nan,nan,nan,nan,254.03583925997373,826.2200182005763,nan,826.7520405817777,nan,nan,nan,nan
1,382,1,1,1.0,1.0,0.4118696718942374,0,2,1,4,6,5,3,nan,nan,nan,nan,nan,nan,nan,nan,nan,nan,nan,nan,0.0,nan,nan,nan,nan,nan,nan,nan,nan,nan,nan,nan,nan,nan,nan,nan,nan,nan,nan,254.03583925997373,827.2201464942191,nan,827.6320161661133,nan,nan,nan,nan
1,383,1,1,1.0,1.0,0.37171290279366076,0,7,8,6,3,0,2,nan,nan,nan,nan,nan,nan,nan,nan,nan,nan,nan,nan,0.0,nan,nan,nan,nan,nan,nan,nan,nan,nan,nan,nan,nan,nan,nan,nan,nan,nan,nan,254.03583925997373,828.2202736474574,nan,828.591986550251,nan,nan,nan,nan
1,384,1,1,1.0,1.0,0.45159679977223277,1,1,3,0,2,5,7,1.0,1.0,1.0,1.0,1.0,1.0,0.0,0.0,0.0,0.0,0.0,0.0,0.0,5.0,0.0,2.0,3.0,2.0,0.0,3.0,4.0,2.0,6.0,1.0,5.0,5.903035085764714,7.0553498739609495,3.8232692187884822,9.742593322182074,2.736922457581386,8.519161655101925,254.03583925997373,829.2203996604076,830.0288161801873,829.6719964601798,840.8301557369996,841.8289258285658,831.0456115301931,840.8218326149508
1,385,1,1,nan,nan,nan,0,4,0,3,5,1,6,nan,nan,nan,nan,nan,nan,nan,nan,nan,nan,nan,nan,0.0,nan,nan,nan,nan,nan,nan,nan,nan,nan,nan,nan,nan,nan,nan,nan,nan,nan,nan,254.03583925997373,842.0303585550282,nan,nan,nan,nan,nan,nan
1,386,1,1,1.0,1.0,0.25725586141925305,0,8,5,1,4,6,7,nan,nan,nan,nan,nan,nan,nan,nan,nan,nan,nan,nan,0.0,nan,nan,nan,nan,nan,nan,nan,nan,nan,nan,nan,nan,nan,nan,nan,nan,nan,nan,254.03583925997373,843.0304583390243,nan,843.2877142004436,nan,nan,nan,nan
1,387,1,1,1.0,1.0,0.44115597719792277,0,4,7,8,5,3,1,nan,nan,nan,nan,nan,nan,nan,nan,nan,nan,nan,nan,0.0,nan,nan,nan,nan,nan,nan,nan,nan,nan,nan,nan,nan,nan,nan,nan,nan,nan,nan,254.03583925997373,844.0305358853657,nan,844.4716918625636,nan,nan,nan,nan
1,388,1,1,1.0,1.0,0.3209223002195358,0,7,3,5,2,1,6,nan,nan,nan,nan,nan,nan,nan,nan,nan,nan,nan,nan,0.0,nan,nan,nan,nan,nan,nan,nan,nan,nan,nan,nan,nan,nan,nan,nan,nan,nan,nan,254.03583925997373,845.0307334576501,nan,845.3516557578696,nan,nan,nan,nan
