block,trial,time,setsize,freqtrials,colorind,colordeg,colorrgb,correctresp,actualresp,acc,rts,probe_trials,fast_rt_trigger,slow_rt_trigger,rt_trailingavg,rt_runningavg,rt_runningstd,rt_runningslowthresh,rt_runningfastthresh,wm_mousepos,wm_respdeg,wm_colorind,wm_colorrgb,wm_colorhsv,wm_degdiff,wm_rts,timeBlockStart,timeEncArrayOnset,timeResponse,timeProbeOnset,timeProbeOffset
0,0,17:34:08:899000,6,1,100,70.3125,[ 1.         -0.27042709 -0.4574399 ],1,1,1,0.327645187,0,nan,nan,nan,nan,nan,nan,nan,nan,nan,nan,[ nan  nan  nan],nan,nan,nan,342.8057055,343.8220452,344.1496904,nan,nan
0,1,17:34:09:835000,6,1,332,233.4375,[-0.14664709  0.45205424  0.30271419],1,1,1,0.313803763,0,nan,nan,nan,nan,nan,nan,nan,nan,nan,nan,[ nan  nan  nan],nan,nan,nan,342.8057055,344.763867,345.0776708,nan,nan
0,2,17:34:10:787000,6,1,430,302.34375,[ 0.18472502  0.44064573 -0.94190417],1,1,1,0.324040715,0,nan,nan,nan,nan,nan,nan,nan,nan,nan,nan,[ nan  nan  nan],nan,nan,nan,342.8057055,345.7056119,346.0296526,nan,nan
0,3,17:34:11:723000,6,1,342,240.46875,[-0.17005262  0.46291356  0.21407524],1,1,1,0.286194469,0,nan,nan,nan,nan,nan,nan,nan,nan,nan,nan,[ nan  nan  nan],nan,nan,nan,342.8057055,346.647438,346.9336324,nan,nan
0,4,17:34:12:659000,6,1,243,170.859375,[ 0.62215101  0.20168048  0.64746348],1,1,1,0.272350479,0,nan,nan,nan,nan,nan,nan,nan,nan,nan,nan,[ nan  nan  nan],nan,nan,nan,342.8057055,347.5892615,347.861612,nan,nan
0,5,17:34:13:610000,6,1,456,320.625,[ 0.38361243  0.39263319 -1.        ],1,1,1,0.281065302,0,nan,nan,nan,nan,nan,nan,nan,nan,nan,nan,[ nan  nan  nan],nan,nan,nan,342.8057055,348.5325359,348.8136012,nan,nan
0,6,17:34:14:546000,6,1,163,114.609375,[ 1.         -0.2142478   0.18572368],1,1,1,0.236813513,0,nan,nan,nan,nan,nan,nan,nan,nan,nan,nan,[ nan  nan  nan],nan,nan,nan,342.8057055,349.4728002,349.7096138,nan,nan
0,7,17:34:15:498000,6,1,457,321.328125,[ 0.39163925  0.39035818 -1.        ],1,1,1,0.262944298,0,nan,nan,nan,nan,nan,nan,nan,nan,nan,nan,[ nan  nan  nan],nan,nan,nan,342.8057055,350.414603,350.6775473,nan,nan
0,8,17:34:16:434000,6,1,329,231.328125,[-0.13605328  0.44820379  0.32783374],1,1,1,0.241133862,0,nan,nan,nan,nan,nan,nan,nan,nan,nan,nan,[ nan  nan  nan],nan,nan,nan,342.8057055,351.3563997,351.5975336,nan,nan
0,9,17:34:17:370000,6,1,69,48.515625,[ 1.         -0.1342072  -0.93964801],1,1,1,0.371288011,0,nan,nan,nan,nan,nan,nan,nan,nan,nan,nan,[ nan  nan  nan],nan,nan,nan,342.8057055,352.2982016,352.6694896,nan,nan
0,10,17:34:28:134000,6,1,263,184.921875,[ 0.4056988   0.28417174  0.65182989],1,1,1,0.309487691,1,nan,nan,nan,nan,nan,nan,nan,nan,-103.4187081,275,[ 0.27900239  0.32618525  0.63017847],nan,8.496833081,7.759698334,342.8057055,353.2399895,353.5494772,355.073491,362.8412071
0,11,17:34:29:070000,6,1,410,288.28125,[ 0.04920468  0.46392153 -0.54316189],1,1,1,0.357479943,0,nan,nan,nan,nan,nan,nan,nan,nan,nan,nan,[ nan  nan  nan],nan,nan,nan,342.8057055,363.9997651,364.357245,nan,nan
0,12,17:34:30:021000,6,1,336,236.25,[-0.15821161  0.45675811  0.26813527],1,1,1,0.31164644,0,nan,nan,nan,nan,nan,nan,nan,nan,nan,nan,[ nan  nan  nan],nan,nan,nan,342.8057055,364.9415561,365.2532026,nan,nan
0,13,17:34:30:957000,6,0,240,168.75,[ 0.65437302  0.18801506  0.64246395],0,0,1,0.417837676,0,nan,nan,nan,nan,nan,nan,nan,nan,nan,nan,[ nan  nan  nan],nan,nan,nan,342.8057055,365.8833537,366.3011914,nan,nan
0,14,17:34:31:893000,6,1,189,132.890625,[ 1.         -0.08021946  0.40014347],1,1,1,0.283987539,0,nan,nan,nan,nan,nan,nan,nan,nan,nan,nan,[ nan  nan  nan],nan,nan,nan,342.8057055,366.8251436,367.1091311,nan,nan
0,15,17:34:32:845000,6,1,43,30.234375,[ 1.          0.00424534 -1.        ],1,1,1,0.294193986,0,nan,nan,nan,nan,nan,nan,nan,nan,nan,nan,[ nan  nan  nan],nan,nan,nan,342.8057055,367.7669429,368.0611369,nan,nan
0,16,17:34:33:781000,6,1,255,179.296875,[ 0.49215936  0.25301719  0.65616311],1,1,1,0.272390108,0,nan,nan,nan,nan,nan,nan,nan,nan,nan,nan,[ nan  nan  nan],nan,nan,nan,342.8057055,368.7087371,368.9811272,nan,nan
0,17,17:34:40:380000,6,1,428,300.9375,[ 0.17037832  0.44348657 -0.8686614 ],1,1,1,0.298532866,1,nan,nan,nan,nan,nan,nan,nan,nan,143.297145,436,[ 0.22868171  0.43141373 -1.        ],nan,5.76535503,3.60086521,342.8057055,369.6505398,369.9490727,371.4840524,375.0928792
0,18,17:34:41:316000,6,0,336,236.25,[-0.15821161  0.45675811  0.26813527],0,0,1,0.47387449,0,nan,nan,nan,nan,nan,nan,nan,nan,nan,nan,[ nan  nan  nan],nan,nan,nan,342.8057055,376.2430879,376.7169624,nan,nan
0,19,17:34:42:267000,6,1,79,55.546875,[ 1.         -0.18429602 -0.72417078],1,1,1,0.42803557,0,nan,nan,nan,nan,nan,nan,nan,nan,nan,nan,[ nan  nan  nan],nan,nan,nan,342.8057055,377.1848946,377.6129302,nan,nan
0,20,17:34:43:203000,6,1,10,7.03125,[ 0.9268115   0.16840058 -1.        ],1,1,1,0.302226573,0,nan,nan,nan,nan,nan,nan,nan,nan,nan,nan,[ nan  nan  nan],nan,nan,nan,342.8057055,378.126674,378.4289006,nan,nan
0,21,17:34:44:139000,6,1,221,155.390625,[ 0.85178146  0.09454116  0.58542294],1,1,1,0.256442107,0,nan,nan,nan,nan,nan,nan,nan,nan,nan,nan,[ nan  nan  nan],nan,nan,nan,342.8057055,379.0684559,379.324898,nan,nan
0,22,17:34:50:489000,6,1,386,271.40625,[-0.08339466  0.47749559 -0.24542474],1,1,1,0.194590469,1,nan,nan,nan,nan,nan,nan,nan,nan,-168.0238676,367,[-0.15309091  0.4775609  -0.03508163],nan,-13.38238244,3.342427144,342.8057055,380.0102635,380.2048539,381.8437858,385.1942327
0,23,17:34:51:425000,6,1,25,17.578125,[ 1.          0.09706829 -1.        ],1,1,1,0.371930903,0,nan,nan,nan,nan,nan,nan,nan,nan,nan,nan,[ nan  nan  nan],nan,nan,nan,342.8057055,386.3527858,386.7247167,nan,nan
0,24,17:34:52:376000,6,1,276,194.0625,[ 0.26871044  0.32943033  0.62756301],1,1,1,0.310116898,0,nan,nan,nan,nan,nan,nan,nan,nan,nan,nan,[ nan  nan  nan],nan,nan,nan,342.8057055,387.2945857,387.6047026,nan,nan
0,25,17:34:53:312000,6,1,118,82.96875,[ 1.         -0.30858815 -0.26128525],1,1,1,0.248344802,0,nan,nan,nan,nan,nan,nan,nan,nan,nan,nan,[ nan  nan  nan],nan,nan,nan,342.8057055,388.2363676,388.4847124,nan,nan
0,26,17:34:54:248000,6,1,414,291.09375,[ 0.07478379  0.46016219 -0.60008918],1,1,1,0.250466774,0,nan,nan,nan,nan,nan,nan,nan,nan,nan,nan,[ nan  nan  nan],nan,nan,nan,342.8057055,389.1781863,389.4286531,nan,nan
0,27,17:34:55:200000,6,1,283,198.984375,[ 0.19826868  0.35105092  0.60582595],1,1,1,0.292686397,0,nan,nan,nan,nan,nan,nan,nan,nan,nan,nan,[ nan  nan  nan],nan,nan,nan,342.8057055,390.1199477,390.4126341,nan,nan
0,28,17:34:56:136000,6,1,373,262.265625,[-0.13540771  0.47855957 -0.09969749],1,1,1,0.230850154,0,nan,nan,nan,nan,nan,nan,nan,nan,nan,nan,[ nan  nan  nan],nan,nan,nan,342.8057055,391.0617553,391.2926054,nan,nan
0,29,17:34:57:088000,6,1,20,14.0625,[ 1.          0.12155819 -1.        ],1,1,1,0.241027806,0,nan,nan,nan,nan,nan,nan,nan,nan,nan,nan,[ nan  nan  nan],nan,nan,nan,342.8057055,392.003552,392.2445798,nan,nan
0,30,17:34:58:024000,6,1,392,275.625,[-0.05410679  0.47552228 -0.31554984],1,1,1,0.291195628,0,nan,nan,nan,nan,nan,nan,nan,nan,nan,nan,[ nan  nan  nan],nan,nan,nan,342.8057055,392.9453456,393.2365412,nan,nan
0,31,17:34:58:960000,6,1,303,213.046875,[ 0.01913493  0.40252284  0.51201836],1,1,1,0.269396026,0,nan,nan,nan,nan,nan,nan,nan,nan,nan,nan,[ nan  nan  nan],nan,nan,nan,342.8057055,393.8871378,394.1565338,nan,nan
0,32,17:34:59:911000,6,1,11,7.734375,[ 0.9346595  0.1638529 -1.       ],1,1,1,0.279584227,0,nan,nan,nan,nan,nan,nan,nan,nan,nan,nan,[ nan  nan  nan],nan,nan,nan,342.8057055,394.8289323,395.1085165,nan,nan
0,33,17:35:00:847000,6,1,316,222.1875,[-0.07182156  0.42820351  0.42789226],1,1,1,0.273750302,0,nan,nan,nan,nan,nan,nan,nan,nan,nan,nan,[ nan  nan  nan],nan,nan,nan,342.8057055,395.7707224,396.0444727,nan,nan
0,34,17:35:01:783000,6,1,52,36.5625,[ 1.         -0.04388606 -1.        ],1,1,1,0.315961372,0,nan,nan,nan,nan,nan,nan,nan,nan,nan,nan,[ nan  nan  nan],nan,nan,nan,342.8057055,396.7125226,397.028484,nan,nan
0,35,17:35:02:735000,6,1,462,324.84375,[ 0.43208968  0.37848636 -1.        ],1,1,1,0.214140947,0,nan,nan,nan,nan,nan,nan,nan,nan,nan,nan,[ nan  nan  nan],nan,nan,nan,342.8057055,397.6543108,397.8684517,nan,nan
0,36,17:35:03:671000,6,1,184,129.375,[ 1.         -0.10767189  0.36264005],1,1,1,0.256337476,0,nan,nan,nan,nan,nan,nan,nan,nan,nan,nan,[ nan  nan  nan],nan,nan,nan,342.8057055,398.5961087,398.8524461,nan,nan
0,37,17:35:04:622000,6,1,299,210.234375,[ 0.05166456  0.39341767  0.53437875],1,1,1,0.23450851,0,nan,nan,nan,nan,nan,nan,nan,nan,nan,nan,[ nan  nan  nan],nan,nan,nan,342.8057055,399.5379006,399.7724091,nan,nan
0,38,17:35:05:558000,6,1,433,304.453125,[ 0.2065363   0.43616372 -1.        ],1,1,1,0.284690872,0,nan,nan,nan,nan,nan,nan,nan,nan,nan,nan,[ nan  nan  nan],nan,nan,nan,342.8057055,400.4796953,400.7643862,nan,nan
0,39,17:35:06:494000,6,1,370,260.15625,[-0.144806    0.47817873 -0.06718033],1,1,1,0.2948728,0,nan,nan,nan,nan,nan,nan,nan,nan,nan,nan,[ nan  nan  nan],nan,nan,nan,342.8057055,401.4214912,401.716364,nan,nan
0,40,17:35:07:446000,6,1,151,106.171875,[ 1.         -0.26272029  0.07346267],1,1,1,0.249060394,0,nan,nan,nan,nan,nan,nan,nan,nan,nan,nan,[ nan  nan  nan],nan,nan,nan,342.8057055,402.3632802,402.6123406,nan,nan
0,41,17:35:08:382000,6,1,499,350.859375,[ 0.73983189  0.26382776 -1.        ],1,1,1,0.307243413,0,nan,nan,nan,nan,nan,nan,nan,nan,nan,nan,[ nan  nan  nan],nan,nan,nan,342.8057055,403.3050775,403.6123209,nan,nan
0,42,17:35:09:318000,6,1,231,162.421875,[ 0.74960968  0.14515127  0.62082146],1,1,1,0.237436734,0,nan,nan,nan,nan,nan,nan,nan,nan,nan,nan,[ nan  nan  nan],nan,nan,nan,342.8057055,404.2468649,404.4843016,nan,nan
0,43,17:35:10:270000,6,1,3,2.109375,[ 0.87108718  0.19933511 -1.        ],1,1,1,0.255619034,0,nan,nan,nan,nan,nan,nan,nan,nan,nan,nan,[ nan  nan  nan],nan,nan,nan,342.8057055,405.1886647,405.4442838,nan,nan
0,44,17:35:11:206000,6,1,493,346.640625,[ 0.68976908  0.28570078 -1.        ],1,1,1,0.329807643,0,nan,nan,nan,nan,nan,nan,nan,nan,nan,nan,[ nan  nan  nan],nan,nan,nan,342.8057055,406.1304558,406.4602634,nan,nan
0,45,17:35:12:157000,6,1,385,270.703125,[-0.08797966  0.47773344 -0.23392672],1,1,1,0.267993068,0,nan,nan,nan,nan,nan,nan,nan,nan,nan,nan,[ nan  nan  nan],nan,nan,nan,342.8057055,407.0722482,407.3402413,nan,nan
0,46,17:35:13:093000,6,1,142,99.84375,[ 1.         -0.28956812 -0.01462735],1,1,1,0.342168847,0,nan,nan,nan,nan,nan,nan,nan,nan,nan,nan,[ nan  nan  nan],nan,nan,nan,342.8057055,408.0140484,408.3562173,nan,nan
0,47,17:35:14:029000,6,1,10,7.03125,[ 0.9268115   0.16840058 -1.        ],1,1,1,0.288355499,0,nan,nan,nan,nan,nan,nan,nan,nan,nan,nan,[ nan  nan  nan],nan,nan,nan,342.8057055,408.9558409,409.2441964,nan,nan
0,48,17:35:14:981000,6,1,492,345.9375,[ 0.68140332  0.28922202 -1.        ],1,1,1,0.290531354,0,nan,nan,nan,nan,nan,nan,nan,nan,nan,nan,[ nan  nan  nan],nan,nan,nan,342.8057055,409.8976339,410.1881653,nan,nan
0,49,17:35:15:917000,6,1,119,83.671875,[ 1.         -0.30944633 -0.2507109 ],1,1,1,0.252727302,0,nan,nan,nan,nan,nan,nan,nan,nan,nan,nan,[ nan  nan  nan],nan,nan,nan,342.8057055,410.8394284,411.0921557,nan,nan
0,50,17:35:16:853000,6,1,430,302.34375,[ 0.18472502  0.44064573 -0.94190417],1,1,1,0.214911562,0,nan,nan,nan,nan,nan,nan,nan,nan,nan,nan,[ nan  nan  nan],nan,nan,nan,342.8057055,411.78122,411.9961315,nan,nan
0,51,17:35:17:804000,6,1,300,210.9375,[ 0.04335371  0.39574842  0.52895103],1,1,1,0.209081913,0,nan,nan,nan,nan,nan,nan,nan,nan,nan,nan,[ nan  nan  nan],nan,nan,nan,342.8057055,412.723015,412.9320969,nan,nan
0,52,17:35:18:740000,6,1,36,25.3125,[ 1.          0.04106996 -1.        ],1,1,1,0.155291943,0,nan,nan,nan,nan,nan,nan,nan,nan,nan,nan,[ nan  nan  nan],nan,nan,nan,342.8057055,413.664808,413.8201,nan,nan
0,53,17:35:19:692000,6,0,192,135,[ 1.         -0.06359976  0.42165841],0,1,0,0.237454695,0,0,0,nan,nan,nan,nan,nan,nan,nan,nan,[ nan  nan  nan],nan,nan,nan,342.8057055,414.6066062,414.8440609,nan,nan
0,54,17:35:20:628000,6,1,239,168.046875,[ 0.66506983  0.18338886  0.64054927],1,1,1,0.239671318,0,nan,nan,nan,nan,nan,nan,nan,nan,nan,nan,[ nan  nan  nan],nan,nan,nan,342.8057055,415.5483613,415.7880326,nan,nan
0,55,17:35:21:564000,6,0,435,305.859375,[ 0.22126383  0.43302706 -1.        ],0,1,0,0.249830724,0,0,0,nan,nan,nan,nan,nan,nan,nan,nan,[ nan  nan  nan],nan,nan,nan,342.8057055,416.490188,416.7400187,nan,nan
0,56,17:35:22:516000,6,1,43,30.234375,[ 1.          0.00424534 -1.        ],1,1,1,0.244011624,0,nan,nan,nan,nan,nan,nan,nan,nan,nan,nan,[ nan  nan  nan],nan,nan,nan,342.8057055,417.4319864,417.6759981,nan,nan
0,57,17:35:23:452000,6,1,182,127.96875,[ 1.         -0.11852384  0.34708947],1,1,1,0.302209183,0,nan,nan,nan,nan,nan,nan,nan,nan,nan,nan,[ nan  nan  nan],nan,nan,nan,342.8057055,418.3737738,418.6759829,nan,nan
0,58,17:35:24:388000,6,1,411,288.984375,[ 0.05552017  0.46302271 -0.55705476],1,1,1,0.264376336,0,nan,nan,nan,nan,nan,nan,nan,nan,nan,nan,[ nan  nan  nan],nan,nan,nan,342.8057055,419.3155694,419.5799457,nan,nan
0,59,17:35:25:339000,6,1,366,257.34375,[-0.15559338  0.47730203 -0.02447665],1,1,1,0.24257759,0,nan,nan,nan,nan,nan,nan,nan,nan,nan,nan,[ nan  nan  nan],nan,nan,nan,342.8057055,420.257363,420.4999406,nan,nan
0,60,17:35:31:018000,6,1,492,345.9375,[ 0.68140332  0.28922202 -1.        ],1,1,1,0.140781968,1,nan,nan,nan,nan,nan,nan,nan,nan,131.9872125,452,[ 0.35173807  0.40140621 -1.        ],nan,-27.9247125,2.692332079,342.8057055,421.1991606,421.3399425,423.0243372,425.7247013
0,61,17:35:31:954000,6,1,70,49.21875,[ 1.         -0.13936985 -0.90643691],1,1,1,0.392512288,0,nan,nan,nan,nan,nan,nan,nan,nan,nan,nan,[ nan  nan  nan],nan,nan,nan,342.8057055,426.8832576,427.2757699,nan,nan
0,62,17:35:32:905000,6,1,323,227.109375,[-0.11001989  0.43965345  0.37585536],1,1,1,0.322708175,0,nan,nan,nan,nan,nan,nan,nan,nan,nan,nan,[ nan  nan  nan],nan,nan,nan,342.8057055,427.8250487,428.1477568,nan,nan
0,63,17:35:33:841000,6,1,439,308.671875,[ 0.25114429  0.4263922  -1.        ],1,1,1,0.34088962,0,nan,nan,nan,nan,nan,nan,nan,nan,nan,nan,[ nan  nan  nan],nan,nan,nan,342.8057055,428.7668363,429.1077259,nan,nan
0,64,17:35:34:793000,6,1,31,21.796875,[ 1.          0.06685157 -1.        ],1,1,1,0.271056142,0,nan,nan,nan,nan,nan,nan,nan,nan,nan,nan,[ nan  nan  nan],nan,nan,nan,342.8057055,429.7086558,429.979712,nan,nan
0,65,17:35:35:729000,6,1,443,311.484375,[ 0.28155878  0.41926821 -1.        ],1,1,1,0.289259539,0,nan,nan,nan,nan,nan,nan,nan,nan,nan,nan,[ nan  nan  nan],nan,nan,nan,342.8057055,430.6504278,430.9396873,nan,nan
0,66,17:35:36:665000,6,1,156,109.6875,[ 1.         -0.24406061  0.12104147],1,1,1,0.363457271,0,nan,nan,nan,nan,nan,nan,nan,nan,nan,nan,[ nan  nan  nan],nan,nan,nan,342.8057055,431.5922034,431.9556607,nan,nan
0,67,17:35:37:616000,6,1,389,273.515625,[-0.06912081  0.47662608 -0.28023432],1,1,1,0.293620657,0,nan,nan,nan,nan,nan,nan,nan,nan,nan,nan,[ nan  nan  nan],nan,nan,nan,342.8057055,432.5340218,432.8276425,nan,nan
0,68,17:35:38:552000,6,1,126,88.59375,[ 1.         -0.31141175 -0.17740843],1,1,1,0.335810345,0,nan,nan,nan,nan,nan,nan,nan,nan,nan,nan,[ nan  nan  nan],nan,nan,nan,342.8057055,433.475814,433.8116243,nan,nan
0,69,17:35:39:488000,6,1,444,312.1875,[ 0.2892412   0.41740978 -1.        ],1,1,1,0.314004756,0,nan,nan,nan,nan,nan,nan,nan,nan,nan,nan,[ nan  nan  nan],nan,nan,nan,342.8057055,434.4176079,434.7316126,nan,nan
0,70,17:35:40:440000,6,0,479,336.796875,[ 0.57257215  0.33176822 -1.        ],0,0,1,0.452165263,0,nan,nan,nan,nan,nan,nan,nan,nan,nan,nan,[ nan  nan  nan],nan,nan,nan,342.8057055,435.3593981,435.8115633,nan,nan
0,71,17:35:41:376000,6,1,231,162.421875,[ 0.74960968  0.14515127  0.62082146],1,1,1,0.358349201,0,nan,nan,nan,nan,nan,nan,nan,nan,nan,nan,[ nan  nan  nan],nan,nan,nan,342.8057055,436.3011951,436.6595443,nan,nan
0,72,17:35:42:328000,6,1,472,331.875,[ 0.51429865  0.35221228 -1.        ],1,1,1,0.320528614,0,nan,nan,nan,nan,nan,nan,nan,nan,nan,nan,[ nan  nan  nan],nan,nan,nan,342.8057055,437.2430041,437.5635327,nan,nan
0,73,17:35:43:264000,6,1,440,309.375,[ 0.2586994  0.4246574 -1.       ],1,1,1,0.346723545,0,nan,nan,nan,nan,nan,nan,nan,nan,nan,nan,[ nan  nan  nan],nan,nan,nan,342.8057055,438.1847795,438.531503,nan,nan
0,74,17:35:44:200000,6,1,505,355.078125,[ 0.78953796  0.24068314 -1.        ],1,1,1,0.284900987,0,nan,nan,nan,nan,nan,nan,nan,nan,nan,nan,[ nan  nan  nan],nan,nan,nan,342.8057055,439.1265885,439.4114894,nan,nan
0,75,17:35:45:151000,6,1,204,143.4375,[ 1.          0.00303257  0.49965442],1,1,1,0.303110657,0,nan,nan,nan,nan,nan,nan,nan,nan,nan,nan,[ nan  nan  nan],nan,nan,nan,342.8057055,440.0683661,440.3714767,nan,nan
0,76,17:35:46:087000,6,0,383,269.296875,[-0.09687871  0.47813121 -0.21108141],0,0,1,0.465276841,0,nan,nan,nan,nan,nan,nan,nan,nan,nan,nan,[ nan  nan  nan],nan,nan,nan,342.8057055,441.0101668,441.4754437,nan,nan
0,77,17:35:47:023000,6,1,3,2.109375,[ 0.87108718  0.19933511 -1.        ],1,1,1,0.315474142,0,nan,nan,nan,nan,nan,nan,nan,nan,nan,nan,[ nan  nan  nan],nan,nan,nan,342.8057055,441.951955,442.2674291,nan,nan
0,78,17:35:47:975000,6,1,55,38.671875,[ 1.         -0.05999965 -1.        ],1,1,1,0.325662343,0,nan,nan,nan,nan,nan,nan,nan,nan,nan,nan,[ nan  nan  nan],nan,nan,nan,342.8057055,442.8937435,443.2194058,nan,nan
0,79,17:35:48:911000,6,1,6,4.21875,[ 0.89512908  0.18627278 -1.        ],1,1,1,0.271848139,0,nan,nan,nan,nan,nan,nan,nan,nan,nan,nan,[ nan  nan  nan],nan,nan,nan,342.8057055,443.8355411,444.1073892,nan,nan
0,80,17:35:49:862000,6,1,321,225.703125,[-0.09994335  0.43654647  0.39117498],1,1,1,0.162021355,0,0,0,0.253177279,0.293329595,0.060840895,0.35417049,0.2324887,nan,nan,nan,[ nan  nan  nan],nan,nan,nan,342.8057055,444.7773541,444.9393754,nan,nan
0,81,17:35:50:798000,6,1,220,154.6875,[ 0.86173155  0.08932726  0.58124768],1,1,1,0.220209791,0,1,0,0.218026429,0.291708506,0.062178373,0.353886879,0.229530133,nan,nan,nan,[ nan  nan  nan],nan,nan,nan,342.8057055,445.7191371,445.9393469,nan,nan
0,82,17:35:59:285000,6,1,339,238.359375,[-0.16495584  0.45996923  0.2414231 ],1,1,1,0.238406916,1,0,0,0.206879354,0.29083657,0.062294333,0.353130903,0.228542238,nan,-135.8069295,321,[-0.09994335  0.43654647  0.39117498],nan,-12.55244554,5.492717643,342.8057055,446.660921,446.8993279,448.4861097,453.9868753
0,83,17:36:00:221000,6,1,467,328.359375,[ 0.47300519  0.36577567 -1.        ],1,1,1,0.33773503,0,0,0,0.265450579,0.290204888,0.062181587,0.352386474,0.228023301,nan,nan,nan,[ nan  nan  nan],nan,nan,nan,342.8057055,455.145398,455.483133,nan,nan
0,84,17:36:01:172000,6,0,368,258.75,[-0.15045717  0.47779326 -0.04573418],0,0,1,0.427928374,0,0,0,0.334690107,0.290770723,0.062024942,0.352795665,0.228745781,nan,nan,nan,[ nan  nan  nan],nan,nan,nan,342.8057055,456.0871708,456.5150991,nan,nan
0,85,17:36:02:108000,6,1,205,144.140625,[ 1.          0.008548    0.50553524],1,1,1,0.294093062,0,0,0,0.353252155,0.292384342,0.063407807,0.355792149,0.228976535,nan,nan,nan,[ nan  nan  nan],nan,nan,nan,342.8057055,457.0289826,457.3230757,nan,nan
0,86,17:36:03:044000,6,1,76,53.4375,[ 1.         -0.16967451 -0.77336583],1,1,1,0.312289332,0,0,0,0.344770256,0.292404211,0.063038345,0.355442556,0.229365866,nan,nan,nan,[ nan  nan  nan],nan,nan,nan,342.8057055,457.970783,458.2830724,nan,nan
0,87,17:36:03:996000,6,1,270,189.84375,[ 0.33115907  0.30936972  0.64139387],1,1,1,0.274468459,0,0,0,0.293616951,0.292632776,0.06271084,0.355343616,0.229921935,nan,nan,nan,[ nan  nan  nan],nan,nan,nan,342.8057055,458.9125735,459.187042,nan,nan
0,88,17:36:04:932000,6,1,145,101.953125,[ 1.         -0.28166741  0.01505517],1,1,1,0.268644228,0,0,0,0.285134006,0.292426363,0.062383227,0.35480959,0.230043136,nan,nan,nan,[ nan  nan  nan],nan,nan,nan,342.8057055,459.8543677,460.1230119,nan,nan
0,89,17:36:05:868000,6,1,77,54.140625,[ 1.         -0.17459302 -0.75626719],1,1,1,0.318796369,0,0,0,0.287303019,0.292159148,0.062082397,0.354241545,0.230076751,nan,nan,nan,[ nan  nan  nan],nan,nan,nan,342.8057055,460.7961855,461.1149819,nan,nan
0,90,17:36:06:820000,6,0,336,236.25,[-0.15821161  0.45675811  0.26813527],0,0,1,0.441014578,0,0,0,0.342818392,0.292455117,0.06179964,0.354254757,0.230655477,nan,nan,nan,[ nan  nan  nan],nan,nan,nan,342.8057055,461.7379509,462.1789655,nan,nan
0,91,17:36:07:756000,6,1,438,307.96875,[ 0.24362256  0.42809644 -1.        ],1,1,1,0.315196173,0,0,0,0.358335707,0.294087639,0.063380499,0.357468138,0.230707139,nan,nan,nan,[ nan  nan  nan],nan,nan,nan,342.8057055,462.6797511,462.9949472,nan,nan
0,92,17:36:08:707000,6,1,267,187.734375,[ 0.36292453  0.29880723  0.64662252],1,1,1,0.285400191,0,0,0,0.347203647,0.294317079,0.063073086,0.357390165,0.231243993,nan,nan,nan,[ nan  nan  nan],nan,nan,nan,342.8057055,463.6215412,463.9069414,nan,nan
0,93,17:36:09:643000,6,1,43,30.234375,[ 1.          0.00424534 -1.        ],1,1,1,0.247565634,0,0,0,0.282720666,0.294221199,0.062739808,0.356961006,0.231481391,nan,nan,nan,[ nan  nan  nan],nan,nan,nan,342.8057055,464.5633383,464.8109039,nan,nan
0,94,17:36:10:579000,6,0,491,345.234375,[ 0.67303348  0.29270771 -1.        ],0,1,0,0.233783795,0,0,0,0.255583207,0.293724863,0.062588486,0.356313349,0.231136377,nan,nan,nan,[ nan  nan  nan],nan,nan,nan,342.8057055,465.5051105,465.7388943,nan,nan
0,95,17:36:11:531000,6,1,379,266.484375,[-0.11353594  0.47861499 -0.16597052],1,1,1,0.267947452,0,0,0,0.249765627,0.293093904,0.06255802,0.355651924,0.230535884,nan,nan,nan,[ nan  nan  nan],nan,nan,nan,342.8057055,466.4469192,466.7148667,nan,nan
0,96,17:36:12:467000,6,1,46,32.34375,[ 1.         -0.01173137 -1.        ],1,1,1,0.270126728,0,0,0,0.257285992,0.292831962,0.062283694,0.355115656,0.230548268,nan,nan,nan,[ nan  nan  nan],nan,nan,nan,342.8057055,467.3887162,467.658843,nan,nan
0,97,17:36:13:403000,6,0,348,244.6875,[-0.17538477  0.46801784  0.15758216],0,1,0,0.264300501,0,0,0,0.267458227,0.292597887,0.062004242,0.35460213,0.230593645,nan,nan,nan,[ nan  nan  nan],nan,nan,nan,342.8057055,468.330511,468.5948115,nan,nan
0,98,17:36:14:354000,6,1,457,321.328125,[ 0.39163925  0.39035818 -1.        ],1,1,1,0.258507059,0,0,0,0.264311429,0.292309139,0.061752601,0.354061739,0.230556538,nan,nan,nan,[ nan  nan  nan],nan,nan,nan,342.8057055,469.2723037,469.5308108,nan,nan
0,99,17:36:15:290000,6,1,377,265.078125,[-0.12125986  0.47870083 -0.1436959 ],1,1,1,0.284667779,0,0,0,0.269158446,0.291967704,0.061532831,0.353500534,0.230434873,nan,nan,nan,[ nan  nan  nan],nan,nan,nan,342.8057055,470.2140988,470.4987665,nan,nan
0,100,17:36:16:242000,6,1,51,35.859375,[ 1.         -0.03851602 -1.        ],1,1,1,0.32685319,0,0,0,0.290009343,0.291894704,0.061228702,0.353123406,0.230666002,nan,nan,nan,[ nan  nan  nan],nan,nan,nan,342.8057055,471.1558872,471.4827404,nan,nan
0,101,17:36:17:178000,6,1,426,299.53125,[ 0.15619305  0.44621085 -0.8148597 ],1,1,1,0.305035057,0,0,0,0.305518675,0.292240828,0.061023076,0.353263903,0.231217752,nan,nan,nan,[ nan  nan  nan],nan,nan,nan,342.8057055,472.0976848,472.4027199,nan,nan
0,102,17:36:18:114000,6,1,381,267.890625,[-0.10540306  0.47842508 -0.18843114],1,1,1,0.291234972,0,0,0,0.307707739,0.292366261,0.060736289,0.353102551,0.231629972,nan,nan,nan,[ nan  nan  nan],nan,nan,nan,342.8057055,473.039477,473.330712,nan,nan
0,103,17:36:19:066000,6,1,183,128.671875,[ 1.         -0.113109    0.35490284],1,1,1,0.293423656,0,0,0,0.296564561,0.292355278,0.060440836,0.352796114,0.231914442,nan,nan,nan,[ nan  nan  nan],nan,nan,nan,342.8057055,473.9812723,474.274696,nan,nan
0,104,17:36:20:002000,6,1,346,243.28125,[-0.17431756  0.46643129  0.17667017],1,1,1,0.30360872,0,0,0,0.296089116,0.292365551,0.060149643,0.352515194,0.232215908,nan,nan,nan,[ nan  nan  nan],nan,nan,nan,342.8057055,474.9230622,475.2266709,nan,nan
0,105,17:36:20:938000,6,1,167,117.421875,[ 1.         -0.19560581  0.22154672],1,0,0,0.385781735,0,0,0,0.327604704,0.292472629,0.05987249,0.352345119,0.232600139,nan,nan,nan,[ nan  nan  nan],nan,nan,nan,342.8057055,475.8648607,476.2506424,nan,nan
0,106,17:36:21:889000,6,1,245,172.265625,[ 0.6005777   0.21061011  0.65017283],1,1,1,0.260027478,0,0,0,0.316472644,0.293352903,0.060268232,0.353621135,0.233084672,nan,nan,nan,[ nan  nan  nan],nan,nan,nan,342.8057055,476.8066132,477.0666407,nan,nan
0,107,17:36:22:825000,6,0,169,118.828125,[ 1.         -0.18591738  0.2391183 ],0,1,0,0.286169951,0,0,0,0.310659721,0.293041451,0.060071588,0.353113039,0.232969863,nan,nan,nan,[ nan  nan  nan],nan,nan,nan,342.8057055,477.7484396,478.0346095,nan,nan
0,108,17:36:23:761000,6,1,371,260.859375,[-0.14179361  0.47833194 -0.07797326],1,1,1,0.35233481,0,0,0,0.299510746,0.292977826,0.059796454,0.35277428,0.233181372,nan,nan,nan,[ nan  nan  nan],nan,nan,nan,342.8057055,478.6902383,479.0425731,nan,nan
0,109,17:36:24:713000,6,1,86,60.46875,[ 1.         -0.21659106 -0.6256178 ],1,1,1,0.394595202,0,0,0,0.344366654,0.293522385,0.059789957,0.353312342,0.233732428,nan,nan,nan,[ nan  nan  nan],nan,nan,nan,342.8057055,479.6320359,480.0266311,nan,nan
0,110,17:36:25:649000,6,1,421,296.015625,[ 0.12147167  0.45251804 -0.71261034],1,1,1,0.300711287,0,0,0,0.349213766,0.294441229,0.060285705,0.354726934,0.234155524,nan,nan,nan,[ nan  nan  nan],nan,nan,nan,342.8057055,480.5738261,480.8745374,nan,nan
0,111,17:36:26:600000,6,1,229,161.015625,[ 0.77039703  0.13526594  0.61468147],1,1,1,0.278899426,0,0,0,0.324735305,0.294497716,0.060016458,0.354514174,0.234481258,nan,nan,nan,[ nan  nan  nan],nan,nan,nan,342.8057055,481.515622,481.7945214,nan,nan
0,112,17:36:27:536000,6,1,460,323.4375,[ 0.41584892  0.38333493 -1.        ],1,1,1,0.273083177,0,0,0,0.284231296,0.294358446,0.059765941,0.354124387,0.234592504,nan,nan,nan,[ nan  nan  nan],nan,nan,nan,342.8057055,482.457413,482.7304962,nan,nan
0,113,17:36:28:472000,6,1,172,120.9375,[ 1.         -0.17098406  0.26502468],1,1,1,0.299256155,0,0,0,0.283746253,0.294170169,0.059534255,0.353704424,0.234635913,nan,nan,nan,[ nan  nan  nan],nan,nan,nan,342.8057055,483.3992044,483.6984605,nan,nan
0,114,17:36:29:424000,6,1,317,222.890625,[-0.07777284  0.42993861  0.42073361],1,1,1,0.30944065,0,0,0,0.29392666,0.294214783,0.059274462,0.353489245,0.23494032,nan,nan,nan,[ nan  nan  nan],nan,nan,nan,342.8057055,484.3409965,484.6504372,nan,nan
0,115,17:36:30:360000,6,1,253,177.890625,[ 0.5138659   0.24483993  0.65597719],1,1,1,0.359623867,0,0,0,0.322773557,0.294347182,0.059033113,0.353380294,0.235314069,nan,nan,nan,[ nan  nan  nan],nan,nan,nan,342.8057055,485.2827933,485.6424171,nan,nan
0,116,17:36:31:296000,6,1,374,262.96875,[-0.13203913  0.47863408 -0.11062844],1,1,1,0.305808808,0,0,0,0.324957775,0.294909912,0.059087076,0.353996988,0.235822835,nan,nan,nan,[ nan  nan  nan],nan,nan,nan,342.8057055,486.2245903,486.5303991,nan,nan
0,117,17:36:32:248000,6,1,324,227.8125,[-0.11479964  0.44115833  0.36806404],1,1,1,0.332011722,0,0,0,0.332481466,0.295003065,0.058842579,0.353845644,0.236160485,nan,nan,nan,[ nan  nan  nan],nan,nan,nan,342.8057055,487.1663768,487.4983885,nan,nan
0,118,17:36:33:184000,6,1,464,326.25,[ 0.44840488  0.37350356 -1.        ],1,1,1,0.294187144,0,0,0,0.310669225,0.295316697,0.058690844,0.354007541,0.236625854,nan,nan,nan,[ nan  nan  nan],nan,nan,nan,342.8057055,488.1081718,488.4023589,nan,nan
0,119,17:36:34:135000,6,1,59,41.484375,[ 1.         -0.08144099 -1.        ],1,1,1,0.304375344,0,0,0,0.310191403,0.295307205,0.058443814,0.353751019,0.236863391,nan,nan,nan,[ nan  nan  nan],nan,nan,nan,342.8057055,489.04996,489.3543353,nan,nan
0,120,17:36:35:071000,6,1,325,228.515625,[-0.1194049   0.44263104  0.36018642],1,1,1,0.282553505,0,0,0,0.293705331,0.295382773,0.058205627,0.3535884,0.237177147,nan,nan,nan,[ nan  nan  nan],nan,nan,nan,342.8057055,489.9917601,490.2743137,nan,nan
0,121,17:36:36:007000,6,1,419,294.609375,[ 0.10789467  0.45484197 -0.67809886],1,1,1,0.260737938,0,0,0,0.282555595,0.295276746,0.057976244,0.35325299,0.237300502,nan,nan,nan,[ nan  nan  nan],nan,nan,nan,342.8057055,490.9335546,491.1942925,nan,nan
0,122,17:36:36:959000,6,1,97,68.203125,[ 1.         -0.26036974 -0.49171883],1,1,1,0.518926259,0,0,1,0.354072567,0.294993641,0.057822069,0.35281571,0.237171573,nan,nan,nan,[ nan  nan  nan],nan,nan,nan,342.8057055,491.8753442,492.3942705,nan,nan
0,123,17:36:42:747000,6,1,409,287.578125,[ 0.04294362  0.46479315 -0.52946185],1,1,1,0.369097901,1,0,0,0.382920699,0.296814232,0.060996595,0.357810826,0.235817637,nan,-177.6978917,381,[-0.10540306  0.47842508 -0.18843114],nan,-19.88023329,2.809031109,342.8057055,492.8171404,493.1862383,494.6423265,497.4593913
0,124,17:36:43:683000,6,1,247,173.671875,[ 0.57894763  0.21939267  0.65238059],1,1,1,0.456489034,0,0,0,0.448171065,0.297397164,0.06109318,0.358490344,0.236303985,nan,nan,nan,[ nan  nan  nan],nan,nan,nan,342.8057055,498.6096091,499.0660981,nan,nan
0,125,17:36:44:634000,6,1,147,103.359375,[ 1.         -0.27580113  0.03467205],1,1,1,0.418713207,0,0,0,0.414766714,0.298669899,0.062477032,0.361146931,0.236192868,nan,nan,nan,[ nan  nan  nan],nan,nan,nan,342.8057055,499.5513773,499.9700905,nan,nan
0,126,17:36:45:570000,6,1,402,282.65625,[ 0.00072492  0.47013996 -0.43781156],1,1,1,0.420904171,0,0,1,0.432035471,0.299622624,0.063133674,0.362756298,0.23648895,nan,nan,nan,[ nan  nan  nan],nan,nan,nan,342.8057055,500.4931709,500.9140751,nan,nan
0,127,17:36:50:500000,6,1,479,336.796875,[ 0.57257215  0.33176822 -1.        ],1,1,1,0.351076395,1,0,0,0.396897924,0.300577597,0.063791729,0.364369326,0.236785868,nan,155.2051159,419,[ 0.10789467  0.45484197 -0.67809886],nan,-42.00199088,1.933867072,342.8057055,501.4349665,501.7860429,503.2685077,505.2104139
0,128,17:36:51:436000,6,1,159,111.796875,[ 1.         -0.23176597  0.14905501],1,1,1,0.465319891,0,0,0,0.412433486,0.300972119,0.063697409,0.364669527,0.23727471,nan,nan,nan,[ nan  nan  nan],nan,nan,nan,342.8057055,506.3606274,506.8259473,nan,nan
0,129,17:36:52:387000,6,1,468,329.0625,[ 0.48123648  0.36313162 -1.        ],1,1,1,0.347487033,0,0,0,0.387961106,0.302246132,0.065066625,0.367312757,0.237179507,nan,nan,nan,[ nan  nan  nan],nan,nan,nan,342.8057055,507.3024247,507.6499117,nan,nan
0,130,17:36:53:323000,6,1,369,259.453125,[-0.14769469  0.47799919 -0.05643387],1,1,1,0.341640849,0,0,1,0.384815924,0.302594139,0.064936292,0.367530432,0.237657847,nan,nan,nan,[ nan  nan  nan],nan,nan,nan,342.8057055,508.2442195,508.5858603,nan,nan
0,131,17:36:58:627000,6,0,58,40.78125,[ 1.         -0.07608966 -1.        ],0,0,1,0.431850443,1,0,0,0.373659442,0.302892206,0.06477718,0.367669385,0.238115026,nan,46.19348942,62,[ 1.         -0.09743725 -1.        ],nan,3.025260576,2.317279087,342.8057055,509.1860091,509.6178595,511.01119,513.336504
0,132,17:36:59:563000,6,1,253,177.890625,[ 0.5138659   0.24483993  0.65597719],1,1,1,0.427034027,0,0,0,0.400175106,0.303869162,0.065492951,0.369362113,0.238376211,nan,nan,nan,[ nan  nan  nan],nan,nan,nan,342.8057055,514.4867181,514.9137521,nan,nan
0,133,17:37:00:515000,6,1,118,82.96875,[ 1.         -0.30858815 -0.26128525],1,1,1,0.333133576,0,0,0,0.397339349,0.304795214,0.066108059,0.370903273,0.238687154,nan,nan,nan,[ nan  nan  nan],nan,nan,nan,342.8057055,515.4285884,515.7617219,nan,nan
0,134,17:37:01:451000,6,1,173,121.640625,[ 1.         -0.16590952  0.27353519],1,1,1,0.319398493,0,0,0,0.359855365,0.305006694,0.065906068,0.370912762,0.239100626,nan,nan,nan,[ nan  nan  nan],nan,nan,nan,342.8057055,516.3703059,516.6897043,nan,nan
0,135,17:37:02:387000,6,1,122,85.78125,[ 1.         -0.31115954 -0.21914422],1,1,1,0.329562745,0,0,0,0.327364938,0.3051133,0.065673113,0.370786413,0.239440187,nan,nan,nan,[ nan  nan  nan],nan,nan,nan,342.8057055,517.3121174,517.6416802,nan,nan
0,136,17:37:03:339000,6,1,363,255.234375,[-0.16228773  0.47636573  0.00704813],1,1,1,0.307749173,0,0,0,0.31890347,0.305293075,0.065464555,0.37075763,0.23982852,nan,nan,nan,[ nan  nan  nan],nan,nan,nan,342.8057055,518.2538908,518.56164,nan,nan
0,137,17:37:04:275000,6,1,193,135.703125,[ 1.         -0.05804539  0.42865879],1,1,1,0.357965462,0,0,0,0.331759127,0.305311003,0.065225531,0.370536534,0.240085472,nan,nan,nan,[ nan  nan  nan],nan,nan,nan,342.8057055,519.1956687,519.5536342,nan,nan
0,138,17:37:05:211000,6,1,358,251.71875,[-0.17058391  0.47426832  0.05858744],1,1,1,0.384130458,0,0,0,0.349948364,0.305692557,0.065142045,0.370834602,0.240550512,nan,nan,nan,[ nan  nan  nan],nan,nan,nan,342.8057055,520.1374783,520.5216087,nan,nan
0,139,17:37:06:162000,6,0,251,176.484375,[ 0.53557652  0.23650919  0.65528415],0,0,1,0.466336829,0,0,0,0.402810916,0.306256859,0.065244935,0.371501793,0.241011924,nan,nan,nan,[ nan  nan  nan],nan,nan,nan,342.8057055,521.0792585,521.5455953,nan,nan
0,140,17:37:07:098000,6,1,5,3.515625,[ 0.88714031  0.19065985 -1.        ],1,1,1,0.340511297,0,0,0,0.396992861,0.307400287,0.066394485,0.373794772,0.241005802,nan,nan,nan,[ nan  nan  nan],nan,nan,nan,342.8057055,522.0210643,522.3615756,nan,nan
0,141,17:37:08:050000,6,1,458,322.03125,[ 0.39968805  0.38805021 -1.        ],1,1,1,0.326684128,0,0,0,0.377844085,0.307635117,0.066216946,0.373852063,0.241418171,nan,nan,nan,[ nan  nan  nan],nan,nan,nan,342.8057055,522.9628725,523.2895566,nan,nan
0,142,17:37:08:986000,6,1,39,27.421875,[ 1.          0.02537899 -1.        ],1,1,1,0.272870495,0,0,0,0.313355307,0.307769265,0.0660026,0.373771865,0.241766664,nan,nan,nan,[ nan  nan  nan],nan,nan,nan,342.8057055,523.9046595,524.17753,nan,nan
0,143,17:37:09:922000,6,1,462,324.84375,[ 0.43208968  0.37848636 -1.        ],1,1,1,0.283062972,0,0,0,0.294205865,0.307525217,0.06583568,0.373360897,0.241689538,nan,nan,nan,[ nan  nan  nan],nan,nan,nan,342.8057055,524.8464392,525.1295021,nan,nan
0,144,17:37:10:873000,6,0,211,148.359375,[ 0.94867577  0.04136069  0.53868916],0,1,0,0.277243872,0,0,0,0.277725779,0.307355341,0.065638128,0.372993469,0.241717213,nan,nan,nan,[ nan  nan  nan],nan,nan,nan,342.8057055,525.7882453,526.0654892,nan,nan
0,145,17:37:11:809000,6,1,96,67.5,[ 1.         -0.25681952 -0.50330248],1,1,1,0.247435345,0,0,0,0.269247396,0.307147675,0.06545885,0.372606525,0.241688826,nan,nan,nan,[ nan  nan  nan],nan,nan,nan,342.8057055,526.7300386,526.977474,nan,nan
0,146,17:37:12:745000,6,0,317,222.890625,[-0.07777284  0.42993861  0.42073361],0,0,1,0.393600216,0,0,0,0.306093144,0.306738687,0.065419928,0.372158615,0.241318759,nan,nan,nan,[ nan  nan  nan],nan,nan,nan,342.8057055,527.6718479,528.0654481,nan,nan
0,147,17:37:13:697000,6,1,75,52.734375,[ 1.         -0.16471446 -0.79135592],1,1,1,0.235817957,0,0,0,0.292284506,0.307329582,0.065586811,0.372916393,0.24174277,nan,nan,nan,[ nan  nan  nan],nan,nan,nan,342.8057055,528.6136099,528.8494278,nan,nan
0,148,17:37:14:633000,6,1,460,323.4375,[ 0.41584892  0.38333493 -1.        ],1,1,1,0.269993588,0,0,0,0.29980392,0.306846395,0.06562686,0.372473255,0.241219535,nan,nan,nan,[ nan  nan  nan],nan,nan,nan,342.8057055,529.5554092,529.8254028,nan,nan
0,149,17:37:15:585000,6,1,280,196.875,[ 0.22808935  0.34201885  0.61587222],1,1,1,0.264117184,0,0,0,0.25664291,0.306599061,0.06547544,0.372074501,0.24112362,nan,nan,nan,[ nan  nan  nan],nan,nan,nan,342.8057055,530.4972207,530.7613379,nan,nan
0,150,17:37:16:521000,6,1,351,246.796875,[-0.17568629  0.47018527  0.12848998],1,1,1,0.282343959,0,0,0,0.272151577,0.306315848,0.06534833,0.371664178,0.240967518,nan,nan,nan,[ nan  nan  nan],nan,nan,nan,342.8057055,531.4389989,531.7213429,nan,nan
0,151,17:37:17:457000,6,1,224,157.5,[ 0.82161942  0.11002479  0.59726488],1,1,1,0.276504332,0,0,0,0.274321825,0.306157094,0.0651606,0.371317694,0.240996493,nan,nan,nan,[ nan  nan  nan],nan,nan,nan,342.8057055,532.3807937,532.657298,nan,nan
0,152,17:37:18:408000,6,1,114,80.15625,[ 1.         -0.30374746 -0.30385937],1,1,1,0.278684463,0,0,0,0.279177585,0.30596201,0.06499013,0.37095214,0.24097188,nan,nan,nan,[ nan  nan  nan],nan,nan,nan,342.8057055,533.3225864,533.6012709,nan,nan
0,153,17:37:19:344000,6,1,451,317.109375,[ 0.34383096  0.40351836 -1.        ],1,1,1,0.320912639,0,0,0,0.292033811,0.305783725,0.064814677,0.370598402,0.240969048,nan,nan,nan,[ nan  nan  nan],nan,nan,nan,342.8057055,534.2643789,534.5852915,nan,nan
0,154,17:37:20:280000,6,1,276,194.0625,[ 0.26871044  0.32943033  0.62756301],1,1,1,0.283091196,0,0,0,0.294229433,0.305881965,0.064615324,0.370497289,0.241266641,nan,nan,nan,[ nan  nan  nan],nan,nan,nan,342.8057055,535.2061751,535.4892663,nan,nan
0,155,17:37:21:232000,6,1,203,142.734375,[ 1.         -0.00249325  0.49367467],1,1,1,0.333287528,0,0,0,0.312430454,0.305734928,0.064432393,0.37016732,0.241302535,nan,nan,nan,[ nan  nan  nan],nan,nan,nan,342.8057055,536.1479587,536.4812462,nan,nan
0,156,17:37:22:168000,6,1,43,30.234375,[ 1.          0.00424534 -1.        ],1,1,1,0.327463866,0,0,0,0.314614197,0.305911547,0.064263177,0.370174724,0.24164837,nan,nan,nan,[ nan  nan  nan],nan,nan,nan,342.8057055,537.0897611,537.417225,nan,nan
0,157,17:37:23:104000,6,1,383,269.296875,[-0.09687871  0.47813121 -0.21108141],1,1,1,0.297643081,0,0,0,0.319464825,0.306048823,0.064081133,0.370129955,0.24196769,nan,nan,nan,[ nan  nan  nan],nan,nan,nan,342.8057055,538.0315622,538.3292052,nan,nan
0,158,17:37:24:055000,6,1,36,25.3125,[ 1.          0.04106996 -1.        ],1,1,1,0.235829076,0,0,0,0.286978674,0.305995622,0.0638815,0.369877122,0.242114122,nan,nan,nan,[ nan  nan  nan],nan,nan,nan,342.8057055,538.9733486,539.2091777,nan,nan
0,159,17:37:24:991000,6,1,380,267.1875,[-0.10951951  0.47853303 -0.17717739],1,1,1,0.510025838,0,0,0,0.347832665,0.305554323,0.063921437,0.36947576,0.241632886,nan,nan,nan,[ nan  nan  nan],nan,nan,nan,342.8057055,539.9151374,540.4251632,nan,nan
0,160,17:37:25:943000,6,0,255,179.296875,[ 0.49215936  0.25301719  0.65616311],0,0,1,0.504187922,0,0,0,0.416680945,0.30683227,0.065727342,0.372559612,0.241104928,nan,nan,nan,[ nan  nan  nan],nan,nan,nan,342.8057055,540.8569321,541.3611201,nan,nan
0,161,17:37:26:879000,6,1,143,100.546875,[ 1.         -0.28705753 -0.00469999],1,1,1,0.322389152,0,0,0,0.445534304,0.308058081,0.067332525,0.375390606,0.240725557,nan,nan,nan,[ nan  nan  nan],nan,nan,nan,342.8057055,541.7987249,542.121114,nan,nan
0,162,17:37:27:815000,6,1,385,270.703125,[-0.08797966  0.47773344 -0.23392672],1,1,1,0.284570846,0,0,0,0.37038264,0.308146545,0.067133771,0.375280316,0.241012774,nan,nan,nan,[ nan  nan  nan],nan,nan,nan,342.8057055,542.7405179,543.0250888,nan,nan
0,163,17:37:28:767000,6,1,438,307.96875,[ 0.24362256  0.42809644 -1.        ],1,1,1,0.238756444,0,0,0,0.281905481,0.308001909,0.066952836,0.374954745,0.241049073,nan,nan,nan,[ nan  nan  nan],nan,nan,nan,342.8057055,543.6823092,543.9210657,nan,nan
0,164,17:37:29:703000,6,1,55,38.671875,[ 1.         -0.05999965 -1.        ],1,1,1,0.376945461,0,0,0,0.300090917,0.30757968,0.066965722,0.374545402,0.240613958,nan,nan,nan,[ nan  nan  nan],nan,nan,nan,342.8057055,544.6241031,545.0010486,nan,nan
0,165,17:37:30:639000,6,1,436,306.5625,[ 0.22868171  0.43141373 -1.        ],1,1,1,0.1871295,0,0,0,0.267610468,0.308000079,0.066979208,0.374979287,0.241020871,nan,nan,nan,[ nan  nan  nan],nan,nan,nan,342.8057055,545.565897,545.7530265,nan,nan
0,166,17:37:31:590000,6,1,327,229.921875,[-0.12808616  0.44548068  0.34417644],1,1,1,0.189330158,0,0,0,0.25113504,0.307271943,0.067428992,0.374700935,0.239842951,nan,nan,nan,[ nan  nan  nan],nan,nan,nan,342.8057055,546.5076903,546.6970205,nan,nan
0,167,17:37:32:526000,6,1,399,280.546875,[-0.01644604  0.47203125 -0.40027452],1,1,1,0.295502008,0,1,0,0.223987222,0.306565705,0.067839808,0.374405513,0.238725896,nan,nan,nan,[ nan  nan  nan],nan,nan,nan,342.8057055,547.4494808,547.7449828,nan,nan
0,168,17:37:39:577000,6,1,483,339.609375,[ 0.60602571  0.31931445 -1.        ],1,1,1,0.297688126,1,0,0,0.260840097,0.306499849,0.067642957,0.374142806,0.238856893,nan,132.3698873,452,[ 0.35173807  0.40140621 -1.        ],nan,-21.97926234,4.0508435,342.8057055,548.3912784,548.6889665,550.2247939,554.2836725
0,169,17:37:40:513000,6,0,339,238.359375,[-0.16495584  0.45996923  0.2414231 ],0,0,1,0.462916529,0,0,0,0.352035554,0.306447709,0.067445918,0.373893627,0.23900179,nan,nan,nan,[ nan  nan  nan],nan,nan,nan,342.8057055,555.4338852,555.8968017,nan,nan
0,170,17:37:41:449000,6,1,66,46.40625,[ 1.         -0.11856871 -1.        ],1,1,1,0.361074437,0,0,0,0.373893031,0.307368114,0.068303447,0.375671561,0.239064667,nan,nan,nan,[ nan  nan  nan],nan,nan,nan,342.8057055,556.375697,556.7367715,nan,nan
0,171,17:37:42:401000,6,1,291,204.609375,[ 0.12202764  0.37344194  0.57379193],1,1,1,0.307289028,0,0,0,0.377093331,0.307682186,0.06822644,0.375908626,0.239455746,nan,nan,nan,[ nan  nan  nan],nan,nan,nan,342.8057055,557.3174732,557.6247623,nan,nan
0,172,17:37:43:353000,6,1,470,330.46875,[ 0.49774161  0.35774078 -1.        ],1,1,1,0.605463243,0,0,1,0.424608903,0.3076799,0.068027825,0.375707725,0.239652075,nan,nan,nan,[ nan  nan  nan],nan,nan,nan,342.8057055,558.2592717,558.8647349,nan,nan
0,173,17:37:49:125000,6,1,250,175.78125,[ 0.54642845  0.23228666  0.65474773],1,1,1,0.518953058,1,0,0,0.47723511,0.309401191,0.071488766,0.380889957,0.237912425,nan,-101.9597622,273,[ 0.29973296  0.31957719  0.63503803],nan,16.17851222,2.767344331,342.8057055,559.2177494,559.7367025,561.0512404,563.8266176
0,174,17:37:50:061000,6,1,19,13.359375,[ 0.99625917  0.12637453 -1.        ],1,1,1,0.415364751,0,0,0,0.513260351,0.310605512,0.073021843,0.383627355,0.23758367,nan,nan,nan,[ nan  nan  nan],nan,nan,nan,342.8057055,564.9851987,565.4005634,nan,nan
0,175,17:37:51:012000,6,1,376,264.375,[-0.12496282  0.47870467 -0.13262763],1,1,1,0.353601208,0,0,0,0.429306339,0.311204136,0.073239831,0.384443968,0.237964305,nan,nan,nan,[ nan  nan  nan],nan,nan,nan,342.8057055,565.9269583,566.2805595,nan,nan
0,176,17:37:51:948000,6,1,317,222.890625,[-0.07777284  0.42993861  0.42073361],1,1,1,0.331773382,0,0,0,0.366913113,0.311445029,0.07310096,0.384545989,0.238344069,nan,nan,nan,[ nan  nan  nan],nan,nan,nan,342.8057055,566.8687554,567.2005287,nan,nan
0,177,17:37:52:884000,6,1,400,281.25,[-0.01078748  0.4714273  -0.41269269],1,1,1,0.30997549,0,0,0,0.33178336,0.311559878,0.072910089,0.384469968,0.238649789,nan,nan,nan,[ nan  nan  nan],nan,nan,nan,342.8057055,567.8105421,568.1205176,nan,nan
0,178,17:37:53:836000,6,1,40,28.125,[ 1.          0.02011655 -1.        ],1,1,1,0.264152251,0,0,0,0.301967041,0.311550977,0.072705094,0.384256071,0.238845883,nan,nan,nan,[ nan  nan  nan],nan,nan,nan,342.8057055,568.7523371,569.0164894,nan,nan
0,179,17:37:54:772000,6,1,85,59.765625,[ 1.         -0.21215645 -0.63878123],1,1,1,0.306342794,0,0,0,0.293490178,0.31128618,0.072587745,0.383873925,0.238698435,nan,nan,nan,[ nan  nan  nan],nan,nan,nan,342.8057055,569.6941316,570.0004744,nan,nan
0,180,17:37:55:723000,6,1,500,351.5625,[ 0.74814593  0.26005829 -1.        ],1,1,1,0.284523805,0,0,0,0.285006283,0.311258717,0.072386764,0.383645481,0.238871953,nan,nan,nan,[ nan  nan  nan],nan,nan,nan,342.8057055,570.6359292,570.920453,nan,nan
0,181,17:37:56:659000,6,1,105,73.828125,[ 1.         -0.28504984 -0.40158079],1,1,1,0.294712576,0,0,0,0.295193058,0.31111101,0.07221372,0.383324729,0.23889729,nan,nan,nan,[ nan  nan  nan],nan,nan,nan,342.8057055,571.5777211,571.8724337,nan,nan
0,182,17:37:57:595000,6,1,205,144.140625,[ 1.          0.008548    0.50553524],1,1,1,0.320878427,0,0,0,0.300038269,0.311020909,0.072025258,0.383046167,0.23899565,nan,nan,nan,[ nan  nan  nan],nan,nan,nan,342.8057055,572.519515,572.8403934,nan,nan
0,183,17:37:58:547000,6,1,86,60.46875,[ 1.         -0.21659106 -0.6256178 ],1,1,1,0.331079742,0,0,0,0.315556915,0.311074775,0.071831874,0.382906649,0.2392429,nan,nan,nan,[ nan  nan  nan],nan,nan,nan,342.8057055,573.461308,573.7923878,nan,nan
0,184,17:37:59:483000,6,1,340,239.0625,[-0.16683717  0.46098011  0.2323764 ],1,1,1,0.309265601,0,0,0,0.320407923,0.311183497,0.07165151,0.382835007,0.239531988,nan,nan,nan,[ nan  nan  nan],nan,nan,nan,342.8057055,574.4030962,574.7123618,nan,nan
0,185,17:38:00:419000,6,1,410,288.28125,[ 0.04920468  0.46392153 -0.54316189],1,1,1,0.311436609,0,0,0,0.317260651,0.31117313,0.071457733,0.382630863,0.239715397,nan,nan,nan,[ nan  nan  nan],nan,nan,nan,342.8057055,575.3448907,575.6563273,nan,nan
0,186,17:38:01:371000,6,1,199,139.921875,[ 1.         -0.02467618  0.4687863 ],1,1,1,0.321643341,0,0,0,0.314115183,0.311174547,0.071265386,0.382439933,0.239909161,nan,nan,nan,[ nan  nan  nan],nan,nan,nan,342.8057055,576.286676,576.6083193,nan,nan
0,187,17:38:02:307000,6,1,437,307.265625,[ 0.23613483  0.42977024 -1.        ],1,1,1,0.291813432,0,0,0,0.308297794,0.31123053,0.071078682,0.382309212,0.240151848,nan,nan,nan,[ nan  nan  nan],nan,nan,nan,342.8057055,577.2284833,577.5202967,nan,nan
0,188,17:38:03:258000,6,0,510,358.59375,[ 0.83055446  0.2204367  -1.        ],0,1,0,0.286012293,0,0,0,0.299823022,0.311127247,0.070903459,0.382030707,0.240223788,nan,nan,nan,[ nan  nan  nan],nan,nan,nan,342.8057055,578.1702723,578.4562846,nan,nan
0,189,17:38:04:194000,6,1,290,203.90625,[ 0.13126538  0.37077654  0.57820662],1,1,1,0.23219866,0,0,0,0.270008128,0.310994364,0.070739104,0.381733468,0.24025526,nan,nan,nan,[ nan  nan  nan],nan,nan,nan,342.8057055,579.1120662,579.3442649,nan,nan
0,190,17:38:05:130000,6,1,508,357.1875,[ 0.81419982  0.22863893 -1.        ],1,1,1,0.266241721,0,0,0,0.261484225,0.31057965,0.070782692,0.381362342,0.239796957,nan,nan,nan,[ nan  nan  nan],nan,nan,nan,342.8057055,580.0539947,580.3202364,nan,nan
0,191,17:38:06:082000,6,0,176,123.75,[ 1.         -0.15042967  0.29867547],0,0,1,0.444553763,0,0,0,0.314331381,0.310347514,0.070669631,0.381017145,0.239677883,nan,nan,nan,[ nan  nan  nan],nan,nan,nan,342.8057055,580.9956523,581.440206,nan,nan
0,192,17:38:07:018000,6,1,425,298.828125,[ 0.14916262  0.4475296  -0.79171567],1,1,1,0.318743341,0,0,0,0.343179608,0.311046505,0.071144259,0.382190764,0.239902246,nan,nan,nan,[ nan  nan  nan],nan,nan,nan,342.8057055,581.9374439,582.2561872,nan,nan
0,193,17:38:07:954000,6,1,136,95.625,[ 1.         -0.3019149  -0.07484121],1,1,1,0.304931282,0,0,0,0.356076129,0.311086385,0.07096186,0.382048245,0.240124525,nan,nan,nan,[ nan  nan  nan],nan,nan,nan,342.8057055,582.8792364,583.1841676,nan,nan
0,194,17:38:08:905000,6,1,329,231.328125,[-0.13605328  0.44820379  0.32783374],1,1,1,0.307122817,0,0,0,0.310265813,0.311054658,0.070780105,0.381834762,0.240274553,nan,nan,nan,[ nan  nan  nan],nan,nan,nan,342.8057055,583.8210265,584.1281494,nan,nan
0,195,17:38:09:841000,6,1,372,261.5625,[-0.13866002  0.47845887 -0.08881238],1,1,1,0.309300667,0,0,0,0.307118255,0.311034494,0.070598943,0.381633437,0.240435552,nan,nan,nan,[ nan  nan  nan],nan,nan,nan,342.8057055,584.7628201,585.0721208,nan,nan
0,196,17:38:10:793000,6,0,201,141.328125,[ 1.         -0.01357126  0.48142235],0,1,0,0.295470362,0,0,0,0.303964615,0.311025648,0.070418721,0.38144437,0.240606927,nan,nan,nan,[ nan  nan  nan],nan,nan,nan,342.8057055,585.7046166,586.000087,nan,nan
0,197,17:38:11:729000,6,1,457,321.328125,[ 0.39163925  0.39035818 -1.        ],1,1,1,0.193710662,0,0,0,0.266160564,0.310946687,0.070248465,0.381195152,0.240698223,nan,nan,nan,[ nan  nan  nan],nan,nan,nan,342.8057055,586.6463837,586.8400943,nan,nan
0,198,17:38:12:665000,6,1,314,220.78125,[-0.05944389  0.42463231  0.44192541],1,1,1,0.267868481,0,0,0,0.252349835,0.310354586,0.070561947,0.380916533,0.23979264,nan,nan,nan,[ nan  nan  nan],nan,nan,nan,342.8057055,587.588191,587.8560595,nan,nan
0,199,17:38:13:617000,6,1,496,348.75,[ 0.71483372  0.27492388 -1.        ],1,1,1,0.270039204,0,0,0,0.243872782,0.310141088,0.070448516,0.380589604,0.239692572,nan,nan,nan,[ nan  nan  nan],nan,nan,nan,342.8057055,588.5299974,588.8000366,nan,nan
0,200,17:38:14:553000,6,1,387,272.109375,[-0.07872193  0.47723176 -0.25697445],1,1,1,0.288222929,0,0,0,0.275376871,0.309940579,0.070329077,0.380269655,0.239611502,nan,nan,nan,[ nan  nan  nan],nan,nan,nan,342.8057055,589.4717879,589.7600108,nan,nan
0,201,17:38:15:489000,6,1,433,304.453125,[ 0.2065363   0.43616372 -1.        ],1,1,1,0.306399528,0,0,0,0.288220554,0.309832531,0.07017055,0.380003081,0.239661981,nan,nan,nan,[ nan  nan  nan],nan,nan,nan,342.8057055,590.4135823,590.7199819,nan,nan
0,202,17:38:16:440000,6,1,109,76.640625,[ 1.         -0.29463833 -0.3577737 ],1,1,1,0.308608454,0,0,0,0.30107697,0.309815536,0.069997059,0.379812595,0.239818476,nan,nan,nan,[ nan  nan  nan],nan,nan,nan,342.8057055,591.3553694,591.6639778,nan,nan
0,203,17:38:17:376000,6,1,46,32.34375,[ 1.         -0.01173137 -1.        ],1,1,1,0.286781197,0,0,0,0.300596393,0.30980959,0.069824491,0.379634081,0.239985098,nan,nan,nan,[ nan  nan  nan],nan,nan,nan,342.8057055,592.2971647,592.5839459,nan,nan
0,204,17:38:18:328000,6,0,221,155.390625,[ 0.85178146  0.09454116  0.58542294],0,1,0,0.312969286,0,0,0,0.302786312,0.309696705,0.069671709,0.379368414,0.240024996,nan,nan,nan,[ nan  nan  nan],nan,nan,nan,342.8057055,593.2389609,593.5519301,nan,nan
0,205,17:38:19:264000,6,1,447,314.296875,[ 0.31246764  0.41164647 -1.        ],1,1,1,0.243151203,0,0,0,0.280967229,0.309712669,0.069501944,0.379214613,0.240210725,nan,nan,nan,[ nan  nan  nan],nan,nan,nan,342.8057055,594.180751,594.4239022,nan,nan
0,206,17:38:20:200000,6,1,366,257.34375,[-0.15559338  0.47730203 -0.02447665],1,1,1,0.365331209,0,0,0,0.307150566,0.309389555,0.06948722,0.378876775,0.239902336,nan,nan,nan,[ nan  nan  nan],nan,nan,nan,342.8057055,595.1225452,595.4878764,nan,nan
0,207,17:38:21:151000,6,1,205,144.140625,[ 1.          0.008548    0.50553524],1,1,1,0.295546482,0,0,0,0.301342965,0.309659805,0.069427609,0.379087414,0.240232196,nan,nan,nan,[ nan  nan  nan],nan,nan,nan,342.8057055,596.0643194,596.3598659,nan,nan
0,208,17:38:22:087000,6,1,338,237.65625,[-0.16289136  0.45892871  0.25039916],1,1,1,0.297705232,0,0,0,0.319527641,0.309591952,0.069267394,0.378859346,0.240324558,nan,nan,nan,[ nan  nan  nan],nan,nan,nan,342.8057055,597.0061316,597.3038368,nan,nan
0,209,17:38:23:023000,6,1,44,30.9375,[ 1.         -0.00106984 -1.        ],1,1,1,0.323880776,0,0,0,0.30571083,0.309535078,0.069106352,0.37864143,0.240428726,nan,nan,nan,[ nan  nan  nan],nan,nan,nan,342.8057055,597.94792,598.2718008,nan,nan
0,210,17:38:23:975000,6,1,254,178.59375,[ 0.50301113  0.24894782  0.65613358],1,1,1,0.262073043,0,0,0,0.294553017,0.309603391,0.06894869,0.378552081,0.240654701,nan,nan,nan,[ nan  nan  nan],nan,nan,nan,342.8057055,598.8897171,599.1517901,nan,nan
0,211,17:38:24:911000,6,1,343,241.171875,[-0.17138818  0.46383642  0.20482281],1,1,1,0.232269934,0,0,0,0.272741251,0.309378128,0.068862526,0.378240655,0.240515602,nan,nan,nan,[ nan  nan  nan],nan,nan,nan,342.8057055,599.8315067,600.0637766,nan,nan
0,212,17:38:25:847000,6,1,433,304.453125,[ 0.2065363   0.43616372 -1.        ],1,1,1,0.290448961,0,0,0,0.261597313,0.309014411,0.068902777,0.377917188,0.240111633,nan,nan,nan,[ nan  nan  nan],nan,nan,nan,342.8057055,600.7733051,601.0637541,nan,nan
0,213,17:38:26:799000,6,1,199,139.921875,[ 1.         -0.02467618  0.4687863 ],1,1,1,0.268640236,0,0,0,0.263786377,0.308927249,0.068752557,0.377679806,0.240174692,nan,nan,nan,[ nan  nan  nan],nan,nan,nan,342.8057055,601.7150942,601.9837344,nan,nan
0,214,17:38:27:735000,6,1,510,358.59375,[ 0.83055446  0.2204367  -1.        ],1,1,1,0.286824247,0,0,0,0.281971148,0.308738992,0.068646738,0.37738573,0.240092254,nan,nan,nan,[ nan  nan  nan],nan,nan,nan,342.8057055,602.6568912,602.9437154,nan,nan
0,215,17:38:28:686000,6,0,347,243.984375,[-0.17493884  0.46723881  0.16715748],0,1,0,0.265004974,0,0,0,0.273489819,0.308637063,0.068503138,0.377140201,0.240133924,nan,nan,nan,[ nan  nan  nan],nan,nan,nan,342.8057055,603.5986811,603.8636861,nan,nan
0,216,17:38:29:622000,6,1,81,56.953125,[ 1.         -0.19380425 -0.69421917],1,1,1,0.259189865,0,0,0,0.270339695,0.308435062,0.068408534,0.376843596,0.240026529,nan,nan,nan,[ nan  nan  nan],nan,nan,nan,342.8057055,604.5404795,604.7996694,nan,nan
0,217,17:38:30:558000,6,0,493,346.640625,[ 0.68976908  0.28570078 -1.        ],0,1,0,0.221385813,0,0,0,0.248526884,0.308208126,0.068332174,0.376540299,0.239875952,nan,nan,nan,[ nan  nan  nan],nan,nan,nan,342.8057055,605.482264,605.7036498,nan,nan
0,218,17:38:31:510000,6,1,41,28.828125,[ 1.         0.0148395 -1.       ],1,1,1,0.167582158,0,0,0,0.216052612,0.307809858,0.068427239,0.376237098,0.239382619,nan,nan,nan,[ nan  nan  nan],nan,nan,nan,342.8057055,606.4240608,606.5916429,nan,nan
0,219,17:38:32:446000,6,1,117,82.265625,[ 1.         -0.30758797 -0.27188654],1,1,1,0.273748591,0,0,0,0.220905521,0.307169549,0.068922318,0.376091867,0.238247232,nan,nan,nan,[ nan  nan  nan],nan,nan,nan,342.8057055,607.3658558,607.6396044,nan,nan
0,220,17:38:33:382000,6,0,49,34.453125,[ 1.         -0.02778543 -1.        ],0,0,1,0.435931311,0,0,0,0.292420687,0.307017636,0.068802236,0.375819872,0.2382154,nan,nan,nan,[ nan  nan  nan],nan,nan,nan,342.8057055,608.3076514,608.7435827,nan,nan
0,221,17:38:34:333000,6,1,320,225,[-0.09465004  0.43494402  0.39870124],1,1,1,0.238110986,0,0,0,0.315930296,0.307600956,0.069189491,0.376790446,0.238411465,nan,nan,nan,[ nan  nan  nan],nan,nan,nan,342.8057055,609.2494419,609.4875528,nan,nan
0,222,17:38:35:270000,6,1,134,94.21875,[ 1.         -0.304951   -0.09514411],1,1,1,0.296298281,0,0,0,0.32344686,0.307287938,0.069190139,0.376478077,0.238097799,nan,nan,nan,[ nan  nan  nan],nan,nan,nan,342.8057055,610.1912315,610.4875297,nan,nan
0,223,17:38:36:221000,6,1,178,125.15625,[ 1.         -0.13991966  0.31509783],1,1,1,0.290492296,0,0,0,0.274967188,0.307238657,0.069038735,0.376277392,0.238199922,nan,nan,nan,[ nan  nan  nan],nan,nan,nan,342.8057055,611.1330279,611.4235202,nan,nan
0,224,17:38:37:157000,6,1,306,215.15625,[-0.00395437  0.40897401  0.49412883],1,1,1,0.276674249,0,0,0,0.287821609,0.307163896,0.068893504,0.376057401,0.238270392,nan,nan,nan,[ nan  nan  nan],nan,nan,nan,342.8057055,612.0748161,612.3514904,nan,nan
0,225,17:38:38:093000,6,1,28,19.6875,[ 1.          0.08206613 -1.        ],1,1,1,0.286846199,0,0,0,0.284670915,0.307028387,0.06877015,0.375798536,0.238258237,nan,nan,nan,[ nan  nan  nan],nan,nan,nan,342.8057055,613.016618,613.3034642,nan,nan
0,226,17:38:39:045000,6,1,325,228.515625,[-0.1194049   0.44263104  0.36018642],1,1,1,0.31303885,0,0,0,0.292186433,0.306939085,0.068630908,0.375569993,0.238308177,nan,nan,nan,[ nan  nan  nan],nan,nan,nan,342.8057055,613.9584059,614.2714447,nan,nan
0,227,17:38:39:981000,6,1,508,357.1875,[ 0.81419982  0.22863893 -1.        ],1,1,1,0.315220121,0,0,0,0.305035057,0.306965956,0.068480763,0.37544672,0.238485193,nan,nan,nan,[ nan  nan  nan],nan,nan,nan,342.8057055,614.9001946,615.2154148,nan,nan
0,228,17:38:40:917000,6,1,106,74.53125,[ 1.         -0.28763007 -0.39056445],1,1,1,0.309414991,0,0,0,0.312557987,0.307002159,0.068332598,0.375334757,0.23866956,nan,nan,nan,[ nan  nan  nan],nan,nan,nan,342.8057055,615.8419882,616.1514032,nan,nan
0,229,17:38:41:868000,6,1,507,356.484375,[ 0.80599565  0.23268835 -1.        ],1,1,1,0.271593263,0,0,0,0.298742792,0.307012695,0.068183423,0.375196118,0.238829272,nan,nan,nan,[ nan  nan  nan],nan,nan,nan,342.8057055,616.7837838,617.0553771,nan,nan
0,230,17:38:42:804000,6,1,31,21.796875,[ 1.          0.06685157 -1.        ],1,1,1,0.265780435,0,0,0,0.282262897,0.306858698,0.068074937,0.374933634,0.238783761,nan,nan,nan,[ nan  nan  nan],nan,nan,nan,342.8057055,617.7255769,617.9913573,nan,nan
0,231,17:38:43:756000,6,1,135,94.921875,[ 1.         -0.30350232 -0.08497887],1,1,1,0.339973036,0,0,0,0.292448911,0.30668087,0.067980944,0.374661814,0.238699925,nan,nan,nan,[ nan  nan  nan],nan,nan,nan,342.8057055,618.667369,619.0073421,nan,nan
0,232,17:38:44:692000,6,1,303,213.046875,[ 0.01913493  0.40252284  0.51201836],1,1,1,0.278159886,0,0,0,0.294637786,0.30682437,0.067869329,0.374693699,0.238955042,nan,nan,nan,[ nan  nan  nan],nan,nan,nan,342.8057055,619.6091652,619.8873251,nan,nan
0,233,17:38:45:628000,6,1,366,257.34375,[-0.15559338  0.47730203 -0.02447665],1,1,1,0.304325452,0,0,0,0.307486125,0.306701347,0.067749448,0.374450795,0.238951898,nan,nan,nan,[ nan  nan  nan],nan,nan,nan,342.8057055,620.5509594,620.8552848,nan,nan
0,234,17:38:46:580000,6,1,411,288.984375,[ 0.05552017  0.46302271 -0.55705476],1,1,1,0.298549687,0,0,0,0.293678342,0.306691193,0.067604707,0.3742959,0.239086486,nan,nan,nan,[ nan  nan  nan],nan,nan,nan,342.8057055,621.4927253,621.791275,nan,nan
0,235,17:38:47:516000,6,1,117,82.265625,[ 1.         -0.30758797 -0.27188654],1,1,1,0.340693474,0,0,0,0.314522871,0.306656549,0.067462796,0.374119344,0.239193753,nan,nan,nan,[ nan  nan  nan],nan,nan,nan,342.8057055,622.4345503,622.7752438,nan,nan
0,236,17:38:48:452000,6,1,442,310.78125,[ 0.27390726  0.42109554 -1.        ],1,1,1,0.294887055,0,0,0,0.311376738,0.306800773,0.06735601,0.374156783,0.239444763,nan,nan,nan,[ nan  nan  nan],nan,nan,nan,342.8057055,623.3763339,623.671221,nan,nan
0,237,17:38:49:403000,6,1,92,64.6875,[ 1.         -0.24170366 -0.55060884],1,1,1,0.337059922,0,0,0,0.324213484,0.306750504,0.067218195,0.373968699,0.239532309,nan,nan,nan,[ nan  nan  nan],nan,nan,nan,342.8057055,624.3181409,624.6552009,nan,nan
0,238,17:38:50:339000,6,1,34,23.90625,[ 1.          0.05144197 -1.        ],1,1,1,0.291257209,0,0,0,0.307734729,0.306877855,0.067105477,0.373983331,0.239772378,nan,nan,nan,[ nan  nan  nan],nan,nan,nan,342.8057055,625.2599234,625.5511806,nan,nan
0,239,17:38:51:291000,6,0,480,337.5,[ 0.58092807  0.32870764 -1.        ],0,1,0,0.237452129,0,0,0,0.288589753,0.306812496,0.066972532,0.373785028,0.239839964,nan,nan,nan,[ nan  nan  nan],nan,nan,nan,342.8057055,626.2017107,626.4391629,nan,nan
0,240,17:38:52:227000,6,1,61,42.890625,[ 1.        -0.0921164 -1.       ],1,1,1,0.271608944,0,0,0,0.266772761,0.306523495,0.066982034,0.373505529,0.23954146,nan,nan,nan,[ nan  nan  nan],nan,nan,nan,342.8057055,627.1435286,627.4151375,nan,nan
0,241,17:38:53:163000,6,1,207,145.546875,[ 0.98565351  0.01954319  0.51699622],1,1,1,0.36983402,0,0,0,0.292965031,0.306378621,0.066880592,0.373259213,0.239498029,nan,nan,nan,[ nan  nan  nan],nan,nan,nan,342.8057055,628.0852874,628.4551214,nan,nan
0,242,17:38:54:114000,6,0,258,181.40625,[ 0.45964229  0.26499291  0.65549006],0,0,1,0.412004606,0,0,0,0.35114919,0.306640833,0.066866285,0.373507119,0.239774548,nan,nan,nan,[ nan  nan  nan],nan,nan,nan,342.8057055,629.0270961,629.4391007,nan,nan
0,243,17:38:55:050000,6,1,204,143.4375,[ 1.          0.00303257  0.49965442],1,1,1,0.270215963,0,0,0,0.350684863,0.307074429,0.067068605,0.374143034,0.240005824,nan,nan,nan,[ nan  nan  nan],nan,nan,nan,342.8057055,629.9688495,630.2390655,nan,nan
0,244,17:38:55:986000,6,1,135,94.921875,[ 1.         -0.30350232 -0.08497887],1,1,1,0.320374092,0,0,0,0.33419822,0.30692337,0.066972439,0.373895809,0.239950931,nan,nan,nan,[ nan  nan  nan],nan,nan,nan,342.8057055,630.9106768,631.2310509,nan,nan
0,245,17:38:56:938000,6,1,375,263.671875,[-0.1285567   0.47868243 -0.12160516],1,1,1,0.298557384,0,0,0,0.29638248,0.306978271,0.066841122,0.373819393,0.240137149,nan,nan,nan,[ nan  nan  nan],nan,nan,nan,342.8057055,631.8524704,632.1510278,nan,nan
0,246,17:38:57:874000,6,1,143,100.546875,[ 1.         -0.28705753 -0.00469999],1,1,1,0.308765257,0,0,0,0.309232244,0.30694404,0.06670728,0.373651319,0.24023676,nan,nan,nan,[ nan  nan  nan],nan,nan,nan,342.8057055,632.7942474,633.1030127,nan,nan
0,247,17:38:58:826000,6,0,242,170.15625,[ 0.63291185  0.19716118  0.6459214 ],0,0,1,0.470910914,0,0,0,0.359411185,0.306951413,0.066572208,0.373523621,0.240379205,nan,nan,nan,[ nan  nan  nan],nan,nan,nan,342.8057055,633.7360576,634.2069685,nan,nan
0,248,17:38:59:762000,6,1,431,303.046875,[ 0.19195726  0.43918129 -0.98229877],1,1,1,0.329122841,0,0,0,0.369599671,0.30761254,0.067245442,0.374857982,0.240367098,nan,nan,nan,[ nan  nan  nan],nan,nan,nan,342.8057055,634.6778469,635.0069697,nan,nan
0,249,17:39:00:698000,6,1,335,235.546875,[-0.15559599  0.45562772  0.27689323],1,1,1,0.33930534,0,0,0,0.379779699,0.307698927,0.067124063,0.374822989,0.240574864,nan,nan,nan,[ nan  nan  nan],nan,nan,nan,342.8057055,635.6196417,635.958947,nan,nan
0,250,17:39:01:649000,6,1,424,298.125,[ 0.14217456  0.44881957 -0.77022942],1,1,1,0.221487022,0,0,0,0.296638401,0.307825352,0.067019379,0.374844731,0.240805974,nan,nan,nan,[ nan  nan  nan],nan,nan,nan,342.8057055,636.561435,636.782922,nan,nan
0,251,17:39:02:585000,6,1,231,162.421875,[ 0.74960968  0.14515127  0.62082146],1,1,1,0.255672917,0,0,0,0.272155093,0.307481375,0.0671065,0.374587875,0.240374874,nan,nan,nan,[ nan  nan  nan],nan,nan,nan,342.8057055,637.5032263,637.7588992,nan,nan
0,252,17:39:03:521000,6,1,77,54.140625,[ 1.         -0.17459302 -0.75626719],1,1,1,0.281858725,0,0,0,0.253006221,0.307275786,0.067052377,0.374328163,0.240223409,nan,nan,nan,[ nan  nan  nan],nan,nan,nan,342.8057055,638.4450168,638.7268755,nan,nan
0,253,17:39:04:473000,6,1,272,191.25,[ 0.3101667   0.31621412  0.63728143],1,1,1,0.260046009,0,0,0,0.265859217,0.307175323,0.066938731,0.374114055,0.240236592,nan,nan,nan,[ nan  nan  nan],nan,nan,nan,342.8057055,639.3868138,639.6468598,nan,nan
0,254,17:39:05:409000,6,0,175,123.046875,[ 1.         -0.15562995  0.29036176],0,0,1,0.566229433,0,0,0,0.369378056,0.306989775,0.066871991,0.373861766,0.240117784,nan,nan,nan,[ nan  nan  nan],nan,nan,nan,342.8057055,640.3286085,640.894838,nan,nan
0,255,17:39:06:360000,6,1,433,304.453125,[ 0.2065363   0.43616372 -1.        ],1,1,1,0.416418752,0,0,0,0.414231398,0.308006401,0.068679275,0.376685675,0.239327126,nan,nan,nan,[ nan  nan  nan],nan,nan,nan,342.8057055,641.2703956,641.6868143,nan,nan
0,256,17:39:07:296000,6,1,378,265.78125,[-0.11745014  0.47867092 -0.15481012],1,1,1,0.386615927,0,0,0,0.456421371,0.308429886,0.068877785,0.377307672,0.239552101,nan,nan,nan,[ nan  nan  nan],nan,nan,nan,342.8057055,642.2121855,642.5988014,nan,nan
0,257,17:39:08:232000,6,1,203,142.734375,[ 1.         -0.00249325  0.49367467],1,1,1,0.404781977,0,0,1,0.402605552,0.308734112,0.068915769,0.377649882,0.239818343,nan,nan,nan,[ nan  nan  nan],nan,nan,nan,342.8057055,643.1539879,643.5587699,nan,nan
0,258,17:39:14:270000,6,1,344,241.875,[-0.17254346  0.46473023  0.19550382],1,1,1,0.382960423,1,0,0,0.391452776,0.309106391,0.069040515,0.378146906,0.240065875,nan,-137.3215306,323,[-0.11001989  0.43965345  0.37585536],nan,-14.55346941,3.034077843,342.8057055,644.0957812,644.4787417,645.9292918,648.9713894
0,259,17:39:15:221000,6,1,196,137.8125,[ 1.         -0.04136108  0.44913076],1,1,1,0.388654651,0,0,0,0.39213235,0.309391542,0.069059157,0.378450698,0.240332385,nan,nan,nan,[ nan  nan  nan],nan,nan,nan,342.8057055,650.1299172,650.5185719,nan,nan
0,260,17:39:16:157000,6,1,447,314.296875,[ 0.31246764  0.41164647 -1.        ],1,1,1,0.310878105,0,0,0,0.360831059,0.3096964,0.069100617,0.378797017,0.240595783,nan,nan,nan,[ nan  nan  nan],nan,nan,nan,342.8057055,651.0717091,651.3825872,nan,nan
0,261,17:39:17:093000,6,1,272,191.25,[ 0.3101667   0.31621412  0.63728143],1,1,1,0.297025562,0,0,0,0.332186106,0.309700927,0.068968152,0.378669079,0.240732775,nan,nan,nan,[ nan  nan  nan],nan,nan,nan,342.8057055,652.013507,652.3105326,nan,nan
0,262,17:39:18:045000,6,1,28,19.6875,[ 1.          0.08206613 -1.        ],1,1,1,0.275239645,0,0,0,0.294381104,0.309652548,0.068840845,0.378493393,0.240811703,nan,nan,nan,[ nan  nan  nan],nan,nan,nan,342.8057055,652.9553003,653.23054,nan,nan
0,263,17:39:18:981000,6,1,169,118.828125,[ 1.         -0.18591738  0.2391183 ],1,1,1,0.293416813,0,0,0,0.288560673,0.3095217,0.068742479,0.378264179,0.240779222,nan,nan,nan,[ nan  nan  nan],nan,nan,nan,342.8057055,653.8970968,654.1905136,nan,nan
0,264,17:39:19:917000,6,1,35,24.609375,[ 1.          0.04626536 -1.        ],1,1,1,0.327606985,0,0,0,0.298754481,0.309460697,0.068619293,0.37807999,0.240841404,nan,nan,nan,[ nan  nan  nan],nan,nan,nan,342.8057055,654.8388841,655.1664911,nan,nan
0,265,17:39:20:868000,6,1,417,293.203125,[ 0.0945046   0.45705356 -0.6457202 ],1,1,1,0.313820299,0,0,0,0.311614699,0.309529174,0.068498737,0.37802791,0.241030437,nan,nan,nan,[ nan  nan  nan],nan,nan,nan,342.8057055,655.7806592,656.0944795,nan,nan
0,266,17:39:21:804000,6,1,65,45.703125,[ 1.         -0.11331216 -1.        ],1,1,1,0.387981538,0,0,0,0.343136274,0.309545306,0.068370363,0.377915669,0.241174943,nan,nan,nan,[ nan  nan  nan],nan,nan,nan,342.8057055,656.722469,657.1104506,nan,nan
0,267,17:39:22:740000,6,1,203,142.734375,[ 1.         -0.00249325  0.49367467],1,1,1,0.398152633,0,0,0,0.36665149,0.309839074,0.068410195,0.37824927,0.241428879,nan,nan,nan,[ nan  nan  nan],nan,nan,nan,342.8057055,657.6642689,658.0624215,nan,nan
0,268,17:39:23:692000,6,1,126,88.59375,[ 1.         -0.31141175 -0.17740843],1,1,1,0.37636301,0,0,1,0.38749906,0.310168603,0.068494419,0.378663022,0.241674183,nan,nan,nan,[ nan  nan  nan],nan,nan,nan,342.8057055,658.6060542,658.9824173,nan,nan
0,269,17:39:31:788000,6,1,191,134.296875,[ 1.         -0.06914798  0.41457165],1,1,1,0.370535927,1,0,0,0.381683857,0.310414678,0.06848557,0.378900249,0.241929108,nan,-35.40686574,178,[ 1.         -0.13991966  0.31509783],nan,-8.890009263,5.117753886,342.8057055,659.5478467,659.9183826,661.3730587,666.4987483
0,270,17:39:32:724000,6,1,54,37.96875,[ 1.         -0.05462921 -1.        ],1,1,1,0.341593808,0,0,0,0.362830915,0.31063735,0.068456115,0.379093464,0.242181235,nan,nan,nan,[ nan  nan  nan],nan,nan,nan,342.8057055,667.6406054,667.9821992,nan,nan
0,271,17:39:33:660000,6,1,260,182.8125,[ 0.43801664  0.27278198  0.65440657],1,1,1,0.327760366,0,0,0,0.346630034,0.31075158,0.068355471,0.379107051,0.24239611,nan,nan,nan,[ nan  nan  nan],nan,nan,nan,342.8057055,668.5823867,668.9101471,nan,nan
0,272,17:39:34:612000,6,1,373,262.265625,[-0.13540771  0.47855957 -0.09969749],1,1,1,0.297939581,0,0,0,0.322431252,0.310814113,0.068237467,0.379051579,0.242576646,nan,nan,nan,[ nan  nan  nan],nan,nan,nan,342.8057055,669.5241871,669.8221267,nan,nan
0,273,17:39:35:548000,6,1,231,162.421875,[ 0.74960968  0.14515127  0.62082146],1,1,1,0.380159067,0,0,0,0.335286338,0.310766953,0.068116815,0.378883769,0.242650138,nan,nan,nan,[ nan  nan  nan],nan,nan,nan,342.8057055,670.4659799,670.846139,nan,nan
0,274,17:39:36:484000,6,1,139,97.734375,[ 1.         -0.29633561 -0.04459929],1,1,1,0.366335603,0,0,0,0.34814475,0.311020209,0.068121042,0.379141251,0.242899166,nan,nan,nan,[ nan  nan  nan],nan,nan,nan,342.8057055,671.4077715,671.7741071,nan,nan
0,275,17:39:37:436000,6,1,435,305.859375,[ 0.22126383  0.43302706 -1.        ],1,1,1,0.336512822,0,0,0,0.361002497,0.311221356,0.068078543,0.379299899,0.243142813,nan,nan,nan,[ nan  nan  nan],nan,nan,nan,342.8057055,672.3495808,672.6860936,nan,nan
0,276,17:39:38:372000,6,1,192,135,[ 1.         -0.06359976  0.42165841],1,1,1,0.298712192,0,0,0,0.333853539,0.311312992,0.067972089,0.379285081,0.243340903,nan,nan,nan,[ nan  nan  nan],nan,nan,nan,342.8057055,673.2913681,673.5900803,nan,nan
0,277,17:39:39:323000,6,1,72,50.625,[ 1.         -0.14960778 -0.85320374],1,1,1,0.324887736,0,0,0,0.320037583,0.311267501,0.067853494,0.379120995,0.243414008,nan,nan,nan,[ nan  nan  nan],nan,nan,nan,342.8057055,674.233154,674.5580418,nan,nan
0,278,17:39:40:259000,6,1,267,187.734375,[ 0.36292453  0.29880723  0.64662252],1,1,1,0.319076334,0,0,0,0.31422542,0.311316495,0.067736253,0.379052748,0.243580242,nan,nan,nan,[ nan  nan  nan],nan,nan,nan,342.8057055,675.1749394,675.4940157,nan,nan
0,279,17:39:41:195000,6,0,28,19.6875,[ 1.          0.08206613 -1.        ],0,0,1,0.465273135,0,0,0,0.369745735,0.311344308,0.067616343,0.378960651,0.243727965,nan,nan,nan,[ nan  nan  nan],nan,nan,nan,342.8057055,676.116731,676.5820041,nan,nan
0,280,17:39:42:147000,6,1,407,286.171875,[ 0.03058863  0.46645515 -0.50257741],1,1,1,0.34744769,0,0,0,0.37726572,0.311894054,0.068117259,0.380011313,0.243776795,nan,nan,nan,[ nan  nan  nan],nan,nan,nan,342.8057055,677.0585297,677.4059774,nan,nan
0,281,17:39:43:083000,6,1,251,176.484375,[ 0.53557652  0.23650919  0.65528415],1,1,1,0.309636226,0,0,0,0.374119017,0.312020579,0.068028899,0.380049478,0.243991681,nan,nan,nan,[ nan  nan  nan],nan,nan,nan,342.8057055,678.0003204,678.3099567,nan,nan
0,282,17:39:44:019000,6,1,299,210.234375,[ 0.05166456  0.39341767  0.53437875],1,1,1,0.319825282,0,0,0,0.325636399,0.312012124,0.067908321,0.379920445,0.244103803,nan,nan,nan,[ nan  nan  nan],nan,nan,nan,342.8057055,678.9421155,679.2619408,nan,nan
0,283,17:39:44:970000,6,1,148,104.0625,[ 1.         -0.27269559  0.04442646],1,1,1,0.298008004,0,0,0,0.309156504,0.312039732,0.067789821,0.379829553,0.244249912,nan,nan,nan,[ nan  nan  nan],nan,nan,nan,342.8057055,679.8839116,680.1819197,nan,nan
0,284,17:39:45:906000,6,1,2,1.40625,[ 0.86302458  0.20362286 -1.        ],1,1,1,0.300190131,0,0,0,0.306007805,0.311990325,0.067675471,0.379665796,0.244314854,nan,nan,nan,[ nan  nan  nan],nan,nan,nan,342.8057055,680.8256978,681.125888,nan,nan
0,285,17:39:46:858000,6,1,220,154.6875,[ 0.86173155  0.08932726  0.58124768],1,1,1,0.262392636,0,0,0,0.28686359,0.311948921,0.067560241,0.379509162,0.244388679,nan,nan,nan,[ nan  nan  nan],nan,nan,nan,342.8057055,681.7674903,682.0298829,nan,nan
0,286,17:39:47:794000,6,1,478,336.09375,[ 0.5642225   0.33479366 -1.        ],1,1,1,0.296569693,0,0,0,0.286384153,0.311775647,0.067505434,0.379281081,0.244270213,nan,nan,nan,[ nan  nan  nan],nan,nan,nan,342.8057055,682.7092879,683.0058576,nan,nan
0,287,17:39:48:730000,6,1,190,133.59375,[ 1.         -0.07468844  0.40739964],1,1,1,0.28276134,0,0,0,0.280574556,0.311722665,0.067393683,0.379116347,0.244328982,nan,nan,nan,[ nan  nan  nan],nan,nan,nan,342.8057055,683.6510835,683.9338448,nan,nan
0,288,17:39:49:682000,6,1,258,181.40625,[ 0.45964229  0.26499291  0.65549006],1,1,1,0.284942326,0,0,0,0.28809112,0.311622104,0.067298144,0.378920248,0.244323961,nan,nan,nan,[ nan  nan  nan],nan,nan,nan,342.8057055,684.5928768,684.8778191,nan,nan
0,289,17:39:50:618000,6,1,357,251.015625,[-0.17179183  0.47376752  0.06873903],1,1,1,0.319119098,0,0,0,0.295607588,0.311529787,0.067199875,0.378729662,0.244329912,nan,nan,nan,[ nan  nan  nan],nan,nan,nan,342.8057055,685.5346602,685.8537793,nan,nan
0,290,17:39:51:554000,6,1,259,182.109375,[ 0.44882283  0.26890698  0.65501178],1,1,1,0.35328076,0,0,0,0.319114061,0.311555957,0.067085389,0.378641346,0.244470568,nan,nan,nan,[ nan  nan  nan],nan,nan,nan,342.8057055,686.4764543,686.8297351,nan,nan
0,291,17:39:52:505000,6,1,469,329.765625,[ 0.4894822   0.36045336 -1.        ],1,1,1,0.315443637,0,0,0,0.329281165,0.311699341,0.067014521,0.378713862,0.24468482,nan,nan,nan,[ nan  nan  nan],nan,nan,nan,342.8057055,687.4182676,687.7337112,nan,nan
0,292,17:39:53:441000,6,1,231,162.421875,[ 0.74960968  0.14515127  0.62082146],1,1,1,0.325671751,0,0,0,0.331465383,0.311712164,0.066900029,0.378612193,0.244812135,nan,nan,nan,[ nan  nan  nan],nan,nan,nan,342.8057055,688.3600435,688.6857153,nan,nan
0,293,17:39:54:393000,6,1,284,199.6875,[ 0.18846515  0.3539841   0.60223628],1,1,1,0.351867252,0,0,0,0.330994213,0.311759808,0.06679073,0.378550538,0.244969078,nan,nan,nan,[ nan  nan  nan],nan,nan,nan,342.8057055,689.3018374,689.6537047,nan,nan
0,294,17:39:55:329000,6,1,166,116.71875,[ 1.         -0.20036215  0.21267421],1,1,1,0.338058329,0,0,0,0.338532444,0.311896228,0.066717921,0.378614148,0.245178307,nan,nan,nan,[ nan  nan  nan],nan,nan,nan,342.8057055,690.2436139,690.5816722,nan,nan
0,295,17:39:56:265000,6,0,258,181.40625,[ 0.45964229  0.26499291  0.65549006],0,1,0,0.324224602,0,0,0,0.338050061,0.311984913,0.0666221,0.378607013,0.245362813,nan,nan,nan,[ nan  nan  nan],nan,nan,nan,342.8057055,691.1854223,691.5096469,nan,nan
0,296,17:39:57:216000,6,1,418,293.90625,[ 0.10117589  0.45596175 -0.66167931],1,1,1,0.310414538,0,0,0,0.32423249,0.312026263,0.066513259,0.378539522,0.245513004,nan,nan,nan,[ nan  nan  nan],nan,nan,nan,342.8057055,692.1272128,692.4376273,nan,nan
0,297,17:39:58:152000,6,1,369,259.453125,[-0.14769469  0.47799919 -0.05643387],1,1,1,0.320614998,0,0,0,0.318418046,0.312020836,0.066401255,0.378422092,0.245619581,nan,nan,nan,[ nan  nan  nan],nan,nan,nan,342.8057055,693.0690027,693.3896177,nan,nan
0,298,17:39:59:088000,6,1,266,187.03125,[ 0.37357759  0.29520749  0.64811377],1,1,1,0.370815036,0,0,0,0.333948191,0.312049676,0.066291613,0.378341289,0.245758062,nan,nan,nan,[ nan  nan  nan],nan,nan,nan,342.8057055,694.0107749,694.38159,nan,nan
0,299,17:40:00:040000,6,1,66,46.40625,[ 1.         -0.11856871 -1.        ],1,1,1,0.428957001,0,0,0,0.373462345,0.312246215,0.066267575,0.378513791,0.24597864,nan,nan,nan,[ nan  nan  nan],nan,nan,nan,342.8057055,694.952607,695.381564,nan,nan
0,300,17:40:00:976000,6,1,303,213.046875,[ 0.01913493  0.40252284  0.51201836],1,1,1,0.343157276,0,0,1,0.380976438,0.312635251,0.066498172,0.379133423,0.246137079,nan,nan,nan,[ nan  nan  nan],nan,nan,nan,342.8057055,695.8943835,696.2375408,nan,nan
0,301,17:40:06:296000,6,1,223,156.796875,[ 0.83172397  0.10489059  0.59343224],1,1,1,0.289355902,1,0,0,0.353823393,0.312736653,0.066410847,0.3791475,0.246325807,nan,-81.94817052,245,[ 0.6005777   0.21061011  0.65017283],nan,15.15129552,2.31724459,342.8057055,696.8361797,697.1255356,698.6697177,700.9950048
0,302,17:40:07:232000,6,0,342,240.46875,[-0.17005262  0.46291356  0.21407524],0,0,1,0.523832196,0,0,0,0.385448458,0.312659234,0.066314408,0.378973642,0.246344826,nan,nan,nan,[ nan  nan  nan],nan,nan,nan,342.8057055,702.1535563,702.6773885,nan,nan
0,303,17:40:08:183000,6,1,239,168.046875,[ 0.66506983  0.18338886  0.64054927],1,1,1,0.34204483,0,0,0,0.385077643,0.313356174,0.067303614,0.380659788,0.24605256,nan,nan,nan,[ nan  nan  nan],nan,nan,nan,342.8057055,703.0953442,703.437389,nan,nan
0,304,17:40:09:119000,6,1,168,118.125,[ 1.         -0.19079002  0.2303618 ],1,1,1,0.344222681,0,0,0,0.403366569,0.313450545,0.067212903,0.380663448,0.246237642,nan,nan,nan,[ nan  nan  nan],nan,nan,nan,342.8057055,704.0371426,704.3813653,nan,nan
0,305,17:40:10:055000,6,1,86,60.46875,[ 1.         -0.21659106 -0.6256178 ],1,1,1,0.314406171,0,0,0,0.333557894,0.313551437,0.067125681,0.380677118,0.246425756,nan,nan,nan,[ nan  nan  nan],nan,nan,nan,342.8057055,704.9789325,705.2933387,nan,nan
0,306,17:40:11:007000,6,1,282,198.28125,[ 0.20814231  0.34807905  0.6092955 ],1,1,1,0.276580168,0,0,0,0.31173634,0.31355423,0.067015927,0.380570157,0.246538303,nan,nan,nan,[ nan  nan  nan],nan,nan,nan,342.8057055,705.920731,706.1973111,nan,nan
0,307,17:40:11:943000,6,1,155,108.984375,[ 1.         -0.24798314  0.11161188],1,1,1,0.302773673,0,0,0,0.297920004,0.313433794,0.066939853,0.380373646,0.246493941,nan,nan,nan,[ nan  nan  nan],nan,nan,nan,342.8057055,706.8625192,707.1652928,nan,nan
0,308,17:40:12:894000,6,1,9,6.328125,[ 0.91893356  0.17291669 -1.        ],1,1,1,0.280949838,0,0,0,0.286767893,0.313399183,0.066833847,0.38023303,0.246565336,nan,nan,nan,[ nan  nan  nan],nan,nan,nan,342.8057055,707.8043245,708.0852743,nan,nan
0,309,17:40:13:830000,6,1,417,293.203125,[ 0.0945046   0.45705356 -0.6457202 ],1,1,1,0.307157884,0,0,0,0.296960465,0.313294169,0.066751061,0.38004523,0.246543108,nan,nan,nan,[ nan  nan  nan],nan,nan,nan,342.8057055,708.7460941,709.053252,nan,nan
0,310,17:40:14:766000,6,1,174,122.34375,[ 1.         -0.16079069  0.28198128],1,1,1,0.357321144,0,0,0,0.315142955,0.313274374,0.06664422,0.379918594,0.246630155,nan,nan,nan,[ nan  nan  nan],nan,nan,nan,342.8057055,709.6878991,710.0452203,nan,nan
0,311,17:40:15:718000,6,1,221,155.390625,[ 0.85178146  0.09454116  0.58542294],1,1,1,0.335503581,0,0,0,0.333327536,0.313416004,0.0665837,0.379999703,0.246832304,nan,nan,nan,[ nan  nan  nan],nan,nan,nan,342.8057055,710.6296916,710.9651952,nan,nan
0,312,17:40:16:654000,6,1,34,23.90625,[ 1.          0.05144197 -1.        ],1,1,1,0.337704525,0,0,0,0.34350975,0.313486797,0.066488632,0.379975429,0.246998166,nan,nan,nan,[ nan  nan  nan],nan,nan,nan,342.8057055,711.5714801,711.9091846,nan,nan
0,313,17:40:17:590000,6,1,249,175.078125,[ 0.55727555  0.22802627  0.65408488],1,1,1,0.31588354,0,0,0,0.329697215,0.31356417,0.066396402,0.379960572,0.247167768,nan,nan,nan,[ nan  nan  nan],nan,nan,nan,342.8057055,712.5132825,712.829166,nan,nan
0,314,17:40:18:542000,6,1,93,65.390625,[ 1.         -0.2456143  -0.53861988],1,1,1,0.422069645,0,0,0,0.35855257,0.313571557,0.06629072,0.379862276,0.247280837,nan,nan,nan,[ nan  nan  nan],nan,nan,nan,342.8057055,713.4550661,713.8771358,nan,nan
0,315,17:40:19:478000,6,1,172,120.9375,[ 1.         -0.17098406  0.26502468],1,1,1,0.344213558,0,0,0,0.360722248,0.313915995,0.06646624,0.380382235,0.247449755,nan,nan,nan,[ nan  nan  nan],nan,nan,nan,342.8057055,714.3968626,714.7410761,nan,nan
0,316,17:40:20:429000,6,1,453,318.515625,[ 0.35967042  0.39926175 -1.        ],1,1,1,0.402408265,0,0,1,0.389563823,0.314011873,0.066382803,0.380394677,0.24762907,nan,nan,nan,[ nan  nan  nan],nan,nan,nan,342.8057055,715.3386528,715.741061,nan,nan
0,317,17:40:25:733000,6,1,16,11.25,[ 0.97341943  0.14065211 -1.        ],1,1,1,0.428604622,1,0,0,0.391742148,0.314290726,0.066463127,0.380753853,0.2478276,nan,60.32410817,42,[ 1.          0.00954879 -1.        ],nan,18.42589183,2.325725919,342.8057055,716.2804461,716.7090507,718.1056404,720.4393046
0,318,17:40:26:669000,6,1,366,257.34375,[-0.15559338  0.47730203 -0.02447665],1,1,1,0.399389381,0,0,0,0.410134089,0.314650204,0.066666485,0.381316689,0.247983719,nan,nan,nan,[ nan  nan  nan],nan,nan,nan,342.8057055,721.589556,721.9889454,nan,nan
0,319,17:40:27:621000,6,1,443,311.484375,[ 0.28155878  0.41926821 -1.        ],1,1,1,0.345652439,0,0,0,0.39121548,0.314915844,0.066730259,0.381646103,0.248185585,nan,nan,nan,[ nan  nan  nan],nan,nan,nan,342.8057055,722.5312883,722.8769408,nan,nan
0,320,17:40:28:557000,6,1,357,251.015625,[-0.17179183  0.47376752  0.06873903],1,1,1,0.331848932,0,0,0,0.358963584,0.315011896,0.066647994,0.38165989,0.248363902,nan,nan,nan,[ nan  nan  nan],nan,nan,nan,342.8057055,723.4730794,723.8049283,nan,nan
0,321,17:40:29:493000,6,1,31,21.796875,[ 1.          0.06685157 -1.        ],1,1,1,0.302005909,0,0,0,0.326502426,0.315064348,0.066550715,0.381615063,0.248513633,nan,nan,nan,[ nan  nan  nan],nan,nan,nan,342.8057055,724.414875,724.7168809,nan,nan
0,322,17:40:30:445000,6,1,488,343.125,[ 0.64790771  0.30295149 -1.        ],1,1,1,0.280208303,0,0,0,0.304687715,0.315023794,0.066451267,0.381475061,0.248572527,nan,nan,nan,[ nan  nan  nan],nan,nan,nan,342.8057055,725.3566657,725.636874,nan,nan
0,323,17:40:31:381000,6,1,40,28.125,[ 1.          0.02011655 -1.        ],1,1,1,0.322380314,0,0,0,0.301531509,0.314916006,0.066376508,0.381292514,0.248539497,nan,nan,nan,[ nan  nan  nan],nan,nan,nan,342.8057055,726.2984562,726.6208365,nan,nan
0,324,17:40:32:332000,6,1,479,336.796875,[ 0.57257215  0.33176822 -1.        ],1,1,1,0.316572048,0,0,0,0.306386888,0.314939044,0.06627529,0.381214333,0.248663754,nan,nan,nan,[ nan  nan  nan],nan,nan,nan,342.8057055,727.2402555,727.5568275,nan,nan
0,325,17:40:33:268000,6,1,31,21.796875,[ 1.          0.06685157 -1.        ],1,1,1,0.286763236,0,0,0,0.308571866,0.314944068,0.066173311,0.381117379,0.248770757,nan,nan,nan,[ nan  nan  nan],nan,nan,nan,342.8057055,728.1820385,728.4688018,nan,nan
0,326,17:40:34:204000,6,1,266,187.03125,[ 0.37357759  0.29520749  0.64811377],1,1,1,0.344965357,0,0,0,0.316100214,0.314857624,0.066090116,0.38094774,0.248767508,nan,nan,nan,[ nan  nan  nan],nan,nan,nan,342.8057055,729.1238022,729.4687676,nan,nan
0,327,17:40:35:156000,6,1,360,253.125,[-0.1677095   0.47518832  0.03812586],1,1,1,0.331129919,0,0,0,0.320952837,0.314949697,0.06600992,0.380959617,0.248939777,nan,nan,nan,[ nan  nan  nan],nan,nan,nan,342.8057055,730.0656237,730.3967537,nan,nan
0,328,17:40:36:092000,6,1,81,56.953125,[ 1.         -0.19380425 -0.69421917],1,1,1,0.357340816,0,0,0,0.344478697,0.314999027,0.065915255,0.380914281,0.249083772,nan,nan,nan,[ nan  nan  nan],nan,nan,nan,342.8057055,731.0073917,731.3647325,nan,nan
0,329,17:40:37:028000,6,1,223,156.796875,[ 0.83172397  0.10489059  0.59343224],1,1,1,0.367461449,0,0,0,0.351977395,0.315127725,0.065856263,0.380983989,0.249271462,nan,nan,nan,[ nan  nan  nan],nan,nan,nan,342.8057055,731.9492497,732.3167112,nan,nan
0,330,17:40:37:979000,6,0,405,284.765625,[ 0.01846332  0.46800938 -0.47629333],0,0,1,0.489682223,0,0,0,0.404828163,0.315286312,0.065819292,0.381105604,0.24946702,nan,nan,nan,[ nan  nan  nan],nan,nan,nan,342.8057055,732.8910046,733.3806868,nan,nan
0,331,17:40:38:915000,6,1,244,171.5625,[ 0.61137236  0.20616355  0.64888072],1,1,1,0.379866558,0,0,0,0.412336743,0.315813188,0.066413089,0.382226277,0.249400099,nan,nan,nan,[ nan  nan  nan],nan,nan,nan,342.8057055,733.8327959,734.2126624,nan,nan
0,332,17:40:39:851000,6,1,141,99.140625,[ 1.         -0.29195274 -0.02458685],1,1,1,0.382058663,0,0,0,0.417202481,0.31600612,0.066405827,0.382411947,0.249600293,nan,nan,nan,[ nan  nan  nan],nan,nan,nan,342.8057055,734.7745903,735.156649,nan,nan
0,333,17:40:40:803000,6,1,243,170.859375,[ 0.62215101  0.20168048  0.64746348],1,1,1,0.360253074,0,0,0,0.374059432,0.316204476,0.066404473,0.382608949,0.249800003,nan,nan,nan,[ nan  nan  nan],nan,nan,nan,342.8057055,735.7163834,736.0766364,nan,nan
0,334,17:40:41:739000,6,1,67,47.109375,[ 1.         -0.12380467 -1.        ],1,1,1,0.362426933,0,0,0,0.368246224,0.316336358,0.066348652,0.38268501,0.249987706,nan,nan,nan,[ nan  nan  nan],nan,nan,nan,342.8057055,736.6581773,737.0206042,nan,nan
0,335,17:40:42:691000,6,1,324,227.8125,[-0.11479964  0.44115833  0.36806404],1,1,1,0.316619659,0,0,0,0.346433222,0.316473942,0.066297249,0.382771191,0.250176693,nan,nan,nan,[ nan  nan  nan],nan,nan,nan,342.8057055,737.5999711,737.9165908,nan,nan
0,336,17:40:43:627000,6,1,45,31.640625,[ 1.         -0.00639576 -1.        ],1,1,1,0.414775457,0,0,0,0.36460735,0.316474375,0.066198519,0.382672895,0.250275856,nan,nan,nan,[ nan  nan  nan],nan,nan,nan,342.8057055,738.5417901,738.9565656,nan,nan
0,337,17:40:44:563000,6,1,438,307.96875,[ 0.24362256  0.42809644 -1.        ],1,1,1,0.352976277,0,0,0,0.361457131,0.31676607,0.06631613,0.3830822,0.25044994,nan,nan,nan,[ nan  nan  nan],nan,nan,nan,342.8057055,739.4835544,739.8365306,nan,nan
0,338,17:40:45:514000,6,1,107,75.234375,[ 1.         -0.29008977 -0.37959278],1,1,1,0.283167887,0,0,0,0.35030654,0.316873201,0.066247155,0.383120356,0.250626046,nan,nan,nan,[ nan  nan  nan],nan,nan,nan,342.8057055,740.4253454,740.7085133,nan,nan
0,339,17:40:46:450000,6,1,291,204.609375,[ 0.12202764  0.37344194  0.57379193],1,1,1,0.301361591,0,0,0,0.312501918,0.316773775,0.066174624,0.382948399,0.250599151,nan,nan,nan,[ nan  nan  nan],nan,nan,nan,342.8057055,741.3671367,741.6684983,nan,nan
0,340,17:40:47:386000,6,1,74,52.03125,[ 1.         -0.15971516 -0.81044328],1,1,1,0.359520947,0,0,0,0.314683475,0.316728445,0.066082507,0.382810952,0.250645938,nan,nan,nan,[ nan  nan  nan],nan,nan,nan,342.8057055,742.3089366,742.6684575,nan,nan
0,341,17:40:48:338000,6,1,359,252.421875,[-0.16922234  0.47474188  0.0483828 ],1,1,1,0.305718148,0,0,0,0.322200229,0.316853936,0.066026101,0.382880037,0.250827836,nan,nan,nan,[ nan  nan  nan],nan,nan,nan,342.8057055,743.2507248,743.5564429,nan,nan
0,342,17:40:49:274000,6,1,411,288.984375,[ 0.05552017  0.46302271 -0.55705476],1,1,1,0.283909138,0,0,0,0.316382744,0.316821375,0.065932242,0.382753618,0.250889133,nan,nan,nan,[ nan  nan  nan],nan,nan,nan,342.8057055,744.1925175,744.4764267,nan,nan
0,343,17:40:50:225000,6,1,312,219.375,[-0.04644836  0.4209252   0.45557321],1,1,1,0.302092578,0,0,0,0.297239954,0.316725421,0.065859971,0.382585392,0.250865451,nan,nan,nan,[ nan  nan  nan],nan,nan,nan,342.8057055,745.1343109,745.4364034,nan,nan
0,344,17:40:51:161000,6,1,442,310.78125,[ 0.27390726  0.42109554 -1.        ],1,1,1,0.272300872,0,0,0,0.286100863,0.316682884,0.065768893,0.382451777,0.250913991,nan,nan,nan,[ nan  nan  nan],nan,nan,nan,342.8057055,746.0760996,746.3484005,nan,nan
0,345,17:40:52:097000,6,1,137,96.328125,[ 1.         -0.30019022 -0.06473166],1,1,1,0.274471025,0,0,0,0.282954825,0.316554241,0.065716835,0.382271075,0.250837406,nan,nan,nan,[ nan  nan  nan],nan,nan,nan,342.8057055,747.0178972,747.2923682,nan,nan
0,346,17:40:53:049000,6,0,462,324.84375,[ 0.43208968  0.37848636 -1.        ],0,0,1,0.428662496,0,0,0,0.325144798,0.316432613,0.065660675,0.382093288,0.250771938,nan,nan,nan,[ nan  nan  nan],nan,nan,nan,342.8057055,747.959686,748.3883485,nan,nan
0,347,17:40:53:985000,6,1,240,168.75,[ 0.65437302  0.18801506  0.64246395],1,1,1,0.302842096,0,0,0,0.335325206,0.316756042,0.065841427,0.382597469,0.250914615,nan,nan,nan,[ nan  nan  nan],nan,nan,nan,342.8057055,748.9014798,749.2043219,nan,nan
0,348,17:40:54:921000,6,1,334,234.84375,[-0.15279655  0.45446705  0.2855764 ],1,1,1,0.289030037,0,0,0,0.34017821,0.316716059,0.065750978,0.382467037,0.250965082,nan,nan,nan,[ nan  nan  nan],nan,nan,nan,342.8057055,749.8432703,750.1323004,nan,nan
0,349,17:40:55:873000,6,1,419,294.609375,[ 0.10789467  0.45484197 -0.67809886],1,1,1,0.307178126,0,0,0,0.29968342,0.31663673,0.065673387,0.382310116,0.250963343,nan,nan,nan,[ nan  nan  nan],nan,nan,nan,342.8057055,750.7850668,751.0922449,nan,nan
0,350,17:40:56:809000,6,0,192,135,[ 1.         -0.06359976  0.42165841],0,0,1,0.437389579,0,0,0,0.34453258,0.316609705,0.065581444,0.382191149,0.251028261,nan,nan,nan,[ nan  nan  nan],nan,nan,nan,342.8057055,751.7268598,752.1642494,nan,nan
0,351,17:40:57:760000,6,1,395,277.734375,[-0.03839842  0.47418351 -0.35142722],1,1,1,0.303582491,0,0,0,0.349383399,0.316953807,0.065803607,0.382757414,0.251150201,nan,nan,nan,[ nan  nan  nan],nan,nan,nan,342.8057055,752.6686506,752.972233,nan,nan
0,352,17:40:58:696000,6,1,154,108.28125,[ 1.         -0.25181315  0.10213817],1,1,1,0.297761681,0,0,0,0.346244584,0.316915821,0.065713923,0.382629743,0.251201898,nan,nan,nan,[ nan  nan  nan],nan,nan,nan,342.8057055,753.6104467,753.9082084,nan,nan
0,353,17:40:59:632000,6,1,38,26.71875,[ 1.          0.03062595 -1.        ],1,1,1,0.291945146,0,0,0,0.297763106,0.31686156,0.065628674,0.382490233,0.251232886,nan,nan,nan,[ nan  nan  nan],nan,nan,nan,342.8057055,754.5522406,754.8441858,nan,nan
0,354,17:41:00:584000,6,1,214,150.46875,[ 0.92024366  0.05754104  0.55385485],1,1,1,0.270142408,0,0,0,0.286616412,0.316791174,0.065549253,0.382340428,0.251241921,nan,nan,nan,[ nan  nan  nan],nan,nan,nan,342.8057055,755.4940299,755.7641724,nan,nan
0,355,17:41:01:520000,6,1,164,115.3125,[ 1.         -0.20968584  0.19476155],1,1,1,0.248328267,0,0,0,0.270138607,0.316659769,0.065503541,0.38216331,0.251156229,nan,nan,nan,[ nan  nan  nan],nan,nan,nan,342.8057055,756.4358264,756.6841547,nan,nan
0,356,17:41:02:456000,6,1,114,80.15625,[ 1.         -0.30374746 -0.30385937],1,1,1,0.298506067,0,0,0,0.272325581,0.316467827,0.065511374,0.381979201,0.250956453,nan,nan,nan,[ nan  nan  nan],nan,nan,nan,342.8057055,757.3776152,757.6761212,nan,nan
0,357,17:41:03:407000,6,1,186,130.78125,[ 1.         -0.09673867  0.37788139],1,1,1,0.260697169,0,0,0,0.269177167,0.316417514,0.065426445,0.381843958,0.250991069,nan,nan,nan,[ nan  nan  nan],nan,nan,nan,342.8057055,758.3194096,758.5801068,nan,nan
0,358,17:41:04:343000,6,1,56,39.375,[ 1.         -0.06536751 -1.        ],1,1,1,0.270884514,0,0,0,0.276695917,0.31626187,0.065401154,0.381663024,0.250860717,nan,nan,nan,[ nan  nan  nan],nan,nan,nan,342.8057055,759.2612026,759.5320872,nan,nan
0,359,17:41:05:295000,6,0,391,274.921875,[-0.0591908   0.47591628 -0.30371871],0,1,0,0.265074822,0,0,0,0.265552168,0.316135471,0.065353776,0.381489247,0.250781695,nan,nan,nan,[ nan  nan  nan],nan,nan,nan,342.8057055,760.202994,760.4680688,nan,nan
0,360,17:41:06:231000,6,1,461,324.140625,[ 0.42395965  0.38092737 -1.        ],1,1,1,0.25925002,0,0,0,0.265069785,0.315993636,0.065318251,0.381311887,0.250675385,nan,nan,nan,[ nan  nan  nan],nan,nan,nan,342.8057055,761.1447839,761.4040339,nan,nan
0,361,17:41:07:167000,6,1,247,173.671875,[ 0.57894763  0.21939267  0.65238059],1,1,1,0.333461437,0,0,0,0.28592876,0.315836451,0.065295865,0.381132316,0.250540587,nan,nan,nan,[ nan  nan  nan],nan,nan,nan,342.8057055,762.0865569,762.4200184,nan,nan
0,362,17:41:08:119000,6,1,415,291.796875,[ 0.08130773  0.45915368 -0.61496802],1,1,1,0.295618327,0,0,0,0.296109928,0.315885139,0.065212176,0.381097315,0.250672963,nan,nan,nan,[ nan  nan  nan],nan,nan,nan,342.8057055,763.0283722,763.3239905,nan,nan
0,363,17:41:09:055000,6,1,507,356.484375,[ 0.80599565  0.23268835 -1.        ],1,1,1,0.273804185,0,0,0,0.300961316,0.315829308,0.065130954,0.380960261,0.250698354,nan,nan,nan,[ nan  nan  nan],nan,nan,nan,342.8057055,763.9701687,764.2439729,nan,nan
0,364,17:41:09:991000,6,1,165,116.015625,[ 1.         -0.20505638  0.20374544],1,1,1,0.291988481,0,0,0,0.287136998,0.315713854,0.065078612,0.380792466,0.250635242,nan,nan,nan,[ nan  nan  nan],nan,nan,nan,342.8057055,764.9119571,765.2039456,nan,nan
0,365,17:41:10:942000,6,1,84,59.0625,[ 1.         -0.20765784 -0.65219109],1,1,1,0.28621243,0,0,0,0.284001699,0.315648853,0.065001234,0.380650087,0.250647619,nan,nan,nan,[ nan  nan  nan],nan,nan,nan,342.8057055,765.8537453,766.1399578,nan,nan
0,366,17:41:11:878000,6,1,178,125.15625,[ 1.         -0.13991966  0.31509783],1,1,1,0.296367845,0,0,0,0.291522919,0.315568426,0.064930557,0.380498983,0.250637869,nan,nan,nan,[ nan  nan  nan],nan,nan,nan,342.8057055,766.7955412,767.0919091,nan,nan
0,367,17:41:12:830000,6,1,329,231.328125,[-0.13605328  0.44820379  0.32783374],1,1,1,0.314535605,0,0,0,0.299038627,0.315516108,0.06484976,0.380365868,0.250666348,nan,nan,nan,[ nan  nan  nan],nan,nan,nan,342.8057055,767.737336,768.0518716,nan,nan
0,368,17:41:13:766000,6,0,88,61.875,[ 1.         -0.22525759 -0.59993285],0,1,0,0.316743391,0,0,0,0.309215614,0.315513444,0.064761609,0.380275053,0.250751835,nan,nan,nan,[ nan  nan  nan],nan,nan,nan,342.8057055,768.679129,768.9958724,nan,nan
0,369,17:41:14:702000,6,1,231,162.421875,[ 0.74960968  0.14515127  0.62082146],1,1,1,0.190927267,0,0,0,0.274068754,0.315516777,0.064673828,0.380190605,0.250842949,nan,nan,nan,[ nan  nan  nan],nan,nan,nan,342.8057055,769.6209226,769.8118499,nan,nan
0,370,17:41:15:653000,6,1,459,322.734375,[ 0.40775816  0.38570917 -1.        ],1,1,1,0.297118788,0,0,0,0.268263149,0.315180048,0.064909467,0.380089515,0.250270582,nan,nan,nan,[ nan  nan  nan],nan,nan,nan,342.8057055,770.5627054,770.8598241,nan,nan
0,371,17:41:16:589000,6,1,115,80.859375,[ 1.         -0.30516629 -0.29317275],1,1,1,0.291285148,0,0,0,0.259777068,0.315131366,0.064828692,0.379960058,0.250302673,nan,nan,nan,[ nan  nan  nan],nan,nan,nan,342.8057055,771.5045101,771.7957952,nan,nan
0,372,17:41:17:525000,6,1,404,284.0625,[ 0.01248946  0.46874627 -0.4633491 ],1,1,1,0.28541074,0,0,0,0.291271559,0.315067263,0.064753271,0.379820534,0.250313992,nan,nan,nan,[ nan  nan  nan],nan,nan,nan,342.8057055,772.4463721,772.7317828,nan,nan
0,373,17:41:18:477000,6,1,200,140.625,[ 1.         -0.01912099  0.47515178],1,1,1,0.239675024,0,0,0,0.272123637,0.314987755,0.064684592,0.379672347,0.250303163,nan,nan,nan,[ nan  nan  nan],nan,nan,nan,342.8057055,773.388091,773.627766,nan,nan
0,374,17:41:19:413000,6,1,298,209.53125,[ 0.06008966  0.39105034  0.53969689],1,1,1,0.281839053,0,0,0,0.268974939,0.314786384,0.064715024,0.379501408,0.25007136,nan,nan,nan,[ nan  nan  nan],nan,nan,nan,342.8057055,774.3298835,774.6117225,nan,nan
0,375,17:41:20:365000,6,1,164,115.3125,[ 1.         -0.20968584  0.19476155],1,1,1,0.340017796,0,0,0,0.287177291,0.314698524,0.064651011,0.379349535,0.250047513,nan,nan,nan,[ nan  nan  nan],nan,nan,nan,342.8057055,775.2716777,775.6116954,nan,nan
0,376,17:41:21:301000,6,0,40,28.125,[ 1.          0.02011655 -1.        ],0,0,1,0.446203615,0,0,0,0.356020155,0.314765863,0.064578149,0.379344012,0.250187714,nan,nan,nan,[ nan  nan  nan],nan,nan,nan,342.8057055,776.2134698,776.6596734,nan,nan
0,377,17:41:22:237000,6,1,454,319.21875,[ 0.36762736  0.39708484 -1.        ],1,1,1,0.344400296,0,0,0,0.376873902,0.315114504,0.064845805,0.379960309,0.250268699,nan,nan,nan,[ nan  nan  nan],nan,nan,nan,342.8057055,777.1552612,777.4996614,nan,nan
0,378,17:41:23:188000,6,1,180,126.5625,[ 1.         -0.12927862  0.33123896],1,1,1,0.370581257,0,0,0,0.387061723,0.31519198,0.064777443,0.379969423,0.250414537,nan,nan,nan,[ nan  nan  nan],nan,nan,nan,342.8057055,778.0970585,778.4676397,nan,nan
0,379,17:41:24:124000,6,1,299,210.234375,[ 0.05166456  0.39341767  0.53437875],1,1,1,0.364779833,0,0,0,0.359920462,0.315338126,0.064754298,0.380092424,0.250583828,nan,nan,nan,[ nan  nan  nan],nan,nan,nan,342.8057055,779.0388447,779.4036245,nan,nan
0,380,17:41:25:060000,6,1,142,99.84375,[ 1.         -0.28956812 -0.01462735],1,1,1,0.486964115,0,0,1,0.407441735,0.315468235,0.064718626,0.380186861,0.25074961,nan,nan,nan,[ nan  nan  nan],nan,nan,nan,342.8057055,779.9806388,780.4676029,nan,nan
0,381,17:41:35:091000,6,1,280,196.875,[ 0.22808935  0.34201885  0.61587222],1,1,1,0.385145401,1,0,0,0.41229645,0.315918356,0.065226515,0.381144871,0.250691841,nan,-63.68735151,219,[ 0.87162732  0.08408817  0.57695967],nan,-43.18764849,7.026254516,342.8057055,780.9224333,781.3075787,782.7559798,789.7902455
0,382,17:41:36:027000,6,1,103,72.421875,[ 1.         -0.27953747 -0.42375884],1,1,1,0.502894155,0,0,0,0.458334557,0.316099579,0.065237056,0.381336635,0.250862522,nan,nan,nan,[ nan  nan  nan],nan,nan,nan,342.8057055,790.9404445,791.4433387,nan,nan
0,383,17:41:36:963000,6,1,271,190.546875,[ 0.32064286  0.31281163  0.63940014],1,1,1,0.505093958,0,0,0,0.464377838,0.316587293,0.065845471,0.382432764,0.250741822,nan,nan,nan,[ nan  nan  nan],nan,nan,nan,342.8057055,791.882229,792.387323,nan,nan
0,384,17:41:37:915000,6,0,45,31.640625,[ 1.         -0.00639576 -1.        ],0,0,1,0.515272465,0,0,0,0.507753526,0.317078196,0.066457752,0.383535948,0.250620443,nan,nan,nan,[ nan  nan  nan],nan,nan,nan,342.8057055,792.8240286,793.3393011,nan,nan
0,385,17:41:38:851000,6,1,204,143.4375,[ 1.          0.00303257  0.49965442],1,1,1,0.453460741,0,0,0,0.491275721,0.317592986,0.067133632,0.384726618,0.250459354,nan,nan,nan,[ nan  nan  nan],nan,nan,nan,342.8057055,793.7658165,794.2192772,nan,nan
0,386,17:41:39:787000,6,1,326,229.21875,[-0.12383419  0.44407177  0.35222354],1,1,1,0.391632481,0,0,0,0.453455229,0.317944975,0.067401399,0.385346374,0.250543576,nan,nan,nan,[ nan  nan  nan],nan,nan,nan,342.8057055,794.7076147,795.0992471,nan,nan
0,387,17:41:40:738000,6,1,98,68.90625,[ 1.         -0.26382291 -0.48021779],1,1,1,0.409823905,0,0,1,0.418305709,0.318135382,0.067418129,0.385553511,0.250717253,nan,nan,nan,[ nan  nan  nan],nan,nan,nan,342.8057055,795.649402,796.0592259,nan,nan
0,388,17:41:45:793000,6,1,282,198.28125,[ 0.20814231  0.34807905  0.6092955 ],1,1,1,0.356007135,1,0,0,0.385821174,0.318371693,0.067491487,0.385863179,0.250880206,nan,-115.9284576,293,[ 0.10383026  0.3786596   0.56461706],nan,7.647207601,2.067246229,342.8057055,796.5912056,796.9472127,798.416376,800.4916668
0,389,17:41:46:729000,6,0,44,30.9375,[ 1.         -0.00106984 -1.        ],0,0,1,0.529196282,0,0,0,0.431675774,0.318468442,0.067431616,0.385900058,0.251036826,nan,nan,nan,[ nan  nan  nan],nan,nan,nan,342.8057055,801.6418652,802.1710615,nan,nan
0,390,17:41:47:665000,6,1,291,204.609375,[ 0.12202764  0.37344194  0.57379193],1,1,1,0.355405867,0,0,0,0.413536428,0.31900877,0.068183092,0.387191861,0.250825678,nan,nan,nan,[ nan  nan  nan],nan,nan,nan,342.8057055,802.5836642,802.9390701,nan,nan
0,391,17:41:48:616000,6,1,444,312.1875,[ 0.2892412   0.41740978 -1.        ],1,1,1,0.325600192,0,0,0,0.40340078,0.319101857,0.068120654,0.387222511,0.250981202,nan,nan,nan,[ nan  nan  nan],nan,nan,nan,342.8057055,803.5254584,803.8510586,nan,nan
0,392,17:41:49:552000,6,1,246,172.96875,[ 0.58976884  0.2150199   0.65133953],1,1,1,0.295782257,0,0,0,0.325596105,0.319118434,0.0680345,0.387152934,0.251083934,nan,nan,nan,[ nan  nan  nan],nan,nan,nan,342.8057055,804.4672534,804.7630357,nan,nan
0,393,17:41:50:488000,6,1,498,350.15625,[ 0.73150794  0.26756188 -1.        ],1,1,1,0.305957914,0,0,0,0.309113454,0.319059055,0.067958057,0.387017112,0.251100997,nan,nan,nan,[ nan  nan  nan],nan,nan,nan,342.8057055,805.4090473,805.7150052,nan,nan
0,394,17:41:51:440000,6,1,231,162.421875,[ 0.74960968  0.14515127  0.62082146],1,1,1,0.316153812,0,0,0,0.305964661,0.319025803,0.067874962,0.386900765,0.251150841,nan,nan,nan,[ nan  nan  nan],nan,nan,nan,342.8057055,806.3508372,806.666991,nan,nan
0,395,17:41:52:376000,6,1,351,246.796875,[-0.17568629  0.47018527  0.12848998],1,1,1,0.262334192,0,0,0,0.294815306,0.319018532,0.067789144,0.386807676,0.251229388,nan,nan,nan,[ nan  nan  nan],nan,nan,nan,342.8057055,807.2926482,807.5549824,nan,nan
0,396,17:41:53:327000,6,1,506,355.78125,[ 0.79777474  0.23670313 -1.        ],1,1,1,0.304534143,0,0,0,0.294340715,0.31887539,0.067763242,0.386638632,0.251112148,nan,nan,nan,[ nan  nan  nan],nan,nan,nan,342.8057055,808.234423,808.5389571,nan,nan
0,397,17:41:54:263000,6,0,197,138.515625,[ 1.         -0.0357976   0.45577474],0,0,1,0.450706996,0,0,0,0.339191777,0.318839266,0.067681662,0.386520927,0.251157604,nan,nan,nan,[ nan  nan  nan],nan,nan,nan,342.8057055,809.176218,809.626925,nan,nan
0,398,17:41:55:199000,6,1,469,329.765625,[ 0.4894822   0.36045336 -1.        ],1,1,1,0.300894318,0,0,0,0.352045152,0.319170592,0.06791818,0.387088772,0.251252412,nan,nan,nan,[ nan  nan  nan],nan,nan,nan,342.8057055,810.1180156,810.4189099,nan,nan
0,399,17:41:56:151000,6,1,146,102.65625,[ 1.         -0.27879258  0.02488132],1,1,1,0.335084205,0,0,0,0.362228506,0.319124786,0.067839171,0.386963958,0.251285615,nan,nan,nan,[ nan  nan  nan],nan,nan,nan,342.8057055,811.0597898,811.394874,nan,nan
0,400,17:41:57:087000,6,1,41,28.828125,[ 1.         0.0148395 -1.       ],1,1,1,0.321260456,0,0,0,0.31907966,0.319164685,0.067759006,0.386923691,0.251405679,nan,nan,nan,[ nan  nan  nan],nan,nan,nan,342.8057055,812.0015971,812.3228576,nan,nan
0,401,17:41:58:023000,6,1,297,208.828125,[ 0.06862621  0.38864628  0.54490466],1,1,1,0.299479671,0,0,0,0.318608111,0.319169911,0.067674547,0.386844458,0.251495365,nan,nan,nan,[ nan  nan  nan],nan,nan,nan,342.8057055,812.9433613,813.242841,nan,nan
0,402,17:41:58:975000,6,1,357,251.015625,[-0.17179183  0.47376752  0.06873903],1,1,1,0.309623681,0,0,0,0.31012127,0.319120931,0.067597438,0.386718369,0.251523492,nan,nan,nan,[ nan  nan  nan],nan,nan,nan,342.8057055,813.88518,814.1948037,nan,nan
0,403,17:41:59:911000,6,1,177,124.453125,[ 1.         -0.14519215  0.30692121],1,1,1,0.239826125,0,0,0,0.282976493,0.319097364,0.067515172,0.386612536,0.251582192,nan,nan,nan,[ nan  nan  nan],nan,nan,nan,342.8057055,814.8269716,815.0667978,nan,nan
0,404,17:42:00:862000,6,1,332,233.4375,[-0.14664709  0.45205424  0.30271419],1,1,1,0.250001212,0,0,0,0.266483673,0.318901148,0.067546512,0.38644766,0.251354636,nan,nan,nan,[ nan  nan  nan],nan,nan,nan,342.8057055,815.7687675,816.0187687,nan,nan
0,405,17:42:01:798000,6,0,251,176.484375,[ 0.53557652  0.23650919  0.65528415],0,1,0,0.284187392,0,0,0,0.25800491,0.318731025,0.067549673,0.386280698,0.251181352,nan,nan,nan,[ nan  nan  nan],nan,nan,nan,342.8057055,816.7105594,816.9947468,nan,nan
0,406,17:42:02:734000,6,1,360,253.125,[-0.1677095   0.47518832  0.03812586],1,1,1,0.262378096,0,0,0,0.265522233,0.318645942,0.067488157,0.386134099,0.251157785,nan,nan,nan,[ nan  nan  nan],nan,nan,nan,342.8057055,817.6523468,817.9147249,nan,nan
0,407,17:42:03:686000,6,1,150,105.46875,[ 1.         -0.26615253  0.06382271],1,1,1,0.352574291,0,0,0,0.29971326,0.318507692,0.067462734,0.385970426,0.251044958,nan,nan,nan,[ nan  nan  nan],nan,nan,nan,342.8057055,818.5941426,818.9467169,nan,nan
0,408,17:42:04:622000,6,1,86,60.46875,[ 1.         -0.21659106 -0.6256178 ],1,1,1,0.298758377,0,0,0,0.304570255,0.318591189,0.067401061,0.385992249,0.251190128,nan,nan,nan,[ nan  nan  nan],nan,nan,nan,342.8057055,819.5359357,819.8346941,nan,nan
0,409,17:42:05:558000,6,1,507,356.484375,[ 0.80599565  0.23268835 -1.        ],1,1,1,0.276940814,0,0,0,0.309424494,0.318542698,0.067325738,0.385868436,0.251216959,nan,nan,nan,[ nan  nan  nan],nan,nan,nan,342.8057055,820.4777287,820.7546695,nan,nan
0,410,17:42:06:509000,6,1,393,276.328125,[-0.04894566  0.47510217 -0.32744323],1,1,1,0.279130069,0,0,0,0.284943087,0.31844123,0.067274887,0.385716117,0.251166342,nan,nan,nan,[ nan  nan  nan],nan,nan,nan,342.8057055,821.4195197,821.6986498,nan,nan
0,411,17:42:07:445000,6,1,24,16.875,[ 1.          0.10201906 -1.        ],1,1,1,0.297298684,0,0,0,0.284456522,0.318345582,0.0672209,0.385566482,0.251124682,nan,nan,nan,[ nan  nan  nan],nan,nan,nan,342.8057055,822.3613122,822.6586109,nan,nan
0,412,17:42:08:397000,6,1,380,267.1875,[-0.10951951  0.47853303 -0.17717739],1,1,1,0.355482273,0,0,0,0.310637009,0.318294497,0.067147259,0.385441756,0.251147238,nan,nan,nan,[ nan  nan  nan],nan,nan,nan,342.8057055,823.3031095,823.6585918,nan,nan
