block,trial,freq_trials,correct_response,actual_response,acc,rts,probe_trials,fast_rt_trigger,slow_rt_trigger,rt_triggered,rts_runningavg,rts_runningstd,rts_runningfastthresh,rts_runningslowthresh,rts_runningstd,rts_trailingavg,trials_colorind,trials_colorrgb0,trials_colorrgb1,trials_colorrgb2,wm_respdeg,wm_respdeg_in_colorspace,wm_respcolorminusorigcolor,wm_resptexind,wm_resptexrgb0,wm_resptexrgb1,wm_resptexrgb2,wm_rts,time_blockstart,time_encarray_offset,time_encarray_onset,time_response,time_iti_offset,time_iti_onset,time_memprobe_offset,time_memprobe_onset
1,1,1,1,1.0,1.0,0.327645187383,0,nan,nan,nan,nan,nan,nan,nan,nan,nan,100,1.0,-0.270427092546,-0.457439896749,nan,nan,nan,nan,nan,nan,nan,nan,342.805705461,343.822045184,nan,344.149690371,nan,nan,nan,nan
1,2,1,1,1.0,1.0,0.313803763129,0,nan,nan,nan,nan,nan,nan,nan,nan,nan,332,-0.146647089803,0.45205423783,0.302714191958,nan,nan,nan,nan,nan,nan,nan,nan,342.805705461,344.763867012,nan,345.077670775,nan,nan,nan,nan
1,3,1,1,1.0,1.0,0.324040715117,0,nan,nan,nan,nan,nan,nan,nan,nan,nan,430,0.184725017221,0.440645728776,-0.941904167281,nan,nan,nan,nan,nan,nan,nan,nan,342.805705461,345.705611864,nan,346.029652579,nan,nan,nan,nan
1,4,1,1,1.0,1.0,0.286194469314,0,nan,nan,nan,nan,nan,nan,nan,nan,nan,342,-0.170052622031,0.462913557708,0.21407524247,nan,nan,nan,nan,nan,nan,nan,nan,342.805705461,346.647437968,nan,346.933632437,nan,nan,nan,nan
1,5,1,1,1.0,1.0,0.27235047915,0,nan,nan,nan,nan,nan,nan,nan,nan,nan,243,0.622151010882,0.20168048164,0.647463484622,nan,nan,nan,nan,nan,nan,nan,nan,342.805705461,347.589261507,nan,347.861611986,nan,nan,nan,nan
1,6,1,1,1.0,1.0,0.281065302144,0,nan,nan,nan,nan,nan,nan,nan,nan,nan,456,0.383612429175,0.392633185378,-1.0,nan,nan,nan,nan,nan,nan,nan,nan,342.805705461,348.5325359,nan,348.813601202,nan,nan,nan,nan
1,7,1,1,1.0,1.0,0.236813513096,0,nan,nan,nan,nan,nan,nan,nan,nan,nan,163,1.0,-0.214247802105,0.185723682048,nan,nan,nan,nan,nan,nan,nan,nan,342.805705461,349.472800247,nan,349.70961376,nan,nan,nan,nan
1,8,1,1,1.0,1.0,0.262944297632,0,nan,nan,nan,nan,nan,nan,nan,nan,nan,457,0.391639248186,0.390358177281,-1.0,nan,nan,nan,nan,nan,nan,nan,nan,342.805705461,350.414602973,nan,350.677547271,nan,nan,nan,nan
1,9,1,1,1.0,1.0,0.241133862117,0,nan,nan,nan,nan,nan,nan,nan,nan,nan,329,-0.136053278316,0.448203788942,0.3278337444,nan,nan,nan,nan,nan,nan,nan,nan,342.805705461,351.356399713,nan,351.597533575,nan,nan,nan,nan
1,10,1,1,1.0,1.0,0.371288010792,0,nan,nan,nan,nan,nan,nan,nan,nan,nan,69,1.0,-0.134207199312,-0.939648005704,nan,nan,nan,nan,nan,nan,nan,nan,342.805705461,352.298201584,nan,352.669489595,nan,nan,nan,nan
1,11,1,1,1.0,1.0,0.309487690567,1,nan,nan,nan,nan,nan,nan,nan,nan,nan,263,0.405698801511,0.284171736334,0.651829885785,-103.418708081,193.418708081,8.49683308107,275.0,0.279002393219,0.326185254474,0.630178474337,7.75969833392,342.805705461,353.239989486,354.048401936,353.549477176,362.849545001,363.855623253,355.073490978,362.841207075
1,12,1,1,1.0,1.0,0.35747994273,0,nan,nan,nan,nan,nan,nan,nan,nan,nan,410,0.0492046846968,0.463921527344,-0.54316189137,nan,nan,nan,nan,nan,nan,nan,nan,342.805705461,363.999765081,nan,364.357245023,nan,nan,nan,nan
1,13,1,1,1.0,1.0,0.311646439543,0,nan,nan,nan,nan,nan,nan,nan,nan,nan,336,-0.158211608236,0.456758111158,0.268135266647,nan,nan,nan,nan,nan,nan,nan,nan,342.805705461,364.941556118,nan,365.253202558,nan,nan,nan,nan
1,14,0,0,0.0,1.0,0.417837675894,0,nan,nan,nan,nan,nan,nan,nan,nan,nan,240,0.654373017221,0.188015059697,0.642463954019,nan,nan,nan,nan,nan,nan,nan,nan,342.805705461,365.883353713,nan,366.301191389,nan,nan,nan,nan
1,15,1,1,1.0,1.0,0.283987539005,0,nan,nan,nan,nan,nan,nan,nan,nan,nan,189,1.0,-0.0802194643608,0.400143472992,nan,nan,nan,nan,nan,nan,nan,nan,342.805705461,366.82514361,nan,367.109131149,nan,nan,nan,nan
1,16,1,1,1.0,1.0,0.294193985814,0,nan,nan,nan,nan,nan,nan,nan,nan,nan,43,1.0,0.00424534395127,-1.0,nan,nan,nan,nan,nan,nan,nan,nan,342.805705461,367.766942915,nan,368.061136901,nan,nan,nan,nan
1,17,1,1,1.0,1.0,0.272390107508,0,nan,nan,nan,nan,nan,nan,nan,nan,nan,255,0.492159363509,0.253017189294,0.656163111527,nan,nan,nan,nan,nan,nan,nan,nan,342.805705461,368.708737089,nan,368.981127197,nan,nan,nan,nan
1,18,1,1,1.0,1.0,0.298532866058,1,nan,nan,nan,nan,nan,nan,nan,nan,nan,428,0.170378320166,0.443486568519,-0.86866140055,143.29714497,306.70285503,5.76535503016,436.0,0.228681708805,0.431413732101,-1.0,3.60086521017,342.805705461,369.650539816,370.459013846,369.949072682,375.101196064,376.101356574,371.484052427,375.092879236
1,19,0,0,0.0,1.0,0.473874489777,0,nan,nan,nan,nan,nan,nan,nan,nan,nan,336,-0.158211608236,0.456758111158,0.268135266647,nan,nan,nan,nan,nan,nan,nan,nan,342.805705461,376.243087912,nan,376.716962402,nan,nan,nan,nan
1,20,1,1,1.0,1.0,0.428035569726,0,nan,nan,nan,nan,nan,nan,nan,nan,nan,79,1.0,-0.184296021705,-0.724170777997,nan,nan,nan,nan,nan,nan,nan,nan,342.805705461,377.18489463,nan,377.6129302,nan,nan,nan,nan
1,21,1,1,1.0,1.0,0.302226573403,0,nan,nan,nan,nan,nan,nan,nan,nan,nan,10,0.926811495151,0.168400576072,-1.0,nan,nan,nan,nan,nan,nan,nan,nan,342.805705461,378.126673978,nan,378.428900552,nan,nan,nan,nan
1,22,1,1,1.0,1.0,0.256442106795,0,nan,nan,nan,nan,nan,nan,nan,nan,nan,221,0.851781464038,0.0945411604707,0.585422935822,nan,nan,nan,nan,nan,nan,nan,nan,342.805705461,379.068455893,nan,379.324898,nan,nan,nan,nan
1,23,1,1,1.0,1.0,0.194590469182,1,nan,nan,nan,nan,nan,nan,nan,nan,nan,386,-0.0833946583454,0.477495592553,-0.245424736514,-168.023867556,258.023867556,-13.3823824442,367.0,-0.15309091083,0.477560897992,-0.0350816338538,3.34242714435,342.805705461,380.010263466,380.818684184,380.204853935,385.202565752,386.209902705,381.843785771,385.194232673
1,24,1,1,1.0,1.0,0.37193090294,0,nan,nan,nan,nan,nan,nan,nan,nan,nan,25,1.0,0.0970682892709,-1.0,nan,nan,nan,nan,nan,nan,nan,nan,342.805705461,386.352785833,nan,386.724716735,nan,nan,nan,nan
1,25,1,1,1.0,1.0,0.310116898036,0,nan,nan,nan,nan,nan,nan,nan,nan,nan,276,0.268710435127,0.329430325417,0.627563005949,nan,nan,nan,nan,nan,nan,nan,nan,342.805705461,387.294585708,nan,387.604702606,nan,nan,nan,nan
1,26,1,1,1.0,1.0,0.248344802239,0,nan,nan,nan,nan,nan,nan,nan,nan,nan,118,1.0,-0.308588151016,-0.261285249573,nan,nan,nan,nan,nan,nan,nan,nan,342.805705461,388.236367623,nan,388.484712425,nan,nan,nan,nan
1,27,1,1,1.0,1.0,0.250466773869,0,nan,nan,nan,nan,nan,nan,nan,nan,nan,414,0.0747837862165,0.460162189034,-0.600089175003,nan,nan,nan,nan,nan,nan,nan,nan,342.805705461,389.178186314,nan,389.428653088,nan,nan,nan,nan
1,28,1,1,1.0,1.0,0.292686396628,0,nan,nan,nan,nan,nan,nan,nan,nan,nan,283,0.19826868328,0.351050922538,0.605825948857,nan,nan,nan,nan,nan,nan,nan,nan,342.805705461,390.119947702,nan,390.412634099,nan,nan,nan,nan
1,29,1,1,1.0,1.0,0.230850154243,0,nan,nan,nan,nan,nan,nan,nan,nan,nan,373,-0.135407706169,0.478559568072,-0.0996974893599,nan,nan,nan,nan,nan,nan,nan,nan,342.805705461,391.061755275,nan,391.292605429,nan,nan,nan,nan
1,30,1,1,1.0,1.0,0.241027806303,0,nan,nan,nan,nan,nan,nan,nan,nan,nan,20,1.0,0.121558187834,-1.0,nan,nan,nan,nan,nan,nan,nan,nan,342.805705461,392.003552015,nan,392.244579821,nan,nan,nan,nan
1,31,1,1,1.0,1.0,0.291195628233,0,nan,nan,nan,nan,nan,nan,nan,nan,nan,392,-0.0541067903503,0.475522277549,-0.315549842675,nan,nan,nan,nan,nan,nan,nan,nan,342.805705461,392.945345618,nan,393.236541246,nan,nan,nan,nan
1,32,1,1,1.0,1.0,0.269396026386,0,nan,nan,nan,nan,nan,nan,nan,nan,nan,303,0.0191349273956,0.402522842081,0.512018356663,nan,nan,nan,nan,nan,nan,nan,nan,342.805705461,393.887137796,nan,394.156533822,nan,nan,nan,nan
1,33,1,1,1.0,1.0,0.279584227013,0,nan,nan,nan,nan,nan,nan,nan,nan,nan,11,0.934659501434,0.163852895862,-1.0,nan,nan,nan,nan,nan,nan,nan,nan,342.805705461,394.828932255,nan,395.108516482,nan,nan,nan,nan
1,34,1,1,1.0,1.0,0.273750301858,0,nan,nan,nan,nan,nan,nan,nan,nan,nan,316,-0.0718215561597,0.428203514031,0.427892255365,nan,nan,nan,nan,nan,nan,nan,nan,342.805705461,395.770722437,nan,396.044472739,nan,nan,nan,nan
1,35,1,1,1.0,1.0,0.315961371758,0,nan,nan,nan,nan,nan,nan,nan,nan,nan,52,1.0,-0.0438860552364,-1.0,nan,nan,nan,nan,nan,nan,nan,nan,342.805705461,396.712522597,nan,397.028483969,nan,nan,nan,nan
1,36,1,1,1.0,1.0,0.214140946511,0,nan,nan,nan,nan,nan,nan,nan,nan,nan,462,0.432089675478,0.378486360879,-1.0,nan,nan,nan,nan,nan,nan,nan,nan,342.805705461,397.654310784,nan,397.868451731,nan,nan,nan,nan
1,37,1,1,1.0,1.0,0.256337476429,0,nan,nan,nan,nan,nan,nan,nan,nan,nan,184,1.0,-0.107671891867,0.362640045218,nan,nan,nan,nan,nan,nan,nan,nan,342.805705461,398.596108664,nan,398.85244614,nan,nan,nan,nan
1,38,1,1,1.0,1.0,0.234508509689,0,nan,nan,nan,nan,nan,nan,nan,nan,nan,299,0.0516645560415,0.393417669654,0.534378752182,nan,nan,nan,nan,nan,nan,nan,nan,342.805705461,399.537900557,nan,399.772409066,nan,nan,nan,nan
1,39,1,1,1.0,1.0,0.284690871544,0,nan,nan,nan,nan,nan,nan,nan,nan,nan,433,0.206536295144,0.436163724167,-1.0,nan,nan,nan,nan,nan,nan,nan,nan,342.805705461,400.479695301,nan,400.764386172,nan,nan,nan,nan
1,40,1,1,1.0,1.0,0.294872800063,0,nan,nan,nan,nan,nan,nan,nan,nan,nan,370,-0.144805996584,0.478178727438,-0.0671803333712,nan,nan,nan,nan,nan,nan,nan,nan,342.805705461,401.421491185,nan,401.716363985,nan,nan,nan,nan
1,41,1,1,1.0,1.0,0.249060393893,0,nan,nan,nan,nan,nan,nan,nan,nan,nan,151,1.0,-0.262720288689,0.0734626651272,nan,nan,nan,nan,nan,nan,nan,nan,342.805705461,402.363280227,nan,402.61234062,nan,nan,nan,nan
1,42,1,1,1.0,1.0,0.307243412652,0,nan,nan,nan,nan,nan,nan,nan,nan,nan,499,0.739831889234,0.263827757734,-1.0,nan,nan,nan,nan,nan,nan,nan,nan,342.805705461,403.305077536,nan,403.612320949,nan,nan,nan,nan
1,43,1,1,1.0,1.0,0.237436733558,0,nan,nan,nan,nan,nan,nan,nan,nan,nan,231,0.749609680972,0.145151270079,0.620821461523,nan,nan,nan,nan,nan,nan,nan,nan,342.805705461,404.246864868,nan,404.484301601,nan,nan,nan,nan
1,44,1,1,1.0,1.0,0.255619033822,0,nan,nan,nan,nan,nan,nan,nan,nan,nan,3,0.871087178923,0.199335109687,-1.0,nan,nan,nan,nan,nan,nan,nan,nan,342.805705461,405.188664743,nan,405.444283777,nan,nan,nan,nan
1,45,1,1,1.0,1.0,0.329807642673,0,nan,nan,nan,nan,nan,nan,nan,nan,nan,493,0.689769084006,0.285700779988,-1.0,nan,nan,nan,nan,nan,nan,nan,nan,342.805705461,406.130455781,nan,406.460263423,nan,nan,nan,nan
1,46,1,1,1.0,1.0,0.267993067624,0,nan,nan,nan,nan,nan,nan,nan,nan,nan,385,-0.0879796604702,0.477733444059,-0.233926720364,nan,nan,nan,nan,nan,nan,nan,nan,342.805705461,407.072248244,nan,407.340241311,nan,nan,nan,nan
1,47,1,1,1.0,1.0,0.342168847157,0,nan,nan,nan,nan,nan,nan,nan,nan,nan,142,1.0,-0.289568116499,-0.0146273521697,nan,nan,nan,nan,nan,nan,nan,nan,342.805705461,408.014048404,nan,408.356217251,nan,nan,nan,nan
1,48,1,1,1.0,1.0,0.288355499099,0,nan,nan,nan,nan,nan,nan,nan,nan,nan,10,0.926811495151,0.168400576072,-1.0,nan,nan,nan,nan,nan,nan,nan,nan,342.805705461,408.955840867,nan,409.244196366,nan,nan,nan,nan
1,49,1,1,1.0,1.0,0.290531353909,0,nan,nan,nan,nan,nan,nan,nan,nan,nan,492,0.681403316433,0.289222019555,-1.0,nan,nan,nan,nan,nan,nan,nan,nan,342.805705461,409.8976339,nan,410.188165254,nan,nan,nan,nan
1,50,1,1,1.0,1.0,0.252727302257,0,nan,nan,nan,nan,nan,nan,nan,nan,nan,119,1.0,-0.309446327048,-0.250710895617,nan,nan,nan,nan,nan,nan,nan,nan,342.805705461,410.839428359,nan,411.092155661,nan,nan,nan,nan
1,51,1,1,1.0,1.0,0.21491156175,0,nan,nan,nan,nan,nan,nan,nan,nan,nan,430,0.184725017221,0.440645728776,-0.941904167281,nan,nan,nan,nan,nan,nan,nan,nan,342.805705461,411.781219967,nan,411.996131529,nan,nan,nan,nan
1,52,1,1,1.0,1.0,0.209081912995,0,nan,nan,nan,nan,nan,nan,nan,nan,nan,300,0.0433537089178,0.395748422077,0.528951029102,nan,nan,nan,nan,nan,nan,nan,nan,342.805705461,412.723014996,nan,412.932096909,nan,nan,nan,nan
1,53,1,1,1.0,1.0,0.15529194288,0,nan,nan,nan,nan,nan,nan,nan,nan,nan,36,1.0,0.0410699577143,-1.0,nan,nan,nan,nan,nan,nan,nan,nan,342.805705461,413.664808029,nan,413.820099972,nan,nan,nan,nan
1,54,0,0,1.0,0.0,0.237454694638,0,0.0,0.0,0.0,nan,nan,nan,nan,nan,nan,192,1.0,-0.0635997558896,0.421658406928,nan,nan,nan,nan,nan,nan,nan,nan,342.805705461,414.606606194,nan,414.844060889,nan,nan,nan,nan
1,55,1,1,1.0,1.0,0.239671318152,0,nan,nan,nan,nan,nan,nan,nan,nan,nan,239,0.665069831863,0.183388857662,0.640549267122,nan,nan,nan,nan,nan,nan,nan,nan,342.805705461,415.548361309,nan,415.788032628,nan,nan,nan,nan
1,56,0,0,1.0,0.0,0.249830724089,0,0.0,0.0,0.0,nan,nan,nan,nan,nan,nan,435,0.221263830514,0.433027056876,-1.0,nan,nan,nan,nan,nan,nan,nan,nan,342.805705461,416.490187984,nan,416.740018708,nan,nan,nan,nan
1,57,1,1,1.0,1.0,0.24401162396,0,nan,nan,nan,nan,nan,nan,nan,nan,nan,43,1.0,0.00424534395127,-1.0,nan,nan,nan,nan,nan,nan,nan,nan,342.805705461,417.431986434,nan,417.675998058,nan,nan,nan,nan
1,58,1,1,1.0,1.0,0.302209182526,0,nan,nan,nan,nan,nan,nan,nan,nan,nan,182,1.0,-0.118523835432,0.347089474713,nan,nan,nan,nan,nan,nan,nan,nan,342.805705461,418.373773765,nan,418.675982948,nan,nan,nan,nan
1,59,1,1,1.0,1.0,0.264376336243,0,nan,nan,nan,nan,nan,nan,nan,nan,nan,411,0.0555201669072,0.463022710015,-0.557054760163,nan,nan,nan,nan,nan,nan,nan,nan,342.805705461,419.315569364,nan,419.579945701,nan,nan,nan,nan
1,60,1,1,1.0,1.0,0.242577589699,0,nan,nan,nan,nan,nan,nan,nan,nan,nan,366,-0.155593376329,0.477302029306,-0.0244766492797,nan,nan,nan,nan,nan,nan,nan,nan,342.805705461,420.257362968,nan,420.499940557,nan,nan,nan,nan
1,61,1,1,1.0,1.0,0.140781967784,1,nan,nan,nan,nan,nan,nan,nan,nan,nan,492,0.681403316433,0.289222019555,-1.0,131.987212496,318.012787504,-27.9247124958,452.0,0.351738073422,0.401406211611,-1.0,2.69233207899,342.805705461,421.199160563,422.007577004,421.33994253,425.733035845,426.737822326,423.024337244,425.72470134
1,62,1,1,1.0,1.0,0.392512288352,0,nan,nan,nan,nan,nan,nan,nan,nan,nan,70,1.0,-0.13936984996,-0.906436913284,nan,nan,nan,nan,nan,nan,nan,nan,342.805705461,426.883257636,nan,427.275769924,nan,nan,nan,nan
1,63,1,1,1.0,1.0,0.322708175168,0,nan,nan,nan,nan,nan,nan,nan,nan,nan,323,-0.11001989341,0.43965344528,0.375855360355,nan,nan,nan,nan,nan,nan,nan,nan,342.805705461,427.825048673,nan,428.147756848,nan,nan,nan,nan
1,64,1,1,1.0,1.0,0.340889620129,0,nan,nan,nan,nan,nan,nan,nan,nan,nan,439,0.251144291643,0.426392204401,-1.0,nan,nan,nan,nan,nan,nan,nan,nan,342.805705461,428.766836289,nan,429.10772591,nan,nan,nan,nan
1,65,1,1,1.0,1.0,0.271056141995,0,nan,nan,nan,nan,nan,nan,nan,nan,nan,31,1.0,0.0668515730764,-1.0,nan,nan,nan,nan,nan,nan,nan,nan,342.805705461,429.708655837,nan,429.979711979,nan,nan,nan,nan
1,66,1,1,1.0,1.0,0.289259539393,0,nan,nan,nan,nan,nan,nan,nan,nan,nan,443,0.281558783006,0.419268214519,-1.0,nan,nan,nan,nan,nan,nan,nan,nan,342.805705461,430.650427773,nan,430.939687312,nan,nan,nan,nan
1,67,1,1,1.0,1.0,0.363457271364,0,nan,nan,nan,nan,nan,nan,nan,nan,nan,156,1.0,-0.244060613314,0.121041471254,nan,nan,nan,nan,nan,nan,nan,nan,342.805705461,431.592203415,nan,431.955660686,nan,nan,nan,nan
1,68,1,1,1.0,1.0,0.293620657176,0,nan,nan,nan,nan,nan,nan,nan,nan,nan,389,-0.0691208065164,0.476626077068,-0.280234315682,nan,nan,nan,nan,nan,nan,nan,nan,342.805705461,432.534021822,nan,432.827642479,nan,nan,nan,nan
1,69,1,1,1.0,1.0,0.335810344841,0,nan,nan,nan,nan,nan,nan,nan,nan,nan,126,1.0,-0.311411754845,-0.177408431044,nan,nan,nan,nan,nan,nan,nan,nan,342.805705461,433.475814,nan,433.811624345,nan,nan,nan,nan
1,70,1,1,1.0,1.0,0.314004755986,0,nan,nan,nan,nan,nan,nan,nan,nan,nan,444,0.289241202529,0.417409780569,-1.0,nan,nan,nan,nan,nan,nan,nan,nan,342.805705461,434.417607888,nan,434.731612644,nan,nan,nan,nan
1,71,0,0,0.0,1.0,0.452165263472,0,nan,nan,nan,nan,nan,nan,nan,nan,nan,479,0.572572153349,0.331768222426,-1.0,nan,nan,nan,nan,nan,nan,nan,nan,342.805705461,435.359398071,nan,435.811563334,nan,nan,nan,nan
1,72,1,1,1.0,1.0,0.358349201328,0,nan,nan,nan,nan,nan,nan,nan,nan,nan,231,0.749609680972,0.145151270079,0.620821461523,nan,nan,nan,nan,nan,nan,nan,nan,342.805705461,436.301195095,nan,436.659544296,nan,nan,nan,nan
1,73,1,1,1.0,1.0,0.320528614102,0,nan,nan,nan,nan,nan,nan,nan,nan,nan,472,0.51429864939,0.352212277195,-1.0,nan,nan,nan,nan,nan,nan,nan,nan,342.805705461,437.243004094,nan,437.563532708,nan,nan,nan,nan
1,74,1,1,1.0,1.0,0.346723545284,0,nan,nan,nan,nan,nan,nan,nan,nan,nan,440,0.258699398066,0.424657399123,-1.0,nan,nan,nan,nan,nan,nan,nan,nan,342.805705461,438.184779451,nan,438.531502996,nan,nan,nan,nan
1,75,1,1,1.0,1.0,0.284900987463,0,nan,nan,nan,nan,nan,nan,nan,nan,nan,505,0.789537956352,0.240683140511,-1.0,nan,nan,nan,nan,nan,nan,nan,nan,342.805705461,439.12658845,nan,439.411489437,nan,nan,nan,nan
1,76,1,1,1.0,1.0,0.303110657027,0,nan,nan,nan,nan,nan,nan,nan,nan,nan,204,1.0,0.00303256528985,0.499654420455,nan,nan,nan,nan,nan,nan,nan,nan,342.805705461,440.068366088,nan,440.371476745,nan,nan,nan,nan
1,77,0,0,0.0,1.0,0.465276841307,0,nan,nan,nan,nan,nan,nan,nan,nan,nan,383,-0.0968787136249,0.478131214543,-0.211081409456,nan,nan,nan,nan,nan,nan,nan,nan,342.805705461,441.010166818,nan,441.47544366,nan,nan,nan,nan
1,78,1,1,1.0,1.0,0.315474142146,0,nan,nan,nan,nan,nan,nan,nan,nan,nan,3,0.871087178923,0.199335109687,-1.0,nan,nan,nan,nan,nan,nan,nan,nan,342.805705461,441.951955005,nan,442.267429147,nan,nan,nan,nan
1,79,1,1,1.0,1.0,0.325662342831,0,nan,nan,nan,nan,nan,nan,nan,nan,nan,55,1.0,-0.0599996532909,-1.0,nan,nan,nan,nan,nan,nan,nan,nan,342.805705461,442.893743477,nan,443.219405819,nan,nan,nan,nan
1,80,1,1,1.0,1.0,0.27184813947,0,nan,nan,nan,nan,nan,nan,nan,nan,nan,6,0.895129075663,0.186272780825,-1.0,nan,nan,nan,nan,nan,nan,nan,nan,342.805705461,443.835541071,nan,444.107389211,nan,nan,nan,nan
1,81,1,1,1.0,1.0,0.162021355412,0,0.0,0.0,0.0,0.293329595248,0.0608408951534,0.232488700094,0.354170490401,0.0608408951534,0.253177279238,321,-0.0999433513493,0.43654647086,0.391174984052,nan,nan,nan,nan,nan,nan,nan,nan,342.805705461,444.777354061,nan,444.939375417,nan,nan,nan,nan
1,82,1,1,1.0,1.0,0.220209790918,0,1.0,0.0,0.0,0.291708505867,0.0621783727734,0.229530133094,0.35388687864,0.0621783727734,0.2180264286,220,0.861731547614,0.0893272636146,0.581247684387,nan,nan,nan,nan,nan,nan,nan,nan,342.805705461,445.719137116,nan,445.939346907,nan,nan,nan,nan
1,83,1,1,1.0,1.0,0.238406916207,1,0.0,0.0,1.0,0.290836570319,0.0622943325603,0.228542237758,0.353130902879,0.0622943325603,0.206879354179,339,-0.164955840019,0.45996923152,0.241423096872,-135.806929455,225.806929455,-12.5524455449,321.0,-0.0999433513493,0.43654647086,0.391174984052,5.49271764321,342.805705461,446.660921026,447.46934317,446.899327943,453.995188145,455.004363399,448.486109682,453.986875308
1,84,1,1,1.0,1.0,0.337735029752,0,0.0,0.0,0.0,0.290204887739,0.0621815866868,0.228023301052,0.352386474426,0.0621815866868,0.265450578959,467,0.473005185182,0.365775667588,-1.0,nan,nan,nan,nan,nan,nan,nan,nan,342.805705461,455.145397962,nan,455.483132991,nan,nan,nan,nan
1,85,0,0,0.0,1.0,0.427928373567,0,0.0,0.0,0.0,0.290770722763,0.062024941909,0.228745780854,0.352795664672,0.062024941909,0.334690106509,368,-0.150457169737,0.477793263397,-0.0457341785459,nan,nan,nan,nan,nan,nan,nan,nan,342.805705461,456.087170753,nan,456.515099127,nan,nan,nan,nan
1,86,1,1,1.0,1.0,0.294093061704,0,0.0,0.0,0.0,0.292384342184,0.0634078069146,0.22897653527,0.355792149099,0.0634078069146,0.353252155008,205,1.0,0.00854800403903,0.505535240796,nan,nan,nan,nan,nan,nan,nan,nan,342.805705461,457.028982603,nan,457.323075664,nan,nan,nan,nan
1,87,1,1,1.0,1.0,0.31228933169,0,0.0,0.0,0.0,0.292404211016,0.063038345093,0.229365865923,0.355442556109,0.063038345093,0.344770255654,76,1.0,-0.169674511773,-0.773365826749,nan,nan,nan,nan,nan,nan,nan,nan,342.805705461,457.970783048,nan,458.28307238,nan,nan,nan,nan
1,88,1,1,1.0,1.0,0.274468459364,0,0.0,0.0,0.0,0.292632775621,0.0627108404044,0.229921935217,0.355343616026,0.0627108404044,0.293616950919,270,0.331159066004,0.309369715406,0.641393874915,nan,nan,nan,nan,nan,nan,nan,nan,342.805705461,458.912573516,nan,459.187041975,nan,nan,nan,nan
1,89,1,1,1.0,1.0,0.26864422753,0,0.0,0.0,0.0,0.292426362937,0.0623832272682,0.230043135668,0.354809590205,0.0623832272682,0.285134006195,145,1.0,-0.281667413287,0.0150551701241,nan,nan,nan,nan,nan,nan,nan,nan,342.805705461,459.854367689,nan,460.123011917,nan,nan,nan,nan
1,90,1,1,1.0,1.0,0.318796369131,0,0.0,0.0,0.0,0.292159147932,0.062082396764,0.230076751168,0.354241544696,0.062082396764,0.287303018675,77,1.0,-0.174593022316,-0.756267193339,nan,nan,nan,nan,nan,nan,nan,nan,342.805705461,460.796185526,nan,461.114981895,nan,nan,nan,nan
1,91,0,0,0.0,1.0,0.441014577867,0,0.0,0.0,0.0,0.292455117057,0.0617996397586,0.230655477298,0.354254756815,0.0617996397586,0.342818391509,336,-0.158211608236,0.456758111158,0.268135266647,nan,nan,nan,nan,nan,nan,nan,nan,342.805705461,461.737950905,nan,462.178965483,nan,nan,nan,nan
1,92,1,1,1.0,1.0,0.315196173324,0,0.0,0.0,0.0,0.294087638604,0.0633804992683,0.230707139336,0.357468137872,0.0633804992683,0.358335706774,438,0.243622561222,0.428096439079,-1.0,nan,nan,nan,nan,nan,nan,nan,nan,342.805705461,462.679751065,nan,462.994947239,nan,nan,nan,nan
1,93,1,1,1.0,1.0,0.285400191089,0,0.0,0.0,0.0,0.294317079199,0.063073086199,0.231243993,0.357390165398,0.063073086199,0.347203647427,267,0.362924526182,0.298807232282,0.646622522267,nan,nan,nan,nan,nan,nan,nan,nan,342.805705461,463.621541248,nan,463.906941439,nan,nan,nan,nan
1,94,1,1,1.0,1.0,0.247565634141,0,0.0,0.0,0.0,0.294221198681,0.0627398076873,0.231481390994,0.356961006369,0.0627398076873,0.282720666185,43,1.0,0.00424534395127,-1.0,nan,nan,nan,nan,nan,nan,nan,nan,342.805705461,464.563338272,nan,464.810903906,nan,nan,nan,nan
1,95,0,0,1.0,0.0,0.233783794974,0,0.0,0.0,0.0,0.293724862888,0.0625884860816,0.231136376807,0.35631334897,0.0625884860816,0.255583206735,491,0.673033477965,0.292707709811,-1.0,nan,nan,nan,nan,nan,nan,nan,nan,342.805705461,465.505110493,nan,465.738894288,nan,nan,nan,nan
1,96,1,1,1.0,1.0,0.267947452201,0,0.0,0.0,0.0,0.293093904279,0.0625580201219,0.230535884157,0.355651924401,0.0625580201219,0.249765627106,379,-0.113535935895,0.478614986251,-0.165970515924,nan,nan,nan,nan,nan,nan,nan,nan,342.805705461,466.446919207,nan,466.714866659,nan,nan,nan,nan
1,97,1,1,1.0,1.0,0.270126728108,0,0.0,0.0,0.0,0.29283196207,0.0622836936829,0.230548268387,0.355115655753,0.0622836936829,0.257285991761,46,1.0,-0.0117313672748,-1.0,nan,nan,nan,nan,nan,nan,nan,nan,342.805705461,467.388716231,nan,467.65884296,nan,nan,nan,nan
1,98,0,0,1.0,0.0,0.264300500625,0,0.0,0.0,0.0,0.292597887493,0.0620042423569,0.230593645136,0.35460212985,0.0620042423569,0.267458226978,348,-0.175384772129,0.468017843042,0.157582163916,nan,nan,nan,nan,nan,nan,nan,nan,342.805705461,468.330510975,nan,468.594811476,nan,nan,nan,nan
1,99,1,1,1.0,1.0,0.25850705913,0,0.0,0.0,0.0,0.292309138647,0.0617526005468,0.2305565381,0.354061739194,0.0617526005468,0.264311429288,457,0.391639248186,0.390358177281,-1.0,nan,nan,nan,nan,nan,nan,nan,nan,342.805705461,469.272303723,nan,469.530810782,nan,nan,nan,nan
1,100,1,1,1.0,1.0,0.284667778702,0,0.0,0.0,0.0,0.2919677035,0.0615328309709,0.23043487253,0.353500534471,0.0615328309709,0.269158446152,377,-0.121259861678,0.478700828387,-0.143695900877,nan,nan,nan,nan,nan,nan,nan,nan,342.805705461,470.214098752,nan,470.498766531,nan,nan,nan,nan
1,101,1,1,1.0,1.0,0.326853189967,0,0.0,0.0,0.0,0.291894704252,0.0612287020486,0.230666002204,0.353123406301,0.0612287020486,0.2900093426,51,1.0,-0.0385160204876,-1.0,nan,nan,nan,nan,nan,nan,nan,nan,342.805705461,471.155887224,nan,471.482740414,nan,nan,nan,nan
1,102,1,1,1.0,1.0,0.305035056837,0,0.0,0.0,0.0,0.292240827873,0.0610230755917,0.231217752282,0.353263903465,0.0610230755917,0.305518675169,426,0.156193047225,0.446210853967,-0.81485970128,nan,nan,nan,nan,nan,nan,nan,nan,342.805705461,472.097684819,nan,472.402719876,nan,nan,nan,nan
1,103,1,1,1.0,1.0,0.291234971548,0,0.0,0.0,0.0,0.292366261491,0.0607362893985,0.231629972092,0.353102550889,0.0607362893985,0.307707739451,381,-0.105403061426,0.478425078289,-0.188431136224,nan,nan,nan,nan,nan,nan,nan,nan,342.805705461,473.039476997,nan,473.330711968,nan,nan,nan,nan
1,104,1,1,1.0,1.0,0.293423655618,0,0.0,0.0,0.0,0.292355278093,0.0604408357168,0.231914442376,0.35279611381,0.0604408357168,0.296564561334,183,1.0,-0.113108999915,0.354902835149,nan,nan,nan,nan,nan,nan,nan,nan,342.805705461,473.981272311,nan,474.274695966,nan,nan,nan,nan
1,105,1,1,1.0,1.0,0.303608720191,0,0.0,0.0,0.0,0.292365550954,0.0601496432415,0.232215907713,0.352515194196,0.0601496432415,0.296089115785,346,-0.174317561957,0.466431294057,0.176670174816,nan,nan,nan,nan,nan,nan,nan,nan,342.805705461,474.923062208,nan,475.226670928,nan,nan,nan,nan
1,106,1,1,0.0,0.0,0.385781735415,0,0.0,0.0,0.0,0.292472628756,0.0598724900257,0.232600138731,0.352345118782,0.0598724900257,0.327604703741,167,1.0,-0.195605812978,0.221546716301,nan,nan,nan,nan,nan,nan,nan,nan,342.805705461,475.864860658,nan,476.250642393,nan,nan,nan,nan
1,107,1,1,1.0,1.0,0.260027477576,0,0.0,0.0,0.0,0.293352903347,0.0602682316615,0.233084671686,0.353621135009,0.0602682316615,0.316472644394,245,0.600577697281,0.210610106048,0.650172825369,nan,nan,nan,nan,nan,nan,nan,nan,342.805705461,476.806613207,nan,477.066640685,nan,nan,nan,nan
1,108,0,0,1.0,0.0,0.286169951025,0,0.0,0.0,0.0,0.29304145077,0.0600715879752,0.232969862795,0.353113038745,0.0600715879752,0.310659721339,169,1.0,-0.185917379452,0.239118302078,nan,nan,nan,nan,nan,nan,nan,nan,342.805705461,477.748439597,nan,478.034609548,nan,nan,nan,nan
1,109,1,1,1.0,1.0,0.352334810188,0,0.0,0.0,0.0,0.292977825772,0.059796453991,0.233181371781,0.352774279763,0.059796453991,0.299510746263,371,-0.14179360683,0.478331938097,-0.0779732583494,nan,nan,nan,nan,nan,nan,nan,nan,342.805705461,478.690238332,nan,479.042573142,nan,nan,nan,nan
1,110,1,1,1.0,1.0,0.394595201826,0,0.0,0.0,0.0,0.293522385262,0.0597899570023,0.23373242826,0.353312342265,0.0597899570023,0.344366654346,86,1.0,-0.21659106269,-0.625617802914,nan,nan,nan,nan,nan,nan,nan,nan,342.805705461,479.632035927,nan,480.026631129,nan,nan,nan,nan
1,111,1,1,1.0,1.0,0.30071128672,0,0.0,0.0,0.0,0.294441229049,0.0602857054199,0.23415552363,0.354726934469,0.0602857054199,0.349213766245,421,0.121471671064,0.452518040197,-0.712610339232,nan,nan,nan,nan,nan,nan,nan,nan,342.805705461,480.573826109,nan,480.874537396,nan,nan,nan,nan
1,112,1,1,1.0,1.0,0.278899425699,0,0.0,0.0,0.0,0.294497716055,0.0600164579548,0.234481258101,0.35451417401,0.0600164579548,0.324735304748,229,0.770397026975,0.135265939772,0.614681466938,nan,nan,nan,nan,nan,nan,nan,nan,342.805705461,481.515621993,nan,481.794521419,nan,nan,nan,nan
1,113,1,1,1.0,1.0,0.27308317658,0,0.0,0.0,0.0,0.294358445606,0.0597659411121,0.234592504494,0.354124386718,0.0597659411121,0.284231296333,460,0.415848916989,0.383334931935,-1.0,nan,nan,nan,nan,nan,nan,nan,nan,342.805705461,482.457413031,nan,482.730496207,nan,nan,nan,nan
1,114,1,1,1.0,1.0,0.299256155267,0,0.0,0.0,0.0,0.294170168889,0.0595342554578,0.234635913431,0.353704424347,0.0595342554578,0.283746252516,172,1.0,-0.170984061773,0.265024678188,nan,nan,nan,nan,nan,nan,nan,nan,342.805705461,483.399204353,nan,483.698460509,nan,nan,nan,nan
1,115,1,1,1.0,1.0,0.309440649638,0,0.0,0.0,0.0,0.294214782804,0.059274462423,0.234940320381,0.353489245227,0.059274462423,0.293926660495,317,-0.077772836126,0.429938605076,0.420733606481,nan,nan,nan,nan,nan,nan,nan,nan,342.805705461,484.340996531,nan,484.650437181,nan,nan,nan,nan
1,116,1,1,1.0,1.0,0.359623866796,0,0.0,0.0,0.0,0.294347181646,0.0590331128321,0.235314068814,0.353380294479,0.0590331128321,0.322773557234,253,0.513865899396,0.244839928328,0.655977188727,nan,nan,nan,nan,nan,nan,nan,nan,342.805705461,485.282793271,nan,485.642417138,nan,nan,nan,nan
1,117,1,1,1.0,1.0,0.305808808189,0,0.0,0.0,0.0,0.294909911691,0.0590870762823,0.235822835409,0.353996987973,0.0590870762823,0.324957774874,374,-0.132039125116,0.478634076427,-0.110628443238,nan,nan,nan,nan,nan,nan,nan,nan,342.805705461,486.224590295,nan,486.530399103,nan,nan,nan,nan
1,118,1,1,1.0,1.0,0.332011722028,0,0.0,0.0,0.0,0.295003064652,0.0588425793837,0.236160485269,0.353845644036,0.0588425793837,0.332481465671,324,-0.114799643766,0.441158325109,0.368064040095,nan,nan,nan,nan,nan,nan,nan,nan,342.805705461,487.166376771,nan,487.498388493,nan,nan,nan,nan
1,119,1,1,1.0,1.0,0.294187143503,0,0.0,0.0,0.0,0.295316697342,0.0586908435654,0.236625853777,0.354007540907,0.0586908435654,0.310669224573,464,0.448404880525,0.373503555275,-1.0,nan,nan,nan,nan,nan,nan,nan,nan,342.805705461,488.1081718,nan,488.402358944,nan,nan,nan,nan
1,120,1,1,1.0,1.0,0.304375344072,0,0.0,0.0,0.0,0.295307205293,0.058443814083,0.23686339121,0.353751019376,0.058443814083,0.310191403201,59,1.0,-0.0814409933332,-1.0,nan,nan,nan,nan,nan,nan,nan,nan,342.805705461,489.049959987,nan,489.354335331,nan,nan,nan,nan
1,121,1,1,1.0,1.0,0.282553504745,0,0.0,0.0,0.0,0.295382773116,0.0582056265196,0.237177146596,0.353588399636,0.0582056265196,0.293705330774,325,-0.119404900653,0.442631039184,0.360186421743,nan,nan,nan,nan,nan,nan,nan,nan,342.805705461,489.991760147,nan,490.274313652,nan,nan,nan,nan
1,122,1,1,1.0,1.0,0.260737937526,0,0.0,0.0,0.0,0.295276746105,0.057976243703,0.237300502402,0.353252989808,0.057976243703,0.282555595448,419,0.107894673663,0.454841969249,-0.678098861371,nan,nan,nan,nan,nan,nan,nan,nan,342.805705461,490.933554606,nan,491.194292544,nan,nan,nan,nan
1,123,1,1,1.0,1.0,0.518926258956,0,0.0,1.0,0.0,0.294993641116,0.0578220685146,0.237171572602,0.352815709631,0.0578220685146,0.354072567075,97,1.0,-0.260369742894,-0.491718830742,nan,nan,nan,nan,nan,nan,nan,nan,342.805705461,491.875344218,nan,492.394270477,nan,nan,nan,nan
1,124,1,1,1.0,1.0,0.369097901217,1,0.0,0.0,1.0,0.296814231505,0.0609965948571,0.235817636648,0.357810826362,0.0609965948571,0.382920699233,409,0.0429436170054,0.464793150178,-0.529461854507,-177.697891708,267.697891708,-19.8802332924,381.0,-0.105403061426,0.478425078289,-0.188431136224,2.80903110886,342.805705461,492.817140387,493.625557114,493.186238289,497.467719261,498.465004859,494.642326477,497.459391314
1,125,1,1,1.0,1.0,0.45648903359,0,0.0,0.0,0.0,0.297397164326,0.0610931795092,0.236303984816,0.358490343835,0.0610931795092,0.448171064587,247,0.578947625354,0.219392674348,0.6523805853,nan,nan,nan,nan,nan,nan,nan,nan,342.805705461,498.609609113,nan,499.066098147,nan,nan,nan,nan
1,126,1,1,1.0,1.0,0.418713206542,0,0.0,0.0,0.0,0.29866989928,0.0624770317681,0.236192867512,0.361146931048,0.0624770317681,0.414766713783,147,1.0,-0.275801134503,0.0346720467303,nan,nan,nan,nan,nan,nan,nan,nan,342.805705461,499.551377343,nan,499.970090549,nan,nan,nan,nan
1,127,1,1,1.0,1.0,0.42090417142,0,0.0,1.0,0.0,0.299622623941,0.0631336743038,0.236488949637,0.362756298244,0.0631336743038,0.432035470517,402,0.000724920831492,0.470139955471,-0.437811562499,nan,nan,nan,nan,nan,nan,nan,nan,342.805705461,500.493170946,nan,500.914075118,nan,nan,nan,nan
1,128,1,1,1.0,1.0,0.351076395251,1,0.0,0.0,1.0,0.300577596755,0.0637917291492,0.236785867606,0.364369325905,0.0637917291492,0.396897924404,479,0.572572153349,0.331768222426,-1.0,155.205115883,294.794884117,-42.0019908828,419.0,0.107894673663,0.454841969249,-0.678098861371,1.93386707158,342.805705461,501.434966545,502.243384127,501.786042941,505.218744111,506.218031655,503.268507666,505.210413883
1,129,1,1,1.0,1.0,0.465319890878,0,0.0,0.0,0.0,0.300972118619,0.0636974086788,0.23727470994,0.364669527297,0.0636974086788,0.41243348585,159,1.0,-0.231765974528,0.149055008463,nan,nan,nan,nan,nan,nan,nan,nan,342.805705461,506.360627406,nan,506.825947297,nan,nan,nan,nan
1,130,1,1,1.0,1.0,0.347487033112,0,0.0,0.0,0.0,0.302246132357,0.0650666249241,0.237179507433,0.367312757281,0.0650666249241,0.387961106414,468,0.481236483515,0.363131620867,-1.0,nan,nan,nan,nan,nan,nan,nan,nan,342.805705461,507.302424715,nan,507.649911748,nan,nan,nan,nan
1,131,1,1,1.0,1.0,0.341640848841,0,0.0,1.0,0.0,0.302594139286,0.0649362923029,0.237657846983,0.367530431589,0.0649362923029,0.384815924277,369,-0.147694689129,0.477999187239,-0.0564338676883,nan,nan,nan,nan,nan,nan,nan,nan,342.805705461,508.244219459,nan,508.585860308,nan,nan,nan,nan
1,132,0,0,0.0,1.0,0.43185044307,1,0.0,0.0,1.0,0.302892205771,0.0647771797155,0.238115026056,0.367669385487,0.0647771797155,0.373659441674,58,1.0,-0.0760896648475,-1.0,46.193489424,43.806510576,3.02526057602,62.0,1.0,-0.0974372467467,-1.0,2.31727908674,342.805705461,509.186009071,509.994426368,509.617859514,513.344837633,514.345438901,511.011190029,513.336503984
1,133,1,1,1.0,1.0,0.427034026536,0,0.0,0.0,0.0,0.303869162114,0.0654929509831,0.238376211131,0.369362113097,0.0654929509831,0.400175106149,253,0.513865899396,0.244839928328,0.655977188727,nan,nan,nan,nan,nan,nan,nan,nan,342.805705461,514.486718077,nan,514.913752104,nan,nan,nan,nan
1,134,1,1,1.0,1.0,0.333133575914,0,0.0,0.0,0.0,0.304795213726,0.0661080592817,0.238687154445,0.370903273008,0.0661080592817,0.397339348507,118,1.0,-0.308588151016,-0.261285249573,nan,nan,nan,nan,nan,nan,nan,nan,342.805705461,515.428588371,nan,515.761721947,nan,nan,nan,nan
1,135,1,1,1.0,1.0,0.319398492516,0,0.0,0.0,0.0,0.305006694041,0.0659060679114,0.23910062613,0.370912761953,0.0659060679114,0.359855364989,173,1.0,-0.165909522591,0.273535192888,nan,nan,nan,nan,nan,nan,nan,nan,342.805705461,516.370305854,nan,516.689704347,nan,nan,nan,nan
1,136,1,1,1.0,1.0,0.329562744999,0,0.0,0.0,0.0,0.305113299956,0.0656731131152,0.239440186841,0.370786413071,0.0656731131152,0.32736493781,122,1.0,-0.311159539646,-0.219144224573,nan,nan,nan,nan,nan,nan,nan,nan,342.805705461,517.312117419,nan,517.641680164,nan,nan,nan,nan
1,137,1,1,1.0,1.0,0.307749173429,0,0.0,0.0,0.0,0.305293075287,0.0654645549076,0.239828520379,0.370757630195,0.0654645549076,0.318903470315,363,-0.162287729338,0.476365729747,0.00704812682028,nan,nan,nan,nan,nan,nan,nan,nan,342.805705461,518.25389078,nan,518.561639954,nan,nan,nan,nan
1,138,1,1,1.0,1.0,0.357965461735,0,0.0,0.0,0.0,0.305311003011,0.0652255306629,0.240085472348,0.370536533674,0.0652255306629,0.331759126721,193,1.0,-0.0580453890011,0.428658791268,nan,nan,nan,nan,nan,nan,nan,nan,342.805705461,519.195668703,nan,519.553634165,nan,nan,nan,nan
1,139,1,1,1.0,1.0,0.384130457765,0,0.0,0.0,0.0,0.305692557059,0.0651420449605,0.240550512099,0.37083460202,0.0651420449605,0.34994836431,358,-0.170583909915,0.474268316859,0.0585874414746,nan,nan,nan,nan,nan,nan,nan,nan,342.805705461,520.137478272,nan,520.52160873,nan,nan,nan,nan
1,140,0,0,0.0,1.0,0.466336829297,0,0.0,0.0,0.0,0.306256858503,0.0652449348971,0.241011923606,0.371501793401,0.0652449348971,0.402810916266,251,0.535576518695,0.236509187076,0.655284151108,nan,nan,nan,nan,nan,nan,nan,nan,342.805705461,521.079258476,nan,521.545595305,nan,nan,nan,nan
1,141,1,1,1.0,1.0,0.340511297341,0,0.0,0.0,0.0,0.307400286866,0.0663944850175,0.241005801849,0.373794771884,0.0663944850175,0.396992861468,5,0.88714030954,0.190659852496,-1.0,nan,nan,nan,nan,nan,nan,nan,nan,342.805705461,522.021064339,nan,522.361575636,nan,nan,nan,nan
1,142,1,1,1.0,1.0,0.326684127911,0,0.0,0.0,0.0,0.307635116728,0.0662169458965,0.241418170831,0.373852062624,0.0662169458965,0.37784408485,458,0.399688045963,0.388050214986,-1.0,nan,nan,nan,nan,nan,nan,nan,nan,342.805705461,522.962872482,nan,523.28955661,nan,nan,nan,nan
1,143,1,1,1.0,1.0,0.272870494751,0,0.0,0.0,0.0,0.307769264694,0.0660026003918,0.241766664302,0.373771865086,0.0660026003918,0.313355306668,39,1.0,0.0253789930673,-1.0,nan,nan,nan,nan,nan,nan,nan,nan,342.805705461,523.904659528,nan,524.177530023,nan,nan,nan,nan
1,144,1,1,1.0,1.0,0.283062971779,0,0.0,0.0,0.0,0.307525217352,0.0658356796316,0.24168953772,0.373360896983,0.0658356796316,0.294205864814,462,0.432089675478,0.378486360879,-1.0,nan,nan,nan,nan,nan,nan,nan,nan,342.805705461,524.846439162,nan,525.129502134,nan,nan,nan,nan
1,145,0,0,1.0,0.0,0.277243871649,0,0.0,0.0,0.0,0.307355340646,0.0656381280937,0.241717212553,0.37299346874,0.0656381280937,0.277725779393,211,0.948675772315,0.0413606888024,0.538689155053,nan,nan,nan,nan,nan,nan,nan,nan,342.805705461,525.788245309,nan,526.065489181,nan,nan,nan,nan
1,146,1,1,1.0,1.0,0.247435345198,0,0.0,0.0,0.0,0.307147675343,0.0654588495767,0.241688825766,0.372606524919,0.0654588495767,0.269247396209,96,1.0,-0.25681952169,-0.503302481145,nan,nan,nan,nan,nan,nan,nan,nan,342.805705461,526.730038628,nan,526.977473973,nan,nan,nan,nan
1,147,0,0,0.0,1.0,0.393600215728,0,0.0,0.0,0.0,0.30673868678,0.065419928259,0.241318758521,0.372158615039,0.065419928259,0.306093144192,317,-0.077772836126,0.429938605076,0.420733606481,nan,nan,nan,nan,nan,nan,nan,nan,342.805705461,527.671847911,nan,528.065448127,nan,nan,nan,nan
1,148,1,1,1.0,1.0,0.235817956913,0,0.0,0.0,0.0,0.307329581535,0.0655868113063,0.241742770229,0.372916392841,0.0655868113063,0.292284505946,75,1.0,-0.164714458691,-0.791355921409,nan,nan,nan,nan,nan,nan,nan,nan,342.805705461,528.613609869,nan,528.849427826,nan,nan,nan,nan
1,149,1,1,1.0,1.0,0.269993588212,0,0.0,0.0,0.0,0.306846394882,0.0656268599294,0.241219534953,0.372473254811,0.0656268599294,0.299803920284,460,0.415848916989,0.383334931935,-1.0,nan,nan,nan,nan,nan,nan,nan,nan,342.805705461,529.555409174,nan,529.825402763,nan,nan,nan,nan
1,150,1,1,1.0,1.0,0.264117183688,0,0.0,0.0,0.0,0.306599060609,0.0654754401692,0.24112362044,0.372074500778,0.0654754401692,0.256642909604,280,0.228089347314,0.342018854333,0.61587222022,nan,nan,nan,nan,nan,nan,nan,nan,342.805705461,530.497220739,nan,530.761337923,nan,nan,nan,nan
1,151,1,1,1.0,1.0,0.28234395897,0,0.0,0.0,0.0,0.306315848096,0.0653483299968,0.240967518099,0.371664178093,0.0653483299968,0.272151576957,351,-0.175686286722,0.4701852659,0.128489978773,nan,nan,nan,nan,nan,nan,nan,nan,342.805705461,531.438998947,nan,531.721342906,nan,nan,nan,nan
1,152,1,1,1.0,1.0,0.27650433185,0,0.0,0.0,0.0,0.306157093864,0.0651606004161,0.240996493448,0.37131769428,0.0651606004161,0.274321824836,224,0.821619416966,0.11002478857,0.597264883709,nan,nan,nan,nan,nan,nan,nan,nan,342.805705461,532.380793691,nan,532.657298023,nan,nan,nan,nan
1,153,1,1,1.0,1.0,0.278684463119,0,0.0,0.0,0.0,0.305962009903,0.0649901299365,0.240971879967,0.370952139839,0.0649901299365,0.279177584647,114,1.0,-0.303747463913,-0.303859371662,nan,nan,nan,nan,nan,nan,nan,nan,342.805705461,533.322586439,nan,533.601270902,nan,nan,nan,nan
1,154,1,1,1.0,1.0,0.320912638796,0,0.0,0.0,0.0,0.305783725284,0.0648146771758,0.240969048108,0.370598402459,0.0648146771758,0.292033811255,451,0.343830962376,0.403518361206,-1.0,nan,nan,nan,nan,nan,nan,nan,nan,342.805705461,534.264378902,nan,534.585291541,nan,nan,nan,nan
1,155,1,1,1.0,1.0,0.283091196325,0,0.0,0.0,0.0,0.305881964982,0.0646153243407,0.241266640641,0.370497289322,0.0646153243407,0.294229432746,276,0.268710435127,0.329430325417,0.627563005949,nan,nan,nan,nan,nan,nan,nan,nan,342.805705461,535.206175071,nan,535.489266268,nan,nan,nan,nan
1,156,1,1,1.0,1.0,0.333287527843,0,0.0,0.0,0.0,0.305734927765,0.0644323926524,0.241302535112,0.370167320417,0.0644323926524,0.312430454321,203,1.0,-0.00249325098487,0.493674673203,nan,nan,nan,nan,nan,nan,nan,nan,342.805705461,536.147958696,nan,536.481246224,nan,nan,nan,nan
1,157,1,1,1.0,1.0,0.327463866211,0,0.0,0.0,0.0,0.305911546996,0.0642631772881,0.241648369708,0.370174724284,0.0642631772881,0.314614196793,43,1.0,0.00424534395127,-1.0,nan,nan,nan,nan,nan,nan,nan,nan,342.805705461,537.089761138,nan,537.417225004,nan,nan,nan,nan
1,158,1,1,1.0,1.0,0.297643080528,0,0.0,0.0,0.0,0.306048822914,0.064081132534,0.24196769038,0.370129955448,0.064081132534,0.319464824861,383,-0.0968787136249,0.478131214543,-0.211081409456,nan,nan,nan,nan,nan,nan,nan,nan,342.805705461,538.031562154,nan,538.329205234,nan,nan,nan,nan
1,159,1,1,1.0,1.0,0.235829075682,0,0.0,0.0,0.0,0.305995622013,0.063881500371,0.242114121642,0.369877122384,0.063881500371,0.286978674141,36,1.0,0.0410699577143,-1.0,nan,nan,nan,nan,nan,nan,nan,nan,342.805705461,538.97334863,nan,539.209177705,nan,nan,nan,nan
1,160,1,1,1.0,1.0,0.510025838274,0,0.0,0.0,0.0,0.30555432298,0.0639214367425,0.241632886237,0.369475759722,0.0639214367425,0.347832664828,380,-0.109519508899,0.478533032186,-0.177177385375,nan,nan,nan,nan,nan,nan,nan,nan,342.805705461,539.915137386,nan,540.425163225,nan,nan,nan,nan
1,161,0,0,0.0,1.0,0.504187921761,0,0.0,0.0,0.0,0.30683226995,0.0657273420453,0.241104927905,0.372559611996,0.0657273420453,0.416680945239,255,0.492159363509,0.253017189294,0.656163111527,nan,nan,nan,nan,nan,nan,nan,nan,342.805705461,540.85693213,nan,541.361120052,nan,nan,nan,nan
1,162,1,1,1.0,1.0,0.322389152425,0,0.0,0.0,0.0,0.308058081452,0.0673325247539,0.240725556698,0.375390606206,0.0673325247539,0.445534304153,143,1.0,-0.287057525782,-0.00469998909502,nan,nan,nan,nan,nan,nan,nan,nan,342.805705461,541.798724878,nan,542.121114031,nan,nan,nan,nan
1,163,1,1,1.0,1.0,0.284570846008,0,0.0,0.0,0.0,0.308146544853,0.0671337711499,0.241012773703,0.375280316003,0.0671337711499,0.370382640065,385,-0.0879796604702,0.477733444059,-0.233926720364,nan,nan,nan,nan,nan,nan,nan,nan,342.805705461,542.740517912,nan,543.025088758,nan,nan,nan,nan
1,164,1,1,1.0,1.0,0.238756444247,0,0.0,0.0,0.0,0.308001908664,0.0669528360113,0.241049072653,0.374954744675,0.0669528360113,0.281905480893,438,0.243622561222,0.428096439079,-1.0,nan,nan,nan,nan,nan,nan,nan,nan,342.805705461,543.682309234,nan,543.921065679,nan,nan,nan,nan
1,165,1,1,1.0,1.0,0.376945461379,0,0.0,0.0,0.0,0.307579680222,0.0669657221963,0.240613958026,0.374545402419,0.0669657221963,0.300090917211,55,1.0,-0.0599996532909,-1.0,nan,nan,nan,nan,nan,nan,nan,nan,342.805705461,544.624103123,nan,545.001048584,nan,nan,nan,nan
1,166,1,1,1.0,1.0,0.187129499565,0,0.0,0.0,0.0,0.308000078896,0.0669792077188,0.241020871177,0.374979286615,0.0669792077188,0.267610468397,436,0.228681708805,0.431413732101,-1.0,nan,nan,nan,nan,nan,nan,nan,nan,342.805705461,545.565897011,nan,545.753026511,nan,nan,nan,nan
1,167,1,1,1.0,1.0,0.189330157766,0,0.0,0.0,0.0,0.307271942876,0.0674289916875,0.239842951189,0.374700934564,0.0674289916875,0.25113503957,327,-0.128086156831,0.445480682368,0.344176439252,nan,nan,nan,nan,nan,nan,nan,nan,342.805705461,546.50769033,nan,546.697020487,nan,nan,nan,nan
1,168,1,1,1.0,1.0,0.295502007531,0,1.0,0.0,0.0,0.306565704642,0.0678398082487,0.238725896393,0.374405512891,0.0678398082487,0.223987221621,399,-0.0164460389312,0.472031251936,-0.400274523968,nan,nan,nan,nan,nan,nan,nan,nan,342.805705461,547.449480797,nan,547.744982804,nan,nan,nan,nan
1,169,1,1,1.0,1.0,0.297688125749,1,0.0,0.0,1.0,0.306499849302,0.0676429565187,0.238856892783,0.374142805821,0.0676429565187,0.260840097015,483,0.606025706087,0.319314454546,-1.0,132.369887337,317.630112663,-21.9792623366,452.0,0.351738073422,0.401406211611,-1.0,4.05084350007,342.805705461,548.391278392,549.199691127,548.688966517,554.292003591,555.29453097,550.224793854,554.283672508
1,170,0,0,0.0,1.0,0.462916529214,0,0.0,0.0,0.0,0.306447708926,0.0674459184711,0.239001790455,0.373893627397,0.0674459184711,0.352035554165,339,-0.164955840019,0.45996923152,0.241423096872,nan,nan,nan,nan,nan,nan,nan,nan,342.805705461,555.433885175,nan,555.896801704,nan,nan,nan,nan
1,171,1,1,1.0,1.0,0.361074436631,0,0.0,0.0,0.0,0.307368113751,0.0683034471302,0.239064666621,0.375671560881,0.0683034471302,0.373893030531,66,1.0,-0.118568705386,-1.0,nan,nan,nan,nan,nan,nan,nan,nan,342.805705461,556.375697025,nan,556.736771461,nan,nan,nan,nan
1,172,1,1,1.0,1.0,0.307289028016,0,0.0,0.0,0.0,0.307682185815,0.0682264398312,0.239455745984,0.375908625646,0.0682264398312,0.377093331287,291,0.122027637739,0.373441943191,0.573791926984,nan,nan,nan,nan,nan,nan,nan,nan,342.805705461,557.317473237,nan,557.624762265,nan,nan,nan,nan
1,173,1,1,1.0,1.0,0.605463242973,0,0.0,1.0,0.0,0.307679900014,0.0680278246088,0.239652075405,0.375707724622,0.0680278246088,0.42460890254,470,0.497741612616,0.357740777197,-1.0,nan,nan,nan,nan,nan,nan,nan,nan,342.805705461,558.259271687,nan,558.86473493,nan,nan,nan,nan
1,174,1,1,1.0,1.0,0.518953058054,1,0.0,0.0,1.0,0.309401191013,0.0714887660025,0.237912425011,0.380889957016,0.0714887660025,0.477235109681,250,0.546428449327,0.232286661223,0.654747725831,-101.959762222,191.959762222,16.1785122219,273.0,0.299732959835,0.319577193062,0.635038033336,2.76734433102,342.805705461,559.21774941,560.026147035,559.736702468,563.834954913,564.841555748,561.051240354,563.826617558
1,175,1,1,1.0,1.0,0.415364750777,0,0.0,0.0,0.0,0.310605512088,0.0730218425526,0.237583669536,0.383627354641,0.0730218425526,0.513260350601,19,0.99625917486,0.126374530333,-1.0,nan,nan,nan,nan,nan,nan,nan,nan,342.805705461,564.985198657,nan,565.400563407,nan,nan,nan,nan
1,176,1,1,1.0,1.0,0.353601207898,0,0.0,0.0,0.0,0.311204136309,0.0732398313914,0.237964304918,0.384443967701,0.0732398313914,0.42930633891,376,-0.124962824795,0.478704673615,-0.132627625282,nan,nan,nan,nan,nan,nan,nan,nan,342.805705461,565.926958333,nan,566.280559541,nan,nan,nan,nan
1,177,1,1,1.0,1.0,0.331773381564,0,0.0,0.0,0.0,0.311445028762,0.0731009597794,0.238344068982,0.384545988541,0.0731009597794,0.366913113413,317,-0.077772836126,0.429938605076,0.420733606481,nan,nan,nan,nan,nan,nan,nan,nan,342.805705461,566.868755358,nan,567.20052874,nan,nan,nan,nan
1,178,1,1,1.0,1.0,0.309975490265,0,0.0,0.0,0.0,0.311559878212,0.0729100894983,0.238649788714,0.384469967711,0.0729100894983,0.331783359909,400,-0.0107874812989,0.471427301814,-0.412692688905,nan,nan,nan,nan,nan,nan,nan,nan,342.805705461,567.810542119,nan,568.120517609,nan,nan,nan,nan
1,179,1,1,1.0,1.0,0.264152250544,0,0.0,0.0,0.0,0.311550977157,0.0727050938608,0.238845883296,0.384256071017,0.0727050938608,0.301967040791,40,1.0,0.0201165467467,-1.0,nan,nan,nan,nan,nan,nan,nan,nan,342.805705461,568.752337148,nan,569.016489399,nan,nan,nan,nan
1,180,1,1,1.0,1.0,0.306342793512,0,0.0,0.0,0.0,0.311286179801,0.0725877449402,0.238698434861,0.383873924741,0.0725877449402,0.293490178107,85,1.0,-0.212156452387,-0.638781227021,nan,nan,nan,nan,nan,nan,nan,nan,342.805705461,569.694131607,nan,570.0004744,nan,nan,nan,nan
1,181,1,1,1.0,1.0,0.28452380508,0,0.0,0.0,0.0,0.311258716544,0.0723867640365,0.238871952508,0.38364548058,0.0723867640365,0.285006283045,500,0.748145934353,0.260058294274,-1.0,nan,nan,nan,nan,nan,nan,nan,nan,342.805705461,570.635929201,nan,570.920453007,nan,nan,nan,nan
1,182,1,1,1.0,1.0,0.294712575909,0,0.0,0.0,0.0,0.311111009851,0.0722137196354,0.238897290215,0.383324729486,0.0722137196354,0.295193058167,105,1.0,-0.285049837405,-0.401580786678,nan,nan,nan,nan,nan,nan,nan,nan,342.805705461,571.577721094,nan,571.87243367,nan,nan,nan,nan
1,183,1,1,1.0,1.0,0.320878427243,0,0.0,0.0,0.0,0.311020908565,0.0720252583543,0.238995650211,0.38304616692,0.0720252583543,0.300038269411,205,1.0,0.00854800403903,0.505535240796,nan,nan,nan,nan,nan,nan,nan,nan,342.805705461,572.519514983,nan,572.84039341,nan,nan,nan,nan
1,184,1,1,1.0,1.0,0.331079742289,0,0.0,0.0,0.0,0.311074774788,0.071831874394,0.239242900394,0.382906649182,0.071831874394,0.315556915147,86,1.0,-0.21659106269,-0.625617802914,nan,nan,nan,nan,nan,nan,nan,nan,342.805705461,573.461308016,nan,573.792387758,nan,nan,nan,nan
1,185,1,1,1.0,1.0,0.309265600517,0,0.0,0.0,0.0,0.311183497437,0.0716515098327,0.239531987604,0.38283500727,0.0716515098327,0.32040792335,340,-0.166837174664,0.460980112934,0.232376404312,nan,nan,nan,nan,nan,nan,nan,nan,342.805705461,574.403096203,nan,574.712361803,nan,nan,nan,nan
1,186,1,1,1.0,1.0,0.311436608725,0,0.0,0.0,0.0,0.311173130427,0.0714577330722,0.239715397355,0.382630863499,0.0714577330722,0.31726065051,410,0.0492046846968,0.463921527344,-0.54316189137,nan,nan,nan,nan,nan,nan,nan,nan,342.805705461,575.344890661,nan,575.65632727,nan,nan,nan,nan
1,187,1,1,1.0,1.0,0.321643340518,0,0.0,0.0,0.0,0.311174546977,0.0712653861137,0.239909160863,0.38243993309,0.0712653861137,0.314115183253,199,1.0,-0.0246761787097,0.468786302982,nan,nan,nan,nan,nan,nan,nan,nan,342.805705461,576.286675997,nan,576.608319337,nan,nan,nan,nan
1,188,1,1,1.0,1.0,0.29181343189,0,0.0,0.0,0.0,0.31123052983,0.0710786823018,0.240151847528,0.382309212132,0.0710786823018,0.308297793711,437,0.23613482661,0.429770237144,-1.0,nan,nan,nan,nan,nan,nan,nan,nan,342.805705461,577.228483285,nan,577.520296717,nan,nan,nan,nan
1,189,0,0,1.0,0.0,0.286012292781,0,0.0,0.0,0.0,0.311127247394,0.0709034594551,0.240223787939,0.382030706849,0.0709034594551,0.29982302173,510,0.830554458933,0.220436700166,-1.0,nan,nan,nan,nan,nan,nan,nan,nan,342.805705461,578.170272327,nan,578.45628462,nan,nan,nan,nan
1,190,1,1,1.0,1.0,0.23219865968,0,0.0,0.0,0.0,0.310994364036,0.0707391036862,0.24025526035,0.381733467723,0.0707391036862,0.270008128117,290,0.131265381085,0.370776544741,0.578206616232,nan,nan,nan,nan,nan,nan,nan,nan,342.805705461,579.112066215,nan,579.344264875,nan,nan,nan,nan
1,191,1,1,1.0,1.0,0.266241721169,0,0.0,0.0,0.0,0.310579649803,0.070782692454,0.239796957349,0.381362342257,0.070782692454,0.261484224543,508,0.814199817736,0.228638933499,-1.0,nan,nan,nan,nan,nan,nan,nan,nan,342.805705461,580.053994669,nan,580.32023639,nan,nan,nan,nan
1,192,0,0,0.0,1.0,0.444553763024,0,0.0,0.0,0.0,0.310347514051,0.0706696308433,0.239677883208,0.381017144894,0.0706696308433,0.314331381291,176,1.0,-0.150429669724,0.298675466069,nan,nan,nan,nan,nan,nan,nan,nan,342.805705461,580.995652282,nan,581.440206045,nan,nan,nan,nan
1,193,1,1,1.0,1.0,0.318743341195,0,0.0,0.0,0.0,0.311046504931,0.0711442593474,0.239902245584,0.382190764278,0.0711442593474,0.343179608462,425,0.149162615564,0.447529597292,-0.791715667876,nan,nan,nan,nan,nan,nan,nan,nan,342.805705461,581.93744389,nan,582.256187231,nan,nan,nan,nan
1,194,1,1,1.0,1.0,0.304931281833,0,0.0,0.0,0.0,0.311086384912,0.0709618600345,0.240124524877,0.382048244946,0.0709618600345,0.356076128684,136,1.0,-0.301914900238,-0.074841205769,nan,nan,nan,nan,nan,nan,nan,nan,342.805705461,582.879236353,nan,583.184167634,nan,nan,nan,nan
1,195,1,1,1.0,1.0,0.307122816914,0,0.0,0.0,0.0,0.311054657576,0.07078010477,0.240274552806,0.381834762346,0.07078010477,0.310265813314,329,-0.136053278316,0.448203788942,0.3278337444,nan,nan,nan,nan,nan,nan,nan,nan,342.805705461,583.821026535,nan,584.128149352,nan,nan,nan,nan
1,196,1,1,1.0,1.0,0.309300667373,0,0.0,0.0,0.0,0.311034494291,0.0705989426431,0.240435551648,0.381633436934,0.0705989426431,0.307118255373,372,-0.138660017671,0.478458869494,-0.0888123791441,nan,nan,nan,nan,nan,nan,nan,nan,342.805705461,584.762820138,nan,585.072120806,nan,nan,nan,nan
1,197,0,0,1.0,0.0,0.295470361831,0,0.0,0.0,0.0,0.311025648235,0.07041872134,0.240606926895,0.381444369575,0.07041872134,0.303964615373,201,1.0,-0.0135712615467,0.48142235136,nan,nan,nan,nan,nan,nan,nan,nan,342.805705461,585.704616593,nan,586.000086954,nan,nan,nan,nan
1,198,1,1,1.0,1.0,0.193710662017,0,0.0,0.0,0.0,0.31094668739,0.0702484646381,0.240698222752,0.381195152028,0.0702484646381,0.26616056374,457,0.391639248186,0.390358177281,-1.0,nan,nan,nan,nan,nan,nan,nan,nan,342.805705461,586.646383682,nan,586.840094344,nan,nan,nan,nan
1,199,1,1,1.0,1.0,0.267868480529,0,0.0,0.0,0.0,0.310354586252,0.0705619466548,0.239792639597,0.380916532907,0.0705619466548,0.252349834792,314,-0.0594438881467,0.42463230952,0.441925406839,nan,nan,nan,nan,nan,nan,nan,nan,342.805705461,587.58819097,nan,587.856059451,nan,nan,nan,nan
1,200,1,1,1.0,1.0,0.270039203577,0,0.0,0.0,0.0,0.310141088233,0.0704485158957,0.239692572338,0.380589604129,0.0704485158957,0.243872782041,496,0.714833717156,0.274923884212,-1.0,nan,nan,nan,nan,nan,nan,nan,nan,342.805705461,588.529997403,nan,588.800036606,nan,nan,nan,nan
1,201,1,1,1.0,1.0,0.288222929288,0,0.0,0.0,0.0,0.30994057881,0.0703290766802,0.23961150213,0.38026965549,0.0703290766802,0.275376871131,387,-0.0787219327085,0.477231755363,-0.256974454483,nan,nan,nan,nan,nan,nan,nan,nan,342.805705461,589.47178787,nan,589.760010799,nan,nan,nan,nan
1,202,1,1,1.0,1.0,0.306399527646,0,0.0,0.0,0.0,0.309832530802,0.0701705497002,0.239661981102,0.380003080503,0.0701705497002,0.288220553504,433,0.206536295144,0.436163724167,-1.0,nan,nan,nan,nan,nan,nan,nan,nan,342.805705461,590.413582329,nan,590.719981856,nan,nan,nan,nan
1,203,1,1,1.0,1.0,0.308608453604,0,0.0,0.0,0.0,0.309815535737,0.069997059424,0.239818476313,0.379812595161,0.069997059424,0.30107697018,109,1.0,-0.294638327523,-0.357773695079,nan,nan,nan,nan,nan,nan,nan,nan,342.805705461,591.355369375,nan,591.663977829,nan,nan,nan,nan
1,204,1,1,1.0,1.0,0.286781197472,0,0.0,0.0,0.0,0.30980958952,0.0698244911698,0.23998509835,0.37963408069,0.0698244911698,0.300596392908,46,1.0,-0.0117313672748,-1.0,nan,nan,nan,nan,nan,nan,nan,nan,342.805705461,592.297164689,nan,592.583945886,nan,nan,nan,nan
1,205,0,0,1.0,0.0,0.312969286286,0,0.0,0.0,0.0,0.309696705245,0.0696717091508,0.240024996094,0.379368414396,0.0696717091508,0.302786312454,221,0.851781464038,0.0945411604707,0.585422935822,nan,nan,nan,nan,nan,nan,nan,nan,342.805705461,593.238960858,nan,593.551930145,nan,nan,nan,nan
1,206,1,1,1.0,1.0,0.24315120338,0,0.0,0.0,0.0,0.309712669055,0.069501944418,0.240210724637,0.379214613473,0.069501944418,0.280967229046,447,0.312467642152,0.411646472288,-1.0,nan,nan,nan,nan,nan,nan,nan,nan,342.805705461,594.180751041,nan,594.423902244,nan,nan,nan,nan
1,207,1,1,1.0,1.0,0.365331209206,0,0.0,0.0,0.0,0.309389555144,0.0694872195675,0.239902335577,0.378876774712,0.0694872195675,0.307150566291,366,-0.155593376329,0.477302029306,-0.0244766492797,nan,nan,nan,nan,nan,nan,nan,nan,342.805705461,595.122545214,nan,595.487876423,nan,nan,nan,nan
1,208,1,1,1.0,1.0,0.295546482492,0,0.0,0.0,0.0,0.309659804681,0.0694276090232,0.240232195657,0.379087413704,0.0694276090232,0.301342965026,205,1.0,0.00854800403903,0.505535240796,nan,nan,nan,nan,nan,nan,nan,nan,342.805705461,596.064319431,nan,596.359865914,nan,nan,nan,nan
1,209,1,1,1.0,1.0,0.297705231584,0,0.0,0.0,0.0,0.30959195217,0.069267394283,0.240324557887,0.378859346453,0.069267394283,0.319527641094,338,-0.162891363375,0.458928707883,0.250399161362,nan,nan,nan,nan,nan,nan,nan,nan,342.805705461,597.006131566,nan,597.303836797,nan,nan,nan,nan
1,210,1,1,1.0,1.0,0.323880776123,0,0.0,0.0,0.0,0.309535077909,0.0691063522487,0.24042872566,0.378641430158,0.0691063522487,0.305710830066,44,1.0,-0.00106984144607,-1.0,nan,nan,nan,nan,nan,nan,nan,nan,342.805705461,597.947920037,nan,598.271800813,nan,nan,nan,nan
1,211,1,1,1.0,1.0,0.262073043326,0,0.0,0.0,0.0,0.309603390758,0.0689486901901,0.240654700567,0.378552080948,0.0689486901901,0.294553017011,254,0.503011129055,0.248947817922,0.65613358125,nan,nan,nan,nan,nan,nan,nan,nan,342.805705461,598.889717062,nan,599.151790105,nan,nan,nan,nan
1,212,1,1,1.0,1.0,0.23226993368,0,0.0,0.0,0.0,0.309378128447,0.0688625260664,0.240515602381,0.378240654514,0.0688625260664,0.272741251043,343,-0.171388175652,0.463836419185,0.204822810802,nan,nan,nan,nan,nan,nan,nan,nan,342.805705461,599.831506674,nan,600.063776608,nan,nan,nan,nan
1,213,1,1,1.0,1.0,0.290448961081,0,0.0,0.0,0.0,0.309014410548,0.0689027770676,0.24011163348,0.377917187615,0.0689027770676,0.261597312696,433,0.206536295144,0.436163724167,-1.0,nan,nan,nan,nan,nan,nan,nan,nan,342.805705461,600.773305124,nan,601.063754085,nan,nan,nan,nan
1,214,1,1,1.0,1.0,0.268640236172,0,0.0,0.0,0.0,0.308927248813,0.0687525571865,0.240174691627,0.377679806,0.0687525571865,0.263786376978,199,1.0,-0.0246761787097,0.468786302982,nan,nan,nan,nan,nan,nan,nan,nan,342.805705461,601.715094166,nan,601.983734402,nan,nan,nan,nan
1,215,1,1,1.0,1.0,0.286824246985,0,0.0,0.0,0.0,0.308738991745,0.0686467377966,0.240092253948,0.377385729541,0.0686467377966,0.281971148079,510,0.830554458933,0.220436700166,-1.0,nan,nan,nan,nan,nan,nan,nan,nan,342.805705461,602.65689119,nan,602.943715437,nan,nan,nan,nan
1,216,0,0,1.0,0.0,0.265004973509,0,0.0,0.0,0.0,0.308637062699,0.0685031382359,0.240133924463,0.377140200935,0.0685031382359,0.273489818889,347,-0.174938837379,0.46723881498,0.167157479366,nan,nan,nan,nan,nan,nan,nan,nan,342.805705461,603.598681088,nan,603.863686061,nan,nan,nan,nan
1,217,1,1,1.0,1.0,0.259189864679,0,0.0,0.0,0.0,0.308435062286,0.0684085336336,0.240026528653,0.37684359592,0.0684085336336,0.270339695058,81,1.0,-0.193804253699,-0.694219169772,nan,nan,nan,nan,nan,nan,nan,nan,342.805705461,604.540479538,nan,604.799669402,nan,nan,nan,nan
1,218,0,0,1.0,0.0,0.221385813085,0,0.0,0.0,0.0,0.308208125892,0.0683321735127,0.239875952379,0.376540299404,0.0683321735127,0.248526883758,493,0.689769084006,0.285700779988,-1.0,nan,nan,nan,nan,nan,nan,nan,nan,342.805705461,605.482264018,nan,605.703649831,nan,nan,nan,nan
1,219,1,1,1.0,1.0,0.167582158349,0,0.0,0.0,0.0,0.307809858402,0.0684272393257,0.239382619076,0.376237097728,0.0684272393257,0.216052612038,41,1.0,0.0148395037771,-1.0,nan,nan,nan,nan,nan,nan,nan,nan,342.805705461,606.424060757,nan,606.591642916,nan,nan,nan,nan
1,220,1,1,1.0,1.0,0.273748591251,0,0.0,0.0,0.0,0.307169549269,0.0689223175513,0.238247231718,0.37609186682,0.0689223175513,0.220905520895,117,1.0,-0.307587969795,-0.271886539361,nan,nan,nan,nan,nan,nan,nan,nan,342.805705461,607.365855786,nan,607.639604378,nan,nan,nan,nan
1,221,0,0,0.0,1.0,0.435931311164,0,0.0,0.0,0.0,0.307017635824,0.0688022358895,0.238215399934,0.375819871713,0.0688022358895,0.292420686921,49,1.0,-0.027785429985,-1.0,nan,nan,nan,nan,nan,nan,nan,nan,342.805705461,608.307651385,nan,608.743582697,nan,nan,nan,nan
1,222,1,1,1.0,1.0,0.238110986247,0,0.0,0.0,0.0,0.307600955622,0.0691894907321,0.23841146489,0.376790446354,0.0691894907321,0.315930296221,320,-0.0946500390753,0.43494401576,0.398701238857,nan,nan,nan,nan,nan,nan,nan,nan,342.805705461,609.249441853,nan,609.487552839,nan,nan,nan,nan
1,223,1,1,1.0,1.0,0.296298281406,0,0.0,0.0,0.0,0.307287937742,0.0691901391186,0.238097798623,0.37647807686,0.0691901391186,0.323446859606,134,1.0,-0.304950998219,-0.095144111098,nan,nan,nan,nan,nan,nan,nan,nan,342.805705461,610.191231465,nan,610.487529746,nan,nan,nan,nan
1,224,1,1,1.0,1.0,0.290492295695,0,0.0,0.0,0.0,0.307238656771,0.0690387347877,0.238199921984,0.376277391559,0.0690387347877,0.274967187783,178,1.0,-0.139919655122,0.315097826042,nan,nan,nan,nan,nan,nan,nan,nan,342.805705461,611.133027919,nan,611.423520215,nan,nan,nan,nan
1,225,1,1,1.0,1.0,0.276674249268,0,0.0,0.0,0.0,0.307163896231,0.0688935043714,0.238270391859,0.376057400602,0.0688935043714,0.28782160879,306,-0.00395437407881,0.408974006242,0.494128827808,nan,nan,nan,nan,nan,nan,nan,nan,342.805705461,612.074816106,nan,612.351490355,nan,nan,nan,nan
1,226,1,1,1.0,1.0,0.286846199364,0,0.0,0.0,0.0,0.307028386689,0.0687701496781,0.238258237011,0.375798536367,0.0687701496781,0.284670914776,28,1.0,0.082066132397,-1.0,nan,nan,nan,nan,nan,nan,nan,nan,342.805705461,613.016617977,nan,613.303464176,nan,nan,nan,nan
1,227,1,1,1.0,1.0,0.313038849796,0,0.0,0.0,0.0,0.306939084975,0.0686309082084,0.238308176767,0.375569993183,0.0686309082084,0.292186432809,325,-0.119404900653,0.442631039184,0.360186421743,nan,nan,nan,nan,nan,nan,nan,nan,342.805705461,613.958405878,nan,614.271444728,nan,nan,nan,nan
1,228,1,1,1.0,1.0,0.315220121411,0,0.0,0.0,0.0,0.306965956186,0.0684807634368,0.238485192749,0.375446719623,0.0684807634368,0.305035056857,508,0.814199817736,0.228638933499,-1.0,nan,nan,nan,nan,nan,nan,nan,nan,342.805705461,614.900194635,nan,615.215414757,nan,nan,nan,nan
1,229,1,1,1.0,1.0,0.309414990945,0,0.0,0.0,0.0,0.307002158665,0.0683325982591,0.238669560406,0.375334756924,0.0683325982591,0.312557987384,106,1.0,-0.287630069369,-0.390564445695,nan,nan,nan,nan,nan,nan,nan,nan,342.805705461,615.841988239,nan,616.15140323,nan,nan,nan,nan
1,230,1,1,1.0,1.0,0.271593263373,0,0.0,0.0,0.0,0.30701269505,0.0681834228237,0.238829272227,0.375196117874,0.0681834228237,0.298742791909,507,0.805995650865,0.232688349973,-1.0,nan,nan,nan,nan,nan,nan,nan,nan,342.805705461,616.783783838,nan,617.055377101,nan,nan,nan,nan
1,231,1,1,1.0,1.0,0.265780435351,0,0.0,0.0,0.0,0.306858697521,0.0680749365395,0.238783760982,0.374933634061,0.0680749365395,0.282262896556,31,1.0,0.0668515730764,-1.0,nan,nan,nan,nan,nan,nan,nan,nan,342.805705461,617.725576871,nan,617.991357306,nan,nan,nan,nan
1,232,1,1,1.0,1.0,0.339973035618,0,0.0,0.0,0.0,0.306680869546,0.0679809441493,0.238699925397,0.374661813696,0.0679809441493,0.292448911447,135,1.0,-0.303502321856,-0.0849788702499,nan,nan,nan,nan,nan,nan,nan,nan,342.805705461,618.667369049,nan,619.007342084,nan,nan,nan,nan
1,233,1,1,1.0,1.0,0.278159886017,0,0.0,0.0,0.0,0.306824370262,0.0678693285605,0.238955041702,0.374693698823,0.0678693285605,0.294637785662,303,0.0191349273956,0.402522842081,0.512018356663,nan,nan,nan,nan,nan,nan,nan,nan,342.805705461,619.609165218,nan,619.887325104,nan,nan,nan,nan
1,234,1,1,1.0,1.0,0.304325452249,0,0.0,0.0,0.0,0.306701346725,0.0677494482311,0.238951898494,0.374450794956,0.0677494482311,0.307486124628,366,-0.155593376329,0.477302029306,-0.0244766492797,nan,nan,nan,nan,nan,nan,nan,nan,342.805705461,620.550959392,nan,620.855284844,nan,nan,nan,nan
1,235,1,1,1.0,1.0,0.298549686733,0,0.0,0.0,0.0,0.30669119333,0.0676047071121,0.239086486217,0.374295900442,0.0676047071121,0.293678341666,411,0.0555201669072,0.463022710015,-0.557054760163,nan,nan,nan,nan,nan,nan,nan,nan,342.805705461,621.492725341,nan,621.791275028,nan,nan,nan,nan
1,236,1,1,1.0,1.0,0.340693473874,0,0.0,0.0,0.0,0.306656548621,0.0674627955852,0.239193753035,0.374119344206,0.0674627955852,0.314522870952,117,1.0,-0.307587969795,-0.271886539361,nan,nan,nan,nan,nan,nan,nan,nan,342.805705461,622.434550305,nan,622.775243779,nan,nan,nan,nan
1,237,1,1,1.0,1.0,0.294887054828,0,0.0,0.0,0.0,0.30680077288,0.0673560099036,0.239444762977,0.374156782784,0.0673560099036,0.311376738478,442,0.273907262724,0.421095538958,-1.0,nan,nan,nan,nan,nan,nan,nan,nan,342.805705461,623.37633393,nan,623.671220985,nan,nan,nan,nan
1,238,1,1,1.0,1.0,0.337059921818,0,0.0,0.0,0.0,0.306750504028,0.0672181945663,0.239532309461,0.373968698594,0.0672181945663,0.324213483507,92,1.0,-0.241703663401,-0.55060883727,nan,nan,nan,nan,nan,nan,nan,nan,342.805705461,624.318140933,nan,624.655200855,nan,nan,nan,nan
1,239,1,1,1.0,1.0,0.291257209028,0,0.0,0.0,0.0,0.306877854523,0.0671054765898,0.239772377933,0.373983331112,0.0671054765898,0.307734728558,34,1.0,0.0514419701458,-1.0,nan,nan,nan,nan,nan,nan,nan,nan,342.805705461,625.259923417,nan,625.551180626,nan,nan,nan,nan
1,240,0,0,1.0,0.0,0.237452128786,0,0.0,0.0,0.0,0.306812496173,0.0669725320218,0.239839964151,0.373785028195,0.0669725320218,0.288589753211,480,0.580928072941,0.32870764083,-1.0,nan,nan,nan,nan,nan,nan,nan,nan,342.805705461,626.201710749,nan,626.439162878,nan,nan,nan,nan
1,241,1,1,1.0,1.0,0.271608943702,0,0.0,0.0,0.0,0.306523494642,0.0669820344746,0.239541460168,0.373505529117,0.0669820344746,0.266772760505,61,1.0,-0.0921163965413,-1.0,nan,nan,nan,nan,nan,nan,nan,nan,342.805705461,627.143528585,nan,627.415137529,nan,nan,nan,nan
1,242,1,1,1.0,1.0,0.369834019803,0,0.0,0.0,0.0,0.306378620987,0.0668805919858,0.239498029001,0.373259212973,0.0668805919858,0.292965030763,207,0.985653507947,0.0195431921708,0.51699622314,nan,nan,nan,nan,nan,nan,nan,nan,342.805705461,628.085287407,nan,628.455121427,nan,nan,nan,nan
1,243,0,0,0.0,1.0,0.412004605983,0,0.0,0.0,0.0,0.306640833379,0.0668662851796,0.239774548199,0.373507118558,0.0668662851796,0.351149189829,258,0.459642287315,0.26499291187,0.655490062901,nan,nan,nan,nan,nan,nan,nan,nan,342.805705461,629.027096121,nan,629.439100727,nan,nan,nan,nan
1,244,1,1,1.0,1.0,0.270215963305,0,0.0,0.0,0.0,0.307074429151,0.0670686050689,0.240005824082,0.37414303422,0.0670686050689,0.35068486303,204,1.0,0.00303256528985,0.499654420455,nan,nan,nan,nan,nan,nan,nan,nan,342.805705461,629.968849525,nan,630.239065489,nan,nan,nan,nan
1,245,1,1,1.0,1.0,0.320374091971,0,0.0,0.0,0.0,0.306923369865,0.0669724386871,0.239950931178,0.373895808552,0.0669724386871,0.33419822042,135,1.0,-0.303502321856,-0.0849788702499,nan,nan,nan,nan,nan,nan,nan,nan,342.805705461,630.91067677,nan,631.231050862,nan,nan,nan,nan
1,246,1,1,1.0,1.0,0.298557384347,0,0.0,0.0,0.0,0.306978270771,0.0668411221382,0.240137148633,0.373819392909,0.0668411221382,0.296382479874,375,-0.128556699755,0.478682433309,-0.121605159467,nan,nan,nan,nan,nan,nan,nan,nan,342.805705461,631.852470374,nan,632.151027758,nan,nan,nan,nan
1,247,1,1,1.0,1.0,0.308765256603,0,0.0,0.0,0.0,0.306944039526,0.0667072797188,0.240236759807,0.373651319244,0.0667072797188,0.309232244307,143,1.0,-0.287057525782,-0.00469998909502,nan,nan,nan,nan,nan,nan,nan,nan,342.805705461,632.794247441,nan,633.103012698,nan,nan,nan,nan
1,248,0,0,0.0,1.0,0.470910913951,0,0.0,0.0,0.0,0.306951412874,0.0665722082353,0.240379204639,0.373523621109,0.0665722082353,0.359411184967,242,0.632911854383,0.197161183215,0.645921401967,nan,nan,nan,nan,nan,nan,nan,nan,342.805705461,633.73605758,nan,634.206968494,nan,nan,nan,nan
1,249,1,1,1.0,1.0,0.329122841475,0,0.0,0.0,0.0,0.307612539895,0.0672454420611,0.240367097833,0.374857981956,0.0672454420611,0.369599670676,431,0.191957257768,0.43918128748,-0.982298765802,nan,nan,nan,nan,nan,nan,nan,nan,342.805705461,634.677846907,nan,635.006969749,nan,nan,nan,nan
1,250,1,1,1.0,1.0,0.33930534008,0,0.0,0.0,0.0,0.307698926648,0.0671240626062,0.240574864042,0.374822989254,0.0671240626062,0.379779698502,335,-0.155595990888,0.455627721073,0.276893227044,nan,nan,nan,nan,nan,nan,nan,nan,342.805705461,635.619641651,nan,635.958946991,nan,nan,nan,nan
1,251,1,1,1.0,1.0,0.221487022238,0,0.0,0.0,0.0,0.307825352302,0.0670193785384,0.240805973763,0.37484473084,0.0670193785384,0.296638401264,424,0.142174562463,0.448819569244,-0.770229420881,nan,nan,nan,nan,nan,nan,nan,nan,342.805705461,636.561434969,nan,636.782921992,nan,nan,nan,nan
1,252,1,1,1.0,1.0,0.255672917061,0,0.0,0.0,0.0,0.307481374891,0.0671065004695,0.240374874421,0.37458787536,0.0671065004695,0.272155093126,231,0.749609680972,0.145151270079,0.620821461523,nan,nan,nan,nan,nan,nan,nan,nan,342.805705461,637.503226292,nan,637.758899209,nan,nan,nan,nan
1,253,1,1,1.0,1.0,0.281858725124,0,0.0,0.0,0.0,0.307275785773,0.067052376731,0.240223409042,0.374328162504,0.067052376731,0.253006221474,77,1.0,-0.174593022316,-0.756267193339,nan,nan,nan,nan,nan,nan,nan,nan,342.805705461,638.445016759,nan,638.726875485,nan,nan,nan,nan
1,254,1,1,1.0,1.0,0.260046008858,0,0.0,0.0,0.0,0.307175323082,0.0669387314186,0.240236591664,0.374114054501,0.0669387314186,0.265859217014,272,0.310166696092,0.316214117232,0.637281430288,nan,nan,nan,nan,nan,nan,nan,nan,342.805705461,639.386813784,nan,639.646859793,nan,nan,nan,nan
1,255,0,0,0.0,1.0,0.566229433462,0,0.0,0.0,0.0,0.306989774601,0.0668719910578,0.240117783543,0.373861765659,0.0668719910578,0.369378055814,175,1.0,-0.155629953633,0.290361762956,nan,nan,nan,nan,nan,nan,nan,nan,342.805705461,640.328608528,nan,640.894837961,nan,nan,nan,nan
1,256,1,1,1.0,1.0,0.416418751702,0,0.0,0.0,0.0,0.308006400714,0.068679274514,0.2393271262,0.376685675228,0.068679274514,0.414231398007,433,0.206536295144,0.436163724167,-1.0,nan,nan,nan,nan,nan,nan,nan,nan,342.805705461,641.270395574,nan,641.686814326,nan,nan,nan,nan
1,257,1,1,1.0,1.0,0.386615927157,0,0.0,0.0,0.0,0.30842988646,0.0688777854315,0.239552101029,0.377307671892,0.0688777854315,0.456421370773,378,-0.117450136118,0.478670924818,-0.154810124165,nan,nan,nan,nan,nan,nan,nan,nan,342.805705461,642.212185471,nan,642.598801398,nan,nan,nan,nan
1,258,1,1,1.0,1.0,0.404781976889,0,0.0,1.0,0.0,0.3087341123,0.0689157693234,0.239818342976,0.377649881623,0.0689157693234,0.402605551916,203,1.0,-0.00249325098487,0.493674673203,nan,nan,nan,nan,nan,nan,nan,nan,342.805705461,643.153987913,nan,643.558769889,nan,nan,nan,nan
1,259,1,1,1.0,1.0,0.382960422605,1,0.0,0.0,1.0,0.309106390845,0.0690405154032,0.240065875441,0.378146906248,0.0690405154032,0.39145277555,344,-0.172543464245,0.464730234515,0.195503824632,-137.32153059,227.32153059,-14.5534694102,323.0,-0.11001989341,0.43965344528,0.375855360355,3.03407784324,342.805705461,644.095781231,644.904195676,644.478741653,648.979818034,649.984391549,645.929291847,648.971389448
1,260,1,1,1.0,1.0,0.388654650596,0,0.0,0.0,0.0,0.309391541546,0.0690591569028,0.240332384644,0.378450698449,0.0690591569028,0.39213235003,196,1.0,-0.0413610816081,0.449130757868,nan,nan,nan,nan,nan,nan,nan,nan,342.805705461,650.129917234,nan,650.518571884,nan,nan,nan,nan
1,261,1,1,1.0,1.0,0.310878105112,0,0.0,0.0,0.0,0.309696399658,0.0691006169641,0.240595782694,0.378797016622,0.0691006169641,0.360831059438,447,0.312467642152,0.411646472288,-1.0,nan,nan,nan,nan,nan,nan,nan,nan,342.805705461,651.071709127,nan,651.382587232,nan,nan,nan,nan
1,262,1,1,1.0,1.0,0.297025562031,0,0.0,0.0,0.0,0.309700927265,0.0689681519018,0.240732775363,0.378669079167,0.0689681519018,0.332186105913,272,0.310166696092,0.316214117232,0.637281430288,nan,nan,nan,nan,nan,nan,nan,nan,342.805705461,652.013507006,nan,652.310532568,nan,nan,nan,nan
1,263,1,1,1.0,1.0,0.275239644805,0,0.0,0.0,0.0,0.309652548009,0.0688408445351,0.240811703473,0.378493392544,0.0688408445351,0.294381103983,28,1.0,0.082066132397,-1.0,nan,nan,nan,nan,nan,nan,nan,nan,342.805705461,652.955300325,nan,653.23053997,nan,nan,nan,nan
1,264,1,1,1.0,1.0,0.293416813307,0,0.0,0.0,0.0,0.309521700468,0.0687424785143,0.240779221953,0.378264178982,0.0687424785143,0.288560673381,169,1.0,-0.185917379452,0.239118302078,nan,nan,nan,nan,nan,nan,nan,nan,342.805705461,653.897096779,nan,654.190513592,nan,nan,nan,nan
1,265,1,1,1.0,1.0,0.327606984531,0,0.0,0.0,0.0,0.309460697107,0.0686192928739,0.240841404233,0.378079989981,0.0686192928739,0.298754480881,35,1.0,0.0462653595507,-1.0,nan,nan,nan,nan,nan,nan,nan,nan,342.805705461,654.83888411,nan,655.166491095,nan,nan,nan,nan
1,266,1,1,1.0,1.0,0.313820298703,0,0.0,0.0,0.0,0.309529173664,0.0684987367118,0.241030436952,0.378027910375,0.0684987367118,0.311614698847,417,0.0945046041228,0.457053563907,-0.645720198395,nan,nan,nan,nan,nan,nan,nan,nan,342.805705461,655.780659183,nan,656.094479481,nan,nan,nan,nan
1,267,1,1,1.0,1.0,0.387981538312,0,0.0,0.0,0.0,0.309545305713,0.0683703627937,0.241174942919,0.377915668506,0.0683703627937,0.343136273848,65,1.0,-0.113312155659,-1.0,nan,nan,nan,nan,nan,nan,nan,nan,342.805705461,656.722469036,nan,657.110450575,nan,nan,nan,nan
1,268,1,1,1.0,1.0,0.398152633163,0,0.0,0.0,0.0,0.309839074374,0.0684101951508,0.241428879223,0.378249269525,0.0684101951508,0.366651490059,203,1.0,-0.00249325098487,0.493674673203,nan,nan,nan,nan,nan,nan,nan,nan,342.805705461,657.664268912,nan,658.062421545,nan,nan,nan,nan
1,269,1,1,1.0,1.0,0.376363009622,0,0.0,1.0,0.0,0.310168602579,0.0684944194973,0.241674183081,0.378663022076,0.0684944194973,0.387499060365,126,1.0,-0.311411754845,-0.177408431044,nan,nan,nan,nan,nan,nan,nan,nan,342.805705461,658.606054248,nan,658.982417257,nan,nan,nan,nan
1,270,1,1,1.0,1.0,0.370535926835,1,0.0,0.0,1.0,0.310414678441,0.0684855702188,0.241929108222,0.37890024866,0.0684855702188,0.38168385654,191,1.0,-0.0691479807067,0.414571651978,-35.4068657373,125.406865737,-8.89000926273,178.0,1.0,-0.139919655122,0.315097826042,5.11775388604,342.805705461,659.547846711,660.356262867,659.918382637,666.507077658,667.502833429,661.373058744,666.498748285
1,271,1,1,1.0,1.0,0.341593807912,0,0.0,0.0,0.0,0.310637349732,0.0684561146937,0.242181235038,0.379093464425,0.0684561146937,0.36283091479,54,1.0,-0.0546292063271,-1.0,nan,nan,nan,nan,nan,nan,nan,nan,342.805705461,667.640605351,nan,667.982199159,nan,nan,nan,nan
1,272,1,1,1.0,1.0,0.327760366315,0,0.0,0.0,0.0,0.310751580205,0.0683554706225,0.242396109582,0.379107050827,0.0683554706225,0.346630033688,260,0.438016636947,0.272781976488,0.654406567654,nan,nan,nan,nan,nan,nan,nan,nan,342.805705461,668.582386695,nan,668.910147061,nan,nan,nan,nan
1,273,1,1,1.0,1.0,0.297939580691,0,0.0,0.0,0.0,0.310814112506,0.0682374666325,0.242576645874,0.379051579139,0.0682374666325,0.32243125164,373,-0.135407706169,0.478559568072,-0.0996974893599,nan,nan,nan,nan,nan,nan,nan,nan,342.805705461,669.524187141,nan,669.822126721,nan,nan,nan,nan
1,274,1,1,1.0,1.0,0.380159066641,0,0.0,0.0,0.0,0.310766953049,0.0681168154749,0.242650137574,0.378883768524,0.0681168154749,0.335286337882,231,0.749609680972,0.145151270079,0.620821461523,nan,nan,nan,nan,nan,nan,nan,nan,342.805705461,670.465979889,nan,670.846138955,nan,nan,nan,nan
1,275,1,1,1.0,1.0,0.36633560335,0,0.0,0.0,0.0,0.311020208938,0.0681210424884,0.24289916645,0.379141251427,0.0681210424884,0.348144750227,139,1.0,-0.296335611021,-0.0445992895203,nan,nan,nan,nan,nan,nan,nan,nan,342.805705461,671.407771497,nan,671.7741071,nan,nan,nan,nan
1,276,1,1,1.0,1.0,0.336512822076,0,0.0,0.0,0.0,0.311221355827,0.0680785430908,0.243142812736,0.379299898918,0.0680785430908,0.361002497356,435,0.221263830514,0.433027056876,-1.0,nan,nan,nan,nan,nan,nan,nan,nan,342.805705461,672.34958078,nan,672.686093602,nan,nan,nan,nan
1,277,1,1,1.0,1.0,0.298712191579,0,0.0,0.0,0.0,0.311312991574,0.0679720890273,0.243340902547,0.379285080602,0.0679720890273,0.333853539002,192,1.0,-0.0635997558896,0.421658406928,nan,nan,nan,nan,nan,nan,nan,nan,342.805705461,673.291368112,nan,673.590080303,nan,nan,nan,nan
1,278,1,1,1.0,1.0,0.324887736177,0,0.0,0.0,0.0,0.311267501322,0.0678534935794,0.243414007742,0.379120994901,0.0678534935794,0.320037583277,72,1.0,-0.149607777062,-0.853203742106,nan,nan,nan,nan,nan,nan,nan,nan,342.805705461,674.233154017,nan,674.558041753,nan,nan,nan,nan
1,279,1,1,1.0,1.0,0.319076333661,0,0.0,0.0,0.0,0.311316494972,0.0677362531961,0.243580241776,0.379052748168,0.0677362531961,0.314225420472,267,0.362924526182,0.298807232282,0.646622522267,nan,nan,nan,nan,nan,nan,nan,nan,342.805705461,675.174939353,nan,675.494015687,nan,nan,nan,nan
1,280,0,0,0.0,1.0,0.465273135051,0,0.0,0.0,0.0,0.311344308014,0.0676163433418,0.243727964672,0.378960651356,0.0676163433418,0.369745734963,28,1.0,0.082066132397,-1.0,nan,nan,nan,nan,nan,nan,nan,nan,342.805705461,676.116730961,nan,676.582004096,nan,nan,nan,nan
1,281,1,1,1.0,1.0,0.347447689797,0,0.0,0.0,0.0,0.311894053825,0.0681172586825,0.243776795142,0.380011312507,0.0681172586825,0.377265719503,407,0.0305886347219,0.46645515455,-0.502577406972,nan,nan,nan,nan,nan,nan,nan,nan,342.805705461,677.058529696,nan,677.405977386,nan,nan,nan,nan
1,282,1,1,1.0,1.0,0.309636225691,0,0.0,0.0,0.0,0.31202057922,0.068028898588,0.243991680632,0.380049477808,0.068028898588,0.374119016846,251,0.535576518695,0.236509187076,0.655284151108,nan,nan,nan,nan,nan,nan,nan,nan,342.805705461,678.000320448,nan,678.309956674,nan,nan,nan,nan
1,283,1,1,1.0,1.0,0.319825281622,0,0.0,0.0,0.0,0.312012124065,0.0679083207618,0.244103803304,0.379920444827,0.0679083207618,0.325636399037,299,0.0516645560415,0.393417669654,0.534378752182,nan,nan,nan,nan,nan,nan,nan,nan,342.805705461,678.942115477,nan,679.261940759,nan,nan,nan,nan
1,284,1,1,1.0,1.0,0.298008003796,0,0.0,0.0,0.0,0.312039732396,0.0677898206242,0.244249911772,0.37982955302,0.0677898206242,0.309156503703,148,1.0,-0.272695592461,0.0444264621409,nan,nan,nan,nan,nan,nan,nan,nan,342.805705461,679.883911646,nan,680.18191965,nan,nan,nan,nan
1,285,1,1,1.0,1.0,0.300190130714,0,0.0,0.0,0.0,0.311990324901,0.0676754712973,0.244314853604,0.379665796198,0.0676754712973,0.306007805377,2,0.863024578927,0.203622855609,-1.0,nan,nan,nan,nan,nan,nan,nan,nan,342.805705461,680.825697837,nan,681.125887968,nan,nan,nan,nan
1,286,1,1,1.0,1.0,0.262392636272,0,0.0,0.0,0.0,0.311948920711,0.0675602413433,0.244388679368,0.379509162054,0.0675602413433,0.286863590261,220,0.861731547614,0.0893272636146,0.581247684387,nan,nan,nan,nan,nan,nan,nan,nan,342.805705461,681.7674903,nan,682.029882937,nan,nan,nan,nan
1,287,1,1,1.0,1.0,0.296569693077,0,0.0,0.0,0.0,0.311775646989,0.0675054338263,0.244270213163,0.379281080815,0.0675054338263,0.286384153354,478,0.56422249903,0.334793662244,-1.0,nan,nan,nan,nan,nan,nan,nan,nan,342.805705461,682.709287895,nan,683.005857588,nan,nan,nan,nan
1,288,1,1,1.0,1.0,0.282761339913,0,0.0,0.0,0.0,0.311722664571,0.0673936825342,0.244328982037,0.379116347105,0.0673936825342,0.280574556421,190,1.0,-0.0746884387243,0.407399635172,nan,nan,nan,nan,nan,nan,nan,nan,342.805705461,683.651083494,nan,683.933844834,nan,nan,nan,nan
1,289,1,1,1.0,1.0,0.284942326427,0,0.0,0.0,0.0,0.311622104416,0.0672981439049,0.244323960511,0.378920248321,0.0672981439049,0.288091119806,258,0.459642287315,0.26499291187,0.655490062901,nan,nan,nan,nan,nan,nan,nan,nan,342.805705461,684.592876813,nan,684.877819139,nan,nan,nan,nan
1,290,1,1,1.0,1.0,0.319119098072,0,0.0,0.0,0.0,0.311529786845,0.0671998753237,0.244329911522,0.378729662169,0.0671998753237,0.295607588137,357,-0.1717918326,0.473767524415,0.068739031695,nan,nan,nan,nan,nan,nan,nan,nan,342.805705461,685.534660152,nan,685.853779251,nan,nan,nan,nan
1,291,1,1,1.0,1.0,0.353280759708,0,0.0,0.0,0.0,0.311555956884,0.0670853886247,0.244470568259,0.378641345509,0.0670853886247,0.319114061402,259,0.44882283482,0.268906983076,0.655011783756,nan,nan,nan,nan,nan,nan,nan,nan,342.805705461,686.476454326,nan,686.829735086,nan,nan,nan,nan
1,292,1,1,1.0,1.0,0.315443636908,0,0.0,0.0,0.0,0.311699341086,0.0670145209915,0.244684820095,0.378713862078,0.0670145209915,0.329281164896,469,0.489482198204,0.360453357602,-1.0,nan,nan,nan,nan,nan,nan,nan,nan,342.805705461,687.418267601,nan,687.733711238,nan,nan,nan,nan
1,293,1,1,1.0,1.0,0.325671750994,0,0.0,0.0,0.0,0.311712164017,0.0669000292975,0.244812134719,0.378612193314,0.0669000292975,0.331465382536,231,0.749609680972,0.145151270079,0.620821461523,nan,nan,nan,nan,nan,nan,nan,nan,342.805705461,688.360043528,nan,688.685715279,nan,nan,nan,nan
1,294,1,1,1.0,1.0,0.351867252321,0,0.0,0.0,0.0,0.311759807659,0.0667907299168,0.244969077742,0.378550537575,0.0667907299168,0.330994213407,284,0.188465149253,0.353984098999,0.602236276499,nan,nan,nan,nan,nan,nan,nan,nan,342.805705461,689.301837417,nan,689.653704669,nan,nan,nan,nan
1,295,1,1,1.0,1.0,0.338058329013,0,0.0,0.0,0.0,0.311896227538,0.0667179209086,0.24517830663,0.378614148447,0.0667179209086,0.338532444109,166,1.0,-0.20036215083,0.21267421211,nan,nan,nan,nan,nan,nan,nan,nan,342.805705461,690.243613915,nan,690.581672244,nan,nan,nan,nan
1,296,0,0,1.0,0.0,0.324224602256,0,0.0,0.0,0.0,0.311984912628,0.066622099979,0.245362812649,0.378607012607,0.066622099979,0.338050061197,258,0.459642287315,0.26499291187,0.655490062901,nan,nan,nan,nan,nan,nan,nan,nan,342.805705461,691.185422343,nan,691.509646945,nan,nan,nan,nan
1,297,1,1,1.0,1.0,0.310414538486,0,0.0,0.0,0.0,0.312026262931,0.0665132593096,0.245513003621,0.378539522241,0.0665132593096,0.324232489918,418,0.101175887384,0.455961754156,-0.661679309199,nan,nan,nan,nan,nan,nan,nan,nan,342.805705461,692.12721281,nan,692.437627349,nan,nan,nan,nan
1,298,1,1,1.0,1.0,0.320614998345,0,0.0,0.0,0.0,0.312020836249,0.0664012553492,0.2456195809,0.378422091598,0.0664012553492,0.318418046363,369,-0.147694689129,0.477999187239,-0.0564338676883,nan,nan,nan,nan,nan,nan,nan,nan,342.805705461,693.069002708,nan,693.389617706,nan,nan,nan,nan
1,299,1,1,1.0,1.0,0.370815036062,0,0.0,0.0,0.0,0.312049675719,0.0662916133768,0.245758062343,0.378341289096,0.0662916133768,0.333948190964,266,0.373577590308,0.295207490188,0.648113769863,nan,nan,nan,nan,nan,nan,nan,nan,342.805705461,694.010774929,nan,694.381589965,nan,nan,nan,nan
1,300,1,1,1.0,1.0,0.428957000957,0,0.0,0.0,0.0,0.312246215386,0.0662675751427,0.245978640243,0.378513790529,0.0662675751427,0.373462345121,66,1.0,-0.118568705386,-1.0,nan,nan,nan,nan,nan,nan,nan,nan,342.805705461,694.95260702,nan,695.381564021,nan,nan,nan,nan
1,301,1,1,1.0,1.0,0.343157275929,0,0.0,1.0,0.0,0.312635251338,0.0664981720513,0.246137079287,0.379133423389,0.0664981720513,0.380976437649,303,0.0191349273956,0.402522842081,0.512018356663,nan,nan,nan,nan,nan,nan,nan,nan,342.805705461,695.894383518,nan,696.237540794,nan,nan,nan,nan
1,302,1,1,1.0,1.0,0.289355901943,1,0.0,0.0,1.0,0.312736653413,0.0664108466114,0.246325806802,0.379147500024,0.0664108466114,0.353823392943,223,0.83172397378,0.104890589731,0.593432239612,-81.94817052,171.94817052,15.15129552,245.0,0.600577697281,0.210610106048,0.650172825369,2.31724459009,342.805705461,696.836179687,697.644590141,697.125535589,701.003340188,702.009225145,698.669717672,700.995004828
1,303,0,0,0.0,1.0,0.523832195729,0,0.0,0.0,0.0,0.312659233706,0.0663144080078,0.246344825698,0.378973641714,0.0663144080078,0.385448457867,342,-0.170052622031,0.462913557708,0.21407524247,nan,nan,nan,nan,nan,nan,nan,nan,342.805705461,702.153556277,nan,702.677388472,nan,nan,nan,nan
1,304,1,1,1.0,1.0,0.342044830264,0,0.0,0.0,0.0,0.313356174175,0.0673036138172,0.246052560358,0.380659787992,0.0673036138172,0.385077642646,239,0.665069831863,0.183388857662,0.640549267122,nan,nan,nan,nan,nan,nan,nan,nan,342.805705461,703.095344178,nan,703.437389008,nan,nan,nan,nan
1,305,1,1,1.0,1.0,0.344222680724,0,0.0,0.0,0.0,0.313450544754,0.0672129028667,0.246237641887,0.380663447621,0.0672129028667,0.403366568906,168,1.0,-0.190790017254,0.230361799274,nan,nan,nan,nan,nan,nan,nan,nan,342.805705461,704.037142628,nan,704.381365309,nan,nan,nan,nan
1,306,1,1,1.0,1.0,0.314406171499,0,0.0,0.0,0.0,0.313551437003,0.0671256812515,0.246425755752,0.380677118255,0.0671256812515,0.333557894162,86,1.0,-0.21659106269,-0.625617802914,nan,nan,nan,nan,nan,nan,nan,nan,342.805705461,704.978932525,nan,705.293338697,nan,nan,nan,nan
1,307,1,1,1.0,1.0,0.276580167527,0,0.0,0.0,0.0,0.313554230253,0.0670159267638,0.246538303489,0.380570157017,0.0670159267638,0.311736339917,282,0.208142307666,0.34807905204,0.609295500931,nan,nan,nan,nan,nan,nan,nan,nan,342.805705461,705.920730975,nan,706.197311143,nan,nan,nan,nan
1,308,1,1,1.0,1.0,0.302773673146,0,0.0,0.0,0.0,0.313433793567,0.0669398526007,0.246493940966,0.380373646167,0.0669398526007,0.297920004057,155,1.0,-0.2479831371,0.111611878621,nan,nan,nan,nan,nan,nan,nan,nan,342.805705461,706.862519162,nan,707.165292835,nan,nan,nan,nan
1,309,1,1,1.0,1.0,0.280949838168,0,0.0,0.0,0.0,0.313399182786,0.0668338469964,0.24656533579,0.380233029783,0.0668338469964,0.286767892947,9,0.918933560847,0.172916688009,-1.0,nan,nan,nan,nan,nan,nan,nan,nan,342.805705461,707.804324454,nan,708.085274293,nan,nan,nan,nan
1,310,1,1,1.0,1.0,0.30715788377,0,0.0,0.0,0.0,0.313294168726,0.0667510611885,0.246543107537,0.380045229914,0.0667510611885,0.296960465028,417,0.0945046041228,0.457053563907,-0.645720198395,nan,nan,nan,nan,nan,nan,nan,nan,342.805705461,708.74609411,nan,709.053251993,nan,nan,nan,nan
1,311,1,1,1.0,1.0,0.35732114414,0,0.0,0.0,0.0,0.313274374258,0.0666442195783,0.24663015468,0.379918593837,0.0666442195783,0.315142955359,174,1.0,-0.160790688716,0.281981279739,nan,nan,nan,nan,nan,nan,nan,nan,342.805705461,709.687899117,nan,710.045220261,nan,nan,nan,nan
1,312,1,1,1.0,1.0,0.335503581213,0,0.0,0.0,0.0,0.313416003744,0.0665836997281,0.246832304015,0.379999703472,0.0665836997281,0.333327536374,221,0.851781464038,0.0945411604707,0.585422935822,nan,nan,nan,nan,nan,nan,nan,nan,342.805705461,710.62969158,nan,710.965195161,nan,nan,nan,nan
1,313,1,1,1.0,1.0,0.337704524514,0,0.0,0.0,0.0,0.313486797261,0.0664886316201,0.246998165641,0.379975428881,0.0664886316201,0.343509749956,34,1.0,0.0514419701458,-1.0,nan,nan,nan,nan,nan,nan,nan,nan,342.805705461,711.571480052,nan,711.909184576,nan,nan,nan,nan
1,314,1,1,1.0,1.0,0.315883540432,0,0.0,0.0,0.0,0.313564170192,0.0663964018653,0.247167768326,0.379960572057,0.0663964018653,0.329697215386,249,0.557275547736,0.228026269286,0.654084877906,nan,nan,nan,nan,nan,nan,nan,nan,342.805705461,712.513282493,nan,712.829166034,nan,nan,nan,nan
1,315,1,1,1.0,1.0,0.422069645079,0,0.0,0.0,0.0,0.313571556721,0.0662907196071,0.247280837114,0.379862276328,0.0662907196071,0.358552570009,93,1.0,-0.245614297951,-0.538619881923,nan,nan,nan,nan,nan,nan,nan,nan,342.805705461,713.455066118,nan,713.877135763,nan,nan,nan,nan
1,316,1,1,1.0,1.0,0.344213557662,0,0.0,0.0,0.0,0.313915995097,0.0664662403665,0.24744975473,0.380382235463,0.0664662403665,0.360722247725,172,1.0,-0.170984061773,0.265024678188,nan,nan,nan,nan,nan,nan,nan,nan,342.805705461,714.396862572,nan,714.74107613,nan,nan,nan,nan
1,317,1,1,1.0,1.0,0.402408265276,0,0.0,1.0,0.0,0.314011873459,0.0663828030428,0.247629070416,0.380394676502,0.0663828030428,0.389563822673,453,0.359670421306,0.39926174925,-1.0,nan,nan,nan,nan,nan,nan,nan,nan,342.805705461,715.338652755,nan,715.74106102,nan,nan,nan,nan
1,318,1,1,1.0,1.0,0.428604621964,1,0.0,0.0,1.0,0.31429072643,0.0664631265402,0.24782759989,0.380753852971,0.0664631265402,0.391742148301,16,0.973419431522,0.140652110383,-1.0,60.3241081694,29.6758918306,18.4258918306,42.0,1.0,0.00954878589686,-1.0,2.32572591928,342.805705461,716.280446073,717.08886394,716.709050695,720.447641071,721.446465334,718.10564043,720.43930457
1,319,1,1,1.0,1.0,0.399389380822,0,0.0,0.0,0.0,0.314650204089,0.0666664850428,0.247983719046,0.381316689132,0.0666664850428,0.410134089354,366,-0.155593376329,0.477302029306,-0.0244766492797,nan,nan,nan,nan,nan,nan,nan,nan,342.805705461,721.589556011,nan,721.988945392,nan,nan,nan,nan
1,320,1,1,1.0,1.0,0.345652438526,0,0.0,0.0,0.0,0.314915844142,0.0667302587352,0.248185585406,0.381646102877,0.0667302587352,0.391215480437,443,0.281558783006,0.419268214519,-1.0,nan,nan,nan,nan,nan,nan,nan,nan,342.805705461,722.531288319,nan,722.876940757,nan,nan,nan,nan
1,321,1,1,1.0,1.0,0.331848932023,0,0.0,0.0,0.0,0.315011895999,0.0666479940708,0.248363901928,0.38165989007,0.0666479940708,0.35896358379,357,-0.1717918326,0.473767524415,0.068739031695,nan,nan,nan,nan,nan,nan,nan,nan,342.805705461,723.473079356,nan,723.804928288,nan,nan,nan,nan
1,322,1,1,1.0,1.0,0.302005908918,0,0.0,0.0,0.0,0.315064347825,0.0665507147171,0.248513633108,0.381615062542,0.0665507147171,0.326502426489,31,1.0,0.0668515730764,-1.0,nan,nan,nan,nan,nan,nan,nan,nan,342.805705461,724.414874955,nan,724.716880864,nan,nan,nan,nan
1,323,1,1,1.0,1.0,0.28020830272,0,0.0,0.0,0.0,0.315023793667,0.0664512671639,0.248572526503,0.381475060831,0.0664512671639,0.304687714553,488,0.647907709101,0.302951493728,-1.0,nan,nan,nan,nan,nan,nan,nan,nan,342.805705461,725.356665708,nan,725.636874011,nan,nan,nan,nan
1,324,1,1,1.0,1.0,0.322380314465,0,0.0,0.0,0.0,0.314916005769,0.0663765083495,0.248539497419,0.381292514118,0.0663765083495,0.301531508701,40,1.0,0.0201165467467,-1.0,nan,nan,nan,nan,nan,nan,nan,nan,342.805705461,726.298456175,nan,726.62083649,nan,nan,nan,nan
1,325,1,1,1.0,1.0,0.316572047945,0,0.0,0.0,0.0,0.314939043759,0.066275289651,0.248663754108,0.38121433341,0.066275289651,0.306386888376,479,0.572572153349,0.331768222426,-1.0,nan,nan,nan,nan,nan,nan,nan,nan,342.805705461,727.240255481,nan,727.556827528,nan,nan,nan,nan
1,326,1,1,1.0,1.0,0.286763236334,0,0.0,0.0,0.0,0.314944068387,0.0661733109211,0.248770757466,0.381117379308,0.0661733109211,0.308571866248,31,1.0,0.0668515730764,-1.0,nan,nan,nan,nan,nan,nan,nan,nan,342.805705461,728.182038535,nan,728.468801772,nan,nan,nan,nan
1,327,1,1,1.0,1.0,0.344965356519,0,0.0,0.0,0.0,0.314857624117,0.0660901161053,0.248767508012,0.380947740222,0.0660901161053,0.316100213599,266,0.373577590308,0.295207490188,0.648113769863,nan,nan,nan,nan,nan,nan,nan,nan,342.805705461,729.123802204,nan,729.46876756,nan,nan,nan,nan
1,328,1,1,1.0,1.0,0.331129919214,0,0.0,0.0,0.0,0.314949696693,0.0660099201866,0.248939776507,0.38095961688,0.0660099201866,0.320952837355,360,-0.167709501072,0.475188317955,0.0381258551808,nan,nan,nan,nan,nan,nan,nan,nan,342.805705461,730.065623746,nan,730.396753666,nan,nan,nan,nan
1,329,1,1,1.0,1.0,0.357340815826,0,0.0,0.0,0.0,0.31499902664,0.0659152548257,0.249083771814,0.380914281465,0.0659152548257,0.344478697186,81,1.0,-0.193804253699,-0.694219169772,nan,nan,nan,nan,nan,nan,nan,nan,342.805705461,731.007391691,nan,731.364732507,nan,nan,nan,nan
1,330,1,1,1.0,1.0,0.367461448594,0,0.0,0.0,0.0,0.315127725087,0.0658562634505,0.249271461637,0.380983988538,0.0658562634505,0.351977394545,223,0.83172397378,0.104890589731,0.593432239612,nan,nan,nan,nan,nan,nan,nan,nan,342.805705461,731.949249726,nan,732.316711175,nan,nan,nan,nan
1,331,0,0,0.0,1.0,0.489682223124,0,0.0,0.0,0.0,0.315286312128,0.065819291763,0.249467020365,0.381105603891,0.065819291763,0.404828162515,405,0.018463324075,0.468009379796,-0.476293327428,nan,nan,nan,nan,nan,nan,nan,nan,342.805705461,732.891004557,nan,733.38068678,nan,nan,nan,nan
1,332,1,1,1.0,1.0,0.379866557836,0,0.0,0.0,0.0,0.315813187992,0.0664130891595,0.249400098833,0.382226277152,0.0664130891595,0.412336743185,244,0.611372359265,0.206163547436,0.648880721676,nan,nan,nan,nan,nan,nan,nan,nan,342.805705461,733.832795879,nan,734.212662437,nan,nan,nan,nan
1,333,1,1,1.0,1.0,0.382058663119,0,0.0,0.0,0.0,0.316006119829,0.0664058272077,0.249600292621,0.382411947037,0.0664058272077,0.41720248136,141,1.0,-0.291952736687,-0.024586852943,nan,nan,nan,nan,nan,nan,nan,nan,342.805705461,734.774590338,nan,735.156649001,nan,nan,nan,nan
1,334,1,1,1.0,1.0,0.360253074265,0,0.0,0.0,0.0,0.316204475815,0.0664044728559,0.249800002959,0.382608948671,0.0664044728559,0.37405943174,243,0.622151010882,0.20168048164,0.647463484622,nan,nan,nan,nan,nan,nan,nan,nan,342.805705461,735.716383371,nan,736.076636446,nan,nan,nan,nan
1,335,1,1,1.0,1.0,0.362426933367,0,0.0,0.0,0.0,0.316336357846,0.0663486517083,0.249987706138,0.382685009554,0.0663486517083,0.368246223584,67,1.0,-0.12380466598,-1.0,nan,nan,nan,nan,nan,nan,nan,nan,342.805705461,736.65817726,nan,737.020604193,nan,nan,nan,nan
1,336,1,1,1.0,1.0,0.316619659017,0,0.0,0.0,0.0,0.316473941654,0.0662972491433,0.25017669251,0.382771190797,0.0662972491433,0.346433222216,324,-0.114799643766,0.441158325109,0.368064040095,nan,nan,nan,nan,nan,nan,nan,nan,342.805705461,737.599971148,nan,737.916590807,nan,nan,nan,nan
1,337,1,1,1.0,1.0,0.414775456768,0,0.0,0.0,0.0,0.316474375336,0.0661985194838,0.250275855853,0.38267289482,0.0661985194838,0.364607349717,45,1.0,-0.0063957592436,-1.0,nan,nan,nan,nan,nan,nan,nan,nan,342.805705461,738.541790125,nan,738.956565582,nan,nan,nan,nan
1,338,1,1,1.0,1.0,0.352976276889,0,0.0,0.0,0.0,0.31676606994,0.0663161300118,0.250449939928,0.383082199952,0.0663161300118,0.361457130891,438,0.243622561222,0.428096439079,-1.0,nan,nan,nan,nan,nan,nan,nan,nan,342.805705461,739.483554364,nan,739.836530641,nan,nan,nan,nan
1,339,1,1,1.0,1.0,0.283167887188,0,0.0,0.0,0.0,0.31687320073,0.0662471548228,0.250626045907,0.383120355553,0.0662471548228,0.350306540281,107,1.0,-0.290089771429,-0.379592780214,nan,nan,nan,nan,nan,nan,nan,nan,342.805705461,740.425345401,nan,740.708513288,nan,nan,nan,nan
1,340,1,1,1.0,1.0,0.301361591322,0,0.0,0.0,0.0,0.316773775026,0.0661746238083,0.250599151218,0.382948398834,0.0661746238083,0.312501918466,291,0.122027637739,0.373441943191,0.573791926984,nan,nan,nan,nan,nan,nan,nan,nan,342.805705461,741.367136724,nan,741.668498315,nan,nan,nan,nan
1,341,1,1,1.0,1.0,0.359520946979,0,0.0,0.0,0.0,0.316728445074,0.0660825072571,0.250645937817,0.382810952331,0.0660825072571,0.314683475163,74,1.0,-0.159715158178,-0.810443278181,nan,nan,nan,nan,nan,nan,nan,nan,342.805705461,742.308936599,nan,742.668457546,nan,nan,nan,nan
1,342,1,1,1.0,1.0,0.305718147545,0,0.0,0.0,0.0,0.316853936282,0.066026100508,0.250827835774,0.38288003679,0.066026100508,0.322200228615,359,-0.169222339917,0.474741883077,0.0483828026834,nan,nan,nan,nan,nan,nan,nan,nan,342.805705461,743.250724786,nan,743.556442934,nan,nan,nan,nan
1,343,1,1,1.0,1.0,0.283909137535,0,0.0,0.0,0.0,0.316821375496,0.0659322421896,0.250889133307,0.382753617686,0.0659322421896,0.31638274402,411,0.0555201669072,0.463022710015,-0.557054760163,nan,nan,nan,nan,nan,nan,nan,nan,342.805705461,744.192517534,nan,744.476426672,nan,nan,nan,nan
1,344,1,1,1.0,1.0,0.302092578204,0,0.0,0.0,0.0,0.31672542145,0.0658599709189,0.250865450531,0.382585392369,0.0658599709189,0.297239954428,312,-0.0464483572634,0.420925197877,0.455573212045,nan,nan,nan,nan,nan,nan,nan,nan,342.805705461,745.134310852,nan,745.436403431,nan,nan,nan,nan
1,345,1,1,1.0,1.0,0.27230087237,0,0.0,0.0,0.0,0.316682884115,0.0657688930008,0.250913991114,0.382451777115,0.0657688930008,0.286100862703,442,0.273907262724,0.421095538958,-1.0,nan,nan,nan,nan,nan,nan,nan,nan,342.805705461,746.076099609,nan,746.348400482,nan,nan,nan,nan
1,346,1,1,1.0,1.0,0.274471025274,0,0.0,0.0,0.0,0.316554240602,0.065716834807,0.250837405795,0.382271075409,0.065716834807,0.282954825282,137,1.0,-0.300190217086,-0.0647316600203,nan,nan,nan,nan,nan,nan,nan,nan,342.805705461,747.017897204,nan,747.292368229,nan,nan,nan,nan
1,347,0,0,0.0,1.0,0.428662496444,0,0.0,0.0,0.0,0.316432612812,0.0656606752435,0.250771937569,0.382093288056,0.0656606752435,0.325144798029,462,0.432089675478,0.378486360879,-1.0,nan,nan,nan,nan,nan,nan,nan,nan,342.805705461,747.959685961,nan,748.388348457,nan,nan,nan,nan
1,348,1,1,1.0,1.0,0.302842096309,0,0.0,0.0,0.0,0.316756041872,0.065841426983,0.250914614889,0.382597468855,0.065841426983,0.335325206009,240,0.654373017221,0.188015059697,0.642463954019,nan,nan,nan,nan,nan,nan,nan,nan,342.805705461,748.901479849,nan,749.204321946,nan,nan,nan,nan
1,349,1,1,1.0,1.0,0.289030036889,0,0.0,0.0,0.0,0.31671605927,0.065750977628,0.250965081642,0.382467036898,0.065750977628,0.340178209881,334,-0.152796554809,0.454467054946,0.285576400052,nan,nan,nan,nan,nan,nan,nan,nan,342.805705461,749.843270317,nan,750.132300353,nan,nan,nan,nan
1,350,1,1,1.0,1.0,0.3071781256,0,0.0,0.0,0.0,0.316636729693,0.0656733866903,0.250963343002,0.382310116383,0.0656733866903,0.2996834196,419,0.107894673663,0.454841969249,-0.678098861371,nan,nan,nan,nan,nan,nan,nan,nan,342.805705461,750.785066771,nan,751.092244897,nan,nan,nan,nan
1,351,0,0,0.0,1.0,0.43738957867,0,0.0,0.0,0.0,0.316609705109,0.0655814437526,0.251028261357,0.382191148862,0.0655814437526,0.344532580387,192,1.0,-0.0635997558896,0.421658406928,nan,nan,nan,nan,nan,nan,nan,nan,342.805705461,751.726859804,nan,752.164249383,nan,nan,nan,nan
1,352,1,1,1.0,1.0,0.303582491353,0,0.0,0.0,0.0,0.316953807313,0.0658036065066,0.251150200807,0.38275741382,0.0658036065066,0.349383398541,395,-0.0383984177995,0.474183508328,-0.351427224487,nan,nan,nan,nan,nan,nan,nan,nan,342.805705461,752.668650557,nan,752.972233048,nan,nan,nan,nan
1,353,1,1,1.0,1.0,0.297761680617,0,0.0,0.0,0.0,0.31691582062,0.0657139228501,0.25120189777,0.38262974347,0.0657139228501,0.346244583547,154,1.0,-0.251813147593,0.102138173725,nan,nan,nan,nan,nan,nan,nan,nan,342.805705461,753.610446726,nan,753.908208407,nan,nan,nan,nan
1,354,1,1,1.0,1.0,0.291945146339,0,0.0,0.0,0.0,0.3168615596,0.0656286738789,0.251232885722,0.382490233479,0.0656286738789,0.297763106103,38,1.0,0.0306259494545,-1.0,nan,nan,nan,nan,nan,nan,nan,nan,342.805705461,754.552240614,nan,754.844185761,nan,nan,nan,nan
1,355,1,1,1.0,1.0,0.270142408437,0,0.0,0.0,0.0,0.316791174252,0.0655492533731,0.251241920879,0.382340427625,0.0655492533731,0.286616411797,214,0.920243657418,0.0575410437433,0.553854850604,nan,nan,nan,nan,nan,nan,nan,nan,342.805705461,755.494029941,nan,755.76417235,nan,nan,nan,nan
1,356,1,1,1.0,1.0,0.248328266724,0,0.0,0.0,0.0,0.316659769278,0.0655035406453,0.251156228633,0.382163309923,0.0655035406453,0.270138607166,164,1.0,-0.209685835145,0.194761549991,nan,nan,nan,nan,nan,nan,nan,nan,342.805705461,756.435826396,nan,756.684154662,nan,nan,nan,nan
1,357,1,1,1.0,1.0,0.29850606696,0,0.0,0.0,0.0,0.316467826855,0.0655113741451,0.25095645271,0.381979201,0.0655113741451,0.272325580707,114,1.0,-0.303747463913,-0.303859371662,nan,nan,nan,nan,nan,nan,nan,nan,342.805705461,757.377615153,nan,757.67612122,nan,nan,nan,nan
1,358,1,1,1.0,1.0,0.260697168764,0,0.0,0.0,0.0,0.316417513802,0.0654264445074,0.250991069295,0.38184395831,0.0654264445074,0.269177167482,186,1.0,-0.0967386681424,0.377881386018,nan,nan,nan,nan,nan,nan,nan,nan,342.805705461,758.319409611,nan,758.58010678,nan,nan,nan,nan
1,359,1,1,1.0,1.0,0.270884514088,0,0.0,0.0,0.0,0.31626187038,0.0654011535302,0.25086071685,0.381663023911,0.0654011535302,0.276695916604,56,1.0,-0.0653675053377,-1.0,nan,nan,nan,nan,nan,nan,nan,nan,342.805705461,759.261202644,nan,759.532087159,nan,nan,nan,nan
1,360,0,0,1.0,0.0,0.265074822062,0,0.0,0.0,0.0,0.316135471059,0.0653537761597,0.2507816949,0.381489247219,0.0653537761597,0.265552168305,391,-0.0591907973189,0.475916278612,-0.303718712187,nan,nan,nan,nan,nan,nan,nan,nan,342.805705461,760.202993967,nan,760.468068789,nan,nan,nan,nan
1,361,1,1,1.0,1.0,0.259250020026,0,0.0,0.0,0.0,0.315993635923,0.0653182510784,0.250675384845,0.381311887002,0.0653182510784,0.265069785392,461,0.423959648591,0.380927367285,-1.0,nan,nan,nan,nan,nan,nan,nan,nan,342.805705461,761.144783864,nan,761.404033884,nan,nan,nan,nan
1,362,1,1,1.0,1.0,0.333461436559,0,0.0,0.0,0.0,0.315836451392,0.0652958647108,0.250540586681,0.381132316102,0.0652958647108,0.285928759549,247,0.578947625354,0.219392674348,0.6523805853,nan,nan,nan,nan,nan,nan,nan,nan,342.805705461,762.086556941,nan,762.420018377,nan,nan,nan,nan
1,363,1,1,1.0,1.0,0.295618326811,0,0.0,0.0,0.0,0.315885139196,0.0652121762968,0.250672962899,0.381097315493,0.0652121762968,0.296109927799,415,0.0813077335083,0.459153678902,-0.614968023274,nan,nan,nan,nan,nan,nan,nan,nan,342.805705461,763.028372211,nan,763.323990538,nan,nan,nan,nan
1,364,1,1,1.0,1.0,0.273804185039,0,0.0,0.0,0.0,0.315829307757,0.0651309536015,0.250698354155,0.380960261358,0.0651309536015,0.300961316136,507,0.805995650865,0.232688349973,-1.0,nan,nan,nan,nan,nan,nan,nan,nan,342.805705461,763.970168666,nan,764.243972851,nan,nan,nan,nan
1,365,1,1,1.0,1.0,0.291988480953,0,0.0,0.0,0.0,0.315713854123,0.0650786123202,0.250635241803,0.380792466443,0.0650786123202,0.287136997601,165,1.0,-0.205056383665,0.203745440608,nan,nan,nan,nan,nan,nan,nan,nan,342.805705461,764.911957138,nan,765.203945618,nan,nan,nan,nan
1,366,1,1,1.0,1.0,0.286212430394,0,0.0,0.0,0.0,0.315648853101,0.0650012336159,0.250647619485,0.380650086717,0.0650012336159,0.284001698795,84,1.0,-0.20765784414,-0.652191087791,nan,nan,nan,nan,nan,nan,nan,nan,342.805705461,765.853745324,nan,766.139957754,nan,nan,nan,nan
1,367,1,1,1.0,1.0,0.296367844916,0,0.0,0.0,0.0,0.315568425716,0.064930557086,0.25063786863,0.380498982802,0.064930557086,0.291522918754,178,1.0,-0.139919655122,0.315097826042,nan,nan,nan,nan,nan,nan,nan,nan,342.805705461,766.795541208,nan,767.091909053,nan,nan,nan,nan
1,368,1,1,1.0,1.0,0.314535605256,0,0.0,0.0,0.0,0.315516108057,0.0648497599023,0.250666348155,0.38036586796,0.0648497599023,0.299038626855,329,-0.136053278316,0.448203788942,0.3278337444,nan,nan,nan,nan,nan,nan,nan,nan,342.805705461,767.737335952,nan,768.051871557,nan,nan,nan,nan
1,369,0,0,1.0,0.0,0.316743390809,0,0.0,0.0,0.0,0.315513443648,0.0647616089909,0.250751834657,0.380275052638,0.0647616089909,0.30921561366,88,1.0,-0.225257592204,-0.599932847766,nan,nan,nan,nan,nan,nan,nan,nan,342.805705461,768.679128985,nan,768.995872376,nan,nan,nan,nan
1,370,1,1,1.0,1.0,0.190927267075,0,0.0,0.0,0.0,0.315516776838,0.0646738282083,0.250842948629,0.380190605046,0.0646738282083,0.27406875438,231,0.749609680972,0.145151270079,0.620821461523,nan,nan,nan,nan,nan,nan,nan,nan,342.805705461,769.620922589,nan,769.811849856,nan,nan,nan,nan
1,371,1,1,1.0,1.0,0.297118788469,0,0.0,0.0,0.0,0.315180048433,0.0649094668782,0.250270581555,0.380089515311,0.0649094668782,0.268263148784,459,0.407758158413,0.385709174134,-1.0,nan,nan,nan,nan,nan,nan,nan,nan,342.805705461,770.562705358,nan,770.859824147,nan,nan,nan,nan
1,372,1,1,1.0,1.0,0.291285148414,0,0.0,0.0,0.0,0.315131365791,0.0648286923453,0.250302673446,0.379960058137,0.0648286923453,0.259777067986,115,1.0,-0.305166285737,-0.293172749504,nan,nan,nan,nan,nan,nan,nan,nan,342.805705461,771.504510081,nan,771.795795229,nan,nan,nan,nan
1,373,1,1,1.0,1.0,0.285410739598,0,0.0,0.0,0.0,0.315067263057,0.0647532710339,0.250313992023,0.379820534091,0.0647532710339,0.291271558827,404,0.0124894593597,0.468746268022,-0.463349101315,nan,nan,nan,nan,nan,nan,nan,nan,342.805705461,772.446372107,nan,772.731782847,nan,nan,nan,nan
1,374,1,1,1.0,1.0,0.239675024466,0,0.0,0.0,0.0,0.314987754951,0.0646845922337,0.250303162717,0.379672347184,0.0646845922337,0.272123637493,200,1.0,-0.0191209939188,0.47515178387,nan,nan,nan,nan,nan,nan,nan,nan,342.805705461,773.388091015,nan,773.62776604,nan,nan,nan,nan
