block,trial,freq_trials,correct_response,actual_response,acc,rts,probe_trials,fast_rt_trigger,slow_rt_trigger,rt_triggered,rts_runningavg,rts_runningstd,rts_runningfastthresh,rts_runningslowthresh,rts_runningstd,rts_trailingavg,trials_colorind0,trials_colorind1,trials_colorind2,trials_colorind3,trials_colorind4,trials_colorind5,wholereport_resp0,wholereport_resp1,wholereport_resp2,wholereport_resp3,wholereport_resp4,wholereport_resp5,wholereport_respacc0,wholereport_respacc1,wholereport_respacc2,wholereport_respacc3,wholereport_respacc4,wholereport_respacc5,wholereport_respacc_total,wholereport_respcolorind0,wholereport_respcolorind1,wholereport_respcolorind2,wholereport_respcolorind3,wholereport_respcolorind4,wholereport_respcolorind5,wholereport_resporder0,wholereport_resporder1,wholereport_resporder2,wholereport_resporder3,wholereport_resporder4,wholereport_resporder5,wholereport_rts0,wholereport_rts1,wholereport_rts2,wholereport_rts3,wholereport_rts4,wholereport_rts5,time_blockstart,time_encarray_offset,time_encarray_onset,time_response,time_iti_offset,time_iti_onset,time_memprobe_offset,time_memprobe_onset
1,1,1,1,1.0,1.0,0.22637712833238766,0,nan,nan,nan,nan,nan,nan,nan,nan,nan,4,1,7,3,5,6,nan,nan,nan,nan,nan,nan,nan,nan,nan,nan,nan,nan,0.0,nan,nan,nan,nan,nan,nan,nan,nan,nan,nan,nan,nan,nan,nan,nan,nan,nan,nan,1055.6613141096313,1056.682916871854,nan,1056.9092940001865,nan,nan,nan,nan
1,2,0,0,0.0,1.0,0.38555174513021484,0,nan,nan,nan,nan,nan,nan,nan,nan,nan,0,7,5,1,2,8,nan,nan,nan,nan,nan,nan,nan,nan,nan,nan,nan,nan,0.0,nan,nan,nan,nan,nan,nan,nan,nan,nan,nan,nan,nan,nan,nan,nan,nan,nan,nan,1055.6613141096313,1057.6997257674811,nan,1058.0852775126114,nan,nan,nan,nan
1,3,1,1,1.0,1.0,0.4328073242213577,0,nan,nan,nan,nan,nan,nan,nan,nan,nan,8,3,6,4,7,1,nan,nan,nan,nan,nan,nan,nan,nan,nan,nan,nan,nan,0.0,nan,nan,nan,nan,nan,nan,nan,nan,nan,nan,nan,nan,nan,nan,nan,nan,nan,nan,1055.6613141096313,1058.716437160736,nan,1059.1492444849573,nan,nan,nan,nan
1,4,1,1,1.0,1.0,0.3756372934440151,0,nan,nan,nan,nan,nan,nan,nan,nan,nan,3,2,1,7,8,6,nan,nan,nan,nan,nan,nan,nan,nan,nan,nan,nan,nan,0.0,nan,nan,nan,nan,nan,nan,nan,nan,nan,nan,nan,nan,nan,nan,nan,nan,nan,nan,1055.6613141096313,1059.7415722457226,nan,1060.1172095391667,nan,nan,nan,nan
1,5,1,1,1.0,1.0,0.3508323481073603,0,nan,nan,nan,nan,nan,nan,nan,nan,nan,6,5,2,8,7,3,nan,nan,nan,nan,nan,nan,nan,nan,nan,nan,nan,nan,0.0,nan,nan,nan,nan,nan,nan,nan,nan,nan,nan,nan,nan,nan,nan,nan,nan,nan,nan,1055.6613141096313,1060.7583554828307,nan,1061.109187830938,nan,nan,nan,nan
1,6,1,1,1.0,1.0,0.34204516070894897,0,nan,nan,nan,nan,nan,nan,nan,nan,nan,5,2,6,3,0,4,nan,nan,nan,nan,nan,nan,nan,nan,nan,nan,nan,nan,0.0,nan,nan,nan,nan,nan,nan,nan,nan,nan,nan,nan,nan,nan,nan,nan,nan,nan,nan,1055.6613141096313,1061.7751184782246,nan,1062.1171636389336,nan,nan,nan,nan
1,7,1,1,1.0,1.0,0.5091958706034347,0,nan,nan,nan,nan,nan,nan,nan,nan,nan,3,1,7,6,8,2,nan,nan,nan,nan,nan,nan,nan,nan,nan,nan,nan,nan,0.0,nan,nan,nan,nan,nan,nan,nan,nan,nan,nan,nan,nan,nan,nan,nan,nan,nan,nan,1055.6613141096313,1062.7919248079997,nan,1063.3011206786032,nan,nan,nan,nan
1,8,1,1,1.0,1.0,0.7243747660540976,0,nan,nan,nan,nan,nan,nan,nan,nan,nan,7,0,5,1,6,3,nan,nan,nan,nan,nan,nan,nan,nan,nan,nan,nan,nan,0.0,nan,nan,nan,nan,nan,nan,nan,nan,nan,nan,nan,nan,nan,nan,nan,nan,nan,nan,1055.6613141096313,1063.808711466263,nan,1064.5330862323171,nan,nan,nan,nan
1,9,1,1,1.0,1.0,0.7555823671282269,0,nan,nan,nan,nan,nan,nan,nan,nan,nan,2,4,3,7,0,1,nan,nan,nan,nan,nan,nan,nan,nan,nan,nan,nan,nan,0.0,nan,nan,nan,nan,nan,nan,nan,nan,nan,nan,nan,nan,nan,nan,nan,nan,nan,nan,1055.6613141096313,1064.8254935630248,nan,1065.581075930153,nan,nan,nan,nan
1,10,1,1,1.0,1.0,0.49075024656485766,0,nan,nan,nan,nan,nan,nan,nan,nan,nan,7,0,6,2,1,4,nan,nan,nan,nan,nan,nan,nan,nan,nan,nan,nan,nan,0.0,nan,nan,nan,nan,nan,nan,nan,nan,nan,nan,nan,nan,nan,nan,nan,nan,nan,nan,1055.6613141096313,1065.8422807914321,nan,1066.333031037997,nan,nan,nan,nan
1,11,1,1,1.0,1.0,0.4339163423865102,0,nan,nan,nan,nan,nan,nan,nan,nan,nan,4,8,5,7,2,0,nan,nan,nan,nan,nan,nan,nan,nan,nan,nan,nan,nan,0.0,nan,nan,nan,nan,nan,nan,nan,nan,nan,nan,nan,nan,nan,nan,nan,nan,nan,nan,1055.6613141096313,1066.8590754323523,nan,1067.2929917747388,nan,nan,nan,nan
1,12,1,1,1.0,1.0,0.4091113969916478,0,nan,nan,nan,nan,nan,nan,nan,nan,nan,0,7,4,1,3,6,nan,nan,nan,nan,nan,nan,nan,nan,nan,nan,nan,nan,0.0,nan,nan,nan,nan,nan,nan,nan,nan,nan,nan,nan,nan,nan,nan,nan,nan,nan,nan,1055.6613141096313,1067.875854963262,nan,1068.2849663602537,nan,nan,nan,nan
1,13,1,1,1.0,1.0,0.35226951021468267,0,nan,nan,nan,nan,nan,nan,nan,nan,nan,4,0,2,7,8,1,nan,nan,nan,nan,nan,nan,nan,nan,nan,nan,nan,nan,0.0,nan,nan,nan,nan,nan,nan,nan,nan,nan,nan,nan,nan,nan,nan,nan,nan,nan,nan,1055.6613141096313,1068.8926567315357,nan,1069.2449262417504,nan,nan,nan,nan
1,14,1,1,1.0,1.0,0.32747226243373007,0,nan,nan,nan,nan,nan,nan,nan,nan,nan,8,6,7,3,1,4,nan,nan,nan,nan,nan,nan,nan,nan,nan,nan,nan,nan,0.0,nan,nan,nan,nan,nan,nan,nan,nan,nan,nan,nan,nan,nan,nan,nan,nan,nan,nan,1055.6613141096313,1069.9094391133403,nan,1070.236911375774,nan,nan,nan,nan
1,15,1,1,1.0,1.0,0.2706836883444339,0,nan,nan,nan,nan,nan,nan,nan,nan,nan,5,0,3,1,4,6,nan,nan,nan,nan,nan,nan,nan,nan,nan,nan,nan,nan,0.0,nan,nan,nan,nan,nan,nan,nan,nan,nan,nan,nan,nan,nan,nan,nan,nan,nan,nan,1055.6613141096313,1070.9262163634994,nan,1071.1969000518438,nan,nan,nan,nan
1,16,1,1,1.0,1.0,0.28583618404809386,0,nan,nan,nan,nan,nan,nan,nan,nan,nan,8,6,0,2,7,3,nan,nan,nan,nan,nan,nan,nan,nan,nan,nan,nan,nan,0.0,nan,nan,nan,nan,nan,nan,nan,nan,nan,nan,nan,nan,nan,nan,nan,nan,nan,nan,1055.6613141096313,1071.9430004559108,nan,1072.228836639959,nan,nan,nan,nan
1,17,1,1,1.0,1.0,0.27703987358836457,0,nan,nan,nan,nan,nan,nan,nan,nan,nan,0,4,1,5,3,8,nan,nan,nan,nan,nan,nan,nan,nan,nan,nan,nan,nan,0.0,nan,nan,nan,nan,nan,nan,nan,nan,nan,nan,nan,nan,nan,nan,nan,nan,nan,nan,1055.6613141096313,1072.95980992174,nan,1073.2368497953285,nan,nan,nan,nan
1,18,0,0,1.0,0.0,0.2592015012050979,0,nan,nan,nan,nan,nan,nan,nan,nan,nan,8,0,3,7,6,2,nan,nan,nan,nan,nan,nan,nan,nan,nan,nan,nan,nan,0.0,nan,nan,nan,nan,nan,nan,nan,nan,nan,nan,nan,nan,nan,nan,nan,nan,nan,nan,1055.6613141096313,1074.0016116400948,nan,1074.2608131412999,nan,nan,nan,nan
1,19,1,1,1.0,1.0,0.4184200225863606,0,nan,nan,nan,nan,nan,nan,nan,nan,nan,0,8,5,6,2,4,nan,nan,nan,nan,nan,nan,nan,nan,nan,nan,nan,nan,0.0,nan,nan,nan,nan,nan,nan,nan,nan,nan,nan,nan,nan,nan,nan,nan,nan,nan,nan,1055.6613141096313,1075.0183429899625,nan,1075.436763012549,nan,nan,nan,nan
1,20,1,1,1.0,1.0,0.32961075741332024,0,nan,nan,nan,nan,nan,nan,nan,nan,nan,7,2,1,4,5,0,nan,nan,nan,nan,nan,nan,nan,nan,nan,nan,nan,nan,0.0,nan,nan,nan,nan,nan,nan,nan,nan,nan,nan,nan,nan,nan,nan,nan,nan,nan,nan,1055.6613141096313,1076.0351390563883,nan,1076.3647498138016,nan,nan,nan,nan
1,21,1,1,1.0,1.0,0.28076064394554123,0,nan,nan,nan,nan,nan,nan,nan,nan,nan,8,3,7,0,4,1,nan,nan,nan,nan,nan,nan,nan,nan,nan,nan,nan,nan,0.0,nan,nan,nan,nan,nan,nan,nan,nan,nan,nan,nan,nan,nan,nan,nan,nan,nan,nan,1055.6613141096313,1077.05195536447,nan,1077.3327160084154,nan,nan,nan,nan
1,22,1,1,1.0,1.0,0.35194792348193005,0,nan,nan,nan,nan,nan,nan,nan,nan,nan,1,5,0,6,8,3,nan,nan,nan,nan,nan,nan,nan,nan,nan,nan,nan,nan,0.0,nan,nan,nan,nan,nan,nan,nan,nan,nan,nan,nan,nan,nan,nan,nan,nan,nan,nan,1055.6613141096313,1078.0687480096822,nan,1078.420695933164,nan,nan,nan,nan
1,23,1,1,1.0,1.0,0.43916693062055856,0,nan,nan,nan,nan,nan,nan,nan,nan,nan,7,1,5,8,6,4,nan,nan,nan,nan,nan,nan,nan,nan,nan,nan,nan,nan,0.0,nan,nan,nan,nan,nan,nan,nan,nan,nan,nan,nan,nan,nan,nan,nan,nan,nan,nan,1055.6613141096313,1079.085487627366,nan,1079.5246545579867,nan,nan,nan,nan
1,24,1,1,1.0,1.0,0.37436719675315544,0,nan,nan,nan,nan,nan,nan,nan,nan,nan,8,7,2,3,1,0,nan,nan,nan,nan,nan,nan,nan,nan,nan,nan,nan,nan,0.0,nan,nan,nan,nan,nan,nan,nan,nan,nan,nan,nan,nan,nan,nan,nan,nan,nan,nan,1055.6613141096313,1080.102273430326,nan,1080.4766406270792,nan,nan,nan,nan
1,25,1,1,1.0,1.0,0.44550686550792307,0,nan,nan,nan,nan,nan,nan,nan,nan,nan,0,4,1,8,2,5,nan,nan,nan,nan,nan,nan,nan,nan,nan,nan,nan,nan,0.0,nan,nan,nan,nan,nan,nan,nan,nan,nan,nan,nan,nan,nan,nan,nan,nan,nan,nan,1055.6613141096313,1081.1190843216027,nan,1081.5645911871106,nan,nan,nan,nan
1,26,1,1,1.0,1.0,0.43670513830147684,0,nan,nan,nan,nan,nan,nan,nan,nan,nan,2,8,0,1,3,4,nan,nan,nan,nan,nan,nan,nan,nan,nan,nan,nan,nan,0.0,nan,nan,nan,nan,nan,nan,nan,nan,nan,nan,nan,nan,nan,nan,nan,nan,nan,nan,1055.6613141096313,1082.1358581506065,nan,1082.572563288908,nan,nan,nan,nan
1,27,1,1,1.0,1.0,0.37188886891817674,0,nan,nan,nan,nan,nan,nan,nan,nan,nan,0,4,5,7,8,3,nan,nan,nan,nan,nan,nan,nan,nan,nan,nan,nan,nan,0.0,nan,nan,nan,nan,nan,nan,nan,nan,nan,nan,nan,nan,nan,nan,nan,nan,nan,nan,1055.6613141096313,1083.1526505107759,nan,1083.524539379694,nan,nan,nan,nan
1,28,1,1,1.0,1.0,0.40304971451405436,0,nan,nan,nan,nan,nan,nan,nan,nan,nan,4,8,6,0,3,5,nan,nan,nan,nan,nan,nan,nan,nan,nan,nan,nan,nan,0.0,nan,nan,nan,nan,nan,nan,nan,nan,nan,nan,nan,nan,nan,nan,nan,nan,nan,nan,1055.6613141096313,1084.169431467133,nan,1084.5724811816472,nan,nan,nan,nan
1,29,1,1,1.0,1.0,0.39423145179171115,0,nan,nan,nan,nan,nan,nan,nan,nan,nan,5,0,2,8,1,4,nan,nan,nan,nan,nan,nan,nan,nan,nan,nan,nan,nan,0.0,nan,nan,nan,nan,nan,nan,nan,nan,nan,nan,nan,nan,nan,nan,nan,nan,nan,nan,1055.6613141096313,1085.186222686898,nan,1085.5804541386897,nan,nan,nan,nan
1,30,0,0,1.0,0.0,0.6014507896616124,0,nan,nan,nan,nan,nan,nan,nan,nan,nan,4,8,3,5,7,1,nan,nan,nan,nan,nan,nan,nan,nan,nan,nan,nan,nan,0.0,nan,nan,nan,nan,nan,nan,nan,nan,nan,nan,nan,nan,nan,nan,nan,nan,nan,nan,1055.6613141096313,1086.202969146776,nan,1086.8044199364376,nan,nan,nan,nan
1,31,1,1,1.0,1.0,0.5045918770483695,0,nan,nan,nan,nan,nan,nan,nan,nan,nan,8,3,0,2,6,7,nan,nan,nan,nan,nan,nan,nan,nan,nan,nan,nan,nan,0.0,nan,nan,nan,nan,nan,nan,nan,nan,nan,nan,nan,nan,nan,nan,nan,nan,nan,nan,1055.6613141096313,1087.2197911567637,nan,1087.724383033812,nan,nan,nan,nan
1,32,1,1,1.0,1.0,0.3838377560605295,0,nan,nan,nan,nan,nan,nan,nan,nan,nan,5,2,4,1,3,8,nan,nan,nan,nan,nan,nan,nan,nan,nan,nan,nan,nan,0.0,nan,nan,nan,nan,nan,nan,nan,nan,nan,nan,nan,nan,nan,nan,nan,nan,nan,nan,1055.6613141096313,1088.2365361911943,nan,1088.6203739472548,nan,nan,nan,nan
1,33,0,0,0.0,1.0,0.47859694657381624,0,nan,nan,nan,nan,nan,nan,nan,nan,nan,6,5,0,7,8,4,nan,nan,nan,nan,nan,nan,nan,nan,nan,nan,nan,nan,0.0,nan,nan,nan,nan,nan,nan,nan,nan,nan,nan,nan,nan,nan,nan,nan,nan,nan,nan,1055.6613141096313,1089.2617331417277,nan,1089.7403300883016,nan,nan,nan,nan
1,34,1,1,1.0,1.0,0.44579965772572905,0,nan,nan,nan,nan,nan,nan,nan,nan,nan,8,3,7,4,6,2,nan,nan,nan,nan,nan,nan,nan,nan,nan,nan,nan,nan,0.0,nan,nan,nan,nan,nan,nan,nan,nan,nan,nan,nan,nan,nan,nan,nan,nan,nan,nan,1055.6613141096313,1090.278536905651,nan,1090.7243365633767,nan,nan,nan,nan
1,35,1,1,1.0,1.0,0.42901955667184666,0,nan,nan,nan,nan,nan,nan,nan,nan,nan,5,1,8,3,2,6,nan,nan,nan,nan,nan,nan,nan,nan,nan,nan,nan,nan,0.0,nan,nan,nan,nan,nan,nan,nan,nan,nan,nan,nan,nan,nan,nan,nan,nan,nan,nan,1055.6613141096313,1091.2952614132664,nan,1091.7242809699383,nan,nan,nan,nan
1,36,1,1,1.0,1.0,0.43618997221346945,0,nan,nan,nan,nan,nan,nan,nan,nan,nan,3,6,7,5,8,1,nan,nan,nan,nan,nan,nan,nan,nan,nan,nan,nan,nan,0.0,nan,nan,nan,nan,nan,nan,nan,nan,nan,nan,nan,nan,nan,nan,nan,nan,nan,nan,1055.6613141096313,1092.3120902655646,nan,1092.748280237778,nan,nan,nan,nan
1,37,0,0,0.0,1.0,0.4673590855090879,0,nan,nan,nan,nan,nan,nan,nan,nan,nan,5,3,0,6,2,7,nan,nan,nan,nan,nan,nan,nan,nan,nan,nan,nan,nan,0.0,nan,nan,nan,nan,nan,nan,nan,nan,nan,nan,nan,nan,nan,nan,nan,nan,nan,nan,1055.6613141096313,1093.3288820555317,nan,1093.7962411410408,nan,nan,nan,nan
1,38,1,1,1.0,1.0,0.43428154865978286,0,nan,nan,nan,nan,nan,nan,nan,nan,nan,8,5,4,1,0,3,nan,nan,nan,nan,nan,nan,nan,nan,nan,nan,nan,nan,0.0,nan,nan,nan,nan,nan,nan,nan,nan,nan,nan,nan,nan,nan,nan,nan,nan,nan,nan,1055.6613141096313,1094.3539384543546,nan,1094.7882200030144,nan,nan,nan,nan
1,39,1,1,1.0,1.0,0.4731026024091989,0,nan,nan,nan,nan,nan,nan,nan,nan,nan,0,4,2,5,7,6,nan,nan,nan,nan,nan,nan,nan,nan,nan,nan,nan,nan,0.0,nan,nan,nan,nan,nan,nan,nan,nan,nan,nan,nan,nan,nan,nan,nan,nan,nan,nan,1055.6613141096313,1095.3790632759337,nan,1095.852165878343,nan,nan,nan,nan
1,40,1,1,1.0,1.0,0.4162618560367264,0,nan,nan,nan,nan,nan,nan,nan,nan,nan,1,0,7,6,2,5,nan,nan,nan,nan,nan,nan,nan,nan,nan,nan,nan,nan,0.0,nan,nan,nan,nan,nan,nan,nan,nan,nan,nan,nan,nan,nan,nan,nan,nan,nan,nan,1055.6613141096313,1096.3958693206077,nan,1096.8121311766445,nan,nan,nan,nan
1,41,1,1,1.0,1.0,0.3754474204033613,0,nan,nan,nan,nan,nan,nan,nan,nan,nan,3,1,8,7,5,0,nan,nan,nan,nan,nan,nan,nan,nan,nan,nan,nan,nan,0.0,nan,nan,nan,nan,nan,nan,nan,nan,nan,nan,nan,nan,nan,nan,nan,nan,nan,nan,1055.6613141096313,1097.4126508471672,nan,1097.7880982675706,nan,nan,nan,nan
1,42,1,1,1.0,1.0,0.342621622083243,0,nan,nan,nan,nan,nan,nan,nan,nan,nan,1,3,0,6,4,8,nan,nan,nan,nan,nan,nan,nan,nan,nan,nan,nan,nan,0.0,nan,nan,nan,nan,nan,nan,nan,nan,nan,nan,nan,nan,nan,nan,nan,nan,nan,nan,1055.6613141096313,1098.429450049589,nan,1098.7720716716722,nan,nan,nan,nan
1,43,1,1,1.0,1.0,0.3178389141103253,0,nan,nan,nan,nan,nan,nan,nan,nan,nan,7,8,4,1,5,2,nan,nan,nan,nan,nan,nan,nan,nan,nan,nan,nan,nan,0.0,nan,nan,nan,nan,nan,nan,nan,nan,nan,nan,nan,nan,nan,nan,nan,nan,nan,nan,1055.6613141096313,1099.446227584791,nan,1099.7640664989012,nan,nan,nan,nan
1,44,1,1,1.0,1.0,0.29304594272980466,0,nan,nan,nan,nan,nan,nan,nan,nan,nan,8,2,0,4,3,5,nan,nan,nan,nan,nan,nan,nan,nan,nan,nan,nan,nan,0.0,nan,nan,nan,nan,nan,nan,nan,nan,nan,nan,nan,nan,nan,nan,nan,nan,nan,nan,1055.6613141096313,1100.4630176642095,nan,1100.7560636069393,nan,nan,nan,nan
1,45,1,1,1.0,1.0,0.32390031148679554,1,nan,nan,nan,nan,nan,nan,nan,nan,nan,5,0,7,6,1,4,1.0,1.0,1.0,1.0,1.0,1.0,0.0,0.0,0.0,1.0,0.0,0.0,1.0,8.0,1.0,0.0,6.0,4.0,3.0,1.0,2.0,3.0,4.0,5.0,6.0,2.497404640831519,3.5141967158415355,4.225066833314486,6.255709946970455,7.424589470785577,8.607640479633119,1055.6613141096313,1101.488109414815,1102.2965369267622,1101.8120097263018,1111.9559913639096,1112.954054715985,1103.3133498137468,1111.9476657448104
1,46,1,1,1.0,1.0,0.4788047805777751,0,nan,nan,nan,nan,nan,nan,nan,nan,nan,8,2,5,7,3,0,nan,nan,nan,nan,nan,nan,nan,nan,nan,nan,nan,nan,0.0,nan,nan,nan,nan,nan,nan,nan,nan,nan,nan,nan,nan,nan,nan,nan,nan,nan,nan,1055.6613141096313,1113.1728702788241,nan,1113.651675059402,nan,nan,nan,nan
1,47,1,1,1.0,1.0,0.4220102195395157,0,nan,nan,nan,nan,nan,nan,nan,nan,nan,5,8,1,4,6,7,nan,nan,nan,nan,nan,nan,nan,nan,nan,nan,nan,nan,0.0,nan,nan,nan,nan,nan,nan,nan,nan,nan,nan,nan,nan,nan,nan,nan,nan,nan,nan,1055.6613141096313,1114.1896013435908,nan,1114.6116115631303,nan,nan,nan,nan
1,48,1,1,1.0,1.0,0.4368320053908974,0,nan,nan,nan,nan,nan,nan,nan,nan,nan,6,5,8,7,0,2,nan,nan,nan,nan,nan,nan,nan,nan,nan,nan,nan,nan,0.0,nan,nan,nan,nan,nan,nan,nan,nan,nan,nan,nan,nan,nan,nan,nan,nan,nan,nan,1055.6613141096313,1115.2147381391842,nan,1115.651570144575,nan,nan,nan,nan
1,49,1,1,1.0,1.0,0.42803997138980776,0,nan,nan,nan,nan,nan,nan,nan,nan,nan,7,2,6,0,8,1,nan,nan,nan,nan,nan,nan,nan,nan,nan,nan,nan,nan,0.0,nan,nan,nan,nan,nan,nan,nan,nan,nan,nan,nan,nan,nan,nan,nan,nan,nan,nan,1055.6613141096313,1116.2315190955414,nan,1116.6595590669313,nan,nan,nan,nan
1,50,1,1,1.0,1.0,0.36320003925357014,0,nan,nan,nan,nan,nan,nan,nan,nan,nan,8,3,4,1,5,0,nan,nan,nan,nan,nan,nan,nan,nan,nan,nan,nan,nan,0.0,nan,nan,nan,nan,nan,nan,nan,nan,nan,nan,nan,nan,nan,nan,nan,nan,nan,nan,1055.6613141096313,1117.2483197234105,nan,1117.611519762664,nan,nan,nan,nan
1,51,1,1,1.0,1.0,0.34607611398678273,0,nan,nan,nan,nan,nan,nan,nan,nan,nan,1,2,0,6,4,7,nan,nan,nan,nan,nan,nan,nan,nan,nan,nan,nan,nan,0.0,nan,nan,nan,nan,nan,nan,nan,nan,nan,nan,nan,nan,nan,nan,nan,nan,nan,nan,1055.6613141096313,1118.273459940101,nan,1118.6195360540878,nan,nan,nan,nan
1,52,1,1,1.0,1.0,0.3212435144232586,0,nan,nan,nan,nan,nan,nan,nan,nan,nan,3,6,8,0,2,5,nan,nan,nan,nan,nan,nan,nan,nan,nan,nan,nan,nan,0.0,nan,nan,nan,nan,nan,nan,nan,nan,nan,nan,nan,nan,nan,nan,nan,nan,nan,nan,1055.6613141096313,1119.2902386157075,nan,1119.6114821301308,nan,nan,nan,nan
1,53,1,1,1.0,1.0,0.2564283855026588,1,nan,nan,nan,nan,nan,nan,nan,nan,nan,5,7,2,6,1,0,1.0,1.0,1.0,1.0,1.0,1.0,1.0,0.0,0.0,0.0,0.0,1.0,2.0,5.0,3.0,1.0,7.0,6.0,0.0,2.0,5.0,4.0,6.0,3.0,1.0,1.7884084505494684,5.268448831397109,4.0997951024910435,6.779683698900044,2.8686266734148376,0.9979518800391816,1055.6613141096313,1120.3070093086571,1121.115421710594,1120.5634376941598,1128.9663300364045,1129.9731617596117,1122.1488350889995,1128.9580012812512
1,54,1,1,1.0,1.0,0.5796735495096073,0,nan,nan,nan,nan,nan,nan,nan,nan,nan,3,0,4,1,7,2,nan,nan,nan,nan,nan,nan,nan,nan,nan,nan,nan,nan,0.0,nan,nan,nan,nan,nan,nan,nan,nan,nan,nan,nan,nan,nan,nan,nan,nan,nan,nan,1055.6613141096313,1130.191482113034,nan,1130.7711556625436,nan,nan,nan,nan
1,55,1,1,1.0,1.0,0.5464956592768431,0,nan,nan,nan,nan,nan,nan,nan,nan,nan,0,1,6,2,5,8,nan,nan,nan,nan,nan,nan,nan,nan,nan,nan,nan,nan,0.0,nan,nan,nan,nan,nan,nan,nan,nan,nan,nan,nan,nan,nan,nan,nan,nan,nan,nan,1055.6613141096313,1131.2166402906878,nan,1131.7631359499646,nan,nan,nan,nan
1,56,1,1,1.0,1.0,0.6093268145341426,0,nan,nan,nan,nan,nan,nan,nan,nan,nan,7,6,4,8,1,0,nan,nan,nan,nan,nan,nan,nan,nan,nan,nan,nan,nan,0.0,nan,nan,nan,nan,nan,nan,nan,nan,nan,nan,nan,nan,nan,nan,nan,nan,nan,nan,1055.6613141096313,1132.241762546415,nan,1132.8510893609491,nan,nan,nan,nan
1,57,1,1,1.0,1.0,0.7202109586214647,0,nan,nan,nan,nan,nan,nan,nan,nan,nan,5,8,6,4,3,2,nan,nan,nan,nan,nan,nan,nan,nan,nan,nan,nan,nan,0.0,nan,nan,nan,nan,nan,nan,nan,nan,nan,nan,nan,nan,nan,nan,nan,nan,nan,nan,1055.6613141096313,1133.2668454590603,nan,1133.9870564176817,nan,nan,nan,nan
1,58,1,1,1.0,1.0,0.6950696015846916,0,nan,nan,nan,nan,nan,nan,nan,nan,nan,6,3,7,8,2,0,nan,nan,nan,nan,nan,nan,nan,nan,nan,nan,nan,nan,0.0,nan,nan,nan,nan,nan,nan,nan,nan,nan,nan,nan,nan,nan,nan,nan,nan,nan,nan,1055.6613141096313,1134.2919600172318,nan,1134.9870296188165,nan,nan,nan,nan
1,59,1,1,1.0,1.0,0.6939289378933609,0,nan,nan,nan,nan,nan,nan,nan,nan,nan,1,2,4,3,5,7,nan,nan,nan,nan,nan,nan,nan,nan,nan,nan,nan,nan,0.0,nan,nan,nan,nan,nan,nan,nan,nan,nan,nan,nan,nan,nan,nan,nan,nan,nan,nan,1055.6613141096313,1135.3170825580019,nan,1136.0110114958952,nan,nan,nan,nan
1,60,1,1,1.0,1.0,0.5647502699284814,0,nan,nan,nan,nan,nan,nan,nan,nan,nan,7,8,5,6,1,3,nan,nan,nan,nan,nan,nan,nan,nan,nan,nan,nan,nan,0.0,nan,nan,nan,nan,nan,nan,nan,nan,nan,nan,nan,nan,nan,nan,nan,nan,nan,nan,1055.6613141096313,1136.342253279814,nan,1136.9070035497425,nan,nan,nan,nan
1,61,1,1,1.0,1.0,0.3636188432574272,0,nan,nan,nan,nan,nan,nan,nan,nan,nan,2,5,0,4,3,6,nan,nan,nan,nan,nan,nan,nan,nan,nan,nan,nan,nan,0.0,nan,nan,nan,nan,nan,nan,nan,nan,nan,nan,nan,nan,nan,nan,nan,nan,nan,nan,1055.6613141096313,1137.3673344819108,nan,1137.7309533251682,nan,nan,nan,nan
1,62,1,1,1.0,1.0,0.2424647345324047,0,nan,nan,nan,nan,nan,nan,nan,nan,nan,0,6,5,8,4,3,nan,nan,nan,nan,nan,nan,nan,nan,nan,nan,nan,nan,0.0,nan,nan,nan,nan,nan,nan,nan,nan,nan,nan,nan,nan,nan,nan,nan,nan,nan,nan,1055.6613141096313,1138.3924732730957,nan,1138.634938007628,nan,nan,nan,nan
1,63,1,1,1.0,1.0,0.2736438261345029,0,nan,nan,nan,nan,nan,nan,nan,nan,nan,2,8,7,3,0,1,nan,nan,nan,nan,nan,nan,nan,nan,nan,nan,nan,nan,0.0,nan,nan,nan,nan,nan,nan,nan,nan,nan,nan,nan,nan,nan,nan,nan,nan,nan,nan,1055.6613141096313,1139.4092696245643,nan,1139.6829134506988,nan,nan,nan,nan
1,64,1,1,1.0,1.0,0.32882731733843684,0,nan,nan,nan,nan,nan,nan,nan,nan,nan,4,0,2,6,5,3,nan,nan,nan,nan,nan,nan,nan,nan,nan,nan,nan,nan,0.0,nan,nan,nan,nan,nan,nan,nan,nan,nan,nan,nan,nan,nan,nan,nan,nan,nan,nan,1055.6613141096313,1140.4260491554742,nan,1140.7548764728126,nan,nan,nan,nan
1,65,1,1,1.0,1.0,0.3520052275271155,0,nan,nan,nan,nan,nan,nan,nan,nan,nan,6,3,0,8,4,7,nan,nan,nan,nan,nan,nan,nan,nan,nan,nan,nan,nan,0.0,nan,nan,nan,nan,nan,nan,nan,nan,nan,nan,nan,nan,nan,nan,nan,nan,nan,nan,1055.6613141096313,1141.4428215589724,nan,1141.7948267864995,nan,nan,nan,nan
1,66,0,0,1.0,0.0,0.3028859846526757,0,nan,nan,nan,nan,nan,nan,nan,nan,nan,1,4,3,5,7,0,nan,nan,nan,nan,nan,nan,nan,nan,nan,nan,nan,nan,0.0,nan,nan,nan,nan,nan,nan,nan,nan,nan,nan,nan,nan,nan,nan,nan,nan,nan,nan,1055.6613141096313,1142.4679295599926,nan,1142.7708155446453,nan,nan,nan,nan
1,67,1,1,1.0,1.0,0.3897112761042081,1,nan,nan,nan,nan,nan,nan,nan,nan,nan,6,7,1,2,4,8,1.0,1.0,1.0,1.0,1.0,1.0,0.0,0.0,0.0,0.0,0.0,0.0,0.0,4.0,5.0,3.0,4.0,2.0,3.0,1.0,2.0,3.0,4.0,5.0,6.0,1.2687464701593854,2.3376253382884897,3.7303600431769155,4.459059124928899,5.194126080838032,6.025807053083554,1055.6613141096313,1143.4930495349108,1144.3014759065118,1143.882760811015,1151.3855973602622,1152.3897326582228,1145.3182582883746,1151.3772740219138
1,68,1,1,1.0,1.0,0.5917282067239285,0,nan,nan,nan,nan,nan,nan,nan,nan,nan,5,1,2,8,7,0,nan,nan,nan,nan,nan,nan,nan,nan,nan,nan,nan,nan,0.0,nan,nan,nan,nan,nan,nan,nan,nan,nan,nan,nan,nan,nan,nan,nan,nan,nan,nan,1055.6613141096313,1152.6108024644782,nan,1153.202530671202,nan,nan,nan,nan
1,69,1,1,1.0,1.0,0.7108618496567942,0,nan,nan,nan,nan,nan,nan,nan,nan,nan,6,0,8,4,2,7,nan,nan,nan,nan,nan,nan,nan,nan,nan,nan,nan,nan,0.0,nan,nan,nan,nan,nan,nan,nan,nan,nan,nan,nan,nan,nan,nan,nan,nan,nan,nan,1055.6613141096313,1153.6276110750623,nan,1154.338472924719,nan,nan,nan,nan
1,70,0,0,0.0,1.0,0.694078897649888,0,nan,nan,nan,nan,nan,nan,nan,nan,nan,1,7,0,5,3,8,nan,nan,nan,nan,nan,nan,nan,nan,nan,nan,nan,nan,0.0,nan,nan,nan,nan,nan,nan,nan,nan,nan,nan,nan,nan,nan,nan,nan,nan,nan,nan,1055.6613141096313,1154.644376351207,nan,1155.338455248857,nan,nan,nan,nan
1,71,1,1,1.0,1.0,0.5892758225090802,0,nan,nan,nan,nan,nan,nan,nan,nan,nan,2,3,5,4,0,6,nan,nan,nan,nan,nan,nan,nan,nan,nan,nan,nan,nan,0.0,nan,nan,nan,nan,nan,nan,nan,nan,nan,nan,nan,nan,nan,nan,nan,nan,nan,nan,1055.6613141096313,1155.661176123831,nan,1156.25045194634,nan,nan,nan,nan
1,72,1,1,1.0,1.0,0.6124605749500915,0,nan,nan,nan,nan,nan,nan,nan,nan,nan,7,2,1,5,6,8,nan,nan,nan,nan,nan,nan,nan,nan,nan,nan,nan,nan,0.0,nan,nan,nan,nan,nan,nan,nan,nan,nan,nan,nan,nan,nan,nan,nan,nan,nan,nan,1055.6613141096313,1156.677945676376,nan,1157.2904062513262,nan,nan,nan,nan
1,73,1,1,1.0,1.0,0.5876733054756187,1,nan,nan,nan,nan,nan,nan,nan,nan,nan,5,1,4,0,8,7,1.0,1.0,1.0,1.0,1.0,1.0,1.0,0.0,0.0,0.0,0.0,0.0,1.0,5.0,3.0,8.0,4.0,1.0,0.0,1.0,6.0,5.0,4.0,3.0,2.0,0.9921713008661754,5.815863350755535,4.6478542208787985,3.4890014759730548,2.703807752695866,1.9043570160865784,1055.6613141096313,1157.6947103823186,1158.5031262054108,1158.2823836877942,1165.370562893746,1166.366947323375,1159.5115672879037,1165.3622295770328
1,74,1,1,nan,nan,nan,0,nan,nan,nan,nan,nan,nan,nan,nan,nan,0,5,7,8,1,2,nan,nan,nan,nan,nan,nan,nan,nan,nan,nan,nan,nan,0.0,nan,nan,nan,nan,nan,nan,nan,nan,nan,nan,nan,nan,nan,nan,nan,nan,nan,nan,1055.6613141096313,1166.5873793729115,nan,nan,nan,nan,nan,nan
1,75,1,1,1.0,1.0,0.21390252670971677,0,nan,nan,nan,nan,nan,nan,nan,nan,nan,2,1,3,6,4,7,nan,nan,nan,nan,nan,nan,nan,nan,nan,nan,nan,nan,0.0,nan,nan,nan,nan,nan,nan,nan,nan,nan,nan,nan,nan,nan,nan,nan,nan,nan,nan,1055.6613141096313,1167.6042162078083,nan,1167.818118734518,nan,nan,nan,nan
1,76,1,1,1.0,1.0,0.3007229715003632,0,nan,nan,nan,nan,nan,nan,nan,nan,nan,0,4,2,8,5,6,nan,nan,nan,nan,nan,nan,nan,nan,nan,nan,nan,nan,0.0,nan,nan,nan,nan,nan,nan,nan,nan,nan,nan,nan,nan,nan,nan,nan,nan,nan,nan,1055.6613141096313,1168.629331336182,nan,1168.9300543076824,nan,nan,nan,nan
1,77,1,1,1.0,1.0,0.31594189431052655,0,nan,nan,nan,nan,nan,nan,nan,nan,nan,1,0,7,4,2,3,nan,nan,nan,nan,nan,nan,nan,nan,nan,nan,nan,nan,0.0,nan,nan,nan,nan,nan,nan,nan,nan,nan,nan,nan,nan,nan,nan,nan,nan,nan,nan,1055.6613141096313,1169.6461083011818,nan,1169.9620501954923,nan,nan,nan,nan
1,78,1,1,1.0,1.0,0.2827611530665308,0,nan,nan,nan,nan,nan,nan,nan,nan,nan,6,7,0,3,4,1,nan,nan,nan,nan,nan,nan,nan,nan,nan,nan,nan,nan,0.0,nan,nan,nan,nan,nan,nan,nan,nan,nan,nan,nan,nan,nan,nan,nan,nan,nan,nan,1055.6613141096313,1170.6712194382562,nan,1170.9539805913228,nan,nan,nan,nan
1,79,1,1,1.0,1.0,0.30560920876450837,0,nan,nan,nan,nan,nan,nan,nan,nan,nan,8,1,7,4,0,5,nan,nan,nan,nan,nan,nan,nan,nan,nan,nan,nan,nan,0.0,nan,nan,nan,nan,nan,nan,nan,nan,nan,nan,nan,nan,nan,nan,nan,nan,nan,nan,1055.6613141096313,1171.6963485362357,nan,1172.0019577450003,nan,nan,nan,nan
1,80,0,0,1.0,0.0,0.3047804386005737,0,nan,nan,nan,nan,nan,nan,nan,nan,nan,7,2,1,3,6,4,nan,nan,nan,nan,nan,nan,nan,nan,nan,nan,nan,nan,0.0,nan,nan,nan,nan,nan,nan,nan,nan,nan,nan,nan,nan,nan,nan,nan,nan,nan,nan,1055.6613141096313,1172.7131397560006,nan,1173.0179201946012,nan,nan,nan,nan
1,81,1,1,1.0,1.0,0.33599744783714414,0,0.0,0.0,0.0,0.42281938308357747,0.1317163454447339,0.2911030376388436,0.5545357285283113,0.1317163454447339,0.3154623650674087,0,8,5,6,4,7,nan,nan,nan,nan,nan,nan,nan,nan,nan,nan,nan,nan,0.0,nan,nan,nan,nan,nan,nan,nan,nan,nan,nan,nan,nan,nan,nan,nan,nan,nan,nan,1055.6613141096313,1173.7299198570545,nan,1174.0659173048916,nan,nan,nan,nan
1,82,1,1,1.0,1.0,0.36685210175346583,0,0.0,0.0,0.0,0.421734108892997,0.13124548943499156,0.2904886194580054,0.5529795983279886,0.13124548943499156,0.33587666273039457,8,7,0,2,5,4,nan,nan,nan,nan,nan,nan,nan,nan,nan,nan,nan,nan,0.0,nan,nan,nan,nan,nan,nan,nan,nan,nan,nan,nan,nan,nan,nan,nan,nan,nan,nan,1055.6613141096313,1174.7550415425794,nan,1175.1218936443329,nan,nan,nan,nan
1,83,1,1,1.0,1.0,0.4700384050956927,0,0.0,0.0,0.0,0.42105655324929914,0.13057352731417088,0.29048302593512826,0.55163008056347,0.13057352731417088,0.3909626515621009,4,0,6,5,1,2,nan,nan,nan,nan,nan,nan,nan,nan,nan,nan,nan,nan,0.0,nan,nan,nan,nan,nan,nan,nan,nan,nan,nan,nan,nan,nan,nan,nan,nan,nan,nan,1055.6613141096313,1175.7718187927385,nan,1176.2418571978342,nan,nan,nan,nan
1,84,1,1,1.0,1.0,0.6852073222398758,0,0.0,0.0,0.0,0.42165389290596245,0.12988621154519436,0.2917676813607681,0.5515401044511568,0.12988621154519436,0.5073659430296781,7,5,3,8,2,6,nan,nan,nan,nan,nan,nan,nan,nan,nan,nan,nan,nan,0.0,nan,nan,nan,nan,nan,nan,nan,nan,nan,nan,nan,nan,nan,nan,nan,nan,nan,nan,1055.6613141096313,1176.7886068764492,nan,1177.473814198689,nan,nan,nan,nan
1,85,0,0,nan,nan,nan,0,0.0,0.0,0.0,0.0,0.0,0.0,0.0,0.0,0.0,1,4,5,0,7,3,nan,nan,nan,nan,nan,nan,nan,nan,nan,nan,nan,nan,0.0,nan,nan,nan,nan,nan,nan,nan,nan,nan,nan,nan,nan,nan,nan,nan,nan,nan,nan,1055.6613141096313,1177.8054305969854,nan,nan,nan,nan,nan,nan
1,86,1,1,1.0,1.0,0.6514960199128836,1,0.0,1.0,1.0,0.4248292354280578,0.13226473223188165,0.2925645031961761,0.5570939676599395,0.13226473223188165,0.6683516710763797,4,5,1,2,6,8,1.0,1.0,1.0,1.0,1.0,1.0,0.0,0.0,0.0,0.0,0.0,0.0,0.0,5.0,6.0,4.0,4.0,1.0,3.0,1.0,6.0,5.0,4.0,3.0,2.0,1.8099695889977738,6.735437008785084,5.7519351512310095,4.831840625265613,3.8249267948558554,2.8963099343818612,1055.6613141096313,1178.8222315100138,1179.630601432873,1179.4737275299267,1187.4314975994057,1188.440327550983,1180.6557034468278,1187.4231620019418
1,87,1,1,1.0,1.0,0.34455171291483566,0,0.0,0.0,0.0,0.42752764952906763,0.1337537191253293,0.29377393040373834,0.5612813686543969,0.1337537191253293,0.49802386641385965,5,0,8,6,3,2,nan,nan,nan,nan,nan,nan,nan,nan,nan,nan,nan,nan,0.0,nan,nan,nan,nan,nan,nan,nan,nan,nan,nan,nan,nan,nan,nan,nan,nan,nan,nan,1055.6613141096313,1188.6649604702252,nan,1189.00951218314,nan,nan,nan,nan
1,88,1,1,1.0,1.0,0.2877001328743063,0,0.0,0.0,0.0,0.4265514620394884,0.13326527396816157,0.29328618807132684,0.55981673600765,0.13326527396816157,0.42791595523400855,2,1,6,3,8,5,nan,nan,nan,nan,nan,nan,nan,nan,nan,nan,nan,nan,0.0,nan,nan,nan,nan,nan,nan,nan,nan,nan,nan,nan,nan,nan,nan,nan,nan,nan,nan,1055.6613141096313,1189.6817699360545,nan,1189.9694700689288,nan,nan,nan,nan
1,89,1,1,1.0,1.0,0.2228690386400558,1,1.0,0.0,1.0,0.4249369117003584,0.13332179705614725,0.2916151146442112,0.5582587087565056,0.13332179705614725,0.2850402948097326,0,8,3,6,4,7,1.0,1.0,1.0,1.0,1.0,1.0,1.0,0.0,0.0,0.0,1.0,0.0,2.0,0.0,6.0,1.0,3.0,4.0,8.0,1.0,6.0,5.0,4.0,3.0,2.0,0.7884195692022331,5.418617878225632,4.4914823696017265,3.611003741272725,2.7309464828576893,1.8189255523611791,1055.6613141096313,1190.698571419227,1191.506984106265,1190.921440457867,1197.982714996324,1198.9856295189238,1192.5237821683404,1197.9744569446193
1,90,1,1,1.0,1.0,0.37725092918844894,0,0.0,0.0,0.0,0.4226142924697802,0.13429194623446794,0.2883223462353123,0.5569062387042482,0.13429194623446794,0.2959400335676037,3,5,6,0,8,4,nan,nan,nan,nan,nan,nan,nan,nan,nan,nan,nan,nan,0.0,nan,nan,nan,nan,nan,nan,nan,nan,nan,nan,nan,nan,nan,nan,nan,nan,nan,nan,1055.6613141096313,1199.2079440485104,nan,1199.5851949776988,nan,nan,nan,nan
1,91,1,1,1.0,1.0,0.4164619924267754,0,0.0,0.0,0.0,0.42209879970521963,0.13361328543267698,0.28848551427254265,0.5557120851378966,0.13361328543267698,0.3388606534184267,7,8,2,5,4,6,nan,nan,nan,nan,nan,nan,nan,nan,nan,nan,nan,nan,0.0,nan,nan,nan,nan,nan,nan,nan,nan,nan,nan,nan,nan,nan,nan,nan,nan,nan,nan,1055.6613141096313,1200.224691933894,nan,1200.6411539263208,nan,nan,nan,nan
1,92,1,1,1.0,1.0,0.3756427102489397,0,0.0,0.0,0.0,0.4220354647919787,0.1328618569756085,0.28917360781637014,0.5548973217675872,0.1328618569756085,0.389785210621388,8,1,7,2,5,0,nan,nan,nan,nan,nan,nan,nan,nan,nan,nan,nan,nan,0.0,nan,nan,nan,nan,nan,nan,nan,nan,nan,nan,nan,nan,nan,nan,nan,nan,nan,nan,1055.6613141096313,1201.2414945574128,nan,1201.6171372676617,nan,nan,nan,nan
1,93,1,1,1.0,1.0,0.3024822906590998,0,0.0,0.0,0.0,0.42151998974150046,0.13221113895912553,0.2893088507823749,0.553731128700626,0.13221113895912553,0.364862331111605,2,7,8,3,0,5,nan,nan,nan,nan,nan,nan,nan,nan,nan,nan,nan,nan,0.0,nan,nan,nan,nan,nan,nan,nan,nan,nan,nan,nan,nan,nan,nan,nan,nan,nan,nan,1055.6613141096313,1202.266611111234,nan,1202.569093401893,nan,nan,nan,nan
1,94,1,1,1.0,1.0,0.3013142578420229,0,0.0,0.0,0.0,0.42021188315817737,0.13206703815679363,0.2881448450013837,0.552278921314971,0.13206703815679363,0.32647975291668746,8,4,6,5,3,1,nan,nan,nan,nan,nan,nan,nan,nan,nan,nan,nan,nan,0.0,nan,nan,nan,nan,nan,nan,nan,nan,nan,nan,nan,nan,nan,nan,nan,nan,nan,nan,1055.6613141096313,1203.291747051524,nan,1203.593061309366,nan,nan,nan,nan
1,95,1,1,1.0,1.0,0.30051969905616716,0,0.0,0.0,0.0,0.4189195176656105,0.1319246293285999,0.2869948883370106,0.5508441469942104,0.1319246293285999,0.3014387491857633,2,8,3,4,5,7,nan,nan,nan,nan,nan,nan,nan,nan,nan,nan,nan,nan,0.0,nan,nan,nan,nan,nan,nan,nan,nan,nan,nan,nan,nan,nan,nan,nan,nan,nan,nan,1055.6613141096313,1204.308516033867,nan,1204.609035732923,nan,nan,nan,nan
1,96,0,0,1.0,0.0,0.47570266568800434,0,0.0,0.0,0.0,0.4176464013364767,0.13178043404238945,0.2858659672940872,0.5494268353788662,0.13178043404238945,0.3591788741953981,1,6,5,2,8,4,nan,nan,nan,nan,nan,nan,nan,nan,nan,nan,nan,nan,0.0,nan,nan,nan,nan,nan,nan,nan,nan,nan,nan,nan,nan,nan,nan,nan,nan,nan,nan,1055.6613141096313,1205.3252981306287,nan,1205.8010007963167,nan,nan,nan,nan
1,97,1,1,1.0,1.0,0.6985722744720988,0,0.0,0.0,0.0,0.41826402117000355,0.13121285181262518,0.2870511693573784,0.5494768729826287,0.13121285181262518,0.4915982130720901,2,3,8,7,5,0,nan,nan,nan,nan,nan,nan,nan,nan,nan,nan,nan,nan,0.0,nan,nan,nan,nan,nan,nan,nan,nan,nan,nan,nan,nan,nan,nan,nan,nan,nan,nan,1055.6613141096313,1206.3504044210422,nan,1207.0489766955143,nan,nan,nan,nan
1,98,1,1,1.0,1.0,0.6177371068042703,1,0.0,1.0,1.0,0.4212146343626572,0.13361870373466084,0.2875959306279964,0.554833338097318,0.13361870373466084,0.5973373489881245,7,4,6,5,1,2,1.0,1.0,1.0,1.0,1.0,1.0,1.0,0.0,0.0,0.0,0.0,1.0,2.0,7.0,1.0,0.0,3.0,8.0,2.0,2.0,6.0,5.0,4.0,3.0,1.0,1.9103850573883392,6.382010584406089,5.389787111256737,4.230765875370707,3.3983804342569783,1.1439106489997357,1055.6613141096313,1207.3672016278142,1208.1755989197409,1207.9849387346185,1215.6014647593256,1216.5975447078818,1209.1840665160562,1215.5931322979159
1,99,1,1,1.0,1.0,0.414360559778288,0,0.0,0.0,0.0,0.4232617434505907,0.13441016160392294,0.28885158184666776,0.5576719050545136,0.13441016160392294,0.5768899803515524,3,1,7,8,2,6,nan,nan,nan,nan,nan,nan,nan,nan,nan,nan,nan,nan,0.0,nan,nan,nan,nan,nan,nan,nan,nan,nan,nan,nan,nan,nan,nan,nan,nan,nan,nan,1055.6613141096313,1216.8183325555292,nan,1217.2326931153075,nan,nan,nan,nan
1,100,1,1,1.0,1.0,0.3255817997851409,0,0.0,0.0,0.0,0.42316997867046385,0.13371855357564988,0.289451425094814,0.5568885322461137,0.13371855357564988,0.4525598221225664,0,8,3,1,7,5,nan,nan,nan,nan,nan,nan,nan,nan,nan,nan,nan,nan,0.0,nan,nan,nan,nan,nan,nan,nan,nan,nan,nan,nan,nan,nan,nan,nan,nan,nan,nan,1055.6613141096313,1217.835069322202,nan,1218.160651121987,nan,nan,nan,nan
1,101,1,1,1.0,1.0,0.2927035440807231,0,0.0,0.0,0.0,0.4221741809267361,0.1333955861987083,0.2887785947280278,0.5555697671254444,0.1333955861987083,0.34421530121471733,5,3,7,2,4,1,nan,nan,nan,nan,nan,nan,nan,nan,nan,nan,nan,nan,0.0,nan,nan,nan,nan,nan,nan,nan,nan,nan,nan,nan,nan,nan,nan,nan,nan,nan,nan,1055.6613141096313,1218.8518990297453,nan,1219.144602573826,nan,nan,nan,nan
1,102,1,1,1.0,1.0,0.25996726541779935,0,0.0,0.0,0.0,0.42086639671617027,0.13335010512112982,0.28751629159504044,0.5542165018373001,0.13335010512112982,0.2927508697612211,4,5,8,1,6,0,nan,nan,nan,nan,nan,nan,nan,nan,nan,nan,nan,nan,0.0,nan,nan,nan,nan,nan,nan,nan,nan,nan,nan,nan,nan,nan,nan,nan,nan,nan,nan,1055.6613141096313,1219.8686226821155,nan,1220.1285899475333,nan,nan,nan,nan
1,103,0,0,0.0,1.0,0.4111572362598963,0,0.0,0.0,0.0,0.41925740540318657,0.13364402149717983,0.28561338390600677,0.5529014269003664,0.13364402149717983,0.32127601525280625,8,6,7,4,1,3,nan,nan,nan,nan,nan,nan,nan,nan,nan,nan,nan,nan,0.0,nan,nan,nan,nan,nan,nan,nan,nan,nan,nan,nan,nan,nan,nan,nan,nan,nan,nan,1055.6613141096313,1220.8854204590316,nan,1221.2965776952915,nan,nan,nan,nan
1,104,1,1,1.0,1.0,0.4179618754424155,0,0.0,0.0,0.0,0.41917720570869854,0.13298319000829179,0.28619401570040676,0.5521603957169903,0.13298319000829179,0.3630287923733704,6,4,2,1,5,8,nan,nan,nan,nan,nan,nan,nan,nan,nan,nan,nan,nan,0.0,nan,nan,nan,nan,nan,nan,nan,nan,nan,nan,nan,nan,nan,nan,nan,nan,nan,nan,1055.6613141096313,1221.9105683732778,nan,1222.3285302487202,nan,nan,nan,nan
1,105,1,1,1.0,1.0,0.3371597786899656,0,0.0,0.0,0.0,0.41916529070608793,0.13232976018228534,0.2868355305238026,0.5514950508883733,0.13232976018228534,0.38875963013075915,4,7,8,5,1,6,nan,nan,nan,nan,nan,nan,nan,nan,nan,nan,nan,nan,0.0,nan,nan,nan,nan,nan,nan,nan,nan,nan,nan,nan,nan,nan,nan,nan,nan,nan,nan,1055.6613141096313,1222.9273504700395,nan,1223.2645102487295,nan,nan,nan,nan
1,106,1,1,1.0,1.0,0.30398217361653224,0,0.0,0.0,0.0,0.41836912068651394,0.1319310826092727,0.2864380380772412,0.5503002032957867,0.1319310826092727,0.35303460924963775,6,3,7,1,4,8,nan,nan,nan,nan,nan,nan,nan,nan,nan,nan,nan,nan,0.0,nan,nan,nan,nan,nan,nan,nan,nan,nan,nan,nan,nan,nan,nan,nan,nan,nan,nan,1055.6613141096313,1223.952468164207,nan,1224.2564503378235,nan,nan,nan,nan
1,107,1,1,1.0,1.0,0.31883560499409214,0,0.0,0.0,0.0,0.4172692461954564,0.13176892105761814,0.2855003251378383,0.5490381672530745,0.13176892105761814,0.31999251910019666,1,4,0,2,7,3,nan,nan,nan,nan,nan,nan,nan,nan,nan,nan,nan,nan,0.0,nan,nan,nan,nan,nan,nan,nan,nan,nan,nan,nan,nan,nan,nan,nan,nan,nan,nan,1055.6613141096313,1224.9775912752375,nan,1225.2964268802316,nan,nan,nan,nan
1,108,1,1,1.0,1.0,0.35767975146882236,0,0.0,0.0,0.0,0.4163317829459196,0.13148796626795314,0.28484381667796643,0.5478197492138728,0.13148796626795314,0.3268325100264822,5,7,1,8,0,4,nan,nan,nan,nan,nan,nan,nan,nan,nan,nan,nan,nan,0.0,nan,nan,nan,nan,nan,nan,nan,nan,nan,nan,nan,nan,nan,nan,nan,nan,nan,nan,1055.6613141096313,1226.0027066886541,nan,1226.360386440123,nan,nan,nan,nan
1,109,1,1,1.0,1.0,0.3329372418229468,0,0.0,0.0,0.0,0.4157784618942489,0.1309890374603381,0.28478942443391075,0.546767499354587,0.1309890374603381,0.33648419942862046,0,2,5,3,8,1,nan,nan,nan,nan,nan,nan,nan,nan,nan,nan,nan,nan,0.0,nan,nan,nan,nan,nan,nan,nan,nan,nan,nan,nan,nan,nan,nan,nan,nan,nan,nan,1055.6613141096313,1227.0194759561564,nan,1227.3524131979793,nan,nan,nan,nan
1,110,1,1,1.0,1.0,0.34799679671414196,0,0.0,0.0,0.0,0.4150042448842367,0.1306189468211925,0.28438529806304425,0.5456231917054292,0.1306189468211925,0.34620459666863707,6,3,1,8,7,0,nan,nan,nan,nan,nan,nan,nan,nan,nan,nan,nan,nan,0.0,nan,nan,nan,nan,nan,nan,nan,nan,nan,nan,nan,nan,nan,nan,nan,nan,nan,nan,1055.6613141096313,1228.0363424408715,nan,1228.3843392375857,nan,nan,nan,nan
1,111,1,1,1.0,1.0,0.28325180104002357,0,0.0,0.0,0.0,0.4143838055493284,0.13017113080274242,0.28421267474658596,0.5445549363520709,0.13017113080274242,0.32139527985903743,0,4,7,3,8,1,nan,nan,nan,nan,nan,nan,nan,nan,nan,nan,nan,nan,0.0,nan,nan,nan,nan,nan,nan,nan,nan,nan,nan,nan,nan,nan,nan,nan,nan,nan,nan,1055.6613141096313,1229.0530621018843,nan,1229.3363139029243,nan,nan,nan,nan
1,112,1,1,1.0,1.0,0.30646848410833627,0,0.0,0.0,0.0,0.413180759636399,0.13017441935696952,0.2830063402794295,0.5433551789933685,0.13017441935696952,0.31257236062083393,3,7,6,5,0,2,nan,nan,nan,nan,nan,nan,nan,nan,nan,nan,nan,nan,0.0,nan,nan,nan,nan,nan,nan,nan,nan,nan,nan,nan,nan,nan,nan,nan,nan,nan,nan,1055.6613141096313,1230.0698305140832,nan,1230.3762989981915,nan,nan,nan,nan
1,113,1,1,1.0,1.0,0.3372572811204009,0,0.0,0.0,0.0,0.41221064804068935,0.12997658346861832,0.282234064572071,0.5421872315093077,0.12997658346861832,0.3089925220895869,4,0,1,3,5,7,nan,nan,nan,nan,nan,nan,nan,nan,nan,nan,nan,nan,0.0,nan,nan,nan,nan,nan,nan,nan,nan,nan,nan,nan,nan,nan,nan,nan,nan,nan,nan,1055.6613141096313,1231.0949752922752,nan,1231.4322325733956,nan,nan,nan,nan
1,114,1,1,1.0,1.0,0.3524354353430681,0,0.0,0.0,0.0,0.4115353924828489,0.12958345399795013,0.2819519384848988,0.541118846480799,0.12958345399795013,0.3320537335239351,1,8,5,7,6,4,nan,nan,nan,nan,nan,nan,nan,nan,nan,nan,nan,nan,0.0,nan,nan,nan,nan,nan,nan,nan,nan,nan,nan,nan,nan,nan,nan,nan,nan,nan,nan,1055.6613141096313,1232.1117562486324,nan,1232.4641916839755,nan,nan,nan,nan
1,115,1,1,1.0,1.0,0.3356336670694873,0,0.0,0.0,0.0,0.4110077142941009,0.1291233961741739,0.281884318119927,0.5401311104682748,0.1291233961741739,0.34177546117765206,8,1,6,2,7,5,nan,nan,nan,nan,nan,nan,nan,nan,nan,nan,nan,nan,0.0,nan,nan,nan,nan,nan,nan,nan,nan,nan,nan,nan,nan,nan,nan,nan,nan,nan,nan,1055.6613141096313,1233.1285426217946,nan,1233.464176288864,nan,nan,nan,nan
1,116,1,1,1.0,1.0,0.34281006967648864,0,0.0,0.0,0.0,0.4103406873275114,0.12874445882750124,0.28159622850001015,0.5390851461550126,0.12874445882750124,0.343626390696348,1,5,0,4,3,8,nan,nan,nan,nan,nan,nan,nan,nan,nan,nan,nan,nan,0.0,nan,nan,nan,nan,nan,nan,nan,nan,nan,nan,nan,nan,nan,nan,nan,nan,nan,nan,1055.6613141096313,1234.1453250036575,nan,1234.488135073334,nan,nan,nan,nan
1,117,1,1,1.0,1.0,0.3016757578589022,0,0.0,0.0,0.0,0.4097483134884673,0.12833312984668083,0.28141518364178647,0.5380814433351482,0.12833312984668083,0.32670649820162606,3,1,4,0,2,5,nan,nan,nan,nan,nan,nan,nan,nan,nan,nan,nan,nan,0.0,nan,nan,nan,nan,nan,nan,nan,nan,nan,nan,nan,nan,nan,nan,nan,nan,nan,nan,1055.6613141096313,1235.1704475444858,nan,1235.4721233023447,nan,nan,nan,nan
1,118,1,1,1.0,1.0,0.34051933413138613,0,0.0,0.0,0.0,0.40880855213516676,0.12816731006675905,0.2806412420684077,0.5369758622019258,0.12816731006675905,0.32833505388892564,5,2,0,7,3,6,nan,nan,nan,nan,nan,nan,nan,nan,nan,nan,nan,nan,0.0,nan,nan,nan,nan,nan,nan,nan,nan,nan,nan,nan,nan,nan,nan,nan,nan,nan,nan,1055.6613141096313,1236.1955638132058,nan,1236.5360831473372,nan,nan,nan,nan
1,119,1,1,1.0,1.0,0.34769915783545,0,0.0,0.0,0.0,0.40821985197996175,0.1277697296642593,0.28045012231570243,0.5359895816442211,0.1277697296642593,0.32996474994191277,0,3,7,6,1,8,nan,nan,nan,nan,nan,nan,nan,nan,nan,nan,nan,nan,0.0,nan,nan,nan,nan,nan,nan,nan,nan,nan,nan,nan,nan,nan,nan,nan,nan,nan,nan,1055.6613141096313,1237.2123553180718,nan,1237.5600544759072,nan,nan,nan,nan
1,120,1,1,1.0,1.0,0.33888944797217846,0,0.0,0.0,0.0,0.4077025810898377,0.12734445822558538,0.2803581228642523,0.5350470393154231,0.12734445822558538,0.34236931331300485,3,1,8,2,7,0,nan,nan,nan,nan,nan,nan,nan,nan,nan,nan,nan,nan,0.0,nan,nan,nan,nan,nan,nan,nan,nan,nan,nan,nan,nan,nan,nan,nan,nan,nan,nan,1055.6613141096313,1238.2291530949879,nan,1238.56804254296,nan,nan,nan,nan
1,121,0,0,0.0,1.0,0.6577675321605057,0,0.0,0.0,0.0,0.4071194189447728,0.12696051067112482,0.280158908273648,0.5340799296158977,0.12696051067112482,0.4481187126560447,1,5,6,8,0,2,nan,nan,nan,nan,nan,nan,nan,nan,nan,nan,nan,nan,0.0,nan,nan,nan,nan,nan,nan,nan,nan,nan,nan,nan,nan,nan,nan,nan,nan,nan,nan,1055.6613141096313,1239.2542511176434,nan,1239.912018649804,nan,nan,nan,nan
1,122,1,1,1.0,1.0,0.48889798659365624,0,0.0,0.0,0.0,0.40922570561045124,0.1284796406630855,0.28074606494736576,0.5377053462735367,0.1284796406630855,0.4951849889087801,7,8,0,1,5,3,nan,nan,nan,nan,nan,nan,nan,nan,nan,nan,nan,nan,0.0,nan,nan,nan,nan,nan,nan,nan,nan,nan,nan,nan,nan,nan,nan,nan,nan,nan,nan,1055.6613141096313,1240.2710942246486,nan,1240.7599922112422,nan,nan,nan,nan
1,123,1,1,1.0,1.0,0.3597794735687785,0,0.0,0.0,0.0,0.4098896412853113,0.12814802394146838,0.28174161734384295,0.5380376652267796,0.12814802394146838,0.5021483307743134,8,0,7,5,4,2,nan,nan,nan,nan,nan,nan,nan,nan,nan,nan,nan,nan,0.0,nan,nan,nan,nan,nan,nan,nan,nan,nan,nan,nan,nan,nan,nan,nan,nan,nan,nan,1055.6613141096313,1241.2961680142907,nan,1241.6559474878595,nan,nan,nan,nan
1,124,1,1,1.0,1.0,0.3666103414725512,0,0.0,0.0,0.0,0.40947550766781926,0.12769799733785403,0.28177751032996523,0.5371735050056733,0.12769799733785403,0.40509593387832865,2,4,0,1,5,6,nan,nan,nan,nan,nan,nan,nan,nan,nan,nan,nan,nan,0.0,nan,nan,nan,nan,nan,nan,nan,nan,nan,nan,nan,nan,nan,nan,nan,nan,nan,nan,1055.6613141096313,1242.3213244813378,nan,1242.6879348228103,nan,nan,nan,nan
1,125,1,1,1.0,1.0,0.3418304844526574,0,0.0,0.0,0.0,0.4091241538465466,0.12723228283530505,0.2818918710112416,0.5363564366818516,0.12723228283530505,0.3560734331646624,7,1,2,6,0,4,nan,nan,nan,nan,nan,nan,nan,nan,nan,nan,nan,nan,0.0,nan,nan,nan,nan,nan,nan,nan,nan,nan,nan,nan,nan,nan,nan,nan,nan,nan,nan,1055.6613141096313,1243.3380809195805,nan,1243.6799114040332,nan,nan,nan,nan
1,126,1,1,1.0,1.0,0.5490133301937021,0,0.0,0.0,0.0,0.4085770508433442,0.12685803423098452,0.2817190166123597,0.5354350850743288,0.12685803423098452,0.41915138537297025,6,3,4,5,8,0,nan,nan,nan,nan,nan,nan,nan,nan,nan,nan,nan,nan,0.0,nan,nan,nan,nan,nan,nan,nan,nan,nan,nan,nan,nan,nan,nan,nan,nan,nan,nan,1055.6613141096313,1244.3548672927427,nan,1244.9038806229364,nan,nan,nan,nan
1,127,0,0,1.0,0.0,0.5721567439031787,0,0.0,0.0,0.0,0.40970960148326646,0.1269682930251248,0.28274130845814166,0.5366778945083912,0.1269682930251248,0.48766685284984607,4,6,3,1,2,5,nan,nan,nan,nan,nan,nan,nan,nan,nan,nan,nan,nan,0.0,nan,nan,nan,nan,nan,nan,nan,nan,nan,nan,nan,nan,nan,nan,nan,nan,nan,nan,1055.6613141096313,1245.3716613634606,nan,1245.9438181073638,nan,nan,nan,nan
1,128,1,1,1.0,1.0,0.6113586841383949,1,0.0,1.0,1.0,0.41100917862262576,0.12728473414414732,0.28372444447847844,0.5382939127667731,0.12728473414414732,0.5775095860784253,6,8,2,0,4,7,1.0,1.0,1.0,1.0,1.0,1.0,0.0,0.0,0.0,1.0,0.0,1.0,2.0,5.0,6.0,0.0,0.0,1.0,7.0,2.0,6.0,5.0,3.0,4.0,1.0,1.8648688407847658,6.143501253100112,5.023849878285546,2.864884806040209,4.2881922062369995,1.1377469026483595,1055.6613141096313,1246.3884292054572,1247.196846739098,1246.9997878895956,1254.397673114494,1255.3936572712264,1248.2136348228669,1254.3893412232283
1,129,1,1,1.0,1.0,0.49699495977256447,0,0.0,0.0,0.0,0.4125992540632271,0.12801899650704246,0.28458025755618466,0.5406182505702696,0.12801899650704246,0.5601701292713793,8,4,6,5,7,2,nan,nan,nan,nan,nan,nan,nan,nan,nan,nan,nan,nan,0.0,nan,nan,nan,nan,nan,nan,nan,nan,nan,nan,nan,nan,nan,nan,nan,nan,nan,nan,1055.6613141096313,1255.6145437616506,nan,1256.1115387214231,nan,nan,nan,nan
1,130,1,1,1.0,1.0,0.5198467216687277,0,0.0,0.0,0.0,0.41326378717904866,0.12773198281815018,0.2855318043608985,0.5409957699971988,0.12773198281815018,0.542733455193229,0,1,2,6,8,4,nan,nan,nan,nan,nan,nan,nan,nan,nan,nan,nan,nan,0.0,nan,nan,nan,nan,nan,nan,nan,nan,nan,nan,nan,nan,nan,nan,nan,nan,nan,nan,1055.6613141096313,1256.6396625962225,nan,1257.1595093178912,nan,nan,nan,nan
1,131,1,1,1.0,1.0,0.3427080058027059,0,0.0,0.0,0.0,0.4140964663547493,0.12757762712657705,0.28651883922817223,0.5416740934813263,0.12757762712657705,0.4531832290813327,6,8,7,4,3,0,nan,nan,nan,nan,nan,nan,nan,nan,nan,nan,nan,nan,0.0,nan,nan,nan,nan,nan,nan,nan,nan,nan,nan,nan,nan,nan,nan,nan,nan,nan,nan,1055.6613141096313,1257.6647822860396,nan,1258.0074902918423,nan,nan,nan,nan
1,132,1,1,1.0,1.0,0.3256262745708227,0,0.0,0.0,0.0,0.4135430674357412,0.1272363157759567,0.2863067516597845,0.5407793832116979,0.1272363157759567,0.3960603340140854,3,4,8,5,0,1,nan,nan,nan,nan,nan,nan,nan,nan,nan,nan,nan,nan,0.0,nan,nan,nan,nan,nan,nan,nan,nan,nan,nan,nan,nan,nan,nan,nan,nan,nan,nan,1055.6613141096313,1258.689873751544,nan,1259.0155000261148,nan,nan,nan,nan
1,133,1,1,1.0,1.0,0.4043933656066656,0,0.0,0.0,0.0,0.41286678441370334,0.12697853339388673,0.28588825101981663,0.53984531780759,0.12697853339388673,0.35757588199339807,0,3,2,7,5,6,nan,nan,nan,nan,nan,nan,nan,nan,nan,nan,nan,nan,0.0,nan,nan,nan,nan,nan,nan,nan,nan,nan,nan,nan,nan,nan,nan,nan,nan,nan,nan,1055.6613141096313,1259.715027082595,nan,1260.1194204482017,nan,nan,nan,nan
1,134,1,1,1.0,1.0,0.2912518420489505,0,0.0,0.0,0.0,0.4128021018273901,0.12649510394881291,0.28630699787857716,0.539297205776203,0.12649510394881291,0.34042382740881294,2,5,8,6,7,0,nan,nan,nan,nan,nan,nan,nan,nan,nan,nan,nan,nan,0.0,nan,nan,nan,nan,nan,nan,nan,nan,nan,nan,nan,nan,nan,nan,nan,nan,nan,nan,1055.6613141096313,1260.74014876812,nan,1261.031400610169,nan,nan,nan,nan
1,135,1,1,1.0,1.0,0.2340972064412199,0,0.0,0.0,0.0,0.4118812665260383,0.1264550171907429,0.28542624933529537,0.5383362837167812,0.1264550171907429,0.3099141380322787,4,6,0,8,5,1,nan,nan,nan,nan,nan,nan,nan,nan,nan,nan,nan,nan,0.0,nan,nan,nan,nan,nan,nan,nan,nan,nan,nan,nan,nan,nan,nan,nan,nan,nan,nan,1055.6613141096313,1261.7652693132404,nan,1261.9993665196816,nan,nan,nan,nan
1,136,1,1,1.0,1.0,0.23296794656198472,1,1.0,0.0,1.0,0.41054454426976145,0.12691138775012667,0.2836331565196348,0.5374559320198882,0.12691138775012667,0.2527723316840517,5,3,2,4,1,8,1.0,1.0,1.0,1.0,1.0,1.0,0.0,1.0,0.0,0.0,0.0,0.0,1.0,4.0,3.0,1.0,3.0,0.0,5.0,1.0,3.0,2.0,5.0,6.0,4.0,0.9251586623140611,3.8691492518992163,2.7833075370290317,6.837902877945453,7.885351466131397,5.213742018444464,1055.6613141096313,1262.7903835863108,1263.5987797378912,1263.0233515328728,1272.5331560805207,1273.535951433587,1264.6072091314709,1272.5247933990322
1,137,1,1,1.0,1.0,0.3847007375443354,0,0.0,0.0,0.0,0.4092193457794049,0.12735725603628895,0.28186208974311594,0.5365766018156939,0.12735725603628895,0.2839219635158467,6,8,7,1,0,2,nan,nan,nan,nan,nan,nan,nan,nan,nan,nan,nan,nan,0.0,nan,nan,nan,nan,nan,nan,nan,nan,nan,nan,nan,nan,nan,nan,nan,nan,nan,nan,1055.6613141096313,1273.7583232671604,nan,1274.1430240047048,nan,nan,nan,nan
1,138,1,1,1.0,1.0,0.36756455327849835,0,0.0,0.0,0.0,0.40903772645914516,0.12690210219836762,0.28213562426077754,0.5359398286575128,0.12690210219836762,0.32841107912827283,4,7,0,2,1,8,nan,nan,nan,nan,nan,nan,nan,nan,nan,nan,nan,nan,0.0,nan,nan,nan,nan,nan,nan,nan,nan,nan,nan,nan,nan,nan,nan,nan,nan,nan,nan,1055.6613141096313,1274.7834543607896,nan,1275.1510189140681,nan,nan,nan,nan
1,139,1,1,1.0,1.0,0.47040902817388996,0,0.0,0.0,0.0,0.4087327766563463,0.12648432694923567,0.2822484497071106,0.535217103605582,0.12648432694923567,0.40755810633224127,3,0,2,1,5,6,nan,nan,nan,nan,nan,nan,nan,nan,nan,nan,nan,nan,0.0,nan,nan,nan,nan,nan,nan,nan,nan,nan,nan,nan,nan,nan,nan,nan,nan,nan,nan,1055.6613141096313,1275.8085683487589,nan,1276.2789773769327,nan,nan,nan,nan
1,140,0,0,0.0,1.0,0.7492378707393073,0,0.0,0.0,0.0,0.4091829682732626,0.12613117227731513,0.2830517959959475,0.5353141405505777,0.12613117227731513,0.5290704840638986,6,7,1,3,8,4,nan,nan,nan,nan,nan,nan,nan,nan,nan,nan,nan,nan,0.0,nan,nan,nan,nan,nan,nan,nan,nan,nan,nan,nan,nan,nan,nan,nan,nan,nan,nan,1055.6613141096313,1276.8336692223675,nan,1277.5829070931068,nan,nan,nan,nan
1,141,1,1,nan,nan,nan,0,0.0,0.0,0.0,0.0,0.0,0.0,0.0,0.0,0.0,5,6,0,7,2,1,nan,nan,nan,nan,nan,nan,nan,nan,nan,nan,nan,nan,0.0,nan,nan,nan,nan,nan,nan,nan,nan,nan,nan,nan,nan,nan,nan,nan,nan,nan,nan,1055.6613141096313,1277.8587860612897,nan,nan,nan,nan,nan,nan
1,142,1,1,1.0,1.0,0.7309231051476672,1,0.0,1.0,1.0,0.4116471342331615,0.12894056416193272,0.2827065700712288,0.5405876983950942,0.12894056416193272,0.7400804879434872,8,0,2,5,3,7,1.0,1.0,1.0,1.0,1.0,1.0,1.0,0.0,0.0,0.0,1.0,1.0,3.0,8.0,5.0,0.0,1.0,3.0,7.0,6.0,5.0,4.0,3.0,2.0,1.0,6.886545442510396,5.350797851628158,4.360222225543112,3.240106716635637,2.47877342015272,1.6875274225021712,1055.6613141096313,1278.8838969132048,1279.692303898395,1279.6148200183525,1287.634894958348,1288.6363403882133,1280.7091261934838,1287.626604976016
1,143,1,1,1.0,1.0,0.5865015664603561,0,0.0,0.0,0.0,0.4139440836642011,0.1312788815435577,0.2826652021206434,0.5452229652077588,0.1312788815435577,0.6587123358040117,2,7,6,4,5,8,nan,nan,nan,nan,nan,nan,nan,nan,nan,nan,nan,nan,0.0,nan,nan,nan,nan,nan,nan,nan,nan,nan,nan,nan,nan,nan,nan,nan,nan,nan,nan,1055.6613141096313,1288.8601071899175,nan,1289.4466087563778,nan,nan,nan,nan
1,144,1,1,1.0,1.0,0.5536903079482727,0,0.0,0.0,0.0,0.4151766371127451,0.13161387023396914,0.28356276687877596,0.5467905073467143,0.13161387023396914,0.623704993185432,4,2,7,3,8,1,nan,nan,nan,nan,nan,nan,nan,nan,nan,nan,nan,nan,0.0,nan,nan,nan,nan,nan,nan,nan,nan,nan,nan,nan,nan,nan,nan,nan,nan,nan,nan,1055.6613141096313,1289.8768639132031,nan,1290.4305542211514,nan,nan,nan,nan
1,145,1,1,1.0,1.0,0.4637771563138813,0,0.0,0.0,0.0,0.4161590035725715,0.1316604132585966,0.28449859031397495,0.5478194168311681,0.1316604132585966,0.53465634357417,7,0,4,1,6,3,nan,nan,nan,nan,nan,nan,nan,nan,nan,nan,nan,nan,0.0,nan,nan,nan,nan,nan,nan,nan,nan,nan,nan,nan,nan,nan,nan,nan,nan,nan,nan,1055.6613141096313,1290.9027470865985,nan,1291.3665242429124,nan,nan,nan,nan
1,146,1,1,1.0,1.0,0.42337069113273174,0,0.0,0.0,0.0,0.4164943426763836,0.131256415091533,0.28523792758485056,0.5477507577679166,0.131256415091533,0.48027938513162854,1,6,2,4,0,8,nan,nan,nan,nan,nan,nan,nan,nan,nan,nan,nan,nan,0.0,nan,nan,nan,nan,nan,nan,nan,nan,nan,nan,nan,nan,nan,nan,nan,nan,nan,nan,1055.6613141096313,1291.927132657729,nan,1292.3505033488618,nan,nan,nan,nan
1,147,1,1,1.0,1.0,0.41454187995987013,0,0.0,0.0,0.0,0.41654242902922517,0.13079792659148357,0.28574450243774163,0.5473403556207087,0.13079792659148357,0.43389657580216107,4,8,1,5,3,0,nan,nan,nan,nan,nan,nan,nan,nan,nan,nan,nan,nan,0.0,nan,nan,nan,nan,nan,nan,nan,nan,nan,nan,nan,nan,nan,nan,nan,nan,nan,nan,1055.6613141096313,1292.9439110482344,nan,1293.3584529281943,nan,nan,nan,nan
1,148,1,1,1.0,1.0,0.44541563518578187,0,0.0,0.0,0.0,0.41652853632735465,0.13034308177773776,0.28618545454961686,0.5468716181050924,0.13034308177773776,0.4277760687594612,8,0,7,1,2,5,nan,nan,nan,nan,nan,nan,nan,nan,nan,nan,nan,nan,0.0,nan,nan,nan,nan,nan,nan,nan,nan,nan,nan,nan,nan,nan,nan,nan,nan,nan,nan,1055.6613141096313,1293.9690167684457,nan,1294.4144324036315,nan,nan,nan,nan
1,149,1,1,1.0,1.0,0.5325978651526384,0,0.0,0.0,0.0,0.41672775769879206,0.12991484321892796,0.2868129144798641,0.54664260091772,0.12991484321892796,0.4641851267660968,6,1,4,8,5,3,nan,nan,nan,nan,nan,nan,nan,nan,nan,nan,nan,nan,0.0,nan,nan,nan,nan,nan,nan,nan,nan,nan,nan,nan,nan,nan,nan,nan,nan,nan,nan,1055.6613141096313,1294.9858071329072,nan,1295.5184049980599,nan,nan,nan,nan
1,150,1,1,1.0,1.0,0.5237987037398852,0,0.0,0.0,0.0,0.41752138857176363,0.12982138848395372,0.28770000008780994,0.5473427770557173,0.12982138848395372,0.5006040680261018,1,6,5,7,3,4,nan,nan,nan,nan,nan,nan,nan,nan,nan,nan,nan,nan,0.0,nan,nan,nan,nan,nan,nan,nan,nan,nan,nan,nan,nan,nan,nan,nan,nan,nan,nan,1055.6613141096313,1296.0025821023155,nan,1296.5263808060554,nan,nan,nan,nan
1,151,0,0,0.0,1.0,0.7630076573695987,0,0.0,0.0,0.0,0.4182443635048801,0.12967365097845707,0.288570712526423,0.5479180144833371,0.12967365097845707,0.6064680754207075,5,2,7,3,0,8,nan,nan,nan,nan,nan,nan,nan,nan,nan,nan,nan,nan,0.0,nan,nan,nan,nan,nan,nan,nan,nan,nan,nan,nan,nan,nan,nan,nan,nan,nan,nan,1055.6613141096313,1297.0193445275072,nan,1297.7823521848768,nan,nan,nan,nan
1,152,1,1,1.0,1.0,0.6178551359917037,1,0.0,1.0,1.0,0.42057384522018226,0.1322850424999968,0.2882888027201854,0.5528588877201791,0.1322850424999968,0.6348871657003959,7,4,1,0,5,2,1.0,1.0,1.0,1.0,1.0,1.0,1.0,0.0,0.0,0.0,0.0,0.0,1.0,7.0,5.0,3.0,2.0,1.0,5.0,1.0,6.0,5.0,3.0,4.0,2.0,2.086503704660572,8.70997805625666,6.870299608795904,4.510425768909045,5.733914603304584,3.1743943947949447,1055.6613141096313,1298.0444838888943,1298.8529088350479,1298.662339024886,1308.612377612444,1309.6177371068043,1299.8613673083019,1308.6040465764818
1,153,1,1,1.0,1.0,0.3684149906039238,0,0.0,0.0,0.0,0.4218978807287159,0.13282071242465063,0.28907716830406527,0.5547185931533666,0.13282071242465063,0.5830925946550755,4,2,6,5,0,7,nan,nan,nan,nan,nan,nan,nan,nan,nan,nan,nan,nan,0.0,nan,nan,nan,nan,nan,nan,nan,nan,nan,nan,nan,nan,nan,nan,nan,nan,nan,nan,1055.6613141096313,1309.8375895589706,nan,1310.2060045495746,nan,nan,nan,nan
1,154,1,1,1.0,1.0,0.359634360356722,0,0.0,0.0,0.0,0.421541328127884,0.1324487638239103,0.2890925643039737,0.5539900919517943,0.1324487638239103,0.4486348289841165,5,8,7,1,2,3,nan,nan,nan,nan,nan,nan,nan,nan,nan,nan,nan,nan,0.0,nan,nan,nan,nan,nan,nan,nan,nan,nan,nan,nan,nan,nan,nan,nan,nan,nan,nan,1055.6613141096313,1310.8543348785024,nan,1311.2139692388591,nan,nan,nan,nan
1,155,1,1,1.0,1.0,0.4224814809858799,0,0.0,0.0,0.0,0.42113134820886966,0.13210492387756495,0.2890264243313047,0.5532362720864346,0.13210492387756495,0.3835102773155086,2,0,4,3,8,7,nan,nan,nan,nan,nan,nan,nan,nan,nan,nan,nan,nan,0.0,nan,nan,nan,nan,nan,nan,nan,nan,nan,nan,nan,nan,nan,nan,nan,nan,nan,nan,1055.6613141096313,1311.8794289098005,nan,1312.3019103907864,nan,nan,nan,nan
1,156,1,1,1.0,1.0,0.4296564580872655,0,0.0,0.0,0.0,0.42114023066135003,0.13166969635685338,0.28947053430449665,0.5528099270182034,0.13166969635685338,0.4039240998099558,8,3,0,6,4,5,nan,nan,nan,nan,nan,nan,nan,nan,nan,nan,nan,nan,0.0,nan,nan,nan,nan,nan,nan,nan,nan,nan,nan,nan,nan,nan,nan,nan,nan,nan,nan,1055.6613141096313,1312.8962178488146,nan,1313.3258743069018,nan,nan,nan,nan
1,157,1,1,1.0,1.0,0.4848428002442233,0,0.0,0.0,0.0,0.42119589227851284,0.1312404919876585,0.2899554002908543,0.5524363842661714,0.1312404919876585,0.4456602464391229,2,5,8,3,7,4,nan,nan,nan,nan,nan,nan,nan,nan,nan,nan,nan,nan,0.0,nan,nan,nan,nan,nan,nan,nan,nan,nan,nan,nan,nan,nan,nan,nan,nan,nan,nan,1055.6613141096313,1313.913010208984,nan,1314.3978530092281,nan,nan,nan,nan
1,158,1,1,1.0,1.0,0.37969019904267043,0,0.0,0.0,0.0,0.4216091838886798,0.1309135442613963,0.2906956396272835,0.5525227281500761,0.1309135442613963,0.4313964857913864,1,2,3,5,4,0,nan,nan,nan,nan,nan,nan,nan,nan,nan,nan,nan,nan,0.0,nan,nan,nan,nan,nan,nan,nan,nan,nan,nan,nan,nan,nan,nan,nan,nan,nan,nan,1055.6613141096313,1314.9381219162024,nan,1315.317812115245,nan,nan,nan,nan
1,159,1,1,1.0,1.0,0.3052497043972835,0,0.0,0.0,0.0,0.42133873882515716,0.13053371087155763,0.2908050279535995,0.5518724496967148,0.13053371087155763,0.38992756789472577,4,5,6,8,0,2,nan,nan,nan,nan,nan,nan,nan,nan,nan,nan,nan,nan,0.0,nan,nan,nan,nan,nan,nan,nan,nan,nan,nan,nan,nan,nan,nan,nan,nan,nan,nan,1055.6613141096313,1315.9965654647676,nan,1316.301815169165,nan,nan,nan,nan
1,160,1,1,1.0,1.0,0.2324248412041925,0,0.0,0.0,0.0,0.4205945783480554,0.13044408799532872,0.29015049035272666,0.5510386663433842,0.13044408799532872,0.30578824821471545,6,3,8,2,5,7,nan,nan,nan,nan,nan,nan,nan,nan,nan,nan,nan,nan,0.0,nan,nan,nan,nan,nan,nan,nan,nan,nan,nan,nan,nan,nan,nan,nan,nan,nan,nan,1055.6613141096313,1317.0133632416837,nan,1317.2457880828879,nan,nan,nan,nan
1,161,1,1,1.0,1.0,0.21560368651989847,1,1.0,0.0,1.0,0.4193960449904512,0.13088686457009496,0.2885091804203562,0.5502829095605462,0.13088686457009496,0.25109274404045817,4,6,1,7,8,3,1.0,1.0,1.0,1.0,1.0,1.0,1.0,0.0,0.0,1.0,0.0,0.0,2.0,4.0,2.0,3.0,7.0,4.0,8.0,2.0,4.0,3.0,1.0,6.0,5.0,2.4303418256458826,4.973241586063523,3.725500034634024,1.1573394624865614,7.05180540465517,6.1317773056798615,1055.6613141096313,1318.0301547465497,1318.8385403496213,1318.2457584330696,1326.939500063716,1327.9472258437308,1319.8469968272257,1326.931167317205
1,162,1,1,1.0,1.0,0.36879844294162467,0,0.0,0.0,0.0,0.4181062199368401,0.131469151352212,0.2866370685846281,0.5495753712890521,0.131469151352212,0.27227565688857186,3,1,7,0,2,5,nan,nan,nan,nan,nan,nan,nan,nan,nan,nan,nan,nan,0.0,nan,nan,nan,nan,nan,nan,nan,nan,nan,nan,nan,nan,nan,nan,nan,nan,nan,nan,1055.6613141096313,1328.1646515701432,nan,1328.5334500130848,nan,nan,nan,nan
1,163,1,1,1.0,1.0,0.3439572905190289,0,0.0,0.0,0.0,0.41779610813183876,0.13111303231467936,0.2866830758171594,0.5489091404465181,0.13111303231467936,0.30945313999351737,6,0,2,1,4,8,nan,nan,nan,nan,nan,nan,nan,nan,nan,nan,nan,nan,0.0,nan,nan,nan,nan,nan,nan,nan,nan,nan,nan,nan,nan,nan,nan,nan,nan,nan,nan,1055.6613141096313,1329.181456759572,nan,1329.525414050091,nan,nan,nan,nan
1,164,1,1,1.0,1.0,0.39912196551449597,0,0.0,0.0,0.0,0.41733461552175866,0.1308321402244845,0.28650247529727413,0.5481667557462432,0.1308321402244845,0.37062589965838316,8,3,1,0,2,7,nan,nan,nan,nan,nan,nan,nan,nan,nan,nan,nan,nan,0.0,nan,nan,nan,nan,nan,nan,nan,nan,nan,nan,nan,nan,nan,nan,nan,nan,nan,nan,1055.6613141096313,1330.1982476942358,nan,1330.5973696597503,nan,nan,nan,nan
1,165,1,1,1.0,1.0,0.35798879410140216,0,0.0,0.0,0.0,0.41722149347202414,0.13043304526618352,0.2867884482058406,0.5476545387382077,0.13043304526618352,0.367022683378309,5,0,7,2,1,4,nan,nan,nan,nan,nan,nan,nan,nan,nan,nan,nan,nan,0.0,nan,nan,nan,nan,nan,nan,nan,nan,nan,nan,nan,nan,nan,nan,nan,nan,nan,nan,1055.6613141096313,1331.2233639629558,nan,1331.5813527570572,nan,nan,nan,nan
1,166,1,1,1.0,1.0,0.333200954424683,0,0.0,0.0,0.0,0.4168558595252919,0.13011258947049245,0.2867432700547995,0.5469684489957843,0.13011258947049245,0.36343723801352706,8,4,6,3,5,0,nan,nan,nan,nan,nan,nan,nan,nan,nan,nan,nan,nan,0.0,nan,nan,nan,nan,nan,nan,nan,nan,nan,nan,nan,nan,nan,nan,nan,nan,nan,nan,1055.6613141096313,1332.2401452044141,nan,1332.5733461588388,nan,nan,nan,nan
1,167,1,1,1.0,1.0,0.324382406543009,0,0.0,0.0,0.0,0.41634263924860104,0.12987723159690462,0.2864654076516964,0.5462198708455057,0.12987723159690462,0.33852405168969807,4,6,2,1,3,5,nan,nan,nan,nan,nan,nan,nan,nan,nan,nan,nan,nan,0.0,nan,nan,nan,nan,nan,nan,nan,nan,nan,nan,nan,nan,nan,nan,nan,nan,nan,nan,1055.6613141096313,1333.2569327179808,nan,1333.5813151245238,nan,nan,nan,nan
1,168,1,1,1.0,1.0,0.27556821500184014,0,0.0,0.0,0.0,0.41578190612234744,0.12967841676569228,0.2861034893566552,0.5454603228880397,0.12967841676569228,0.3110505253231774,6,8,5,2,0,1,nan,nan,nan,nan,nan,nan,nan,nan,nan,nan,nan,nan,0.0,nan,nan,nan,nan,nan,nan,nan,nan,nan,nan,nan,nan,nan,nan,nan,nan,nan,nan,1055.6613141096313,1334.2737142445403,nan,1334.5492824595422,nan,nan,nan,nan
1,169,1,1,1.0,1.0,0.2587114234920591,0,0.0,0.0,0.0,0.41493212617616254,0.12974206064274446,0.2851900655334181,0.544674186818907,0.12974206064274446,0.2862206816789694,8,1,2,4,7,3,nan,nan,nan,nan,nan,nan,nan,nan,nan,nan,nan,nan,0.0,nan,nan,nan,nan,nan,nan,nan,nan,nan,nan,nan,nan,nan,nan,nan,nan,nan,nan,1055.6613141096313,1335.2905468030367,nan,1335.5492582265288,nan,nan,nan,nan
1,170,1,1,1.0,1.0,0.32992664229823276,0,0.0,0.0,0.0,0.4139910376057764,0.12991432000195274,0.28407671760382364,0.5439053576077291,0.12991432000195274,0.288068760264044,5,7,3,6,2,4,nan,nan,nan,nan,nan,nan,nan,nan,nan,nan,nan,nan,0.0,nan,nan,nan,nan,nan,nan,nan,nan,nan,nan,nan,nan,nan,nan,nan,nan,nan,nan,1055.6613141096313,1336.30729668407,nan,1336.6372233263683,nan,nan,nan,nan
1,171,1,1,1.0,1.0,0.40111819823505357,0,0.0,0.0,0.0,0.41348765799315634,0.1296870432947736,0.28380061469838275,0.54317470128793,0.1296870432947736,0.32991875467511517,2,3,1,0,5,7,nan,nan,nan,nan,nan,nan,nan,nan,nan,nan,nan,nan,0.0,nan,nan,nan,nan,nan,nan,nan,nan,nan,nan,nan,nan,nan,nan,nan,nan,nan,nan,1055.6613141096313,1337.324059964565,nan,1337.7251781628001,nan,nan,nan,nan
1,172,1,1,1.0,1.0,0.384278227284085,0,0.0,0.0,0.0,0.413414030256501,0.12930399463859524,0.2841100356179057,0.5427180248950962,0.12930399463859524,0.3717743559391238,3,1,6,8,4,0,nan,nan,nan,nan,nan,nan,nan,nan,nan,nan,nan,nan,0.0,nan,nan,nan,nan,nan,nan,nan,nan,nan,nan,nan,nan,nan,nan,nan,nan,nan,nan,1055.6613141096313,1338.3408608775353,nan,1338.7251391048194,nan,nan,nan,nan
1,173,1,1,1.0,1.0,0.4314622476231307,0,0.0,0.0,0.0,0.4132416290554808,0.12894023524802856,0.28430139380745223,0.5421818643035093,0.12894023524802856,0.40561955771408975,8,3,5,4,7,6,nan,nan,nan,nan,nan,nan,nan,nan,nan,nan,nan,nan,0.0,nan,nan,nan,nan,nan,nan,nan,nan,nan,nan,nan,nan,nan,nan,nan,nan,nan,nan,1055.6613141096313,1339.3576481060009,nan,1339.789110353624,nan,nan,nan,nan
1,174,1,1,1.0,1.0,0.4626396286766976,0,0.0,0.0,0.0,0.41334880916470224,0.1285679902293899,0.2847808189353124,0.5419167993940921,0.1285679902293899,0.42612670119463775,3,8,0,5,1,2,nan,nan,nan,nan,nan,nan,nan,nan,nan,nan,nan,nan,0.0,nan,nan,nan,nan,nan,nan,nan,nan,nan,nan,nan,nan,nan,nan,nan,nan,nan,nan,1055.6613141096313,1340.3744333387585,nan,1340.8370729674352,nan,nan,nan,nan
1,175,1,1,1.0,1.0,0.39785871107596904,0,0.0,0.0,0.0,0.4136370595712051,0.1282465907750092,0.2853904687961959,0.5418836503462143,0.1282465907750092,0.4306535291252658,1,3,6,8,2,4,nan,nan,nan,nan,nan,nan,nan,nan,nan,nan,nan,nan,0.0,nan,nan,nan,nan,nan,nan,nan,nan,nan,nan,nan,nan,nan,nan,nan,nan,nan,nan,1055.6613141096313,1341.3912020360585,nan,1341.7890607471345,nan,nan,nan,nan
1,176,1,1,1.0,1.0,0.38901079853530973,0,0.0,0.0,0.0,0.41354532498693053,0.12787886402415347,0.28566646096277704,0.541424189011084,0.12787886402415347,0.41650304609599215,2,6,5,1,0,8,nan,nan,nan,nan,nan,nan,nan,nan,nan,nan,nan,nan,0.0,nan,nan,nan,nan,nan,nan,nan,nan,nan,nan,nan,nan,nan,nan,nan,nan,nan,nan,1055.6613141096313,1342.4080066552851,nan,1342.7970174538204,nan,nan,nan,nan
1,177,1,1,1.0,1.0,0.47426179732428864,0,0.0,0.0,0.0,0.4134035069149558,0.12752230062653355,0.2858812062884223,0.5409258075414893,0.12752230062653355,0.4203771023118558,5,0,7,4,8,1,nan,nan,nan,nan,nan,nan,nan,nan,nan,nan,nan,nan,0.0,nan,nan,nan,nan,nan,nan,nan,nan,nan,nan,nan,nan,nan,nan,nan,nan,nan,nan,1055.6613141096313,1343.4267276807223,nan,1343.9009894780465,nan,nan,nan,nan
1,178,1,1,1.0,1.0,0.5150964746135287,0,0.0,0.0,0.0,0.4137532672046646,0.12723852101136562,0.286514746193299,0.5409917882160302,0.12723852101136562,0.4594563568243757,3,7,5,0,4,2,nan,nan,nan,nan,nan,nan,nan,nan,nan,nan,nan,nan,0.0,nan,nan,nan,nan,nan,nan,nan,nan,nan,nan,nan,nan,nan,nan,nan,nan,nan,nan,1055.6613141096313,1344.4498907660018,nan,1344.9649872406153,nan,nan,nan,nan
1,179,1,1,1.0,1.0,0.4902869677171111,0,0.0,0.0,0.0,0.414332371247001,0.12710421666155097,0.28722815458545004,0.541436587908552,0.12710421666155097,0.49321507988497615,2,5,3,6,8,1,nan,nan,nan,nan,nan,nan,nan,nan,nan,nan,nan,nan,0.0,nan,nan,nan,nan,nan,nan,nan,nan,nan,nan,nan,nan,nan,nan,nan,nan,nan,nan,1055.6613141096313,1345.4666805603192,nan,1345.9569675280363,nan,nan,nan,nan
1,180,1,1,1.0,1.0,0.5374202411621809,0,0.0,0.0,0.0,0.4147639314542175,0.12687112405732523,0.28789280739689227,0.5416350555115428,0.12687112405732523,0.5142678944976069,5,4,1,8,3,7,nan,nan,nan,nan,nan,nan,nan,nan,nan,nan,nan,nan,0.0,nan,nan,nan,nan,nan,nan,nan,nan,nan,nan,nan,nan,nan,nan,nan,nan,nan,nan,1055.6613141096313,1346.483502855408,nan,1347.0209230965702,nan,nan,nan,nan
1,181,1,1,1.0,1.0,0.5846444598864764,0,0.0,0.0,0.0,0.41545690495539245,0.12684581204230663,0.28861109291308584,0.542302716997699,0.12684581204230663,0.5374505562552562,0,6,5,2,1,4,nan,nan,nan,nan,nan,nan,nan,nan,nan,nan,nan,nan,0.0,nan,nan,nan,nan,nan,nan,nan,nan,nan,nan,nan,nan,nan,nan,nan,nan,nan,nan,1055.6613141096313,1347.500251881138,nan,1348.0848963410244,nan,nan,nan,nan
1,182,1,1,1.0,1.0,0.5598406548961066,1,0.0,1.0,1.0,0.41640739683702777,0.1271195324220365,0.28928786441499127,0.5435269292590643,0.1271195324220365,0.5606351186482547,4,0,8,5,3,7,1.0,1.0,1.0,1.0,1.0,1.0,1.0,0.0,0.0,1.0,0.0,1.0,3.0,4.0,8.0,3.0,5.0,1.0,7.0,2.0,6.0,5.0,3.0,4.0,1.0,1.884368174651172,8.635798993462231,7.115821413288359,2.765551842050627,4.660571152926423,1.1247135155135766,1055.6613141096313,1348.5170362586505,1349.3254438139847,1349.0768769135466,1359.0182489087456,1360.019924980239,1350.342253279814,1359.0099235746893
1,183,1,1,1.0,1.0,0.27307819831185043,0,0.0,0.0,0.0,0.41720869995467624,0.12721395800955312,0.2899947419451231,0.5444226579642294,0.12721395800955312,0.47252110436481115,3,2,1,7,6,0,nan,nan,nan,nan,nan,nan,nan,nan,nan,nan,nan,nan,0.0,nan,nan,nan,nan,nan,nan,nan,nan,nan,nan,nan,nan,nan,nan,nan,nan,nan,nan,1055.6613141096313,1360.2434711186797,nan,1360.5165493169916,nan,nan,nan,nan
1,184,1,1,1.0,1.0,0.32828364183660597,0,0.0,0.0,0.0,0.41640797494554943,0.12731162995090814,0.2890963449946413,0.5437196048964575,0.12731162995090814,0.38706749834818766,4,6,0,1,5,2,nan,nan,nan,nan,nan,nan,nan,nan,nan,nan,nan,nan,0.0,nan,nan,nan,nan,nan,nan,nan,nan,nan,nan,nan,nan,nan,nan,nan,nan,nan,nan,1055.6613141096313,1361.2602195742074,nan,1361.588503216044,nan,nan,nan,nan
1,185,1,1,1.0,1.0,0.4154345113201998,0,0.0,0.0,0.0,0.41592110017699174,0.1271273819413818,0.28879371823560995,0.5430484821183735,0.1271273819413818,0.33893211715621874,0,4,6,2,8,1,nan,nan,nan,nan,nan,nan,nan,nan,nan,nan,nan,nan,0.0,nan,nan,nan,nan,nan,nan,nan,nan,nan,nan,nan,nan,nan,nan,nan,nan,nan,nan,1055.6613141096313,1362.2770219126833,nan,1362.6924564240035,nan,nan,nan,nan
1,186,1,1,1.0,1.0,0.31860581872751936,0,0.0,0.0,0.0,0.4159184266118445,0.12677765493167992,0.2891407716801646,0.5426960815435244,0.12677765493167992,0.3541079906281084,2,5,8,0,3,4,nan,nan,nan,nan,nan,nan,nan,nan,nan,nan,nan,nan,0.0,nan,nan,nan,nan,nan,nan,nan,nan,nan,nan,nan,nan,nan,nan,nan,nan,nan,nan,1055.6613141096313,1363.2938194045564,nan,1363.612425223284,nan,nan,nan,nan
1,187,0,0,1.0,0.0,0.33384270244278014,0,0.0,0.0,0.0,0.4153866637272307,0.1266341580270195,0.2887525057002112,0.5420208217542501,0.1266341580270195,0.35596101083016646,8,1,3,2,5,0,nan,nan,nan,nan,nan,nan,nan,nan,nan,nan,nan,nan,0.0,nan,nan,nan,nan,nan,nan,nan,nan,nan,nan,nan,nan,nan,nan,nan,nan,nan,nan,1055.6613141096313,1364.3105695706909,nan,1364.6444122731336,nan,nan,nan,nan
1,188,1,1,1.0,1.0,0.3170044420985505,0,0.0,0.0,0.0,0.41494349002459785,0.1264317934715268,0.2885116965530711,0.5413752834961246,0.1264317934715268,0.3231509877562833,2,6,0,5,3,7,nan,nan,nan,nan,nan,nan,nan,nan,nan,nan,nan,nan,0.0,nan,nan,nan,nan,nan,nan,nan,nan,nan,nan,nan,nan,nan,nan,nan,nan,nan,nan,1055.6613141096313,1365.327359079849,nan,1365.6443635219475,nan,nan,nan,nan
1,189,1,1,1.0,1.0,0.32384443294722587,0,0.0,0.0,0.0,0.4144140897655381,0.12629394956361753,0.28812014020192056,0.5407080393291557,0.12629394956361753,0.3248971924961855,6,8,4,0,7,5,nan,nan,nan,nan,nan,nan,nan,nan,nan,nan,nan,nan,0.0,nan,nan,nan,nan,nan,nan,nan,nan,nan,nan,nan,nan,nan,nan,nan,nan,nan,nan,1055.6613141096313,1366.3524767740746,nan,1366.6763212070218,nan,nan,nan,nan
1,190,0,0,1.0,0.0,0.28306848515057936,0,0.0,0.0,0.0,0.41392715612673,0.12612800024999088,0.2877991558767391,0.5400551563767209,0.12612800024999088,0.30797245339878526,1,2,0,8,5,6,nan,nan,nan,nan,nan,nan,nan,nan,nan,nan,nan,nan,0.0,nan,nan,nan,nan,nan,nan,nan,nan,nan,nan,nan,nan,nan,nan,nan,nan,nan,nan,1055.6613141096313,1367.3692568751285,nan,1367.652325360279,nan,nan,nan,nan
1,191,1,1,1.0,1.0,0.3702190695912577,0,0.0,0.0,0.0,0.41322737713755275,0.12615182887804693,0.2870755482595058,0.5393792060155997,0.12615182887804693,0.325710662563021,2,7,6,4,0,1,nan,nan,nan,nan,nan,nan,nan,nan,nan,nan,nan,nan,0.0,nan,nan,nan,nan,nan,nan,nan,nan,nan,nan,nan,nan,nan,nan,nan,nan,nan,nan,1055.6613141096313,1368.3860509458464,nan,1368.7562700154376,nan,nan,nan,nan
1,192,1,1,1.0,1.0,0.2970637817052193,0,0.0,0.0,0.0,0.41299860954422135,0.12585475777753732,0.287143851766684,0.5388533673217587,0.12585475777753732,0.3167837788156855,1,0,4,5,8,3,nan,nan,nan,nan,nan,nan,nan,nan,nan,nan,nan,nan,0.0,nan,nan,nan,nan,nan,nan,nan,nan,nan,nan,nan,nan,nan,nan,nan,nan,nan,nan,1055.6613141096313,1369.4111649338156,nan,1369.7082287155208,nan,nan,nan,nan
1,193,1,1,1.0,1.0,0.2803224534727633,0,0.0,0.0,0.0,0.41238519775671345,0.12580283429192657,0.2865823634647869,0.5381880320486401,0.12580283429192657,0.3158684349230801,4,7,2,8,5,6,nan,nan,nan,nan,nan,nan,nan,nan,nan,nan,nan,nan,0.0,nan,nan,nan,nan,nan,nan,nan,nan,nan,nan,nan,nan,nan,nan,nan,nan,nan,nan,1055.6613141096313,1370.4279310652637,nan,1370.7082535187365,nan,nan,nan,nan
1,194,0,0,1.0,0.0,0.3514803682337515,0,0.0,0.0,0.0,0.41169013068153476,0.12583467672984944,0.2858554539516853,0.5375248074113842,0.12583467672984944,0.3096222011372447,6,3,7,0,8,5,nan,nan,nan,nan,nan,nan,nan,nan,nan,nan,nan,nan,0.0,nan,nan,nan,nan,nan,nan,nan,nan,nan,nan,nan,nan,nan,nan,nan,nan,nan,nan,1055.6613141096313,1371.4447339739418,nan,1371.7962143421755,nan,nan,nan,nan
1,195,1,1,1.0,1.0,0.42265282286098227,0,0.0,0.0,0.0,0.41137489632316937,0.12558003122208417,0.2857948651010852,0.5369549275452535,0.12558003122208417,0.35148521485583234,3,0,1,2,4,7,nan,nan,nan,nan,nan,nan,nan,nan,nan,nan,nan,nan,0.0,nan,nan,nan,nan,nan,nan,nan,nan,nan,nan,nan,nan,nan,nan,nan,nan,nan,nan,1055.6613141096313,1372.461523768201,nan,1372.884176591062,nan,nan,nan,nan
1,196,1,1,1.0,1.0,0.3498470609774813,0,0.0,0.0,0.0,0.4114336355238872,0.12525520363739034,0.28617843188649683,0.5366888391612775,0.12525520363739034,0.3746600840240717,4,5,8,3,1,2,nan,nan,nan,nan,nan,nan,nan,nan,nan,nan,nan,nan,0.0,nan,nan,nan,nan,nan,nan,nan,nan,nan,nan,nan,nan,nan,nan,nan,nan,nan,nan,1055.6613141096313,1373.4783072904102,nan,1373.8281543513876,nan,nan,nan,nan
1,197,0,0,0.0,1.0,0.412999517924618,0,0.0,0.0,0.0,0.41111453410136695,0.12500850816938072,0.2861060259319862,0.5361230422707477,0.12500850816938072,0.3951664672543605,3,6,7,2,4,5,nan,nan,nan,nan,nan,nan,nan,nan,nan,nan,nan,nan,0.0,nan,nan,nan,nan,nan,nan,nan,nan,nan,nan,nan,nan,nan,nan,nan,nan,nan,nan,1055.6613141096313,1374.495106777933,nan,1374.9081062958576,nan,nan,nan,nan
1,198,1,1,1.0,1.0,0.37221302156103775,0,0.0,0.0,0.0,0.41112425051282697,0.12468597809690372,0.28643827241592323,0.5358102286097307,0.12468597809690372,0.378353200154379,7,2,4,8,5,0,nan,nan,nan,nan,nan,nan,nan,nan,nan,nan,nan,nan,0.0,nan,nan,nan,nan,nan,nan,nan,nan,nan,nan,nan,nan,nan,nan,nan,nan,nan,nan,1055.6613141096313,1375.511878326186,nan,1375.884091347747,nan,nan,nan,nan
1,199,0,0,0.0,1.0,0.7069637504755519,0,0.0,0.0,0.0,0.41092470574897166,0.12439691205663216,0.2865277936923395,0.5353216178056038,0.12439691205663216,0.4973920966537359,3,8,0,7,2,1,nan,nan,nan,nan,nan,nan,nan,nan,nan,nan,nan,nan,0.0,nan,nan,nan,nan,nan,nan,nan,nan,nan,nan,nan,nan,nan,nan,nan,nan,nan,nan,1055.6613141096313,1376.5290931966156,nan,1377.2360569470911,nan,nan,nan,nan
1,200,1,1,1.0,1.0,0.5385437992517836,1,0.0,1.0,1.0,0.412435109038393,0.1258590352714594,0.2865760737669336,0.5382941443098523,0.1258590352714594,0.5392401904294578,2,7,4,6,3,0,1.0,1.0,1.0,1.0,1.0,1.0,0.0,1.0,0.0,0.0,0.0,0.0,1.0,1.0,7.0,3.0,1.0,5.0,4.0,2.0,1.0,6.0,5.0,4.0,3.0,2.3750842098379508,0.910505082225427,6.366248271253426,5.662314506713301,4.758562461531255,4.167971497401595,1055.6613141096313,1377.545487279538,1378.353871457104,1378.0840310787898,1385.7880711836042,1386.7887779332232,1379.3790219372022,1385.7797295991331
1,201,1,1,1.0,1.0,0.34254436142509803,0,0.0,0.0,0.0,0.4130752546739939,0.12585867585385976,0.2872165788201342,0.5389339305278537,0.12585867585385976,0.5293506370508112,3,1,2,0,6,8,nan,nan,nan,nan,nan,nan,nan,nan,nan,nan,nan,nan,0.0,nan,nan,nan,nan,nan,nan,nan,nan,nan,nan,nan,nan,nan,nan,nan,nan,nan,nan,1055.6613141096313,1387.013241221197,nan,1387.355785582622,nan,nan,nan,nan
1,202,1,1,1.0,1.0,0.29369738401146606,0,0.0,0.0,0.0,0.41271903804142374,0.12563996825343796,0.2870790697879858,0.5383590062948617,0.12563996825343796,0.39159518156278256,8,5,3,1,7,6,nan,nan,nan,nan,nan,nan,nan,nan,nan,nan,nan,nan,0.0,nan,nan,nan,nan,nan,nan,nan,nan,nan,nan,nan,nan,nan,nan,nan,nan,nan,nan,1055.6613141096313,1388.030036432261,nan,1388.3237338162726,nan,nan,nan,nan
1,203,1,1,1.0,1.0,0.3728818536037579,0,0.0,0.0,0.0,0.41212093927745413,0.12560615820296997,0.28651478107448414,0.5377270974804241,0.12560615820296997,0.33637453301344067,7,8,4,3,1,2,nan,nan,nan,nan,nan,nan,nan,nan,nan,nan,nan,nan,0.0,nan,nan,nan,nan,nan,nan,nan,nan,nan,nan,nan,nan,nan,nan,nan,nan,nan,nan,1055.6613141096313,1389.0468233756255,nan,1389.4197052292293,nan,nan,nan,nan
1,204,0,0,1.0,0.0,0.3640325156156905,0,0.0,0.0,0.0,0.4119247438490856,0.12532231437454944,0.2866024294745362,0.537247058223635,0.12532231437454944,0.3435372510769715,0,7,6,4,2,1,nan,nan,nan,nan,nan,nan,nan,nan,nan,nan,nan,nan,0.0,nan,nan,nan,nan,nan,nan,nan,nan,nan,nan,nan,nan,nan,nan,nan,nan,nan,nan,1055.6613141096313,1390.0636288500973,nan,1390.427661365713,nan,nan,nan,nan
1,205,1,1,1.0,1.0,0.30724394152639434,0,0.0,0.0,0.0,0.4116864740568797,0.12505558466212902,0.2866308893947507,0.5367420587190087,0.12505558466212902,0.34805277024861425,7,8,3,1,5,2,nan,nan,nan,nan,nan,nan,nan,nan,nan,nan,nan,nan,0.0,nan,nan,nan,nan,nan,nan,nan,nan,nan,nan,nan,nan,nan,nan,nan,nan,nan,nan,1055.6613141096313,1391.0803832926904,nan,1391.3876272342168,nan,nan,nan,nan
1,206,1,1,1.0,1.0,0.3144782183226198,0,0.0,0.0,0.0,0.4111694318166298,0.12496084518825545,0.28620858662837434,0.5361302770048852,0.12496084518825545,0.3285848918215682,8,1,5,3,0,6,nan,nan,nan,nan,nan,nan,nan,nan,nan,nan,nan,nan,0.0,nan,nan,nan,nan,nan,nan,nan,nan,nan,nan,nan,nan,nan,nan,nan,nan,nan,nan,1055.6613141096313,1392.097116353165,nan,1392.4115945714875,nan,nan,nan,nan
1,207,1,1,1.0,1.0,0.26524664816679433,0,0.0,0.0,0.0,0.4106931204201075,0.12483636831411346,0.28585675210599404,0.535529488734221,0.12483636831411346,0.29565626933860284,5,6,1,0,2,7,nan,nan,nan,nan,nan,nan,nan,nan,nan,nan,nan,nan,0.0,nan,nan,nan,nan,nan,nan,nan,nan,nan,nan,nan,nan,nan,nan,nan,nan,nan,nan,1055.6613141096313,1393.1223150142469,nan,1393.3875616624136,nan,nan,nan,nan
1,208,1,1,1.0,1.0,0.33644447627011687,0,0.0,0.0,0.0,0.40998014751690504,0.1249436560118184,0.28503649150508664,0.5349238035287234,0.1249436560118184,0.30538978091984365,8,1,2,4,5,6,nan,nan,nan,nan,nan,nan,nan,nan,nan,nan,nan,nan,0.0,nan,nan,nan,nan,nan,nan,nan,nan,nan,nan,nan,nan,nan,nan,nan,nan,nan,nan,1055.6613141096313,1394.1390848518931,nan,1394.4755293281632,nan,nan,nan,nan
1,209,1,1,1.0,1.0,0.48767036898061633,0,0.0,0.0,0.0,0.40962143692545727,0.12474380029859658,0.2848776366268607,0.5343652372240538,0.12474380029859658,0.3631204978058425,4,8,6,3,2,1,nan,nan,nan,nan,nan,nan,nan,nan,nan,nan,nan,nan,0.0,nan,nan,nan,nan,nan,nan,nan,nan,nan,nan,nan,nan,nan,nan,nan,nan,nan,nan,1055.6613141096313,1395.1558541193954,nan,1395.643524488376,nan,nan,nan,nan
1,210,1,1,1.0,1.0,0.3268310845596716,0,0.0,0.0,0.0,0.4100003152364047,0.12455883870878894,0.28544147652761576,0.5345591539451936,0.12455883870878894,0.3836486432701349,2,4,3,8,5,6,nan,nan,nan,nan,nan,nan,nan,nan,nan,nan,nan,nan,0.0,nan,nan,nan,nan,nan,nan,nan,nan,nan,nan,nan,nan,nan,nan,nan,nan,nan,nan,1055.6613141096313,1396.1726641553687,nan,1396.4994952399284,nan,nan,nan,nan
1,211,0,0,1.0,0.0,0.31803135300287977,0,0.0,0.0,0.0,0.40959853151332865,0.12439134891528385,0.2852071825980448,0.5339898804286125,0.12439134891528385,0.37751093551438925,1,6,0,3,4,7,nan,nan,nan,nan,nan,nan,nan,nan,nan,nan,nan,nan,0.0,nan,nan,nan,nan,nan,nan,nan,nan,nan,nan,nan,nan,nan,nan,nan,nan,nan,nan,1055.6613141096313,1397.1894185979618,nan,1397.5074499509647,nan,nan,nan,nan
1,212,1,1,1.0,1.0,0.5171967669157311,0,0.0,0.0,0.0,0.4091583046935669,0.12425350615390673,0.28490479853966016,0.5334118108474737,0.12425350615390673,0.3873530681594275,7,8,3,6,5,1,nan,nan,nan,nan,nan,nan,nan,nan,nan,nan,nan,nan,0.0,nan,nan,nan,nan,nan,nan,nan,nan,nan,nan,nan,nan,nan,nan,nan,nan,nan,nan,1055.6613141096313,1398.2062135239248,nan,1398.7234102908405,nan,nan,nan,nan
1,213,0,0,0.0,1.0,0.4763888884917833,0,0.0,0.0,0.0,0.40967523513482124,0.1241798874528261,0.28549534768199514,0.5338551225876473,0.1241798874528261,0.4372056694701314,2,6,4,7,0,3,nan,nan,nan,nan,nan,nan,nan,nan,nan,nan,nan,nan,0.0,nan,nan,nan,nan,nan,nan,nan,nan,nan,nan,nan,nan,nan,nan,nan,nan,nan,nan,1055.6613141096313,1399.223019568657,nan,1399.6994084571488,nan,nan,nan,nan
1,214,1,1,1.0,1.0,0.45963273535016924,0,0.0,0.0,0.0,0.40999291919842584,0.12396897091168028,0.28602394828674554,0.5339618901101061,0.12396897091168028,0.48440613025256124,6,3,5,0,1,8,nan,nan,nan,nan,nan,nan,nan,nan,nan,nan,nan,nan,0.0,nan,nan,nan,nan,nan,nan,nan,nan,nan,nan,nan,nan,nan,nan,nan,nan,nan,nan,1055.6613141096313,1400.239756905532,nan,1400.6993896408821,nan,nan,nan,nan
1,215,1,1,1.0,1.0,0.3947987901628949,0,0.0,0.0,0.0,0.4102281789906142,0.12372183753199621,0.286506341458618,0.5339500165226104,0.12372183753199621,0.44360680466828245,1,5,3,8,6,2,nan,nan,nan,nan,nan,nan,nan,nan,nan,nan,nan,nan,0.0,nan,nan,nan,nan,nan,nan,nan,nan,nan,nan,nan,nan,nan,nan,nan,nan,nan,nan,1055.6613141096313,1401.2565606694552,nan,1401.651359459618,nan,nan,nan,nan
1,216,1,1,1.0,1.0,0.37794770050095394,0,0.0,0.0,0.0,0.41015539885463437,0.1234342232490906,0.2867211756055438,0.533589622103725,0.1234342232490906,0.410793075338006,4,0,8,1,7,6,nan,nan,nan,nan,nan,nan,nan,nan,nan,nan,nan,nan,0.0,nan,nan,nan,nan,nan,nan,nan,nan,nan,nan,nan,nan,nan,nan,nan,nan,nan,nan,1055.6613141096313,1402.2733729862375,nan,1402.6513206867385,nan,nan,nan,nan
1,217,1,1,1.0,1.0,0.34515525825554505,0,0.0,0.0,0.0,0.4100041890032087,0.12316381032783877,0.28684037867536993,0.5331679993310474,0.12316381032783877,0.37263391630646464,0,4,3,2,5,1,nan,nan,nan,nan,nan,nan,nan,nan,nan,nan,nan,nan,0.0,nan,nan,nan,nan,nan,nan,nan,nan,nan,nan,nan,nan,nan,nan,nan,nan,nan,nan,1055.6613141096313,1403.2901356965303,nan,1403.635290954786,nan,nan,nan,nan
1,218,1,1,1.0,1.0,0.4003507234156132,0,0.0,0.0,0.0,0.40970115661653733,0.12295527227287956,0.2867458843436578,0.5326564288894169,0.12295527227287956,0.3744845607240374,5,2,8,0,3,4,nan,nan,nan,nan,nan,nan,nan,nan,nan,nan,nan,nan,0.0,nan,nan,nan,nan,nan,nan,nan,nan,nan,nan,nan,nan,nan,nan,nan,nan,nan,nan,1055.6613141096313,1404.3069049640326,nan,1404.7072556874482,nan,nan,nan,nan
1,219,1,1,1.0,1.0,0.3755434973281808,0,0.0,0.0,0.0,0.4096576662295563,0.12267064631735808,0.2869870199121982,0.5323283125469144,0.12267064631735808,0.37368315966644633,0,7,1,5,4,2,nan,nan,nan,nan,nan,nan,nan,nan,nan,nan,nan,nan,0.0,nan,nan,nan,nan,nan,nan,nan,nan,nan,nan,nan,nan,nan,nan,nan,nan,nan,nan,1055.6613141096313,1405.323689626588,nan,1405.6992331239162,nan,nan,nan,nan
1,220,1,1,1.0,1.0,0.39041374932276085,0,0.0,0.0,0.0,0.4094997302624203,0.12240826486310631,0.287091465399314,0.5319079951255267,0.12240826486310631,0.3887693233555183,5,1,2,8,3,7,nan,nan,nan,nan,nan,nan,nan,nan,nan,nan,nan,nan,0.0,nan,nan,nan,nan,nan,nan,nan,nan,nan,nan,nan,nan,nan,nan,nan,nan,nan,nan,1055.6613141096313,1406.3488107419107,nan,1406.7392244912335,nan,nan,nan,nan
1,221,1,1,1.0,1.0,0.3735771995270625,0,0.0,0.0,0.0,0.40941177643320525,0.12213273338204723,0.28727904305115803,0.5315445098152525,0.12213273338204723,0.37984481539266807,4,8,1,5,6,3,nan,nan,nan,nan,nan,nan,nan,nan,nan,nan,nan,nan,0.0,nan,nan,nan,nan,nan,nan,nan,nan,nan,nan,nan,nan,nan,nan,nan,nan,nan,nan,1055.6613141096313,1407.3655925535713,nan,1407.7391697530984,nan,nan,nan,nan
1,222,1,1,1.0,1.0,0.4270817682845518,0,0.0,0.0,0.0,0.40924739764005785,0.1218763476370353,0.28737105000302254,0.5311237452770932,0.1218763476370353,0.3970242390447917,5,6,8,2,1,4,nan,nan,nan,nan,nan,nan,nan,nan,nan,nan,nan,nan,0.0,nan,nan,nan,nan,nan,nan,nan,nan,nan,nan,nan,nan,nan,nan,nan,nan,nan,nan,1055.6613141096313,1408.3840492963209,nan,1408.8111310646054,nan,nan,nan,nan
1,223,1,1,1.0,1.0,0.40357828000560403,0,0.0,0.0,0.0,0.4093288331224528,0.12160371729505345,0.28772511582739935,0.5309325504175062,0.12160371729505345,0.4014124159390728,7,4,0,6,8,3,nan,nan,nan,nan,nan,nan,nan,nan,nan,nan,nan,nan,0.0,nan,nan,nan,nan,nan,nan,nan,nan,nan,nan,nan,nan,nan,nan,nan,nan,nan,nan,1055.6613141096313,1409.4075199987274,nan,1409.811098278733,nan,nan,nan,nan
1,224,1,1,1.0,1.0,0.31475390488049015,0,0.0,0.0,0.0,0.40930269424464893,0.12132764707193663,0.2879750471727123,0.5306303413165856,0.12132764707193663,0.381804651056882,1,3,6,8,2,4,nan,nan,nan,nan,nan,nan,nan,nan,nan,nan,nan,nan,0.0,nan,nan,nan,nan,nan,nan,nan,nan,nan,nan,nan,nan,nan,nan,nan,nan,nan,nan,1055.6613141096313,1410.4243066569325,nan,1410.739060561813,nan,nan,nan,nan
1,225,1,1,1.0,1.0,0.36993254942353815,0,0.0,0.0,0.0,0.4088748716683405,0.12121904505074672,0.2876558266175938,0.5300939167190872,0.12121904505074672,0.3627549114365441,0,2,4,5,7,6,nan,nan,nan,nan,nan,nan,nan,nan,nan,nan,nan,nan,0.0,nan,nan,nan,nan,nan,nan,nan,nan,nan,nan,nan,nan,nan,nan,nan,nan,nan,nan,1055.6613141096313,1411.4410918897483,nan,1411.811024439172,nan,nan,nan,nan
1,226,1,1,1.0,1.0,0.441175137355458,0,0.0,0.0,0.0,0.40869945580237294,0.12097383092243258,0.28772562487994036,0.5296732867248055,0.12097383092243258,0.3752871972198288,1,4,3,6,8,5,nan,nan,nan,nan,nan,nan,nan,nan,nan,nan,nan,nan,0.0,nan,nan,nan,nan,nan,nan,nan,nan,nan,nan,nan,nan,nan,nan,nan,nan,nan,nan,1055.6613141096313,1412.457839775132,nan,1412.8990149124875,nan,nan,nan,nan
1,227,1,1,1.0,1.0,0.3763434729189612,0,0.0,0.0,0.0,0.4088450866613554,0.12072178638606051,0.28812330027529487,0.5295668730474159,0.12072178638606051,0.3958170532326524,7,0,5,4,6,2,nan,nan,nan,nan,nan,nan,nan,nan,nan,nan,nan,nan,0.0,nan,nan,nan,nan,nan,nan,nan,nan,nan,nan,nan,nan,nan,nan,nan,nan,nan,nan,1055.6613141096313,1413.4746572236181,nan,1413.851000696537,nan,nan,nan,nan
1,228,1,1,1.0,1.0,0.4795331974164583,0,0.0,0.0,0.0,0.408699990171434,0.12047150344664485,0.2882284867247891,0.5291714936180788,0.12047150344664485,0.43235060256362584,0,7,6,8,1,5,nan,nan,nan,nan,nan,nan,nan,nan,nan,nan,nan,nan,0.0,nan,nan,nan,nan,nan,nan,nan,nan,nan,nan,nan,nan,nan,nan,nan,nan,nan,nan,1055.6613141096313,1414.4914438818232,nan,1414.9709770792397,nan,nan,nan,nan
1,229,1,1,1.0,1.0,0.470327491115313,0,0.0,0.0,0.0,0.4090148044258563,0.12029579964790423,0.2887190047779521,0.5293106040737605,0.12029579964790423,0.44206805381691083,4,3,2,5,0,6,nan,nan,nan,nan,nan,nan,nan,nan,nan,nan,nan,nan,0.0,nan,nan,nan,nan,nan,nan,nan,nan,nan,nan,nan,nan,nan,nan,nan,nan,nan,nan,1055.6613141096313,1415.5166069060797,nan,1415.986934397195,nan,nan,nan,nan
1,230,1,1,1.0,1.0,0.4855381461093202,0,0.0,0.0,0.0,0.40928609949970346,0.12009832770250732,0.2891877717971961,0.5293844272022108,0.12009832770250732,0.4784662782136972,0,7,6,2,4,1,nan,nan,nan,nan,nan,nan,nan,nan,nan,nan,nan,nan,0.0,nan,nan,nan,nan,nan,nan,nan,nan,nan,nan,nan,nan,nan,nan,nan,nan,nan,nan,1055.6613141096313,1416.5333787394338,nan,1417.0189168855431,nan,nan,nan,nan
1,231,1,1,1.0,1.0,0.5007202916312963,0,0.0,0.0,0.0,0.4096220115993053,0.11993985717988633,0.28968215441941897,0.5295618687791916,0.11993985717988633,0.4855286429519765,5,2,8,1,6,3,nan,nan,nan,nan,nan,nan,nan,nan,nan,nan,nan,nan,0.0,nan,nan,nan,nan,nan,nan,nan,nan,nan,nan,nan,nan,nan,nan,nan,nan,nan,nan,1055.6613141096313,1417.550139454077,nan,1418.0508597457083,nan,nan,nan,nan
1,232,1,1,1.0,1.0,0.5639118065009825,0,0.0,0.0,0.0,0.41002156545909474,0.1198278505360158,0.29019371492307894,0.5298494159951106,0.1198278505360158,0.5167234147471996,8,7,0,3,5,4,nan,nan,nan,nan,nan,nan,nan,nan,nan,nan,nan,nan,0.0,nan,nan,nan,nan,nan,nan,nan,nan,nan,nan,nan,nan,nan,nan,nan,nan,nan,nan,1055.6613141096313,1418.5669238315895,nan,1419.1308356380905,nan,nan,nan,nan
1,233,1,1,1.0,1.0,0.5310905696824193,1,0.0,1.0,1.0,0.41069357524530387,0.11999573370783295,0.2906978415374709,0.5306893089531368,0.11999573370783295,0.5319075559382327,5,6,1,7,2,0,1.0,1.0,1.0,1.0,1.0,1.0,0.0,1.0,1.0,1.0,0.0,0.0,3.0,4.0,6.0,1.0,7.0,5.0,4.0,4.0,3.0,2.0,1.0,6.0,5.0,4.072086753149051,3.184327092487365,2.113562038168311,1.1993033997132443,5.055132459267043,4.519146244158037,1055.6613141096313,1419.5837099196506,1420.3921171898837,1420.114800489333,1426.4928280164022,1427.5036416566,1421.4006150062196,1426.484545731626
1,234,0,0,0.0,1.0,0.4922492742189206,0,0.0,0.0,0.0,0.4112170404385087,0.11999633946199688,0.2912207009765118,0.5312133799005055,0.11999633946199688,0.5290838834674408,1,5,3,4,6,8,nan,nan,nan,nan,nan,nan,nan,nan,nan,nan,nan,nan,0.0,nan,nan,nan,nan,nan,nan,nan,nan,nan,nan,nan,nan,nan,nan,nan,nan,nan,nan,1055.6613141096313,1427.726351897465,nan,1428.218601171684,nan,nan,nan,nan
1,235,1,1,1.0,1.0,0.3954091778723523,0,0.0,0.0,0.0,0.411567829329333,0.11985445248134258,0.2917133768479904,0.5314222818106755,0.11985445248134258,0.4729163405912307,3,4,0,6,7,2,nan,nan,nan,nan,nan,nan,nan,nan,nan,nan,nan,nan,0.0,nan,nan,nan,nan,nan,nan,nan,nan,nan,nan,nan,nan,nan,nan,nan,nan,nan,nan,1055.6613141096313,1428.743140551378,nan,1429.1385497292504,nan,nan,nan,nan
1,236,1,1,1.0,1.0,0.34659584157634526,0,0.0,0.0,0.0,0.41149817996960464,0.11960055132760813,0.29189762864199653,0.5310987312972127,0.11960055132760813,0.4114180978892061,4,2,1,7,5,0,nan,nan,nan,nan,nan,nan,nan,nan,nan,nan,nan,nan,0.0,nan,nan,nan,nan,nan,nan,nan,nan,nan,nan,nan,nan,nan,nan,nan,nan,nan,nan,1055.6613141096313,1429.7599277798436,nan,1430.10652362142,nan,nan,nan,nan
1,237,0,0,1.0,0.0,0.28979443822754547,0,0.0,0.0,0.0,0.41121962916104987,0.11941901471506451,0.2918006144459854,0.5306386438761144,0.11941901471506451,0.3439331525587477,6,5,0,1,4,2,nan,nan,nan,nan,nan,nan,nan,nan,nan,nan,nan,nan,0.0,nan,nan,nan,nan,nan,nan,nan,nan,nan,nan,nan,nan,nan,nan,nan,nan,nan,nan,1055.6613141096313,1430.7766859286348,nan,1431.0664803668624,nan,nan,nan,nan
1,238,1,1,1.0,1.0,0.2810414621490054,0,0.0,0.0,0.0,0.41070071808868447,0.11942653248405483,0.29127418560462964,0.5301272505727392,0.11942653248405483,0.3058105806509654,1,4,2,0,5,8,nan,nan,nan,nan,nan,nan,nan,nan,nan,nan,nan,nan,0.0,nan,nan,nan,nan,nan,nan,nan,nan,nan,nan,nan,nan,nan,nan,nan,nan,nan,nan,1055.6613141096313,1431.7934472134802,nan,1432.0744886756293,nan,nan,nan,nan
1,239,1,1,1.0,1.0,0.2962016554083675,1,1.0,0.0,1.0,0.41014897657404753,0.11947065878493834,0.2906783177891092,0.5296196353589859,0.11947065878493834,0.2890125185949728,0,1,8,6,3,2,1.0,1.0,1.0,1.0,1.0,1.0,1.0,0.0,0.0,1.0,0.0,0.0,2.0,0.0,5.0,3.0,6.0,4.0,5.0,2.0,6.0,5.0,1.0,4.0,3.0,2.430720431380905,5.0521634835749865,4.485350838920567,1.2946726928348653,3.8455211772816256,3.3822466428391635,1055.6613141096313,1432.8102489817538,1433.6186727875029,1433.1064506371622,1439.7193325820263,1440.7164702317095,1434.6271215674933,1439.7110283449874
1,240,1,1,1.0,1.0,0.3540231274673715,0,0.0,0.0,0.0,0.40966614894198955,0.11944681778889321,0.29021933115309634,0.5291129667308827,0.11944681778889321,0.3104220816749148,6,8,5,0,4,3,nan,nan,nan,nan,nan,nan,nan,nan,nan,nan,nan,nan,0.0,nan,nan,nan,nan,nan,nan,nan,nan,nan,nan,nan,nan,nan,nan,nan,nan,nan,nan,1055.6613141096313,1440.9361929657753,nan,1441.2902160932426,nan,nan,nan,nan
1,241,1,1,1.0,1.0,0.37718963384395465,0,0.0,0.0,0.0,0.40943136826066207,0.11924911095719144,0.29018225730347064,0.5286804792178535,0.11924911095719144,0.3424714722398979,7,4,3,1,6,8,nan,nan,nan,nan,nan,nan,nan,nan,nan,nan,nan,nan,0.0,nan,nan,nan,nan,nan,nan,nan,nan,nan,nan,nan,nan,nan,nan,nan,nan,nan,nan,1055.6613141096313,1441.952981334587,nan,1442.330170968431,nan,nan,nan,nan
1,242,1,1,1.0,1.0,0.352393526409287,0,0.0,0.0,0.0,0.40929589878832295,0.119016597628875,0.29027930115944794,0.5283124964171979,0.119016597628875,0.3612020959068711,8,6,0,5,3,1,nan,nan,nan,nan,nan,nan,nan,nan,nan,nan,nan,nan,0.0,nan,nan,nan,nan,nan,nan,nan,nan,nan,nan,nan,nan,nan,nan,nan,nan,nan,nan,1055.6613141096313,1442.9697645716951,nan,1443.3221580981044,nan,nan,nan,nan
1,243,1,1,1.0,1.0,0.3035462638363242,0,0.0,0.0,0.0,0.40905781354824333,0.11882412998293099,0.2902336835653123,0.5278819435311743,0.11882412998293099,0.34437647469652194,6,1,2,4,8,7,nan,nan,nan,nan,nan,nan,nan,nan,nan,nan,nan,nan,0.0,nan,nan,nan,nan,nan,nan,nan,nan,nan,nan,nan,nan,nan,nan,nan,nan,nan,nan,1055.6613141096313,1443.9865500896121,nan,1444.2900963534485,nan,nan,nan,nan
1,244,1,1,1.0,1.0,0.3347245001932606,0,0.0,0.0,0.0,0.4086181820911103,0.11877094297688058,0.2898472391142297,0.5273891250679908,0.11877094297688058,0.33022143014629063,1,7,5,0,6,3,nan,nan,nan,nan,nan,nan,nan,nan,nan,nan,nan,nan,0.0,nan,nan,nan,nan,nan,nan,nan,nan,nan,nan,nan,nan,nan,nan,nan,nan,nan,nan,1055.6613141096313,1445.0033512876835,nan,1445.3380757878767,nan,nan,nan,nan
1,245,1,1,1.0,1.0,0.3179204512271099,0,0.0,0.0,0.0,0.40831156930315243,0.11861941781985047,0.28969215148330196,0.5269309871230029,0.11861941781985047,0.3187304050855649,8,2,6,1,7,4,nan,nan,nan,nan,nan,nan,nan,nan,nan,nan,nan,nan,0.0,nan,nan,nan,nan,nan,nan,nan,nan,nan,nan,nan,nan,nan,nan,nan,nan,nan,nan,1055.6613141096313,1446.0201385160908,nan,1446.338058967318,nan,nan,nan,nan
1,246,0,0,1.0,0.0,0.2930952641181648,0,0.0,0.0,0.0,0.40793805228630925,0.1185160181319272,0.28942203415438206,0.5264540704182364,0.1185160181319272,0.31524673851284507,6,1,4,5,2,8,nan,nan,nan,nan,nan,nan,nan,nan,nan,nan,nan,nan,0.0,nan,nan,nan,nan,nan,nan,nan,nan,nan,nan,nan,nan,nan,nan,nan,nan,nan,nan,1055.6613141096313,1447.0369231787045,nan,1447.3300184428226,nan,nan,nan,nan
1,247,1,1,1.0,1.0,0.25997211202047765,0,0.0,0.0,0.0,0.4074654482197737,0.11850019285734821,0.2889652553624255,0.525965641077122,0.11850019285734821,0.2903292757885841,3,4,2,6,5,7,nan,nan,nan,nan,nan,nan,nan,nan,nan,nan,nan,nan,0.0,nan,nan,nan,nan,nan,nan,nan,nan,nan,nan,nan,nan,nan,nan,nan,nan,nan,nan,1055.6613141096313,1448.0540374107077,nan,1448.3140095227282,nan,nan,nan,nan
1,248,1,1,1.0,1.0,0.3314524688757956,0,0.0,0.0,0.0,0.406860967333711,0.11863193844997418,0.28822902888373686,0.5254929057836852,0.11863193844997418,0.29483994833814603,7,5,4,8,0,1,nan,nan,nan,nan,nan,nan,nan,nan,nan,nan,nan,nan,0.0,nan,nan,nan,nan,nan,nan,nan,nan,nan,nan,nan,nan,nan,nan,nan,nan,nan,nan,1055.6613141096313,1449.0705210133456,nan,1449.4019734822214,nan,nan,nan,nan
1,249,1,1,1.0,1.0,0.3386342882877216,0,0.0,0.0,0.0,0.4065531775440869,0.1184871682685087,0.2880660092755782,0.5250403458125956,0.1184871682685087,0.31001962306133163,6,0,7,2,5,8,nan,nan,nan,nan,nan,nan,nan,nan,nan,nan,nan,nan,0.0,nan,nan,nan,nan,nan,nan,nan,nan,nan,nan,nan,nan,nan,nan,nan,nan,nan,nan,1055.6613141096313,1450.087291136093,nan,1450.4259254243807,nan,nan,nan,nan
1,250,1,1,1.0,1.0,0.3298260038718581,0,0.0,0.0,0.0,0.4062770844983293,0.1183250387468969,0.2879520457514324,0.5246021232452261,0.1183250387468969,0.33330425367845845,3,5,1,8,2,7,nan,nan,nan,nan,nan,nan,nan,nan,nan,nan,nan,nan,0.0,nan,nan,nan,nan,nan,nan,nan,nan,nan,nan,nan,nan,nan,nan,nan,nan,nan,nan,1055.6613141096313,1451.104068386252,nan,1451.433894390124,nan,nan,nan,nan
1,251,0,0,1.0,0.0,0.2650801529525779,0,0.0,0.0,0.0,0.4059675659532828,0.11818501833676451,0.28778254761651834,0.5241525842900473,0.11818501833676451,0.3111801483707192,6,3,2,1,4,8,nan,nan,nan,nan,nan,nan,nan,nan,nan,nan,nan,nan,0.0,nan,nan,nan,nan,nan,nan,nan,nan,nan,nan,nan,nan,nan,nan,nan,nan,nan,nan,1055.6613141096313,1452.1208131355816,nan,1452.3858932885341,nan,nan,nan,nan
1,252,1,1,1.0,1.0,0.25621627509826794,1,1.0,0.0,1.0,0.40539947154602196,0.11828394571634245,0.28711552582967953,0.5236834172623644,0.11828394571634245,0.283707477307568,8,5,4,3,7,6,1.0,1.0,1.0,1.0,1.0,1.0,1.0,0.0,1.0,0.0,0.0,0.0,2.0,8.0,8.0,4.0,0.0,6.0,4.0,1.0,5.0,4.0,3.0,2.0,6.0,1.3963619641726837,4.364840758964419,3.4928955837967806,2.980823678371962,2.4611845055478625,5.244279076869134,1055.6613141096313,1453.137645694078,1453.9460660786717,1453.3938619691762,1460.2384414788103,1461.245497856522,1454.9545433681924,1460.2301138640032
1,253,1,1,1.0,1.0,0.3620342872454785,0,0.0,0.0,0.0,0.4048003422430189,0.11842264884328725,0.2863776933997317,0.5232229910863062,0.11842264884328725,0.29444357176544145,4,0,1,8,6,5,nan,nan,nan,nan,nan,nan,nan,nan,nan,nan,nan,nan,0.0,nan,nan,nan,nan,nan,nan,nan,nan,nan,nan,nan,nan,nan,nan,nan,nan,nan,nan,1055.6613141096313,1461.4635881385766,nan,1461.825622425822,nan,nan,nan,nan
1,254,1,1,1.0,1.0,0.3212061670492403,0,0.0,0.0,0.0,0.4046292780230287,0.11821638863921166,0.28641288938381704,0.5228456666622404,0.11821638863921166,0.3131522431309956,8,2,4,0,1,7,nan,nan,nan,nan,nan,nan,nan,nan,nan,nan,nan,nan,0.0,nan,nan,nan,nan,nan,nan,nan,nan,nan,nan,nan,nan,nan,nan,nan,nan,nan,nan,1055.6613141096313,1462.4803839199012,nan,1462.8015900869505,nan,nan,nan,nan
1,255,1,1,1.0,1.0,0.240394662192557,0,0.0,0.0,0.0,0.4042969150311013,0.11809764216661996,0.2861992728644814,0.5223945571977213,0.11809764216661996,0.30787837216242525,7,6,5,4,0,3,nan,nan,nan,nan,nan,nan,nan,nan,nan,nan,nan,nan,0.0,nan,nan,nan,nan,nan,nan,nan,nan,nan,nan,nan,nan,nan,nan,nan,nan,nan,nan,1055.6613141096313,1463.4971728589153,nan,1463.7375675211078,nan,nan,nan,nan
1,256,0,0,1.0,0.0,0.25557053566444665,0,0.0,0.0,0.0,0.403646509265869,0.11831266871761904,0.28533384054824995,0.521959177983488,0.11831266871761904,0.272390454968748,3,0,2,5,8,6,nan,nan,nan,nan,nan,nan,nan,nan,nan,nan,nan,nan,0.0,nan,nan,nan,nan,nan,nan,nan,nan,nan,nan,nan,nan,nan,nan,nan,nan,nan,nan,1055.6613141096313,1464.5139560960233,nan,1464.7695266316878,nan,nan,nan,nan
1,257,1,1,1.0,1.0,0.25476799422176555,1,1.0,0.0,1.0,0.40306122873780015,0.11844358737780032,0.28461764135999984,0.5215048161156005,0.11844358737780032,0.25024439735958975,0,7,5,8,6,2,1.0,1.0,1.0,1.0,1.0,1.0,1.0,0.0,0.0,0.0,0.0,1.0,2.0,0.0,6.0,3.0,1.0,7.0,2.0,1.0,6.0,5.0,4.0,3.0,2.0,1.2354072163579985,5.47494146291865,4.86647164291935,3.8587641089688987,3.3225891611655243,2.1306255232775584,1055.6613141096313,1465.5307399033336,1466.3391702662339,1465.7855078975554,1472.873239789973,1473.8811414734228,1467.3559634817066,1472.8649053329136
1,258,1,1,1.0,1.0,0.5748181024682708,0,0.0,0.0,0.0,0.40247739710584723,0.1185744027532482,0.283902994352599,0.5210517998590954,0.1185744027532482,0.36171887745149434,4,6,8,5,2,1,nan,nan,nan,nan,nan,nan,nan,nan,nan,nan,nan,nan,0.0,nan,nan,nan,nan,nan,nan,nan,nan,nan,nan,nan,nan,nan,nan,nan,nan,nan,nan,1055.6613141096313,1474.0984346308396,nan,1474.673252733308,nan,nan,nan,nan
1,259,1,1,1.0,1.0,0.45401408994803205,0,0.0,0.0,0.0,0.4031532430092293,0.11883085104781352,0.28432239196141573,0.5219840940570428,0.11883085104781352,0.4278667288793561,8,3,5,0,6,2,nan,nan,nan,nan,nan,nan,nan,nan,nan,nan,nan,nan,0.0,nan,nan,nan,nan,nan,nan,nan,nan,nan,nan,nan,nan,nan,nan,nan,nan,nan,nan,1055.6613141096313,1475.1152067492367,nan,1475.5692208391847,nan,nan,nan,nan
1,260,1,1,1.0,1.0,0.4451616159058176,0,0.0,0.0,0.0,0.403351918192584,0.11864095926223638,0.2847109589303476,0.5219928774548204,0.11864095926223638,0.4913312694407068,2,5,8,3,4,6,nan,nan,nan,nan,nan,nan,nan,nan,nan,nan,nan,nan,0.0,nan,nan,nan,nan,nan,nan,nan,nan,nan,nan,nan,nan,nan,nan,nan,nan,nan,nan,1055.6613141096313,1476.1320287592243,nan,1476.5771903751302,nan,nan,nan,nan
1,261,1,1,1.0,1.0,0.3803353682742454,0,0.0,0.0,0.0,0.4035146018412736,0.11843852131307274,0.2850760805282008,0.5219531231543463,0.11843852131307274,0.42650369137603167,3,1,6,5,7,8,nan,nan,nan,nan,nan,nan,nan,nan,nan,nan,nan,nan,0.0,nan,nan,nan,nan,nan,nan,nan,nan,nan,nan,nan,nan,nan,nan,nan,nan,nan,nan,1055.6613141096313,1477.1488071497297,nan,1477.529142518004,nan,nan,nan,nan
1,262,1,1,1.0,1.0,0.31555302516790107,0,0.0,0.0,0.0,0.40342475985070375,0.11821754041640395,0.28520721943429983,0.5216423002671077,0.11821754041640395,0.38035000311598804,5,6,4,3,8,2,nan,nan,nan,nan,nan,nan,nan,nan,nan,nan,nan,nan,0.0,nan,nan,nan,nan,nan,nan,nan,nan,nan,nan,nan,nan,nan,nan,nan,nan,nan,nan,1055.6613141096313,1478.1655712855281,nan,1478.481124310696,nan,nan,nan,nan
1,263,1,1,1.0,1.0,0.47471737855812535,0,0.0,0.0,0.0,0.40308548674382033,0.11811488157578837,0.28497060516803197,0.5212003683196087,0.11811488157578837,0.3902019240000906,8,0,3,1,2,4,nan,nan,nan,nan,nan,nan,nan,nan,nan,nan,nan,nan,0.0,nan,nan,nan,nan,nan,nan,nan,nan,nan,nan,nan,nan,nan,nan,nan,nan,nan,nan,1055.6613141096313,1479.1823952911654,nan,1479.6571126697236,nan,nan,nan,nan
1,264,1,1,1.0,1.0,0.40191047627013177,0,0.0,0.0,0.0,0.4033609940200292,0.11797087046711807,0.2853901235529111,0.5213318644871472,0.11797087046711807,0.3973936266653861,6,4,1,0,7,3,nan,nan,nan,nan,nan,nan,nan,nan,nan,nan,nan,nan,0.0,nan,nan,nan,nan,nan,nan,nan,nan,nan,nan,nan,nan,nan,nan,nan,nan,nan,nan,1055.6613141096313,1480.1991645586677,nan,1480.6010750349378,nan,nan,nan,nan
1,265,1,1,1.0,1.0,0.35142448969418183,0,0.0,0.0,0.0,0.40335543648075756,0.11774468984326003,0.2856107466374975,0.5211001263240176,0.11774468984326003,0.40935078150747967,4,6,8,1,0,2,nan,nan,nan,nan,nan,nan,nan,nan,nan,nan,nan,nan,0.0,nan,nan,nan,nan,nan,nan,nan,nan,nan,nan,nan,nan,nan,nan,nan,nan,nan,nan,1055.6613141096313,1481.2175987788942,nan,1481.5690232685884,nan,nan,nan,nan
1,266,1,1,1.0,1.0,0.33593615249264985,0,0.0,0.0,0.0,0.4031572267601981,0.1175633897296194,0.2855938370305787,0.5207206164898175,0.1175633897296194,0.3630903728189878,1,3,0,2,8,6,nan,nan,nan,nan,nan,nan,nan,nan,nan,nan,nan,nan,0.0,nan,nan,nan,nan,nan,nan,nan,nan,nan,nan,nan,nan,nan,nan,nan,nan,nan,nan,1055.6613141096313,1482.2410461035324,nan,1482.576982256025,nan,nan,nan,nan
1,267,1,1,1.0,1.0,0.3431347924633883,0,0.0,0.0,0.0,0.4029016333219185,0.11741258296609264,0.28548905035582584,0.5203142162880111,0.11741258296609264,0.34349847821674,8,0,4,5,6,3,nan,nan,nan,nan,nan,nan,nan,nan,nan,nan,nan,nan,0.0,nan,nan,nan,nan,nan,nan,nan,nan,nan,nan,nan,nan,nan,nan,nan,nan,nan,nan,1055.6613141096313,1483.2578330468968,nan,1483.6009678393602,nan,nan,nan,nan
1,268,1,1,1.0,1.0,0.4535385520430282,0,0.0,0.0,0.0,0.4026752437732119,0.11724749617205246,0.2854277476011594,0.5199227399452644,0.11724749617205246,0.3775364989996888,1,2,6,7,5,4,nan,nan,nan,nan,nan,nan,nan,nan,nan,nan,nan,nan,0.0,nan,nan,nan,nan,nan,nan,nan,nan,nan,nan,nan,nan,nan,nan,nan,nan,nan,nan,1055.6613141096313,1484.275382903521,nan,1484.728921455564,nan,nan,nan,nan
1,269,1,1,1.0,1.0,0.5651864646933973,0,0.0,0.0,0.0,0.40286718078555084,0.11706761162471017,0.28579956916084065,0.519934792410261,0.11706761162471017,0.45395326973327127,5,3,7,6,1,0,nan,nan,nan,nan,nan,nan,nan,nan,nan,nan,nan,nan,0.0,nan,nan,nan,nan,nan,nan,nan,nan,nan,nan,nan,nan,nan,nan,nan,nan,nan,nan,1055.6613141096313,1485.2997359738802,nan,1485.8649224385736,nan,nan,nan,nan
1,270,1,1,1.0,1.0,0.572365433210507,1,0.0,1.0,1.0,0.4034774036573848,0.1172688464940499,0.28620855716333493,0.5207462501514347,0.1172688464940499,0.5303634833156442,6,1,4,7,8,5,1.0,1.0,1.0,1.0,1.0,1.0,0.0,0.0,1.0,1.0,0.0,0.0,2.0,2.0,5.0,4.0,7.0,3.0,3.0,6.0,2.0,5.0,1.0,4.0,3.0,7.544772547204047,2.2424282423453405,6.601198480871972,1.1226377413258888,5.568877300072927,3.1847992092370987,1055.6613141096313,1486.3165254830383,1487.1249678199529,1486.8888909162488,1495.7176043382497,1496.7189140630653,1488.1333869501832,1495.7092704513343
1,271,1,1,1.0,1.0,0.4738392870640382,0,0.0,0.0,0.0,0.4041099430939134,0.11750278736716603,0.2866071557267474,0.5216127304610795,0.11750278736716603,0.5371303949893141,8,6,1,3,2,4,nan,nan,nan,nan,nan,nan,nan,nan,nan,nan,nan,nan,0.0,nan,nan,nan,nan,nan,nan,nan,nan,nan,nan,nan,nan,nan,nan,nan,nan,nan,nan,1055.6613141096313,1496.9427572701243,nan,1497.4165965571883,nan,nan,nan,nan
