block,trial,freq_trials,correct_response,actual_response,acc,rts,probe_trials,fast_rt_trigger,slow_rt_trigger,rt_triggered,rts_runningavg,rts_runningstd,rts_runningfastthresh,rts_runningslowthresh,rts_runningstd,rts_trailingavg,trials_colorind0,trials_colorind1,trials_colorind2,trials_colorind3,trials_colorind4,trials_colorind5,wholereport_resp0,wholereport_resp1,wholereport_resp2,wholereport_resp3,wholereport_resp4,wholereport_resp5,wholereport_respacc0,wholereport_respacc1,wholereport_respacc2,wholereport_respacc3,wholereport_respacc4,wholereport_respacc5,wholereport_respacc_total,wholereport_respcolorind0,wholereport_respcolorind1,wholereport_respcolorind2,wholereport_respcolorind3,wholereport_respcolorind4,wholereport_respcolorind5,wholereport_resporder0,wholereport_resporder1,wholereport_resporder2,wholereport_resporder3,wholereport_resporder4,wholereport_resporder5,wholereport_rts0,wholereport_rts1,wholereport_rts2,wholereport_rts3,wholereport_rts4,wholereport_rts5,time_blockstart,time_encarray_offset,time_encarray_onset,time_response,time_iti_offset,time_iti_onset,time_memprobe_offset,time_memprobe_onset
1,1,1,1,1.0,1.0,0.4528318562079221,0,nan,nan,nan,nan,nan,nan,nan,nan,nan,2,8,3,5,4,0,nan,nan,nan,nan,nan,nan,nan,nan,nan,nan,nan,nan,0.0,nan,nan,nan,nan,nan,nan,nan,nan,nan,nan,nan,nan,nan,nan,nan,nan,nan,nan,880.5128337151837,881.5239896248095,nan,881.9768214810174,nan,nan,nan,nan
1,2,1,1,1.0,1.0,0.3716121017932892,0,nan,nan,nan,nan,nan,nan,nan,nan,nan,8,6,4,0,5,2,nan,nan,nan,nan,nan,nan,nan,nan,nan,nan,nan,nan,0.0,nan,nan,nan,nan,nan,nan,nan,nan,nan,nan,nan,nan,nan,nan,nan,nan,nan,nan,880.5128337151837,882.5492117307149,nan,882.9208238325082,nan,nan,nan,nan
1,3,1,1,1.0,1.0,0.31453278893604875,0,nan,nan,nan,nan,nan,nan,nan,nan,nan,7,3,0,1,6,5,nan,nan,nan,nan,nan,nan,nan,nan,nan,nan,nan,nan,0.0,nan,nan,nan,nan,nan,nan,nan,nan,nan,nan,nan,nan,nan,nan,nan,nan,nan,nan,880.5128337151837,883.5742690498009,nan,883.888801838737,nan,nan,nan,nan
1,4,1,1,1.0,1.0,0.35331988823600113,0,nan,nan,nan,nan,nan,nan,nan,nan,nan,5,7,2,8,4,1,nan,nan,nan,nan,nan,nan,nan,nan,nan,nan,nan,nan,0.0,nan,nan,nan,nan,nan,nan,nan,nan,nan,nan,nan,nan,nan,nan,nan,nan,nan,nan,880.5128337151837,884.5994697734714,nan,884.9527896617074,nan,nan,nan,nan
1,5,1,1,1.0,1.0,0.5928703101817518,0,nan,nan,nan,nan,nan,nan,nan,nan,nan,4,3,5,6,7,8,nan,nan,nan,nan,nan,nan,nan,nan,nan,nan,nan,nan,0.0,nan,nan,nan,nan,nan,nan,nan,nan,nan,nan,nan,nan,nan,nan,nan,nan,nan,nan,880.5128337151837,885.807906241389,nan,886.4007765515707,nan,nan,nan,nan
1,6,1,1,1.0,1.0,0.5436990635935217,0,nan,nan,nan,nan,nan,nan,nan,nan,nan,0,1,7,8,2,6,nan,nan,nan,nan,nan,nan,nan,nan,nan,nan,nan,nan,0.0,nan,nan,nan,nan,nan,nan,nan,nan,nan,nan,nan,nan,nan,nan,nan,nan,nan,nan,880.5128337151837,886.8330428178888,nan,887.3767418814823,nan,nan,nan,nan
1,7,1,1,1.0,1.0,0.5665460128802806,0,nan,nan,nan,nan,nan,nan,nan,nan,nan,6,5,8,7,0,1,nan,nan,nan,nan,nan,nan,nan,nan,nan,nan,nan,nan,0.0,nan,nan,nan,nan,nan,nan,nan,nan,nan,nan,nan,nan,nan,nan,nan,nan,nan,nan,880.5128337151837,887.8581973556429,nan,888.4247433685232,nan,nan,nan,nan
1,8,1,1,1.0,1.0,0.5090681321453303,0,nan,nan,nan,nan,nan,nan,nan,nan,nan,1,6,0,2,4,3,nan,nan,nan,nan,nan,nan,nan,nan,nan,nan,nan,nan,0.0,nan,nan,nan,nan,nan,nan,nan,nan,nan,nan,nan,nan,nan,nan,nan,nan,nan,nan,880.5128337151837,888.8916559612844,nan,889.4007240934297,nan,nan,nan,nan
1,9,1,1,1.0,1.0,0.46790986764244735,0,nan,nan,nan,nan,nan,nan,nan,nan,nan,4,0,5,3,2,8,nan,nan,nan,nan,nan,nan,nan,nan,nan,nan,nan,nan,0.0,nan,nan,nan,nan,nan,nan,nan,nan,nan,nan,nan,nan,nan,nan,nan,nan,nan,nan,880.5128337151837,889.9167948185932,nan,890.3847046862356,nan,nan,nan,nan
1,10,1,1,1.0,1.0,0.47477732389234006,0,nan,nan,nan,nan,nan,nan,nan,nan,nan,6,2,3,0,1,5,nan,nan,nan,nan,nan,nan,nan,nan,nan,nan,nan,nan,0.0,nan,nan,nan,nan,nan,nan,nan,nan,nan,nan,nan,nan,nan,nan,nan,nan,nan,nan,880.5128337151837,890.941927688662,nan,891.4167050125543,nan,nan,nan,nan
1,11,1,1,1.0,1.0,0.5456032373476774,0,nan,nan,nan,nan,nan,nan,nan,nan,nan,7,0,5,2,4,1,nan,nan,nan,nan,nan,nan,nan,nan,nan,nan,nan,nan,0.0,nan,nan,nan,nan,nan,nan,nan,nan,nan,nan,nan,nan,nan,nan,nan,nan,nan,nan,880.5128337151837,891.9670668311883,nan,892.512670068536,nan,nan,nan,nan
1,12,1,1,1.0,1.0,0.5284688093233854,0,nan,nan,nan,nan,nan,nan,nan,nan,nan,8,7,6,3,1,2,nan,nan,nan,nan,nan,nan,nan,nan,nan,nan,nan,nan,0.0,nan,nan,nan,nan,nan,nan,nan,nan,nan,nan,nan,nan,nan,nan,nan,nan,nan,nan,880.5128337151837,892.9922039778903,nan,893.5206727872137,nan,nan,nan,nan
1,13,1,1,1.0,1.0,0.6233122872654349,0,nan,nan,nan,nan,nan,nan,nan,nan,nan,1,4,7,5,3,6,nan,nan,nan,nan,nan,nan,nan,nan,nan,nan,nan,nan,0.0,nan,nan,nan,nan,nan,nan,nan,nan,nan,nan,nan,nan,nan,nan,nan,nan,nan,nan,880.5128337151837,894.0173442605883,nan,894.6406565478537,nan,nan,nan,nan
1,14,1,1,1.0,1.0,0.5901439120061696,0,nan,nan,nan,nan,nan,nan,nan,nan,nan,7,1,2,4,6,5,nan,nan,nan,nan,nan,nan,nan,nan,nan,nan,nan,nan,0.0,nan,nan,nan,nan,nan,nan,nan,nan,nan,nan,nan,nan,nan,nan,nan,nan,nan,nan,880.5128337151837,895.0424759904854,nan,895.6326199024916,nan,nan,nan,nan
1,15,1,1,1.0,1.0,0.5568900073412806,1,nan,nan,nan,nan,nan,nan,nan,nan,nan,2,6,5,3,0,4,1.0,1.0,1.0,1.0,1.0,1.0,0.0,0.0,0.0,0.0,0.0,0.0,0.0,0.0,8.0,4.0,6.0,5.0,6.0,3.0,2.0,1.0,6.0,5.0,4.0,7.976836306042969,6.329714291263372,5.209690046496689,10.976032612845302,10.176194662926719,9.449034057324752,880.5128337151837,896.0677368699107,896.8760368325748,896.624626877252,908.9109713938087,909.9090732070617,897.8928562265355,908.9026402414311
1,16,1,1,1.0,1.0,0.4802118740044534,0,nan,nan,nan,nan,nan,nan,nan,nan,nan,3,5,2,4,8,0,nan,nan,nan,nan,nan,nan,nan,nan,nan,nan,nan,nan,0.0,nan,nan,nan,nan,nan,nan,nan,nan,nan,nan,nan,nan,nan,nan,nan,nan,nan,nan,880.5128337151837,910.1361653890926,nan,910.6163772630971,nan,nan,nan,nan
1,17,1,1,1.0,1.0,0.4230290704872459,1,nan,nan,nan,nan,nan,nan,nan,nan,nan,5,7,0,1,4,6,1.0,1.0,1.0,1.0,1.0,1.0,0.0,1.0,0.0,0.0,0.0,1.0,2.0,1.0,7.0,4.0,3.0,5.0,6.0,3.0,2.0,1.0,6.0,5.0,4.0,4.923922569490969,1.972336879465729,1.0270783833693713,8.602343282662332,7.755011606495827,6.7625960854347795,880.5128337151837,911.1613253436517,911.9697148271371,911.5843544141389,921.6210078350268,922.622888345737,912.9781945159193,921.6126772528514
1,18,1,1,1.0,1.0,0.39399348478764296,0,nan,nan,nan,nan,nan,nan,nan,nan,nan,6,2,3,8,7,1,nan,nan,nan,nan,nan,nan,nan,nan,nan,nan,nan,nan,0.0,nan,nan,nan,nan,nan,nan,nan,nan,nan,nan,nan,nan,nan,nan,nan,nan,nan,nan,880.5128337151837,922.8461966987234,nan,923.240190183511,nan,nan,nan,nan
1,19,1,1,1.0,1.0,0.37724907184019685,0,nan,nan,nan,nan,nan,nan,nan,nan,nan,8,0,7,6,5,2,nan,nan,nan,nan,nan,nan,nan,nan,nan,nan,nan,nan,0.0,nan,nan,nan,nan,nan,nan,nan,nan,nan,nan,nan,nan,nan,nan,nan,nan,nan,nan,880.5128337151837,923.8629679109436,nan,924.2402169827837,nan,nan,nan,nan
1,20,1,1,1.0,1.0,0.27878655190579593,0,nan,nan,nan,nan,nan,nan,nan,nan,nan,7,2,8,4,6,5,nan,nan,nan,nan,nan,nan,nan,nan,nan,nan,nan,nan,0.0,nan,nan,nan,nan,nan,nan,nan,nan,nan,nan,nan,nan,nan,nan,nan,nan,nan,nan,880.5128337151837,924.9134135486092,nan,925.192200100515,nan,nan,nan,nan
1,21,1,1,1.0,1.0,0.2458602252881974,0,nan,nan,nan,nan,nan,nan,nan,nan,nan,8,1,3,5,2,4,nan,nan,nan,nan,nan,nan,nan,nan,nan,nan,nan,nan,0.0,nan,nan,nan,nan,nan,nan,nan,nan,nan,nan,nan,nan,nan,nan,nan,nan,nan,nan,880.5128337151837,925.9383149188943,nan,926.1841751441825,nan,nan,nan,nan
1,22,1,1,1.0,1.0,0.36507564526982605,0,nan,nan,nan,nan,nan,nan,nan,nan,nan,5,2,0,3,4,6,nan,nan,nan,nan,nan,nan,nan,nan,nan,nan,nan,nan,0.0,nan,nan,nan,nan,nan,nan,nan,nan,nan,nan,nan,nan,nan,nan,nan,nan,nan,nan,880.5128337151837,926.9550844205078,nan,927.3201600657776,nan,nan,nan,nan
1,23,1,1,1.0,1.0,0.4199306182563305,0,nan,nan,nan,nan,nan,nan,nan,nan,nan,3,5,7,8,1,4,nan,nan,nan,nan,nan,nan,nan,nan,nan,nan,nan,nan,0.0,nan,nan,nan,nan,nan,nan,nan,nan,nan,nan,nan,nan,nan,nan,nan,nan,nan,nan,880.5128337151837,927.9802241332363,nan,928.4001547514927,nan,nan,nan,nan
1,24,1,1,1.0,1.0,0.47477361746132374,0,nan,nan,nan,nan,nan,nan,nan,nan,nan,0,2,3,4,5,8,nan,nan,nan,nan,nan,nan,nan,nan,nan,nan,nan,nan,0.0,nan,nan,nan,nan,nan,nan,nan,nan,nan,nan,nan,nan,nan,nan,nan,nan,nan,nan,880.5128337151837,929.0053547224961,nan,929.4801283399574,nan,nan,nan,nan
1,25,1,1,1.0,1.0,0.6972389337606728,0,nan,nan,nan,nan,nan,nan,nan,nan,nan,2,4,8,7,1,0,nan,nan,nan,nan,nan,nan,nan,nan,nan,nan,nan,nan,0.0,nan,nan,nan,nan,nan,nan,nan,nan,nan,nan,nan,nan,nan,nan,nan,nan,nan,nan,880.5128337151837,930.0388332852162,nan,930.7360722189769,nan,nan,nan,nan
1,26,1,1,1.0,1.0,0.7361189750954509,0,nan,nan,nan,nan,nan,nan,nan,nan,nan,5,6,3,4,2,1,nan,nan,nan,nan,nan,nan,nan,nan,nan,nan,nan,nan,0.0,nan,nan,nan,nan,nan,nan,nan,nan,nan,nan,nan,nan,nan,nan,nan,nan,nan,nan,880.5128337151837,931.0639644446783,nan,931.8000834197737,nan,nan,nan,nan
1,27,0,0,nan,nan,nan,0,nan,nan,nan,nan,nan,nan,nan,nan,nan,1,5,2,0,7,4,nan,nan,nan,nan,nan,nan,nan,nan,nan,nan,nan,nan,0.0,nan,nan,nan,nan,nan,nan,nan,nan,nan,nan,nan,nan,nan,nan,nan,nan,nan,nan,880.5128337151837,932.0891021615826,nan,nan,nan,nan,nan,nan
1,28,1,1,1.0,1.0,0.6458054292015731,0,nan,nan,nan,nan,nan,nan,nan,nan,nan,3,8,4,5,2,7,nan,nan,nan,nan,nan,nan,nan,nan,nan,nan,nan,nan,0.0,nan,nan,nan,nan,nan,nan,nan,nan,nan,nan,nan,nan,nan,nan,nan,nan,nan,nan,880.5128337151837,933.1142401637044,nan,933.760045592906,nan,nan,nan,nan
1,29,1,1,1.0,1.0,0.5806697993539274,0,nan,nan,nan,nan,nan,nan,nan,nan,nan,8,6,0,7,1,4,nan,nan,nan,nan,nan,nan,nan,nan,nan,nan,nan,nan,0.0,nan,nan,nan,nan,nan,nan,nan,nan,nan,nan,nan,nan,nan,nan,nan,nan,nan,nan,880.5128337151837,934.1393753145821,nan,934.7200451139361,nan,nan,nan,nan
1,30,1,1,1.0,1.0,0.7314450680278242,0,nan,nan,nan,nan,nan,nan,nan,nan,nan,5,4,6,2,0,1,nan,nan,nan,nan,nan,nan,nan,nan,nan,nan,nan,nan,0.0,nan,nan,nan,nan,nan,nan,nan,nan,nan,nan,nan,nan,nan,nan,nan,nan,nan,nan,880.5128337151837,935.164584021084,nan,935.8960290891118,nan,nan,nan,nan
1,31,1,1,nan,nan,nan,0,nan,nan,nan,nan,nan,nan,nan,nan,nan,0,5,7,3,4,8,nan,nan,nan,nan,nan,nan,nan,nan,nan,nan,nan,nan,0.0,nan,nan,nan,nan,nan,nan,nan,nan,nan,nan,nan,nan,nan,nan,nan,nan,nan,nan,880.5128337151837,936.1896456168033,nan,nan,nan,nan,nan,nan
1,32,1,1,1.0,1.0,0.7051621098071337,0,nan,nan,nan,nan,nan,nan,nan,nan,nan,7,2,0,1,3,6,nan,nan,nan,nan,nan,nan,nan,nan,nan,nan,nan,nan,0.0,nan,nan,nan,nan,nan,nan,nan,nan,nan,nan,nan,nan,nan,nan,nan,nan,nan,nan,880.5128337151837,937.2147870399058,nan,937.9199491497129,nan,nan,nan,nan
1,33,1,1,1.0,1.0,0.616388666909188,0,nan,nan,nan,nan,nan,nan,nan,nan,nan,1,4,7,5,0,8,nan,nan,nan,nan,nan,nan,nan,nan,nan,nan,nan,nan,0.0,nan,nan,nan,nan,nan,nan,nan,nan,nan,nan,nan,nan,nan,nan,nan,nan,nan,nan,880.5128337151837,938.2315918938257,nan,938.8479805607349,nan,nan,nan,nan
1,34,1,1,1.0,1.0,0.4072502863127738,0,nan,nan,nan,nan,nan,nan,nan,nan,nan,7,8,5,1,4,2,nan,nan,nan,nan,nan,nan,nan,nan,nan,nan,nan,nan,0.0,nan,nan,nan,nan,nan,nan,nan,nan,nan,nan,nan,nan,nan,nan,nan,nan,nan,nan,880.5128337151837,939.2567270449363,nan,939.663977331249,nan,nan,nan,nan
1,35,1,1,1.0,1.0,0.5820918711833656,0,nan,nan,nan,nan,nan,nan,nan,nan,nan,4,3,0,7,2,6,nan,nan,nan,nan,nan,nan,nan,nan,nan,nan,nan,nan,0.0,nan,nan,nan,nan,nan,nan,nan,nan,nan,nan,nan,nan,nan,nan,nan,nan,nan,nan,880.5128337151837,940.281865902245,nan,940.8639577734284,nan,nan,nan,nan
1,36,1,1,1.0,1.0,0.5489351849537343,0,nan,nan,nan,nan,nan,nan,nan,nan,nan,8,2,1,4,7,3,nan,nan,nan,nan,nan,nan,nan,nan,nan,nan,nan,nan,0.0,nan,nan,nan,nan,nan,nan,nan,nan,nan,nan,nan,nan,nan,nan,nan,nan,nan,nan,880.5128337151837,941.3069996277336,nan,941.8559348126873,nan,nan,nan,nan
1,37,1,1,1.0,1.0,0.5481038375291973,0,nan,nan,nan,nan,nan,nan,nan,nan,nan,4,0,7,6,8,5,nan,nan,nan,nan,nan,nan,nan,nan,nan,nan,nan,nan,0.0,nan,nan,nan,nan,nan,nan,nan,nan,nan,nan,nan,nan,nan,nan,nan,nan,nan,nan,880.5128337151837,942.3238178812899,nan,942.8719217188191,nan,nan,nan,nan
1,38,1,1,1.0,1.0,0.46689976332709193,0,nan,nan,nan,nan,nan,nan,nan,nan,nan,0,1,8,4,2,7,nan,nan,nan,nan,nan,nan,nan,nan,nan,nan,nan,nan,0.0,nan,nan,nan,nan,nan,nan,nan,nan,nan,nan,nan,nan,nan,nan,nan,nan,nan,nan,880.5128337151837,943.3490148987621,nan,943.8159146620892,nan,nan,nan,nan
1,39,1,1,1.0,1.0,0.3858356724958867,0,nan,nan,nan,nan,nan,nan,nan,nan,nan,8,0,3,5,4,6,nan,nan,nan,nan,nan,nan,nan,nan,nan,nan,nan,nan,0.0,nan,nan,nan,nan,nan,nan,nan,nan,nan,nan,nan,nan,nan,nan,nan,nan,nan,nan,880.5128337151837,944.374064805219,nan,944.7599004777148,nan,nan,nan,nan
1,40,0,0,1.0,0.0,0.3046700865961611,0,nan,nan,nan,nan,nan,nan,nan,nan,nan,7,8,1,2,5,4,nan,nan,nan,nan,nan,nan,nan,nan,nan,nan,nan,nan,0.0,nan,nan,nan,nan,nan,nan,nan,nan,nan,nan,nan,nan,nan,nan,nan,nan,nan,nan,880.5128337151837,945.3992142111529,nan,945.703884297749,nan,nan,nan,nan
1,41,1,1,1.0,1.0,0.4155252743512392,0,nan,nan,nan,nan,nan,nan,nan,nan,nan,8,5,7,1,4,0,nan,nan,nan,nan,nan,nan,nan,nan,nan,nan,nan,nan,0.0,nan,nan,nan,nan,nan,nan,nan,nan,nan,nan,nan,nan,nan,nan,nan,nan,nan,nan,880.5128337151837,946.4243507876527,nan,946.8398760620039,nan,nan,nan,nan
1,42,1,1,1.0,1.0,0.40636163391172886,0,nan,nan,nan,nan,nan,nan,nan,nan,nan,1,2,5,3,0,8,nan,nan,nan,nan,nan,nan,nan,nan,nan,nan,nan,nan,0.0,nan,nan,nan,nan,nan,nan,nan,nan,nan,nan,nan,nan,nan,nan,nan,nan,nan,nan,880.5128337151837,947.4494802367408,nan,947.8558418706525,nan,nan,nan,nan
1,43,0,0,0.0,1.0,0.5652012026403099,0,nan,nan,nan,nan,nan,nan,nan,nan,nan,7,3,4,1,8,5,nan,nan,nan,nan,nan,nan,nan,nan,nan,nan,nan,nan,0.0,nan,nan,nan,nan,nan,nan,nan,nan,nan,nan,nan,nan,nan,nan,nan,nan,nan,nan,880.5128337151837,948.474622515263,nan,949.0398237179033,nan,nan,nan,nan
1,44,1,1,1.0,1.0,0.5323629716876894,0,nan,nan,nan,nan,nan,nan,nan,nan,nan,3,7,8,4,6,0,nan,nan,nan,nan,nan,nan,nan,nan,nan,nan,nan,nan,0.0,nan,nan,nan,nan,nan,nan,nan,nan,nan,nan,nan,nan,nan,nan,nan,nan,nan,nan,880.5128337151837,949.491441053804,nan,950.0238040254917,nan,nan,nan,nan
1,45,1,1,1.0,1.0,0.5392101854085922,0,nan,nan,nan,nan,nan,nan,nan,nan,nan,5,3,0,6,4,2,nan,nan,nan,nan,nan,nan,nan,nan,nan,nan,nan,nan,0.0,nan,nan,nan,nan,nan,nan,nan,nan,nan,nan,nan,nan,nan,nan,nan,nan,nan,nan,880.5128337151837,950.5165756347124,nan,951.055785820121,nan,nan,nan,nan
1,46,1,1,1.0,1.0,0.47400185535661876,0,nan,nan,nan,nan,nan,nan,nan,nan,nan,7,6,5,1,3,4,nan,nan,nan,nan,nan,nan,nan,nan,nan,nan,nan,nan,0.0,nan,nan,nan,nan,nan,nan,nan,nan,nan,nan,nan,nan,nan,nan,nan,nan,nan,nan,880.5128337151837,951.5417980258353,nan,952.0157998811919,nan,nan,nan,nan
1,47,1,1,1.0,1.0,0.4569258727133274,0,nan,nan,nan,nan,nan,nan,nan,nan,nan,5,0,7,8,2,1,nan,nan,nan,nan,nan,nan,nan,nan,nan,nan,nan,nan,0.0,nan,nan,nan,nan,nan,nan,nan,nan,nan,nan,nan,nan,nan,nan,nan,nan,nan,nan,880.5128337151837,952.5668425154872,nan,953.0237683882006,nan,nan,nan,nan
1,48,1,1,1.0,1.0,0.37577112042345107,0,nan,nan,nan,nan,nan,nan,nan,nan,nan,8,4,5,6,1,3,nan,nan,nan,nan,nan,nan,nan,nan,nan,nan,nan,nan,0.0,nan,nan,nan,nan,nan,nan,nan,nan,nan,nan,nan,nan,nan,nan,nan,nan,nan,nan,880.5128337151837,953.5919799474068,nan,953.9677510678302,nan,nan,nan,nan
1,49,1,1,1.0,1.0,0.5745789520442486,0,nan,nan,nan,nan,nan,nan,nan,nan,nan,3,8,1,2,5,6,nan,nan,nan,nan,nan,nan,nan,nan,nan,nan,nan,nan,0.0,nan,nan,nan,nan,nan,nan,nan,nan,nan,nan,nan,nan,nan,nan,nan,nan,nan,nan,880.5128337151837,954.6171507355757,nan,955.19172968762,nan,nan,nan,nan
1,50,1,1,1.0,1.0,0.4295002392027527,0,nan,nan,nan,nan,nan,nan,nan,nan,nan,2,7,5,3,0,4,nan,nan,nan,nan,nan,nan,nan,nan,nan,nan,nan,nan,0.0,nan,nan,nan,nan,nan,nan,nan,nan,nan,nan,nan,nan,nan,nan,nan,nan,nan,nan,880.5128337151837,955.6422536706086,nan,956.0717539098114,nan,nan,nan,nan
1,51,1,1,1.0,1.0,0.3370404706802219,0,nan,nan,nan,nan,nan,nan,nan,nan,nan,5,0,1,7,8,6,nan,nan,nan,nan,nan,nan,nan,nan,nan,nan,nan,nan,0.0,nan,nan,nan,nan,nan,nan,nan,nan,nan,nan,nan,nan,nan,nan,nan,nan,nan,nan,880.5128337151837,956.678677872289,nan,957.0157183429692,nan,nan,nan,nan
1,52,1,1,1.0,1.0,0.33882746915332973,0,nan,nan,nan,nan,nan,nan,nan,nan,nan,8,4,5,3,2,1,nan,nan,nan,nan,nan,nan,nan,nan,nan,nan,nan,nan,0.0,nan,nan,nan,nan,nan,nan,nan,nan,nan,nan,nan,nan,nan,nan,nan,nan,nan,nan,880.5128337151837,957.7008596863598,nan,958.0396871555131,nan,nan,nan,nan
1,53,1,1,1.0,1.0,0.37767985579557717,0,nan,nan,nan,nan,nan,nan,nan,nan,nan,1,0,2,4,6,7,nan,nan,nan,nan,nan,nan,nan,nan,nan,nan,nan,nan,0.0,nan,nan,nan,nan,nan,nan,nan,nan,nan,nan,nan,nan,nan,nan,nan,nan,nan,nan,880.5128337151837,958.7259954076726,nan,959.1036752634682,nan,nan,nan,nan
1,54,1,1,1.0,1.0,0.38453334220685065,0,nan,nan,nan,nan,nan,nan,nan,nan,nan,7,1,8,2,3,5,nan,nan,nan,nan,nan,nan,nan,nan,nan,nan,nan,nan,0.0,nan,nan,nan,nan,nan,nan,nan,nan,nan,nan,nan,nan,nan,nan,nan,nan,nan,nan,880.5128337151837,959.7511299883481,nan,960.135663330555,nan,nan,nan,nan
1,55,0,0,0.0,1.0,0.4873801087960601,0,nan,nan,nan,nan,nan,nan,nan,nan,nan,1,3,0,4,7,2,nan,nan,nan,nan,nan,nan,nan,nan,nan,nan,nan,nan,0.0,nan,nan,nan,nan,nan,nan,nan,nan,nan,nan,nan,nan,nan,nan,nan,nan,nan,nan,880.5128337151837,960.7762719818857,nan,961.2636520906817,nan,nan,nan,nan
1,56,1,1,1.0,1.0,0.3661775514483452,0,nan,nan,nan,nan,nan,nan,nan,nan,nan,8,0,6,3,5,4,nan,nan,nan,nan,nan,nan,nan,nan,nan,nan,nan,nan,0.0,nan,nan,nan,nan,nan,nan,nan,nan,nan,nan,nan,nan,nan,nan,nan,nan,nan,nan,880.5128337151837,961.8014681439381,nan,962.1676456953865,nan,nan,nan,nan
1,57,1,1,1.0,1.0,0.3730715215206146,0,nan,nan,nan,nan,nan,nan,nan,nan,nan,3,6,7,8,0,1,nan,nan,nan,nan,nan,nan,nan,nan,nan,nan,nan,nan,0.0,nan,nan,nan,nan,nan,nan,nan,nan,nan,nan,nan,nan,nan,nan,nan,nan,nan,nan,880.5128337151837,962.8265459900722,nan,963.1996175115928,nan,nan,nan,nan
1,58,1,1,1.0,1.0,0.3719282760284841,0,nan,nan,nan,nan,nan,nan,nan,nan,nan,6,8,2,4,7,5,nan,nan,nan,nan,nan,nan,nan,nan,nan,nan,nan,nan,0.0,nan,nan,nan,nan,nan,nan,nan,nan,nan,nan,nan,nan,nan,nan,nan,nan,nan,nan,880.5128337151837,963.8516765795648,nan,964.2236048555933,nan,nan,nan,nan
1,59,1,1,1.0,1.0,0.34680538438260555,0,nan,nan,nan,nan,nan,nan,nan,nan,nan,8,3,5,2,1,4,nan,nan,nan,nan,nan,nan,nan,nan,nan,nan,nan,nan,0.0,nan,nan,nan,nan,nan,nan,nan,nan,nan,nan,nan,nan,nan,nan,nan,nan,nan,nan,880.5128337151837,964.876796905417,nan,965.2236022897996,nan,nan,nan,nan
1,60,1,1,1.0,1.0,0.3856318269390613,0,nan,nan,nan,nan,nan,nan,nan,nan,nan,5,1,0,4,2,7,nan,nan,nan,nan,nan,nan,nan,nan,nan,nan,nan,nan,0.0,nan,nan,nan,nan,nan,nan,nan,nan,nan,nan,nan,nan,nan,nan,nan,nan,nan,nan,880.5128337151837,965.9019577153958,nan,966.2875895423349,nan,nan,nan,nan
1,61,1,1,1.0,1.0,0.4404600008856505,0,nan,nan,nan,nan,nan,nan,nan,nan,nan,8,3,1,2,7,6,nan,nan,nan,nan,nan,nan,nan,nan,nan,nan,nan,nan,0.0,nan,nan,nan,nan,nan,nan,nan,nan,nan,nan,nan,nan,nan,nan,nan,nan,nan,nan,880.5128337151837,966.9270988535136,nan,967.3675588543992,nan,nan,nan,nan
1,62,1,1,1.0,1.0,0.5593264603521675,0,nan,nan,nan,nan,nan,nan,nan,nan,nan,6,0,4,5,1,7,nan,nan,nan,nan,nan,nan,nan,nan,nan,nan,nan,nan,0.0,nan,nan,nan,nan,nan,nan,nan,nan,nan,nan,nan,nan,nan,nan,nan,nan,nan,nan,880.5128337151837,967.9522231705487,nan,968.5115496309008,nan,nan,nan,nan
1,63,1,1,1.0,1.0,0.5184909272938967,1,nan,nan,nan,nan,nan,nan,nan,nan,nan,1,3,7,0,2,5,1.0,1.0,1.0,1.0,1.0,1.0,0.0,1.0,1.0,0.0,0.0,0.0,2.0,2.0,3.0,7.0,8.0,4.0,1.0,3.0,2.0,1.0,6.0,5.0,4.0,6.874843409750611,5.385721063008532,3.4269004247616976,11.489333319710568,9.953360429266468,8.554689045762643,880.5128337151837,968.9690425647423,969.7774577070959,969.4875334920362,982.3207889932673,983.3216354511678,970.7942656970117,982.3124632579274
1,64,1,1,1.0,1.0,0.5252882489003241,0,nan,nan,nan,nan,nan,nan,nan,nan,nan,5,2,4,6,1,7,nan,nan,nan,nan,nan,nan,nan,nan,nan,nan,nan,nan,0.0,nan,nan,nan,nan,nan,nan,nan,nan,nan,nan,nan,nan,nan,nan,nan,nan,nan,nan,880.5128337151837,983.5459963884205,nan,984.0712846373208,nan,nan,nan,nan
1,65,1,1,1.0,1.0,0.420170956524089,0,nan,nan,nan,nan,nan,nan,nan,nan,nan,6,1,5,3,0,4,nan,nan,nan,nan,nan,nan,nan,nan,nan,nan,nan,nan,0.0,nan,nan,nan,nan,nan,nan,nan,nan,nan,nan,nan,nan,nan,nan,nan,nan,nan,nan,880.5128337151837,984.5711112974677,nan,984.9912822539918,nan,nan,nan,nan
1,66,1,1,1.0,1.0,0.4110058906953782,0,nan,nan,nan,nan,nan,nan,nan,nan,nan,2,0,7,4,5,6,nan,nan,nan,nan,nan,nan,nan,nan,nan,nan,nan,nan,0.0,nan,nan,nan,nan,nan,nan,nan,nan,nan,nan,nan,nan,nan,nan,nan,nan,nan,nan,880.5128337151837,985.5962678308133,nan,986.0072737215087,nan,nan,nan,nan
1,67,0,0,0.0,1.0,0.6338669238612056,0,nan,nan,nan,nan,nan,nan,nan,nan,nan,0,1,5,7,6,3,nan,nan,nan,nan,nan,nan,nan,nan,nan,nan,nan,nan,0.0,nan,nan,nan,nan,nan,nan,nan,nan,nan,nan,nan,nan,nan,nan,nan,nan,nan,nan,880.5128337151837,986.6213972799014,nan,987.2552642037626,nan,nan,nan,nan
1,68,1,1,1.0,1.0,0.45670777233317494,0,nan,nan,nan,nan,nan,nan,nan,nan,nan,8,0,1,4,3,7,nan,nan,nan,nan,nan,nan,nan,nan,nan,nan,nan,nan,0.0,nan,nan,nan,nan,nan,nan,nan,nan,nan,nan,nan,nan,nan,nan,nan,nan,nan,nan,880.5128337151837,987.6465418389998,nan,988.103249611333,nan,nan,nan,nan
1,69,1,1,1.0,1.0,0.5355013373773545,0,nan,nan,nan,nan,nan,nan,nan,nan,nan,3,4,7,6,2,5,nan,nan,nan,nan,nan,nan,nan,nan,nan,nan,nan,nan,0.0,nan,nan,nan,nan,nan,nan,nan,nan,nan,nan,nan,nan,nan,nan,nan,nan,nan,nan,880.5128337151837,988.671726027038,nan,989.2072273644153,nan,nan,nan,nan
1,70,1,1,1.0,1.0,0.5744030461646616,0,nan,nan,nan,nan,nan,nan,nan,nan,nan,5,3,8,0,7,4,nan,nan,nan,nan,nan,nan,nan,nan,nan,nan,nan,nan,0.0,nan,nan,nan,nan,nan,nan,nan,nan,nan,nan,nan,nan,nan,nan,nan,nan,nan,nan,880.5128337151837,989.6968198388349,nan,990.2712228849996,nan,nan,nan,nan
1,71,0,0,1.0,0.0,0.6532744432333857,0,nan,nan,nan,nan,nan,nan,nan,nan,nan,8,6,4,5,1,0,nan,nan,nan,nan,nan,nan,nan,nan,nan,nan,nan,nan,0.0,nan,nan,nan,nan,nan,nan,nan,nan,nan,nan,nan,nan,nan,nan,nan,nan,nan,nan,880.5128337151837,990.7219150760211,nan,991.3751895192545,nan,nan,nan,nan
1,72,1,1,1.0,1.0,0.6280970978550613,0,nan,nan,nan,nan,nan,nan,nan,nan,nan,5,8,3,1,7,4,nan,nan,nan,nan,nan,nan,nan,nan,nan,nan,nan,nan,0.0,nan,nan,nan,nan,nan,nan,nan,nan,nan,nan,nan,nan,nan,nan,nan,nan,nan,nan,880.5128337151837,991.7470815877896,nan,992.3751786856446,nan,nan,nan,nan
1,73,1,1,1.0,1.0,0.6349391797557473,0,nan,nan,nan,nan,nan,nan,nan,nan,nan,8,3,7,6,0,2,nan,nan,nan,nan,nan,nan,nan,nan,nan,nan,nan,nan,0.0,nan,nan,nan,nan,nan,nan,nan,nan,nan,nan,nan,nan,nan,nan,nan,nan,nan,nan,880.5128337151837,992.7722213005181,nan,993.4071604802739,nan,nan,nan,nan
1,74,1,1,1.0,1.0,0.7617114244494587,1,nan,nan,nan,nan,nan,nan,nan,nan,nan,7,2,6,4,8,5,1.0,1.0,1.0,1.0,1.0,1.0,0.0,1.0,1.0,0.0,0.0,0.0,2.0,8.0,2.0,6.0,3.0,0.0,4.0,3.0,2.0,1.0,6.0,5.0,4.0,5.461510828696191,2.309305505361408,1.2123411786742508,9.692340654088184,8.468333809403703,7.181612962624058,880.5128337151837,993.7974428362213,994.6057738745585,994.5591542606708,1005.3655386453029,1006.3625131787267,995.6309118766803,1005.3572100589518
1,75,1,1,1.0,1.0,0.2725220792926848,0,nan,nan,nan,nan,nan,nan,nan,nan,nan,2,1,7,5,0,8,nan,nan,nan,nan,nan,nan,nan,nan,nan,nan,nan,nan,0.0,nan,nan,nan,nan,nan,nan,nan,nan,nan,nan,nan,nan,nan,nan,nan,nan,nan,nan,880.5128337151837,1006.5824513807893,nan,1006.854973460082,nan,nan,nan,nan
1,76,1,1,1.0,1.0,0.35138064716011286,0,nan,nan,nan,nan,nan,nan,nan,nan,nan,5,8,0,2,3,7,nan,nan,nan,nan,nan,nan,nan,nan,nan,nan,nan,nan,0.0,nan,nan,nan,nan,nan,nan,nan,nan,nan,nan,nan,nan,nan,nan,nan,nan,nan,nan,880.5128337151837,1007.6075785490684,nan,1007.9589591962285,nan,nan,nan,nan
1,77,0,0,0.0,1.0,0.3982602711766958,0,nan,nan,nan,nan,nan,nan,nan,nan,nan,1,0,3,7,6,4,nan,nan,nan,nan,nan,nan,nan,nan,nan,nan,nan,nan,0.0,nan,nan,nan,nan,nan,nan,nan,nan,nan,nan,nan,nan,nan,nan,nan,nan,nan,nan,880.5128337151837,1008.6326689394191,nan,1009.0309292105958,nan,nan,nan,nan
1,78,1,1,1.0,1.0,0.42112004989758134,0,nan,nan,nan,nan,nan,nan,nan,nan,nan,7,3,0,4,1,2,nan,nan,nan,nan,nan,nan,nan,nan,nan,nan,nan,nan,0.0,nan,nan,nan,nan,nan,nan,nan,nan,nan,nan,nan,nan,nan,nan,nan,nan,nan,nan,880.5128337151837,1009.6578112179413,nan,1010.0789312678389,nan,nan,nan,nan
1,79,1,1,1.0,1.0,0.5479344888590276,0,nan,nan,nan,nan,nan,nan,nan,nan,nan,2,0,8,1,5,7,nan,nan,nan,nan,nan,nan,nan,nan,nan,nan,nan,nan,0.0,nan,nan,nan,nan,nan,nan,nan,nan,nan,nan,nan,nan,nan,nan,nan,nan,nan,nan,880.5128337151837,1010.6829694618937,nan,1011.2309039507527,nan,nan,nan,nan
1,80,1,1,1.0,1.0,0.7401636694557965,0,nan,nan,nan,nan,nan,nan,nan,nan,nan,0,4,6,2,8,3,nan,nan,nan,nan,nan,nan,nan,nan,nan,nan,nan,nan,0.0,nan,nan,nan,nan,nan,nan,nan,nan,nan,nan,nan,nan,nan,nan,nan,nan,nan,nan,880.5128337151837,1011.7147177609149,nan,1012.4548814303707,nan,nan,nan,nan
1,81,1,1,1.0,1.0,0.5936597483232617,1,0.0,1.0,1.0,0.48628527529310817,0.12018066200608911,0.36610461328701904,0.6064659372991973,0.12018066200608911,0.6272526355460286,6,1,7,3,4,5,1.0,1.0,1.0,1.0,1.0,1.0,0.0,0.0,0.0,0.0,0.0,0.0,0.0,1.0,4.0,3.0,6.0,1.0,7.0,1.0,2.0,3.0,4.0,5.0,6.0,1.3021851668599993,2.524201452964917,3.54230208019726,4.429653907194734,6.020516552962363,7.284481396898627,880.5128337151837,1012.7332172412425,1013.5416426470038,1013.3268769895658,1021.8927105411422,1022.8982845044229,1014.5667920531705,1021.8843853757717
1,82,1,1,1.0,1.0,0.22478915541432798,0,0.0,0.0,0.0,0.48764444583779365,0.12001940116449382,0.3676250446732998,0.6076638470022875,0.12001940116449382,0.5195375243977954,7,8,6,1,5,2,nan,nan,nan,nan,nan,nan,nan,nan,nan,nan,nan,nan,0.0,nan,nan,nan,nan,nan,nan,nan,nan,nan,nan,nan,nan,nan,nan,nan,nan,nan,nan,880.5128337151837,1023.1179518627468,nan,1023.3427410181612,nan,nan,nan,nan
1,83,1,1,1.0,1.0,0.3675802368670702,0,0.0,0.0,0.0,0.48435875470750034,0.12279032526130274,0.3615684294461976,0.6071490799688031,0.12279032526130274,0.39534304686821997,4,1,0,7,8,6,nan,nan,nan,nan,nan,nan,nan,nan,nan,nan,nan,nan,0.0,nan,nan,nan,nan,nan,nan,nan,nan,nan,nan,nan,nan,nan,nan,nan,nan,nan,nan,880.5128337151837,1024.1430989878718,nan,1024.5106792247389,nan,nan,nan,nan
1,84,0,0,0.0,1.0,0.534473842009902,0,0.0,0.0,0.0,0.4829170446107049,0.12270943194165167,0.3602076126690532,0.6056264765523566,0.12270943194165167,0.3756144114304334,5,7,2,0,4,1,nan,nan,nan,nan,nan,nan,nan,nan,nan,nan,nan,nan,0.0,nan,nan,nan,nan,nan,nan,nan,nan,nan,nan,nan,nan,nan,nan,nan,nan,nan,nan,880.5128337151837,1025.1682210243307,nan,1025.7026948663406,nan,nan,nan,nan
1,85,1,1,1.0,1.0,0.4053270108997822,0,0.0,0.0,0.0,0.48354578604240245,0.12209011401751083,0.3614556720248916,0.6056359000599133,0.12209011401751083,0.4357936965922515,0,5,6,4,3,8,nan,nan,nan,nan,nan,nan,nan,nan,nan,nan,nan,nan,0.0,nan,nan,nan,nan,nan,nan,nan,nan,nan,nan,nan,nan,nan,nan,nan,nan,nan,nan,880.5128337151837,1026.193364728475,nan,1026.5986917393748,nan,nan,nan,nan
1,86,1,1,1.0,1.0,0.4278150210157037,0,0.0,0.0,0.0,0.482603391161166,0.12165208791248812,0.3609513032486779,0.6042554790736542,0.12165208791248812,0.4558719579751293,8,6,7,3,1,0,nan,nan,nan,nan,nan,nan,nan,nan,nan,nan,nan,nan,0.0,nan,nan,nan,nan,nan,nan,nan,nan,nan,nan,nan,nan,nan,nan,nan,nan,nan,nan,880.5128337151837,1027.226839584764,nan,1027.6546546057798,nan,nan,nan,nan
1,87,1,1,1.0,1.0,0.41868587769567966,0,0.0,0.0,0.0,0.48195114865943434,0.12107171040915266,0.3608794382502817,0.603022859068587,0.12107171040915266,0.4172759698703885,3,2,8,1,0,6,nan,nan,nan,nan,nan,nan,nan,nan,nan,nan,nan,nan,0.0,nan,nan,nan,nan,nan,nan,nan,nan,nan,nan,nan,nan,nan,nan,nan,nan,nan,nan,880.5128337151837,1028.2519673232455,nan,1028.6706532009412,nan,nan,nan,nan
1,88,1,1,1.0,1.0,0.4498403163161129,0,0.0,0.0,0.0,0.4812068513539784,0.12055057847455901,0.36065627287941937,0.6017574298285374,0.12055057847455901,0.4321137383424987,1,7,4,0,6,2,nan,nan,nan,nan,nan,nan,nan,nan,nan,nan,nan,nan,0.0,nan,nan,nan,nan,nan,nan,nan,nan,nan,nan,nan,nan,nan,nan,nan,nan,nan,nan,880.5128337151837,1029.2687855768017,nan,1029.7186258931179,nan,nan,nan,nan
1,89,1,1,1.0,1.0,0.4647173334378749,0,0.0,0.0,0.0,0.4808421242023753,0.11989481760383647,0.36094730659853885,0.6007369418062118,0.11989481760383647,0.44441450914988917,7,6,0,4,2,5,nan,nan,nan,nan,nan,nan,nan,nan,nan,nan,nan,nan,0.0,nan,nan,nan,nan,nan,nan,nan,nan,nan,nan,nan,nan,nan,nan,nan,nan,nan,nan,880.5128337151837,1030.2939061876386,nan,1030.7586235210765,nan,nan,nan,nan
1,90,1,1,1.0,1.0,0.4875614314805716,0,0.0,0.0,0.0,0.4806567817797949,0.11921616641218442,0.36144061536761046,0.5998729481919793,0.11921616641218442,0.46737302707818645,6,4,5,0,1,7,nan,nan,nan,nan,nan,nan,nan,nan,nan,nan,nan,nan,0.0,nan,nan,nan,nan,nan,nan,nan,nan,nan,nan,nan,nan,nan,nan,nan,nan,nan,nan,880.5128337151837,1031.3190464705694,nan,1031.80660790205,nan,nan,nan,nan
1,91,0,0,0.0,1.0,0.5173325715586543,0,0.0,0.0,0.0,0.4807352437082128,0.11853912566086354,0.36219611804734925,0.5992743693690763,0.11853912566086354,0.48987044549236697,1,3,2,5,6,8,nan,nan,nan,nan,nan,nan,nan,nan,nan,nan,nan,nan,0.0,nan,nan,nan,nan,nan,nan,nan,nan,nan,nan,nan,nan,nan,nan,nan,nan,nan,nan,880.5128337151837,1032.3532377795782,nan,1032.8705703511368,nan,nan,nan,nan
1,92,1,1,1.0,1.0,0.5169191784225404,0,0.0,0.0,0.0,0.4811464496391166,0.11793439686854003,0.3632120527705766,0.5990808465076567,0.11793439686854003,0.5072710604872555,6,2,0,7,5,3,nan,nan,nan,nan,nan,nan,nan,nan,nan,nan,nan,nan,0.0,nan,nan,nan,nan,nan,nan,nan,nan,nan,nan,nan,nan,nan,nan,nan,nan,nan,nan,880.5128337151837,1033.3776516311336,nan,1033.8945708095562,nan,nan,nan,nan
1,93,1,1,1.0,1.0,0.619788468349725,0,0.0,0.0,0.0,0.4815439244033769,0.11733730695118492,0.36420661745219196,0.5988812313545618,0.11733730695118492,0.5513467394436399,4,5,8,1,0,7,nan,nan,nan,nan,nan,nan,nan,nan,nan,nan,nan,nan,0.0,nan,nan,nan,nan,nan,nan,nan,nan,nan,nan,nan,nan,nan,nan,nan,nan,nan,nan,880.5128337151837,1034.4027639741544,nan,1035.022552442504,nan,nan,nan,nan
1,94,1,1,1.0,1.0,0.6986136792693287,1,0.0,1.0,1.0,0.4830630952159741,0.11757744518536356,0.36548565003061056,0.6006405404013377,0.11757744518536356,0.611773775347198,5,0,7,4,6,1,1.0,1.0,1.0,1.0,1.0,1.0,0.0,1.0,1.0,0.0,0.0,0.0,2.0,6.0,0.0,7.0,1.0,1.0,5.0,3.0,2.0,1.0,6.0,5.0,4.0,4.015760252717882,2.1262239997740835,0.8645656039007008,9.701672217575833,7.118522345321253,5.205806717975065,880.5128337151837,1035.4279136653058,1036.236347339116,1036.1265273445752,1046.9877832382917,1047.9983395854943,1037.2448199002538,1046.9794512307271
1,95,1,1,1.0,1.0,0.3130385868716985,0,0.0,0.0,0.0,0.4854060363469888,0.11905344493314811,0.3663525914138407,0.6044594812801369,0.11905344493314811,0.5438135781635841,7,8,4,0,2,3,nan,nan,nan,nan,nan,nan,nan,nan,nan,nan,nan,nan,0.0,nan,nan,nan,nan,nan,nan,nan,nan,nan,nan,nan,nan,nan,nan,nan,nan,nan,nan,880.5128337151837,1048.2213149433956,nan,1048.5343535302673,nan,nan,nan,nan
1,96,1,1,1.0,1.0,0.3678881430532783,0,0.0,0.0,0.0,0.48355262291177065,0.11973867434863099,0.36381394856313964,0.6032912972604016,0.11973867434863099,0.4598468030647685,3,5,8,7,4,0,nan,nan,nan,nan,nan,nan,nan,nan,nan,nan,nan,nan,0.0,nan,nan,nan,nan,nan,nan,nan,nan,nan,nan,nan,nan,nan,nan,nan,nan,nan,nan,880.5128337151837,1049.246442681877,nan,1049.6143308249302,nan,nan,nan,nan
1,97,1,1,1.0,1.0,0.6387332724407315,0,0.0,0.0,0.0,0.4823221497217867,0.11968973686395105,0.36263241285783565,0.6020118865857378,0.11968973686395105,0.43988666745523614,6,0,3,1,2,4,nan,nan,nan,nan,nan,nan,nan,nan,nan,nan,nan,nan,0.0,nan,nan,nan,nan,nan,nan,nan,nan,nan,nan,nan,nan,nan,nan,nan,nan,nan,nan,880.5128337151837,1050.2715786881745,nan,1050.9103119606152,nan,nan,nan,nan
1,98,0,0,0.0,1.0,0.7899165174458176,0,0.0,0.0,0.0,0.4839685825925124,0.12012346417394777,0.36384511841856465,0.6040920467664602,0.12012346417394777,0.5988459776466092,8,4,5,0,6,2,nan,nan,nan,nan,nan,nan,nan,nan,nan,nan,nan,nan,0.0,nan,nan,nan,nan,nan,nan,nan,nan,nan,nan,nan,nan,nan,nan,nan,nan,nan,nan,880.5128337151837,1051.2883789804764,nan,1052.0782954979222,nan,nan,nan,nan
1,99,1,1,1.0,1.0,0.7167565012350678,1,0.0,1.0,1.0,0.48715554024723434,0.12346750276798961,0.3636880374792447,0.610623043015224,0.12346750276798961,0.7151354303738723,0,1,6,4,2,7,1.0,1.0,1.0,1.0,1.0,1.0,1.0,1.0,1.0,0.0,0.0,0.0,3.0,0.0,1.0,6.0,3.0,8.0,5.0,3.0,2.0,1.0,6.0,5.0,4.0,2.7198181755375117,1.8731992456596345,1.00204814854078,6.687758833868429,5.399982552044094,4.033052625134587,880.5128337151837,1052.3135189781897,1053.1219421033747,1053.0302754794247,1060.8646417250857,1061.866537346039,1054.1387446764857,1060.856303730514
1,100,1,1,1.0,1.0,0.4683104313444346,0,0.0,0.0,0.0,0.48952256046360376,0.12499973848168432,0.36452282198191943,0.6145222989452881,0.12499973848168432,0.6583278166751066,2,0,8,7,1,4,nan,nan,nan,nan,nan,nan,nan,nan,nan,nan,nan,nan,0.0,nan,nan,nan,nan,nan,nan,nan,nan,nan,nan,nan,nan,nan,nan,nan,nan,nan,nan,880.5128337151837,1062.0898294483777,nan,1062.5581398797221,nan,nan,nan,nan
1,101,1,1,1.0,1.0,0.5791852907277644,0,0.0,0.0,0.0,0.4893061101664694,0.12437861967812913,0.3649274904883403,0.6136847298445985,0.12437861967812913,0.5880840744357556,4,3,1,2,6,7,nan,nan,nan,nan,nan,nan,nan,nan,nan,nan,nan,nan,0.0,nan,nan,nan,nan,nan,nan,nan,nan,nan,nan,nan,nan,nan,nan,nan,nan,nan,nan,880.5128337151837,1063.1149326681625,nan,1063.6941179588903,nan,nan,nan,nan
1,102,1,1,nan,nan,nan,0,0.0,0.0,0.0,0.0,0.0,0.0,0.0,0.0,0.0,0,8,6,7,1,2,nan,nan,nan,nan,nan,nan,nan,nan,nan,nan,nan,nan,0.0,nan,nan,nan,nan,nan,nan,nan,nan,nan,nan,nan,nan,nan,nan,nan,nan,nan,nan,880.5128337151837,1064.1401034565642,nan,nan,nan,nan,nan,nan
1,103,1,1,nan,nan,nan,0,0.0,0.0,0.0,0.0,0.0,0.0,0.0,0.0,0.0,3,0,2,1,4,6,nan,nan,nan,nan,nan,nan,nan,nan,nan,nan,nan,nan,0.0,nan,nan,nan,nan,nan,nan,nan,nan,nan,nan,nan,nan,nan,nan,nan,nan,nan,nan,880.5128337151837,1065.165236897068,nan,nan,nan,nan,nan,nan
1,104,1,1,nan,nan,nan,0,0.0,0.0,0.0,0.0,0.0,0.0,0.0,0.0,0.0,2,4,8,0,1,7,nan,nan,nan,nan,nan,nan,nan,nan,nan,nan,nan,nan,0.0,nan,nan,nan,nan,nan,nan,nan,nan,nan,nan,nan,nan,nan,nan,nan,nan,nan,nan,880.5128337151837,1066.1903882985935,nan,nan,nan,nan,nan,nan
1,105,0,0,nan,nan,nan,0,0.0,0.0,0.0,0.0,0.0,0.0,0.0,0.0,0.0,4,1,2,5,0,8,nan,nan,nan,nan,nan,nan,nan,nan,nan,nan,nan,nan,0.0,nan,nan,nan,nan,nan,nan,nan,nan,nan,nan,nan,nan,nan,nan,nan,nan,nan,nan,880.5128337151837,1067.2155177476816,nan,nan,nan,nan,nan,nan
1,106,1,1,0.0,0.0,0.11740760947577655,1,1.0,0.0,1.0,0.4902139806771896,0.12407478559721152,0.36613919507997805,0.6142887662744011,0.12407478559721152,0.11740760947577655,3,8,5,7,6,1,1.0,1.0,1.0,1.0,1.0,1.0,0.0,1.0,1.0,1.0,0.0,0.0,3.0,6.0,8.0,5.0,7.0,4.0,2.0,3.0,2.0,1.0,6.0,5.0,4.0,3.1215629221405834,2.080439154524356,1.0745464509818703,6.912146570393816,5.96852511074394,4.497476877178997,880.5128337151837,1068.2406506179832,1069.049076308962,1068.358058227459,1077.0167928799056,1078.0279302580748,1070.0658783118706,1077.0084717059508
1,107,1,1,1.0,1.0,0.2595412533264607,0,0.0,0.0,0.0,0.4864859169651754,0.12890521456413967,0.35758070240103573,0.615391131529315,0.12890521456413967,0.18847443140111864,6,5,2,1,4,8,nan,nan,nan,nan,nan,nan,nan,nan,nan,nan,nan,nan,0.0,nan,nan,nan,nan,nan,nan,nan,nan,nan,nan,nan,nan,nan,nan,nan,nan,nan,nan,880.5128337151837,1078.2503242997918,nan,1078.5098655531183,nan,nan,nan,nan
1,108,1,1,1.0,1.0,0.48242452437989414,0,0.0,0.0,0.0,0.4842389400974654,0.1302187563533426,0.3540201837441228,0.6144576964508079,0.1302187563533426,0.2864577957273771,3,7,6,0,1,4,nan,nan,nan,nan,nan,nan,nan,nan,nan,nan,nan,nan,0.0,nan,nan,nan,nan,nan,nan,nan,nan,nan,nan,nan,nan,nan,nan,nan,nan,nan,nan,880.5128337151837,1079.2754688588902,nan,1079.7578933832701,nan,nan,nan,nan
1,109,1,1,1.0,1.0,0.47326630097813904,0,0.0,0.0,0.0,0.48422115170807745,0.12957898019128594,0.3546421715167915,0.6138001318993633,0.12957898019128594,0.405077359561498,1,2,7,4,3,6,nan,nan,nan,nan,nan,nan,nan,nan,nan,nan,nan,nan,0.0,nan,nan,nan,nan,nan,nan,nan,nan,nan,nan,nan,nan,nan,nan,nan,nan,nan,nan,880.5128337151837,1080.3006057206076,nan,1080.7738720215857,nan,nan,nan,nan
1,110,1,1,1.0,1.0,0.520158754196018,0,0.0,0.0,0.0,0.48411479393400036,0.12895289568898588,0.3551618982450145,0.6130676896229863,0.12895289568898588,0.49194985985135037,6,3,0,8,4,1,nan,nan,nan,nan,nan,nan,nan,nan,nan,nan,nan,nan,0.0,nan,nan,nan,nan,nan,nan,nan,nan,nan,nan,nan,nan,nan,nan,nan,nan,nan,nan,880.5128337151837,1081.3257032386027,nan,1081.8458619927987,nan,nan,nan,nan
1,111,1,1,1.0,1.0,0.5112947528250515,0,0.0,0.0,0.0,0.4844613704749813,0.1283796261115937,0.3560817443633876,0.612840996586575,0.1283796261115937,0.5015732693330696,0,6,5,7,8,2,nan,nan,nan,nan,nan,nan,nan,nan,nan,nan,nan,nan,0.0,nan,nan,nan,nan,nan,nan,nan,nan,nan,nan,nan,nan,nan,nan,nan,nan,nan,nan,880.5128337151837,1082.342549716821,nan,1082.853844469646,nan,nan,nan,nan
1,112,1,1,1.0,1.0,0.7261613351292908,0,0.0,0.0,0.0,0.4847169264973629,0.12779340942218512,0.3569235170751778,0.6125103359195481,0.12779340942218512,0.5858716140501201,1,7,6,8,5,3,nan,nan,nan,nan,nan,nan,nan,nan,nan,nan,nan,nan,0.0,nan,nan,nan,nan,nan,nan,nan,nan,nan,nan,nan,nan,nan,nan,nan,nan,nan,nan,880.5128337151837,1083.367670898093,nan,1084.0938322332222,nan,nan,nan,nan
1,113,1,1,nan,nan,nan,0,0.0,0.0,0.0,0.0,0.0,0.0,0.0,0.0,0.0,4,8,1,3,6,7,nan,nan,nan,nan,nan,nan,nan,nan,nan,nan,nan,nan,0.0,nan,nan,nan,nan,nan,nan,nan,nan,nan,nan,nan,nan,nan,nan,nan,nan,nan,nan,880.5128337151837,1084.3928134615999,nan,nan,nan,nan,nan,nan
1,114,1,1,nan,nan,nan,0,0.0,0.0,0.0,0.0,0.0,0.0,0.0,0.0,0.0,8,5,4,6,3,2,nan,nan,nan,nan,nan,nan,nan,nan,nan,nan,nan,nan,0.0,nan,nan,nan,nan,nan,nan,nan,nan,nan,nan,nan,nan,nan,nan,nan,nan,nan,nan,880.5128337151837,1085.4180327167269,nan,nan,nan,nan,nan,nan
1,115,1,1,nan,nan,nan,0,0.0,0.0,0.0,0.0,0.0,0.0,0.0,0.0,0.0,3,7,6,5,1,0,nan,nan,nan,nan,nan,nan,nan,nan,nan,nan,nan,nan,0.0,nan,nan,nan,nan,nan,nan,nan,nan,nan,nan,nan,nan,nan,nan,nan,nan,nan,nan,880.5128337151837,1086.443090035813,nan,nan,nan,nan,nan,nan
1,116,1,1,1.0,1.0,0.03355382848531008,1,1.0,0.0,1.0,0.4869947039372868,0.1293130169163911,0.35768168702089564,0.6163077208536779,0.1293130169163911,0.03355382848531008,4,0,3,1,8,2,1.0,1.0,1.0,1.0,1.0,1.0,0.0,0.0,0.0,0.0,0.0,0.0,0.0,7.0,8.0,6.0,7.0,4.0,1.0,3.0,2.0,1.0,6.0,5.0,4.0,4.53282141010277,2.703234273009002,1.0131410514004529,10.124502003891394,8.668590512126684,6.973354966612533,880.5128337151837,1087.4682251869235,1088.2766443206929,1087.5017790154088,1099.4448046190664,1100.4448051892687,1089.2851177372504,1099.436469475273
1,117,0,0,0.0,1.0,0.5595807682257146,0,0.0,0.0,0.0,0.4827569387461468,0.13590141506688413,0.34685552367926265,0.6186583538130309,0.13590141506688413,0.2965672983555123,0,4,1,7,6,5,nan,nan,nan,nan,nan,nan,nan,nan,nan,nan,nan,nan,0.0,nan,nan,nan,nan,nan,nan,nan,nan,nan,nan,nan,nan,nan,nan,nan,nan,nan,nan,880.5128337151837,1100.669992057141,nan,1101.2295728253666,nan,nan,nan,nan
1,118,1,1,nan,nan,nan,0,0.0,0.0,0.0,0.0,0.0,0.0,0.0,0.0,0.0,3,0,6,8,1,4,nan,nan,nan,nan,nan,nan,nan,nan,nan,nan,nan,nan,0.0,nan,nan,nan,nan,nan,nan,nan,nan,nan,nan,nan,nan,nan,nan,nan,nan,nan,nan,880.5128337151837,1101.6951326250564,nan,nan,nan,nan,nan,nan
1,119,1,1,1.0,1.0,0.5332921082153916,0,0.0,0.0,0.0,0.4834682705005872,0.13547075253519847,0.34799751796538875,0.6189390230357856,0.13547075253519847,0.5464364382205531,7,2,4,6,5,1,nan,nan,nan,nan,nan,nan,nan,nan,nan,nan,nan,nan,0.0,nan,nan,nan,nan,nan,nan,nan,nan,nan,nan,nan,nan,nan,nan,nan,nan,nan,nan,880.5128337151837,1102.7202204496134,nan,1103.2535125578288,nan,nan,nan,nan
1,120,1,1,1.0,1.0,0.44412038242444396,0,0.0,0.0,0.0,0.4839253699291634,0.13493153948610365,0.34899383044305976,0.618856909415267,0.13493153948610365,0.4887062453199178,2,8,1,0,7,5,nan,nan,nan,nan,nan,nan,nan,nan,nan,nan,nan,nan,0.0,nan,nan,nan,nan,nan,nan,nan,nan,nan,nan,nan,nan,nan,nan,nan,nan,nan,nan,880.5128337151837,1103.74541347567,nan,1104.1895338580944,nan,nan,nan,nan
1,121,1,1,1.0,1.0,0.4829456848092377,0,0.0,0.0,0.0,0.48356350640639323,0.1343699354563246,0.34919357095006864,0.6179334418627178,0.1343699354563246,0.4867860584830244,0,1,4,2,3,8,nan,nan,nan,nan,nan,nan,nan,nan,nan,nan,nan,nan,0.0,nan,nan,nan,nan,nan,nan,nan,nan,nan,nan,nan,nan,nan,nan,nan,nan,nan,nan,880.5128337151837,1104.770558890188,nan,1105.2535045749974,nan,nan,nan,nan
1,122,1,1,1.0,1.0,0.5701413918286562,0,0.0,0.0,0.0,0.4835579404460585,0.13376330881882534,0.3497946316272331,0.6173212492648839,0.13376330881882534,0.4990691530207793,4,7,6,3,5,2,nan,nan,nan,nan,nan,nan,nan,nan,nan,nan,nan,nan,0.0,nan,nan,nan,nan,nan,nan,nan,nan,nan,nan,nan,nan,nan,nan,nan,nan,nan,nan,880.5128337151837,1105.7873480638955,nan,1106.3574894557241,nan,nan,nan,nan
1,123,1,1,1.0,1.0,0.7450000825338066,0,0.0,0.0,0.0,0.48433100697626025,0.13341365882863282,0.35091734814762743,0.6177446658048931,0.13341365882863282,0.5993623863905668,3,0,5,2,6,8,nan,nan,nan,nan,nan,nan,nan,nan,nan,nan,nan,nan,0.0,nan,nan,nan,nan,nan,nan,nan,nan,nan,nan,nan,nan,nan,nan,nan,nan,nan,nan,880.5128337151837,1106.8124806489795,nan,1107.5574807315134,nan,nan,nan,nan
1,124,1,1,1.0,1.0,0.7841766264755279,1,0.0,1.0,1.0,0.48663781295464564,0.1350469581562181,0.35159085479842755,0.6216847711108637,0.1350469581562181,0.6997727002793303,0,1,2,8,5,3,1.0,1.0,1.0,1.0,1.0,1.0,1.0,1.0,1.0,0.0,1.0,0.0,4.0,0.0,1.0,2.0,3.0,5.0,8.0,3.0,2.0,1.0,6.0,5.0,4.0,3.0985643002204597,2.14857117109932,1.098797510843724,9.258707054890692,7.779532654909417,6.011993814492598,880.5128337151837,1107.8292900645174,1108.6377000750508,1108.613466690993,1118.9640724400524,1119.9600958842784,1109.6628480555955,1118.955750125926
1,125,1,1,nan,nan,nan,0,0.0,0.0,0.0,0.0,0.0,0.0,0.0,0.0,0.0,2,0,7,4,1,8,nan,nan,nan,nan,nan,nan,nan,nan,nan,nan,nan,nan,0.0,nan,nan,nan,nan,nan,nan,nan,nan,nan,nan,nan,nan,nan,nan,nan,nan,nan,nan,880.5128337151837,1120.180934997974,nan,nan,nan,nan,nan,nan
1,126,0,0,1.0,0.0,0.023527479963377118,0,0.0,0.0,0.0,0.48924780254693406,0.13728606051265985,0.3519617420342742,0.6265338630595939,0.13728606051265985,0.4038520532194525,3,2,8,5,6,1,nan,nan,nan,nan,nan,nan,nan,nan,nan,nan,nan,nan,0.0,nan,nan,nan,nan,nan,nan,nan,nan,nan,nan,nan,nan,nan,nan,nan,nan,nan,nan,880.5128337151837,1121.1977512559388,nan,1121.2212787359022,nan,nan,nan,nan
1,127,1,1,1.0,1.0,0.4783359249122441,1,1.0,0.0,1.0,0.4851980606114249,0.14336393599660716,0.34183412461481777,0.628561996608032,0.14336393599660716,0.2509317024378106,7,4,1,6,0,5,1.0,1.0,1.0,1.0,1.0,1.0,1.0,1.0,1.0,0.0,0.0,0.0,3.0,7.0,4.0,1.0,0.0,5.0,8.0,3.0,2.0,1.0,6.0,5.0,4.0,2.674779718508944,1.8828472688328475,1.0349778963718563,6.497053505619988,5.282007311237976,4.474706904496998,880.5128337151837,1122.2228718670085,1123.031294706976,1122.7012077919208,1130.5823042697739,1131.5819570196327,1124.048104122514,1130.5739677005913
1,128,1,1,1.0,1.0,0.3576168946456164,0,0.0,0.0,0.0,0.4851389042691906,0.14274606008144694,0.34239284418774363,0.6278849643506376,0.14274606008144694,0.28649343317374587,8,1,4,2,3,6,nan,nan,nan,nan,nan,nan,nan,nan,nan,nan,nan,nan,0.0,nan,nan,nan,nan,nan,nan,nan,nan,nan,nan,nan,nan,nan,nan,nan,nan,nan,nan,880.5128337151837,1131.8074948440772,nan,1132.1651117387228,nan,nan,nan,nan
1,129,0,0,0.0,1.0,0.4927850088570267,0,0.0,0.0,0.0,0.48404897256300616,0.14261866081359895,0.3414303117494072,0.6266676333766051,0.14261866081359895,0.4429126094716291,0,8,3,6,4,2,nan,nan,nan,nan,nan,nan,nan,nan,nan,nan,nan,nan,0.0,nan,nan,nan,nan,nan,nan,nan,nan,nan,nan,nan,nan,nan,nan,nan,nan,nan,nan,880.5128337151837,1132.8243008384015,nan,1133.3170858472586,nan,nan,nan,nan
1,130,1,1,1.0,1.0,0.5316459485329688,0,0.0,0.0,0.0,0.4841230067688877,0.14201531648714996,0.3421076902817377,0.6261383232560377,0.14201531648714996,0.46068261734520394,3,4,5,8,1,6,nan,nan,nan,nan,nan,nan,nan,nan,nan,nan,nan,nan,0.0,nan,nan,nan,nan,nan,nan,nan,nan,nan,nan,nan,nan,nan,nan,nan,nan,nan,nan,880.5128337151837,1133.8494174580555,nan,1134.3810634065885,nan,nan,nan,nan
1,131,1,1,1.0,1.0,0.5464884685352445,0,0.0,0.0,0.0,0.4845223592206867,0.14148387577430496,0.34303848344638177,0.6260062349949916,0.14148387577430496,0.5236398086417466,7,2,6,5,0,8,nan,nan,nan,nan,nan,nan,nan,nan,nan,nan,nan,nan,0.0,nan,nan,nan,nan,nan,nan,nan,nan,nan,nan,nan,nan,nan,nan,nan,nan,nan,nan,880.5128337151837,1134.8745577407535,nan,1135.4210462092888,nan,nan,nan,nan
1,132,1,1,1.0,1.0,0.6656645450275391,0,0.0,0.0,0.0,0.48503874346497466,0.1410056903630491,0.34403305310192556,0.6260444338280238,0.1410056903630491,0.5812663206985841,1,4,3,6,5,2,nan,nan,nan,nan,nan,nan,nan,nan,nan,nan,nan,nan,0.0,nan,nan,nan,nan,nan,nan,nan,nan,nan,nan,nan,nan,nan,nan,nan,nan,nan,nan,880.5128337151837,1135.8913782751188,nan,1136.5570428201463,nan,nan,nan,nan
1,133,1,1,1.0,1.0,0.7924986556172371,1,0.0,1.0,1.0,0.4865315186845,0.14137075726703216,0.3451607614174679,0.6279022759515321,0.14137075726703216,0.6682172230600069,4,1,6,8,3,7,1.0,1.0,1.0,1.0,1.0,1.0,1.0,1.0,1.0,0.0,0.0,0.0,3.0,4.0,1.0,6.0,3.0,8.0,2.0,3.0,2.0,1.0,6.0,5.0,4.0,2.660864054225385,1.7252778145484626,0.7970519661903381,6.8434369440656155,5.740123755764216,4.580027187010273,880.5128337151837,1136.9165134262294,1137.7249200155493,1137.7090120818466,1145.6260372600518,1146.6357710978482,1138.74173940951,1145.617649943335
1,134,1,1,1.0,1.0,0.5213889549486339,0,0.0,0.0,0.0,0.4890394460364077,0.14346751382358955,0.3455719322128181,0.6325069598599973,0.14346751382358955,0.6598507185311367,8,4,3,6,2,5,nan,nan,nan,nan,nan,nan,nan,nan,nan,nan,nan,nan,0.0,nan,nan,nan,nan,nan,nan,nan,nan,nan,nan,nan,nan,nan,nan,nan,nan,nan,nan,880.5128337151837,1146.8595053881872,nan,1147.3808943431359,nan,nan,nan,nan
1,135,0,0,0.0,1.0,0.5442287768237293,0,0.0,0.0,0.0,0.48930245017390545,0.14291265000715292,0.3463898001667525,0.6322151001810583,0.14291265000715292,0.6193721291298667,3,5,7,1,6,0,nan,nan,nan,nan,nan,nan,nan,nan,nan,nan,nan,nan,0.0,nan,nan,nan,nan,nan,nan,nan,nan,nan,nan,nan,nan,nan,nan,nan,nan,nan,nan,880.5128337151837,1147.8846470962744,nan,1148.4288758730981,nan,nan,nan,nan
1,136,1,1,1.0,1.0,0.35907289339229465,0,0.0,0.0,0.0,0.48974540442108144,0.14241997503844075,0.34732542938264066,0.6321653794595222,0.14241997503844075,0.4748968750548859,2,7,4,5,8,6,nan,nan,nan,nan,nan,nan,nan,nan,nan,nan,nan,nan,0.0,nan,nan,nan,nan,nan,nan,nan,nan,nan,nan,nan,nan,nan,nan,nan,nan,nan,nan,880.5128337151837,1148.909784528194,nan,1149.2688574215863,nan,nan,nan,nan
1,137,1,1,1.0,1.0,0.3899382420349866,0,0.0,0.0,0.0,0.48870002433285115,0.14232600365783538,0.34637402067501577,0.6310260279906865,0.14232600365783538,0.4310799707503368,1,6,5,7,3,8,nan,nan,nan,nan,nan,nan,nan,nan,nan,nan,nan,nan,0.0,nan,nan,nan,nan,nan,nan,nan,nan,nan,nan,nan,nan,nan,nan,nan,nan,nan,nan,880.5128337151837,1149.9349074198399,nan,1150.3248456618749,nan,nan,nan,nan
1,138,1,1,1.0,1.0,0.3807543597649783,0,0.0,0.0,0.0,0.4879162006638205,0.14203070572527732,0.3458854949385432,0.6299469063890979,0.14203070572527732,0.37658849839741987,8,3,4,0,1,2,nan,nan,nan,nan,nan,nan,nan,nan,nan,nan,nan,nan,0.0,nan,nan,nan,nan,nan,nan,nan,nan,nan,nan,nan,nan,nan,nan,nan,nan,nan,nan,880.5128337151837,1150.960059676785,nan,1151.34081403655,nan,nan,nan,nan
1,139,1,1,1.0,1.0,0.3796165310777724,0,0.0,0.0,0.0,0.487072406640995,0.1417871347321542,0.3452852719088408,0.6288595413731493,0.1417871347321542,0.38343637762591243,5,8,1,2,6,0,nan,nan,nan,nan,nan,nan,nan,nan,nan,nan,nan,nan,0.0,nan,nan,nan,nan,nan,nan,nan,nan,nan,nan,nan,nan,nan,nan,nan,nan,nan,nan,880.5128337151837,1151.985192261869,nan,1152.3648087929469,nan,nan,nan,nan
1,140,1,1,1.0,1.0,0.5147906320635229,0,0.0,0.0,0.0,0.4862329076131573,0.14154870755617327,0.344684200056984,0.6277816151693305,0.14154870755617327,0.42505384096875787,1,4,0,7,2,6,nan,nan,nan,nan,nan,nan,nan,nan,nan,nan,nan,nan,0.0,nan,nan,nan,nan,nan,nan,nan,nan,nan,nan,nan,nan,nan,nan,nan,nan,nan,nan,880.5128337151837,1153.002007664647,nan,1153.5167982967105,nan,nan,nan,nan
1,141,1,1,1.0,1.0,0.6579557629302144,0,0.0,0.0,0.0,0.48645428532207485,0.1410212449706837,0.34543304035139116,0.6274755302927586,0.1410212449706837,0.5174543086905032,8,1,4,2,7,5,nan,nan,nan,nan,nan,nan,nan,nan,nan,nan,nan,nan,0.0,nan,nan,nan,nan,nan,nan,nan,nan,nan,nan,nan,nan,nan,nan,nan,nan,nan,nan,880.5128337151837,1154.0188125185668,nan,1154.676768281497,nan,nan,nan,nan
1,142,1,1,nan,nan,nan,0,0.0,0.0,0.0,0.0,0.0,0.0,0.0,0.0,0.0,0,5,3,4,6,8,nan,nan,nan,nan,nan,nan,nan,nan,nan,nan,nan,nan,0.0,nan,nan,nan,nan,nan,nan,nan,nan,nan,nan,nan,nan,nan,nan,nan,nan,nan,nan,880.5128337151837,1155.0439368358348,nan,nan,nan,nan,nan,nan
1,143,1,1,nan,nan,nan,0,0.0,0.0,0.0,0.0,0.0,0.0,0.0,0.0,0.0,3,1,6,7,0,5,nan,nan,nan,nan,nan,nan,nan,nan,nan,nan,nan,nan,0.0,nan,nan,nan,nan,nan,nan,nan,nan,nan,nan,nan,nan,nan,nan,nan,nan,nan,nan,880.5128337151837,1156.0691731967963,nan,nan,nan,nan,nan,nan
1,144,1,1,nan,nan,nan,0,0.0,0.0,0.0,0.0,0.0,0.0,0.0,0.0,0.0,0,8,2,1,6,3,nan,nan,nan,nan,nan,nan,nan,nan,nan,nan,nan,nan,0.0,nan,nan,nan,nan,nan,nan,nan,nan,nan,nan,nan,nan,nan,nan,nan,nan,nan,nan,880.5128337151837,1157.0942105590366,nan,nan,nan,nan,nan,nan
1,145,1,1,nan,nan,nan,0,0.0,0.0,0.0,0.0,0.0,0.0,0.0,0.0,0.0,8,3,1,4,7,2,nan,nan,nan,nan,nan,nan,nan,nan,nan,nan,nan,nan,0.0,nan,nan,nan,nan,nan,nan,nan,nan,nan,nan,nan,nan,nan,nan,nan,nan,nan,nan,880.5128337151837,1158.119348846143,nan,nan,nan,nan,nan,nan
1,146,1,1,nan,nan,nan,0,0.0,0.0,0.0,0.0,0.0,0.0,0.0,0.0,0.0,4,5,7,2,8,6,nan,nan,nan,nan,nan,nan,nan,nan,nan,nan,nan,nan,0.0,nan,nan,nan,nan,nan,nan,nan,nan,nan,nan,nan,nan,nan,nan,nan,nan,nan,nan,880.5128337151837,1159.144486848032,nan,nan,nan,nan,nan,nan
1,147,1,1,nan,nan,nan,0,0.0,0.0,0.0,0.0,0.0,0.0,0.0,0.0,0.0,2,6,3,0,5,8,nan,nan,nan,nan,nan,nan,nan,nan,nan,nan,nan,nan,0.0,nan,nan,nan,nan,nan,nan,nan,nan,nan,nan,nan,nan,nan,nan,nan,nan,nan,nan,880.5128337151837,1160.1696185779292,nan,nan,nan,nan,nan,nan
1,148,1,1,nan,nan,nan,0,0.0,0.0,0.0,0.0,0.0,0.0,0.0,0.0,0.0,7,1,4,2,3,6,nan,nan,nan,nan,nan,nan,nan,nan,nan,nan,nan,nan,0.0,nan,nan,nan,nan,nan,nan,nan,nan,nan,nan,nan,nan,nan,nan,nan,nan,nan,nan,880.5128337151837,1161.2074705536943,nan,nan,nan,nan,nan,nan
1,149,1,1,1.0,1.0,0.008440630277618766,1,1.0,0.0,1.0,0.48777352745752206,0.14127464829499659,0.3464988791625255,0.6290481757525186,0.14127464829499659,0.008440630277618766,8,2,7,6,0,4,1.0,1.0,1.0,1.0,1.0,1.0,1.0,1.0,1.0,0.0,0.0,0.0,3.0,8.0,2.0,7.0,4.0,3.0,5.0,3.0,2.0,1.0,6.0,5.0,4.0,3.059260602341965,2.13996917498298,1.3096767037641257,9.611321609001607,7.27549280715175,5.067593465326354,880.5128337151837,1162.2282188918907,1163.0366787947714,1162.2366595221683,1173.7130681802519,1174.7153694964945,1164.0617931336164,1173.7047393086832
1,150,1,1,1.0,1.0,0.38619660725817084,0,0.0,0.0,0.0,0.4841144977080572,0.1467878602631211,0.3373266374449361,0.6309023579711783,0.1467878602631211,0.1973186187678948,0,7,3,1,8,5,nan,nan,nan,nan,nan,nan,nan,nan,nan,nan,nan,nan,0.0,nan,nan,nan,nan,nan,nan,nan,nan,nan,nan,nan,nan,nan,nan,nan,nan,nan,nan,880.5128337151837,1174.9382647415623,nan,1175.3244613488205,nan,nan,nan,nan
1,151,1,1,1.0,1.0,0.37709340802393854,0,0.0,0.0,0.0,0.48337269550767925,0.14647705951231782,0.33689563599536143,0.6298497550199971,0.14647705951231782,0.2572435485199094,3,6,7,8,2,1,nan,nan,nan,nan,nan,nan,nan,nan,nan,nan,nan,nan,0.0,nan,nan,nan,nan,nan,nan,nan,nan,nan,nan,nan,nan,nan,nan,nan,nan,nan,nan,880.5128337151837,1175.9633973266464,nan,1176.3404907346703,nan,nan,nan,nan
1,152,1,1,1.0,1.0,0.39189088251441717,0,0.0,0.0,0.0,0.48257360312058345,0.14621387628273963,0.3363597268378438,0.628787479403323,0.14621387628273963,0.38506029926550883,7,8,6,2,5,0,nan,nan,nan,nan,nan,nan,nan,nan,nan,nan,nan,nan,0.0,nan,nan,nan,nan,nan,nan,nan,nan,nan,nan,nan,nan,nan,nan,nan,nan,nan,nan,880.5128337151837,1176.9885367541574,nan,1177.3804276366718,nan,nan,nan,nan
1,153,1,1,1.0,1.0,0.5161588203627616,0,0.0,0.0,0.0,0.4818968663996419,0.14587620417678374,0.3360206622228582,0.6277730705764256,0.14587620417678374,0.4283810369670391,8,5,1,4,2,7,nan,nan,nan,nan,nan,nan,nan,nan,nan,nan,nan,nan,0.0,nan,nan,nan,nan,nan,nan,nan,nan,nan,nan,nan,nan,nan,nan,nan,nan,nan,nan,880.5128337151837,1178.024255336728,nan,1178.5404141570907,nan,nan,nan,nan
1,154,1,1,1.0,1.0,0.45324040250852704,0,0.0,0.0,0.0,0.4821506586512206,0.1453646081717358,0.3367860504794848,0.6275152668229564,0.1453646081717358,0.45376336846190196,4,1,6,0,8,3,nan,nan,nan,nan,nan,nan,nan,nan,nan,nan,nan,nan,0.0,nan,nan,nan,nan,nan,nan,nan,nan,nan,nan,nan,nan,nan,nan,nan,nan,nan,nan,880.5128337151837,1179.0471481869463,nan,1179.5003885894548,nan,nan,nan,nan
1,155,1,1,1.0,1.0,0.5321015361696482,0,0.0,0.0,0.0,0.48193808323840664,0.14485025264463314,0.3370878305937735,0.6267883358830397,0.14485025264463314,0.5005002530136456,3,0,1,2,6,7,nan,nan,nan,nan,nan,nan,nan,nan,nan,nan,nan,nan,0.0,nan,nan,nan,nan,nan,nan,nan,nan,nan,nan,nan,nan,nan,nan,nan,nan,nan,nan,880.5128337151837,1180.072290180251,nan,1180.6043917164207,nan,nan,nan,nan
1,156,1,1,1.0,1.0,0.6432483794633299,0,0.0,0.0,0.0,0.48230423982914566,0.14438379052358197,0.3379204493055637,0.6266880303527276,0.14438379052358197,0.5428634393805017,8,5,6,4,3,2,nan,nan,nan,nan,nan,nan,nan,nan,nan,nan,nan,nan,0.0,nan,nan,nan,nan,nan,nan,nan,nan,nan,nan,nan,nan,nan,nan,nan,nan,nan,nan,880.5128337151837,1181.0891226888634,nan,1181.7323710683268,nan,nan,nan,nan
1,157,0,0,0.0,1.0,0.6981050635222346,0,0.0,0.0,0.0,0.4834705017105528,0.14450591310813243,0.33896458860242035,0.6279764148186853,0.14450591310813243,0.6244849930517375,2,1,5,8,7,3,nan,nan,nan,nan,nan,nan,nan,nan,nan,nan,nan,nan,0.0,nan,nan,nan,nan,nan,nan,nan,nan,nan,nan,nan,nan,nan,nan,nan,nan,nan,nan,880.5128337151837,1182.1142373126931,nan,1182.8123423762154,nan,nan,nan,nan
1,158,1,1,1.0,1.0,0.6569656154606491,1,0.0,1.0,1.0,0.4850146352487663,0.14512328924012702,0.3398913460086393,0.6301379244888934,0.14512328924012702,0.6661063528154045,6,8,1,3,2,4,1.0,1.0,1.0,1.0,1.0,1.0,1.0,1.0,1.0,0.0,0.0,0.0,3.0,6.0,8.0,1.0,5.0,3.0,2.0,3.0,2.0,1.0,6.0,5.0,4.0,2.3730324630159885,1.5965540697798133,0.8281083304900676,8.628228813176975,6.052802833262831,3.9399354194756597,880.5128337151837,1183.1393607745413,1183.9477807637304,1183.796326390002,1193.6324103549123,1194.6363085086923,1184.9645953110885,1193.6240792027675
1,159,1,1,1.0,1.0,0.4105551496613771,0,0.0,0.0,0.0,0.48624285653599403,0.14532728698266834,0.3409155695533257,0.6315701435186624,0.14532728698266834,0.5885419428814203,3,5,0,2,1,7,nan,nan,nan,nan,nan,nan,nan,nan,nan,nan,nan,nan,0.0,nan,nan,nan,nan,nan,nan,nan,nan,nan,nan,nan,nan,nan,nan,nan,nan,nan,nan,880.5128337151837,1194.8576223116834,nan,1195.2681774613447,nan,nan,nan,nan
1,160,0,0,0.0,1.0,0.7374540918972343,0,0.0,0.0,0.0,0.4857060642886563,0.14495024453854802,0.34075581975010827,0.6306563088272044,0.14495024453854802,0.6016582856730869,5,8,4,7,0,6,nan,nan,nan,nan,nan,nan,nan,nan,nan,nan,nan,nan,0.0,nan,nan,nan,nan,nan,nan,nan,nan,nan,nan,nan,nan,nan,nan,nan,nan,nan,nan,880.5128337151837,1195.8827315187082,nan,1196.6201856106054,nan,nan,nan,nan
1,161,1,1,1.0,1.0,0.6561719009187073,0,0.0,0.0,0.0,0.48747893772251955,0.14596501607336565,0.3415139216491539,0.6334439537958851,0.14596501607336565,0.6013937141591063,3,5,2,0,4,7,nan,nan,nan,nan,nan,nan,nan,nan,nan,nan,nan,nan,0.0,nan,nan,nan,nan,nan,nan,nan,nan,nan,nan,nan,nan,nan,nan,nan,nan,nan,nan,880.5128337151837,1196.9079564756248,nan,1197.5641283765435,nan,nan,nan,nan
1,162,1,1,nan,nan,nan,0,0.0,0.0,0.0,0.0,0.0,0.0,0.0,0.0,0.0,7,8,6,1,0,5,nan,nan,nan,nan,nan,nan,nan,nan,nan,nan,nan,nan,0.0,nan,nan,nan,nan,nan,nan,nan,nan,nan,nan,nan,nan,nan,nan,nan,nan,nan,nan,880.5128337151837,1197.9330012504943,nan,nan,nan,nan,nan,nan
1,163,1,1,1.0,1.0,0.005974812200292945,1,1.0,0.0,1.0,0.48865860879382156,0.1461314647574745,0.3425271440363471,0.634790073551296,0.1461314647574745,0.3310733565595001,8,5,7,2,4,6,1.0,1.0,1.0,1.0,1.0,1.0,1.0,1.0,1.0,0.0,0.0,0.0,3.0,8.0,5.0,7.0,0.0,2.0,3.0,3.0,2.0,1.0,6.0,5.0,4.0,5.586695644073188,1.641356750158593,0.6733969901688397,8.872728262795135,7.49715157947503,6.410270336084068,880.5128337151837,1198.958130984567,1199.76656950498,1198.9641057967674,1209.6928985922132,1210.7040604888462,1200.7833737889305,1209.684564873809
1,164,1,1,1.0,1.0,0.405486096162349,0,0.0,0.0,0.0,0.4853066379841443,0.15103912341254347,0.33426751457160087,0.6363457613966877,0.15103912341254347,0.20573045418132097,0,2,4,8,1,3,nan,nan,nan,nan,nan,nan,nan,nan,nan,nan,nan,nan,0.0,nan,nan,nan,nan,nan,nan,nan,nan,nan,nan,nan,nan,nan,nan,nan,nan,nan,nan,880.5128337151837,1210.9264134762343,nan,1211.3318995723967,nan,nan,nan,nan
1,165,0,0,0.0,1.0,0.47633709851652384,0,0.0,0.0,0.0,0.48475615148882156,0.15066228501229925,0.3340938664765223,0.6354184365011208,0.15066228501229925,0.2959326689597219,3,7,1,6,0,5,nan,nan,nan,nan,nan,nan,nan,nan,nan,nan,nan,nan,0.0,nan,nan,nan,nan,nan,nan,nan,nan,nan,nan,nan,nan,nan,nan,nan,nan,nan,nan,880.5128337151837,1211.9515617417637,nan,1212.4278988402802,nan,nan,nan,nan
1,166,1,1,1.0,1.0,0.41916569881141186,0,0.0,0.0,0.0,0.484698486742436,0.15014703736520058,0.3345514493772354,0.6348455241076365,0.15014703736520058,0.43366296449676156,1,0,5,4,3,7,nan,nan,nan,nan,nan,nan,nan,nan,nan,nan,nan,nan,0.0,nan,nan,nan,nan,nan,nan,nan,nan,nan,nan,nan,nan,nan,nan,nan,nan,nan,nan,880.5128337151837,1212.9767197007313,nan,1213.3958853995427,nan,nan,nan,nan
1,167,0,0,1.0,0.0,0.6100503541529179,0,0.0,0.0,0.0,0.48425268546399364,0.14973238542007727,0.33452030004391636,0.6339850708840709,0.14973238542007727,0.5018510504936179,7,2,1,8,6,5,nan,nan,nan,nan,nan,nan,nan,nan,nan,nan,nan,nan,0.0,nan,nan,nan,nan,nan,nan,nan,nan,nan,nan,nan,nan,nan,nan,nan,nan,nan,nan,880.5128337151837,1214.0018328991719,nan,1214.6118832533248,nan,nan,nan,nan
1,168,1,1,1.0,1.0,0.6328916016500443,0,0.0,0.0,0.0,0.48510266971189175,0.14958110093935542,0.33552156877253636,0.6346837706512471,0.14958110093935542,0.554035884871458,1,7,5,6,2,0,nan,nan,nan,nan,nan,nan,nan,nan,nan,nan,nan,nan,0.0,nan,nan,nan,nan,nan,nan,nan,nan,nan,nan,nan,nan,nan,nan,nan,nan,nan,nan,880.5128337151837,1215.0269603524357,nan,1215.6598519540858,nan,nan,nan,nan
1,169,1,1,nan,nan,nan,0,0.0,0.0,0.0,0.0,0.0,0.0,0.0,0.0,0.0,6,8,3,0,4,7,nan,nan,nan,nan,nan,nan,nan,nan,nan,nan,nan,nan,0.0,nan,nan,nan,nan,nan,nan,nan,nan,nan,nan,nan,nan,nan,nan,nan,nan,nan,nan,880.5128337151837,1216.0521091881674,nan,nan,nan,nan,nan,nan
1,170,1,1,nan,nan,nan,0,0.0,0.0,0.0,0.0,0.0,0.0,0.0,0.0,0.0,0,2,6,8,1,5,nan,nan,nan,nan,nan,nan,nan,nan,nan,nan,nan,nan,0.0,nan,nan,nan,nan,nan,nan,nan,nan,nan,nan,nan,nan,nan,nan,nan,nan,nan,nan,880.5128337151837,1217.0772360714618,nan,nan,nan,nan,nan,nan
1,171,1,1,nan,nan,nan,0,0.0,0.0,0.0,0.0,0.0,0.0,0.0,0.0,0.0,8,7,1,6,3,4,nan,nan,nan,nan,nan,nan,nan,nan,nan,nan,nan,nan,0.0,nan,nan,nan,nan,nan,nan,nan,nan,nan,nan,nan,nan,nan,nan,nan,nan,nan,nan,880.5128337151837,1218.1023703671526,nan,nan,nan,nan,nan,nan
1,172,1,1,nan,nan,nan,0,0.0,0.0,0.0,0.0,0.0,0.0,0.0,0.0,0.0,4,2,0,3,5,8,nan,nan,nan,nan,nan,nan,nan,nan,nan,nan,nan,nan,0.0,nan,nan,nan,nan,nan,nan,nan,nan,nan,nan,nan,nan,nan,nan,nan,nan,nan,nan,880.5128337151837,1219.1275063734502,nan,nan,nan,nan,nan,nan
1,173,1,1,nan,nan,nan,0,0.0,0.0,0.0,0.0,0.0,0.0,0.0,0.0,0.0,2,8,1,5,0,6,nan,nan,nan,nan,nan,nan,nan,nan,nan,nan,nan,nan,0.0,nan,nan,nan,nan,nan,nan,nan,nan,nan,nan,nan,nan,nan,nan,nan,nan,nan,nan,880.5128337151837,1220.15264294995,nan,nan,nan,nan,nan,nan
1,174,1,1,nan,nan,nan,0,0.0,0.0,0.0,0.0,0.0,0.0,0.0,0.0,0.0,5,0,7,4,8,1,nan,nan,nan,nan,nan,nan,nan,nan,nan,nan,nan,nan,0.0,nan,nan,nan,nan,nan,nan,nan,nan,nan,nan,nan,nan,nan,nan,nan,nan,nan,nan,880.5128337151837,1221.177795206895,nan,nan,nan,nan,nan,nan
1,175,1,1,nan,nan,nan,0,0.0,0.0,0.0,0.0,0.0,0.0,0.0,0.0,0.0,6,2,1,8,0,4,nan,nan,nan,nan,nan,nan,nan,nan,nan,nan,nan,nan,0.0,nan,nan,nan,nan,nan,nan,nan,nan,nan,nan,nan,nan,nan,nan,nan,nan,nan,nan,880.5128337151837,1222.2028981416952,nan,nan,nan,nan,nan,nan
1,176,1,1,nan,nan,nan,0,0.0,0.0,0.0,0.0,0.0,0.0,0.0,0.0,0.0,7,6,0,2,5,8,nan,nan,nan,nan,nan,nan,nan,nan,nan,nan,nan,nan,0.0,nan,nan,nan,nan,nan,nan,nan,nan,nan,nan,nan,nan,nan,nan,nan,nan,nan,nan,880.5128337151837,1223.228155599907,nan,nan,nan,nan,nan,nan
1,177,1,1,nan,nan,nan,0,0.0,0.0,0.0,0.0,0.0,0.0,0.0,0.0,0.0,4,0,1,7,8,5,nan,nan,nan,nan,nan,nan,nan,nan,nan,nan,nan,nan,0.0,nan,nan,nan,nan,nan,nan,nan,nan,nan,nan,nan,nan,nan,nan,nan,nan,nan,nan,880.5128337151837,1224.2532006597612,nan,nan,nan,nan,nan,nan
1,178,1,1,1.0,1.0,0.07736522099003196,1,1.0,0.0,1.0,0.48609454173832234,0.14956585568685885,0.33652868605146347,0.6356603974251812,0.14956585568685885,0.07736522099003196,3,4,8,2,6,0,1.0,1.0,1.0,1.0,1.0,1.0,0.0,1.0,1.0,0.0,0.0,0.0,2.0,2.0,4.0,8.0,5.0,0.0,3.0,3.0,2.0,1.0,6.0,5.0,4.0,5.186727347085252,2.1222614138387144,1.0587388719432056,9.11272600479424,7.920901949517429,6.70446875016205,880.5128337151837,1225.278354627313,1226.0867592210416,1225.3557198483031,1236.2464512346778,1237.2548590786755,1227.0952332078014,1236.2381189421285
1,179,1,1,1.0,1.0,0.5955545140895993,0,0.0,0.0,0.0,0.4833696796000004,0.15273217865493463,0.3306375009450657,0.636101858254935,0.15273217865493463,0.3364598675398156,5,8,6,0,7,4,nan,nan,nan,nan,nan,nan,nan,nan,nan,nan,nan,nan,0.0,nan,nan,nan,nan,nan,nan,nan,nan,nan,nan,nan,nan,nan,nan,nan,nan,nan,nan,880.5128337151837,1237.4799749569502,nan,1238.0755294710398,nan,nan,nan,nan
1,180,1,1,1.0,1.0,0.5464015135075897,0,0.0,0.0,0.0,0.48411262552377254,0.15249730970000003,0.3316153158237725,0.6366099352237726,0.15249730970000003,0.4064404161957403,4,7,2,1,3,0,nan,nan,nan,nan,nan,nan,nan,nan,nan,nan,nan,nan,0.0,nan,nan,nan,nan,nan,nan,nan,nan,nan,nan,nan,nan,nan,nan,nan,nan,nan,nan,880.5128337151837,1238.5051163800526,nan,1239.0515178935602,nan,nan,nan,nan
1,181,1,1,1.0,1.0,0.5372472815215588,0,0.0,0.0,0.0,0.48452242083945557,0.15207823967144912,0.33244418116800645,0.6366006605109047,0.15207823967144912,0.5597344363729159,7,4,8,6,5,2,nan,nan,nan,nan,nan,nan,nan,nan,nan,nan,nan,nan,0.0,nan,nan,nan,nan,nan,nan,nan,nan,nan,nan,nan,nan,nan,nan,nan,nan,nan,nan,880.5128337151837,1239.530244118534,nan,1240.0674914000556,nan,nan,nan,nan
1,182,1,1,1.0,1.0,0.6564652672968805,0,0.0,0.0,0.0,0.48486702777201834,0.15163996685431894,0.3332270609176994,0.6365069946263373,0.15163996685431894,0.5800380207753429,8,0,7,1,6,5,nan,nan,nan,nan,nan,nan,nan,nan,nan,nan,nan,nan,0.0,nan,nan,nan,nan,nan,nan,nan,nan,nan,nan,nan,nan,nan,nan,nan,nan,nan,nan,880.5128337151837,1240.5470204625744,nan,1241.2034857298713,nan,nan,nan,nan
1,183,1,1,nan,nan,nan,0,0.0,0.0,0.0,0.0,0.0,0.0,0.0,0.0,0.0,5,2,0,3,7,1,nan,nan,nan,nan,nan,nan,nan,nan,nan,nan,nan,nan,0.0,nan,nan,nan,nan,nan,nan,nan,nan,nan,nan,nan,nan,nan,nan,nan,nan,nan,nan,880.5128337151837,1241.563864945434,nan,nan,nan,nan,nan,nan
1,184,1,1,nan,nan,nan,0,0.0,0.0,0.0,0.0,0.0,0.0,0.0,0.0,0.0,7,6,1,0,8,5,nan,nan,nan,nan,nan,nan,nan,nan,nan,nan,nan,nan,0.0,nan,nan,nan,nan,nan,nan,nan,nan,nan,nan,nan,nan,nan,nan,nan,nan,nan,nan,880.5128337151837,1242.588949633995,nan,nan,nan,nan,nan,nan
1,185,0,0,0.0,1.0,0.7816355424001813,0,0.0,0.0,0.0,0.4859813020546473,0.15177394158646165,0.33420736046818567,0.6377552436411089,0.15177394158646165,0.7816355424001813,1,3,8,4,7,2,nan,nan,nan,nan,nan,nan,nan,nan,nan,nan,nan,nan,0.0,nan,nan,nan,nan,nan,nan,nan,nan,nan,nan,nan,nan,nan,nan,nan,nan,nan,nan,880.5128337151837,1243.6058018142357,nan,1244.387437356636,nan,nan,nan,nan
1,186,1,1,1.0,1.0,0.7563897732179612,1,0.0,1.0,1.0,0.48788874876655397,0.15312420015239267,0.3347645486141613,0.6410129489189467,0.15312420015239267,0.7690126578090712,2,8,6,7,1,3,1.0,1.0,1.0,1.0,1.0,1.0,0.0,0.0,1.0,0.0,0.0,0.0,1.0,8.0,2.0,6.0,0.0,7.0,5.0,3.0,2.0,1.0,6.0,5.0,4.0,3.0169388502836227,2.015332319540903,0.8905295364093035,7.375216603744775,6.2956130732782185,4.367799192434177,880.5128337151837,1244.6310281967744,1245.4393492566887,1245.3874179699924,1253.8737665920053,1254.8826380062383,1246.4561586722266,1253.8654320184141
1,187,1,1,1.0,1.0,0.3758455312345177,0,0.0,0.0,0.0,0.48960990917970404,0.15412945921773719,0.33548044996196685,0.6437393683974413,0.15412945921773719,0.6379569489508867,4,0,5,2,7,6,nan,nan,nan,nan,nan,nan,nan,nan,nan,nan,nan,nan,0.0,nan,nan,nan,nan,nan,nan,nan,nan,nan,nan,nan,nan,nan,nan,nan,nan,nan,nan,880.5128337151837,1255.1074237404391,nan,1255.4832692716736,nan,nan,nan,nan
1,188,1,1,1.0,1.0,0.32674841000698507,0,0.0,0.0,0.0,0.4888852953074417,0.15390415516605388,0.3349811401413878,0.6427894504734956,0.15390415516605388,0.4863279048198213,5,2,6,3,8,0,nan,nan,nan,nan,nan,nan,nan,nan,nan,nan,nan,nan,0.0,nan,nan,nan,nan,nan,nan,nan,nan,nan,nan,nan,nan,nan,nan,nan,nan,nan,nan,880.5128337151837,1256.1325124204159,nan,1256.4592608304229,nan,nan,nan,nan
1,189,1,1,1.0,1.0,0.3496312820352614,0,0.0,0.0,0.0,0.48785911248908437,0.15395422542080103,0.33390488706828336,0.6418133379098854,0.15395422542080103,0.3507417410922547,7,3,8,4,0,1,nan,nan,nan,nan,nan,nan,nan,nan,nan,nan,nan,nan,0.0,nan,nan,nan,nan,nan,nan,nan,nan,nan,nan,nan,nan,nan,nan,nan,nan,nan,nan,880.5128337151837,1257.1576150699984,nan,1257.5072463520337,nan,nan,nan,nan
1,190,1,1,1.0,1.0,0.3804778140038252,0,0.0,0.0,0.0,0.4869897550648465,0.15385788428806838,0.3331318707767781,0.6408476393529149,0.15385788428806838,0.35228583534869057,3,6,1,5,4,2,nan,nan,nan,nan,nan,nan,nan,nan,nan,nan,nan,nan,0.0,nan,nan,nan,nan,nan,nan,nan,nan,nan,nan,nan,nan,nan,nan,nan,nan,nan,nan,880.5128337151837,1258.1827393872663,nan,1258.5632172012702,nan,nan,nan,nan
1,191,1,1,1.0,1.0,0.37933513848111033,0,0.0,0.0,0.0,0.4863240554332151,0.15360585538333082,0.3327182000498843,0.6399299108165459,0.15360585538333082,0.36981474484006566,6,8,4,2,7,3,nan,nan,nan,nan,nan,nan,nan,nan,nan,nan,nan,nan,0.0,nan,nan,nan,nan,nan,nan,nan,nan,nan,nan,nan,nan,nan,nan,nan,nan,nan,nan,880.5128337151837,1259.2078842318151,nan,1259.5872193702962,nan,nan,nan,nan
1,192,1,1,1.0,1.0,0.3785066418349743,0,0.0,0.0,0.0,0.48565952799872997,0.15335860909935806,0.3323009188993719,0.6390181370980881,0.15335860909935806,0.37943986477330327,4,7,0,1,2,8,nan,nan,nan,nan,nan,nan,nan,nan,nan,nan,nan,nan,0.0,nan,nan,nan,nan,nan,nan,nan,nan,nan,nan,nan,nan,nan,nan,nan,nan,nan,nan,880.5128337151837,1260.2246902261395,nan,1260.6031968679745,nan,nan,nan,nan
1,193,1,1,1.0,1.0,0.4413574915379286,0,0.0,0.0,0.0,0.4849980904298179,0.15311473561739516,0.3318833548124227,0.6381128260472131,0.15311473561739516,0.3997330906180044,0,2,4,6,3,5,nan,nan,nan,nan,nan,nan,nan,nan,nan,nan,nan,nan,0.0,nan,nan,nan,nan,nan,nan,nan,nan,nan,nan,nan,nan,nan,nan,nan,nan,nan,nan,880.5128337151837,1261.2498233814258,nan,1261.6911808729637,nan,nan,nan,nan
1,194,1,1,1.0,1.0,0.40853094938211143,0,0.0,0.0,0.0,0.4847303566942848,0.15268236856773645,0.33204798812654834,0.6374127252620213,0.15268236856773645,0.40946502758500475,7,4,5,2,1,6,nan,nan,nan,nan,nan,nan,nan,nan,nan,nan,nan,nan,0.0,nan,nan,nan,nan,nan,nan,nan,nan,nan,nan,nan,nan,nan,nan,nan,nan,nan,nan,880.5128337151837,1262.2666313715745,nan,1262.6751623209566,nan,nan,nan,nan
1,195,1,1,1.0,1.0,0.5353704770095646,0,0.0,0.0,0.0,0.48426572616189356,0.15233170580946204,0.3319340203524315,0.6365974319713557,0.15233170580946204,0.46175297264320153,0,8,2,3,4,7,nan,nan,nan,nan,nan,nan,nan,nan,nan,nan,nan,nan,0.0,nan,nan,nan,nan,nan,nan,nan,nan,nan,nan,nan,nan,nan,nan,nan,nan,nan,nan,880.5128337151837,1263.2917622460518,nan,1263.8271327230614,nan,nan,nan,nan
1,196,1,1,1.0,1.0,0.40623704600147903,0,0.0,0.0,0.0,0.4845754519246067,0.1519211804542643,0.33265427147034243,0.636496632378871,0.1519211804542643,0.45004615746438503,8,3,6,5,7,4,nan,nan,nan,nan,nan,nan,nan,nan,nan,nan,nan,nan,0.0,nan,nan,nan,nan,nan,nan,nan,nan,nan,nan,nan,nan,nan,nan,nan,nan,nan,nan,880.5128337151837,1264.316898537334,nan,1264.7231355833355,nan,nan,nan,nan
1,197,1,1,1.0,1.0,0.36508077709004283,0,0.0,0.0,0.0,0.48410353381663607,0.15158415240431017,0.3325193814123259,0.6356876862209462,0.15158415240431017,0.43556276670036215,7,1,2,0,5,3,nan,nan,nan,nan,nan,nan,nan,nan,nan,nan,nan,nan,0.0,nan,nan,nan,nan,nan,nan,nan,nan,nan,nan,nan,nan,nan,nan,nan,nan,nan,nan,880.5128337151837,1265.3420396754518,nan,1265.7071204525419,nan,nan,nan,nan
1,198,1,1,1.0,1.0,0.4279450261965394,0,0.0,0.0,0.0,0.48339082269851275,0.15140833793474157,0.3319824847637712,0.6347991606332544,0.15140833793474157,0.3997542830960204,0,8,3,4,7,6,nan,nan,nan,nan,nan,nan,nan,nan,nan,nan,nan,nan,0.0,nan,nan,nan,nan,nan,nan,nan,nan,nan,nan,nan,nan,nan,nan,nan,nan,nan,nan,880.5128337151837,1266.3671679841354,nan,1266.795113010332,nan,nan,nan,nan
1,199,1,1,1.0,1.0,0.426764432573691,0,0.0,0.0,0.0,0.4830607881955248,0.15101728256274255,0.33204350563278223,0.6340780707582674,0.15101728256274255,0.40659674528675777,6,7,8,1,4,5,nan,nan,nan,nan,nan,nan,nan,nan,nan,nan,nan,nan,0.0,nan,nan,nan,nan,nan,nan,nan,nan,nan,nan,nan,nan,nan,nan,nan,nan,nan,nan,880.5128337151837,1267.3923168198671,nan,1267.8190812524408,nan,nan,nan,nan
1,200,1,1,1.0,1.0,0.5215816816780716,0,0.0,0.0,0.0,0.4827276736652181,0.15063171563864744,0.33209595802657066,0.6333593893038656,0.15063171563864744,0.45876371348276734,3,4,6,8,5,1,nan,nan,nan,nan,nan,nan,nan,nan,nan,nan,nan,nan,0.0,nan,nan,nan,nan,nan,nan,nan,nan,nan,nan,nan,nan,nan,nan,nan,nan,nan,nan,880.5128337151837,1268.417486752849,nan,1268.9390684345271,nan,nan,nan,nan
1,201,1,1,1.0,1.0,0.5684707136824727,0,0.0,0.0,0.0,0.482956226653529,0.15021741456467022,0.3327388120888588,0.6331736412181992,0.15021741456467022,0.5056056093114117,4,1,7,5,6,0,nan,nan,nan,nan,nan,nan,nan,nan,nan,nan,nan,nan,0.0,nan,nan,nan,nan,nan,nan,nan,nan,nan,nan,nan,nan,nan,nan,nan,nan,nan,nan,880.5128337151837,1269.4425734372344,nan,1270.0110441509169,nan,nan,nan,nan
1,202,1,1,1.0,1.0,0.7992962626740336,0,0.0,0.0,0.0,0.4834563113729965,0.14991939630737225,0.3335369150656242,0.6333757076803688,0.14991939630737225,0.629782886011526,0,8,1,3,5,6,nan,nan,nan,nan,nan,nan,nan,nan,nan,nan,nan,nan,0.0,nan,nan,nan,nan,nan,nan,nan,nan,nan,nan,nan,nan,nan,nan,nan,nan,nan,nan,880.5128337151837,1270.4677302555647,nan,1271.2670265182387,nan,nan,nan,nan
1,203,1,1,nan,nan,nan,0,0.0,0.0,0.0,0.0,0.0,0.0,0.0,0.0,0.0,3,0,4,8,1,7,nan,nan,nan,nan,nan,nan,nan,nan,nan,nan,nan,nan,0.0,nan,nan,nan,nan,nan,nan,nan,nan,nan,nan,nan,nan,nan,nan,nan,nan,nan,nan,880.5128337151837,1271.50120254606,nan,nan,nan,nan,nan,nan
1,204,1,1,nan,nan,nan,0,0.0,0.0,0.0,0.0,0.0,0.0,0.0,0.0,0.0,0,8,7,2,4,1,nan,nan,nan,nan,nan,nan,nan,nan,nan,nan,nan,nan,0.0,nan,nan,nan,nan,nan,nan,nan,nan,nan,nan,nan,nan,nan,nan,nan,nan,nan,nan,880.5128337151837,1272.526320020901,nan,nan,nan,nan,nan,nan
1,205,0,0,1.0,0.0,0.027896331157535315,0,0.0,0.0,0.0,0.48529259015963044,0.1513993073580751,0.33389328280155534,0.6366918975177056,0.1513993073580751,0.027896331157535315,1,7,2,6,5,0,nan,nan,nan,nan,nan,nan,nan,nan,nan,nan,nan,nan,0.0,nan,nan,nan,nan,nan,nan,nan,nan,nan,nan,nan,nan,nan,nan,nan,nan,nan,nan,880.5128337151837,1273.543148253113,nan,1273.5710445842706,nan,nan,nan,nan
1,206,1,1,1.0,1.0,0.5070279664359987,1,1.0,0.0,1.0,0.48264868114805765,0.1548921509902513,0.32775653015780637,0.6375408321383089,0.1548921509902513,0.267462148796767,6,0,4,2,3,8,1.0,1.0,1.0,1.0,1.0,1.0,1.0,1.0,0.0,1.0,0.0,0.0,3.0,6.0,0.0,8.0,2.0,1.0,5.0,3.0,2.0,1.0,6.0,5.0,4.0,5.455250633182004,3.974456587806344,1.1831656098365784,9.773611726472154,8.18976678373292,6.669655355624855,880.5128337151837,1274.5599442690145,1275.3683582709637,1275.0669722354505,1286.2031333481427,1287.2053861974273,1276.393501974875,1286.1948073275853
1,207,1,1,1.0,1.0,0.7823705268092453,0,0.0,0.0,0.0,0.4827887919830458,0.15445741152387432,0.3283313804591715,0.6372462035069202,0.15445741152387432,0.43909827480092645,2,1,6,4,5,7,nan,nan,nan,nan,nan,nan,nan,nan,nan,nan,nan,nan,0.0,nan,nan,nan,nan,nan,nan,nan,nan,nan,nan,nan,nan,nan,nan,nan,nan,nan,nan,880.5128337151837,1287.4283746697474,nan,1288.2107451965567,nan,nan,nan,nan
1,208,1,1,1.0,1.0,0.6372618786990643,0,0.0,0.0,0.0,0.4845006876106241,0.15566209496891611,0.328838592641708,0.6401627825795402,0.15566209496891611,0.6422201239814361,4,0,8,5,3,2,nan,nan,nan,nan,nan,nan,nan,nan,nan,nan,nan,nan,0.0,nan,nan,nan,nan,nan,nan,nan,nan,nan,nan,nan,nan,nan,nan,nan,nan,nan,nan,880.5128337151837,1288.4534642049111,nan,1289.0907260836102,nan,nan,nan,nan
1,209,1,1,1.0,1.0,0.4841385374311358,0,0.0,0.0,0.0,0.4853686489236266,0.15564334516678344,0.32972530375684317,0.64101199409041,0.15564334516678344,0.6345903143131485,0,8,4,3,6,1,nan,nan,nan,nan,nan,nan,nan,nan,nan,nan,nan,nan,0.0,nan,nan,nan,nan,nan,nan,nan,nan,nan,nan,nan,nan,nan,nan,nan,nan,nan,nan,880.5128337151837,1289.4786033474375,nan,1289.9627418848686,nan,nan,nan,nan
1,210,1,1,1.0,1.0,0.4990007292944938,0,0.0,0.0,0.0,0.48536169914118316,0.15520307932202052,0.3301586198191626,0.6405647784632037,0.15520307932202052,0.5401337151415646,5,6,3,8,0,7,nan,nan,nan,nan,nan,nan,nan,nan,nan,nan,nan,nan,0.0,nan,nan,nan,nan,nan,nan,nan,nan,nan,nan,nan,nan,nan,nan,nan,nan,nan,nan,880.5128337151837,1290.5037367877085,nan,1291.002737517003,nan,nan,nan,nan
1,211,1,1,1.0,1.0,0.6018477813340724,0,0.0,0.0,0.0,0.4854383229060894,0.1547698588692274,0.330668464036862,0.6402081817753168,0.1547698588692274,0.5283290160199007,3,7,1,4,8,2,nan,nan,nan,nan,nan,nan,nan,nan,nan,nan,nan,nan,0.0,nan,nan,nan,nan,nan,nan,nan,nan,nan,nan,nan,nan,nan,nan,nan,nan,nan,nan,880.5128337151837,1291.5288690878078,nan,1292.130716869142,nan,nan,nan,nan
1,212,1,1,nan,nan,nan,0,0.0,0.0,0.0,0.0,0.0,0.0,0.0,0.0,0.0,0,4,3,7,6,5,nan,nan,nan,nan,nan,nan,nan,nan,nan,nan,nan,nan,0.0,nan,nan,nan,nan,nan,nan,nan,nan,nan,nan,nan,nan,nan,nan,nan,nan,nan,nan,880.5128337151837,1292.55401136633,nan,nan,nan,nan,nan,nan
1,213,1,1,nan,nan,nan,0,0.0,0.0,0.0,0.0,0.0,0.0,0.0,0.0,0.0,7,8,0,2,5,3,nan,nan,nan,nan,nan,nan,nan,nan,nan,nan,nan,nan,0.0,nan,nan,nan,nan,nan,nan,nan,nan,nan,nan,nan,nan,nan,nan,nan,nan,nan,nan,880.5128337151837,1293.5791368240025,nan,nan,nan,nan,nan,nan
1,214,1,1,nan,nan,nan,0,0.0,0.0,0.0,0.0,0.0,0.0,0.0,0.0,0.0,8,6,2,3,1,4,nan,nan,nan,nan,nan,nan,nan,nan,nan,nan,nan,nan,0.0,nan,nan,nan,nan,nan,nan,nan,nan,nan,nan,nan,nan,nan,nan,nan,nan,nan,nan,880.5128337151837,1294.6042788173072,nan,nan,nan,nan,nan,nan
1,215,1,1,nan,nan,nan,0,0.0,0.0,0.0,0.0,0.0,0.0,0.0,0.0,0.0,1,8,6,5,0,3,nan,nan,nan,nan,nan,nan,nan,nan,nan,nan,nan,nan,0.0,nan,nan,nan,nan,nan,nan,nan,nan,nan,nan,nan,nan,nan,nan,nan,nan,nan,nan,880.5128337151837,1295.6294801111799,nan,nan,nan,nan,nan,nan
1,216,1,1,nan,nan,nan,0,0.0,0.0,0.0,0.0,0.0,0.0,0.0,0.0,0.0,5,4,7,3,6,2,nan,nan,nan,nan,nan,nan,nan,nan,nan,nan,nan,nan,0.0,nan,nan,nan,nan,nan,nan,nan,nan,nan,nan,nan,nan,nan,nan,nan,nan,nan,nan,880.5128337151837,1296.6545599531382,nan,nan,nan,nan,nan,nan
1,217,1,1,nan,nan,nan,0,0.0,0.0,0.0,0.0,0.0,0.0,0.0,0.0,0.0,4,3,6,1,5,8,nan,nan,nan,nan,nan,nan,nan,nan,nan,nan,nan,nan,0.0,nan,nan,nan,nan,nan,nan,nan,nan,nan,nan,nan,nan,nan,nan,nan,nan,nan,nan,880.5128337151837,1297.6713742152788,nan,nan,nan,nan,nan,nan
1,218,1,1,nan,nan,nan,0,0.0,0.0,0.0,0.0,0.0,0.0,0.0,0.0,0.0,3,1,2,6,7,0,nan,nan,nan,nan,nan,nan,nan,nan,nan,nan,nan,nan,0.0,nan,nan,nan,nan,nan,nan,nan,nan,nan,nan,nan,nan,nan,nan,nan,nan,nan,nan,880.5128337151837,1298.6964942561463,nan,nan,nan,nan,nan,nan
1,219,1,1,1.0,1.0,0.08897215663455427,1,1.0,0.0,1.0,0.4860886550760781,0.15458063104291625,0.3315080240331619,0.6406692861189944,0.15458063104291625,0.08897215663455427,5,7,8,3,0,1,1.0,1.0,1.0,1.0,1.0,1.0,0.0,1.0,1.0,0.0,0.0,0.0,2.0,3.0,7.0,8.0,4.0,1.0,5.0,3.0,2.0,1.0,6.0,5.0,4.0,2.7482393733225763,1.525409986032173,0.8120903486851603,6.00427476875484,4.925119128311053,3.780724937329069,880.5128337151837,1299.7216459428892,1300.5300590896513,1299.8106180995237,1307.5809896800201,1308.5770858244505,1301.5385313658044,1307.5726653700694
1,220,0,0,0.0,1.0,0.45260862400755286,0,0.0,0.0,0.0,0.48388245230695853,0.15695117944364143,0.32693127286331713,0.6408336317505999,0.15695117944364143,0.27079039032105356,3,5,6,8,2,4,nan,nan,nan,nan,nan,nan,nan,nan,nan,nan,nan,nan,0.0,nan,nan,nan,nan,nan,nan,nan,nan,nan,nan,nan,nan,nan,nan,nan,nan,nan,nan,880.5128337151837,1308.797855088953,nan,1309.2504637129605,nan,nan,nan,nan
1,221,1,1,1.0,1.0,0.4277217937633395,0,0.0,0.0,0.0,0.4837096687251939,0.1565341778630715,0.3271754908621224,0.6402438465882654,0.1565341778630715,0.3231008581351489,8,1,0,3,4,7,nan,nan,nan,nan,nan,nan,nan,nan,nan,nan,nan,nan,0.0,nan,nan,nan,nan,nan,nan,nan,nan,nan,nan,nan,nan,nan,nan,nan,nan,nan,nan,880.5128337151837,1309.8147283666767,nan,1310.24245016044,nan,nan,nan,nan
1,222,1,1,1.0,1.0,0.4186499551869929,0,0.0,0.0,0.0,0.48340204303859025,0.1561584001171641,0.32724364292142616,0.6395604431557543,0.1561584001171641,0.4329934576526284,5,4,2,0,6,1,nan,nan,nan,nan,nan,nan,nan,nan,nan,nan,nan,nan,0.0,nan,nan,nan,nan,nan,nan,nan,nan,nan,nan,nan,nan,nan,nan,nan,nan,nan,nan,880.5128337151837,1310.839796234388,nan,1311.258446189575,nan,nan,nan,nan
1,223,1,1,1.0,1.0,0.4815307401586324,0,0.0,0.0,0.0,0.4830482064929531,0.1558042957657422,0.32724391072721093,0.6388525022586953,0.1558042957657422,0.4426341630363216,1,6,0,5,7,3,nan,nan,nan,nan,nan,nan,nan,nan,nan,nan,nan,nan,0.0,nan,nan,nan,nan,nan,nan,nan,nan,nan,nan,nan,nan,nan,nan,nan,nan,nan,nan,880.5128337151837,1311.8649048712105,nan,1312.346435611369,nan,nan,nan,nan
1,224,1,1,1.0,1.0,0.5683392833452672,0,0.0,0.0,0.0,0.48303995939331007,0.15538037776480132,0.3276595816285087,0.6384203371581114,0.15538037776480132,0.4895066595636308,0,8,5,7,3,1,nan,nan,nan,nan,nan,nan,nan,nan,nan,nan,nan,nan,0.0,nan,nan,nan,nan,nan,nan,nan,nan,nan,nan,nan,nan,nan,nan,nan,nan,nan,nan,880.5128337151837,1312.8900671065785,nan,1313.4584063899238,nan,nan,nan,nan
1,225,0,0,0.0,1.0,0.7911683856509626,0,0.0,0.0,0.0,0.4835010368200774,0.155086026959251,0.3284150098608264,0.6385870637793284,0.155086026959251,0.6136794697182874,4,0,3,8,6,5,nan,nan,nan,nan,nan,nan,nan,nan,nan,nan,nan,nan,0.0,nan,nan,nan,nan,nan,nan,nan,nan,nan,nan,nan,nan,nan,nan,nan,nan,nan,nan,880.5128337151837,1313.9152128060814,nan,1314.7063811917324,nan,nan,nan,nan
1,226,1,1,1.0,1.0,0.6700237030163407,1,0.0,1.0,1.0,0.48515516235142625,0.15629635299288075,0.3288588093585455,0.641451515344307,0.15629635299288075,0.6765104573375235,3,7,8,6,2,1,1.0,1.0,1.0,1.0,1.0,1.0,0.0,1.0,1.0,0.0,0.0,0.0,2.0,2.0,7.0,8.0,4.0,7.0,3.0,3.0,2.0,1.0,6.0,5.0,4.0,2.312969022896141,1.4899251842871308,0.7160289294552058,9.80101398169063,6.257269302383065,4.522151023615152,880.5128337151837,1314.9403476722073,1315.7487588231452,1315.6103713752236,1326.608535910258,1327.6088201536331,1316.7655739407055,1326.6002064684872
1,227,1,1,1.0,1.0,0.35237393085844815,0,0.0,0.0,0.0,0.4861437641731638,0.15645989915757072,0.3296838650155931,0.6426036633307345,0.15645989915757072,0.6045220065085838,6,4,7,2,5,8,nan,nan,nan,nan,nan,nan,nan,nan,nan,nan,nan,nan,0.0,nan,nan,nan,nan,nan,nan,nan,nan,nan,nan,nan,nan,nan,nan,nan,nan,nan,nan,880.5128337151837,1327.8338085927535,nan,1328.186182523612,nan,nan,nan,nan
1,228,1,1,1.0,1.0,0.3993345226626843,0,0.0,0.0,0.0,0.4854322225065961,0.15634629958057286,0.32908592292602323,0.641778522087169,0.15634629958057286,0.4739107188458244,8,2,0,5,6,7,nan,nan,nan,nan,nan,nan,nan,nan,nan,nan,nan,nan,0.0,nan,nan,nan,nan,nan,nan,nan,nan,nan,nan,nan,nan,nan,nan,nan,nan,nan,nan,880.5128337151837,1328.8588459549937,nan,1329.2581804776564,nan,nan,nan,nan
1,229,1,1,1.0,1.0,0.38213537726551294,0,0.0,0.0,0.0,0.4849766791211786,0.15605718471765304,0.3289194944035255,0.6410338638388317,0.15605718471765304,0.37794794359554845,4,3,8,2,1,0,nan,nan,nan,nan,nan,nan,nan,nan,nan,nan,nan,nan,0.0,nan,nan,nan,nan,nan,nan,nan,nan,nan,nan,nan,nan,nan,nan,nan,nan,nan,nan,880.5128337151837,1329.8840181687847,nan,1330.2661535460502,nan,nan,nan,nan
1,230,1,1,1.0,1.0,0.3249927726574242,0,0.0,0.0,0.0,0.484435409111412,0.1558237424469483,0.3286116666644637,0.6402591515583602,0.1558237424469483,0.3688208908618738,6,4,3,1,7,2,nan,nan,nan,nan,nan,nan,nan,nan,nan,nan,nan,nan,0.0,nan,nan,nan,nan,nan,nan,nan,nan,nan,nan,nan,nan,nan,nan,nan,nan,nan,nan,880.5128337151837,1330.9091510390863,nan,1331.2341438117437,nan,nan,nan,nan
1,231,1,1,1.0,1.0,0.395810418529436,0,0.0,0.0,0.0,0.48360063091008215,0.15584067259762605,0.3277599583124561,0.6394413035077082,0.15584067259762605,0.36764618948412436,2,0,5,6,3,8,nan,nan,nan,nan,nan,nan,nan,nan,nan,nan,nan,nan,0.0,nan,nan,nan,nan,nan,nan,nan,nan,nan,nan,nan,nan,nan,nan,nan,nan,nan,nan,880.5128337151837,1331.9342913217843,nan,1332.3301017403137,nan,nan,nan,nan
1,232,0,0,0.0,1.0,0.5470141905825585,0,0.0,0.0,0.0,0.48314339022059966,0.1555627082519627,0.327580681968637,0.6387060984725623,0.1555627082519627,0.42260579392313957,7,1,6,3,8,2,nan,nan,nan,nan,nan,nan,nan,nan,nan,nan,nan,nan,0.0,nan,nan,nan,nan,nan,nan,nan,nan,nan,nan,nan,nan,nan,nan,nan,nan,nan,nan,880.5128337151837,1332.951097886311,nan,1333.4981120768934,nan,nan,nan,nan
1,233,1,1,1.0,1.0,0.5218582272063941,0,0.0,0.0,0.0,0.48347432701003984,0.1552269195059942,0.32824740750404563,0.638701246516034,0.1552269195059942,0.4882276121061295,2,0,8,6,4,5,nan,nan,nan,nan,nan,nan,nan,nan,nan,nan,nan,nan,0.0,nan,nan,nan,nan,nan,nan,nan,nan,nan,nan,nan,nan,nan,nan,nan,nan,nan,nan,880.5128337151837,1333.9762336076237,nan,1334.4980918348301,nan,nan,nan,nan
1,234,1,1,1.0,1.0,0.7370392736047506,0,0.0,0.0,0.0,0.48367218216569113,0.15485073060938617,0.32882145155630493,0.6385229127750773,0.15485073060938617,0.601970563797901,1,3,7,2,0,6,nan,nan,nan,nan,nan,nan,nan,nan,nan,nan,nan,nan,0.0,nan,nan,nan,nan,nan,nan,nan,nan,nan,nan,nan,nan,nan,nan,nan,nan,nan,nan,880.5128337151837,1334.99302990851,nan,1335.7300691821147,nan,nan,nan,nan
1,235,1,1,1.0,1.0,0.7519000398460776,1,0.0,1.0,1.0,0.48497150058332733,0.15550979753002178,0.3294617030533056,0.6404812981133491,0.15550979753002178,0.6702658468857408,7,8,2,0,3,4,1.0,1.0,1.0,1.0,1.0,1.0,0.0,1.0,1.0,1.0,0.0,0.0,3.0,3.0,8.0,2.0,0.0,5.0,7.0,4.0,3.0,1.0,2.0,6.0,5.0,5.051272138720378,4.284245905699208,1.4691158351488411,2.884486300870776,7.3067541578784585,5.81125643546693,880.5128337151837,1336.0181633490138,1336.8265807721764,1336.7700633888599,1345.186031991383,1346.1881365897134,1337.843392753508,1345.1777016944252
1,236,1,1,1.0,1.0,0.4786877364385873,0,0.0,0.0,0.0,0.48633338088568834,0.15627406362096946,0.3300593172647189,0.6426074445066579,0.15627406362096946,0.6558756832964718,3,0,4,7,8,1,nan,nan,nan,nan,nan,nan,nan,nan,nan,nan,nan,nan,0.0,nan,nan,nan,nan,nan,nan,nan,nan,nan,nan,nan,nan,nan,nan,nan,nan,nan,nan,880.5128337151837,1346.4112171488814,nan,1346.88990488532,nan,nan,nan,nan
1,237,1,1,1.0,1.0,0.5015264181420207,0,0.0,0.0,0.0,0.48629457050778424,0.15587787129198197,0.3304166992158023,0.6421724417997662,0.15587787129198197,0.5773713981422285,6,4,1,8,0,7,nan,nan,nan,nan,nan,nan,nan,nan,nan,nan,nan,nan,0.0,nan,nan,nan,nan,nan,nan,nan,nan,nan,nan,nan,nan,nan,nan,nan,nan,nan,nan,880.5128337151837,1347.4363574315794,nan,1347.9378838497214,nan,nan,nan,nan
1,238,1,1,1.0,1.0,0.3883756163995713,0,0.0,0.0,0.0,0.4863714990311895,0.15548749108229443,0.33088400794889505,0.6418589901134839,0.15548749108229443,0.45619659032672644,4,3,8,5,2,0,nan,nan,nan,nan,nan,nan,nan,nan,nan,nan,nan,nan,0.0,nan,nan,nan,nan,nan,nan,nan,nan,nan,nan,nan,nan,nan,nan,nan,nan,nan,nan,880.5128337151837,1348.4614962888882,nan,1348.8498719052877,nan,nan,nan,nan
1,239,1,1,1.0,1.0,0.363581158220768,0,0.0,0.0,0.0,0.4858790574099251,0.1552510398998765,0.3306280175100486,0.6411300973098015,0.1552510398998765,0.4178277309207867,0,2,3,4,8,7,nan,nan,nan,nan,nan,nan,nan,nan,nan,nan,nan,nan,0.0,nan,nan,nan,nan,nan,nan,nan,nan,nan,nan,nan,nan,nan,nan,nan,nan,nan,nan,880.5128337151837,1349.4783119766507,nan,1349.8418931348715,nan,nan,nan,nan
1,240,1,1,1.0,1.0,0.35437617846764624,0,0.0,0.0,0.0,0.4852675679139793,0.15510248522950826,0.33016508268447103,0.6403700531434875,0.15510248522950826,0.3687776510293285,5,6,0,8,2,1,nan,nan,nan,nan,nan,nan,nan,nan,nan,nan,nan,nan,0.0,nan,nan,nan,nan,nan,nan,nan,nan,nan,nan,nan,nan,nan,nan,nan,nan,nan,nan,880.5128337151837,1350.5034759226255,nan,1350.8578521010932,nan,nan,nan,nan
1,241,1,1,1.0,1.0,0.27712015016004443,0,0.0,0.0,0.0,0.4846163669714602,0.15499002542306295,0.32962634154839726,0.6396063923945232,0.15499002542306295,0.3316924956161529,8,5,4,7,3,6,nan,nan,nan,nan,nan,nan,nan,nan,nan,nan,nan,nan,0.0,nan,nan,nan,nan,nan,nan,nan,nan,nan,nan,nan,nan,nan,nan,nan,nan,nan,nan,880.5128337151837,1351.5407135107089,nan,1351.817833660869,nan,nan,nan,nan
1,242,1,1,1.0,1.0,0.35977109987288713,0,0.0,0.0,0.0,0.4835891579773443,0.15529029095838537,0.32829886701895894,0.6388794489357297,0.15529029095838537,0.33042247616685927,6,8,0,2,7,5,nan,nan,nan,nan,nan,nan,nan,nan,nan,nan,nan,nan,0.0,nan,nan,nan,nan,nan,nan,nan,nan,nan,nan,nan,nan,nan,nan,nan,nan,nan,nan,880.5128337151837,1352.5620448756963,nan,1352.9218159755692,nan,nan,nan,nan
1,243,1,1,1.0,1.0,0.39060907904058695,0,0.0,0.0,0.0,0.48297921680441597,0.15514970415382665,0.32782951265058935,0.6381289209582426,0.15514970415382665,0.34250010969117284,4,3,8,1,5,0,nan,nan,nan,nan,nan,nan,nan,nan,nan,nan,nan,nan,0.0,nan,nan,nan,nan,nan,nan,nan,nan,nan,nan,nan,nan,nan,nan,nan,nan,nan,nan,880.5128337151837,1353.5871834477875,nan,1353.9777925268281,nan,nan,nan,nan
1,244,1,1,1.0,1.0,0.5334879707079381,0,0.0,0.0,0.0,0.482526422011456,0.15490336724548934,0.32762305476596665,0.6374297892569454,0.15490336724548934,0.42795604987380403,8,1,2,0,4,3,nan,nan,nan,nan,nan,nan,nan,nan,nan,nan,nan,nan,0.0,nan,nan,nan,nan,nan,nan,nan,nan,nan,nan,nan,nan,nan,nan,nan,nan,nan,nan,880.5128337151837,1354.612300352659,nan,1355.145788323367,nan,nan,nan,nan
1,245,1,1,1.0,1.0,0.5643208180554211,0,0.0,0.0,0.0,0.48277501493192665,0.15456587924199536,0.32820913568993126,0.637340894173922,0.15456587924199536,0.49613928926798206,0,7,6,3,2,4,nan,nan,nan,nan,nan,nan,nan,nan,nan,nan,nan,nan,0.0,nan,nan,nan,nan,nan,nan,nan,nan,nan,nan,nan,nan,nan,nan,nan,nan,nan,nan,880.5128337151837,1355.6374585966114,nan,1356.2017794146668,nan,nan,nan,nan
1,246,1,1,nan,nan,nan,0,0.0,0.0,0.0,0.0,0.0,0.0,0.0,0.0,0.0,5,3,4,1,6,0,nan,nan,nan,nan,nan,nan,nan,nan,nan,nan,nan,nan,0.0,nan,nan,nan,nan,nan,nan,nan,nan,nan,nan,nan,nan,nan,nan,nan,nan,nan,nan,880.5128337151837,1356.6542663015425,nan,nan,nan,nan,nan,nan
1,247,0,0,0.0,1.0,0.5623465101234615,0,0.0,0.0,0.0,0.4831708683451475,0.15429439610852783,0.32887647223661964,0.6374652644536754,0.15429439610852783,0.5633336640894413,3,5,7,2,4,1,nan,nan,nan,nan,nan,nan,nan,nan,nan,nan,nan,nan,0.0,nan,nan,nan,nan,nan,nan,nan,nan,nan,nan,nan,nan,nan,nan,nan,nan,nan,nan,880.5128337151837,1357.6794017376378,nan,1358.2417482477613,nan,nan,nan,nan
1,248,1,1,1.0,1.0,0.41750699491240084,0,0.0,0.0,0.0,0.48355335936823113,0.15401912166249057,0.32953423770574053,0.6375724810307217,0.15401912166249057,0.48992675251793116,1,7,5,4,8,2,nan,nan,nan,nan,nan,nan,nan,nan,nan,nan,nan,nan,0.0,nan,nan,nan,nan,nan,nan,nan,nan,nan,nan,nan,nan,nan,nan,nan,nan,nan,nan,880.5128337151837,1358.6962100127712,nan,1359.1137170076836,nan,nan,nan,nan
1,249,1,1,1.0,1.0,0.36028171167708933,0,0.0,0.0,0.0,0.4832358287698858,0.15371634007590673,0.32951948869397907,0.6369521688457925,0.15371634007590673,0.4467117389043172,8,1,4,3,2,7,nan,nan,nan,nan,nan,nan,nan,nan,nan,nan,nan,nan,0.0,nan,nan,nan,nan,nan,nan,nan,nan,nan,nan,nan,nan,nan,nan,nan,nan,nan,nan,880.5128337151837,1359.7214361103252,nan,1360.0817178220022,nan,nan,nan,nan
1,250,1,1,1.0,1.0,0.34320487338118255,0,0.0,0.0,0.0,0.4826475315589155,0.15358269639785907,0.32906483516105645,0.6362302279567745,0.15358269639785907,0.3736645266568909,2,6,7,8,5,3,nan,nan,nan,nan,nan,nan,nan,nan,nan,nan,nan,nan,0.0,nan,nan,nan,nan,nan,nan,nan,nan,nan,nan,nan,nan,nan,nan,nan,nan,nan,nan,880.5128337151837,1360.7464845913928,nan,1361.089689464774,nan,nan,nan,nan
1,251,1,1,1.0,1.0,0.654057324398309,0,0.0,0.0,0.0,0.4819835189009263,0.1535170130403189,0.3284665058606074,0.6355005319412452,0.1535170130403189,0.452514636485527,3,0,4,2,7,8,nan,nan,nan,nan,nan,nan,nan,nan,nan,nan,nan,nan,0.0,nan,nan,nan,nan,nan,nan,nan,nan,nan,nan,nan,nan,nan,nan,nan,nan,nan,nan,880.5128337151837,1361.7716228782665,nan,1362.4256802026648,nan,nan,nan,nan
1,252,0,0,0.0,1.0,0.48490972933359444,0,0.0,0.0,0.0,0.48279903456679063,0.15360808222507785,0.3291909523417128,0.6364071167918685,0.15360808222507785,0.49405730903769535,8,4,7,1,2,6,nan,nan,nan,nan,nan,nan,nan,nan,nan,nan,nan,nan,0.0,nan,nan,nan,nan,nan,nan,nan,nan,nan,nan,nan,nan,nan,nan,nan,nan,nan,nan,880.5128337151837,1362.7967511869501,nan,1363.2816609162837,nan,nan,nan,nan
1,253,1,1,1.0,1.0,0.38776607532054186,0,0.0,0.0,0.0,0.4828089906741812,0.1532454390217419,0.32956355165243933,0.6360544296959231,0.1532454390217419,0.5089110430174818,6,2,5,7,8,3,nan,nan,nan,nan,nan,nan,nan,nan,nan,nan,nan,nan,0.0,nan,nan,nan,nan,nan,nan,nan,nan,nan,nan,nan,nan,nan,nan,nan,nan,nan,nan,880.5128337151837,1363.82189375069,nan,1364.2096598260105,nan,nan,nan,nan
1,254,1,1,1.0,1.0,0.48261696589179337,0,0.0,0.0,0.0,0.48236277980397635,0.15302326739742922,0.32933951240654713,0.6353860472014056,0.15302326739742922,0.45176425684864324,0,6,3,5,1,8,nan,nan,nan,nan,nan,nan,nan,nan,nan,nan,nan,nan,0.0,nan,nan,nan,nan,nan,nan,nan,nan,nan,nan,nan,nan,nan,nan,nan,nan,nan,nan,880.5128337151837,1364.8470311823767,nan,1365.3296481482685,nan,nan,nan,nan
1,255,1,1,1.0,1.0,0.6494615341071039,0,0.0,0.0,0.0,0.48236396758943345,0.1526653187279022,0.3296986488615312,0.6350292863173357,0.1526653187279022,0.506614858439813,8,1,0,7,2,5,nan,nan,nan,nan,nan,nan,nan,nan,nan,nan,nan,nan,0.0,nan,nan,nan,nan,nan,nan,nan,nan,nan,nan,nan,nan,nan,nan,nan,nan,nan,nan,880.5128337151837,1365.8721583506558,nan,1366.521619884763,nan,nan,nan,nan
1,256,1,1,1.0,1.0,0.5922653309535235,0,0.0,0.0,0.0,0.48314116557323655,0.15273362479721614,0.3304075407760204,0.6358747903704527,0.15273362479721614,0.5747812769841403,3,8,4,2,1,7,nan,nan,nan,nan,nan,nan,nan,nan,nan,nan,nan,nan,0.0,nan,nan,nan,nan,nan,nan,nan,nan,nan,nan,nan,nan,nan,nan,nan,nan,nan,nan,880.5128337151837,1366.8973020545673,nan,1367.4895673855208,nan,nan,nan,nan
1,257,0,0,0.0,1.0,0.5751029632519931,0,0.0,0.0,0.0,0.48364637004258976,0.15255961773869675,0.331086752303893,0.6362059877812865,0.15255961773869675,0.6056099427708735,5,7,0,4,8,6,nan,nan,nan,nan,nan,nan,nan,nan,nan,nan,nan,nan,0.0,nan,nan,nan,nan,nan,nan,nan,nan,nan,nan,nan,nan,nan,nan,nan,nan,nan,nan,880.5128337151837,1367.9224411970936,nan,1368.4975441603456,nan,nan,nan,nan
1,258,1,1,1.0,1.0,0.4859825554303825,0,0.0,0.0,0.0,0.4840678289974718,0.1523336767337902,0.33173415226368164,0.636401505731262,0.1523336767337902,0.551116949878633,8,1,7,6,3,0,nan,nan,nan,nan,nan,nan,nan,nan,nan,nan,nan,nan,0.0,nan,nan,nan,nan,nan,nan,nan,nan,nan,nan,nan,nan,nan,nan,nan,nan,nan,nan,880.5128337151837,1368.9475854712073,nan,1369.4335680266377,nan,nan,nan,nan
1,259,1,1,1.0,1.0,0.7008072284515947,0,0.0,0.0,0.0,0.4840766121462466,0.15198394104191676,0.33209267110432983,0.6360605531881633,0.15198394104191676,0.5872975823779901,5,4,8,2,0,7,nan,nan,nan,nan,nan,nan,nan,nan,nan,nan,nan,nan,0.0,nan,nan,nan,nan,nan,nan,nan,nan,nan,nan,nan,nan,nan,nan,nan,nan,nan,nan,880.5128337151837,1369.972757969983,nan,1370.6735651984345,nan,nan,nan,nan
1,260,1,1,1.0,1.0,0.7636905789840966,1,0.0,1.0,1.0,0.4850662496636226,0.15233892567263066,0.3327273239909919,0.6374051753362533,0.15233892567263066,0.6501601209553579,3,5,4,6,7,2,1.0,1.0,1.0,1.0,1.0,1.0,0.0,0.0,0.0,0.0,1.0,0.0,1.0,2.0,3.0,8.0,4.0,7.0,1.0,3.0,2.0,1.0,6.0,5.0,4.0,5.191970881074667,3.4228434711694717,1.1053251293487847,9.990077141905203,8.494612776208669,6.607180836377665,880.5128337151837,1370.9978500711732,1371.806271770969,1371.7615406501573,1382.857752601616,1383.861631938722,1372.831414334476,1382.8494191686623
1,261,1,1,nan,nan,nan,0,0.0,0.0,0.0,0.0,0.0,0.0,0.0,0.0,0.0,7,2,6,4,0,1,nan,nan,nan,nan,nan,nan,nan,nan,nan,nan,nan,nan,0.0,nan,nan,nan,nan,nan,nan,nan,nan,nan,nan,nan,nan,nan,nan,nan,nan,nan,nan,880.5128337151837,1384.0829465971328,nan,nan,nan,nan,nan,nan
1,262,1,1,1.0,1.0,0.06924019497819245,0,0.0,0.0,0.0,0.4863327238878066,0.1531434876572675,0.3331892362305391,0.6394762115450741,0.1531434876572675,0.41646538698114455,5,3,0,1,7,4,nan,nan,nan,nan,nan,nan,nan,nan,nan,nan,nan,nan,0.0,nan,nan,nan,nan,nan,nan,nan,nan,nan,nan,nan,nan,nan,nan,nan,nan,nan,nan,880.5128337151837,1385.1081142493058,nan,1385.177354444284,nan,nan,nan,nan
1,263,1,1,1.0,1.0,0.5880584155675024,1,1.0,0.0,1.0,0.4844454273769034,0.1553396966423718,0.3291057307345316,0.6397851240192751,0.1553396966423718,0.3286493052728474,0,4,7,2,8,5,1.0,1.0,1.0,1.0,1.0,1.0,0.0,0.0,1.0,0.0,0.0,0.0,1.0,2.0,0.0,7.0,4.0,3.0,8.0,3.0,2.0,1.0,6.0,5.0,4.0,2.0243157777003944,1.384962415555492,0.7521777260117233,4.791250779060647,4.087019801372662,3.3602329599671066,880.5128337151837,1386.1332177543081,1386.941634892486,1386.7212761698756,1392.7924114156049,1393.7986619181465,1387.9584411717951,1392.7840762718115
1,264,1,1,1.0,1.0,0.24763553449884057,0,0.0,0.0,0.0,0.4849121525489331,0.15514466384189862,0.3297674887070345,0.6400568163908318,0.15514466384189862,0.30164471501484513,2,1,6,5,4,3,nan,nan,nan,nan,nan,nan,nan,nan,nan,nan,nan,nan,0.0,nan,nan,nan,nan,nan,nan,nan,nan,nan,nan,nan,nan,nan,nan,nan,nan,nan,nan,880.5128337151837,1394.0175783266313,nan,1394.2652138611302,nan,nan,nan,nan
1,265,1,1,1.0,1.0,0.6224031078163534,0,0.0,0.0,0.0,0.48384813184018827,0.1556061219611772,0.3282420098790111,0.6394542538013654,0.1556061219611772,0.48603235262756544,4,6,2,0,3,7,nan,nan,nan,nan,nan,nan,nan,nan,nan,nan,nan,nan,0.0,nan,nan,nan,nan,nan,nan,nan,nan,nan,nan,nan,nan,nan,nan,nan,nan,nan,nan,880.5128337151837,1395.042739421595,nan,1395.6651425294112,nan,nan,nan,nan
1,266,1,1,1.0,1.0,0.4132804076652974,0,0.0,0.0,0.0,0.4844666808400819,0.15553292480005598,0.3289337560400259,0.6399996056401378,0.15553292480005598,0.4277730166601638,0,8,6,3,4,1,nan,nan,nan,nan,nan,nan,nan,nan,nan,nan,nan,nan,0.0,nan,nan,nan,nan,nan,nan,nan,nan,nan,nan,nan,nan,nan,nan,nan,nan,nan,nan,880.5128337151837,1396.0678831255063,nan,1396.4811635331716,nan,nan,nan,nan
1,267,1,1,1.0,1.0,0.4361105361022055,0,0.0,0.0,0.0,0.4841502974037495,0.1552591364916145,0.328891160912135,0.639409433895364,0.1552591364916145,0.49059801719461876,4,6,0,2,8,5,nan,nan,nan,nan,nan,nan,nan,nan,nan,nan,nan,nan,0.0,nan,nan,nan,nan,nan,nan,nan,nan,nan,nan,nan,nan,nan,nan,nan,nan,nan,nan,880.5128337151837,1397.0930445056874,nan,1397.5291550417896,nan,nan,nan,nan
1,268,1,1,1.0,1.0,0.3869743566028774,0,0.0,0.0,0.0,0.4839377320882559,0.15494807132568628,0.32898966076256964,0.6388858034139422,0.15494807132568628,0.41212176679012674,0,8,7,5,4,6,nan,nan,nan,nan,nan,nan,nan,nan,nan,nan,nan,nan,0.0,nan,nan,nan,nan,nan,nan,nan,nan,nan,nan,nan,nan,nan,nan,nan,nan,nan,nan,880.5128337151837,1398.1181557083037,nan,1398.5051300649066,nan,nan,nan,nan
1,269,1,1,1.0,1.0,0.3378903497941792,0,0.0,0.0,0.0,0.48351058065439967,0.15473969850558342,0.3287708821488162,0.6382502791599831,0.15473969850558342,0.386991747499754,1,3,8,4,5,2,nan,nan,nan,nan,nan,nan,nan,nan,nan,nan,nan,nan,0.0,nan,nan,nan,nan,nan,nan,nan,nan,nan,nan,nan,nan,nan,nan,nan,nan,nan,nan,880.5128337151837,1399.151241119951,nan,1399.4891314697452,nan,nan,nan,nan
1,270,0,0,1.0,0.0,0.3846527982968837,0,0.0,0.0,0.0,0.4828718954313285,0.15469955616910178,0.3281723392622268,0.6375714516004303,0.15469955616910178,0.3698391682313134,4,0,7,2,6,5,nan,nan,nan,nan,nan,nan,nan,nan,nan,nan,nan,nan,0.0,nan,nan,nan,nan,nan,nan,nan,nan,nan,nan,nan,nan,nan,nan,nan,nan,nan,nan,880.5128337151837,1400.1684414057527,nan,1400.5530942040496,nan,nan,nan,nan
1,271,1,1,1.0,1.0,0.5355192986316979,0,0.0,0.0,0.0,0.4824429910770296,0.1544972134856553,0.32794577759137433,0.6369402045626849,0.1544972134856553,0.41935414890758693,6,8,0,3,1,2,nan,nan,nan,nan,nan,nan,nan,nan,nan,nan,nan,nan,0.0,nan,nan,nan,nan,nan,nan,nan,nan,nan,nan,nan,nan,nan,nan,nan,nan,nan,nan,880.5128337151837,1401.1935640124138,nan,1401.7290833110455,nan,nan,nan,nan
1,272,1,1,1.0,1.0,0.43836766202002764,0,0.0,0.0,0.0,0.48267375763161513,0.15420053179606566,0.3284732258355495,0.6368742894276808,0.15420053179606566,0.45284658631620306,0,3,6,2,7,5,nan,nan,nan,nan,nan,nan,nan,nan,nan,nan,nan,nan,0.0,nan,nan,nan,nan,nan,nan,nan,nan,nan,nan,nan,nan,nan,nan,nan,nan,nan,nan,880.5128337151837,1402.2187057207339,nan,1402.6570733827539,nan,nan,nan,nan
1,273,1,1,1.0,1.0,0.4932095205876976,0,0.0,0.0,0.0,0.48248195635191127,0.15389389516097945,0.3285880611909318,0.6363758515128908,0.15389389516097945,0.48903216041314107,6,2,4,7,3,0,nan,nan,nan,nan,nan,nan,nan,nan,nan,nan,nan,nan,0.0,nan,nan,nan,nan,nan,nan,nan,nan,nan,nan,nan,nan,nan,nan,nan,nan,nan,nan,880.5128337151837,1403.2438437226228,nan,1403.7370532432105,nan,nan,nan,nan
1,274,1,1,1.0,1.0,0.46003886475227773,0,0.0,0.0,0.0,0.4825281958529276,0.15356347724575437,0.32896471860717325,0.636091673098682,0.15356347724575437,0.46387201578666765,4,5,3,6,7,2,nan,nan,nan,nan,nan,nan,nan,nan,nan,nan,nan,nan,0.0,nan,nan,nan,nan,nan,nan,nan,nan,nan,nan,nan,nan,nan,nan,nan,nan,nan,nan,880.5128337151837,1404.2689939837437,nan,1404.729032848496,nan,nan,nan,nan
1,275,1,1,1.0,1.0,0.4429229679517448,0,0.0,0.0,0.0,0.48243167511859003,0.15324063992013545,0.3291910351984546,0.6356723150387255,0.15324063992013545,0.46539045109724003,0,6,7,2,3,8,nan,nan,nan,nan,nan,nan,nan,nan,nan,nan,nan,nan,0.0,nan,nan,nan,nan,nan,nan,nan,nan,nan,nan,nan,nan,nan,nan,nan,nan,nan,nan,880.5128337151837,1405.294114880031,nan,1405.7370378479827,nan,nan,nan,nan
1,276,1,1,1.0,1.0,0.44976048870012164,0,0.0,0.0,0.0,0.4822628344896719,0.15293456933918254,0.32932826515048935,0.6351974038288544,0.15293456933918254,0.45090744046804804,4,7,0,5,2,6,nan,nan,nan,nan,nan,nan,nan,nan,nan,nan,nan,nan,0.0,nan,nan,nan,nan,nan,nan,nan,nan,nan,nan,nan,nan,nan,nan,nan,nan,nan,nan,880.5128337151837,1406.3192471798975,nan,1406.7690076685976,nan,nan,nan,nan
1,277,1,1,1.0,1.0,0.4806090162601322,0,0.0,0.0,0.0,0.4821245266352483,0.1526234946346943,0.32950103200055403,0.6347480212699426,0.1526234946346943,0.45776415763733286,6,2,3,7,8,0,nan,nan,nan,nan,nan,nan,nan,nan,nan,nan,nan,nan,0.0,nan,nan,nan,nan,nan,nan,nan,nan,nan,nan,nan,nan,nan,nan,nan,nan,nan,nan,880.5128337151837,1407.3443980114534,nan,1407.8250070277136,nan,nan,nan,nan
1,278,1,1,1.0,1.0,0.6717784851789474,0,0.0,0.0,0.0,0.48211810498111646,0.15229982832363784,0.32981827665747865,0.6344179333047543,0.15229982832363784,0.5340493300464004,1,3,6,4,2,7,nan,nan,nan,nan,nan,nan,nan,nan,nan,nan,nan,nan,0.0,nan,nan,nan,nan,nan,nan,nan,nan,nan,nan,nan,nan,nan,nan,nan,nan,nan,nan,880.5128337151837,1408.361202295171,nan,1409.03298078035,nan,nan,nan,nan
1,279,1,1,nan,nan,nan,0,0.0,0.0,0.0,0.0,0.0,0.0,0.0,0.0,0.0,2,7,3,0,5,6,nan,nan,nan,nan,nan,nan,nan,nan,nan,nan,nan,nan,0.0,nan,nan,nan,nan,nan,nan,nan,nan,nan,nan,nan,nan,nan,nan,nan,nan,nan,nan,880.5128337151837,1409.3863308888394,nan,nan,nan,nan,nan,nan
1,280,1,1,nan,nan,nan,0,0.0,0.0,0.0,0.0,0.0,0.0,0.0,0.0,0.0,6,2,5,1,8,4,nan,nan,nan,nan,nan,nan,nan,nan,nan,nan,nan,nan,0.0,nan,nan,nan,nan,nan,nan,nan,nan,nan,nan,nan,nan,nan,nan,nan,nan,nan,nan,880.5128337151837,1410.4114700313658,nan,nan,nan,nan,nan,nan
1,281,0,0,0.0,1.0,0.6763315103016794,0,0.0,0.0,0.0,0.4829183597498837,0.15247460025236023,0.33044375949752347,0.6353929600022439,0.15247460025236023,0.6763315103016794,2,3,4,0,1,6,nan,nan,nan,nan,nan,nan,nan,nan,nan,nan,nan,nan,0.0,nan,nan,nan,nan,nan,nan,nan,nan,nan,nan,nan,nan,nan,nan,nan,nan,nan,nan,880.5128337151837,1411.4365966294426,nan,1412.1129281397443,nan,nan,nan,nan
1,282,1,1,1.0,1.0,0.5674454991240054,0,0.0,0.0,0.0,0.4837310200463198,0.15266741533435788,0.33106360471196195,0.6363984353806776,0.15266741533435788,0.6218885047128424,0,5,6,1,4,3,nan,nan,nan,nan,nan,nan,nan,nan,nan,nan,nan,nan,0.0,nan,nan,nan,nan,nan,nan,nan,nan,nan,nan,nan,nan,nan,nan,nan,nan,nan,nan,880.5128337151837,1412.4734672955237,nan,1413.0409127946477,nan,nan,nan,nan
1,283,1,1,1.0,1.0,0.6576877702027559,0,0.0,0.0,0.0,0.4840812898332557,0.1524434958234968,0.3316377940097589,0.6365247856567525,0.1524434958234968,0.6338215932094803,7,8,1,5,6,2,nan,nan,nan,nan,nan,nan,nan,nan,nan,nan,nan,nan,0.0,nan,nan,nan,nan,nan,nan,nan,nan,nan,nan,nan,nan,nan,nan,nan,nan,nan,nan,880.5128337151837,1413.4952223170549,nan,1414.1529100872576,nan,nan,nan,nan
1,284,1,1,nan,nan,nan,0,0.0,0.0,0.0,0.0,0.0,0.0,0.0,0.0,0.0,0,7,5,2,8,3,nan,nan,nan,nan,nan,nan,nan,nan,nan,nan,nan,nan,0.0,nan,nan,nan,nan,nan,nan,nan,nan,nan,nan,nan,nan,nan,nan,nan,nan,nan,nan,880.5128337151837,1414.5203620295506,nan,nan,nan,nan,nan,nan
