block,trial,freq_trials,correct_response,actual_response,acc,rts,probe_trials,trials_colorind0,trials_colorind1,trials_colorind2,trials_colorind3,trials_colorind4,trials_colorind5,wholereport_resp0,wholereport_resp1,wholereport_resp2,wholereport_resp3,wholereport_resp4,wholereport_resp5,wholereport_respacc0,wholereport_respacc1,wholereport_respacc2,wholereport_respacc3,wholereport_respacc4,wholereport_respacc5,wholereport_respacc_total,wholereport_respcolorind0,wholereport_respcolorind1,wholereport_respcolorind2,wholereport_respcolorind3,wholereport_respcolorind4,wholereport_respcolorind5,wholereport_resporder0,wholereport_resporder1,wholereport_resporder2,wholereport_resporder3,wholereport_resporder4,wholereport_resporder5,wholereport_rts0,wholereport_rts1,wholereport_rts2,wholereport_rts3,wholereport_rts4,wholereport_rts5,time_blockstart,time_encarray_offset,time_encarray_onset,time_response,time_iti_offset,time_iti_onset,time_memprobe_offset,time_memprobe_onset
1,1,1,1,nan,nan,nan,0,2,4,0,5,3,8,nan,nan,nan,nan,nan,nan,nan,nan,nan,nan,nan,nan,0.0,nan,nan,nan,nan,nan,nan,nan,nan,nan,nan,nan,nan,nan,nan,nan,nan,nan,nan,204.36818036803743,205.39486859587487,nan,nan,nan,nan,nan,nan
1,2,1,1,1.0,1.0,0.4367295702104457,0,8,5,4,1,7,2,nan,nan,nan,nan,nan,nan,nan,nan,nan,nan,nan,nan,0.0,nan,nan,nan,nan,nan,nan,nan,nan,nan,nan,nan,nan,nan,nan,nan,nan,nan,nan,204.36818036803743,206.40344897090108,nan,206.84017854111153,nan,nan,nan,nan
1,3,0,0,0.0,1.0,0.5006193801527843,0,0,1,5,4,6,3,nan,nan,nan,nan,nan,nan,nan,nan,nan,nan,nan,nan,0.0,nan,nan,nan,nan,nan,nan,nan,nan,nan,nan,nan,nan,nan,nan,nan,nan,nan,nan,204.36818036803743,207.40353564135148,nan,207.90415502150427,nan,nan,nan,nan
1,4,1,1,1.0,1.0,0.3802272761822678,0,7,6,8,2,4,1,nan,nan,nan,nan,nan,nan,nan,nan,nan,nan,nan,nan,0.0,nan,nan,nan,nan,nan,nan,nan,nan,nan,nan,nan,nan,nan,nan,nan,nan,nan,nan,204.36818036803743,208.41197945337626,nan,208.79220672955853,nan,nan,nan,nan
1,5,1,1,1.0,1.0,0.5796599838358816,0,4,7,2,6,0,8,nan,nan,nan,nan,nan,nan,nan,nan,nan,nan,nan,nan,0.0,nan,nan,nan,nan,nan,nan,nan,nan,nan,nan,nan,nan,nan,nan,nan,nan,nan,nan,204.36818036803743,209.42046317944187,nan,210.00012316327775,nan,nan,nan,nan
1,6,1,1,nan,nan,nan,0,6,1,3,5,4,0,nan,nan,nan,nan,nan,nan,nan,nan,nan,nan,nan,nan,0.0,nan,nan,nan,nan,nan,nan,nan,nan,nan,nan,nan,nan,nan,nan,nan,nan,nan,nan,204.36818036803743,210.4289275186893,nan,nan,nan,nan,nan,nan
1,7,1,1,1.0,1.0,0.4986798436148092,0,7,8,5,3,0,2,nan,nan,nan,nan,nan,nan,nan,nan,nan,nan,nan,nan,0.0,nan,nan,nan,nan,nan,nan,nan,nan,nan,nan,nan,nan,nan,nan,nan,nan,nan,nan,204.36818036803743,211.4374531544745,nan,211.9361329980893,nan,nan,nan,nan
1,8,1,1,1.0,1.0,0.4505469504510984,0,0,2,7,1,6,4,nan,nan,nan,nan,nan,nan,nan,nan,nan,nan,nan,nan,0.0,nan,nan,nan,nan,nan,nan,nan,nan,nan,nan,nan,nan,nan,nan,nan,nan,nan,nan,204.36818036803743,212.43755151401274,nan,212.88809846446384,nan,nan,nan,nan
1,9,1,1,nan,nan,nan,0,6,7,2,5,8,1,nan,nan,nan,nan,nan,nan,nan,nan,nan,nan,nan,nan,0.0,nan,nan,nan,nan,nan,nan,nan,nan,nan,nan,nan,nan,nan,nan,nan,nan,nan,nan,204.36818036803743,213.43767553259386,nan,nan,nan,nan,nan,nan
1,10,1,1,1.0,1.0,0.44995394206489436,0,4,3,0,7,5,8,nan,nan,nan,nan,nan,nan,nan,nan,nan,nan,nan,nan,0.0,nan,nan,nan,nan,nan,nan,nan,nan,nan,nan,nan,nan,nan,nan,nan,nan,nan,nan,204.36818036803743,214.44613787613343,nan,214.89609181819833,nan,nan,nan,nan
1,11,1,1,1.0,1.0,0.20178364374442026,0,8,5,1,6,2,4,nan,nan,nan,nan,nan,nan,nan,nan,nan,nan,nan,nan,0.0,nan,nan,nan,nan,nan,nan,nan,nan,nan,nan,nan,nan,nan,nan,nan,nan,nan,nan,204.36818036803743,215.44629126004293,nan,215.64807490378735,nan,nan,nan,nan
1,12,1,1,1.0,1.0,0.45727588489535265,0,0,4,5,3,6,2,nan,nan,nan,nan,nan,nan,nan,nan,nan,nan,nan,nan,0.0,nan,nan,nan,nan,nan,nan,nan,nan,nan,nan,nan,nan,nan,nan,nan,nan,nan,nan,204.36818036803743,216.45477299040067,nan,216.91204887529602,nan,nan,nan,nan
1,13,1,1,1.0,1.0,0.4488303622638341,0,3,6,0,8,2,5,nan,nan,nan,nan,nan,nan,nan,nan,nan,nan,nan,nan,0.0,nan,nan,nan,nan,nan,nan,nan,nan,nan,nan,nan,nan,nan,nan,nan,nan,nan,nan,204.36818036803743,217.46322392992442,nan,217.91205429218826,nan,nan,nan,nan
1,14,1,1,1.0,1.0,0.3763541902008001,0,1,5,8,4,3,0,nan,nan,nan,nan,nan,nan,nan,nan,nan,nan,nan,nan,0.0,nan,nan,nan,nan,nan,nan,nan,nan,nan,nan,nan,nan,nan,nan,nan,nan,nan,nan,204.36818036803743,218.4716911201831,nan,218.8480453103839,nan,nan,nan,nan
1,15,0,0,1.0,0.0,0.3442023025418166,0,5,0,7,8,4,3,nan,nan,nan,nan,nan,nan,nan,nan,nan,nan,nan,nan,0.0,nan,nan,nan,nan,nan,nan,nan,nan,nan,nan,nan,nan,nan,nan,nan,nan,nan,nan,204.36818036803743,219.47184279345674,nan,219.81604509599856,nan,nan,nan,nan
1,16,1,1,1.0,1.0,0.4797275240707677,0,2,1,0,4,6,7,nan,nan,nan,nan,nan,nan,nan,nan,nan,nan,nan,nan,0.0,nan,nan,nan,nan,nan,nan,nan,nan,nan,nan,nan,nan,nan,nan,nan,nan,nan,nan,204.36818036803743,220.48034277022816,nan,220.96007029429893,nan,nan,nan,nan
1,17,1,1,1.0,1.0,0.5035713074030355,0,4,0,8,2,1,5,nan,nan,nan,nan,nan,nan,nan,nan,nan,nan,nan,nan,0.0,nan,nan,nan,nan,nan,nan,nan,nan,nan,nan,nan,nan,nan,nan,nan,nan,nan,nan,204.36818036803743,221.4804545294901,nan,221.98402583689312,nan,nan,nan,nan
1,18,1,1,1.0,1.0,0.5270892212574836,0,1,6,3,0,5,7,nan,nan,nan,nan,nan,nan,nan,nan,nan,nan,nan,nan,0.0,nan,nan,nan,nan,nan,nan,nan,nan,nan,nan,nan,nan,nan,nan,nan,nan,nan,nan,204.36818036803743,222.48892000914202,nan,223.0160092303995,nan,nan,nan,nan
1,19,1,1,1.0,1.0,0.37490844720741734,0,5,0,1,3,6,2,nan,nan,nan,nan,nan,nan,nan,nan,nan,nan,nan,nan,0.0,nan,nan,nan,nan,nan,nan,nan,nan,nan,nan,nan,nan,nan,nan,nan,nan,nan,nan,204.36818036803743,223.4890993371664,nan,223.86400778437383,nan,nan,nan,nan
1,20,1,1,1.0,1.0,0.3584707112459,0,2,1,7,6,8,5,nan,nan,nan,nan,nan,nan,nan,nan,nan,nan,nan,nan,0.0,nan,nan,nan,nan,nan,nan,nan,nan,nan,nan,nan,nan,nan,nan,nan,nan,nan,nan,204.36818036803743,224.4975123583572,nan,224.8559830696031,nan,nan,nan,nan
1,21,1,1,1.0,1.0,0.4223277346463874,0,3,8,5,0,2,1,nan,nan,nan,nan,nan,nan,nan,nan,nan,nan,nan,nan,0.0,nan,nan,nan,nan,nan,nan,nan,nan,nan,nan,nan,nan,nan,nan,nan,nan,nan,nan,204.36818036803743,225.49766175085097,nan,225.91998948549735,nan,nan,nan,nan
1,22,0,0,0.0,1.0,0.47816574526950717,0,5,0,6,1,3,4,nan,nan,nan,nan,nan,nan,nan,nan,nan,nan,nan,nan,0.0,nan,nan,nan,nan,nan,nan,nan,nan,nan,nan,nan,nan,nan,nan,nan,nan,nan,nan,204.36818036803743,226.49781000296935,nan,226.97597574823885,nan,nan,nan,nan
1,23,1,1,1.0,1.0,0.37370389894931577,1,4,6,3,2,7,0,1.0,1.0,1.0,1.0,1.0,1.0,0.0,1.0,0.0,0.0,0.0,1.0,2.0,0.0,6.0,8.0,3.0,1.0,0.0,2.0,1.0,3.0,4.0,5.0,6.0,2.3388124836201314,1.5378440553322434,3.656794977898244,4.681752932752715,5.841277602332411,6.840669768746011,204.36818036803743,227.50626008718973,228.31468502557254,227.87996398613905,236.20742121469812,237.21238224292756,229.33150108950213,236.199093438423
1,24,1,1,nan,nan,nan,1,0,8,6,3,1,7,1.0,1.0,1.0,1.0,1.0,1.0,0.0,0.0,1.0,1.0,1.0,0.0,3.0,7.0,1.0,6.0,3.0,1.0,8.0,1.0,6.0,5.0,4.0,3.0,2.0,2.788049113645684,7.178835645172512,6.123320082842838,5.314886876527453,4.604240751155885,3.373154225817416,204.36818036803743,237.41594662237912,238.22437897339114,nan,246.4588128599571,247.4614794019144,239.2411799269903,246.45054638021975
1,25,0,0,0.0,1.0,0.6284143954108004,0,8,7,1,2,0,3,nan,nan,nan,nan,nan,nan,nan,nan,nan,nan,nan,nan,0.0,nan,nan,nan,nan,nan,nan,nan,nan,nan,nan,nan,nan,nan,nan,nan,nan,nan,nan,204.36818036803743,247.66734482493484,nan,248.29575922034564,nan,nan,nan,nan
1,26,1,1,1.0,1.0,0.7722693888645153,0,6,5,3,7,8,4,nan,nan,nan,nan,nan,nan,nan,nan,nan,nan,nan,nan,0.0,nan,nan,nan,nan,nan,nan,nan,nan,nan,nan,nan,nan,nan,nan,nan,nan,nan,nan,204.36818036803743,248.66746656273608,nan,249.4397359516006,nan,nan,nan,nan
1,27,1,1,1.0,1.0,0.5397958511894103,0,2,1,6,0,3,7,nan,nan,nan,nan,nan,nan,nan,nan,nan,nan,nan,nan,0.0,nan,nan,nan,nan,nan,nan,nan,nan,nan,nan,nan,nan,nan,nan,nan,nan,nan,nan,204.36818036803743,249.67595713117043,nan,250.21575298235985,nan,nan,nan,nan
1,28,1,1,1.0,1.0,0.33165532871498726,0,8,3,0,1,5,4,nan,nan,nan,nan,nan,nan,nan,nan,nan,nan,nan,nan,0.0,nan,nan,nan,nan,nan,nan,nan,nan,nan,nan,nan,nan,nan,nan,nan,nan,nan,nan,204.36818036803743,250.67610367268207,nan,251.00775900139706,nan,nan,nan,nan
1,29,1,1,1.0,1.0,0.41116121588856913,0,2,8,3,0,4,5,nan,nan,nan,nan,nan,nan,nan,nan,nan,nan,nan,nan,0.0,nan,nan,nan,nan,nan,nan,nan,nan,nan,nan,nan,nan,nan,nan,nan,nan,nan,nan,204.36818036803743,251.68455261649797,nan,252.09571383238654,nan,nan,nan,nan
1,30,1,1,1.0,1.0,0.7950161067419685,0,3,0,2,7,1,8,nan,nan,nan,nan,nan,nan,nan,nan,nan,nan,nan,nan,0.0,nan,nan,nan,nan,nan,nan,nan,nan,nan,nan,nan,nan,nan,nan,nan,nan,nan,nan,204.36818036803743,252.68470742591307,nan,253.47972353265504,nan,nan,nan,nan
1,31,1,1,1.0,1.0,0.5228794319846202,1,6,8,3,5,7,4,1.0,1.0,1.0,1.0,1.0,1.0,1.0,1.0,1.0,1.0,0.0,0.0,4.0,6.0,8.0,3.0,5.0,1.0,0.0,3.0,4.0,2.0,1.0,6.0,5.0,3.4553899471939076,4.511319189885398,2.20705400564475,1.334297637164127,7.629715022398159,5.742052761197556,204.36818036803743,253.6848351507797,254.4932612295961,254.2077145827643,263.17776594928,264.18455161864404,255.51006417890312,263.16942904982716
1,32,1,1,nan,nan,nan,0,3,5,0,1,2,6,nan,nan,nan,nan,nan,nan,nan,nan,nan,nan,nan,nan,0.0,nan,nan,nan,nan,nan,nan,nan,nan,nan,nan,nan,nan,nan,nan,nan,nan,nan,nan,204.36818036803743,264.3862970589835,nan,nan,nan,nan,nan,nan
1,33,0,0,0.0,1.0,0.44512320461217314,0,1,6,3,5,7,2,nan,nan,nan,nan,nan,nan,nan,nan,nan,nan,nan,nan,0.0,nan,nan,nan,nan,nan,nan,nan,nan,nan,nan,nan,nan,nan,nan,nan,nan,nan,nan,204.36818036803743,265.3864433153649,nan,265.83156651997706,nan,nan,nan,nan
1,34,1,1,1.0,1.0,0.5010290690988768,0,5,2,8,0,1,6,nan,nan,nan,nan,nan,nan,nan,nan,nan,nan,nan,nan,0.0,nan,nan,nan,nan,nan,nan,nan,nan,nan,nan,nan,nan,nan,nan,nan,nan,nan,nan,204.36818036803743,266.38657531674835,nan,266.8876043858472,nan,nan,nan,nan
1,35,1,1,nan,nan,nan,0,8,1,6,5,3,2,nan,nan,nan,nan,nan,nan,nan,nan,nan,nan,nan,nan,0.0,nan,nan,nan,nan,nan,nan,nan,nan,nan,nan,nan,nan,nan,nan,nan,nan,nan,nan,204.36818036803743,267.3950373751868,nan,nan,nan,nan,nan,nan
1,36,1,1,1.0,1.0,0.14804967245436274,0,3,4,7,2,1,8,nan,nan,nan,nan,nan,nan,nan,nan,nan,nan,nan,nan,0.0,nan,nan,nan,nan,nan,nan,nan,nan,nan,nan,nan,nan,nan,nan,nan,nan,nan,nan,204.36818036803743,268.40355160695617,nan,268.55160127941053,nan,nan,nan,nan
1,37,1,1,1.0,1.0,0.18757881235796958,0,7,5,8,1,0,2,nan,nan,nan,nan,nan,nan,nan,nan,nan,nan,nan,nan,0.0,nan,nan,nan,nan,nan,nan,nan,nan,nan,nan,nan,nan,nan,nan,nan,nan,nan,nan,204.36818036803743,269.4119862958032,nan,269.5995651081612,nan,nan,nan,nan
1,38,1,1,1.0,1.0,0.09143162769032642,0,1,0,5,6,3,8,nan,nan,nan,nan,nan,nan,nan,nan,nan,nan,nan,nan,0.0,nan,nan,nan,nan,nan,nan,nan,nan,nan,nan,nan,nan,nan,nan,nan,nan,nan,nan,204.36818036803743,270.4121331223869,nan,270.5035647500772,nan,nan,nan,nan
1,39,1,1,1.0,1.0,0.23496502818306908,0,6,3,0,1,5,2,nan,nan,nan,nan,nan,nan,nan,nan,nan,nan,nan,nan,0.0,nan,nan,nan,nan,nan,nan,nan,nan,nan,nan,nan,nan,nan,nan,nan,nan,nan,nan,204.36818036803743,271.4205889086297,nan,271.6555539368128,nan,nan,nan,nan
1,40,1,1,1.0,1.0,0.3227952704182826,0,4,5,6,0,2,7,nan,nan,nan,nan,nan,nan,nan,nan,nan,nan,nan,nan,0.0,nan,nan,nan,nan,nan,nan,nan,nan,nan,nan,nan,nan,nan,nan,nan,nan,nan,nan,204.36818036803743,272.4207368756179,nan,272.74353214603616,nan,nan,nan,nan
1,41,1,1,1.0,1.0,0.32230347261065617,0,2,8,7,3,0,6,nan,nan,nan,nan,nan,nan,nan,nan,nan,nan,nan,nan,0.0,nan,nan,nan,nan,nan,nan,nan,nan,nan,nan,nan,nan,nan,nan,nan,nan,nan,nan,204.36818036803743,273.4292083423643,nan,273.75151181497495,nan,nan,nan,nan
1,42,1,1,1.0,1.0,0.39418378527625464,0,7,4,3,8,5,2,nan,nan,nan,nan,nan,nan,nan,nan,nan,nan,nan,nan,0.0,nan,nan,nan,nan,nan,nan,nan,nan,nan,nan,nan,nan,nan,nan,nan,nan,nan,nan,204.36818036803743,274.42934775634785,nan,274.8235315416241,nan,nan,nan,nan
1,43,1,1,1.0,1.0,0.353704406414181,0,1,2,4,3,6,5,nan,nan,nan,nan,nan,nan,nan,nan,nan,nan,nan,nan,0.0,nan,nan,nan,nan,nan,nan,nan,nan,nan,nan,nan,nan,nan,nan,nan,nan,nan,nan,204.36818036803743,275.4378058233997,nan,275.79151022981387,nan,nan,nan,nan
1,44,1,1,1.0,1.0,0.43355640521622263,0,0,6,1,4,7,3,nan,nan,nan,nan,nan,nan,nan,nan,nan,nan,nan,nan,0.0,nan,nan,nan,nan,nan,nan,nan,nan,nan,nan,nan,nan,nan,nan,nan,nan,nan,nan,204.36818036803743,276.437949513871,nan,276.8715059190872,nan,nan,nan,nan
1,45,1,1,1.0,1.0,0.46541093342239037,0,7,0,8,1,5,4,nan,nan,nan,nan,nan,nan,nan,nan,nan,nan,nan,nan,0.0,nan,nan,nan,nan,nan,nan,nan,nan,nan,nan,nan,nan,nan,nan,nan,nan,nan,nan,204.36818036803743,277.43808123015333,nan,277.9034921635757,nan,nan,nan,nan
1,46,1,1,1.0,1.0,0.48926326975924894,0,8,1,3,2,6,7,nan,nan,nan,nan,nan,nan,nan,nan,nan,nan,nan,nan,0.0,nan,nan,nan,nan,nan,nan,nan,nan,nan,nan,nan,nan,nan,nan,nan,nan,nan,nan,204.36818036803743,278.4382283418672,nan,278.92749161162646,nan,nan,nan,nan
1,47,1,1,1.0,1.0,0.5771003544214182,0,0,8,1,3,5,2,nan,nan,nan,nan,nan,nan,nan,nan,nan,nan,nan,nan,0.0,nan,nan,nan,nan,nan,nan,nan,nan,nan,nan,nan,nan,nan,nan,nan,nan,nan,nan,204.36818036803743,279.438380300242,nan,280.0154806546634,nan,nan,nan,nan
1,48,1,1,1.0,1.0,0.5446305800287519,0,2,3,6,5,1,4,nan,nan,nan,nan,nan,nan,nan,nan,nan,nan,nan,nan,0.0,nan,nan,nan,nan,nan,nan,nan,nan,nan,nan,nan,nan,nan,nan,nan,nan,nan,nan,204.36818036803743,280.4468332354736,nan,280.99146381550236,nan,nan,nan,nan
1,49,1,1,1.0,1.0,0.6081477640254889,0,3,5,0,6,7,8,nan,nan,nan,nan,nan,nan,nan,nan,nan,nan,nan,nan,0.0,nan,nan,nan,nan,nan,nan,nan,nan,nan,nan,nan,nan,nan,nan,nan,nan,nan,nan,204.36818036803743,281.45532123802695,nan,282.06346900205244,nan,nan,nan,nan
1,50,1,1,1.0,1.0,0.7359678680659272,0,8,1,7,3,6,5,nan,nan,nan,nan,nan,nan,nan,nan,nan,nan,nan,nan,0.0,nan,nan,nan,nan,nan,nan,nan,nan,nan,nan,nan,nan,nan,nan,nan,nan,nan,nan,204.36818036803743,282.4554788984533,nan,283.1914467665192,nan,nan,nan,nan
1,51,1,1,nan,nan,nan,0,2,7,3,0,1,6,nan,nan,nan,nan,nan,nan,nan,nan,nan,nan,nan,nan,0.0,nan,nan,nan,nan,nan,nan,nan,nan,nan,nan,nan,nan,nan,nan,nan,nan,nan,nan,204.36818036803743,283.46389420045307,nan,nan,nan,nan,nan,nan
1,52,1,1,nan,nan,nan,1,1,4,8,6,0,5,1.0,1.0,1.0,1.0,1.0,1.0,0.0,0.0,0.0,0.0,1.0,1.0,2.0,7.0,0.0,1.0,8.0,0.0,5.0,4.0,5.0,6.0,3.0,1.0,2.0,4.306780338025419,6.2583603489620145,7.834521013166523,3.402707710454706,1.571167704765685,2.508467047708109,204.36818036803743,284.4640407419356,285.2724725227454,nan,294.1653381473443,295.16589694368304,286.2892740465468,294.1570092306647
1,53,1,1,1.0,1.0,0.4494310683221556,0,0,2,6,5,3,1,nan,nan,nan,nan,nan,nan,nan,nan,nan,nan,nan,nan,0.0,nan,nan,nan,nan,nan,nan,nan,nan,nan,nan,nan,nan,nan,nan,nan,nan,nan,nan,204.36818036803743,295.3738929203537,nan,295.82332398867584,nan,nan,nan,nan
1,54,1,1,1.0,1.0,0.42500197430490516,0,2,4,1,8,6,0,nan,nan,nan,nan,nan,nan,nan,nan,nan,nan,nan,nan,0.0,nan,nan,nan,nan,nan,nan,nan,nan,nan,nan,nan,nan,nan,nan,nan,nan,nan,nan,204.36818036803743,296.3823324558907,nan,296.8073344301956,nan,nan,nan,nan
1,55,0,0,0.0,1.0,0.3848159635672346,0,8,1,0,3,7,4,nan,nan,nan,nan,nan,nan,nan,nan,nan,nan,nan,nan,0.0,nan,nan,nan,nan,nan,nan,nan,nan,nan,nan,nan,nan,nan,nan,nan,nan,nan,nan,204.36818036803743,297.38248640997335,nan,297.7673023735406,nan,nan,nan,nan
1,56,1,1,1.0,1.0,0.3123554720368702,0,7,5,1,0,6,3,nan,nan,nan,nan,nan,nan,nan,nan,nan,nan,nan,nan,0.0,nan,nan,nan,nan,nan,nan,nan,nan,nan,nan,nan,nan,nan,nan,nan,nan,nan,nan,204.36818036803743,298.39094048560946,nan,298.70329595764633,nan,nan,nan,nan
1,57,1,1,1.0,1.0,0.2642148811428342,0,8,3,4,1,2,0,nan,nan,nan,nan,nan,nan,nan,nan,nan,nan,nan,nan,0.0,nan,nan,nan,nan,nan,nan,nan,nan,nan,nan,nan,nan,nan,nan,nan,nan,nan,nan,204.36818036803743,299.39108046979527,nan,299.6552953509381,nan,nan,nan,nan
1,58,1,1,1.0,1.0,0.23969084877171554,0,1,8,2,5,0,4,nan,nan,nan,nan,nan,nan,nan,nan,nan,nan,nan,nan,0.0,nan,nan,nan,nan,nan,nan,nan,nan,nan,nan,nan,nan,nan,nan,nan,nan,nan,nan,204.36818036803743,300.3995818720723,nan,300.639272720844,nan,nan,nan,nan
1,59,1,1,1.0,1.0,0.21524949543527327,0,5,2,6,0,1,7,nan,nan,nan,nan,nan,nan,nan,nan,nan,nan,nan,nan,0.0,nan,nan,nan,nan,nan,nan,nan,nan,nan,nan,nan,nan,nan,nan,nan,nan,nan,nan,204.36818036803743,301.40802425859147,nan,301.62327375402674,nan,nan,nan,nan
1,60,1,1,1.0,1.0,0.24709233452449553,0,6,3,1,8,4,0,nan,nan,nan,nan,nan,nan,nan,nan,nan,nan,nan,nan,0.0,nan,nan,nan,nan,nan,nan,nan,nan,nan,nan,nan,nan,nan,nan,nan,nan,nan,nan,204.36818036803743,302.408175361692,nan,302.65526769621647,nan,nan,nan,nan
1,61,1,1,1.0,1.0,0.27860673822578974,0,2,4,5,7,0,6,nan,nan,nan,nan,nan,nan,nan,nan,nan,nan,nan,nan,0.0,nan,nan,nan,nan,nan,nan,nan,nan,nan,nan,nan,nan,nan,nan,nan,nan,nan,nan,204.36818036803743,303.4166294373281,nan,303.6952361755539,nan,nan,nan,nan
1,62,1,1,1.0,1.0,0.2781120894069318,0,3,8,1,4,7,5,nan,nan,nan,nan,nan,nan,nan,nan,nan,nan,nan,nan,0.0,nan,nan,nan,nan,nan,nan,nan,nan,nan,nan,nan,nan,nan,nan,nan,nan,nan,nan,204.36818036803743,304.4251334054861,nan,304.70324549489305,nan,nan,nan,nan
1,63,0,0,0.0,1.0,0.3576507631223649,0,6,5,4,7,2,1,nan,nan,nan,nan,nan,nan,nan,nan,nan,nan,nan,nan,0.0,nan,nan,nan,nan,nan,nan,nan,nan,nan,nan,nan,nan,nan,nan,nan,nan,nan,nan,204.36818036803743,305.43357807281427,nan,305.79122883593664,nan,nan,nan,nan
1,64,1,1,1.0,1.0,0.33346856586285867,1,2,1,8,3,4,0,1.0,1.0,1.0,1.0,1.0,1.0,1.0,0.0,0.0,1.0,0.0,0.0,2.0,2.0,7.0,1.0,3.0,0.0,8.0,1.0,6.0,5.0,2.0,3.0,4.0,1.0807623236614745,9.808559220575262,8.833283678395674,1.787131376157049,2.8887938238331117,3.7532178544497583,204.36818036803743,306.4337343077059,307.24213273180067,306.76720287356875,318.1019586667244,319.1116862848867,308.2505936498346,318.0936086526781
1,65,1,1,1.0,1.0,0.44027393564465456,0,8,2,7,4,6,5,nan,nan,nan,nan,nan,nan,nan,nan,nan,nan,nan,nan,0.0,nan,nan,nan,nan,nan,nan,nan,nan,nan,nan,nan,nan,nan,nan,nan,nan,nan,nan,204.36818036803743,319.3188144165906,nan,319.75908835223527,nan,nan,nan,nan
1,66,1,1,1.0,1.0,0.3440586120414082,0,2,4,0,5,3,6,nan,nan,nan,nan,nan,nan,nan,nan,nan,nan,nan,nan,0.0,nan,nan,nan,nan,nan,nan,nan,nan,nan,nan,nan,nan,nan,nan,nan,nan,nan,nan,204.36818036803743,320.3189974509005,nan,320.6630560629419,nan,nan,nan,nan
1,67,1,1,1.0,1.0,0.2956471759825945,0,3,6,2,8,0,4,nan,nan,nan,nan,nan,nan,nan,nan,nan,nan,nan,nan,0.0,nan,nan,nan,nan,nan,nan,nan,nan,nan,nan,nan,nan,nan,nan,nan,nan,nan,nan,204.36818036803743,321.32741389330477,nan,321.62306106928736,nan,nan,nan,nan
1,68,1,1,1.0,1.0,0.24714051646878943,0,7,5,4,3,2,6,nan,nan,nan,nan,nan,nan,nan,nan,nan,nan,nan,nan,0.0,nan,nan,nan,nan,nan,nan,nan,nan,nan,nan,nan,nan,nan,nan,nan,nan,nan,nan,204.36818036803743,322.335901325685,nan,322.58304184215376,nan,nan,nan,nan
1,69,1,1,1.0,1.0,0.22267635512980632,0,3,7,1,2,4,5,nan,nan,nan,nan,nan,nan,nan,nan,nan,nan,nan,nan,0.0,nan,nan,nan,nan,nan,nan,nan,nan,nan,nan,nan,nan,nan,nan,nan,nan,nan,nan,204.36818036803743,323.34436366922455,nan,323.56704002435436,nan,nan,nan,nan
1,70,1,1,1.0,1.0,0.19052304193610325,0,8,4,5,1,3,2,nan,nan,nan,nan,nan,nan,nan,nan,nan,nan,nan,nan,0.0,nan,nan,nan,nan,nan,nan,nan,nan,nan,nan,nan,nan,nan,nan,nan,nan,nan,nan,204.36818036803743,324.34451847861055,nan,324.53504152054666,nan,nan,nan,nan
1,71,1,1,1.0,1.0,0.19007058796705678,0,7,8,6,5,1,3,nan,nan,nan,nan,nan,nan,nan,nan,nan,nan,nan,nan,0.0,nan,nan,nan,nan,nan,nan,nan,nan,nan,nan,nan,nan,nan,nan,nan,nan,nan,nan,204.36818036803743,325.3529694181343,nan,325.54304000610136,nan,nan,nan,nan
1,72,1,1,1.0,1.0,0.23789500273414887,0,2,0,1,3,5,7,nan,nan,nan,nan,nan,nan,nan,nan,nan,nan,nan,nan,0.0,nan,nan,nan,nan,nan,nan,nan,nan,nan,nan,nan,nan,nan,nan,nan,nan,nan,nan,204.36818036803743,326.35312593815615,nan,326.5910209408903,nan,nan,nan,nan
1,73,1,1,1.0,1.0,0.14975143541232683,0,3,5,0,4,8,6,nan,nan,nan,nan,nan,nan,nan,nan,nan,nan,nan,nan,0.0,nan,nan,nan,nan,nan,nan,nan,nan,nan,nan,nan,nan,nan,nan,nan,nan,nan,nan,204.36818036803743,327.3532776114298,nan,327.50302904684213,nan,nan,nan,nan
1,74,1,1,1.0,1.0,0.20526471696211956,0,4,3,7,1,6,8,nan,nan,nan,nan,nan,nan,nan,nan,nan,nan,nan,nan,0.0,nan,nan,nan,nan,nan,nan,nan,nan,nan,nan,nan,nan,nan,nan,nan,nan,nan,nan,204.36818036803743,328.3617584864842,nan,328.5670232034463,nan,nan,nan,nan
1,75,0,0,1.0,0.0,0.20478574864682741,0,2,0,1,5,3,7,nan,nan,nan,nan,nan,nan,nan,nan,nan,nan,nan,nan,0.0,nan,nan,nan,nan,nan,nan,nan,nan,nan,nan,nan,nan,nan,nan,nan,nan,nan,nan,204.36818036803743,329.37020714522805,nan,329.5749928938749,nan,nan,nan,nan
1,76,1,1,1.0,1.0,0.36431383941089734,0,5,7,2,8,0,6,nan,nan,nan,nan,nan,nan,nan,nan,nan,nan,nan,nan,0.0,nan,nan,nan,nan,nan,nan,nan,nan,nan,nan,nan,nan,nan,nan,nan,nan,nan,nan,204.36818036803743,330.3786543784663,nan,330.7429682178772,nan,nan,nan,nan
1,77,1,1,1.0,1.0,0.27584440261125565,0,7,8,0,3,6,4,nan,nan,nan,nan,nan,nan,nan,nan,nan,nan,nan,nan,0.0,nan,nan,nan,nan,nan,nan,nan,nan,nan,nan,nan,nan,nan,nan,nan,nan,nan,nan,204.36818036803743,331.3871278408915,nan,331.66297224350274,nan,nan,nan,nan
1,78,1,1,1.0,1.0,0.33935331864631735,0,5,3,2,0,1,6,nan,nan,nan,nan,nan,nan,nan,nan,nan,nan,nan,nan,0.0,nan,nan,nan,nan,nan,nan,nan,nan,nan,nan,nan,nan,nan,nan,nan,nan,nan,nan,204.36818036803743,332.39560615006485,nan,332.73495946871117,nan,nan,nan,nan
1,79,1,1,1.0,1.0,0.26724435566575266,0,8,1,7,5,2,4,nan,nan,nan,nan,nan,nan,nan,nan,nan,nan,nan,nan,0.0,nan,nan,nan,nan,nan,nan,nan,nan,nan,nan,nan,nan,nan,nan,nan,nan,nan,nan,204.36818036803743,333.3957056500076,nan,333.66295000567334,nan,nan,nan,nan
1,80,1,1,1.0,1.0,0.250741331721656,0,0,8,5,4,6,3,nan,nan,nan,nan,nan,nan,nan,nan,nan,nan,nan,nan,0.0,nan,nan,nan,nan,nan,nan,nan,nan,nan,nan,nan,nan,nan,nan,nan,nan,nan,nan,204.36818036803743,334.4042096181947,nan,334.6549509499164,nan,nan,nan,nan
1,81,1,1,1.0,1.0,0.2266070313344244,0,8,2,0,5,4,1,nan,nan,nan,nan,nan,nan,nan,nan,nan,nan,nan,nan,0.0,nan,nan,nan,nan,nan,nan,nan,nan,nan,nan,nan,nan,nan,nan,nan,nan,nan,nan,204.36818036803743,335.4043444705603,nan,335.63095150189474,nan,nan,nan,nan
1,82,0,0,1.0,0.0,0.2980987524497323,0,1,3,5,0,6,8,nan,nan,nan,nan,nan,nan,nan,nan,nan,nan,nan,nan,0.0,nan,nan,nan,nan,nan,nan,nan,nan,nan,nan,nan,nan,nan,nan,nan,nan,nan,nan,204.36818036803743,336.4128082396055,nan,336.71090699205524,nan,nan,nan,nan
1,83,1,1,1.0,1.0,0.36194351653102785,0,7,4,0,3,1,6,nan,nan,nan,nan,nan,nan,nan,nan,nan,nan,nan,nan,0.0,nan,nan,nan,nan,nan,nan,nan,nan,nan,nan,nan,nan,nan,nan,nan,nan,nan,nan,204.36818036803743,337.41295221520704,nan,337.77489573173807,nan,nan,nan,nan
1,84,1,1,1.0,1.0,0.4178254325815942,0,5,0,3,8,7,2,nan,nan,nan,nan,nan,nan,nan,nan,nan,nan,nan,nan,0.0,nan,nan,nan,nan,nan,nan,nan,nan,nan,nan,nan,nan,nan,nan,nan,nan,nan,nan,204.36818036803743,338.4130916291906,nan,338.8309170617722,nan,nan,nan,nan
1,85,1,1,1.0,1.0,0.40136175250518136,0,2,6,4,7,5,1,nan,nan,nan,nan,nan,nan,nan,nan,nan,nan,nan,nan,0.0,nan,nan,nan,nan,nan,nan,nan,nan,nan,nan,nan,nan,nan,nan,nan,nan,nan,nan,204.36818036803743,339.4215442793211,nan,339.8229060318263,nan,nan,nan,nan
1,86,1,1,1.0,1.0,0.4008622569963336,0,0,1,3,2,4,5,nan,nan,nan,nan,nan,nan,nan,nan,nan,nan,nan,nan,0.0,nan,nan,nan,nan,nan,nan,nan,nan,nan,nan,nan,nan,nan,nan,nan,nan,nan,nan,204.36818036803743,340.43003456268343,nan,340.83089681967977,nan,nan,nan,nan
1,87,1,1,1.0,1.0,0.40038642479339615,0,5,2,8,1,7,0,nan,nan,nan,nan,nan,nan,nan,nan,nan,nan,nan,nan,0.0,nan,nan,nan,nan,nan,nan,nan,nan,nan,nan,nan,nan,nan,nan,nan,nan,nan,nan,204.36818036803743,341.43850232311524,nan,341.83888874790864,nan,nan,nan,nan
1,88,1,1,1.0,1.0,0.2959425397857558,0,8,1,0,7,6,2,nan,nan,nan,nan,nan,nan,nan,nan,nan,nan,nan,nan,0.0,nan,nan,nan,nan,nan,nan,nan,nan,nan,nan,nan,nan,nan,nan,nan,nan,nan,nan,204.36818036803743,342.44694128845003,nan,342.7428838282358,nan,nan,nan,nan
1,89,1,1,1.0,1.0,0.2797351647459436,0,4,7,2,0,1,3,nan,nan,nan,nan,nan,nan,nan,nan,nan,nan,nan,nan,0.0,nan,nan,nan,nan,nan,nan,nan,nan,nan,nan,nan,nan,nan,nan,nan,nan,nan,nan,204.36818036803743,343.4471266035689,nan,343.72686176831485,nan,nan,nan,nan
1,90,1,1,1.0,1.0,0.34362782567040995,0,3,6,0,5,8,1,nan,nan,nan,nan,nan,nan,nan,nan,nan,nan,nan,nan,0.0,nan,nan,nan,nan,nan,nan,nan,nan,nan,nan,nan,nan,nan,nan,nan,nan,nan,nan,204.36818036803743,344.44724606053205,nan,344.79087388620246,nan,nan,nan,nan
1,91,1,1,1.0,1.0,0.31951319714426063,1,2,0,8,1,6,4,1.0,1.0,1.0,1.0,1.0,1.0,1.0,0.0,1.0,1.0,1.0,0.0,4.0,2.0,7.0,8.0,1.0,6.0,3.0,1.0,6.0,5.0,2.0,3.0,4.0,1.5387808945088182,6.075099093694007,5.450765337154735,2.6668034197064117,3.548295257729478,4.187159430002794,204.36818036803743,345.4473395734094,346.25575966510223,345.76685277055367,353.3817651065183,354.3829562550818,347.2642776031862,353.37343961105216
1,92,1,1,1.0,1.0,0.7924108612933196,0,5,7,1,8,4,6,nan,nan,nan,nan,nan,nan,nan,nan,nan,nan,nan,nan,0.0,nan,nan,nan,nan,nan,nan,nan,nan,nan,nan,nan,nan,nan,nan,nan,nan,nan,nan,204.36818036803743,354.59033470475697,nan,355.3827455660503,nan,nan,nan,nan
1,93,1,1,1.0,1.0,0.51199373693089,0,0,1,6,2,5,7,nan,nan,nan,nan,nan,nan,nan,nan,nan,nan,nan,nan,0.0,nan,nan,nan,nan,nan,nan,nan,nan,nan,nan,nan,nan,nan,nan,nan,nan,nan,nan,204.36818036803743,355.59873917294317,nan,356.11073290987406,nan,nan,nan,nan
1,94,1,1,1.0,1.0,0.3038073133502621,0,6,3,8,7,4,2,nan,nan,nan,nan,nan,nan,nan,nan,nan,nan,nan,nan,0.0,nan,nan,nan,nan,nan,nan,nan,nan,nan,nan,nan,nan,nan,nan,nan,nan,nan,nan,204.36818036803743,356.5989167903608,nan,356.9027241037111,nan,nan,nan,nan
1,95,1,1,1.0,1.0,0.16732615089858882,0,7,8,6,4,2,5,nan,nan,nan,nan,nan,nan,nan,nan,nan,nan,nan,nan,0.0,nan,nan,nan,nan,nan,nan,nan,nan,nan,nan,nan,nan,nan,nan,nan,nan,nan,nan,204.36818036803743,357.6073962399096,nan,357.77472239080817,nan,nan,nan,nan
1,96,1,1,1.0,1.0,0.047197764564771205,0,5,2,0,7,3,6,nan,nan,nan,nan,nan,nan,nan,nan,nan,nan,nan,nan,0.0,nan,nan,nan,nan,nan,nan,nan,nan,nan,nan,nan,nan,nan,nan,nan,nan,nan,nan,204.36818036803743,358.6075251052098,nan,358.65472286977456,nan,nan,nan,nan
1,97,0,0,1.0,0.0,0.11871115333633497,0,0,8,7,3,1,4,nan,nan,nan,nan,nan,nan,nan,nan,nan,nan,nan,nan,0.0,nan,nan,nan,nan,nan,nan,nan,nan,nan,nan,nan,nan,nan,nan,nan,nan,nan,nan,204.36818036803743,359.61600826104404,nan,359.7347194143804,nan,nan,nan,nan
1,98,1,1,1.0,1.0,0.27856340300058946,0,8,5,3,7,2,1,nan,nan,nan,nan,nan,nan,nan,nan,nan,nan,nan,nan,0.0,nan,nan,nan,nan,nan,nan,nan,nan,nan,nan,nan,nan,nan,nan,nan,nan,nan,nan,204.36818036803743,360.6161299988162,nan,360.89469340181677,nan,nan,nan,nan
1,99,1,1,1.0,1.0,0.24642548520932905,0,4,3,5,2,0,7,nan,nan,nan,nan,nan,nan,nan,nan,nan,nan,nan,nan,0.0,nan,nan,nan,nan,nan,nan,nan,nan,nan,nan,nan,nan,nan,nan,nan,nan,nan,nan,204.36818036803743,361.6162728340132,nan,361.86269831922255,nan,nan,nan,nan
1,100,1,1,1.0,1.0,0.2539638190646656,0,5,0,4,7,8,2,nan,nan,nan,nan,nan,nan,nan,nan,nan,nan,nan,nan,0.0,nan,nan,nan,nan,nan,nan,nan,nan,nan,nan,nan,nan,nan,nan,nan,nan,nan,nan,204.36818036803743,362.6247280500538,nan,362.8786918691185,nan,nan,nan,nan
1,101,1,1,1.0,1.0,0.2778107385383919,0,4,6,2,8,3,0,nan,nan,nan,nan,nan,nan,nan,nan,nan,nan,nan,nan,0.0,nan,nan,nan,nan,nan,nan,nan,nan,nan,nan,nan,nan,nan,nan,nan,nan,nan,nan,204.36818036803743,363.62486689383513,nan,363.9026776323735,nan,nan,nan,nan
1,102,1,1,1.0,1.0,0.25331692676991224,0,7,8,0,1,4,5,nan,nan,nan,nan,nan,nan,nan,nan,nan,nan,nan,nan,0.0,nan,nan,nan,nan,nan,nan,nan,nan,nan,nan,nan,nan,nan,nan,nan,nan,nan,nan,204.36818036803743,364.6333449178783,nan,364.8866618446482,nan,nan,nan,nan
1,103,1,1,1.0,1.0,0.22914556332398206,0,2,4,3,6,7,1,nan,nan,nan,nan,nan,nan,nan,nan,nan,nan,nan,nan,0.0,nan,nan,nan,nan,nan,nan,nan,nan,nan,nan,nan,nan,nan,nan,nan,nan,nan,nan,204.36818036803743,365.63351426739246,nan,365.86265983071644,nan,nan,nan,nan
1,104,1,1,1.0,1.0,0.40468801630777307,0,1,2,6,3,4,8,nan,nan,nan,nan,nan,nan,nan,nan,nan,nan,nan,nan,0.0,nan,nan,nan,nan,nan,nan,nan,nan,nan,nan,nan,nan,nan,nan,nan,nan,nan,nan,204.36818036803743,366.6419489562104,nan,367.0466369725182,nan,nan,nan,nan
1,105,1,1,1.0,1.0,0.29220487640122883,0,3,4,8,6,2,1,nan,nan,nan,nan,nan,nan,nan,nan,nan,nan,nan,nan,0.0,nan,nan,nan,nan,nan,nan,nan,nan,nan,nan,nan,nan,nan,nan,nan,nan,nan,nan,204.36818036803743,367.65043667369173,nan,367.94264155009296,nan,nan,nan,nan
1,106,1,1,1.0,1.0,0.2757329283922445,0,6,8,5,1,7,2,nan,nan,nan,nan,nan,nan,nan,nan,nan,nan,nan,nan,0.0,nan,nan,nan,nan,nan,nan,nan,nan,nan,nan,nan,nan,nan,nan,nan,nan,nan,nan,204.36818036803743,368.65889074932784,nan,368.9346236777201,nan,nan,nan,nan
1,107,1,1,1.0,1.0,0.3392466912046075,0,1,2,8,3,0,6,nan,nan,nan,nan,nan,nan,nan,nan,nan,nan,nan,nan,0.0,nan,nan,nan,nan,nan,nan,nan,nan,nan,nan,nan,nan,nan,nan,nan,nan,nan,nan,204.36818036803743,369.66736706276424,nan,370.00661375396885,nan,nan,nan,nan
1,108,1,1,1.0,1.0,0.2990951775573194,0,2,6,4,0,7,1,nan,nan,nan,nan,nan,nan,nan,nan,nan,nan,nan,nan,0.0,nan,nan,nan,nan,nan,nan,nan,nan,nan,nan,nan,nan,nan,nan,nan,nan,nan,nan,204.36818036803743,370.6675067618489,nan,370.96660193940625,nan,nan,nan,nan
1,109,0,0,0.0,1.0,0.3946419412677642,0,1,0,8,2,6,3,nan,nan,nan,nan,nan,nan,nan,nan,nan,nan,nan,nan,0.0,nan,nan,nan,nan,nan,nan,nan,nan,nan,nan,nan,nan,nan,nan,nan,nan,nan,nan,204.36818036803743,371.6759676798829,nan,372.07060962115065,nan,nan,nan,nan
1,110,1,1,1.0,1.0,0.37049253049190156,0,7,8,0,3,4,5,nan,nan,nan,nan,nan,nan,nan,nan,nan,nan,nan,nan,0.0,nan,nan,nan,nan,nan,nan,nan,nan,nan,nan,nan,nan,nan,nan,nan,nan,nan,nan,204.36818036803743,372.67609711538535,nan,373.04658964587725,nan,nan,nan,nan
1,111,1,1,1.0,1.0,0.42596048113773577,0,3,1,4,0,6,2,nan,nan,nan,nan,nan,nan,nan,nan,nan,nan,nan,nan,0.0,nan,nan,nan,nan,nan,nan,nan,nan,nan,nan,nan,nan,nan,nan,nan,nan,nan,nan,204.36818036803743,373.6846224660403,nan,374.11058294717805,nan,nan,nan,nan
1,112,1,1,0.0,0.0,0.4335261845844798,0,5,4,1,6,0,7,nan,nan,nan,nan,nan,nan,nan,nan,nan,nan,nan,nan,0.0,nan,nan,nan,nan,nan,nan,nan,nan,nan,nan,nan,nan,nan,nan,nan,nan,nan,nan,204.36818036803743,374.69304575087153,nan,375.126571935456,nan,nan,nan,nan
1,113,1,1,1.0,1.0,0.4653784320107661,1,6,8,2,5,3,1,1.0,1.0,1.0,1.0,1.0,1.0,0.0,0.0,0.0,1.0,0.0,0.0,1.0,1.0,5.0,1.0,5.0,4.0,6.0,2.0,6.0,5.0,1.0,4.0,3.0,2.892489007266704,6.388665956386831,5.908799018361606,1.2389589966041967,4.70899368476239,3.92437461137888,204.36818036803743,375.6931837393495,376.5016049714468,376.15856217136024,383.9442971268436,384.9431054080778,377.51839708694024,383.9359545253683
1,114,1,1,nan,nan,nan,0,3,5,8,0,2,6,nan,nan,nan,nan,nan,nan,nan,nan,nan,nan,nan,nan,0.0,nan,nan,nan,nan,nan,nan,nan,nan,nan,nan,nan,nan,nan,nan,nan,nan,nan,nan,204.36818036803743,385.15281683253124,nan,nan,nan,nan,nan,nan
1,115,1,1,1.0,1.0,0.3574546141899191,0,8,0,4,6,5,3,nan,nan,nan,nan,nan,nan,nan,nan,nan,nan,nan,nan,0.0,nan,nan,nan,nan,nan,nan,nan,nan,nan,nan,nan,nan,nan,nan,nan,nan,nan,nan,204.36818036803743,386.15294911901583,nan,386.51040373320575,nan,nan,nan,nan
1,116,1,1,1.0,1.0,0.29294756238232367,0,2,3,0,1,6,5,nan,nan,nan,nan,nan,nan,nan,nan,nan,nan,nan,nan,0.0,nan,nan,nan,nan,nan,nan,nan,nan,nan,nan,nan,nan,nan,nan,nan,nan,nan,nan,204.36818036803743,387.1614758952055,nan,387.45442345758784,nan,nan,nan,nan
1,117,1,1,1.0,1.0,0.27655002553365193,0,0,4,7,6,8,1,nan,nan,nan,nan,nan,nan,nan,nan,nan,nan,nan,nan,0.0,nan,nan,nan,nan,nan,nan,nan,nan,nan,nan,nan,nan,nan,nan,nan,nan,nan,nan,204.36818036803743,388.1698678190005,nan,388.44641784453415,nan,nan,nan,nan
1,118,1,1,1.0,1.0,0.2680671547714155,0,3,8,2,7,6,0,nan,nan,nan,nan,nan,nan,nan,nan,nan,nan,nan,nan,0.0,nan,nan,nan,nan,nan,nan,nan,nan,nan,nan,nan,nan,nan,nan,nan,nan,nan,nan,204.36818036803743,389.17835582155385,nan,389.44642297632527,nan,nan,nan,nan
1,119,1,1,1.0,1.0,0.31560105248354375,0,8,0,4,1,7,6,nan,nan,nan,nan,nan,nan,nan,nan,nan,nan,nan,nan,0.0,nan,nan,nan,nan,nan,nan,nan,nan,nan,nan,nan,nan,nan,nan,nan,nan,nan,nan,204.36818036803743,390.18682700319914,nan,390.5024280556827,nan,nan,nan,nan
1,120,1,1,1.0,1.0,0.31543312847497873,0,7,2,8,3,5,1,nan,nan,nan,nan,nan,nan,nan,nan,nan,nan,nan,nan,0.0,nan,nan,nan,nan,nan,nan,nan,nan,nan,nan,nan,nan,nan,nan,nan,nan,nan,nan,204.36818036803743,391.1869809572818,nan,391.50241408575675,nan,nan,nan,nan
1,121,1,1,1.0,1.0,0.3549713916145265,0,8,4,3,7,0,5,nan,nan,nan,nan,nan,nan,nan,nan,nan,nan,nan,nan,0.0,nan,nan,nan,nan,nan,nan,nan,nan,nan,nan,nan,nan,nan,nan,nan,nan,nan,nan,204.36818036803743,392.1954450114281,nan,392.5504164030426,nan,nan,nan,nan
1,122,1,1,1.0,1.0,0.31448916177032515,0,3,1,0,5,8,6,nan,nan,nan,nan,nan,nan,nan,nan,nan,nan,nan,nan,0.0,nan,nan,nan,nan,nan,nan,nan,nan,nan,nan,nan,nan,nan,nan,nan,nan,nan,nan,204.36818036803743,393.20390079767094,nan,393.51838995944127,nan,nan,nan,nan
1,123,1,1,1.0,1.0,0.3863349773164373,0,8,3,6,1,4,5,nan,nan,nan,nan,nan,nan,nan,nan,nan,nan,nan,nan,0.0,nan,nan,nan,nan,nan,nan,nan,nan,nan,nan,nan,nan,nan,nan,nan,nan,nan,nan,204.36818036803743,394.2040501901647,nan,394.59038516748114,nan,nan,nan,nan
1,124,1,1,1.0,1.0,0.41785337240435183,0,1,0,8,2,5,6,nan,nan,nan,nan,nan,nan,nan,nan,nan,nan,nan,nan,0.0,nan,nan,nan,nan,nan,nan,nan,nan,nan,nan,nan,nan,nan,nan,nan,nan,nan,nan,204.36818036803743,395.21253049501684,nan,395.6303838674212,nan,nan,nan,nan
1,125,1,1,1.0,1.0,0.39369056196301244,0,2,6,4,1,3,7,nan,nan,nan,nan,nan,nan,nan,nan,nan,nan,nan,nan,0.0,nan,nan,nan,nan,nan,nan,nan,nan,nan,nan,nan,nan,nan,nan,nan,nan,nan,nan,204.36818036803743,396.21266933879815,nan,396.60635990076116,nan,nan,nan,nan
1,126,1,1,1.0,1.0,0.4815649946976919,0,5,3,0,2,4,1,nan,nan,nan,nan,nan,nan,nan,nan,nan,nan,nan,nan,0.0,nan,nan,nan,nan,nan,nan,nan,nan,nan,nan,nan,nan,nan,nan,nan,nan,nan,nan,204.36818036803743,397.21280533159734,nan,397.69437032629503,nan,nan,nan,nan
1,127,1,1,1.0,1.0,0.43311849134624936,0,8,0,2,7,3,4,nan,nan,nan,nan,nan,nan,nan,nan,nan,nan,nan,nan,0.0,nan,nan,nan,nan,nan,nan,nan,nan,nan,nan,nan,nan,nan,nan,nan,nan,nan,nan,204.36818036803743,398.221241731022,nan,398.65436022236827,nan,nan,nan,nan
1,128,1,1,1.0,1.0,0.4569443133659661,0,4,5,7,2,0,1,nan,nan,nan,nan,nan,nan,nan,nan,nan,nan,nan,nan,0.0,nan,nan,nan,nan,nan,nan,nan,nan,nan,nan,nan,nan,nan,nan,nan,nan,nan,nan,204.36818036803743,399.2214096550306,nan,399.67835396839655,nan,nan,nan,nan
1,129,1,1,1.0,1.0,0.48044255530112423,0,3,0,5,1,2,7,nan,nan,nan,nan,nan,nan,nan,nan,nan,nan,nan,nan,0.0,nan,nan,nan,nan,nan,nan,nan,nan,nan,nan,nan,nan,nan,nan,nan,nan,nan,nan,204.36818036803743,400.22988197708037,nan,400.7103245323815,nan,nan,nan,nan
1,130,1,1,1.0,1.0,0.43196098459884524,0,2,3,6,5,8,0,nan,nan,nan,nan,nan,nan,nan,nan,nan,nan,nan,nan,0.0,nan,nan,nan,nan,nan,nan,nan,nan,nan,nan,nan,nan,nan,nan,nan,nan,nan,nan,204.36818036803743,401.23835829051677,nan,401.6703192751156,nan,nan,nan,nan
1,131,1,1,1.0,1.0,0.5194967183633707,0,3,5,0,1,7,4,nan,nan,nan,nan,nan,nan,nan,nan,nan,nan,nan,nan,0.0,nan,nan,nan,nan,nan,nan,nan,nan,nan,nan,nan,nan,nan,nan,nan,nan,nan,nan,204.36818036803743,402.24681806814624,nan,402.7663147865096,nan,nan,nan,nan
1,132,1,1,1.0,1.0,0.4710108711733483,0,1,4,3,0,5,6,nan,nan,nan,nan,nan,nan,nan,nan,nan,nan,nan,nan,0.0,nan,nan,nan,nan,nan,nan,nan,nan,nan,nan,nan,nan,nan,nan,nan,nan,nan,nan,204.36818036803743,403.25528924979153,nan,403.7263001209649,nan,nan,nan,nan
1,133,1,1,1.0,1.0,0.5748617477947846,0,2,8,6,5,3,7,nan,nan,nan,nan,nan,nan,nan,nan,nan,nan,nan,nan,0.0,nan,nan,nan,nan,nan,nan,nan,nan,nan,nan,nan,nan,nan,nan,nan,nan,nan,nan,204.36818036803743,404.25542923397734,nan,404.8302909817721,nan,nan,nan,nan
1,134,1,1,1.0,1.0,0.6063613262667786,0,7,5,1,3,4,6,nan,nan,nan,nan,nan,nan,nan,nan,nan,nan,nan,nan,0.0,nan,nan,nan,nan,nan,nan,nan,nan,nan,nan,nan,nan,nan,nan,nan,nan,nan,nan,204.36818036803743,405.26390412193723,nan,405.870265448204,nan,nan,nan,nan
1,135,1,1,1.0,1.0,0.6142289508425165,0,3,1,0,6,5,4,nan,nan,nan,nan,nan,nan,nan,nan,nan,nan,nan,nan,0.0,nan,nan,nan,nan,nan,nan,nan,nan,nan,nan,nan,nan,nan,nan,nan,nan,nan,nan,204.36818036803743,406.26403555311845,nan,406.87826450396096,nan,nan,nan,nan
1,136,1,1,1.0,1.0,0.6540768327831756,0,0,7,6,5,2,8,nan,nan,nan,nan,nan,nan,nan,nan,nan,nan,nan,nan,0.0,nan,nan,nan,nan,nan,nan,nan,nan,nan,nan,nan,nan,nan,nan,nan,nan,nan,nan,204.36818036803743,407.26418038402335,nan,407.9182572168065,nan,nan,nan,nan
1,137,1,1,1.0,1.0,0.6619319129385985,0,3,6,5,1,8,0,nan,nan,nan,nan,nan,nan,nan,nan,nan,nan,nan,nan,0.0,nan,nan,nan,nan,nan,nan,nan,nan,nan,nan,nan,nan,nan,nan,nan,nan,nan,nan,204.36818036803743,408.26431894270354,nan,408.92625085564214,nan,nan,nan,nan
1,138,0,0,0.0,1.0,0.7577820232254453,0,8,5,0,6,1,3,nan,nan,nan,nan,nan,nan,nan,nan,nan,nan,nan,nan,0.0,nan,nan,nan,nan,nan,nan,nan,nan,nan,nan,nan,nan,nan,nan,nan,nan,nan,nan,204.36818036803743,409.2644609225972,nan,410.02224294582265,nan,nan,nan,nan
1,139,1,1,1.0,1.0,0.6616602124995552,0,2,6,5,8,3,0,nan,nan,nan,nan,nan,nan,nan,nan,nan,nan,nan,nan,0.0,nan,nan,nan,nan,nan,nan,nan,nan,nan,nan,nan,nan,nan,nan,nan,nan,nan,nan,204.36818036803743,410.26458636665484,nan,410.9262465791544,nan,nan,nan,nan
1,140,1,1,1.0,1.0,0.7414928244543262,0,6,0,1,3,7,4,nan,nan,nan,nan,nan,nan,nan,nan,nan,nan,nan,nan,0.0,nan,nan,nan,nan,nan,nan,nan,nan,nan,nan,nan,nan,nan,nan,nan,nan,nan,nan,204.36818036803743,411.26473889526096,nan,412.0062317197153,nan,nan,nan,nan
1,141,1,1,1.0,1.0,0.6690254905261099,0,1,4,2,7,8,0,nan,nan,nan,nan,nan,nan,nan,nan,nan,nan,nan,nan,0.0,nan,nan,nan,nan,nan,nan,nan,nan,nan,nan,nan,nan,nan,nan,nan,nan,nan,nan,204.36818036803743,412.2731835625891,nan,412.9422090531152,nan,nan,nan,nan
1,142,1,1,1.0,1.0,0.6448683820781298,0,2,3,6,5,4,1,nan,nan,nan,nan,nan,nan,nan,nan,nan,nan,nan,nan,0.0,nan,nan,nan,nan,nan,nan,nan,nan,nan,nan,nan,nan,nan,nan,nan,nan,nan,nan,204.36818036803743,413.2733195553883,nan,413.9181879374664,nan,nan,nan,nan
1,143,1,1,1.0,1.0,0.6364054683363065,0,0,2,7,8,3,5,nan,nan,nan,nan,nan,nan,nan,nan,nan,nan,nan,nan,0.0,nan,nan,nan,nan,nan,nan,nan,nan,nan,nan,nan,nan,nan,nan,nan,nan,nan,nan,204.36818036803743,414.28179159233696,nan,414.91819706067326,nan,nan,nan,nan
1,144,1,1,1.0,1.0,0.508257784153102,0,4,6,0,3,1,7,nan,nan,nan,nan,nan,nan,nan,nan,nan,nan,nan,nan,0.0,nan,nan,nan,nan,nan,nan,nan,nan,nan,nan,nan,nan,nan,nan,nan,nan,nan,nan,204.36818036803743,415.2819332871295,nan,415.7901910712826,nan,nan,nan,nan
1,145,0,0,0.0,1.0,0.4600929597800132,0,2,3,7,8,6,5,nan,nan,nan,nan,nan,nan,nan,nan,nan,nan,nan,nan,0.0,nan,nan,nan,nan,nan,nan,nan,nan,nan,nan,nan,nan,nan,nan,nan,nan,nan,nan,204.36818036803743,416.2820858157065,nan,416.74217877548654,nan,nan,nan,nan
1,146,1,1,1.0,1.0,0.4279519058763981,0,7,5,1,0,8,3,nan,nan,nan,nan,nan,nan,nan,nan,nan,nan,nan,nan,0.0,nan,nan,nan,nan,nan,nan,nan,nan,nan,nan,nan,nan,nan,nan,nan,nan,nan,nan,204.36818036803743,417.2822078385798,nan,417.7101597444562,nan,nan,nan,nan
1,147,1,1,1.0,1.0,0.37146700292942114,0,0,3,6,4,5,2,nan,nan,nan,nan,nan,nan,nan,nan,nan,nan,nan,nan,0.0,nan,nan,nan,nan,nan,nan,nan,nan,nan,nan,nan,nan,nan,nan,nan,nan,nan,nan,204.36818036803743,418.2906832967419,nan,418.66215029967134,nan,nan,nan,nan
1,148,0,0,0.0,1.0,0.4833086674043443,0,1,2,3,0,7,6,nan,nan,nan,nan,nan,nan,nan,nan,nan,nan,nan,nan,0.0,nan,nan,nan,nan,nan,nan,nan,nan,nan,nan,nan,nan,nan,nan,nan,nan,nan,nan,204.36818036803743,419.29083354453905,nan,419.7741422119434,nan,nan,nan,nan
1,149,1,1,1.0,1.0,0.33118092198856175,0,0,4,5,7,6,8,nan,nan,nan,nan,nan,nan,nan,nan,nan,nan,nan,nan,0.0,nan,nan,nan,nan,nan,nan,nan,nan,nan,nan,nan,nan,nan,nan,nan,nan,nan,nan,204.36818036803743,420.2909589886258,nan,420.62213991061435,nan,nan,nan,nan
1,150,1,1,1.0,1.0,0.3310474951285869,0,7,8,6,0,1,2,nan,nan,nan,nan,nan,nan,nan,nan,nan,nan,nan,nan,0.0,nan,nan,nan,nan,nan,nan,nan,nan,nan,nan,nan,nan,nan,nan,nan,nan,nan,nan,204.36818036803743,421.29108842409914,nan,421.62213591922773,nan,nan,nan,nan
1,151,1,1,1.0,1.0,0.3228785196552053,0,3,4,8,5,7,0,nan,nan,nan,nan,nan,nan,nan,nan,nan,nan,nan,nan,0.0,nan,nan,nan,nan,nan,nan,nan,nan,nan,nan,nan,nan,nan,nan,nan,nan,nan,nan,204.36818036803743,422.2912361059862,nan,422.6141146256414,nan,nan,nan,nan
1,152,1,1,1.0,1.0,0.32275421600206755,0,4,2,7,0,3,8,nan,nan,nan,nan,nan,nan,nan,nan,nan,nan,nan,nan,0.0,nan,nan,nan,nan,nan,nan,nan,nan,nan,nan,nan,nan,nan,nan,nan,nan,nan,nan,204.36818036803743,423.2913678222685,nan,423.6141220382706,nan,nan,nan,nan
1,153,1,1,1.0,1.0,0.3785979286185466,0,1,4,5,6,0,7,nan,nan,nan,nan,nan,nan,nan,nan,nan,nan,nan,nan,0.0,nan,nan,nan,nan,nan,nan,nan,nan,nan,nan,nan,nan,nan,nan,nan,nan,nan,nan,204.36818036803743,424.2915126531734,nan,424.67011058179196,nan,nan,nan,nan
1,154,0,0,1.0,0.0,0.3624484289321117,0,0,3,6,1,2,5,nan,nan,nan,nan,nan,nan,nan,nan,nan,nan,nan,nan,0.0,nan,nan,nan,nan,nan,nan,nan,nan,nan,nan,nan,nan,nan,nan,nan,nan,nan,nan,204.36818036803743,425.2916437992535,nan,425.6540922281856,nan,nan,nan,nan
1,155,1,1,1.0,1.0,0.3782478256034665,0,8,7,2,5,4,1,nan,nan,nan,nan,nan,nan,nan,nan,nan,nan,nan,nan,0.0,nan,nan,nan,nan,nan,nan,nan,nan,nan,nan,nan,nan,nan,nan,nan,nan,nan,nan,204.36818036803743,426.2918430842692,nan,426.67009090987267,nan,nan,nan,nan
1,156,1,1,1.0,1.0,0.3777967971400358,0,4,5,6,7,1,8,nan,nan,nan,nan,nan,nan,nan,nan,nan,nan,nan,nan,0.0,nan,nan,nan,nan,nan,nan,nan,nan,nan,nan,nan,nan,nan,nan,nan,nan,nan,nan,204.36818036803743,427.300253539579,nan,427.678050336719,nan,nan,nan,nan
1,157,1,1,1.0,1.0,0.3056655963009689,0,7,1,5,0,4,2,nan,nan,nan,nan,nan,nan,nan,nan,nan,nan,nan,nan,0.0,nan,nan,nan,nan,nan,nan,nan,nan,nan,nan,nan,nan,nan,nan,nan,nan,nan,nan,204.36818036803743,428.3003938088659,nan,428.6060594051669,nan,nan,nan,nan
1,158,1,1,1.0,1.0,0.32919919065898284,0,6,0,1,4,5,7,nan,nan,nan,nan,nan,nan,nan,nan,nan,nan,nan,nan,0.0,nan,nan,nan,nan,nan,nan,nan,nan,nan,nan,nan,nan,nan,nan,nan,nan,nan,nan,204.36818036803743,429.3088598587201,nan,429.6380590493791,nan,nan,nan,nan
1,159,1,1,1.0,1.0,0.3450248165463563,0,5,6,0,2,3,1,nan,nan,nan,nan,nan,nan,nan,nan,nan,nan,nan,nan,0.0,nan,nan,nan,nan,nan,nan,nan,nan,nan,nan,nan,nan,nan,nan,nan,nan,nan,nan,204.36818036803743,430.30900411939365,nan,430.65402893594,nan,nan,nan,nan
1,160,1,1,1.0,1.0,0.2725500700180419,0,1,4,7,3,8,2,nan,nan,nan,nan,nan,nan,nan,nan,nan,nan,nan,nan,0.0,nan,nan,nan,nan,nan,nan,nan,nan,nan,nan,nan,nan,nan,nan,nan,nan,nan,nan,204.36818036803743,431.31746788843884,nan,431.5900179584569,nan,nan,nan,nan
1,161,0,0,1.0,0.0,0.31207664404064417,0,4,3,5,8,6,0,nan,nan,nan,nan,nan,nan,nan,nan,nan,nan,nan,nan,0.0,nan,nan,nan,nan,nan,nan,nan,nan,nan,nan,nan,nan,nan,nan,nan,nan,nan,nan,204.36818036803743,432.32593194258516,nan,432.6380085866258,nan,nan,nan,nan
1,162,1,1,1.0,1.0,0.35160293299122714,0,8,4,0,3,7,5,nan,nan,nan,nan,nan,nan,nan,nan,nan,nan,nan,nan,0.0,nan,nan,nan,nan,nan,nan,nan,nan,nan,nan,nan,nan,nan,nan,nan,nan,nan,nan,204.36818036803743,433.33440312423045,nan,433.6860060572217,nan,nan,nan,nan
1,163,0,0,1.0,0.0,0.30312877491815016,0,0,7,6,1,5,8,nan,nan,nan,nan,nan,nan,nan,nan,nan,nan,nan,nan,0.0,nan,nan,nan,nan,nan,nan,nan,nan,nan,nan,nan,nan,nan,nan,nan,nan,nan,nan,204.36818036803743,434.3428723101679,nan,434.646001085086,nan,nan,nan,nan
1,164,1,1,1.0,1.0,0.3269494651176501,0,5,4,7,0,6,3,nan,nan,nan,nan,nan,nan,nan,nan,nan,nan,nan,nan,0.0,nan,nan,nan,nan,nan,nan,nan,nan,nan,nan,nan,nan,nan,nan,nan,nan,nan,nan,204.36818036803743,435.3430282599875,nan,435.6699777251051,nan,nan,nan,nan
1,165,1,1,1.0,1.0,0.31883294813451357,0,0,1,2,7,4,5,nan,nan,nan,nan,nan,nan,nan,nan,nan,nan,nan,nan,0.0,nan,nan,nan,nan,nan,nan,nan,nan,nan,nan,nan,nan,nan,nan,nan,nan,nan,nan,204.36818036803743,436.3431522785395,nan,436.661985226674,nan,nan,nan,nan
1,166,1,1,1.0,1.0,0.17468116534291767,0,4,3,5,6,8,0,nan,nan,nan,nan,nan,nan,nan,nan,nan,nan,nan,nan,0.0,nan,nan,nan,nan,nan,nan,nan,nan,nan,nan,nan,nan,nan,nan,nan,nan,nan,nan,204.36818036803743,437.34329682434327,nan,437.5179779896862,nan,nan,nan,nan
1,167,1,1,nan,nan,nan,0,5,2,1,4,3,8,nan,nan,nan,nan,nan,nan,nan,nan,nan,nan,nan,nan,0.0,nan,nan,nan,nan,nan,nan,nan,nan,nan,nan,nan,nan,nan,nan,nan,nan,nan,nan,204.36818036803743,438.3434333873156,nan,nan,nan,nan,nan,nan
1,168,1,1,nan,nan,nan,0,4,7,6,0,8,1,nan,nan,nan,nan,nan,nan,nan,nan,nan,nan,nan,nan,0.0,nan,nan,nan,nan,nan,nan,nan,nan,nan,nan,nan,nan,nan,nan,nan,nan,nan,nan,204.36818036803743,439.3519131219946,nan,nan,nan,nan,nan,nan
1,169,1,1,1.0,1.0,0.6775585388822947,0,6,4,7,5,1,2,nan,nan,nan,nan,nan,nan,nan,nan,nan,nan,nan,nan,0.0,nan,nan,nan,nan,nan,nan,nan,nan,nan,nan,nan,nan,nan,nan,nan,nan,nan,nan,204.36818036803743,440.36036691252957,nan,441.03792545141187,nan,nan,nan,nan
1,170,0,0,0.0,1.0,0.5731023945845664,0,2,6,1,8,0,3,nan,nan,nan,nan,nan,nan,nan,nan,nan,nan,nan,nan,0.0,nan,nan,nan,nan,nan,nan,nan,nan,nan,nan,nan,nan,nan,nan,nan,nan,nan,nan,204.36818036803743,441.3688437961682,nan,441.9419461907528,nan,nan,nan,nan
1,171,1,1,1.0,1.0,0.4686240124574397,0,5,4,7,1,3,8,nan,nan,nan,nan,nan,nan,nan,nan,nan,nan,nan,nan,0.0,nan,nan,nan,nan,nan,nan,nan,nan,nan,nan,nan,nan,nan,nan,nan,nan,nan,nan,204.36818036803743,442.3773058546067,nan,442.8459298670641,nan,nan,nan,nan
1,172,1,1,1.0,1.0,0.3884555524564348,0,6,8,0,7,5,4,nan,nan,nan,nan,nan,nan,nan,nan,nan,nan,nan,nan,0.0,nan,nan,nan,nan,nan,nan,nan,nan,nan,nan,nan,nan,nan,nan,nan,nan,nan,nan,204.36818036803743,443.3774575279094,nan,443.76591308036586,nan,nan,nan,nan
1,173,1,1,1.0,1.0,0.4279818414070178,0,8,2,3,6,1,0,nan,nan,nan,nan,nan,nan,nan,nan,nan,nan,nan,nan,0.0,nan,nan,nan,nan,nan,nan,nan,nan,nan,nan,nan,nan,nan,nan,nan,nan,nan,nan,204.36818036803743,444.3859232926334,nan,444.8139051340404,nan,nan,nan,nan
1,174,1,1,1.0,1.0,0.3958376514201518,0,0,1,7,8,4,3,nan,nan,nan,nan,nan,nan,nan,nan,nan,nan,nan,nan,0.0,nan,nan,nan,nan,nan,nan,nan,nan,nan,nan,nan,nan,nan,nan,nan,nan,nan,nan,204.36818036803743,445.3860584301292,nan,445.78189608154935,nan,nan,nan,nan
1,175,1,1,1.0,1.0,0.3077052029839251,0,4,0,5,6,7,2,nan,nan,nan,nan,nan,nan,nan,nan,nan,nan,nan,nan,0.0,nan,nan,nan,nan,nan,nan,nan,nan,nan,nan,nan,nan,nan,nan,nan,nan,nan,nan,204.36818036803743,446.3861833040137,nan,446.6938885069976,nan,nan,nan,nan
1,176,1,1,1.0,1.0,0.2352047974418383,1,6,4,8,7,3,0,1.0,1.0,1.0,1.0,1.0,1.0,1.0,0.0,0.0,1.0,1.0,1.0,4.0,6.0,8.0,1.0,7.0,3.0,0.0,2.0,6.0,5.0,1.0,3.0,4.0,3.3187106401310302,10.870512915193103,10.126993598649278,1.2483849787677173,4.456341896700906,5.951852851809235,204.36818036803743,447.39467786386376,448.2030959598487,447.6298826613056,460.12139138008934,461.1172411767766,449.2115691372019,460.113055621041
1,177,0,0,0.0,1.0,0.4761124537908472,0,7,1,3,2,5,4,nan,nan,nan,nan,nan,nan,nan,nan,nan,nan,nan,nan,0.0,nan,nan,nan,nan,nan,nan,nan,nan,nan,nan,nan,nan,nan,nan,nan,nan,nan,nan,204.36818036803743,461.3216257894528,nan,461.79773824324366,nan,nan,nan,nan
1,178,1,1,1.0,1.0,0.475638617266668,1,2,5,0,4,1,8,1.0,1.0,1.0,1.0,1.0,1.0,1.0,0.0,0.0,1.0,0.0,1.0,3.0,2.0,1.0,1.0,4.0,7.0,8.0,2.0,6.0,5.0,1.0,4.0,3.0,1.8956125648401212,6.966515554086072,6.359101637935964,0.8629646028275602,3.558792931464268,2.7360864697548095,204.36818036803743,462.33008642241475,463.1384697361791,462.8057250396814,471.16455640262575,472.1619733950065,464.1552869404841,471.1562303369865
1,179,1,1,1.0,1.0,0.640543982561212,0,0,8,4,5,2,1,nan,nan,nan,nan,nan,nan,nan,nan,nan,nan,nan,nan,0.0,nan,nan,nan,nan,nan,nan,nan,nan,nan,nan,nan,nan,nan,nan,nan,nan,nan,nan,204.36818036803743,472.3730909335427,nan,473.0136349161039,nan,nan,nan,nan
1,180,1,1,1.0,1.0,0.3843925897963345,0,3,5,8,7,0,6,nan,nan,nan,nan,nan,nan,nan,nan,nan,nan,nan,nan,0.0,nan,nan,nan,nan,nan,nan,nan,nan,nan,nan,nan,nan,nan,nan,nan,nan,nan,nan,204.36818036803743,473.37324260684545,nan,473.7576351966418,nan,nan,nan,nan
1,181,1,1,1.0,1.0,0.20793468010379001,0,8,2,0,1,5,7,nan,nan,nan,nan,nan,nan,nan,nan,nan,nan,nan,nan,0.0,nan,nan,nan,nan,nan,nan,nan,nan,nan,nan,nan,nan,nan,nan,nan,nan,nan,nan,204.36818036803743,474.38169041028596,nan,474.58962509038975,nan,nan,nan,nan
1,182,1,1,nan,nan,nan,0,3,6,5,0,8,2,nan,nan,nan,nan,nan,nan,nan,nan,nan,nan,nan,nan,0.0,nan,nan,nan,nan,nan,nan,nan,nan,nan,nan,nan,nan,nan,nan,nan,nan,nan,nan,204.36818036803743,475.38182782856165,nan,nan,nan,nan,nan,nan
1,183,1,1,nan,nan,nan,0,0,2,1,8,4,3,nan,nan,nan,nan,nan,nan,nan,nan,nan,nan,nan,nan,0.0,nan,nan,nan,nan,nan,nan,nan,nan,nan,nan,nan,nan,nan,nan,nan,nan,nan,nan,204.36818036803743,476.39028789129225,nan,nan,nan,nan,nan,nan
1,184,1,1,1.0,1.0,0.03916848820517771,0,7,0,6,4,8,2,nan,nan,nan,nan,nan,nan,nan,nan,nan,nan,nan,nan,0.0,nan,nan,nan,nan,nan,nan,nan,nan,nan,nan,nan,nan,nan,nan,nan,nan,nan,nan,204.36818036803743,477.3904435560107,nan,477.4296120442159,nan,nan,nan,nan
1,185,1,1,1.0,1.0,0.3349830179940909,0,0,7,3,6,5,8,nan,nan,nan,nan,nan,nan,nan,nan,nan,nan,nan,nan,0.0,nan,nan,nan,nan,nan,nan,nan,nan,nan,nan,nan,nan,nan,nan,nan,nan,nan,nan,204.36818036803743,478.39060834390693,nan,478.725591361901,nan,nan,nan,nan
1,186,1,1,1.0,1.0,0.3025531576422509,0,1,2,0,5,6,4,nan,nan,nan,nan,nan,nan,nan,nan,nan,nan,nan,nan,0.0,nan,nan,nan,nan,nan,nan,nan,nan,nan,nan,nan,nan,nan,nan,nan,nan,nan,nan,204.36818036803743,479.3990213650977,nan,479.70157452274,nan,nan,nan,nan
1,187,0,0,1.0,0.0,0.2303965829196386,0,2,8,3,6,7,5,nan,nan,nan,nan,nan,nan,nan,nan,nan,nan,nan,nan,0.0,nan,nan,nan,nan,nan,nan,nan,nan,nan,nan,nan,nan,nan,nan,nan,nan,nan,nan,204.36818036803743,480.39918273180956,nan,480.6295793147292,nan,nan,nan,nan
1,188,1,1,1.0,1.0,0.2622208904940635,0,4,1,5,0,3,2,nan,nan,nan,nan,nan,nan,nan,nan,nan,nan,nan,nan,0.0,nan,nan,nan,nan,nan,nan,nan,nan,nan,nan,nan,nan,nan,nan,nan,nan,nan,nan,204.36818036803743,481.39934124751016,nan,481.66156213800423,nan,nan,nan,nan
1,189,1,1,1.0,1.0,0.2701010594610125,0,3,0,4,8,7,1,nan,nan,nan,nan,nan,nan,nan,nan,nan,nan,nan,nan,0.0,nan,nan,nan,nan,nan,nan,nan,nan,nan,nan,nan,nan,nan,nan,nan,nan,nan,nan,204.36818036803743,482.39944987068884,nan,482.66955093014985,nan,nan,nan,nan
1,190,1,1,1.0,1.0,0.29361612227512524,0,4,6,5,0,8,7,nan,nan,nan,nan,nan,nan,nan,nan,nan,nan,nan,nan,0.0,nan,nan,nan,nan,nan,nan,nan,nan,nan,nan,nan,nan,nan,nan,nan,nan,nan,nan,204.36818036803743,483.4079316010466,nan,483.7015477233217,nan,nan,nan,nan
1,191,1,1,1.0,1.0,0.3334500343480613,0,8,1,3,2,7,5,nan,nan,nan,nan,nan,nan,nan,nan,nan,nan,nan,nan,0.0,nan,nan,nan,nan,nan,nan,nan,nan,nan,nan,nan,nan,nan,nan,nan,nan,nan,nan,204.36818036803743,484.4080875508371,nan,484.74153758518514,nan,nan,nan,nan
1,192,1,1,1.0,1.0,0.30097626853967085,0,1,4,5,7,8,0,nan,nan,nan,nan,nan,nan,nan,nan,nan,nan,nan,nan,0.0,nan,nan,nan,nan,nan,nan,nan,nan,nan,nan,nan,nan,nan,nan,nan,nan,nan,nan,204.36818036803743,485.4165416264732,nan,485.71751789501286,nan,nan,nan,nan
1,193,1,1,1.0,1.0,0.3168312597554177,0,6,5,4,2,1,8,nan,nan,nan,nan,nan,nan,nan,nan,nan,nan,nan,nan,0.0,nan,nan,nan,nan,nan,nan,nan,nan,nan,nan,nan,nan,nan,nan,nan,nan,nan,nan,204.36818036803743,486.41668588714674,nan,486.73351714690216,nan,nan,nan,nan
1,194,1,1,1.0,1.0,0.37266328328405507,0,0,7,6,3,5,1,nan,nan,nan,nan,nan,nan,nan,nan,nan,nan,nan,nan,0.0,nan,nan,nan,nan,nan,nan,nan,nan,nan,nan,nan,nan,nan,nan,nan,nan,nan,nan,204.36818036803743,487.416831573355,nan,487.78949485663907,nan,nan,nan,nan
1,195,1,1,1.0,1.0,0.36421148845693097,0,1,4,5,6,8,2,nan,nan,nan,nan,nan,nan,nan,nan,nan,nan,nan,nan,0.0,nan,nan,nan,nan,nan,nan,nan,nan,nan,nan,nan,nan,nan,nan,nan,nan,nan,nan,204.36818036803743,488.4252827979799,nan,488.7894942864368,nan,nan,nan,nan
1,196,1,1,1.0,1.0,0.33174912666436285,0,6,2,8,0,4,3,nan,nan,nan,nan,nan,nan,nan,nan,nan,nan,nan,nan,0.0,nan,nan,nan,nan,nan,nan,nan,nan,nan,nan,nan,nan,nan,nan,nan,nan,nan,nan,204.36818036803743,489.43373145672376,nan,489.7654805833881,nan,nan,nan,nan
1,197,1,1,1.0,1.0,0.41954230586998165,0,4,8,5,7,2,1,nan,nan,nan,nan,nan,nan,nan,nan,nan,nan,nan,nan,0.0,nan,nan,nan,nan,nan,nan,nan,nan,nan,nan,nan,nan,nan,nan,nan,nan,nan,nan,204.36818036803743,490.4339495583554,nan,490.85349186422536,nan,nan,nan,nan
1,198,1,1,1.0,1.0,0.4194333975901827,0,6,2,0,4,1,5,nan,nan,nan,nan,nan,nan,nan,nan,nan,nan,nan,nan,0.0,nan,nan,nan,nan,nan,nan,nan,nan,nan,nan,nan,nan,nan,nan,nan,nan,nan,nan,204.36818036803743,491.43402967150905,nan,491.85346306909923,nan,nan,nan,nan
1,199,1,1,1.0,1.0,0.29099206026876345,0,5,8,2,1,7,6,nan,nan,nan,nan,nan,nan,nan,nan,nan,nan,nan,nan,0.0,nan,nan,nan,nan,nan,nan,nan,nan,nan,nan,nan,nan,nan,nan,nan,nan,nan,nan,204.36818036803743,492.44247006232035,nan,492.7334621225891,nan,nan,nan,nan
1,200,1,1,1.0,1.0,0.3148019166546874,0,7,5,4,2,6,0,nan,nan,nan,nan,nan,nan,nan,nan,nan,nan,nan,nan,0.0,nan,nan,nan,nan,nan,nan,nan,nan,nan,nan,nan,nan,nan,nan,nan,nan,nan,nan,204.36818036803743,493.4426511009515,nan,493.75745301760617,nan,nan,nan,nan
1,201,1,1,1.0,1.0,0.33061670875758864,0,8,4,5,7,3,6,nan,nan,nan,nan,nan,nan,nan,nan,nan,nan,nan,nan,0.0,nan,nan,nan,nan,nan,nan,nan,nan,nan,nan,nan,nan,nan,nan,nan,nan,nan,nan,204.36818036803743,494.4428138931398,nan,494.7734306018974,nan,nan,nan,nan
1,202,1,1,1.0,1.0,0.25048303097719327,0,6,3,0,5,2,4,nan,nan,nan,nan,nan,nan,nan,nan,nan,nan,nan,nan,0.0,nan,nan,nan,nan,nan,nan,nan,nan,nan,nan,nan,nan,nan,nan,nan,nan,nan,nan,204.36818036803743,495.4429347756377,nan,495.6934178066149,nan,nan,nan,nan
1,203,1,1,1.0,1.0,0.402384406857891,0,0,5,2,8,1,3,nan,nan,nan,nan,nan,nan,nan,nan,nan,nan,nan,nan,0.0,nan,nan,nan,nan,nan,nan,nan,nan,nan,nan,nan,nan,nan,nan,nan,nan,nan,nan,204.36818036803743,496.44302686298033,nan,496.8454112698382,nan,nan,nan,nan
1,204,1,1,1.0,1.0,0.3222096746612806,0,7,3,8,0,2,6,nan,nan,nan,nan,nan,nan,nan,nan,nan,nan,nan,nan,0.0,nan,nan,nan,nan,nan,nan,nan,nan,nan,nan,nan,nan,nan,nan,nan,nan,nan,nan,204.36818036803743,497.44320048898226,nan,497.76541016364354,nan,nan,nan,nan
1,205,1,1,1.0,1.0,0.4576841483358294,0,5,0,2,4,7,1,nan,nan,nan,nan,nan,nan,nan,nan,nan,nan,nan,nan,0.0,nan,nan,nan,nan,nan,nan,nan,nan,nan,nan,nan,nan,nan,nan,nan,nan,nan,nan,204.36818036803743,498.45171386547736,nan,498.9093980138132,nan,nan,nan,nan
1,206,1,1,1.0,1.0,0.39359562360914424,0,7,4,5,6,0,3,nan,nan,nan,nan,nan,nan,nan,nan,nan,nan,nan,nan,0.0,nan,nan,nan,nan,nan,nan,nan,nan,nan,nan,nan,nan,nan,nan,nan,nan,nan,nan,204.36818036803743,499.45177801299724,nan,499.8453736366064,nan,nan,nan,nan
1,207,1,1,1.0,1.0,0.4174237264378462,0,8,1,3,2,7,0,nan,nan,nan,nan,nan,nan,nan,nan,nan,nan,nan,nan,0.0,nan,nan,nan,nan,nan,nan,nan,nan,nan,nan,nan,nan,nan,nan,nan,nan,nan,nan,204.36818036803743,500.4519473625114,nan,500.86937108894926,nan,nan,nan,nan
1,208,1,1,1.0,1.0,0.47327000499353744,0,6,7,5,8,3,1,nan,nan,nan,nan,nan,nan,nan,nan,nan,nan,nan,nan,0.0,nan,nan,nan,nan,nan,nan,nan,nan,nan,nan,nan,nan,nan,nan,nan,nan,nan,nan,204.36818036803743,501.4520856360905,nan,501.925355641084,nan,nan,nan,nan
1,209,1,1,1.0,1.0,0.5131672092538793,0,8,1,7,0,4,6,nan,nan,nan,nan,nan,nan,nan,nan,nan,nan,nan,nan,0.0,nan,nan,nan,nan,nan,nan,nan,nan,nan,nan,nan,nan,nan,nan,nan,nan,nan,nan,204.36818036803743,502.45218684666906,nan,502.96535405592294,nan,nan,nan,nan
1,210,0,0,0.0,1.0,0.49668756357277744,0,0,4,8,2,3,1,nan,nan,nan,nan,nan,nan,nan,nan,nan,nan,nan,nan,0.0,nan,nan,nan,nan,nan,nan,nan,nan,nan,nan,nan,nan,nan,nan,nan,nan,nan,nan,204.36818036803743,503.4607090612408,nan,503.95739662481355,nan,nan,nan,nan
1,211,1,1,1.0,1.0,0.3522235960990656,0,2,3,6,5,4,0,nan,nan,nan,nan,nan,nan,nan,nan,nan,nan,nan,nan,0.0,nan,nan,nan,nan,nan,nan,nan,nan,nan,nan,nan,nan,nan,nan,nan,nan,nan,nan,204.36818036803743,504.46910811253474,nan,504.8213317086338,nan,nan,nan,nan
1,212,1,1,1.0,1.0,0.3276713388040662,0,1,0,8,6,5,4,nan,nan,nan,nan,nan,nan,nan,nan,nan,nan,nan,nan,0.0,nan,nan,nan,nan,nan,nan,nan,nan,nan,nan,nan,nan,nan,nan,nan,nan,nan,nan,204.36818036803743,505.4776582669292,nan,505.8053296057333,nan,nan,nan,nan
1,213,0,0,1.0,0.0,0.2872275974659715,0,0,6,1,7,2,5,nan,nan,nan,nan,nan,nan,nan,nan,nan,nan,nan,nan,0.0,nan,nan,nan,nan,nan,nan,nan,nan,nan,nan,nan,nan,nan,nan,nan,nan,nan,nan,204.36818036803743,506.4860875388549,nan,506.7733151363209,nan,nan,nan,nan
1,214,1,1,1.0,1.0,0.2787350333237555,0,2,5,7,3,6,8,nan,nan,nan,nan,nan,nan,nan,nan,nan,nan,nan,nan,0.0,nan,nan,nan,nan,nan,nan,nan,nan,nan,nan,nan,nan,nan,nan,nan,nan,nan,nan,204.36818036803743,507.4945572949946,nan,507.77329232831835,nan,nan,nan,nan
1,215,1,1,1.0,1.0,0.17426520417211577,0,4,3,1,0,5,7,nan,nan,nan,nan,nan,nan,nan,nan,nan,nan,nan,nan,0.0,nan,nan,nan,nan,nan,nan,nan,nan,nan,nan,nan,nan,nan,nan,nan,nan,nan,nan,204.36818036803743,508.50303047234775,nan,508.67729567651986,nan,nan,nan,nan
1,216,1,1,1.0,1.0,0.2621125524165109,0,0,1,4,3,6,2,nan,nan,nan,nan,nan,nan,nan,nan,nan,nan,nan,nan,0.0,nan,nan,nan,nan,nan,nan,nan,nan,nan,nan,nan,nan,nan,nan,nan,nan,nan,nan,204.36818036803743,509.5031735926459,nan,509.7652861450624,nan,nan,nan,nan
1,217,1,1,1.0,1.0,0.325960167509038,0,4,3,7,5,2,6,nan,nan,nan,nan,nan,nan,nan,nan,nan,nan,nan,nan,0.0,nan,nan,nan,nan,nan,nan,nan,nan,nan,nan,nan,nan,nan,nan,nan,nan,nan,nan,204.36818036803743,510.50331386193284,nan,510.8292740294419,nan,nan,nan,nan
1,218,1,1,1.0,1.0,0.4938277236360591,0,0,7,6,8,1,2,nan,nan,nan,nan,nan,nan,nan,nan,nan,nan,nan,nan,0.0,nan,nan,nan,nan,nan,nan,nan,nan,nan,nan,nan,nan,nan,nan,nan,nan,nan,nan,204.36818036803743,511.5034472888219,nan,511.997275012458,nan,nan,nan,nan
1,219,1,1,1.0,1.0,0.3653638633841183,0,4,2,0,7,3,6,nan,nan,nan,nan,nan,nan,nan,nan,nan,nan,nan,nan,0.0,nan,nan,nan,nan,nan,nan,nan,nan,nan,nan,nan,nan,nan,nan,nan,nan,nan,nan,204.36818036803743,512.5118891051388,nan,512.877252968523,nan,nan,nan,nan
1,220,1,1,1.0,1.0,0.30120406360947527,0,7,6,8,5,2,0,nan,nan,nan,nan,nan,nan,nan,nan,nan,nan,nan,nan,0.0,nan,nan,nan,nan,nan,nan,nan,nan,nan,nan,nan,nan,nan,nan,nan,nan,nan,nan,204.36818036803743,513.5120547483384,nan,513.8132588119479,nan,nan,nan,nan
1,221,1,1,1.0,1.0,0.32470373102114536,0,2,5,0,3,8,4,nan,nan,nan,nan,nan,nan,nan,nan,nan,nan,nan,nan,0.0,nan,nan,nan,nan,nan,nan,nan,nan,nan,nan,nan,nan,nan,nan,nan,nan,nan,nan,204.36818036803743,514.5205376191007,nan,514.8452413501218,nan,nan,nan,nan
1,222,1,1,1.0,1.0,0.324581708147889,1,8,6,5,7,0,1,1.0,1.0,1.0,1.0,1.0,1.0,1.0,0.0,0.0,1.0,0.0,0.0,2.0,8.0,1.0,2.0,7.0,6.0,0.0,2.0,5.0,6.0,1.0,3.0,4.0,3.136926774022868,6.574969230568968,7.671212779096095,2.2103052881429903,3.9362980711157434,5.295469843666069,204.36818036803743,515.5206744671741,516.3290959843725,515.845256175322,525.063572778512,526.0594870078203,517.3542381139414,525.055294894788
1,223,1,1,1.0,1.0,0.3333713466709014,0,7,1,6,4,5,2,nan,nan,nan,nan,nan,nan,nan,nan,nan,nan,nan,nan,0.0,nan,nan,nan,nan,nan,nan,nan,nan,nan,nan,nan,nan,nan,nan,nan,nan,nan,nan,204.36818036803743,526.2637829543673,nan,526.5971543010382,nan,nan,nan,nan
1,224,1,1,1.0,1.0,0.32486338712624274,0,0,5,8,6,2,3,nan,nan,nan,nan,nan,nan,nan,nan,nan,nan,nan,nan,0.0,nan,nan,nan,nan,nan,nan,nan,nan,nan,nan,nan,nan,nan,nan,nan,nan,nan,nan,204.36818036803743,527.2722683910106,nan,527.5971317781368,nan,nan,nan,nan
1,225,1,1,1.0,1.0,0.3406736175820697,0,5,2,4,7,6,1,nan,nan,nan,nan,nan,nan,nan,nan,nan,nan,nan,nan,0.0,nan,nan,nan,nan,nan,nan,nan,nan,nan,nan,nan,nan,nan,nan,nan,nan,nan,nan,204.36818036803743,528.2724403064349,nan,528.613113924017,nan,nan,nan,nan
1,226,0,0,0.0,1.0,0.5086064616916701,0,0,7,5,8,3,6,nan,nan,nan,nan,nan,nan,nan,nan,nan,nan,nan,nan,0.0,nan,nan,nan,nan,nan,nan,nan,nan,nan,nan,nan,nan,nan,nan,nan,nan,nan,nan,204.36818036803743,529.2725138622627,nan,529.7811203239544,nan,nan,nan,nan
1,227,1,1,1.0,1.0,0.4524038078961894,0,7,3,1,2,8,0,nan,nan,nan,nan,nan,nan,nan,nan,nan,nan,nan,nan,0.0,nan,nan,nan,nan,nan,nan,nan,nan,nan,nan,nan,nan,nan,nan,nan,nan,nan,nan,204.36818036803743,530.2726934753882,nan,530.7250972832844,nan,nan,nan,nan
1,228,1,1,1.0,1.0,0.340306693688035,0,5,6,2,8,3,4,nan,nan,nan,nan,nan,nan,nan,nan,nan,nan,nan,nan,0.0,nan,nan,nan,nan,nan,nan,nan,nan,nan,nan,nan,nan,nan,nan,nan,nan,nan,nan,204.36818036803743,531.2727849925286,nan,531.6130916862166,nan,nan,nan,nan
1,229,1,1,1.0,1.0,0.3561180645483546,1,1,5,7,4,6,2,1.0,1.0,1.0,1.0,1.0,1.0,1.0,0.0,0.0,1.0,0.0,1.0,3.0,1.0,8.0,6.0,4.0,0.0,2.0,3.0,5.0,6.0,2.0,4.0,1.0,4.592557060677791,6.255584328493569,6.951507310412126,3.761799654981587,5.327466066664783,2.7292665883433074,204.36818036803743,532.2729705927486,533.0813784251513,532.629088657297,541.0824680780352,542.0805536303378,534.0898652873002,541.0741428676702
1,230,0,0,0.0,1.0,0.618320993729867,0,5,0,3,2,4,8,nan,nan,nan,nan,nan,nan,nan,nan,nan,nan,nan,nan,0.0,nan,nan,nan,nan,nan,nan,nan,nan,nan,nan,nan,nan,nan,nan,nan,nan,nan,nan,204.36818036803743,542.282674832677,nan,542.9009958264069,nan,nan,nan,nan
1,231,1,1,1.0,1.0,0.4661610320035834,0,8,7,0,5,1,4,nan,nan,nan,nan,nan,nan,nan,nan,nan,nan,nan,nan,0.0,nan,nan,nan,nan,nan,nan,nan,nan,nan,nan,nan,nan,nan,nan,nan,nan,nan,nan,204.36818036803743,543.2828054085549,nan,543.7489664405584,nan,nan,nan,nan
1,232,1,1,1.0,1.0,0.7300058531109244,0,1,2,4,0,6,3,nan,nan,nan,nan,nan,nan,nan,nan,nan,nan,nan,nan,0.0,nan,nan,nan,nan,nan,nan,nan,nan,nan,nan,nan,nan,nan,nan,nan,nan,nan,nan,204.36818036803743,544.2829553712509,nan,545.0129612243618,nan,nan,nan,nan
1,233,1,1,1.0,1.0,0.5378377831366379,0,7,1,0,3,5,8,nan,nan,nan,nan,nan,nan,nan,nan,nan,nan,nan,nan,0.0,nan,nan,nan,nan,nan,nan,nan,nan,nan,nan,nan,nan,nan,nan,nan,nan,nan,nan,204.36818036803743,545.2831047637446,nan,545.8209425468813,nan,nan,nan,nan
1,234,1,1,1.0,1.0,0.4017127108236309,0,3,8,1,6,0,5,nan,nan,nan,nan,nan,nan,nan,nan,nan,nan,nan,nan,0.0,nan,nan,nan,nan,nan,nan,nan,nan,nan,nan,nan,nan,nan,nan,nan,nan,nan,nan,204.36818036803743,546.2832213697257,nan,546.6849340805493,nan,nan,nan,nan
1,235,1,1,1.0,1.0,0.5696139087958727,1,1,4,0,8,6,3,1.0,1.0,1.0,1.0,1.0,1.0,0.0,0.0,1.0,1.0,1.0,0.0,3.0,8.0,2.0,0.0,8.0,6.0,1.0,4.0,5.0,6.0,1.0,2.0,3.0,3.805133171728812,4.557092593982816,5.268527021369664,1.108529085497139,1.8530548056587577,2.797215369530022,204.36818036803743,547.2833165931806,548.0917823009077,547.8529305019765,554.425961336412,555.4340541901183,549.1169250006787,554.4176404025638
1,236,1,1,1.0,1.0,0.450380166847026,1,4,6,1,0,8,2,1.0,1.0,1.0,1.0,1.0,1.0,1.0,0.0,1.0,1.0,0.0,1.0,4.0,4.0,8.0,1.0,0.0,6.0,2.0,4.0,6.0,5.0,1.0,2.0,3.0,4.1818363245402,5.421380346728256,4.813868641213048,0.9917312394827604,2.4871270141156856,3.2784559202264063,204.36818036803743,555.6344933014188,556.4429139633139,556.0848734682659,562.9187609888322,563.9203609710385,557.4597277464345,562.9104332125571
1,237,0,0,0.0,1.0,0.5414403089962434,0,0,8,3,6,2,7,nan,nan,nan,nan,nan,nan,nan,nan,nan,nan,nan,nan,0.0,nan,nan,nan,nan,nan,nan,nan,nan,nan,nan,nan,nan,nan,nan,nan,nan,nan,nan,204.36818036803743,564.1273508291633,nan,564.6687911381596,nan,nan,nan,nan
1,238,1,1,1.0,1.0,0.5253016431233846,0,6,0,1,2,4,8,nan,nan,nan,nan,nan,nan,nan,nan,nan,nan,nan,nan,0.0,nan,nan,nan,nan,nan,nan,nan,nan,nan,nan,nan,nan,nan,nan,nan,nan,nan,nan,204.36818036803743,565.1274600225152,nan,565.6527616656385,nan,nan,nan,nan
1,239,1,1,1.0,1.0,0.4691255036741495,0,5,3,4,8,1,0,nan,nan,nan,nan,nan,nan,nan,nan,nan,nan,nan,nan,0.0,nan,nan,nan,nan,nan,nan,nan,nan,nan,nan,nan,nan,nan,nan,nan,nan,nan,nan,204.36818036803743,566.1276384952362,nan,566.5967639989103,nan,nan,nan,nan
1,240,1,1,1.0,1.0,0.556692883517826,0,8,2,6,5,3,4,nan,nan,nan,nan,nan,nan,nan,nan,nan,nan,nan,nan,0.0,nan,nan,nan,nan,nan,nan,nan,nan,nan,nan,nan,nan,nan,nan,nan,nan,nan,nan,204.36818036803743,567.136053797265,nan,567.6927466807829,nan,nan,nan,nan
1,241,1,1,1.0,1.0,0.43648010757169686,0,5,6,3,7,1,0,nan,nan,nan,nan,nan,nan,nan,nan,nan,nan,nan,nan,0.0,nan,nan,nan,nan,nan,nan,nan,nan,nan,nan,nan,nan,nan,nan,nan,nan,nan,nan,204.36818036803743,568.1362305593502,nan,568.5727106669219,nan,nan,nan,nan
1,242,1,1,1.0,1.0,0.35634471918456256,0,6,4,7,3,8,1,nan,nan,nan,nan,nan,nan,nan,nan,nan,nan,nan,nan,0.0,nan,nan,nan,nan,nan,nan,nan,nan,nan,nan,nan,nan,nan,nan,nan,nan,nan,nan,204.36818036803743,569.1363520120503,nan,569.4926967312349,nan,nan,nan,nan
1,243,1,1,1.0,1.0,0.380211310548475,0,0,8,5,2,1,3,nan,nan,nan,nan,nan,nan,nan,nan,nan,nan,nan,nan,0.0,nan,nan,nan,nan,nan,nan,nan,nan,nan,nan,nan,nan,nan,nan,nan,nan,nan,nan,204.36818036803743,570.136496557825,nan,570.5167078683735,nan,nan,nan,nan
1,244,1,1,1.0,1.0,0.31575187045382336,0,3,7,2,8,6,1,nan,nan,nan,nan,nan,nan,nan,nan,nan,nan,nan,nan,0.0,nan,nan,nan,nan,nan,nan,nan,nan,nan,nan,nan,nan,nan,nan,nan,nan,nan,nan,204.36818036803743,571.144954909978,nan,571.4607067804318,nan,nan,nan,nan
1,245,1,1,1.0,1.0,0.35526903622667305,0,1,4,0,3,7,2,nan,nan,nan,nan,nan,nan,nan,nan,nan,nan,nan,nan,0.0,nan,nan,nan,nan,nan,nan,nan,nan,nan,nan,nan,nan,nan,nan,nan,nan,nan,nan,204.36818036803743,572.153430368111,nan,572.5086994043377,nan,nan,nan,nan
1,246,1,1,1.0,1.0,0.3551230649172794,1,4,3,2,5,1,6,1.0,1.0,1.0,1.0,1.0,1.0,1.0,0.0,1.0,1.0,0.0,1.0,4.0,4.0,0.0,2.0,5.0,3.0,6.0,4.0,5.0,6.0,1.0,3.0,2.0,6.063164515042445,7.158594102569623,7.69403903989587,1.0483592626987956,3.7988484233501367,2.63992788104224,204.36818036803743,573.1535655056068,573.9619853121985,573.5086885705241,582.7131778149633,583.716559103108,574.9788079334248,582.704851749324
1,247,0,0,0.0,1.0,0.6268603143107612,0,0,4,7,1,2,3,nan,nan,nan,nan,nan,nan,nan,nan,nan,nan,nan,nan,0.0,nan,nan,nan,nan,nan,nan,nan,nan,nan,nan,nan,nan,nan,nan,nan,nan,nan,nan,204.36818036803743,583.9217311624961,nan,584.5485914768069,nan,nan,nan,nan
1,248,1,1,nan,nan,nan,0,3,1,4,2,0,6,nan,nan,nan,nan,nan,nan,nan,nan,nan,nan,nan,nan,0.0,nan,nan,nan,nan,nan,nan,nan,nan,nan,nan,nan,nan,nan,nan,nan,nan,nan,nan,204.36818036803743,584.9218115607509,nan,nan,nan,nan,nan,nan
1,249,1,1,1.0,1.0,0.5542256265762262,1,6,0,2,1,3,7,1.0,1.0,1.0,1.0,1.0,1.0,0.0,0.0,1.0,1.0,1.0,0.0,3.0,7.0,8.0,2.0,1.0,3.0,3.0,4.0,5.0,6.0,1.0,2.0,3.0,6.068991677631857,6.8053247590432875,8.228992749616737,1.3427069520694204,2.5517774713225663,5.021601185319014,204.36818036803743,585.9303081163089,586.7387316292152,586.4845337428851,596.023333739111,597.0232852720947,587.7555499739246,596.0150128052628
1,250,1,1,1.0,1.0,0.4529292475490365,1,4,2,3,7,8,6,1.0,1.0,1.0,1.0,1.0,1.0,0.0,1.0,1.0,1.0,0.0,0.0,3.0,8.0,2.0,3.0,7.0,0.0,1.0,4.0,1.0,2.0,3.0,5.0,6.0,3.608404639264336,1.273921686981339,1.9925711446267087,2.769524444360286,4.735977846576134,5.351957597624278,204.36818036803743,597.2235618762788,598.0319583046657,597.6764911238279,604.4411566058116,605.4472300949274,599.0487826364697,604.4328376676422
1,251,1,1,1.0,1.0,0.5706790430413093,0,1,6,8,5,3,4,nan,nan,nan,nan,nan,nan,nan,nan,nan,nan,nan,nan,0.0,nan,nan,nan,nan,nan,nan,nan,nan,nan,nan,nan,nan,nan,nan,nan,nan,nan,nan,204.36818036803743,605.6496865751105,nan,606.2203656181518,nan,nan,nan,nan
1,252,1,1,1.0,1.0,0.45018487321794964,0,6,2,4,1,8,5,nan,nan,nan,nan,nan,nan,nan,nan,nan,nan,nan,nan,0.0,nan,nan,nan,nan,nan,nan,nan,nan,nan,nan,nan,nan,nan,nan,nan,nan,nan,nan,204.36818036803743,606.6581577567558,nan,607.1083426299738,nan,nan,nan,nan
1,253,1,1,1.0,1.0,0.3936372482276056,0,2,3,1,8,7,6,nan,nan,nan,nan,nan,nan,nan,nan,nan,nan,nan,nan,0.0,nan,nan,nan,nan,nan,nan,nan,nan,nan,nan,nan,nan,nan,nan,nan,nan,nan,nan,204.36818036803743,607.6667090515548,nan,608.0603462997824,nan,nan,nan,nan
1,254,0,0,0.0,1.0,0.4895808713627048,0,8,5,0,2,6,1,nan,nan,nan,nan,nan,nan,nan,nan,nan,nan,nan,nan,0.0,nan,nan,nan,nan,nan,nan,nan,nan,nan,nan,nan,nan,nan,nan,nan,nan,nan,nan,204.36818036803743,608.6667777606926,nan,609.1563586320553,nan,nan,nan,nan
1,255,1,1,1.0,1.0,0.4331241933396086,0,3,8,2,6,4,5,nan,nan,nan,nan,nan,nan,nan,nan,nan,nan,nan,nan,0.0,nan,nan,nan,nan,nan,nan,nan,nan,nan,nan,nan,nan,nan,nan,nan,nan,nan,nan,204.36818036803743,609.6752172962297,nan,610.1083414895693,nan,nan,nan,nan
1,256,1,1,1.0,1.0,0.38497191335773095,0,5,2,6,4,1,3,nan,nan,nan,nan,nan,nan,nan,nan,nan,nan,nan,nan,0.0,nan,nan,nan,nan,nan,nan,nan,nan,nan,nan,nan,nan,nan,nan,nan,nan,nan,nan,204.36818036803743,610.675372960919,nan,611.0603448742768,nan,nan,nan,nan
1,257,0,0,1.0,0.0,0.3524847478547599,0,8,0,1,5,6,7,nan,nan,nan,nan,nan,nan,nan,nan,nan,nan,nan,nan,0.0,nan,nan,nan,nan,nan,nan,nan,nan,nan,nan,nan,nan,nan,nan,nan,nan,nan,nan,204.36818036803743,611.6838469935756,nan,612.0363317414303,nan,nan,nan,nan
1,258,1,1,1.0,1.0,0.3523350702598691,0,0,2,7,8,3,5,nan,nan,nan,nan,nan,nan,nan,nan,nan,nan,nan,nan,0.0,nan,nan,nan,nan,nan,nan,nan,nan,nan,nan,nan,nan,nan,nan,nan,nan,nan,nan,204.36818036803743,612.683971867431,nan,613.0363069376908,nan,nan,nan,nan
1,259,1,1,1.0,1.0,0.36785820484510623,0,2,6,5,4,1,8,nan,nan,nan,nan,nan,nan,nan,nan,nan,nan,nan,nan,0.0,nan,nan,nan,nan,nan,nan,nan,nan,nan,nan,nan,nan,nan,nan,nan,nan,nan,nan,204.36818036803743,613.6924553083954,nan,614.0603135132405,nan,nan,nan,nan
1,260,1,1,1.0,1.0,0.3517916692944709,1,4,8,1,0,3,7,1.0,1.0,1.0,1.0,1.0,1.0,0.0,1.0,1.0,1.0,0.0,0.0,3.0,8.0,8.0,1.0,0.0,7.0,6.0,4.0,1.0,3.0,2.0,5.0,6.0,4.747016355337109,1.4437430346442852,3.8598775380523875,3.323919420421589,8.7872904620599,9.594579561322462,204.36818036803743,614.6925816077855,615.5010111077863,615.04437327708,626.1524767080264,627.1622630567872,616.5178285971924,626.1441443701624
1,261,1,1,1.0,1.0,0.7467971133009996,0,8,5,0,1,4,2,nan,nan,nan,nan,nan,nan,nan,nan,nan,nan,nan,nan,0.0,nan,nan,nan,nan,nan,nan,nan,nan,nan,nan,nan,nan,nan,nan,nan,nan,nan,nan,204.36818036803743,627.3693609678885,nan,628.1161580811895,nan,nan,nan,nan
1,262,1,1,1.0,1.0,0.5386905177729204,0,7,1,6,5,8,0,nan,nan,nan,nan,nan,nan,nan,nan,nan,nan,nan,nan,0.0,nan,nan,nan,nan,nan,nan,nan,nan,nan,nan,nan,nan,nan,nan,nan,nan,nan,nan,204.36818036803743,628.3694690208649,nan,628.9081595386378,nan,nan,nan,nan
1,263,1,1,1.0,1.0,0.4025172635447234,0,6,5,7,1,0,4,nan,nan,nan,nan,nan,nan,nan,nan,nan,nan,nan,nan,0.0,nan,nan,nan,nan,nan,nan,nan,nan,nan,nan,nan,nan,nan,nan,nan,nan,nan,nan,204.36818036803743,629.3696249706554,nan,629.7721422342001,nan,nan,nan,nan
1,264,1,1,1.0,1.0,0.24240044088219292,0,7,1,8,2,3,5,nan,nan,nan,nan,nan,nan,nan,nan,nan,nan,nan,nan,0.0,nan,nan,nan,nan,nan,nan,nan,nan,nan,nan,nan,nan,nan,nan,nan,nan,nan,nan,204.36818036803743,630.3697452829219,nan,630.6121457238041,nan,nan,nan,nan
1,265,1,1,1.0,1.0,0.09825578561867587,0,8,3,6,5,1,7,nan,nan,nan,nan,nan,nan,nan,nan,nan,nan,nan,nan,0.0,nan,nan,nan,nan,nan,nan,nan,nan,nan,nan,nan,nan,nan,nan,nan,nan,nan,nan,204.36818036803743,631.3698869777145,nan,631.4681427633332,nan,nan,nan,nan
1,266,1,1,1.0,1.0,0.3141034212312661,0,5,1,4,7,3,2,nan,nan,nan,nan,nan,nan,nan,nan,nan,nan,nan,nan,0.0,nan,nan,nan,nan,nan,nan,nan,nan,nan,nan,nan,nan,nan,nan,nan,nan,nan,nan,204.36818036803743,632.3700135622057,nan,632.684116983437,nan,nan,nan,nan
1,267,1,1,1.0,1.0,0.31396628805669025,0,8,2,5,4,6,7,nan,nan,nan,nan,nan,nan,nan,nan,nan,nan,nan,nan,0.0,nan,nan,nan,nan,nan,nan,nan,nan,nan,nan,nan,nan,nan,nan,nan,nan,nan,nan,204.36818036803743,633.3701432827802,nan,633.6841095708369,nan,nan,nan,nan
1,268,1,1,1.0,1.0,0.3058397925342433,0,1,3,8,7,4,0,nan,nan,nan,nan,nan,nan,nan,nan,nan,nan,nan,nan,0.0,nan,nan,nan,nan,nan,nan,nan,nan,nan,nan,nan,nan,nan,nan,nan,nan,nan,nan,204.36818036803743,634.3702735735569,nan,634.6761133660912,nan,nan,nan,nan
1,269,1,1,1.0,1.0,0.32965877212700434,0,6,8,0,3,2,1,nan,nan,nan,nan,nan,nan,nan,nan,nan,nan,nan,nan,0.0,nan,nan,nan,nan,nan,nan,nan,nan,nan,nan,nan,nan,nan,nan,nan,nan,nan,nan,204.36818036803743,635.3704389316845,nan,635.7000977038115,nan,nan,nan,nan
1,270,1,1,1.0,1.0,0.2895152413111646,0,8,1,6,2,5,3,nan,nan,nan,nan,nan,nan,nan,nan,nan,nan,nan,nan,0.0,nan,nan,nan,nan,nan,nan,nan,nan,nan,nan,nan,nan,nan,nan,nan,nan,nan,nan,204.36818036803743,636.370592600666,nan,636.6601078419772,nan,nan,nan,nan
1,271,1,1,1.0,1.0,0.3133881048997864,0,1,8,4,3,2,5,nan,nan,nan,nan,nan,nan,nan,nan,nan,nan,nan,nan,0.0,nan,nan,nan,nan,nan,nan,nan,nan,nan,nan,nan,nan,nan,nan,nan,nan,nan,nan,204.36818036803743,637.3706966622267,nan,637.6840847671265,nan,nan,nan,nan
1,272,1,1,1.0,1.0,0.2892227285192348,0,2,3,7,5,4,0,nan,nan,nan,nan,nan,nan,nan,nan,nan,nan,nan,nan,0.0,nan,nan,nan,nan,nan,nan,nan,nan,nan,nan,nan,nan,nan,nan,nan,nan,nan,nan,204.36818036803743,638.3708700031566,nan,638.6600927316758,nan,nan,nan,nan
1,273,1,1,1.0,1.0,0.2730943262577057,0,4,1,5,2,3,7,nan,nan,nan,nan,nan,nan,nan,nan,nan,nan,nan,nan,0.0,nan,nan,nan,nan,nan,nan,nan,nan,nan,nan,nan,nan,nan,nan,nan,nan,nan,nan,204.36818036803743,639.3709797667107,nan,639.6440740929684,nan,nan,nan,nan
1,274,1,1,1.0,1.0,0.2806275283219293,0,2,8,1,3,5,4,nan,nan,nan,nan,nan,nan,nan,nan,nan,nan,nan,nan,0.0,nan,nan,nan,nan,nan,nan,nan,nan,nan,nan,nan,nan,nan,nan,nan,nan,nan,nan,204.36818036803743,640.37943213174,nan,640.660059660062,nan,nan,nan,nan
1,275,1,1,1.0,1.0,0.3204631509433966,1,7,2,8,5,3,6,1.0,1.0,1.0,1.0,1.0,1.0,0.0,0.0,1.0,1.0,0.0,0.0,2.0,0.0,7.0,8.0,5.0,1.0,2.0,4.0,3.0,2.0,1.0,6.0,5.0,3.92405786504969,3.291671168874018,1.9253408158838283,0.9336777153366711,8.699365281470818,7.659169862396084,204.36818036803743,641.3795860858518,642.1880580657744,641.7000492367952,651.9476690066513,652.9488162497873,643.2131485922146,651.9393369539175
1,276,1,1,nan,nan,nan,0,6,8,5,4,7,2,nan,nan,nan,nan,nan,nan,nan,nan,nan,nan,nan,nan,0.0,nan,nan,nan,nan,nan,nan,nan,nan,nan,nan,nan,nan,nan,nan,nan,nan,nan,nan,204.36818036803743,653.1562080991571,nan,nan,nan,nan,nan,nan
1,277,1,1,1.0,1.0,0.43953780698939227,0,4,0,3,1,5,7,nan,nan,nan,nan,nan,nan,nan,nan,nan,nan,nan,nan,0.0,nan,nan,nan,nan,nan,nan,nan,nan,nan,nan,nan,nan,nan,nan,nan,nan,nan,nan,204.36818036803743,654.1563449472596,nan,654.595882754249,nan,nan,nan,nan
1,278,1,1,1.0,1.0,0.3354423143900931,0,7,8,4,3,2,5,nan,nan,nan,nan,nan,nan,nan,nan,nan,nan,nan,nan,0.0,nan,nan,nan,nan,nan,nan,nan,nan,nan,nan,nan,nan,nan,nan,nan,nan,nan,nan,204.36818036803743,655.1564709615486,nan,655.4919132759387,nan,nan,nan,nan
1,279,1,1,1.0,1.0,0.26329685858218,0,8,4,2,6,1,3,nan,nan,nan,nan,nan,nan,nan,nan,nan,nan,nan,nan,0.0,nan,nan,nan,nan,nan,nan,nan,nan,nan,nan,nan,nan,nan,nan,nan,nan,nan,nan,204.36818036803743,656.1566063841165,nan,656.4199032426986,nan,nan,nan,nan
1,280,0,0,1.0,0.0,0.2951485357771162,0,5,1,0,3,2,4,nan,nan,nan,nan,nan,nan,nan,nan,nan,nan,nan,nan,0.0,nan,nan,nan,nan,nan,nan,nan,nan,nan,nan,nan,nan,nan,nan,nan,nan,nan,nan,204.36818036803743,657.1567449427966,nan,657.4518934785738,nan,nan,nan,nan
1,281,1,1,1.0,1.0,0.2626422685571015,0,7,6,8,0,5,2,nan,nan,nan,nan,nan,nan,nan,nan,nan,nan,nan,nan,0.0,nan,nan,nan,nan,nan,nan,nan,nan,nan,nan,nan,nan,nan,nan,nan,nan,nan,nan,204.36818036803743,658.1652175499476,nan,658.4278598185047,nan,nan,nan,nan
1,282,1,1,1.0,1.0,0.2945201749680564,0,3,4,2,7,1,8,nan,nan,nan,nan,nan,nan,nan,nan,nan,nan,nan,nan,0.0,nan,nan,nan,nan,nan,nan,nan,nan,nan,nan,nan,nan,nan,nan,nan,nan,nan,nan,204.36818036803743,659.1653555384546,nan,659.4598757134227,nan,nan,nan,nan
1,283,1,1,1.0,1.0,0.3260496889706701,0,0,3,6,1,4,7,nan,nan,nan,nan,nan,nan,nan,nan,nan,nan,nan,nan,0.0,nan,nan,nan,nan,nan,nan,nan,nan,nan,nan,nan,nan,nan,nan,nan,nan,nan,nan,204.36818036803743,660.1738175968931,nan,660.4998672858637,nan,nan,nan,nan
1,284,1,1,1.0,1.0,0.3175690990174189,0,7,8,5,2,6,0,nan,nan,nan,nan,nan,nan,nan,nan,nan,nan,nan,nan,0.0,nan,nan,nan,nan,nan,nan,nan,nan,nan,nan,nan,nan,nan,nan,nan,nan,nan,nan,204.36818036803743,661.182290204044,nan,661.4998593030614,nan,nan,nan,nan
1,285,1,1,1.0,1.0,0.2933954547625035,0,2,6,4,7,3,1,nan,nan,nan,nan,nan,nan,nan,nan,nan,nan,nan,nan,0.0,nan,nan,nan,nan,nan,nan,nan,nan,nan,nan,nan,nan,nan,nan,nan,nan,nan,nan,204.36818036803743,662.1824415922165,nan,662.475837046979,nan,nan,nan,nan
1,286,1,1,1.0,1.0,0.261248698894633,0,4,5,0,6,2,3,nan,nan,nan,nan,nan,nan,nan,nan,nan,nan,nan,nan,0.0,nan,nan,nan,nan,nan,nan,nan,nan,nan,nan,nan,nan,nan,nan,nan,nan,nan,nan,204.36818036803743,663.1825821466045,nan,663.4438308454992,nan,nan,nan,nan
1,287,1,1,1.0,1.0,0.27713562129065394,0,8,0,1,3,4,7,nan,nan,nan,nan,nan,nan,nan,nan,nan,nan,nan,nan,0.0,nan,nan,nan,nan,nan,nan,nan,nan,nan,nan,nan,nan,nan,nan,nan,nan,nan,nan,204.36818036803743,664.182694761199,nan,664.4598303824896,nan,nan,nan,nan
1,288,1,1,1.0,1.0,0.22095805636490695,0,4,6,3,1,5,8,nan,nan,nan,nan,nan,nan,nan,nan,nan,nan,nan,nan,0.0,nan,nan,nan,nan,nan,nan,nan,nan,nan,nan,nan,nan,nan,nan,nan,nan,nan,nan,204.36818036803743,665.182847289776,nan,665.4038053461409,nan,nan,nan,nan
1,289,1,1,1.0,1.0,0.2048199606651906,0,6,2,5,0,8,4,nan,nan,nan,nan,nan,nan,nan,nan,nan,nan,nan,nan,0.0,nan,nan,nan,nan,nan,nan,nan,nan,nan,nan,nan,nan,nan,nan,nan,nan,nan,nan,204.36818036803743,666.1829918355797,nan,666.3878117962449,nan,nan,nan,nan
1,290,0,0,1.0,0.0,0.16466873211902566,0,7,0,6,3,5,1,nan,nan,nan,nan,nan,nan,nan,nan,nan,nan,nan,nan,0.0,nan,nan,nan,nan,nan,nan,nan,nan,nan,nan,nan,nan,nan,nan,nan,nan,nan,nan,204.36818036803743,667.18312554757,nan,667.347794279689,nan,nan,nan,nan
1,291,1,1,1.0,1.0,0.4045420449983794,0,3,7,2,4,0,5,nan,nan,nan,nan,nan,nan,nan,nan,nan,nan,nan,nan,0.0,nan,nan,nan,nan,nan,nan,nan,nan,nan,nan,nan,nan,nan,nan,nan,nan,nan,nan,204.36818036803743,668.1832541277399,nan,668.5877961727383,nan,nan,nan,nan
1,292,1,1,1.0,1.0,0.3643879654700868,0,1,8,3,2,5,4,nan,nan,nan,nan,nan,nan,nan,nan,nan,nan,nan,nan,0.0,nan,nan,nan,nan,nan,nan,nan,nan,nan,nan,nan,nan,nan,nan,nan,nan,nan,nan,204.36818036803743,669.1833941119257,nan,669.5477820773958,nan,nan,nan,nan
1,293,1,1,nan,nan,nan,0,4,1,5,0,2,3,nan,nan,nan,nan,nan,nan,nan,nan,nan,nan,nan,nan,0.0,nan,nan,nan,nan,nan,nan,nan,nan,nan,nan,nan,nan,nan,nan,nan,nan,nan,nan,204.36818036803743,670.1835366620217,nan,nan,nan,nan,nan,nan
1,294,1,1,nan,nan,nan,0,8,4,0,2,1,7,nan,nan,nan,nan,nan,nan,nan,nan,nan,nan,nan,nan,0.0,nan,nan,nan,nan,nan,nan,nan,nan,nan,nan,nan,nan,nan,nan,nan,nan,nan,nan,204.36818036803743,671.1920126903569,nan,nan,nan,nan,nan,nan
1,295,1,1,1.0,1.0,0.3475408256344963,0,7,8,5,4,0,2,nan,nan,nan,nan,nan,nan,nan,nan,nan,nan,nan,nan,0.0,nan,nan,nan,nan,nan,nan,nan,nan,nan,nan,nan,nan,nan,nan,nan,nan,nan,nan,204.36818036803743,672.1921689252777,nan,672.5397097509122,nan,nan,nan,nan
1,296,1,1,1.0,1.0,0.17112682139850222,0,6,7,3,0,2,1,nan,nan,nan,nan,nan,nan,nan,nan,nan,nan,nan,nan,0.0,nan,nan,nan,nan,nan,nan,nan,nan,nan,nan,nan,nan,nan,nan,nan,nan,nan,nan,204.36818036803743,673.2006620596221,nan,673.3717888810206,nan,nan,nan,nan
1,297,1,1,1.0,1.0,0.34697832298115827,0,7,5,8,4,1,3,nan,nan,nan,nan,nan,nan,nan,nan,nan,nan,nan,nan,0.0,nan,nan,nan,nan,nan,nan,nan,nan,nan,nan,nan,nan,nan,nan,nan,nan,nan,nan,204.36818036803743,674.2007649807783,nan,674.5477433037595,nan,nan,nan,nan
1,298,1,1,1.0,1.0,0.33083110410370864,0,3,1,6,0,2,8,nan,nan,nan,nan,nan,nan,nan,nan,nan,nan,nan,nan,0.0,nan,nan,nan,nan,nan,nan,nan,nan,nan,nan,nan,nan,nan,nan,nan,nan,nan,nan,204.36818036803743,675.2008986927685,nan,675.5317297968722,nan,nan,nan,nan
1,299,1,1,1.0,1.0,0.31470612302655354,0,1,4,7,2,3,5,nan,nan,nan,nan,nan,nan,nan,nan,nan,nan,nan,nan,0.0,nan,nan,nan,nan,nan,nan,nan,nan,nan,nan,nan,nan,nan,nan,nan,nan,nan,nan,204.36818036803743,676.201021285844,nan,676.5157274088706,nan,nan,nan,nan
1,300,1,1,1.0,1.0,0.26656182581791654,1,6,8,4,5,2,3,1.0,1.0,1.0,1.0,1.0,1.0,0.0,1.0,0.0,1.0,1.0,0.0,3.0,0.0,8.0,7.0,5.0,2.0,6.0,4.0,5.0,6.0,1.0,2.0,3.0,5.83752226276556,6.941409347113222,8.189726186945336,2.13566805672599,3.47934406431159,4.4303972101188265,204.36818036803743,677.2011561382387,678.009610727051,677.4677179640566,687.2525217823568,688.251336906018,679.0263974256522,687.2441845978028
1,301,1,1,nan,nan,nan,0,2,7,3,8,1,0,nan,nan,nan,nan,nan,nan,nan,nan,nan,nan,nan,nan,0.0,nan,nan,nan,nan,nan,nan,nan,nan,nan,nan,nan,nan,nan,nan,nan,nan,nan,nan,204.36818036803743,688.4527088650793,nan,nan,nan,nan,nan,nan
1,302,1,1,1.0,1.0,0.5663991191540845,0,1,5,7,6,0,4,nan,nan,nan,nan,nan,nan,nan,nan,nan,nan,nan,nan,0.0,nan,nan,nan,nan,nan,nan,nan,nan,nan,nan,nan,nan,nan,nan,nan,nan,nan,nan,204.36818036803743,689.4611652215244,nan,690.0275643406785,nan,nan,nan,nan
1,303,1,1,1.0,1.0,0.5182180440460797,0,4,2,0,3,5,8,nan,nan,nan,nan,nan,nan,nan,nan,nan,nan,nan,nan,0.0,nan,nan,nan,nan,nan,nan,nan,nan,nan,nan,nan,nan,nan,nan,nan,nan,nan,nan,204.36818036803743,690.4613086269237,nan,690.9795266709698,nan,nan,nan,nan
1,304,1,1,1.0,1.0,0.28608862223336473,0,3,1,8,4,7,0,nan,nan,nan,nan,nan,nan,nan,nan,nan,nan,nan,nan,0.0,nan,nan,nan,nan,nan,nan,nan,nan,nan,nan,nan,nan,nan,nan,nan,nan,nan,nan,204.36818036803743,691.4614694234333,nan,691.7475580456667,nan,nan,nan,nan
1,305,1,1,1.0,1.0,0.2459704653301742,0,1,0,6,3,4,2,nan,nan,nan,nan,nan,nan,nan,nan,nan,nan,nan,nan,0.0,nan,nan,nan,nan,nan,nan,nan,nan,nan,nan,nan,nan,nan,nan,nan,nan,nan,nan,204.36818036803743,692.4615860293852,nan,692.7075564947154,nan,nan,nan,nan
1,306,1,1,1.0,1.0,0.21381715216557495,0,2,4,1,7,8,3,nan,nan,nan,nan,nan,nan,nan,nan,nan,nan,nan,nan,0.0,nan,nan,nan,nan,nan,nan,nan,nan,nan,nan,nan,nan,nan,nan,nan,nan,nan,nan,204.36818036803743,693.4617257284699,nan,693.6755428806355,nan,nan,nan,nan
1,307,1,1,1.0,1.0,0.22968354733893648,0,3,1,0,5,7,2,nan,nan,nan,nan,nan,nan,nan,nan,nan,nan,nan,nan,0.0,nan,nan,nan,nan,nan,nan,nan,nan,nan,nan,nan,nan,nan,nan,nan,nan,nan,nan,204.36818036803743,694.4618622914713,nan,694.6915458388103,nan,nan,nan,nan
1,308,1,1,1.0,1.0,0.30954381404444575,0,6,5,2,0,4,1,nan,nan,nan,nan,nan,nan,nan,nan,nan,nan,nan,nan,0.0,nan,nan,nan,nan,nan,nan,nan,nan,nan,nan,nan,nan,nan,nan,nan,nan,nan,nan,204.36818036803743,695.4619954332593,nan,695.7715392473037,nan,nan,nan,nan
1,309,1,1,1.0,1.0,0.29304136033169925,0,1,6,3,2,0,7,nan,nan,nan,nan,nan,nan,nan,nan,nan,nan,nan,nan,0.0,nan,nan,nan,nan,nan,nan,nan,nan,nan,nan,nan,nan,nan,nan,nan,nan,nan,nan,204.36818036803743,696.4704714615946,nan,696.7635128219263,nan,nan,nan,nan
1,310,1,1,1.0,1.0,0.34093733527697623,0,8,0,2,1,6,3,nan,nan,nan,nan,nan,nan,nan,nan,nan,nan,nan,nan,0.0,nan,nan,nan,nan,nan,nan,nan,nan,nan,nan,nan,nan,nan,nan,nan,nan,nan,nan,204.36818036803743,697.4705786592676,nan,697.8115159945446,nan,nan,nan,nan
1,311,1,1,1.0,1.0,0.42879779811482877,0,1,8,3,2,7,4,nan,nan,nan,nan,nan,nan,nan,nan,nan,nan,nan,nan,0.0,nan,nan,nan,nan,nan,nan,nan,nan,nan,nan,nan,nan,nan,nan,nan,nan,nan,nan,204.36818036803743,698.47070552886,nan,698.8995033269748,nan,nan,nan,nan
1,312,1,1,1.0,1.0,0.2846146543161012,0,5,3,1,4,8,2,nan,nan,nan,nan,nan,nan,nan,nan,nan,nan,nan,nan,0.0,nan,nan,nan,nan,nan,nan,nan,nan,nan,nan,nan,nan,nan,nan,nan,nan,nan,nan,204.36818036803743,699.4708854270575,nan,699.7555000813736,nan,nan,nan,nan
1,313,1,1,1.0,1.0,0.23644555342616513,0,1,6,7,8,0,3,nan,nan,nan,nan,nan,nan,nan,nan,nan,nan,nan,nan,0.0,nan,nan,nan,nan,nan,nan,nan,nan,nan,nan,nan,nan,nan,nan,nan,nan,nan,nan,204.36818036803743,700.4710296877602,nan,700.7074752411863,nan,nan,nan,nan
1,314,1,1,1.0,1.0,0.24431403327616863,0,4,1,0,6,5,8,nan,nan,nan,nan,nan,nan,nan,nan,nan,nan,nan,nan,0.0,nan,nan,nan,nan,nan,nan,nan,nan,nan,nan,nan,nan,nan,nan,nan,nan,nan,nan,204.36818036803743,701.4711514255323,nan,701.7154654588085,nan,nan,nan,nan
1,315,1,1,1.0,1.0,0.3162060350587126,0,0,3,2,1,8,5,nan,nan,nan,nan,nan,nan,nan,nan,nan,nan,nan,nan,0.0,nan,nan,nan,nan,nan,nan,nan,nan,nan,nan,nan,nan,nan,nan,nan,nan,nan,nan,204.36818036803743,702.471253206284,nan,702.7874592413427,nan,nan,nan,nan
1,316,1,1,1.0,1.0,0.30802223438513465,0,2,7,5,0,3,4,nan,nan,nan,nan,nan,nan,nan,nan,nan,nan,nan,nan,0.0,nan,nan,nan,nan,nan,nan,nan,nan,nan,nan,nan,nan,nan,nan,nan,nan,nan,nan,204.36818036803743,703.4714265472139,nan,703.7794487815991,nan,nan,nan,nan
1,317,1,1,1.0,1.0,0.315890714264242,0,3,1,4,8,6,2,nan,nan,nan,nan,nan,nan,nan,nan,nan,nan,nan,nan,0.0,nan,nan,nan,nan,nan,nan,nan,nan,nan,nan,nan,nan,nan,nan,nan,nan,nan,nan,204.36818036803743,704.4715628250851,nan,704.7874535393494,nan,nan,nan,nan
1,318,1,1,1.0,1.0,0.4114007000171114,0,4,6,8,3,0,1,nan,nan,nan,nan,nan,nan,nan,nan,nan,nan,nan,nan,0.0,nan,nan,nan,nan,nan,nan,nan,nan,nan,nan,nan,nan,nan,nan,nan,nan,nan,nan,204.36818036803743,705.4800379981461,nan,705.8914386981633,nan,nan,nan,nan
1,319,1,1,1.0,1.0,0.32327224302571267,0,1,7,2,4,8,5,nan,nan,nan,nan,nan,nan,nan,nan,nan,nan,nan,nan,0.0,nan,nan,nan,nan,nan,nan,nan,nan,nan,nan,nan,nan,nan,nan,nan,nan,nan,nan,204.36818036803743,706.4801751313207,nan,706.8034473743464,nan,nan,nan,nan
1,320,1,1,1.0,1.0,0.26708926117862575,0,3,1,4,0,5,2,nan,nan,nan,nan,nan,nan,nan,nan,nan,nan,nan,nan,0.0,nan,nan,nan,nan,nan,nan,nan,nan,nan,nan,nan,nan,nan,nan,nan,nan,nan,nan,204.36818036803743,707.4803250940167,nan,707.7474143551954,nan,nan,nan,nan
1,321,1,1,1.0,1.0,0.18696242579608224,0,2,4,8,7,1,5,nan,nan,nan,nan,nan,nan,nan,nan,nan,nan,nan,nan,0.0,nan,nan,nan,nan,nan,nan,nan,nan,nan,nan,nan,nan,nan,nan,nan,nan,nan,nan,204.36818036803743,708.4804525338113,nan,708.6674149596074,nan,nan,nan,nan
1,322,1,1,1.0,1.0,0.09889754612231627,0,1,0,7,6,4,8,nan,nan,nan,nan,nan,nan,nan,nan,nan,nan,nan,nan,0.0,nan,nan,nan,nan,nan,nan,nan,nan,nan,nan,nan,nan,nan,nan,nan,nan,nan,nan,204.36818036803743,709.4805605867587,nan,709.579458132881,nan,nan,nan,nan
1,323,1,1,1.0,1.0,0.15466086051310413,0,5,3,0,8,1,7,nan,nan,nan,nan,nan,nan,nan,nan,nan,nan,nan,nan,0.0,nan,nan,nan,nan,nan,nan,nan,nan,nan,nan,nan,nan,nan,nan,nan,nan,nan,nan,204.36818036803743,710.4807364935696,nan,710.6353973540827,nan,nan,nan,nan
1,324,1,1,1.0,1.0,0.15451717001269571,0,7,0,5,4,6,2,nan,nan,nan,nan,nan,nan,nan,nan,nan,nan,nan,nan,0.0,nan,nan,nan,nan,nan,nan,nan,nan,nan,nan,nan,nan,nan,nan,nan,nan,nan,nan,204.36818036803743,711.4808559505618,nan,711.6353731205745,nan,nan,nan,nan
1,325,0,0,nan,nan,nan,0,1,8,6,2,5,3,nan,nan,nan,nan,nan,nan,nan,nan,nan,nan,nan,nan,0.0,nan,nan,nan,nan,nan,nan,nan,nan,nan,nan,nan,nan,nan,nan,nan,nan,nan,nan,204.36818036803743,712.4809762628283,nan,nan,nan,nan,nan,nan
1,326,1,1,1.0,1.0,0.3062320903700311,0,5,4,1,0,7,2,nan,nan,nan,nan,nan,nan,nan,nan,nan,nan,nan,nan,0.0,nan,nan,nan,nan,nan,nan,nan,nan,nan,nan,nan,nan,nan,nan,nan,nan,nan,nan,204.36818036803743,713.4811316424166,nan,713.7873637327866,nan,nan,nan,nan
1,327,1,1,1.0,1.0,0.32207396696321666,0,2,1,5,6,0,8,nan,nan,nan,nan,nan,nan,nan,nan,nan,nan,nan,nan,0.0,nan,nan,nan,nan,nan,nan,nan,nan,nan,nan,nan,nan,nan,nan,nan,nan,nan,nan,204.36818036803743,714.4812707713281,nan,714.8033447382913,nan,nan,nan,nan
1,328,1,1,1.0,1.0,0.16992654965724796,0,0,8,3,1,7,6,nan,nan,nan,nan,nan,nan,nan,nan,nan,nan,nan,nan,0.0,nan,nan,nan,nan,nan,nan,nan,nan,nan,nan,nan,nan,nan,nan,nan,nan,nan,nan,204.36818036803743,715.481406193896,nan,715.6513327435532,nan,nan,nan,nan
1,329,1,1,1.0,1.0,0.13778549575363286,0,1,0,7,6,5,3,nan,nan,nan,nan,nan,nan,nan,nan,nan,nan,nan,nan,0.0,nan,nan,nan,nan,nan,nan,nan,nan,nan,nan,nan,nan,nan,nan,nan,nan,nan,nan,204.36818036803743,716.4815416164929,nan,716.6193271122465,nan,nan,nan,nan
1,330,1,1,1.0,1.0,0.353634841972962,0,6,5,2,4,0,8,nan,nan,nan,nan,nan,nan,nan,nan,nan,nan,nan,nan,0.0,nan,nan,nan,nan,nan,nan,nan,nan,nan,nan,nan,nan,nan,nan,nan,nan,nan,nan,204.36818036803743,717.4816813155776,nan,717.8353161575506,nan,nan,nan,nan
1,331,1,1,1.0,1.0,0.36148564564064145,0,3,2,6,7,4,1,nan,nan,nan,nan,nan,nan,nan,nan,nan,nan,nan,nan,0.0,nan,nan,nan,nan,nan,nan,nan,nan,nan,nan,nan,nan,nan,nan,nan,nan,nan,nan,204.36818036803743,718.4818178785499,nan,718.8433035241906,nan,nan,nan,nan
1,332,0,0,1.0,0.0,0.28134227445116267,0,0,7,8,4,5,3,nan,nan,nan,nan,nan,nan,nan,nan,nan,nan,nan,nan,0.0,nan,nan,nan,nan,nan,nan,nan,nan,nan,nan,nan,nan,nan,nan,nan,nan,nan,nan,204.36818036803743,719.4819538713491,nan,719.7632961458003,nan,nan,nan,nan
1,333,1,1,1.0,1.0,0.25720141670899466,0,5,4,7,8,1,0,nan,nan,nan,nan,nan,nan,nan,nan,nan,nan,nan,nan,0.0,nan,nan,nan,nan,nan,nan,nan,nan,nan,nan,nan,nan,nan,nan,nan,nan,nan,nan,204.36818036803743,720.482094140636,nan,720.739295557345,nan,nan,nan,nan
1,334,1,1,1.0,1.0,0.12103842609212734,0,0,3,5,2,6,7,nan,nan,nan,nan,nan,nan,nan,nan,nan,nan,nan,nan,0.0,nan,nan,nan,nan,nan,nan,nan,nan,nan,nan,nan,nan,nan,nan,nan,nan,nan,nan,204.36818036803743,721.4822458139388,nan,721.6032842400309,nan,nan,nan,nan
1,335,1,1,1.0,1.0,0.16857061316841282,0,5,8,6,1,2,3,nan,nan,nan,nan,nan,nan,nan,nan,nan,nan,nan,nan,0.0,nan,nan,nan,nan,nan,nan,nan,nan,nan,nan,nan,nan,nan,nan,nan,nan,nan,nan,204.36818036803743,722.4907007448783,nan,722.6592713580467,nan,nan,nan,nan
1,336,1,1,1.0,1.0,0.2564242336375173,0,2,1,8,4,3,0,nan,nan,nan,nan,nan,nan,nan,nan,nan,nan,nan,nan,0.0,nan,nan,nan,nan,nan,nan,nan,nan,nan,nan,nan,nan,nan,nan,nan,nan,nan,nan,204.36818036803743,723.4908361674461,nan,723.7472604010836,nan,nan,nan,nan
1,337,1,1,1.0,1.0,0.2402821465220768,0,8,7,0,3,1,6,nan,nan,nan,nan,nan,nan,nan,nan,nan,nan,nan,nan,0.0,nan,nan,nan,nan,nan,nan,nan,nan,nan,nan,nan,nan,nan,nan,nan,nan,nan,nan,204.36818036803743,724.4909812834521,nan,724.7312634299742,nan,nan,nan,nan
1,338,1,1,1.0,1.0,0.2800952462712303,0,1,0,2,7,3,8,nan,nan,nan,nan,nan,nan,nan,nan,nan,nan,nan,nan,0.0,nan,nan,nan,nan,nan,nan,nan,nan,nan,nan,nan,nan,nan,nan,nan,nan,nan,nan,204.36818036803743,725.4911477819551,nan,725.7712430282263,nan,nan,nan,nan
1,339,1,1,1.0,1.0,0.23998079565353692,1,8,6,1,5,4,2,1.0,1.0,1.0,1.0,1.0,1.0,1.0,0.0,0.0,1.0,0.0,0.0,2.0,8.0,0.0,2.0,5.0,6.0,1.0,2.0,5.0,6.0,1.0,3.0,4.0,2.756983742729062,5.299190971214557,6.163257201144006,1.7799765020317864,3.6282416246831417,4.220379588077776,204.36818036803743,726.491254694527,727.2996725054109,726.7312354901806,734.508999899932,735.5188908804557,728.3081533804652,734.5006681322702
1,340,1,1,1.0,1.0,0.3572730053565465,0,0,3,7,8,2,1,nan,nan,nan,nan,nan,nan,nan,nan,nan,nan,nan,nan,0.0,nan,nan,nan,nan,nan,nan,nan,nan,nan,nan,nan,nan,nan,nan,nan,nan,nan,nan,204.36818036803743,735.7258596411848,nan,736.0831326465413,nan,nan,nan,nan
1,341,1,1,1.0,1.0,0.34912968895514496,1,3,2,6,4,0,5,1.0,1.0,1.0,1.0,1.0,1.0,0.0,0.0,0.0,1.0,0.0,0.0,1.0,2.0,1.0,0.0,4.0,3.0,8.0,4.0,5.0,6.0,1.0,2.0,3.0,5.287762445426779,6.263689726620214,7.008040680375416,0.7702540157188196,1.904567276389571,3.399659134243848,204.36818036803743,736.726003046555,737.5344100236543,737.0751327355101,745.6104733261454,746.6103986299131,738.5595649827155,745.6021666473243
1,342,1,1,1.0,1.0,0.3443337337230332,1,6,1,4,0,8,3,1.0,1.0,1.0,1.0,1.0,1.0,1.0,1.0,0.0,0.0,0.0,0.0,2.0,6.0,1.0,3.0,3.0,1.0,0.0,6.0,1.0,2.0,3.0,4.0,5.0,5.8836400678846985,1.6306356108980253,1.9717442913679406,3.7317364112241194,4.755704213137506,5.252016014652327,204.36818036803743,746.8106920550053,747.6191398014198,747.1550257887284,754.5617060850782,755.5647409764933,748.6359495931247,754.5534339033475
1,343,1,1,nan,nan,nan,0,7,8,3,1,0,2,nan,nan,nan,nan,nan,nan,nan,nan,nan,nan,nan,nan,0.0,nan,nan,nan,nan,nan,nan,nan,nan,nan,nan,nan,nan,nan,nan,nan,nan,nan,nan,204.36818036803743,755.7702805300069,nan,nan,nan,nan,nan,nan
1,344,1,1,1.0,1.0,0.40051985168247484,0,8,7,5,3,4,6,nan,nan,nan,nan,nan,nan,nan,nan,nan,nan,nan,nan,0.0,nan,nan,nan,nan,nan,nan,nan,nan,nan,nan,nan,nan,nan,nan,nan,nan,nan,nan,204.36818036803743,756.7704036932846,nan,757.1709235449671,nan,nan,nan,nan
1,345,1,1,1.0,1.0,0.32839178695576265,0,0,6,4,2,3,1,nan,nan,nan,nan,nan,nan,nan,nan,nan,nan,nan,nan,0.0,nan,nan,nan,nan,nan,nan,nan,nan,nan,nan,nan,nan,nan,nan,nan,nan,nan,nan,204.36818036803743,757.7705508049694,nan,758.0989425919252,nan,nan,nan,nan
1,346,1,1,1.0,1.0,0.3042432315123733,0,5,1,8,6,4,7,nan,nan,nan,nan,nan,nan,nan,nan,nan,nan,nan,nan,0.0,nan,nan,nan,nan,nan,nan,nan,nan,nan,nan,nan,nan,nan,nan,nan,nan,nan,nan,204.36818036803743,758.7706825212517,nan,759.0749257527641,nan,nan,nan,nan
1,347,1,1,1.0,1.0,0.28811140803736635,0,2,6,3,5,8,0,nan,nan,nan,nan,nan,nan,nan,nan,nan,nan,nan,nan,0.0,nan,nan,nan,nan,nan,nan,nan,nan,nan,nan,nan,nan,nan,nan,nan,nan,nan,nan,204.36818036803743,759.7708145226352,nan,760.0589259306726,nan,nan,nan,nan
1,348,1,1,1.0,1.0,0.3119346641760785,0,7,3,2,6,1,4,nan,nan,nan,nan,nan,nan,nan,nan,nan,nan,nan,nan,0.0,nan,nan,nan,nan,nan,nan,nan,nan,nan,nan,nan,nan,nan,nan,nan,nan,nan,nan,204.36818036803743,760.7709815913404,nan,761.0829162555165,nan,nan,nan,nan
1,349,1,1,1.0,1.0,0.30381985774147324,0,5,0,6,1,4,8,nan,nan,nan,nan,nan,nan,nan,nan,nan,nan,nan,nan,0.0,nan,nan,nan,nan,nan,nan,nan,nan,nan,nan,nan,nan,nan,nan,nan,nan,nan,nan,204.36818036803743,761.7710810913122,nan,762.0749009490537,nan,nan,nan,nan
1,350,0,0,1.0,0.0,0.20771486789453775,0,6,7,5,2,0,1,nan,nan,nan,nan,nan,nan,nan,nan,nan,nan,nan,nan,0.0,nan,nan,nan,nan,nan,nan,nan,nan,nan,nan,nan,nan,nan,nan,nan,nan,nan,nan,204.36818036803743,762.7711880038842,nan,762.9789028717787,nan,nan,nan,nan
1,351,1,1,1.0,1.0,0.19152716477401555,0,1,8,4,5,6,7,nan,nan,nan,nan,nan,nan,nan,nan,nan,nan,nan,nan,0.0,nan,nan,nan,nan,nan,nan,nan,nan,nan,nan,nan,nan,nan,nan,nan,nan,nan,nan,204.36818036803743,763.7713567831961,nan,763.9628839479701,nan,nan,nan,nan
1,352,0,0,1.0,0.0,0.12738276040181518,0,3,6,5,0,4,8,nan,nan,nan,nan,nan,nan,nan,nan,nan,nan,nan,nan,0.0,nan,nan,nan,nan,nan,nan,nan,nan,nan,nan,nan,nan,nan,nan,nan,nan,nan,nan,204.36818036803743,764.7715004736674,nan,764.8988832340692,nan,nan,nan,nan
1,353,1,1,1.0,1.0,0.3592319287126884,0,4,2,0,1,5,3,nan,nan,nan,nan,nan,nan,nan,nan,nan,nan,nan,nan,0.0,nan,nan,nan,nan,nan,nan,nan,nan,nan,nan,nan,nan,nan,nan,nan,nan,nan,nan,204.36818036803743,765.7716293389676,nan,766.1308612676803,nan,nan,nan,nan
1,354,1,1,1.0,1.0,0.2950821074191481,0,0,4,1,5,6,7,nan,nan,nan,nan,nan,nan,nan,nan,nan,nan,nan,nan,0.0,nan,nan,nan,nan,nan,nan,nan,nan,nan,nan,nan,nan,nan,nan,nan,nan,nan,nan,204.36818036803743,766.7717681827489,nan,767.0668502901681,nan,nan,nan,nan
1,355,1,1,1.0,1.0,0.31893643949297257,0,7,6,3,8,5,1,nan,nan,nan,nan,nan,nan,nan,nan,nan,nan,nan,nan,0.0,nan,nan,nan,nan,nan,nan,nan,nan,nan,nan,nan,nan,nan,nan,nan,nan,nan,nan,204.36818036803743,767.7719004692335,nan,768.0908369087265,nan,nan,nan,nan
1,356,1,1,1.0,1.0,0.37479326673201285,0,4,5,2,6,0,3,nan,nan,nan,nan,nan,nan,nan,nan,nan,nan,nan,nan,0.0,nan,nan,nan,nan,nan,nan,nan,nan,nan,nan,nan,nan,nan,nan,nan,nan,nan,nan,204.36818036803743,768.7720475809183,nan,769.1468408476503,nan,nan,nan,nan
1,357,1,1,1.0,1.0,0.33466513131861575,1,8,3,0,2,5,7,1.0,1.0,1.0,1.0,1.0,1.0,0.0,0.0,0.0,1.0,1.0,0.0,2.0,7.0,8.0,1.0,2.0,5.0,3.0,4.0,5.0,6.0,1.0,2.0,3.0,3.362448999163462,4.090470555005595,4.737503417651169,1.435299792821752,2.2174841106752865,2.7939378578739706,204.36818036803743,769.7721901310142,770.5806221969251,770.1068552623328,776.3730652745289,777.3733475237095,771.5974268568098,776.3647366429796
1,358,1,1,1.0,1.0,0.477488632343011,0,3,2,7,0,6,4,nan,nan,nan,nan,nan,nan,nan,nan,nan,nan,nan,nan,0.0,nan,nan,nan,nan,nan,nan,nan,nan,nan,nan,nan,nan,nan,nan,nan,nan,nan,nan,204.36818036803743,777.5732680377841,nan,778.0507566701272,nan,nan,nan,nan
1,359,0,0,0.0,1.0,0.5573477586440276,0,4,7,2,5,8,1,nan,nan,nan,nan,nan,nan,nan,nan,nan,nan,nan,nan,0.0,nan,nan,nan,nan,nan,nan,nan,nan,nan,nan,nan,nan,nan,nan,nan,nan,nan,nan,204.36818036803743,778.5733912010619,nan,779.1307389597059,nan,nan,nan,nan
1,360,1,1,1.0,1.0,0.4932067754562013,0,3,0,7,8,4,2,nan,nan,nan,nan,nan,nan,nan,nan,nan,nan,nan,nan,0.0,nan,nan,nan,nan,nan,nan,nan,nan,nan,nan,nan,nan,nan,nan,nan,nan,nan,nan,204.36818036803743,779.5735280491353,nan,780.0667348245915,nan,nan,nan,nan
1,361,1,1,1.0,1.0,0.42906807307736017,0,8,1,0,5,2,7,nan,nan,nan,nan,nan,nan,nan,nan,nan,nan,nan,nan,0.0,nan,nan,nan,nan,nan,nan,nan,nan,nan,nan,nan,nan,nan,nan,nan,nan,nan,nan,204.36818036803743,780.5736654674402,nan,781.0027335405175,nan,nan,nan,nan
1,362,1,1,1.0,1.0,0.3249007352278568,0,4,0,5,1,8,3,nan,nan,nan,nan,nan,nan,nan,nan,nan,nan,nan,nan,0.0,nan,nan,nan,nan,nan,nan,nan,nan,nan,nan,nan,nan,nan,nan,nan,nan,nan,nan,204.36818036803743,781.5738045963226,nan,781.8987053315504,nan,nan,nan,nan
1,363,1,1,1.0,1.0,0.2687633694149554,0,8,5,2,4,1,0,nan,nan,nan,nan,nan,nan,nan,nan,nan,nan,nan,nan,0.0,nan,nan,nan,nan,nan,nan,nan,nan,nan,nan,nan,nan,nan,nan,nan,nan,nan,nan,204.36818036803743,782.5739431550028,nan,782.8427065244177,nan,nan,nan,nan
1,364,1,1,1.0,1.0,0.27661388798151165,0,0,3,5,8,6,2,nan,nan,nan,nan,nan,nan,nan,nan,nan,nan,nan,nan,0.0,nan,nan,nan,nan,nan,nan,nan,nan,nan,nan,nan,nan,nan,nan,nan,nan,nan,nan,204.36818036803743,783.5740905517887,nan,783.8507044397702,nan,nan,nan,nan
1,365,1,1,1.0,1.0,0.3004628031339962,0,1,7,8,2,5,0,nan,nan,nan,nan,nan,nan,nan,nan,nan,nan,nan,nan,0.0,nan,nan,nan,nan,nan,nan,nan,nan,nan,nan,nan,nan,nan,nan,nan,nan,nan,nan,204.36818036803743,784.5742142852687,nan,784.8746770884027,nan,nan,nan,nan
1,366,1,1,1.0,1.0,0.30035532035981305,0,2,5,0,8,6,3,nan,nan,nan,nan,nan,nan,nan,nan,nan,nan,nan,nan,0.0,nan,nan,nan,nan,nan,nan,nan,nan,nan,nan,nan,nan,nan,nan,nan,nan,nan,nan,204.36818036803743,785.5743172064249,nan,785.8746725267847,nan,nan,nan,nan
1,367,1,1,1.0,1.0,0.30018026882316917,0,7,6,1,4,3,8,nan,nan,nan,nan,nan,nan,nan,nan,nan,nan,nan,nan,0.0,nan,nan,nan,nan,nan,nan,nan,nan,nan,nan,nan,nan,nan,nan,nan,nan,nan,nan,204.36818036803743,786.5744925430627,nan,786.8746728118858,nan,nan,nan,nan
1,368,0,0,0.0,1.0,0.43600684124976397,0,6,8,3,0,7,1,nan,nan,nan,nan,nan,nan,nan,nan,nan,nan,nan,nan,0.0,nan,nan,nan,nan,nan,nan,nan,nan,nan,nan,nan,nan,nan,nan,nan,nan,nan,nan,204.36818036803743,787.5746390845452,nan,788.010645925795,nan,nan,nan,nan
1,369,1,1,1.0,1.0,0.3318828386545647,0,4,7,0,6,3,2,nan,nan,nan,nan,nan,nan,nan,nan,nan,nan,nan,nan,0.0,nan,nan,nan,nan,nan,nan,nan,nan,nan,nan,nan,nan,nan,nan,nan,nan,nan,nan,204.36818036803743,788.5747616776207,nan,788.9066445162753,nan,nan,nan,nan
1,370,1,1,1.0,1.0,0.31572706677252427,0,6,8,4,3,5,7,nan,nan,nan,nan,nan,nan,nan,nan,nan,nan,nan,nan,0.0,nan,nan,nan,nan,nan,nan,nan,nan,nan,nan,nan,nan,nan,nan,nan,nan,nan,nan,204.36818036803743,789.574907648901,nan,789.8906347156735,nan,nan,nan,nan
1,371,1,1,1.0,1.0,0.2835643452417571,0,1,4,3,5,7,8,nan,nan,nan,nan,nan,nan,nan,nan,nan,nan,nan,nan,0.0,nan,nan,nan,nan,nan,nan,nan,nan,nan,nan,nan,nan,nan,nan,nan,nan,nan,nan,204.36818036803743,790.5750624583161,nan,790.8586268035579,nan,nan,nan,nan
1,372,0,0,1.0,0.0,0.2914026044891216,0,3,7,8,4,2,5,nan,nan,nan,nan,nan,nan,nan,nan,nan,nan,nan,nan,0.0,nan,nan,nan,nan,nan,nan,nan,nan,nan,nan,nan,nan,nan,nan,nan,nan,nan,nan,204.36818036803743,791.5752044382098,nan,791.8666070426989,nan,nan,nan,nan
1,373,1,1,1.0,1.0,0.3633268226112705,0,8,1,0,3,7,4,nan,nan,nan,nan,nan,nan,nan,nan,nan,nan,nan,nan,0.0,nan,nan,nan,nan,nan,nan,nan,nan,nan,nan,nan,nan,nan,nan,nan,nan,nan,nan,204.36818036803743,792.5752791344421,nan,792.9386059570534,nan,nan,nan,nan
1,374,1,1,1.0,1.0,0.2751404902373906,0,5,3,1,4,8,2,nan,nan,nan,nan,nan,nan,nan,nan,nan,nan,nan,nan,0.0,nan,nan,nan,nan,nan,nan,nan,nan,nan,nan,nan,nan,nan,nan,nan,nan,nan,nan,204.36818036803743,793.5754641644598,nan,793.8506046546972,nan,nan,nan,nan
1,375,1,1,1.0,1.0,0.2350112144195009,0,6,8,4,0,3,7,nan,nan,nan,nan,nan,nan,nan,nan,nan,nan,nan,nan,0.0,nan,nan,nan,nan,nan,nan,nan,nan,nan,nan,nan,nan,nan,nan,nan,nan,nan,nan,204.36818036803743,794.575585902232,nan,794.8105971166515,nan,nan,nan,nan
1,376,1,1,1.0,1.0,0.2108595228928607,0,4,3,6,5,2,1,nan,nan,nan,nan,nan,nan,nan,nan,nan,nan,nan,nan,0.0,nan,nan,nan,nan,nan,nan,nan,nan,nan,nan,nan,nan,nan,nan,nan,nan,nan,nan,204.36818036803743,795.5757270268223,nan,795.7865865497151,nan,nan,nan,nan
1,377,1,1,1.0,1.0,0.20269453880609944,0,2,6,1,0,8,3,nan,nan,nan,nan,nan,nan,nan,nan,nan,nan,nan,nan,0.0,nan,nan,nan,nan,nan,nan,nan,nan,nan,nan,nan,nan,nan,nan,nan,nan,nan,nan,204.36818036803743,796.5758801256306,nan,796.7785746644367,nan,nan,nan,nan
1,378,1,1,1.0,1.0,0.0665597731131129,0,3,5,0,4,2,6,nan,nan,nan,nan,nan,nan,nan,nan,nan,nan,nan,nan,0.0,nan,nan,nan,nan,nan,nan,nan,nan,nan,nan,nan,nan,nan,nan,nan,nan,nan,nan,204.36818036803743,797.5760015783017,nan,797.6425613514148,nan,nan,nan,nan
1,379,1,1,1.0,1.0,0.2584185093874112,0,6,4,5,2,8,7,nan,nan,nan,nan,nan,nan,nan,nan,nan,nan,nan,nan,0.0,nan,nan,nan,nan,nan,nan,nan,nan,nan,nan,nan,nan,nan,nan,nan,nan,nan,nan,204.36818036803743,798.5761375711008,nan,798.8345560804883,nan,nan,nan,nan
1,380,1,1,1.0,1.0,0.2822796838590875,0,0,8,6,5,4,3,nan,nan,nan,nan,nan,nan,nan,nan,nan,nan,nan,nan,0.0,nan,nan,nan,nan,nan,nan,nan,nan,nan,nan,nan,nan,nan,nan,nan,nan,nan,nan,204.36818036803743,799.5762615896529,nan,799.858541273512,nan,nan,nan,nan
1,381,1,1,1.0,1.0,0.2741075723024551,1,6,0,5,7,3,1,1.0,1.0,1.0,1.0,1.0,1.0,0.0,1.0,0.0,1.0,1.0,0.0,3.0,5.0,0.0,1.0,7.0,3.0,2.0,4.0,5.0,6.0,1.0,2.0,3.0,4.293417692562798,5.068716841080459,6.116924430505605,1.759867245942587,2.7094492748437915,3.541078801965341,204.36818036803743,800.5764209606568,801.384839341772,800.8505285329593,808.5691548974719,809.5714548006363,802.4099857478286,808.560832253017
