block,trial,time,setsize,freqtrials,trials_colorind,trials_colordeg,colorrgb0,colorrgb1,colorrgb2,correct_response,actual_response,acc,rts,probe_trials,rt_triggered_fast,rt_triggered_slow,rt_strailingavg,rts_runningavg,rts_runningstd,rts_runningslowthresh,rts_runningfastthresh,wm_respdeg,wm_respind,wm_resprgb0,wm_resprgb1,wm_resprgb2,wm_respcolorminusorigcolor,wm_rts,time_blockstart,time_encarray_onset,time_response,time_encarray_offest,time_memprobe_onset,time_memprobe_offset
0,0,4108,6,1,453,318,0.359670421306,0.39926174925,-1.0,1,1.0,1.0,0.380289989989,0,nan,nan,nan,nan,nan,nan,nan,nan,nan,0.0,0.0,0.0,nan,nan,209.966475347,210.978189161,211.358479151,211.478218241,nan,nan
0,1,4109,6,1,277,194,0.258470646878,0.33263615818,0.624824240443,1,1.0,1.0,0.363769996911,0,nan,nan,nan,nan,nan,nan,nan,nan,nan,0.0,0.0,0.0,nan,nan,209.966475347,211.986709024,212.350479021,212.486711876,nan,nan
0,2,4110,6,0,181,127,1.0,-0.123914391386,0.3392011262,0,0.0,1.0,0.563607319724,0,nan,nan,nan,nan,nan,nan,nan,nan,nan,0.0,0.0,0.0,nan,nan,209.966475347,212.986816506,213.550423826,213.486855565,nan,nan
0,3,4111,6,1,350,246,-0.175756816429,0.469490941964,0.138247479403,1,1.0,1.0,0.331509182695,0,nan,nan,nan,nan,nan,nan,nan,nan,nan,0.0,0.0,0.0,nan,nan,209.966475347,213.986912014,214.318421197,214.486934252,nan,nan
0,4,4112,6,1,220,154,0.861731547614,0.0893272636146,0.581247684387,1,1.0,1.0,0.37728619948,0,nan,nan,nan,nan,nan,nan,nan,nan,nan,0.0,0.0,0.0,nan,nan,209.966475347,215.037118881,215.41440508,215.537096073,nan,nan
0,5,4113,6,1,49,34,1.0,-0.027785429985,-1.0,1,1.0,1.0,0.4811958028,0,nan,nan,nan,nan,nan,nan,nan,nan,nan,0.0,0.0,0.0,nan,nan,209.966475347,216.037178752,216.518374554,216.537210112,nan,nan
0,6,4114,6,1,152,106,1.0,-0.259184487343,0.0830625546756,1,1.0,1.0,0.337061747443,0,nan,nan,nan,nan,nan,nan,nan,nan,nan,0.0,0.0,0.0,nan,nan,209.966475347,217.03730676,217.374368508,217.537344393,nan,nan
0,7,4115,6,1,76,53,1.0,-0.169674511773,-0.773365826749,1,1.0,1.0,0.267899296712,0,nan,nan,nan,nan,nan,nan,nan,nan,nan,0.0,0.0,0.0,nan,nan,209.966475347,218.082445729,218.350345025,218.58749196,nan,nan
0,8,4116,6,1,485,341,0.622774561467,0.312875618285,-1.0,1,1.0,1.0,0.327073060442,0,nan,nan,nan,nan,nan,nan,nan,nan,nan,0.0,0.0,0.0,nan,nan,209.966475347,219.079239518,219.406312579,219.579257765,nan,nan
0,9,4122,6,1,331,232,-0.143297839787,0.450801753776,0.311166711333,1,1.0,1.0,0.366944846231,1,nan,nan,nan,nan,nan,nan,nan,-132.695221862,317.0,-0.077772836126,0.429938605076,0.420733606481,-10.0391531382,2.80898788013,209.966475347,220.079342439,220.446287285,220.579379216,221.904540696,224.721561492
0,10,4123,6,1,110,77,1.0,-0.296722754836,-0.346921960777,1,1.0,1.0,0.339789848775,0,nan,nan,nan,nan,nan,nan,nan,nan,nan,0.0,0.0,0.0,nan,nan,209.966475347,225.938411457,226.278201306,226.438477315,nan,nan
0,11,4124,6,1,269,189,0.34171296506,0.305888347675,0.643262349404,1,1.0,1.0,0.37963683065,0,nan,nan,nan,nan,nan,nan,nan,nan,nan,0.0,0.0,0.0,nan,nan,209.966475347,226.938561134,227.318197965,227.438596771,nan,nan
0,12,4125,6,0,346,243,-0.174317561957,0.466431294057,0.176670174816,0,0.0,1.0,0.475461915135,0,nan,nan,nan,nan,nan,nan,nan,nan,nan,0.0,0.0,0.0,nan,nan,209.966475347,227.938703113,228.414165028,228.438735614,nan,nan
0,13,4126,6,1,84,59,1.0,-0.20765784414,-0.652191087791,1,1.0,1.0,0.355320837814,0,nan,nan,nan,nan,nan,nan,nan,nan,nan,0.0,0.0,0.0,nan,nan,209.966475347,228.938830551,229.294151389,229.438835683,nan,nan
0,14,4127,6,1,496,348,0.714833717156,0.274923884212,-1.0,1,1.0,1.0,0.34720096644,0,nan,nan,nan,nan,nan,nan,nan,nan,nan,0.0,0.0,0.0,nan,nan,209.966475347,229.938941739,230.286142706,230.43897196,nan,nan
0,15,4128,6,1,371,260,-0.14179360683,0.478331938097,-0.0779732583494,1,1.0,1.0,0.323024956509,0,nan,nan,nan,nan,nan,nan,nan,nan,nan,0.0,0.0,0.0,nan,nan,209.966475347,230.939087709,231.262112666,231.439126198,nan,nan
0,16,4129,6,1,71,49,1.0,-0.144504067012,-0.877980773838,1,0.0,0.0,0.426879535895,0,0.0,0.0,nan,nan,nan,nan,nan,nan,nan,0.0,0.0,0.0,nan,nan,209.966475347,231.939207736,232.366087272,232.439237956,nan,nan
0,17,4130,6,1,143,100,1.0,-0.287057525782,-0.00469998909502,1,1.0,1.0,0.370741493534,0,nan,nan,nan,nan,nan,nan,nan,nan,nan,0.0,0.0,0.0,nan,nan,209.966475347,232.939341732,233.310083225,233.439364539,nan,nan
0,18,4131,6,1,297,208,0.0686262056446,0.388646276542,0.544904663634,1,1.0,1.0,0.402595758438,0,nan,nan,nan,nan,nan,nan,nan,nan,nan,0.0,0.0,0.0,nan,nan,209.966475347,233.93946632,234.342062078,234.439464039,nan,nan
0,19,4132,6,1,214,150,0.920243657418,0.0575410437433,0.553854850604,1,1.0,1.0,0.338418528438,0,nan,nan,nan,nan,nan,nan,nan,nan,nan,0.0,0.0,0.0,nan,nan,209.966475347,234.939594613,235.278013142,235.43962797,nan,nan
0,20,4133,6,1,10,7,0.926811495151,0.168400576072,-1.0,1,1.0,1.0,0.298354586121,0,nan,nan,nan,nan,nan,nan,nan,nan,nan,0.0,0.0,0.0,nan,nan,209.966475347,235.939720627,236.238075213,236.439761396,nan,nan
0,21,4134,6,1,212,149,0.93926288676,0.0467731277665,0.543851001166,1,1.0,1.0,0.410187628586,0,nan,nan,nan,nan,nan,nan,nan,nan,nan,0.0,0.0,0.0,nan,nan,209.966475347,236.939817845,237.350005473,237.439866026,nan,nan
0,22,4135,6,1,491,345,0.673033477965,0.292707709811,-1.0,1,1.0,1.0,0.442019655835,0,nan,nan,nan,nan,nan,nan,nan,nan,nan,0.0,0.0,0.0,nan,nan,209.966475347,237.939980636,238.382000292,238.439986908,nan,nan
0,23,4136,6,1,120,84,1.0,-0.310161497659,-0.240162905937,1,1.0,1.0,0.401903540827,0,nan,nan,nan,nan,nan,nan,nan,nan,nan,0.0,0.0,0.0,nan,nan,209.966475347,238.940068161,239.341971702,239.440146278,nan,nan
0,24,4137,6,1,51,35,1.0,-0.0385160204876,-1.0,1,1.0,1.0,0.425741995685,0,nan,nan,nan,nan,nan,nan,nan,nan,nan,0.0,0.0,0.0,nan,nan,209.966475347,239.940228956,240.365970952,240.44025547,nan,nan
0,25,4138,6,1,493,346,0.689769084006,0.285700779988,-1.0,1,1.0,1.0,0.441596570425,0,nan,nan,nan,nan,nan,nan,nan,nan,nan,0.0,0.0,0.0,nan,nan,209.966475347,240.940340715,241.381937285,241.440358106,nan,nan
0,26,4139,6,1,416,292,0.087881616042,0.458117504295,-0.630165317015,1,1.0,1.0,0.481453531422,0,nan,nan,nan,nan,nan,nan,nan,nan,nan,0.0,0.0,0.0,nan,nan,209.966475347,241.940461026,242.421914557,242.440525458,nan,nan
0,27,4140,6,1,29,20,1.0,0.0770173926463,-1.0,1,1.0,1.0,0.38321537897,0,nan,nan,nan,nan,nan,nan,nan,nan,nan,0.0,0.0,0.0,nan,nan,209.966475347,242.990692696,243.373908075,243.49066105,nan,nan
0,28,4141,6,1,212,149,0.93926288676,0.0467731277665,0.543851001166,1,1.0,1.0,0.423149886075,0,nan,nan,nan,nan,nan,nan,nan,nan,nan,0.0,0.0,0.0,nan,nan,209.966475347,243.990748575,244.413898461,244.490774234,nan,nan
0,29,4142,6,1,342,240,-0.170052622031,0.462913557708,0.21407524247,1,1.0,1.0,0.39897159487,0,nan,nan,nan,nan,nan,nan,nan,nan,nan,0.0,0.0,0.0,nan,nan,209.966475347,244.990878295,245.38984989,245.490915643,nan,nan
0,30,4143,6,1,9,6,0.918933560847,0.172916688009,-1.0,1,1.0,1.0,0.350834253244,0,nan,nan,nan,nan,nan,nan,nan,nan,nan,0.0,0.0,0.0,nan,nan,209.966475347,245.99101001,246.341844263,246.491041371,nan,nan
0,31,4144,6,1,450,316,0.335949728395,0.405598329481,-1.0,1,1.0,1.0,0.342718658503,0,nan,nan,nan,nan,nan,nan,nan,nan,nan,0.0,0.0,0.0,nan,nan,209.966475347,246.991124334,247.333842993,247.49113916,nan,nan
0,32,4152,6,1,65,45,1.0,-0.113312155659,-1.0,1,1.0,1.0,0.414587543346,1,nan,nan,nan,nan,nan,nan,nan,59.1687700924,44.0,1.0,-0.00106984144607,-1.0,-14.8718950924,4.38419640064,209.966475347,247.991228965,248.405816508,248.491264888,249.824761772,254.216990233
0,33,4153,6,1,351,246,-0.175686286722,0.4701852659,0.128489978773,1,1.0,1.0,0.45217398461,0,nan,nan,nan,nan,nan,nan,nan,nan,nan,0.0,0.0,0.0,nan,nan,209.966475347,255.425501658,255.877675643,255.925530168,nan,nan
0,34,4154,6,1,288,202,0.150005133015,0.365331945294,0.586687239957,1,1.0,1.0,0.380036823452,0,nan,nan,nan,nan,nan,nan,nan,nan,nan,0.0,0.0,0.0,nan,nan,209.966475347,256.425627101,256.805663924,256.925676993,nan,nan
0,35,4155,6,1,507,356,0.805995650865,0.232688349973,-1.0,1,1.0,1.0,0.395899666008,0,nan,nan,nan,nan,nan,nan,nan,nan,nan,0.0,0.0,0.0,nan,nan,209.966475347,257.425751974,257.82165164,257.925795594,nan,nan
0,36,4156,6,1,93,65,1.0,-0.245614297951,-0.538619881923,1,1.0,1.0,0.475710236002,0,nan,nan,nan,nan,nan,nan,nan,nan,nan,0.0,0.0,0.0,nan,nan,209.966475347,258.425905071,258.901615307,258.925926739,nan,nan
0,37,4157,6,1,502,352,0.764740937618,0.25241357569,-1.0,1,1.0,1.0,0.467558718752,0,nan,nan,nan,nan,nan,nan,nan,nan,nan,0.0,0.0,0.0,nan,nan,209.966475347,259.426040493,259.893599212,259.926068718,nan,nan
0,38,4158,6,1,79,55,1.0,-0.184296021705,-0.724170777997,1,1.0,1.0,0.435410232749,0,nan,nan,nan,nan,nan,nan,nan,nan,nan,0.0,0.0,0.0,nan,nan,209.966475347,260.426170783,260.861581015,260.926183327,nan,nan
0,39,4159,6,1,230,161,0.760023132926,0.140224214653,0.61781109556,1,1.0,1.0,0.515119307674,0,nan,nan,nan,nan,nan,nan,nan,nan,nan,0.0,0.0,0.0,nan,nan,209.966475347,261.426468424,261.941587732,261.926351249,nan,nan
0,40,4200,6,1,286,201,0.169078956243,0.359734776014,0.594698705761,1,1.0,1.0,0.779135286808,0,nan,nan,nan,nan,nan,nan,nan,nan,nan,0.0,0.0,0.0,nan,nan,209.966475347,262.426413686,263.205548973,262.926480399,nan,nan
0,41,4201,6,1,338,237,-0.162891363375,0.458928707883,0.250399161362,1,1.0,1.0,0.538995964918,0,nan,nan,nan,nan,nan,nan,nan,nan,nan,0.0,0.0,0.0,nan,nan,209.966475347,263.4265263,263.965522265,263.92660014,nan,nan
0,42,4202,6,1,400,281,-0.0107874812989,0.471427301814,-0.412692688905,1,1.0,1.0,0.410871577915,0,nan,nan,nan,nan,nan,nan,nan,nan,nan,0.0,0.0,0.0,nan,nan,209.966475347,264.42664376,264.837515338,264.926700494,nan,nan
0,43,4203,6,1,90,63,1.0,-0.233635786423,-0.574971871003,1,1.0,1.0,0.354720136616,0,nan,nan,nan,nan,nan,nan,nan,nan,nan,0.0,0.0,0.0,nan,nan,209.966475347,265.426794006,265.781514143,265.926814248,nan,nan
0,44,4204,6,1,434,305,0.213881816697,0.43461034373,-1.0,1,1.0,1.0,0.362582279369,0,nan,nan,nan,nan,nan,nan,nan,nan,nan,0.0,0.0,0.0,nan,nan,209.966475347,266.426914318,266.789496597,266.92695138,nan,nan
0,45,4205,6,1,42,29,1.0,0.00954878589686,-1.0,1,1.0,1.0,0.386435559019,0,nan,nan,nan,nan,nan,nan,nan,nan,nan,0.0,0.0,0.0,nan,nan,209.966475347,267.427047173,267.813482732,267.927074543,nan,nan
0,46,4206,6,1,113,79,1.0,-0.302191989669,-0.314576349441,1,1.0,1.0,0.442260848358,0,nan,nan,nan,nan,nan,nan,nan,nan,nan,0.0,0.0,0.0,nan,nan,209.966475347,268.427179174,268.869440022,268.927195424,nan,nan
0,47,4207,6,1,372,261,-0.138660017671,0.478458869494,-0.0888123791441,1,1.0,1.0,0.362163755577,0,nan,nan,nan,nan,nan,nan,nan,nan,nan,0.0,0.0,0.0,nan,nan,209.966475347,269.42728466,269.789448415,269.927335692,nan,nan
0,48,4208,6,1,487,342,0.639529740128,0.306295026098,-1.0,1,1.0,1.0,0.353990856092,0,nan,nan,nan,nan,nan,nan,nan,nan,nan,0.0,0.0,0.0,nan,nan,209.966475347,270.427424073,270.781414929,270.927455433,nan,nan
0,49,4209,6,1,316,222,-0.0718215561597,0.428203514031,0.427892255365,1,1.0,1.0,0.369845146313,0,nan,nan,nan,nan,nan,nan,nan,nan,nan,0.0,0.0,0.0,nan,nan,209.966475347,271.427556928,271.797402075,271.927583157,nan,nan
0,50,4210,6,1,92,64,1.0,-0.241703663401,-0.55060883727,1,1.0,1.0,0.425698945764,0,nan,nan,nan,nan,nan,nan,nan,nan,nan,0.0,0.0,0.0,nan,nan,209.966475347,272.427704324,272.853403269,272.92770803,nan,nan
0,51,4211,6,1,187,131,1.0,-0.0912463489427,0.385383214542,1,1.0,1.0,0.40154203726,0,nan,nan,nan,nan,nan,nan,nan,nan,nan,0.0,0.0,0.0,nan,nan,209.966475347,273.427828626,273.829370664,273.927834613,nan,nan
0,52,4212,6,1,45,31,1.0,-0.0063957592436,-1.0,1,1.0,1.0,0.433387748897,0,nan,nan,nan,nan,nan,nan,nan,nan,nan,0.0,0.0,0.0,nan,nan,209.966475347,274.427953784,274.861341533,274.927960912,nan,nan
0,53,4213,6,0,406,285,0.0244967455079,0.467245700284,-0.489366101921,0,0.0,1.0,0.409249941818,0,nan,nan,nan,nan,nan,nan,nan,nan,nan,0.0,0.0,0.0,nan,nan,209.966475347,275.428091486,275.837341428,275.928118571,nan,nan
0,54,4214,6,1,10,7,0.926811495151,0.168400576072,-1.0,1,1.0,1.0,0.377114000265,0,nan,nan,nan,nan,nan,nan,nan,nan,nan,0.0,0.0,0.0,nan,nan,209.966475347,276.428208947,276.805322947,276.928220636,nan,nan
0,55,4215,6,1,174,122,1.0,-0.160790688716,0.281981279739,1,1.0,1.0,0.352983606048,0,nan,nan,nan,nan,nan,nan,nan,nan,nan,0.0,0.0,0.0,nan,nan,209.966475347,277.428318139,277.781301745,277.928365466,nan,nan
0,56,4216,6,0,265,186,0.384259149088,0.291568309415,0.649478858709,0,0.0,1.0,0.448732284363,0,nan,nan,nan,nan,nan,nan,nan,nan,nan,0.0,0.0,0.0,nan,nan,209.966475347,278.428547073,278.877279357,278.928496325,nan,nan
0,57,4217,6,1,427,300,0.163265173604,0.444863218481,-0.840208708629,1,1.0,1.0,0.3447189047,0,nan,nan,nan,nan,nan,nan,nan,nan,nan,0.0,0.0,0.0,nan,nan,209.966475347,279.428561328,279.773280233,279.928619488,nan,nan
0,58,4218,6,1,151,106,1.0,-0.262720288689,0.0734626651272,1,1.0,1.0,0.360531285405,0,nan,nan,nan,nan,nan,nan,nan,nan,nan,0.0,0.0,0.0,nan,nan,209.966475347,280.428716421,280.789247707,280.928768309,nan,nan
0,59,4219,6,1,443,311,0.281558783006,0.419268214519,-1.0,1,1.0,1.0,0.368391432334,0,nan,nan,nan,nan,nan,nan,nan,nan,nan,0.0,0.0,0.0,nan,nan,209.966475347,281.42884329,281.797234722,281.928852983,nan,nan
0,60,4220,6,1,25,17,1.0,0.0970682892709,-1.0,1,1.0,1.0,0.344273867086,0,nan,nan,nan,nan,nan,nan,nan,nan,nan,0.0,0.0,0.0,nan,nan,209.966475347,282.428937372,282.773211239,282.928986409,nan,nan
0,61,4221,6,1,152,106,1.0,-0.259184487343,0.0830625546756,1,1.0,1.0,0.384121989831,0,nan,nan,nan,nan,nan,nan,nan,nan,nan,0.0,0.0,0.0,nan,nan,209.966475347,283.4290631,283.81318509,283.929109286,nan,nan
0,62,4222,6,1,105,73,1.0,-0.285049837405,-0.401580786678,1,1.0,1.0,0.375940537546,0,nan,nan,nan,nan,nan,nan,nan,nan,nan,0.0,0.0,0.0,nan,nan,209.966475347,284.429228457,284.805168994,284.929233874,nan,nan
0,63,4227,6,1,436,306,0.228681708805,0.431413732101,-1.0,1,1.0,1.0,0.295824913308,1,nan,nan,nan,nan,nan,nan,nan,162.7075506,409.0,0.0429436170054,0.464793150178,-0.529461854507,-19.2700506001,1.90044925688,209.966475347,285.429328526,285.725153439,285.929389822,287.262867035,289.171435593
0,64,4228,6,0,115,80,1.0,-0.305166285737,-0.293172749504,0,0.0,1.0,0.449077252764,0,nan,nan,nan,nan,nan,nan,nan,nan,nan,0.0,0.0,0.0,nan,nan,209.966475347,290.379984365,290.829061618,290.880016296,nan,nan
0,65,4229,6,1,498,350,0.731507943485,0.267561876527,-1.0,1,1.0,1.0,0.360962068196,0,nan,nan,nan,nan,nan,nan,nan,nan,nan,0.0,0.0,0.0,nan,nan,209.966475347,291.380075026,291.741037094,291.880122637,nan,nan
0,66,4233,6,1,241,169,0.64365311028,0.192605941253,0.644254782112,1,1.0,1.0,0.336817133706,1,nan,nan,nan,nan,nan,nan,nan,-65.2604911303,221.0,0.851781464038,0.0945411604707,0.585422935822,-14.1926338697,1.90055417316,209.966475347,292.380208167,292.7170253,292.880241238,294.205438355,296.114020598
0,67,4234,6,1,85,59,1.0,-0.212156452387,-0.638781227021,1,1.0,1.0,0.370438434649,0,nan,nan,nan,nan,nan,nan,nan,nan,nan,0.0,0.0,0.0,nan,nan,209.966475347,297.322504368,297.692942802,297.822561102,nan,nan
0,68,4235,6,0,22,15,1.0,0.111842423158,-1.0,0,0.0,1.0,0.450257842429,0,nan,nan,nan,nan,nan,nan,nan,nan,nan,0.0,0.0,0.0,nan,nan,209.966475347,298.322664592,298.772922435,298.822692817,nan,nan
0,69,4236,6,1,392,275,-0.0541067903503,0.475522277549,-0.315549842675,1,1.0,1.0,0.330135296099,0,nan,nan,nan,nan,nan,nan,nan,nan,nan,0.0,0.0,0.0,nan,nan,209.966475347,299.322791746,299.652927042,299.822835936,nan,nan
0,70,4237,6,0,345,242,-0.173519535469,0.465595146217,0.186119282857,0,0.0,1.0,0.441966912709,0,nan,nan,nan,nan,nan,nan,nan,nan,nan,0.0,0.0,0.0,nan,nan,209.966475347,300.32292004,300.764886953,300.822946269,nan,nan
0,71,4238,6,1,95,66,1.0,-0.253175017597,-0.514975443931,1,1.0,1.0,0.313827700913,0,nan,nan,nan,nan,nan,nan,nan,nan,nan,0.0,0.0,0.0,nan,nan,209.966475347,301.323048619,301.63687632,301.823070572,nan,nan
0,72,4239,6,1,246,172,0.589768841079,0.215019897151,0.651339528662,1,1.0,1.0,0.289671647362,0,nan,nan,nan,nan,nan,nan,nan,nan,nan,0.0,0.0,0.0,nan,nan,209.966475347,302.323177768,302.612849416,302.823184896,nan,nan
0,73,4240,6,1,314,220,-0.0594438881467,0.42463230952,0.441925406839,1,1.0,1.0,0.321558698546,0,nan,nan,nan,nan,nan,nan,nan,nan,nan,0.0,0.0,0.0,nan,nan,209.966475347,303.323277553,303.644836251,303.823308344,nan,nan
0,74,4241,6,1,474,333,0.530901762182,0.346545376391,-1.0,1,1.0,1.0,0.433394876309,0,nan,nan,nan,nan,nan,nan,nan,nan,nan,0.0,0.0,0.0,nan,nan,209.966475347,304.323428655,304.756823531,304.823450892,nan,nan
0,75,4242,6,1,365,256,-0.157962026257,0.477016591838,-0.0139196855225,1,1.0,1.0,0.409274175297,0,nan,nan,nan,nan,nan,nan,nan,nan,nan,0.0,0.0,0.0,nan,nan,209.966475347,305.323534426,305.732808601,305.82356151,nan,nan
0,76,4243,6,1,28,19,1.0,0.082066132397,-1.0,1,1.0,1.0,0.30510855373,0,nan,nan,nan,nan,nan,nan,nan,nan,nan,0.0,0.0,0.0,nan,nan,209.966475347,306.32366215,306.628770703,306.823696646,nan,nan
0,77,4244,6,1,379,266,-0.113535935895,0.478614986251,-0.165970515924,1,1.0,1.0,0.304975128267,0,nan,nan,nan,nan,nan,nan,nan,nan,nan,0.0,0.0,0.0,nan,nan,209.966475347,307.323790159,307.628765287,307.823811256,nan,nan
0,78,4245,6,1,82,57,1.0,-0.198479155091,-0.679872484948,1,1.0,1.0,0.384836730082,0,nan,nan,nan,nan,nan,nan,nan,nan,nan,0.0,0.0,0.0,nan,nan,209.966475347,308.323914746,308.708751476,308.823945822,nan,nan
0,79,4246,6,1,474,333,0.530901762182,0.346545376391,-1.0,1,1.0,1.0,0.296629174612,0,nan,nan,nan,nan,nan,nan,nan,nan,nan,0.0,0.0,0.0,nan,nan,209.966475347,309.324093217,309.620722392,309.824067559,nan,nan
0,80,4247,6,1,134,94,1.0,-0.304950998219,-0.095144111098,1,1.0,1.0,0.328514799941,0,0.0,0.0,0.336660234878,0.392184955481,0.0723904867173,0.464575442199,0.319794468764,nan,nan,0.0,0.0,0.0,nan,nan,209.966475347,310.324177606,310.652692406,310.824198704,nan,nan
0,81,4248,6,0,355,249,-0.173737462994,0.472683863687,0.0888799762457,0,0.0,1.0,0.448372490704,0,0.0,0.0,0.357838821753,0.391398904178,0.0722849681342,0.463683872312,0.319113936044,nan,nan,0.0,0.0,0.0,nan,nan,209.966475347,311.324324147,311.772696638,311.824351802,nan,nan
0,82,4249,6,1,476,334,0.547545041103,0.340739382997,-1.0,1,1.0,1.0,0.336272311397,0,0.0,0.0,0.371053200681,0.392093704014,0.0721144796525,0.464208183666,0.319979224361,nan,nan,0.0,0.0,0.0,nan,nan,209.966475347,312.324409391,312.660681703,312.824446739,nan,nan
0,83,4250,6,1,68,47,1.0,-0.129018143495,-0.972903198114,1,1.0,1.0,0.344128467143,0,0.0,0.0,0.376257756415,0.391421157115,0.0719369985209,0.463358155636,0.319484158594,nan,nan,0.0,0.0,0.0,nan,nan,209.966475347,313.324547949,313.668676416,313.824587292,nan,nan
0,84,4251,6,1,237,166,0.686387300223,0.174031846447,0.636349816437,1,1.0,1.0,0.399983407464,0,0.0,0.0,0.360128062001,0.390858148901,0.0716912450751,0.462549393976,0.319166903826,nan,nan,0.0,0.0,0.0,nan,nan,209.966475347,314.324661417,314.724644825,314.824697055,nan,nan
0,85,4252,6,1,137,96,1.0,-0.300190217086,-0.0647316600203,1,1.0,1.0,0.479829044081,0,0.0,0.0,0.407980306229,0.390965504884,0.0712750759843,0.462240580868,0.3196904289,nan,nan,0.0,0.0,0.0,nan,nan,209.966475347,315.324790282,315.804619326,315.8248282,nan,nan
0,86,4253,6,1,24,16,1.0,0.102019060141,-1.0,1,1.0,1.0,0.391668244265,0,0.0,0.0,0.423826898603,0.391998801851,0.0714969917225,0.463495793574,0.320501810129,nan,nan,0.0,0.0,0.0,nan,nan,209.966475347,316.32493112,316.716599364,316.824961341,nan,nan
0,87,4254,6,1,368,258,-0.150457169737,0.477793263397,-0.0457341785459,1,1.0,1.0,0.343541165814,0,0.0,0.0,0.405012818053,0.391995002339,0.0710849106152,0.463079912954,0.320910091724,nan,nan,0.0,0.0,0.0,nan,nan,209.966475347,317.325062265,317.668603431,317.825095907,nan,nan
0,88,4255,6,1,40,28,1.0,0.0201165467467,-1.0,1,1.0,1.0,0.343402893282,0,0.0,0.0,0.359537434454,0.39144439056,0.0708662078092,0.46231059837,0.320578182751,nan,nan,0.0,0.0,0.0,nan,nan,209.966475347,318.325189134,318.668592027,318.825227052,nan,nan
0,89,4256,6,0,375,263,-0.128556699755,0.478682433309,-0.121605159467,0,0.0,1.0,0.447201879229,0,0.0,0.0,0.378048646109,0.390904598456,0.0706486607819,0.461553259238,0.320255937674,nan,nan,0.0,0.0,0.0,nan,nan,209.966475347,319.325346793,319.772548672,319.825439164,nan,nan
0,90,4257,6,1,273,191,0.299732959835,0.319577193062,0.635038033336,1,1.0,1.0,0.327092731837,0,0.0,0.0,0.372565834783,0.391530123798,0.0705024766705,0.462032600469,0.321027647127,nan,nan,0.0,0.0,0.0,nan,nan,209.966475347,320.325446862,320.652539594,320.825478508,nan,nan
0,91,4258,6,1,165,116,1.0,-0.205056383665,0.203745440608,1,1.0,1.0,0.326895729639,0,0.0,0.0,0.367063446902,0.39082202059,0.0704351060275,0.461257126617,0.320386914562,nan,nan,0.0,0.0,0.0,nan,nan,209.966475347,321.325609083,321.652504812,321.825617351,nan,nan
0,92,4259,6,1,349,245,-0.175656888649,0.468768509344,0.147945183432,1,1.0,1.0,0.350707384758,0,0.0,0.0,0.334898615411,0.390127169601,0.0703641637798,0.460491333381,0.319763005821,nan,nan,0.0,0.0,0.0,nan,nan,209.966475347,322.325800668,322.676508053,322.825742794,nan,nan
0,93,4300,6,1,185,130,1.0,-0.102214474652,0.370299946716,1,1.0,1.0,0.294647744857,0,0.0,0.0,0.324083619751,0.389703300947,0.070102830823,0.45980613177,0.319600470124,nan,nan,0.0,0.0,0.0,nan,nan,209.966475347,323.325836021,323.620483765,323.825892185,nan,nan
0,94,4301,6,0,33,23,1.0,0.0565990290419,-1.0,0,0.0,1.0,0.414497166872,0,0.0,0.0,0.353284098829,0.388692071627,0.0704075730704,0.459099644697,0.318284498556,nan,nan,0.0,0.0,0.0,nan,nan,209.966475347,324.325974863,324.74047203,324.826007935,nan,nan
0,95,4302,6,1,463,325,0.440238315199,0.376011795327,-1.0,1,1.0,1.0,0.34237910714,0,0.0,0.0,0.35050800629,0.388963704208,0.0700855244404,0.459049228649,0.318878179768,nan,nan,0.0,0.0,0.0,nan,nan,209.966475347,325.326089473,325.66846858,325.826130812,nan,nan
0,96,4303,6,1,220,154,0.861731547614,0.0893272636146,0.581247684387,1,1.0,1.0,0.334200791083,0,0.0,0.0,0.363692355032,0.388478447989,0.0698797843582,0.458358232347,0.318598663631,nan,nan,0.0,0.0,0.0,nan,nan,209.966475347,326.326215771,326.660416562,326.826256825,nan,nan
0,97,4304,6,1,10,7,0.926811495151,0.168400576072,-1.0,1,1.0,1.0,0.318067105487,0,0.0,0.0,0.331549001237,0.387918884515,0.0697345025012,0.457653387017,0.318184382014,nan,nan,0.0,0.0,0.0,nan,nan,209.966475347,327.32634549,327.644412596,327.826385119,nan,nan
0,98,4305,6,1,338,237,-0.162891363375,0.458928707883,0.250399161362,1,1.0,1.0,0.309919864405,0,0.0,0.0,0.320729253658,0.38720611126,0.0697320574498,0.45693816871,0.31747405381,nan,nan,0.0,0.0,0.0,nan,nan,209.966475347,328.326472644,328.636392509,328.826510562,nan,nan
0,99,4306,6,1,425,298,0.149162615564,0.447529597292,-0.791715667876,1,1.0,1.0,0.285773219541,0,1.0,0.0,0.304586729811,0.3864254421,0.0698080841682,0.456233526268,0.316617357932,nan,nan,0.0,0.0,0.0,nan,nan,209.966475347,329.326604359,329.612377579,329.826630303,nan,nan
0,100,4312,6,1,469,329,0.489482198204,0.360453357602,-1.0,1,1.0,1.0,0.333632021211,1,0.0,0.0,0.309775035052,0.385418919874,0.0701764386469,0.455595358521,0.315242481227,127.986237452,458.0,0.399688045963,0.388050214986,-1.0,-7.75186245208,2.47562641697,209.966475347,330.326731798,330.660363819,330.826743202,332.160246644,334.643889156
0,101,4313,6,1,353,248,-0.175041255135,0.471490071959,0.108799216003,1,1.0,1.0,0.36784575507,0,0.0,0.0,0.329083665274,0.384906178303,0.070016163883,0.454922342186,0.31489001442,nan,nan,0.0,0.0,0.0,nan,nan,209.966475347,335.852440494,336.220286249,336.352463587,nan,nan
0,102,4314,6,1,268,188,0.35230222188,0.302367520405,0.645005310408,1,1.0,1.0,0.303646857385,0,0.0,0.0,0.335041544555,0.384738919252,0.069692376452,0.454431295704,0.3150465428,nan,nan,0.0,0.0,0.0,nan,nan,209.966475347,336.852564797,337.156211654,337.352587034,nan,nan
0,103,4315,6,1,315,221,-0.0657111424032,0.426434809442,0.434956515233,1,1.0,1.0,0.28720412543,0,0.0,0.0,0.319565579295,0.383951617681,0.0698075625868,0.453759180267,0.314144055094,nan,nan,0.0,0.0,0.0,nan,nan,209.966475347,337.861018518,338.148222643,338.361035623,nan,nan
0,104,4316,6,1,40,28,1.0,0.0201165467467,-1.0,1,1.0,1.0,0.359066167846,0,0.0,0.0,0.31663905022,0.383021353332,0.0701097315291,0.453131084861,0.312911621803,nan,nan,0.0,0.0,0.0,nan,nan,209.966475347,338.861147952,339.22021412,339.361168479,nan,nan
0,105,4317,6,1,150,105,1.0,-0.266152531622,0.0638227105866,1,1.0,1.0,0.34292136319,0,0.0,0.0,0.329730552156,0.382793208708,0.0698138565174,0.452607065226,0.312979352191,nan,nan,0.0,0.0,0.0,nan,nan,209.966475347,339.861268548,340.204189911,340.361328134,nan,nan
0,106,4318,6,1,400,281,-0.0107874812989,0.471427301814,-0.412692688905,1,1.0,1.0,0.334787807427,0,0.0,0.0,0.345591779488,0.382417059222,0.0695905881245,0.452007647347,0.312826471098,nan,nan,0.0,0.0,0.0,nan,nan,209.966475347,340.861382872,341.19617068,341.36143362,nan,nan
0,107,4319,6,0,271,190,0.320642857732,0.312811632898,0.639400143054,0,0.0,1.0,0.398612942081,0,0.0,0.0,0.358774037566,0.381971926028,0.0694160852612,0.451388011289,0.312555840767,nan,nan,0.0,0.0,0.0,nan,nan,209.966475347,341.861535115,342.260148057,342.361575028,nan,nan
0,108,4320,6,1,504,354,0.78128615449,0.244628286196,-1.0,1,1.0,1.0,0.318494751584,0,0.0,0.0,0.350631833697,0.38212600951,0.0691123480725,0.451238357583,0.313013661437,nan,nan,0.0,0.0,0.0,nan,nan,209.966475347,342.861641456,343.180136208,343.361684506,nan,nan
0,109,4321,6,1,35,24,1.0,0.0462653595507,-1.0,1,1.0,1.0,0.366361536086,0,0.0,0.0,0.361156409917,0.381542236501,0.0690615726893,0.450603809191,0.312480663812,nan,nan,0.0,0.0,0.0,nan,nan,209.966475347,343.861761767,344.228123304,344.361807098,nan,nan
0,110,4322,6,0,327,229,-0.128086156831,0.445480682368,0.344176439252,0,0.0,1.0,0.446177237667,0,0.0,0.0,0.377011175112,0.381404230134,0.0687620368481,0.450166266982,0.312642193286,nan,nan,0.0,0.0,0.0,nan,nan,209.966475347,344.861928835,345.308106072,345.361955349,nan,nan
0,111,4323,6,1,97,68,1.0,-0.260369742894,-0.491718830742,1,1.0,1.0,0.382055315655,0,0.0,0.0,0.398198029802,0.381987770742,0.0687246558094,0.450712426552,0.313263114933,nan,nan,0.0,0.0,0.0,nan,nan,209.966475347,345.862036032,346.244091347,346.362062261,nan,nan
0,112,4324,6,1,276,194,0.268710435127,0.329430325417,0.627563005949,1,1.0,1.0,0.29388168687,0,0.0,0.0,0.374038080064,0.381988373822,0.0684171616949,0.450405535517,0.313571212127,nan,nan,0.0,0.0,0.0,nan,nan,209.966475347,346.862162045,347.156043732,347.362216499,nan,nan
0,113,4325,6,1,23,16,1.0,0.106943944166,-1.0,1,1.0,1.0,0.397764205933,0,0.0,0.0,0.357900402819,0.381208668628,0.0686117581099,0.449820426738,0.312596910518,nan,nan,0.0,0.0,0.0,nan,nan,209.966475347,347.862287773,348.260051979,348.362304879,nan,nan
0,114,4326,6,1,275,193,0.279002393219,0.326185254474,0.630178474337,1,1.0,1.0,0.348206506576,0,0.0,0.0,0.34661746646,0.381353892639,0.068327608032,0.449681500671,0.313026284607,nan,nan,0.0,0.0,0.0,nan,nan,209.966475347,348.895813566,349.244020073,349.39577907,nan,nan
0,115,4327,6,1,430,302,0.184725017221,0.440645728776,-0.941904167281,1,1.0,1.0,0.340060406365,0,0.0,0.0,0.362010372958,0.3810656545,0.0680994582799,0.449165112779,0.31296619622,nan,nan,0.0,0.0,0.0,nan,nan,209.966475347,349.895907934,350.23596834,350.395928461,nan,nan
0,116,4328,6,1,182,127,1.0,-0.118523835432,0.347089474713,1,1.0,1.0,0.363970135339,0,0.0,0.0,0.35074568276,0.380712160981,0.0679111742593,0.44862333524,0.312800986722,nan,nan,0.0,0.0,0.0,nan,nan,209.966475347,350.896035087,351.260005223,351.396052763,nan,nan
0,117,4329,6,1,69,48,1.0,-0.134207199312,-0.939648005704,1,1.0,1.0,0.371830852702,0,0.0,0.0,0.358620464802,0.380569066745,0.0676378933451,0.44820696009,0.3129311734,nan,nan,0.0,0.0,0.0,nan,nan,209.966475347,351.896150267,352.267981119,352.396197308,nan,nan
0,118,4330,6,1,350,246,-0.175756816429,0.469490941964,0.138247479403,1,1.0,1.0,0.39738017926,0,0.0,0.0,0.377727055767,0.380495014083,0.0673554453015,0.447850459385,0.313139568782,nan,nan,0.0,0.0,0.0,nan,nan,209.966475347,352.926561937,353.323942116,353.429620181,nan,nan
0,119,4331,6,1,256,180,0.481312611765,0.257047908656,0.656065722404,1,1.0,1.0,0.378184257541,0,0.0,0.0,0.382465096501,0.380636906228,0.0670895502339,0.447726456462,0.313547355994,nan,nan,0.0,0.0,0.0,nan,nan,209.966475347,353.929742773,354.307927031,354.429751326,nan,nan
0,120,4332,6,1,338,237,-0.162891363375,0.458928707883,0.250399161362,1,1.0,1.0,0.402037822176,0,0.0,0.0,0.392534086326,0.380616467489,0.0668097976644,0.447426265153,0.313806669824,nan,nan,0.0,0.0,0.0,nan,nan,209.966475347,354.929883611,355.331921434,355.429902143,nan,nan
0,121,4333,6,1,31,21,1.0,0.0668515730764,-1.0,1,1.0,1.0,0.3939008452,0,0.0,0.0,0.391374308305,0.380793503478,0.0665614095231,0.447354913001,0.314232093955,nan,nan,0.0,0.0,0.0,nan,nan,209.966475347,355.929983396,356.323884241,356.430039275,nan,nan
0,122,4334,6,1,335,235,-0.155595990888,0.455627721073,0.276893227044,1,1.0,1.0,0.36176775489,0,0.0,0.0,0.385902140755,0.380900940705,0.066298589602,0.447199530307,0.314602351103,nan,nan,0.0,0.0,0.0,nan,nan,209.966475347,356.930107698,357.291875453,357.430129936,nan,nan
0,123,4335,6,1,201,141,1.0,-0.0135712615467,0.48142235136,1,1.0,1.0,0.369617353193,0,0.0,0.0,0.375095317761,0.380745386349,0.0660508837174,0.446796270066,0.314694502632,nan,nan,0.0,0.0,0.0,nan,nan,209.966475347,357.930253098,358.299870451,358.430267638,nan,nan
0,124,4336,6,1,435,305,0.221263830514,0.433027056876,-1.0,1,1.0,1.0,0.385457958095,0,0.0,0.0,0.372281022059,0.380655644146,0.0657915391271,0.446447183273,0.314864105019,nan,nan,0.0,0.0,0.0,nan,nan,209.966475347,358.930380822,359.31583878,359.430407906,nan,nan
0,125,4337,6,1,42,29,1.0,0.00954878589686,-1.0,1,1.0,1.0,0.345311053097,0,0.0,0.0,0.366795454795,0.380694062658,0.0655292410266,0.446223303684,0.315164821631,nan,nan,0.0,0.0,0.0,nan,nan,209.966475347,359.930507976,360.275819029,360.430541047,nan,nan
0,126,4338,6,1,251,176,0.535576518695,0.236509187076,0.655284151108,1,1.0,1.0,0.385162597056,0,0.0,0.0,0.37197720275,0.380413245121,0.0653441560452,0.445757401167,0.315069089076,nan,nan,0.0,0.0,0.0,nan,nan,209.966475347,360.93063741,361.315800007,361.43065081,nan,nan
0,127,4339,6,1,363,255,-0.162287729338,0.476365729747,0.00704812682028,1,1.0,1.0,0.353052599356,0,0.0,0.0,0.361175416503,0.380450641593,0.0650877408188,0.445538382412,0.315362900775,nan,nan,0.0,0.0,0.0,nan,nan,209.966475347,361.930732633,362.283785232,362.430772261,nan,nan
0,128,4340,6,1,141,99,1.0,-0.291952736687,-0.024586852943,1,1.0,1.0,0.448878254276,0,0.0,0.0,0.395697816896,0.380236594388,0.0648778519884,0.445114446377,0.3153587424,nan,nan,0.0,0.0,0.0,nan,nan,209.966475347,362.930890577,363.379768831,363.430905402,nan,nan
0,129,4341,6,1,283,198,0.19826868328,0.351050922538,0.605825948857,1,1.0,1.0,0.30267125275,0,0.0,0.0,0.368200702127,0.380768700279,0.0649056870757,0.445674387355,0.315863013203,nan,nan,0.0,0.0,0.0,nan,nan,209.966475347,363.981077487,364.28374874,364.48102788,nan,nan
0,130,4342,6,0,406,285,0.0244967455079,0.467245700284,-0.489366101921,0,0.0,1.0,0.438577099703,0,0.0,0.0,0.39670886891,0.380167950683,0.0650146027388,0.445182553421,0.315153347944,nan,nan,0.0,0.0,0.0,nan,nan,209.966475347,364.981153038,365.419730138,365.481183829,nan,nan
0,131,4343,6,1,30,21,1.0,0.071945658744,-1.0,1,1.0,1.0,0.302466267254,0,0.0,0.0,0.347904873236,0.380613822049,0.0649651932484,0.445579015298,0.315648628801,nan,nan,0.0,0.0,0.0,nan,nan,209.966475347,365.981279336,366.283745604,366.481315829,nan,nan
0,132,4344,6,1,128,90,1.0,-0.310663006781,-0.156689791083,1,1.0,1.0,0.350325068459,0,0.0,0.0,0.363789478472,0.380021795119,0.0650724057442,0.445094200863,0.314949389375,nan,nan,0.0,0.0,0.0,nan,nan,209.966475347,366.981369997,367.331695066,367.481413047,nan,nan
0,133,4345,6,1,441,310,0.266287261384,0.422891888867,-1.0,1,1.0,1.0,0.39813739853,0,0.0,0.0,0.350309578081,0.37979851146,0.0648780486628,0.444676560123,0.314920462797,nan,nan,0.0,0.0,0.0,nan,nan,209.966475347,367.981545333,368.379682731,368.481547614,nan,nan
0,134,4346,6,1,488,343,0.647907709101,0.302951493728,-1.0,1,1.0,1.0,0.366006304044,0,0.0,0.0,0.371489590344,0.379935368826,0.0646547804064,0.444590149232,0.31528058842,nan,nan,0.0,0.0,0.0,nan,nan,209.966475347,368.981663933,369.347670238,369.481665644,nan,nan
0,135,4347,6,1,264,185,0.394966959701,0.287889713878,0.650717615019,1,1.0,1.0,0.381856887601,0,0.0,0.0,0.382000196725,0.379832190568,0.0644259451997,0.444258135768,0.315406245369,nan,nan,0.0,0.0,0.0,nan,nan,209.966475347,369.981791372,370.36364826,370.481801065,nan,nan
0,136,4348,6,0,40,28,1.0,0.0201165467467,-1.0,0,0.0,1.0,0.437705555465,0,0.0,0.0,0.39518958237,0.379847078047,0.0641888811647,0.444035959211,0.315658196882,nan,nan,0.0,0.0,0.0,nan,nan,209.966475347,370.981920236,371.419625792,371.481945325,nan,nan
0,137,4349,6,1,394,277,-0.0437090198531,0.474655926729,-0.339401417396,1,1.0,1.0,0.309609963093,0,0.0,0.0,0.376390802053,0.380269402699,0.0641435470247,0.444412949724,0.316125855675,nan,nan,0.0,0.0,0.0,nan,nan,209.966475347,371.982007761,372.291617725,372.482050811,nan,nan
0,138,4350,6,1,155,108,1.0,-0.2479831371,0.111611878621,1,1.0,1.0,0.301510619465,0,0.0,0.0,0.349608712674,0.379757377775,0.0641911005967,0.443948478371,0.315566277178,nan,nan,0.0,0.0,0.0,nan,nan,209.966475347,372.982135485,373.283646104,373.482175684,nan,nan
0,139,4351,6,1,6,4,0.895129075663,0.186272780825,-1.0,1,1.0,1.0,0.341311986092,0,0.0,0.0,0.317477522884,0.379194451456,0.0643007294145,0.44349518087,0.314893722041,nan,nan,0.0,0.0,0.0,nan,nan,209.966475347,373.982278604,374.32359059,374.482310535,nan,nan
0,140,4352,6,1,377,265,-0.121259861678,0.478700828387,-0.143695900877,1,1.0,1.0,0.341154326685,0,0.0,0.0,0.327992310748,0.378923862417,0.064150046167,0.443073908584,0.314773816251,nan,nan,0.0,0.0,0.0,nan,nan,209.966475347,374.982406898,375.323561225,375.482424289,nan,nan
0,141,4353,6,1,317,222,-0.077772836126,0.429938605076,0.420733606481,1,1.0,1.0,0.325024917722,0,0.0,0.0,0.335830410166,0.37865599337,0.0640006870415,0.442656680411,0.314655306328,nan,nan,0.0,0.0,0.0,nan,nan,209.966475347,375.982534052,376.30755897,376.482565983,nan,nan
0,142,4354,6,1,234,164,0.71814774995,0.15974031316,0.62913160129,1,1.0,1.0,0.340861246455,0,0.0,0.0,0.335680163621,0.378278309738,0.0639324267217,0.44221073646,0.314345883017,nan,nan,0.0,0.0,0.0,nan,nan,209.966475347,376.982665482,377.323526728,377.482683158,nan,nan
0,143,4355,6,1,140,98,1.0,-0.294209249228,-0.0345777392028,1,1.0,1.0,0.484697089065,0,0.0,0.0,0.383527751081,0.378016651953,0.0637847496212,0.441801401574,0.314231902332,nan,nan,0.0,0.0,0.0,nan,nan,209.966475347,377.982809457,378.467506546,378.482814303,nan,nan
0,144,4356,6,1,232,163,0.739158239773,0.150046616059,0.623712016981,1,1.0,1.0,0.372242248617,0,0.0,0.0,0.399266861379,0.378757488322,0.064177291629,0.442934779951,0.314580196693,nan,nan,0.0,0.0,0.0,nan,nan,209.966475347,378.991249492,379.363491741,379.491277717,nan,nan
0,145,4357,6,1,457,321,0.391639248186,0.390358177281,-1.0,1,1.0,1.0,0.372111388948,0,0.0,0.0,0.409683575543,0.378712555634,0.0639578805994,0.442670436234,0.314754675035,nan,nan,0.0,0.0,0.0,nan,nan,209.966475347,379.991363246,380.363474635,380.491411428,nan,nan
0,146,4358,6,1,331,232,-0.143297839787,0.450801753776,0.311166711333,1,1.0,1.0,0.339955205563,0,0.0,0.0,0.361436281043,0.378667342164,0.0637407956343,0.442408137798,0.31492654653,nan,nan,0.0,0.0,0.0,nan,nan,209.966475347,380.991499808,381.331455014,381.491533735,nan,nan
0,147,4359,6,1,157,110,1.0,-0.240048375319,0.130425901556,1,0.0,0.0,0.411795009859,0,0.0,0.0,0.37462053479,0.378403994296,0.0636032682632,0.442007262559,0.314800726033,nan,nan,0.0,0.0,0.0,nan,nan,209.966475347,381.991648629,382.403443639,382.49165262,nan,nan
0,148,4400,6,1,52,36,1.0,-0.0438860552364,-1.0,1,1.0,1.0,0.443635875359,0,0.0,0.0,0.398462030261,0.378629609266,0.0634470229783,0.442076632244,0.315182586288,nan,nan,0.0,0.0,0.0,nan,nan,209.966475347,382.991775498,383.435411373,383.4917812,nan,nan
0,149,4401,6,0,320,225,-0.0946500390753,0.43494401576,0.398701238857,0,0.0,1.0,0.46745579876,0,0.0,0.0,0.440962227993,0.379065892931,0.0634561156149,0.442522008546,0.315609777316,nan,nan,0.0,0.0,0.0,nan,nan,209.966475347,383.991907213,384.459363012,384.491934868,nan,nan
0,150,4402,6,1,221,155,0.851781464038,0.0945411604707,0.585422935822,1,1.0,1.0,0.395321487449,0,0.0,0.0,0.435471053856,0.37965515897,0.0636519600648,0.443307119035,0.316003198905,nan,nan,0.0,0.0,0.0,nan,nan,209.966475347,384.992038073,385.38735956,385.492060596,nan,nan
0,151,4403,6,1,357,251,-0.1717918326,0.473767524415,0.068739031695,1,1.0,1.0,0.379219447728,0,0.0,0.0,0.413998911312,0.37975890949,0.0634535660373,0.443212475527,0.316305343452,nan,nan,0.0,0.0,0.0,nan,nan,209.966475347,385.99216209,386.371381538,386.492167222,nan,nan
0,152,4404,6,1,280,196,0.228089347314,0.342018854333,0.61587222022,1,1.0,1.0,0.339051160496,0,0.0,0.0,0.371197365224,0.379755360399,0.0632445078006,0.4429998682,0.316510852598,nan,nan,0.0,0.0,0.0,nan,nan,209.966475347,386.992292095,387.331343255,387.492296657,nan,nan
0,153,4405,6,1,449,315,0.328095008353,0.407646248688,-1.0,1,1.0,1.0,0.346934970468,0,0.0,0.0,0.355068526231,0.379489319877,0.0631227615794,0.442612081456,0.316366558297,nan,nan,0.0,0.0,0.0,nan,nan,209.966475347,387.992385607,388.339320578,388.492422385,nan,nan
0,154,4406,6,1,397,279,-0.0275613476434,0.473159987783,-0.37569455347,1,1.0,1.0,0.338817094918,0,0.0,0.0,0.341601075294,0.379277927998,0.0629717936981,0.442249721696,0.316306134299,nan,nan,0.0,0.0,0.0,nan,nan,209.966475347,388.992508199,389.331325294,389.492550964,nan,nan
0,155,4407,6,1,266,187,0.373577590308,0.295207490188,0.648113769863,1,1.0,1.0,0.378678332083,0,0.0,0.0,0.35481013249,0.379016890365,0.0628518649941,0.441868755359,0.316165025371,nan,nan,0.0,0.0,0.0,nan,nan,209.966475347,389.992651318,390.37132965,390.492695509,nan,nan
0,156,4408,6,1,510,358,0.830554458933,0.220436700166,-1.0,1,1.0,1.0,0.346485655755,0,0.0,0.0,0.354660360919,0.379014720119,0.0626500986626,0.441664818782,0.316364621457,nan,nan,0.0,0.0,0.0,nan,nan,209.966475347,390.992798429,391.339284085,391.492803276,nan,nan
0,157,4409,6,1,397,279,-0.0275613476434,0.473159987783,-0.37569455347,1,1.0,1.0,0.730350487866,0,0.0,1.0,0.485171491901,0.378807528627,0.0625038515411,0.441311380168,0.316303677086,nan,nan,0.0,0.0,0.0,nan,nan,209.966475347,391.992903345,392.723253833,392.492974334,nan,nan
0,158,4414,6,0,158,111,1.0,-0.235949227405,0.139764106,0,0.0,1.0,0.570174833294,1,0.0,0.0,0.549003658971,0.381032484065,0.0682584961835,0.449290980248,0.312773987881,-24.1696124447,162.0,1.0,-0.218739557155,0.176632971453,3.07586244473,2.0588977891,209.966475347,392.993054447,393.56322928,393.493101203,394.826561594,396.893493725
0,159,4415,6,1,325,228,-0.119404900653,0.442631039184,0.360186421743,1,1.0,1.0,0.43747833278,0,0.0,0.0,0.579334551313,0.382222058588,0.0696670858348,0.451889144423,0.312554972753,nan,nan,0.0,0.0,0.0,nan,nan,209.966475347,398.093679153,398.531157486,398.593706237,nan,nan
0,160,4416,6,0,236,165,0.697004556276,0.169301754335,0.634065852989,0,0.0,1.0,0.493316452019,0,0.0,0.0,0.500323206031,0.382567410302,0.0695854297759,0.452152840078,0.312981980526,nan,nan,0.0,0.0,0.0,nan,nan,209.966475347,399.09383168,399.587148132,399.602195595,nan,nan
0,161,4417,6,1,291,204,0.122027637739,0.373441943191,0.573791926984,1,1.0,1.0,0.365193775389,0,0.0,0.0,0.43199618673,0.383255292549,0.0699125582458,0.453167850794,0.313342734303,nan,nan,0.0,0.0,0.0,nan,nan,209.966475347,400.093929184,400.459122959,400.593967387,nan,nan
0,162,4418,6,1,59,41,1.0,-0.0814409933332,-1.0,1,1.0,1.0,0.373046794906,0,0.0,0.0,0.410519007438,0.383143801702,0.0697108002412,0.452854601943,0.313433001461,nan,nan,0.0,0.0,0.0,nan,nan,209.966475347,401.094048355,401.46709515,401.594097392,nan,nan
0,163,4419,6,0,140,98,1.0,-0.294209249228,-0.0345777392028,0,0.0,1.0,0.500846170355,0,0.0,0.0,0.41302891355,0.383081856875,0.0695011066105,0.452582963486,0.313580750265,nan,nan,0.0,0.0,0.0,nan,nan,209.966475347,402.094218558,402.595064729,402.594259612,nan,nan
0,164,4420,6,1,376,264,-0.124962824795,0.478704673615,-0.132627625282,1,1.0,1.0,0.452764707617,0,0.0,0.0,0.442219224293,0.383799931957,0.0698927616103,0.453692693568,0.313907170347,nan,nan,0.0,0.0,0.0,nan,nan,209.966475347,403.094303802,403.54706851,403.594334593,nan,nan
0,165,4421,6,1,84,59,1.0,-0.20765784414,-0.652191087791,1,1.0,1.0,0.46860417258,0,0.0,0.0,0.474071683517,0.384217900295,0.0698859247013,0.454103824996,0.314331975593,nan,nan,0.0,0.0,0.0,nan,nan,209.966475347,404.094431241,404.563035414,404.594476572,nan,nan
0,166,4422,6,1,157,110,1.0,-0.240048375319,0.130425901556,1,1.0,1.0,0.484455041587,0,0.0,1.0,0.468607973928,0.384726251332,0.0699804255279,0.45470667686,0.314745825805,nan,nan,0.0,0.0,0.0,nan,nan,209.966475347,405.094568943,405.579023985,405.594592321,nan,nan
0,167,4427,6,0,450,316,0.335949728395,0.405598329481,-1.0,0,0.0,1.0,0.476285848301,1,0.0,0.0,0.476448354156,0.385323429717,0.0701935488703,0.455516978587,0.315129880847,134.654848877,448.0,0.32026743599,0.409662251776,-1.0,-1.06109887684,1.65048147319,209.966475347,406.094726888,406.571012736,406.594755112,407.928253422,409.58677722
0,168,4428,6,1,178,125,1.0,-0.139919655122,0.315097826042,1,1.0,1.0,0.359644345939,0,0.0,0.0,0.440128411942,0.385864872685,0.0703332348468,0.456198107532,0.315531637838,nan,nan,0.0,0.0,0.0,nan,nan,209.966475347,410.795289785,411.154934131,411.295341102,nan,nan
0,169,4429,6,1,363,255,-0.162287729338,0.476365729747,0.00704812682028,1,1.0,1.0,0.407458387315,0,0.0,0.0,0.414462860518,0.385709721639,0.0701536684847,0.455863390124,0.315556053154,nan,nan,0.0,0.0,0.0,nan,nan,209.966475347,411.795448584,412.202906971,412.29545058,nan,nan
0,170,4430,6,1,112,78,1.0,-0.300501516081,-0.325324861792,1,1.0,1.0,0.383321150206,0,0.0,0.0,0.38347462782,0.385837654967,0.0699667992355,0.455804454202,0.315870855731,nan,nan,0.0,0.0,0.0,nan,nan,209.966475347,412.795579444,413.178900594,413.295581155,nan,nan
0,171,4431,6,1,70,49,1.0,-0.13936984996,-0.906436913284,1,1.0,1.0,0.38320283452,0,0.0,0.0,0.391327457347,0.385822938565,0.0697621818559,0.45558512042,0.316060756709,nan,nan,0.0,0.0,0.0,nan,nan,209.966475347,413.795672956,414.17887579,414.295712585,nan,nan
0,172,4432,6,1,490,344,0.664660387652,0.296157848571,-1.0,1,1.0,1.0,0.343026563991,0,0.0,0.0,0.369850182906,0.385807705401,0.06955937442,0.455367079822,0.316248330981,nan,nan,0.0,0.0,0.0,nan,nan,209.966475347,414.795835462,415.138862026,415.29585827,nan,nan
0,173,4433,6,0,326,229,-0.12383419111,0.444071765824,0.352223541474,0,0.0,1.0,0.398805953097,0,0.0,0.0,0.375011783869,0.385560415567,0.0694338283027,0.454994243869,0.316126587264,nan,nan,0.0,0.0,0.0,nan,nan,209.966475347,415.796027903,416.194833856,416.295991411,nan,nan
0,174,4434,6,1,381,267,-0.105403061426,0.478425078289,-0.188431136224,1,1.0,1.0,0.374740561005,0,0.0,0.0,0.372191026031,0.385636539346,0.0692412579101,0.454877797256,0.316395281436,nan,nan,0.0,0.0,0.0,nan,nan,209.966475347,416.796085778,417.170826339,417.296119419,nan,nan
0,175,4435,6,1,127,89,1.0,-0.31111021432,-0.167036648065,1,1.0,1.0,0.398588708602,0,0.0,0.0,0.390711740901,0.385574276612,0.0690480270372,0.45462230365,0.316526249575,nan,nan,0.0,0.0,0.0,nan,nan,209.966475347,417.796214642,418.194803351,418.296221199,nan,nan
0,176,4436,6,1,447,314,0.312467642152,0.411646472288,-1.0,1,1.0,1.0,0.414457253646,0,0.0,0.0,0.395928841084,0.385648222249,0.0688585370393,0.454506759288,0.316789685209,nan,nan,0.0,0.0,0.0,nan,nan,209.966475347,418.796324119,419.210781373,419.296345787,nan,nan
0,177,4437,6,1,226,158,0.801265930663,0.120208988367,0.60458276857,1,1.0,1.0,0.414313564543,0,0.0,0.0,0.409119842264,0.385810985138,0.0686976895364,0.454508674674,0.317113295601,nan,nan,0.0,0.0,0.0,nan,nan,209.966475347,419.796437018,420.210750583,420.296484059,nan,nan
0,178,4438,6,1,143,100,1.0,-0.287057525782,-0.00469998909502,1,1.0,1.0,0.414159041364,0,0.0,0.0,0.414309953184,0.385971111988,0.0685375634699,0.454508675458,0.317433548519,nan,nan,0.0,0.0,0.0,nan,nan,209.966475347,420.796595532,421.210754574,421.296619196,nan,nan
0,179,4439,6,1,359,252,-0.169222339917,0.474741883077,0.0483828026834,1,1.0,1.0,0.3660162827,0,0.0,0.0,0.398162962869,0.386128586454,0.0683781342431,0.454506720697,0.317750452211,nan,nan,0.0,0.0,0.0,nan,nan,209.966475347,421.796726963,422.162743245,422.296746919,nan,nan
0,180,4440,6,1,26,18,1.0,0.0920921692153,-1.0,1,1.0,1.0,0.333874353673,0,0.0,0.0,0.371349892579,0.386016851433,0.0682043152729,0.454221166706,0.31781253616,nan,nan,0.0,0.0,0.0,nan,nan,209.966475347,422.796841002,423.130715356,423.296870937,nan,nan
0,181,4441,6,1,314,220,-0.0594438881467,0.42463230952,0.441925406839,1,1.0,1.0,0.429723956622,0,0.0,0.0,0.376538197665,0.385728771335,0.068125370729,0.453854142064,0.317603400606,nan,nan,0.0,0.0,0.0,nan,nan,209.966475347,423.796982125,424.226706082,424.297003793,nan,nan
0,182,4442,6,1,249,175,0.557275547736,0.228026269286,0.654084877906,1,1.0,1.0,0.469612563495,0,0.0,0.0,0.411070291263,0.385970503123,0.0680157509264,0.453986254049,0.317954752196,nan,nan,0.0,0.0,0.0,nan,nan,209.966475347,424.797068225,425.266680788,425.297124104,nan,nan
0,183,4443,6,1,435,305,0.221263830514,0.433027056876,-1.0,1,1.0,1.0,0.437117398717,0,0.0,0.0,0.445484639611,0.386427563562,0.0681093494328,0.454536912995,0.318318214129,nan,nan,0.0,0.0,0.0,nan,nan,209.966475347,425.805555302,426.2426727,426.305588373,nan,nan
0,184,4444,6,1,105,73,1.0,-0.285049837405,-0.401580786678,1,1.0,1.0,0.532951606438,0,0.0,1.0,0.479893856216,0.386703051796,0.0680261766994,0.454729228496,0.318676875097,nan,nan,0.0,0.0,0.0,nan,nan,209.966475347,426.805693574,427.338645181,427.305748883,nan,nan
0,185,4449,6,1,42,29,1.0,0.00954878589686,-1.0,1,1.0,1.0,0.396839063615,1,0.0,0.0,0.455636022923,0.387493584524,0.0686843228216,0.456177907346,0.318809261702,70.5885131413,28.0,1.0,0.082066132397,-1.0,-10.1197631413,1.63375136256,209.966475347,427.805787086,428.20262615,428.305827285,429.630994467,431.272869122
0,186,4450,6,1,486,341,0.631151757674,0.309603058574,-1.0,1,1.0,1.0,0.433150262572,0,0.0,0.0,0.454313644208,0.387543829035,0.0685028476643,0.4560466767,0.319040981371,nan,nan,0.0,0.0,0.0,nan,nan,209.966475347,432.481395941,432.914546204,432.981425306,nan,nan
0,187,4451,6,1,28,19,1.0,0.082066132397,-1.0,1,1.0,1.0,0.344983190764,0,0.0,0.0,0.39165750565,0.387787713707,0.0684003584505,0.456188072157,0.319387355256,nan,nan,0.0,0.0,0.0,nan,nan,209.966475347,433.481547043,433.826530234,433.981588953,nan,nan
0,188,4452,6,1,200,140,1.0,-0.0191209939188,0.47515178387,1,1.0,1.0,0.328809021041,0,0.0,0.0,0.368980824792,0.387560030074,0.0682892148682,0.455849244942,0.319270815206,nan,nan,0.0,0.0,0.0,nan,nan,209.966475347,434.48168446,434.810493481,434.98168332,nan,nan
0,189,4453,6,1,508,357,0.814199817736,0.228638933499,-1.0,1,1.0,1.0,0.336694256868,0,0.0,0.0,0.336828822891,0.387249178174,0.068241548472,0.455490726646,0.319007629702,nan,nan,0.0,0.0,0.0,nan,nan,209.966475347,435.481801065,435.818495322,435.981821877,nan,nan
0,190,4454,6,1,256,180,0.481312611765,0.257047908656,0.656065722404,1,1.0,1.0,0.336551992688,0,0.0,0.0,0.334018423532,0.386983099641,0.0681599565166,0.455143056158,0.318823143125,nan,nan,0.0,0.0,0.0,nan,nan,209.966475347,436.481908832,436.818460825,436.981930215,nan,nan
0,191,4455,6,1,125,87,1.0,-0.311567427947,-0.187805059354,1,1.0,1.0,0.392406647559,0,0.0,0.0,0.355217632372,0.386719062432,0.068078647105,0.454797709537,0.318640415327,nan,nan,0.0,0.0,0.0,nan,nan,209.966475347,437.482055373,437.87446202,437.982078466,nan,nan
0,192,4456,6,1,69,48,1.0,-0.134207199312,-0.939648005704,1,1.0,1.0,0.320262643509,0,0.0,0.0,0.349740427919,0.386748685271,0.0679023616868,0.454651046958,0.318846323584,nan,nan,0.0,0.0,0.0,nan,nan,209.966475347,438.482168557,438.8024312,438.982210466,nan,nan
0,193,4457,6,1,274,192,0.289344050657,0.322900892411,0.632670269059,1,1.0,1.0,0.36810747534,0,0.0,0.0,0.360258922136,0.386404198008,0.0678942254483,0.454298423456,0.31850997256,nan,nan,0.0,0.0,0.0,nan,nan,209.966475347,439.482312816,439.850420291,439.982337049,nan,nan
0,194,4458,6,1,166,116,1.0,-0.20036215083,0.21267421211,1,1.0,1.0,0.366528888233,0,0.0,0.0,0.351633002361,0.386309885005,0.0677316884122,0.454041573417,0.318578196592,nan,nan,0.0,0.0,0.0,nan,nan,209.966475347,440.515851724,440.882380612,441.015803827,nan,nan
0,195,4459,6,1,318,223,-0.0835627602325,0.431640264478,0.413481556053,1,1.0,1.0,0.366508931853,0,0.0,0.0,0.367048431809,0.386208443996,0.0675725674338,0.453781011429,0.318635876562,nan,nan,0.0,0.0,0.0,nan,nan,209.966475347,441.515899335,441.882408267,442.015910169,nan,nan
0,196,4500,6,1,505,355,0.789537956352,0.240683140511,-1.0,1,1.0,1.0,0.36635098746,0,0.0,0.0,0.366462935849,0.386107936281,0.0674145795636,0.453522515844,0.318693356717,nan,nan,0.0,0.0,0.0,nan,nan,209.966475347,442.516031336,442.882382323,443.016056709,nan,nan
0,197,4501,6,1,458,322,0.399688045963,0.388050214986,-1.0,1,1.0,1.0,0.342181249522,0,0.0,0.0,0.358347056278,0.3860076472,0.0672579156181,0.453265562818,0.318749731582,nan,nan,0.0,0.0,0.0,nan,nan,209.966475347,443.516159914,443.858341164,444.016184433,nan,nan
0,198,4502,6,1,170,119,1.0,-0.180990482069,0.247815061387,1,1.0,1.0,0.310063268989,0,0.0,0.0,0.339531835324,0.385786301757,0.0671597527601,0.452946054518,0.318626548997,nan,nan,0.0,0.0,0.0,nan,nan,209.966475347,444.516290204,444.826353473,445.016311016,nan,nan
0,199,4503,6,1,332,233,-0.146647089803,0.45205423783,0.302714191958,1,1.0,1.0,0.389913467225,0,0.0,0.0,0.347385995245,0.385405784005,0.0672044348677,0.452610218873,0.318201349137,nan,nan,0.0,0.0,0.0,nan,nan,209.966475347,445.51639284,445.906306307,446.016411941,nan,nan
0,200,4504,6,1,36,25,1.0,0.0410699577143,-1.0,1,1.0,1.0,0.333770863712,0,0.0,0.0,0.344582533309,0.385428322421,0.0670369672167,0.452465289638,0.318391355204,nan,nan,0.0,0.0,0.0,nan,nan,209.966475347,446.516517712,446.850288576,447.016573021,nan,nan
0,201,4505,6,1,182,127,1.0,-0.118523835432,0.347089474713,1,1.0,1.0,0.293624813668,0,0.0,0.0,0.339103048202,0.385171320139,0.0669687018187,0.452140021957,0.31820261832,nan,nan,0.0,0.0,0.0,nan,nan,209.966475347,447.51664059,447.810265403,448.016684209,nan,nan
0,202,4506,6,1,425,298,0.149162615564,0.447529597292,-0.791715667876,1,1.0,1.0,0.301512614824,0,1.0,0.0,0.309636097401,0.384718119612,0.0671110165515,0.451829136163,0.31760710306,nan,nan,0.0,0.0,0.0,nan,nan,209.966475347,448.516774016,448.81828663,449.016806231,nan,nan
0,203,4514,6,1,361,253,-0.166047812515,0.475607712818,0.0278173107143,1,1.0,1.0,0.317351224832,1,0.0,0.0,0.304162884442,0.384308240278,0.0671984978651,0.451506738143,0.317109742413,-162.436703945,359.0,-0.169222339917,0.474741883077,0.0483828026834,-1.39142105452,5.43432629108,209.966475347,449.516900314,449.834251538,450.016937091,451.342090303,456.78444951
0,204,4515,6,1,95,66,1.0,-0.253175017597,-0.514975443931,1,1.0,1.0,0.42478720285,0,0.0,0.0,0.347883680835,0.383980019614,0.0671965146539,0.451176534268,0.31678350496,nan,nan,0.0,0.0,0.0,nan,nan,209.966475347,458.001313446,458.426100648,458.501334543,nan,nan
0,205,4516,6,1,173,121,1.0,-0.165909522591,0.273535192888,1,1.0,1.0,0.336638947483,0,0.0,0.0,0.359592458388,0.384179079044,0.0670926881917,0.451271767236,0.317086390853,nan,nan,0.0,0.0,0.0,nan,nan,209.966475347,459.001439459,459.338078406,459.501475096,nan,nan
0,206,4517,6,1,424,298,0.142174562463,0.448819569244,-0.770229420881,1,1.0,1.0,0.360440909397,0,0.0,0.0,0.373955686577,0.383948301707,0.0670111568281,0.450959458535,0.316937144878,nan,nan,0.0,0.0,0.0,nan,nan,209.966475347,460.00160339,460.362044299,460.501610518,nan,nan
0,207,4518,6,1,86,60,1.0,-0.21659106269,-0.625617802914,1,1.0,1.0,0.392342500854,0,0.0,0.0,0.363140785911,0.383834739425,0.0668689657683,0.450703705193,0.316965773657,nan,nan,0.0,0.0,0.0,nan,nan,209.966475347,461.001693196,461.394035697,461.501736246,nan,nan
0,208,4519,6,1,307,215,-0.0113868739462,0.411053355611,0.487957006857,1,1.0,1.0,0.400193524547,0,0.0,0.0,0.384325644933,0.383875642124,0.0667106251152,0.450586267239,0.317165017009,nan,nan,0.0,0.0,0.0,nan,nan,209.966475347,462.001818639,462.402012163,462.501847434,nan,nan
0,209,4520,6,1,460,323,0.415848916989,0.383334931935,-1.0,1,1.0,1.0,0.368035345338,0,0.0,0.0,0.38685712358,0.383953718117,0.066560364369,0.450514082486,0.317393353748,nan,nan,0.0,0.0,0.0,nan,nan,209.966475347,463.001962043,463.369997388,463.502017637,nan,nan
0,210,4521,6,1,509,357,0.822386376617,0.224555004187,-1.0,1,1.0,1.0,0.375902049709,0,0.0,0.0,0.381376973198,0.383877916341,0.0664107402344,0.450288656576,0.317467176107,nan,nan,0.0,0.0,0.0,nan,nan,209.966475347,464.00208492,464.37798697,464.502102026,nan,nan
0,211,4522,6,0,284,199,0.188465149253,0.353984098999,0.602236276499,0,0.0,1.0,0.415730785578,0,0.0,0.0,0.386556060209,0.383840116026,0.0662554463769,0.450095562402,0.317584669649,nan,nan,0.0,0.0,0.0,nan,nan,209.966475347,465.002231461,465.417962246,465.502261111,nan,nan
0,212,4523,6,1,487,342,0.639529740128,0.306295026098,-1.0,1,1.0,1.0,0.391610084102,0,0.0,0.0,0.394414306463,0.383990543712,0.0661351060832,0.450125649795,0.317855437629,nan,nan,0.0,0.0,0.0,nan,nan,209.966475347,466.002336947,466.393947031,466.502366882,nan,nan
0,213,4524,6,1,425,298,0.149162615564,0.447529597292,-0.791715667876,1,1.0,1.0,0.319474347867,0,0.0,0.0,0.375605072516,0.384026316202,0.0659817325421,0.450008048744,0.31804458366,nan,nan,0.0,0.0,0.0,nan,nan,209.966475347,467.002461534,467.321935882,467.502493465,nan,nan
0,214,4525,6,0,319,224,-0.0891891826932,0.433308674125,0.406137099325,0,0.0,1.0,0.487292619888,0,0.0,0.0,0.399459017285,0.38372467149,0.0659744338789,0.449699105369,0.317750237611,nan,nan,0.0,0.0,0.0,nan,nan,209.966475347,468.002613491,468.489906111,468.502642856,nan,nan
0,215,4526,6,1,200,140,1.0,-0.0191209939188,0.47515178387,1,1.0,1.0,0.327171134297,0,0.0,0.0,0.377979367351,0.384206382878,0.0661969709896,0.450403353868,0.318009411889,nan,nan,0.0,0.0,0.0,nan,nan,209.966475347,469.002737794,469.329908928,469.502756896,nan,nan
0,216,4527,6,1,245,172,0.600577697281,0.210610106048,0.650172825369,1,1.0,1.0,0.31101692142,0,0.0,0.0,0.375160225201,0.383942330802,0.066156952039,0.450099282841,0.317785378763,nan,nan,0.0,0.0,0.0,nan,nan,209.966475347,470.002866943,470.313883865,470.502880058,nan,nan
0,217,4528,6,1,9,6,0.918933560847,0.172916688009,-1.0,1,1.0,1.0,0.310869525652,0,1.0,0.0,0.316352527123,0.383606269007,0.0661888773898,0.449795146397,0.317417391617,nan,nan,0.0,0.0,0.0,nan,nan,209.966475347,471.002983834,471.313853359,471.503027454,nan,nan
0,218,4529,6,0,122,85,1.0,-0.311159539646,-0.219144224573,0,1.0,0.0,0.48671216052,0,0.0,0.0,0.369532869197,0.383272614221,0.0662195510858,0.449492165307,0.317053063135,nan,nan,0.0,0.0,0.0,nan,nan,209.966475347,472.003128378,472.489840539,472.503152326,nan,nan
0,219,4530,6,1,424,298,0.142174562463,0.448819569244,-0.770229420881,1,1.0,1.0,0.414603223559,0,0.0,0.0,0.404061636577,0.383744940917,0.066435232741,0.450180173658,0.317309708176,nan,nan,0.0,0.0,0.0,nan,nan,209.966475347,473.00321961,473.417822833,473.503249545,nan,nan
0,220,4531,6,1,67,47,1.0,-0.12380466598,-1.0,1,1.0,1.0,0.324365771376,0,0.0,0.0,0.408560385151,0.383885205838,0.0663165651177,0.450201770955,0.31756864072,nan,nan,0.0,0.0,0.0,nan,nan,209.966475347,474.053447003,474.377812775,474.553390554,nan,nan
0,221,4532,6,1,437,307,0.23613482661,0.429770237144,-1.0,1,1.0,1.0,0.308262020815,0,0.0,0.0,0.34907700525,0.38361588713,0.0662868315227,0.449902718652,0.317329055607,nan,nan,0.0,0.0,0.0,nan,nan,209.966475347,475.053518278,475.361780299,475.553518848,nan,nan
0,222,4533,6,1,225,158,0.81146624694,0.115131125244,0.600981946568,1,1.0,1.0,0.412119451445,0,0.0,0.0,0.348249081212,0.383276455299,0.066329584496,0.449606039795,0.316946870803,nan,nan,0.0,0.0,0.0,nan,nan,209.966475347,476.053649993,476.465769445,476.553635738,nan,nan
0,223,4534,6,1,334,234,-0.152796554809,0.454467054946,0.285576400052,1,1.0,1.0,0.372026714962,0,0.0,0.0,0.364136062407,0.383405796089,0.0662087487913,0.449614544881,0.317197047298,nan,nan,0.0,0.0,0.0,nan,nan,209.966475347,477.053732101,477.425758816,477.553776577,nan,nan
0,224,4535,6,1,198,139,1.0,-0.0302354974571,0.462326941081,1,1.0,1.0,0.387870741077,0,0.0,0.0,0.390672302494,0.38335499662,0.0660651515658,0.449420148186,0.317289845054,nan,nan,0.0,0.0,0.0,nan,nan,209.966475347,478.053879497,478.441750238,478.553919125,nan,nan
0,225,4536,6,1,435,305,0.221263830514,0.433027056876,-1.0,1,1.0,1.0,0.395709506236,0,0.0,0.0,0.385202320758,0.383375066595,0.0659188610215,0.449293927617,0.317456205574,nan,nan,0.0,0.0,0.0,nan,nan,209.966475347,479.05402005,479.449729556,479.554028033,nan,nan
0,226,4537,6,0,492,345,0.681403316433,0.289222019555,-1.0,0,0.0,1.0,0.443541508168,0,0.0,0.0,0.40904058516,0.383429643762,0.06577795576,0.449207599522,0.317651688002,nan,nan,0.0,0.0,0.0,nan,nan,209.966475347,480.054155757,480.497697265,480.554177139,nan,nan
0,227,4538,6,1,251,176,0.535576518695,0.236509187076,0.655284151108,1,1.0,1.0,0.331435056869,0,0.0,0.0,0.390228690424,0.383694453737,0.0657535324884,0.449447986226,0.317940921249,nan,nan,0.0,0.0,0.0,nan,nan,209.966475347,481.054274928,481.385709985,481.554284051,nan,nan
0,228,4539,6,1,395,277,-0.0383984177995,0.474183508328,-0.351427224487,1,1.0,1.0,0.331275402103,0,0.0,0.0,0.368750655713,0.383465245856,0.0656999994383,0.449165245295,0.317765246418,nan,nan,0.0,0.0,0.0,nan,nan,209.966475347,482.054379559,482.385654961,482.554404362,nan,nan
0,229,4540,6,1,327,229,-0.128086156831,0.445480682368,0.344176439252,1,1.0,1.0,0.355146928225,0,0.0,0.0,0.339285795732,0.383237342608,0.0656466520107,0.448883994619,0.317590690598,nan,nan,0.0,0.0,0.0,nan,nan,209.966475347,483.05450101,483.409647938,483.554538073,nan,nan
0,230,4541,6,1,193,135,1.0,-0.0580453890011,0.428658791268,1,1.0,1.0,0.395016717725,0,0.0,0.0,0.360479682684,0.383115210372,0.0655298547748,0.448645065147,0.317585355597,nan,nan,0.0,0.0,0.0,nan,nan,209.966475347,484.054623602,484.44964032,484.554668077,nan,nan
0,231,4542,6,1,493,346,0.689769084006,0.285700779988,-1.0,1,1.0,1.0,0.394787499215,0,0.0,0.0,0.381650381722,0.383166732049,0.0653925297922,0.448559261841,0.317774202257,nan,nan,0.0,0.0,0.0,nan,nan,209.966475347,485.054782402,485.449569901,485.55480749,nan,nan
0,232,4543,6,1,137,96,1.0,-0.300190217086,-0.0647316600203,1,1.0,1.0,0.354651713278,0,0.0,0.0,0.381485310073,0.383216821562,0.0652558863181,0.448472707881,0.317960935244,nan,nan,0.0,0.0,0.0,nan,nan,209.966475347,486.054912976,486.40956469,486.554942057,nan,nan
0,233,4544,6,1,439,308,0.251144291643,0.426392204401,-1.0,1,1.0,1.0,0.378534357529,0,0.0,0.0,0.375991190008,0.383094224531,0.0651424713162,0.448236695847,0.317951753215,nan,nan,0.0,0.0,0.0,nan,nan,209.966475347,487.05503842,487.433572777,487.555065504,nan,nan
0,234,4545,6,1,63,44,1.0,-0.102744642793,-1.0,1,1.0,1.0,0.378385536838,0,0.0,0.0,0.370523869215,0.38307473792,0.0650038095252,0.448078547445,0.318070928395,nan,nan,0.0,0.0,0.0,nan,nan,209.966475347,488.055147897,488.433533434,488.555176977,nan,nan
0,235,4546,6,1,506,355,0.797774742377,0.236703125255,-1.0,1,1.0,1.0,0.37020921614,0,0.0,0.0,0.375709703503,0.383054783873,0.0648660742784,0.447920858151,0.318188709595,nan,nan,0.0,0.0,0.0,nan,nan,209.966475347,489.055281323,489.425490539,489.555320381,nan,nan
0,236,4547,6,1,297,208,0.0686262056446,0.388646276542,0.544904663634,1,1.0,1.0,0.30610582605,0,0.0,0.0,0.351566859676,0.383000353501,0.0647338780928,0.447734231594,0.318266475408,nan,nan,0.0,0.0,0.0,nan,nan,209.966475347,490.055424442,490.361530268,490.555454377,nan,nan
0,237,4548,6,1,181,127,1.0,-0.123914391386,0.3392011262,1,1.0,1.0,0.265940104146,0,1.0,0.0,0.314085048779,0.382675904018,0.0647891716734,0.447465075692,0.317886732345,nan,nan,0.0,0.0,0.0,nan,nan,209.966475347,491.055558153,491.321498257,491.555552451,nan,nan
0,238,4553,6,1,448,315,0.32026743599,0.409662251776,-1.0,1,1.0,1.0,0.321817852557,1,0.0,0.0,0.297954594251,0.382185417464,0.0650923682164,0.447277785681,0.317093049248,-132.380451205,316.0,-0.0718215561597,0.428203514031,0.427892255365,-92.6195487954,1.91719732899,209.966475347,492.055644537,492.37746239,492.55567989,493.880852488,495.806094137
0,239,4554,6,1,107,75,1.0,-0.290089771429,-0.379592780214,1,1.0,1.0,0.458729239181,0,0.0,0.0,0.348829065294,0.381932833511,0.0650728236477,0.447005657158,0.316860009863,nan,nan,0.0,0.0,0.0,nan,nan,209.966475347,497.014642054,497.473371293,497.514664861,nan,nan
0,240,4555,6,1,23,16,1.0,0.106943944166,-1.0,1,1.0,1.0,0.322602726519,0,0.0,0.0,0.367716606085,0.382252818534,0.0651252643131,0.447378082847,0.317127554221,nan,nan,0.0,0.0,0.0,nan,nan,209.966475347,498.014774624,498.337377351,498.514781752,nan,nan
0,241,4556,6,1,186,130,1.0,-0.0967386681424,0.377881386018,1,1.0,1.0,0.338509474415,0,0.0,0.0,0.373280480038,0.382005307779,0.0651030266132,0.447108334392,0.316902281166,nan,nan,0.0,0.0,0.0,nan,nan,209.966475347,499.014862719,499.353372194,499.514911756,nan,nan
0,242,4557,6,1,295,207,0.0860222946478,0.38372732295,0.554986075565,1,1.0,1.0,0.330360523425,0,0.0,0.0,0.33049090812,0.38182557293,0.0650282663169,0.446853839247,0.316797306613,nan,nan,0.0,0.0,0.0,nan,nan,209.966475347,500.014992154,500.345352677,500.515035489,nan,nan
0,243,4558,6,1,406,285,0.0244967455079,0.467245700284,-0.489366101921,1,1.0,1.0,0.33020856604,0,0.0,0.0,0.33302618796,0.381613782603,0.0649779070781,0.446591689681,0.316635875525,nan,nan,0.0,0.0,0.0,nan,nan,209.966475347,501.015121873,501.34533044,501.515162072,nan,nan
0,244,4559,6,1,264,185,0.394966959701,0.287889713878,0.650717615019,1,1.0,1.0,0.346029499546,0,0.0,0.0,0.335532863004,0.381403105486,0.0649277299871,0.446330835473,0.316475375499,nan,nan,0.0,0.0,0.0,nan,nan,209.966475347,502.015288656,502.361318155,502.515291506,nan,nan
0,245,4600,6,0,335,235,-0.155595990888,0.455627721073,0.276893227044,0,0.0,1.0,0.465884909499,0,0.0,0.0,0.380707658362,0.381258723421,0.064834327462,0.446093050883,0.316424395959,nan,nan,0.0,0.0,0.0,nan,nan,209.966475347,503.015409537,503.481294447,503.515438617,nan,nan
0,246,4601,6,1,2,1,0.863024578927,0.203622855609,-1.0,1,1.0,1.0,0.361761767417,0,0.0,0.0,0.391225392154,0.381602732308,0.064926084724,0.446528817032,0.316676647584,nan,nan,0.0,0.0,0.0,nan,nan,209.966475347,504.01550533,504.377267098,504.515561779,nan,nan
0,247,4602,6,1,497,349,0.723174939644,0.271260599794,-1.0,1,1.0,1.0,0.393605483696,0,0.0,0.0,0.407084053537,0.381522404514,0.064806769889,0.446329174404,0.316715634625,nan,nan,0.0,0.0,0.0,nan,nan,209.966475347,505.015656717,505.409262201,505.515688078,nan,nan
0,248,4603,6,1,178,125,1.0,-0.139919655122,0.315097826042,1,1.0,1.0,0.369423771743,0,0.0,0.0,0.374930340952,0.381571126608,0.064680511838,0.446251638446,0.31689061477,nan,nan,0.0,0.0,0.0,nan,nan,209.966475347,506.015792138,506.38521591,506.515802117,nan,nan
0,249,4604,6,1,232,163,0.739158239773,0.150046616059,0.623712016981,1,1.0,1.0,0.409298693296,0,0.0,0.0,0.390775982911,0.38152234205,0.0645550722613,0.446077414312,0.316967269789,nan,nan,0.0,0.0,0.0,nan,nan,209.966475347,507.015915016,507.425213709,507.515919862,nan,nan
0,250,4605,6,1,495,348,0.706485112283,0.278551693791,-1.0,1,1.0,1.0,0.433190176263,0,0.0,0.0,0.403970880434,0.381633447455,0.0644496833474,0.446083130803,0.317183764108,nan,nan,0.0,0.0,0.0,nan,nan,209.966475347,508.016021642,508.449211818,508.516049582,nan,nan
0,251,4606,6,1,359,252,-0.169222339917,0.474741883077,0.0483828026834,1,1.0,1.0,0.385058821179,0,0.0,0.0,0.409182563579,0.381838852749,0.0644031106854,0.446241963435,0.317435742064,nan,nan,0.0,0.0,0.0,nan,nan,209.966475347,509.016133401,509.401192222,509.516188139,nan,nan
0,252,4607,6,0,511,359,0.838703193994,0.216284169582,-1.0,0,0.0,1.0,0.440865009557,0,0.0,0.0,0.419704669,0.381851630402,0.0642755185012,0.446127148903,0.317576111901,nan,nan,0.0,0.0,0.0,nan,nan,209.966475347,510.016301893,510.457166903,510.516330118,nan,nan
0,253,4608,6,1,189,132,1.0,-0.0802194643608,0.400143472992,1,1.0,1.0,0.440718184225,0,0.0,0.0,0.422214004987,0.382084884865,0.0642551444548,0.44634002932,0.31782974041,nan,nan,0.0,0.0,0.0,nan,nan,209.966475347,511.016427051,511.457145236,511.516461548,nan,nan
0,254,4609,6,1,428,300,0.170378320166,0.443486568519,-0.86866140055,1,1.0,1.0,0.488564726431,0,0.0,0.0,0.456715973405,0.382315724626,0.0642335611768,0.446549285803,0.318082163449,nan,nan,0.0,0.0,0.0,nan,nan,209.966475347,512.016561332,512.505126059,512.524898733,nan,nan
0,255,4610,6,0,349,245,-0.175656888649,0.468768509344,0.147945183432,0,1.0,0.0,0.504086022265,0,0.0,0.0,0.477789644307,0.382732387378,0.0644504971086,0.447182884487,0.31828189027,nan,nan,0.0,0.0,0.0,nan,nan,209.966475347,513.025018759,513.529104781,513.525062664,nan,nan
0,256,4611,6,1,89,62,1.0,-0.229484098413,-0.587370487375,1,1.0,1.0,0.439653343987,0,0.0,0.0,0.477434697561,0.383206425015,0.0647683720251,0.44797479704,0.318438052989,nan,nan,0.0,0.0,0.0,nan,nan,209.966475347,514.033445111,514.473098455,514.533508687,nan,nan
0,257,4612,6,1,230,161,0.760023132926,0.140224214653,0.61781109556,1,1.0,1.0,0.431474457495,0,0.0,0.0,0.458404607916,0.383426062832,0.0647376931972,0.448163756029,0.318688369634,nan,nan,0.0,0.0,0.0,nan,nan,209.966475347,515.033599063,515.465073521,515.53363185,nan,nan
0,258,4613,6,1,412,289,0.0618891196837,0.462096609288,-0.571158935758,1,1.0,1.0,0.431358993053,0,0.0,0.0,0.434162264845,0.383612296919,0.0646810514813,0.448293348401,0.318931245438,nan,nan,0.0,0.0,0.0,nan,nan,209.966475347,516.033702839,516.465061832,516.533737621,nan,nan
0,259,4614,6,1,506,355,0.797774742377,0.236703125255,-1.0,1,1.0,1.0,0.415201643948,0,0.0,0.0,0.426011698165,0.383796647098,0.0646239390906,0.448420586188,0.319172708007,nan,nan,0.0,0.0,0.0,nan,nan,209.966475347,517.033839971,517.449041615,517.533864204,nan,nan
0,260,4615,6,1,280,196,0.228089347314,0.342018854333,0.61587222022,1,1.0,1.0,0.44673346309,0,0.0,0.0,0.431098033364,0.383917435547,0.0645288289149,0.448446264462,0.319388606632,nan,nan,0.0,0.0,0.0,nan,nan,209.966475347,518.042298253,518.489031716,518.542344439,nan,nan
0,261,4616,6,1,467,328,0.473005185182,0.365775667588,-1.0,1,1.0,1.0,0.526554296259,0,0.0,1.0,0.462829801099,0.384158109982,0.0645219043562,0.448680014338,0.319636205626,nan,nan,0.0,0.0,0.0,nan,nan,209.966475347,519.04243396,519.568988256,519.542497822,nan,nan
0,262,4623,6,1,72,50,1.0,-0.149607777062,-0.853203742106,1,1.0,1.0,0.742419533897,1,0.0,0.0,0.571902431082,0.384701606876,0.064994484645,0.449696091521,0.319707122231,20.1125882891,99.0,1.0,-0.267176270739,-0.468793303331,19.2624117109,3.45071513904,209.966475347,520.042555411,520.784974945,520.54262469,521.86777163,525.326533655
0,263,4624,6,1,250,175,0.546428449327,0.232286661223,0.654747725831,1,1.0,1.0,0.500219525304,0,0.0,0.0,0.589731118487,0.386061751085,0.0685048837404,0.454566634826,0.317556867345,nan,nan,0.0,0.0,0.0,nan,nan,209.966475347,526.543405858,527.043625384,527.043462023,nan,nan
0,264,4625,6,1,396,278,-0.0330153705648,0.473684876347,-0.363523780775,1,1.0,1.0,0.745324966032,0,0.0,0.0,0.662654675078,0.386494166897,0.0687336855605,0.455227852457,0.317760481336,nan,nan,0.0,0.0,0.0,nan,nan,209.966475347,527.543511915,528.288836881,528.043581478,nan,nan
0,265,4626,6,1,442,310,0.273907262724,0.421095538958,-1.0,1,1.0,1.0,0.609183058143,0,0.0,1.0,0.618242516493,0.387848245384,0.072045426274,0.459893671658,0.31580281911,nan,nan,0.0,0.0,0.0,nan,nan,209.966475347,528.543643345,529.152826403,529.043710058,nan,nan
0,266,4631,6,1,144,101,1.0,-0.284423189345,0.00519445478499,1,1.0,1.0,0.721029499546,1,0.0,0.0,0.69184584124,0.388680331146,0.0731744990105,0.461854830157,0.315505832136,-18.5932240543,154.0,1.0,-0.251813147593,0.102138173725,7.34322405434,1.77554048831,209.966475347,529.543768788,530.264798287,530.043835501,531.368955641,533.152531897
0,267,4632,6,1,65,45,1.0,-0.113312155659,-1.0,1,1.0,1.0,0.423654509243,0,0.0,0.0,0.584622355644,0.389925084586,0.0758063079854,0.465731392572,0.314118776601,nan,nan,0.0,0.0,0.0,nan,nan,209.966475347,534.361052444,534.784706953,534.86106898,nan,nan
0,268,4633,6,1,173,121,1.0,-0.165909522591,0.273535192888,1,1.0,1.0,0.351489122957,0,0.0,0.0,0.498724377248,0.390050940648,0.0756926880193,0.465743628667,0.314358252629,nan,nan,0.0,0.0,0.0,nan,nan,209.966475347,535.361208963,535.712698086,535.861204401,nan,nan
0,269,4634,6,0,325,228,-0.119404900653,0.442631039184,0.360186421743,0,0.0,1.0,0.463384316303,0,0.0,0.0,0.412842649501,0.389907588166,0.0755883031976,0.465495891364,0.314319284969,nan,nan,0.0,0.0,0.0,nan,nan,209.966475347,536.361311883,536.8246962,536.861353793,nan,nan
0,270,4635,6,1,444,312,0.289241202529,0.417409780569,-1.0,1,1.0,1.0,0.295240462758,0,0.0,0.0,0.370037967339,0.390179724196,0.0755801014625,0.465759825659,0.314599622734,nan,nan,0.0,0.0,0.0,nan,nan,209.966475347,537.361441317,537.65668178,537.861460419,nan,nan
0,271,4636,6,1,342,240,-0.170052622031,0.462913557708,0.21407524247,1,1.0,1.0,0.303132256027,0,0.0,0.0,0.353919011696,0.389829394818,0.0756598323426,0.465489227161,0.314169562476,nan,nan,0.0,0.0,0.0,nan,nan,209.966475347,538.361544808,538.664677064,538.861598406,nan,nan
0,272,4637,6,1,293,206,0.103830259013,0.378659598285,0.564617056734,1,1.0,1.0,0.342966123484,0,1.0,0.0,0.31377961409,0.389510655337,0.0757026869432,0.465213342281,0.313807968394,nan,nan,0.0,0.0,0.0,nan,nan,209.966475347,539.361691919,539.704658042,539.861722139,nan,nan
0,273,4642,6,1,373,262,-0.135407706169,0.478559568072,-0.0996974893599,1,1.0,1.0,0.310797966085,1,0.0,0.0,0.318965448532,0.389340162547,0.0756162082741,0.464956370821,0.313723954273,-168.178511659,367.0,-0.15309091083,0.477560897992,-0.0350816338538,-4.08711334061,2.05054641841,209.966475347,540.361847012,540.672644978,540.861847297,542.195341615,544.253930644
0,274,4643,6,1,59,41,1.0,-0.0814409933332,-1.0,1,1.0,1.0,0.465739224572,0,0.0,0.0,0.37316777138,0.389053512195,0.0756265496397,0.464680061834,0.313426962555,nan,nan,0.0,0.0,0.0,nan,nan,209.966475347,545.470796289,545.936535514,545.970823089,nan,nan
0,275,4644,6,1,280,196,0.228089347314,0.342018854333,0.61587222022,1,1.0,1.0,0.401576248929,0,0.0,0.0,0.392704479862,0.389332369331,0.0756299139224,0.464962283253,0.313702455408,nan,nan,0.0,0.0,0.0,nan,nan,209.966475347,546.470940549,546.872516798,546.970963357,nan,nan
0,276,4645,6,1,68,47,1.0,-0.129018143495,-0.972903198114,1,1.0,1.0,0.353428073227,0,0.0,0.0,0.406914515576,0.389376731213,0.0754963632007,0.464873094414,0.313880368013,nan,nan,0.0,0.0,0.0,nan,nan,209.966475347,547.471069413,547.824497486,547.971082528,nan,nan
0,277,4646,6,1,258,181,0.459642287315,0.26499291187,0.655490062901,1,1.0,1.0,0.345292806625,0,0.0,0.0,0.366765709594,0.389246952665,0.0753908007739,0.464637753438,0.313856151891,nan,nan,0.0,0.0,0.0,nan,nan,209.966475347,548.471198278,548.816491084,548.971214243,nan,nan
0,278,4647,6,1,199,139,1.0,-0.0246761787097,0.468786302982,1,1.0,1.0,0.369127554819,0,0.0,0.0,0.355949478224,0.389088844226,0.0753010766086,0.464389920834,0.313787767617,nan,nan,0.0,0.0,0.0,nan,nan,209.966475347,549.471342822,549.840470377,549.971333984,nan,nan
0,279,4648,6,1,292,205,0.112881669716,0.376069582356,0.569261850688,1,1.0,1.0,0.360986016691,0,0.0,0.0,0.358468792712,0.389017298385,0.0751754726122,0.464192770998,0.313841825773,nan,nan,0.0,0.0,0.0,nan,nan,209.966475347,550.471466269,550.832452286,550.971458857,nan,nan
0,280,4649,6,1,344,241,-0.172543464245,0.464730234515,0.195503824632,1,1.0,1.0,0.384857542347,0,0.0,0.0,0.371657037952,0.388917186665,0.0750597396816,0.463976926347,0.313857446983,nan,nan,0.0,0.0,0.0,nan,nan,209.966475347,551.471568619,551.856426162,551.971597129,nan,nan
0,281,4650,6,1,475,333,0.539218753276,0.343659807328,-1.0,1,1.0,1.0,0.416709526442,0,0.0,0.0,0.38751769516,0.388902739532,0.0749264523835,0.463829191916,0.313976287149,nan,nan,0.0,0.0,0.0,nan,nan,209.966475347,552.471695773,552.888405299,552.971720291,nan,nan
0,282,4651,6,1,37,26,1.0,0.0358565504353,-1.0,1,1.0,1.0,0.360623942222,0,0.0,0.0,0.387397003671,0.38900134516,0.0748117486946,0.463813093854,0.314189596465,nan,nan,0.0,0.0,0.0,nan,nan,209.966475347,553.471816369,553.832440312,553.97184659,nan,nan
0,283,4652,6,1,185,130,1.0,-0.102214474652,0.370299946716,1,1.0,1.0,0.408424868714,0,0.0,0.0,0.395252779126,0.388901071651,0.0746984371942,0.463599508845,0.314202634457,nan,nan,0.0,0.0,0.0,nan,nan,209.966475347,554.47194951,554.880374379,554.97199199,nan,nan
0,284,4653,6,1,328,230,-0.132159558243,0.44685796506,0.336046158271,1,1.0,1.0,0.320273192134,0,0.0,0.0,0.363107334357,0.388969817415,0.0745757774986,0.463545594914,0.314394039917,nan,nan,0.0,0.0,0.0,nan,nan,209.966475347,555.47208037,555.792353562,555.972108595,nan,nan
0,285,4654,6,1,14,9,0.95801504718,0.150023555696,-1.0,1,1.0,1.0,0.376161488704,0,0.0,0.0,0.368286516517,0.388728776625,0.0745555697394,0.463284346364,0.314173206885,nan,nan,0.0,0.0,0.0,nan,nan,209.966475347,556.472179869,556.848341358,556.972227766,nan,nan
0,286,4655,6,1,352,247,-0.17544712699,0.470851603012,0.118673592819,1,1.0,1.0,0.375975034665,0,0.0,0.0,0.357469905168,0.388684835059,0.0744288105818,0.46311364564,0.314256024477,nan,nan,0.0,0.0,0.0,nan,nan,209.966475347,557.472334107,557.848309142,557.972365468,nan,nan
0,287,4656,6,1,240,168,0.654373017221,0.188015059697,0.642463954019,1,1.0,1.0,0.399851976894,0,0.0,0.0,0.383996166755,0.38864055004,0.074302804983,0.462943355023,0.314337745057,nan,nan,0.0,0.0,0.0,nan,nan,209.966475347,558.47246012,558.872312097,558.972490055,nan,nan
0,288,4657,6,1,71,49,1.0,-0.144504067012,-0.877980773838,1,1.0,1.0,0.447688255925,0,0.0,0.0,0.407838422495,0.388679478605,0.0741766266575,0.462856105263,0.314502851948,nan,nan,0.0,0.0,0.0,nan,nan,209.966475347,559.472591836,559.920280091,559.972612648,nan,nan
0,289,4658,6,1,368,258,-0.150457169737,0.477793263397,-0.0457341785459,1,1.0,1.0,0.335560137406,0,0.0,0.0,0.394366790075,0.388883661226,0.074129212604,0.46301287383,0.314754448622,nan,nan,0.0,0.0,0.0,nan,nan,209.966475347,560.472715283,560.80827542,560.97273581,nan,nan
0,290,4659,6,0,249,175,0.557275547736,0.228026269286,0.654084877906,0,0.0,1.0,0.463364359457,0,0.0,0.0,0.415537584263,0.388699787006,0.0740672830185,0.462767070024,0.314632503987,nan,nan,0.0,0.0,0.0,nan,nan,209.966475347,561.472877789,561.936242148,561.972894324,nan,nan
0,291,4700,6,1,119,83,1.0,-0.309446327048,-0.250710895617,1,1.0,1.0,0.375271697994,0,0.0,0.0,0.391398731619,0.388956366292,0.0740688994048,0.463025265697,0.314887466888,nan,nan,0.0,0.0,0.0,nan,nan,209.966475347,562.472969305,562.848241003,562.972995534,nan,nan
0,292,4701,6,1,8,5,0.91102658764,0.177400941622,-1.0,1,1.0,1.0,0.359124612994,0,0.0,0.0,0.399253556815,0.38890950099,0.0739462820991,0.462855783089,0.314963218891,nan,nan,0.0,0.0,0.0,nan,nan,209.966475347,563.473095318,563.832219931,563.973125824,nan,nan
0,293,4702,6,1,214,150,0.920243657418,0.0575410437433,0.553854850604,1,1.0,1.0,0.374965502881,0,0.0,0.0,0.36978727129,0.388807846082,0.0738404210911,0.462648267173,0.314967424991,nan,nan,0.0,0.0,0.0,nan,nan,209.966475347,564.473242999,564.848208502,564.973265807,nan,nan
0,294,4703,6,1,95,66,1.0,-0.253175017597,-0.514975443931,1,1.0,1.0,0.39076733496,0,0.0,0.0,0.374952483612,0.388760763282,0.0737191406738,0.462479903956,0.315041622608,nan,nan,0.0,0.0,0.0,nan,nan,209.966475347,565.473410066,565.864177401,565.973416053,nan,nan
0,295,4704,6,1,0,0,0.846831709088,0.212097570855,-1.0,1,1.0,1.0,0.366650054697,0,0.0,0.0,0.377460964179,0.38876756522,0.0735941793243,0.462361744544,0.315173385896,nan,nan,0.0,0.0,0.0,nan,nan,209.966475347,566.473512987,566.840163041,566.973498446,nan,nan
0,296,4705,6,0,402,282,0.000724920831492,0.470139955471,-0.437811562499,0,0.0,1.0,0.542430253699,0,0.0,0.0,0.433282547786,0.388692843901,0.0734809679486,0.462173811849,0.315211875952,nan,nan,0.0,0.0,0.0,nan,nan,209.966475347,567.4736983,568.016128554,567.973670076,nan,nan
0,297,4706,6,1,278,195,0.248285521772,0.335802812283,0.621962573991,1,1.0,1.0,0.38242337713,0,0.0,0.0,0.430501228509,0.389210478277,0.0738957677971,0.463106246074,0.31531471048,nan,nan,0.0,0.0,0.0,nan,nan,209.966475347,568.473715976,568.856139353,568.973760166,nan,nan
0,298,4707,6,1,370,260,-0.144805996584,0.478178727438,-0.0671803333712,1,1.0,1.0,0.334230441134,0,0.0,0.0,0.419694690655,0.38918770277,0.073772721586,0.462960424356,0.315414981184,nan,nan,0.0,0.0,0.0,nan,nan,209.966475347,569.473887035,569.808117476,569.973895018,nan,nan
0,299,4708,6,1,143,100,1.0,-0.287057525782,-0.00469998909502,1,1.0,1.0,0.398097770289,0,0.0,0.0,0.371583862851,0.389003899219,0.0737175688101,0.46272146803,0.315286330409,nan,nan,0.0,0.0,0.0,nan,nan,209.966475347,570.473973705,570.872071475,570.974022456,nan,nan
0,300,4709,6,1,471,331,0.506014005179,0.354993781952,-1.0,1,1.0,1.0,0.381968930829,0,0.0,0.0,0.371432380751,0.389034212123,0.0735964702111,0.462630682334,0.315437741912,nan,nan,0.0,0.0,0.0,nan,nan,209.966475347,571.474111407,571.856080338,571.974139061,nan,nan
0,301,4710,6,1,136,95,1.0,-0.301914900238,-0.074841205769,1,1.0,1.0,0.469823535997,0,0.0,0.0,0.416630079038,0.389010739428,0.0734752400409,0.462485979469,0.315535499387,nan,nan,0.0,0.0,0.0,nan,nan,209.966475347,572.474229437,572.944052973,572.974258517,nan,nan
0,302,4711,6,1,281,197,0.218083397074,0.345068392493,0.612644422055,1,1.0,1.0,0.405679947231,0,0.0,0.0,0.419157471353,0.389278331469,0.0735002582292,0.462778589698,0.31577807324,nan,nan,0.0,0.0,0.0,nan,nan,209.966475347,573.474357446,573.880037393,573.974389663,nan,nan
0,303,4712,6,1,491,345,0.673033477965,0.292707709811,-1.0,1,1.0,1.0,0.357558000367,0,0.0,0.0,0.411020494532,0.389332462214,0.0733848998643,0.462717362079,0.31594756235,nan,nan,0.0,0.0,0.0,nan,nan,209.966475347,574.474478043,574.832036043,574.974536773,nan,nan
0,304,4713,6,1,44,30,1.0,-0.00106984144607,-1.0,1,1.0,1.0,0.413383860141,0,0.0,0.0,0.392207269246,0.389227940958,0.0732866888613,0.46251462982,0.315941252097,nan,nan,0.0,0.0,0.0,nan,nan,209.966475347,575.474621162,575.888005022,575.974647106,nan,nan
0,305,4714,6,1,309,217,-0.0258396312562,0.415106541901,0.475305697888,1,1.0,1.0,0.37323381938,0,0.0,0.0,0.381391893296,0.389307140693,0.0731794779891,0.462486618682,0.316127662704,nan,nan,0.0,0.0,0.0,nan,nan,209.966475347,576.47476143,576.847995249,576.974808471,nan,nan
0,306,4715,6,1,208,146,0.97651257568,0.025020743352,0.522574479073,1,1.0,1.0,0.317054722924,0,0.0,0.0,0.367890800815,0.389254613499,0.0730655647681,0.462320178268,0.316189048731,nan,nan,0.0,0.0,0.0,nan,nan,209.966475347,577.474894,577.791948723,577.974903694,nan,nan
0,307,4716,6,1,381,267,-0.105403061426,0.478425078289,-0.188431136224,1,1.0,1.0,0.284996327944,0,0.0,0.0,0.325094956749,0.389019434703,0.0730623831282,0.462081817831,0.315957051575,nan,nan,0.0,0.0,0.0,nan,nan,209.966475347,578.475007469,578.760003797,578.975033984,nan,nan
0,308,4717,6,1,324,227,-0.114799643766,0.441158325109,0.368064040095,1,1.0,1.0,0.292783774901,0,1.0,0.0,0.298278275256,0.388681697343,0.0731833226859,0.461865020029,0.315498374657,nan,nan,0.0,0.0,0.0,nan,nan,209.966475347,579.475148023,579.767931798,579.975160567,nan,nan
0,309,4722,6,0,177,124,1.0,-0.145192147526,0.306921212481,0,0.0,1.0,0.500632917043,1,0.0,0.0,0.359471006629,0.38837134808,0.0732675342178,0.461638882297,0.315103813862,-12.3080158174,146.0,1.0,-0.278792578557,0.0248813210997,-22.1451091826,2.58398183575,209.966475347,580.47528544,580.975918357,580.9753302,582.300457183,584.892451978
0,310,4723,6,1,0,0,0.846831709088,0.212097570855,-1.0,1,1.0,1.0,0.370519687422,0,0.0,0.0,0.387978793122,0.388733482173,0.0734257285786,0.462159210752,0.315307753594,nan,nan,0.0,0.0,0.0,nan,nan,209.966475347,586.109311922,586.479831609,586.609342997,nan,nan
0,311,4724,6,1,146,102,1.0,-0.278792578557,0.0248813210997,1,1.0,1.0,0.346350519452,0,0.0,0.0,0.405834374639,0.388674916917,0.0733148374631,0.46198975438,0.315360079454,nan,nan,0.0,0.0,0.0,nan,nan,209.966475347,587.109444208,587.455794727,587.609466445,nan,nan
0,312,4725,6,1,3,2,0.871087178923,0.199335109687,-1.0,1,1.0,1.0,0.410231248941,0,0.0,0.0,0.375700485272,0.388539261797,0.0732363348172,0.461775596614,0.315302926979,nan,nan,0.0,0.0,0.0,nan,nan,209.966475347,588.109556821,588.51978807,588.60959702,nan,nan
0,313,4726,6,1,86,60,1.0,-0.21659106269,-0.625617802914,1,1.0,1.0,0.370054122992,0,0.0,0.0,0.375545297128,0.38860856527,0.073129496701,0.461738061971,0.315479068569,nan,nan,0.0,0.0,0.0,nan,nan,209.966475347,589.109723318,589.479777441,589.609740709,nan,nan
0,314,4727,6,1,506,355,0.797774742377,0.236703125255,-1.0,1,1.0,1.0,0.3699175613,0,0.0,0.0,0.383400977744,0.388549474689,0.0730204395083,0.461569914198,0.315529035181,nan,nan,0.0,0.0,0.0,nan,nan,209.966475347,590.109835647,590.479753208,590.609862731,nan,nan
0,315,4728,6,1,253,177,0.513865899396,0.244839928328,0.655977188727,1,1.0,1.0,0.361797974911,0,0.0,0.0,0.367256553068,0.388490325758,0.072911975765,0.461402301523,0.315578349993,nan,nan,0.0,0.0,0.0,nan,nan,209.966475347,591.109938567,591.471736542,591.609997582,nan,nan
0,316,4729,6,1,22,15,1.0,0.111842423158,-1.0,1,1.0,1.0,0.297641271725,0,0.0,0.0,0.343118935979,0.388405856293,0.0728119528945,0.461217809188,0.315593903399,nan,nan,0.0,0.0,0.0,nan,nan,209.966475347,592.110088814,592.407730085,592.610137851,nan,nan
0,317,4730,6,1,481,338,0.589289488337,0.325611856148,-1.0,1,1.0,1.0,0.297443983611,0,0.0,0.0,0.318961076749,0.388119532683,0.0728749773105,0.460994509993,0.315244555372,nan,nan,0.0,0.0,0.0,nan,nan,209.966475347,593.110231933,593.407675916,593.610237635,nan,nan
0,318,4731,6,1,360,253,-0.167709501072,0.475188317955,0.0381258551808,1,1.0,1.0,0.409349156078,0,0.0,0.0,0.334811470471,0.387834389447,0.0729372060091,0.460771595456,0.314897183437,nan,nan,0.0,0.0,0.0,nan,nan,209.966475347,594.11035595,594.519705106,594.610363077,nan,nan
0,319,4732,6,1,150,105,1.0,-0.266152531622,0.0638227105866,1,1.0,1.0,0.369196263608,0,0.0,0.0,0.358663134432,0.387901833856,0.0728327256146,0.460734559471,0.315069108241,nan,nan,0.0,0.0,0.0,nan,nan,209.966475347,595.110474551,595.479670814,595.610504486,nan,nan
0,320,4733,6,1,433,304,0.206536295144,0.436163724167,-1.0,1,1.0,1.0,0.393063513096,0,0.0,0.0,0.390536310927,0.387843378949,0.0727263297736,0.460569708723,0.315117049175,nan,nan,0.0,0.0,0.0,nan,nan,209.966475347,596.11057519,596.503638703,596.610618525,nan,nan
0,321,4734,6,1,88,61,1.0,-0.225257592204,-0.599932847766,1,1.0,1.0,0.392885611858,0,0.0,0.0,0.385048462854,0.387859641049,0.07261354324,0.460473184289,0.315246097809,nan,nan,0.0,0.0,0.0,nan,nan,209.966475347,597.110727148,597.50361276,597.610753661,nan,nan
0,322,4735,6,1,444,312,0.289241202529,0.417409780569,-1.0,1,1.0,1.0,0.416722070891,0,0.0,0.0,0.400890398615,0.387875249654,0.0725012409487,0.460376490603,0.315374008705,nan,nan,0.0,0.0,0.0,nan,nan,209.966475347,598.110885377,598.527607447,598.610868271,nan,nan
0,323,4736,6,1,40,28,1.0,0.0201165467467,-1.0,1,1.0,1.0,0.376602250151,0,0.0,0.0,0.395403310967,0.387964558698,0.0724066603852,0.460371219083,0.315557898313,nan,nan,0.0,0.0,0.0,nan,nan,209.966475347,599.110993429,599.487595679,599.611019373,nan,nan
0,324,4737,6,1,118,82,1.0,-0.308588151016,-0.261285249573,1,1.0,1.0,0.392452548258,0,0.0,0.0,0.395258956434,0.387929489845,0.0722975826227,0.460227072467,0.315631907222,nan,nan,0.0,0.0,0.0,nan,nan,209.966475347,600.111122863,600.503575412,600.611136263,nan,nan
0,325,4738,6,1,255,179,0.492159363509,0.253017189294,0.656163111527,1,1.0,1.0,0.270301246084,0,0.0,0.0,0.346452014831,0.387943406948,0.0721867045484,0.460130111496,0.315756702399,nan,nan,0.0,0.0,0.0,nan,nan,209.966475347,601.161295233,601.431596479,601.66128383,nan,nan
0,326,4739,6,0,141,99,1.0,-0.291952736687,-0.024586852943,0,0.0,1.0,0.446185790468,0,0.0,0.0,0.36964652827,0.387582541423,0.0723689068008,0.459951448224,0.315213634623,nan,nan,0.0,0.0,0.0,nan,nan,209.966475347,602.161353963,602.607539754,602.661413549,nan,nan
0,327,4740,6,1,429,301,0.177531820842,0.442080780324,-0.901885199234,1,1.0,1.0,0.342040981166,0,0.0,0.0,0.352842672573,0.387761756252,0.0723305816599,0.460092337912,0.315431174592,nan,nan,0.0,0.0,0.0,nan,nan,209.966475347,603.161475985,603.503516966,603.661527873,nan,nan
0,328,4741,6,1,119,83,1.0,-0.309446327048,-0.250710895617,1,1.0,1.0,0.341893585864,0,0.0,0.0,0.376706785833,0.387622363645,0.0722642124869,0.459886576132,0.315358151158,nan,nan,0.0,0.0,0.0,nan,nan,209.966475347,604.161606275,604.503499861,604.66163678,nan,nan
0,329,4742,6,1,246,172,0.589768841079,0.215019897151,0.651339528662,1,1.0,1.0,0.397761355154,0,0.0,0.0,0.360565307395,0.3874833704,0.0721982020845,0.459681572484,0.315285168315,nan,nan,0.0,0.0,0.0,nan,nan,209.966475347,605.161728582,605.559489937,605.66178047,nan,nan
0,330,4743,6,1,107,75,1.0,-0.290089771429,-0.379592780214,1,1.0,1.0,0.373586485162,0,0.0,0.0,0.371080475394,0.387514515808,0.0720909413733,0.459605457181,0.315423574435,nan,nan,0.0,0.0,0.0,nan,nan,209.966475347,606.161871416,606.535457901,606.661906483,nan,nan
0,331,4744,6,1,207,145,0.985653507947,0.0195431921708,0.51699622314,1,1.0,1.0,0.333465238567,0,0.0,0.0,0.368271026295,0.387472437166,0.0719860188514,0.459458456017,0.315486418314,nan,nan,0.0,0.0,0.0,nan,nan,209.966475347,607.161981179,607.495446417,607.662030786,nan,nan
0,332,4745,6,1,25,17,1.0,0.0970682892709,-1.0,1,1.0,1.0,0.309329997748,0,0.0,0.0,0.338793907159,0.387309764881,0.0719384287283,0.459248193609,0.315371336152,nan,nan,0.0,0.0,0.0,nan,nan,209.966475347,608.162110043,608.471440041,608.662159935,nan,nan
0,333,4746,6,1,489,343,0.656284860842,0.299572439858,-1.0,1,1.0,1.0,0.301166791469,0,1.0,0.0,0.314654009261,0.387075591406,0.0719569491445,0.45903254055,0.315118642261,nan,nan,0.0,0.0,0.0,nan,nan,209.966475347,609.162262,609.463428792,609.662284523,nan,nan
0,334,4754,6,1,352,247,-0.17544712699,0.470851603012,0.118673592819,1,1.0,1.0,0.309011828154,1,0.0,0.0,0.306502872457,0.38681837943,0.0720022967798,0.45882067621,0.31481608265,-168.031524348,367.0,-0.15309091083,0.477560897992,-0.0350816338538,10.5315243484,4.25914565334,209.966475347,610.162382026,610.471393854,610.662415668,611.987598815,616.254784511
0,335,4755,6,1,418,293,0.101175887384,0.455961754156,-0.661679309199,1,1.0,1.0,0.383960909676,0,0.0,0.0,0.3313798431,0.386586121068,0.0720199444989,0.458606065567,0.314566176569,nan,nan,0.0,0.0,0.0,nan,nan,209.966475347,617.463296506,617.847257416,617.963377759,nan,nan
0,336,4756,6,1,222,156,0.841778467246,0.0997291618919,0.589484691865,1,1.0,1.0,0.335823853035,0,0.0,0.0,0.342932196955,0.386578307939,0.0719128342887,0.458491142228,0.31466547365,nan,nan,0.0,0.0,0.0,nan,nan,209.966475347,618.4634248,618.799248653,618.963455591,nan,nan
0,337,4757,6,1,407,286,0.0305886347219,0.46645515455,-0.502577406972,1,1.0,1.0,0.335667904001,0,0.0,0.0,0.35181755557,0.386427701248,0.0718591083134,0.458286809561,0.314568592934,nan,nan,0.0,0.0,0.0,nan,nan,209.966475347,619.463575332,619.799243236,619.963603271,nan,nan
0,338,4758,6,1,494,347,0.698129958021,0.282143999684,-1.0,1,1.0,1.0,0.36753300298,0,0.0,0.0,0.346341586672,0.386277524333,0.0718056720062,0.458083196339,0.314471852327,nan,nan,0.0,0.0,0.0,nan,nan,209.966475347,620.463677967,620.83121097,620.963742399,nan,nan
0,339,4759,6,0,149,104,1.0,-0.269478519393,0.0541436597792,0,0.0,1.0,0.463341266382,0,0.0,0.0,0.388847391121,0.38622223076,0.0717068917613,0.457929122521,0.314515338998,nan,nan,0.0,0.0,0.0,nan,nan,209.966475347,621.463838192,621.927179459,621.963874399,nan,nan
0,340,4800,6,1,67,47,1.0,-0.12380466598,-1.0,1,1.0,1.0,0.35121086752,0,0.0,0.0,0.394028378961,0.386449051453,0.0717230499909,0.458172101443,0.314726001462,nan,nan,0.0,0.0,0.0,nan,nan,209.966475347,622.463971333,622.8151822,622.963996707,nan,nan
0,341,4801,6,1,394,277,-0.0437090198531,0.474655926729,-0.339401417396,1,1.0,1.0,0.319051262923,0,0.0,0.0,0.377867798942,0.38634571367,0.0716431506748,0.457988864345,0.314702562995,nan,nan,0.0,0.0,0.0,nan,nan,209.966475347,623.464105899,623.783157162,623.964114167,nan,nan
0,342,4802,6,1,241,169,0.64365311028,0.192605941253,0.644254782112,1,1.0,1.0,0.35892732488,0,0.0,0.0,0.343063151774,0.38614894627,0.0716305497715,0.457779496041,0.314518396498,nan,nan,0.0,0.0,0.0,nan,nan,209.966475347,624.464200837,624.823128161,624.964230202,nan,nan
0,343,4803,6,1,306,215,-0.00395437407881,0.408974006242,0.494128827808,1,1.0,1.0,0.326770856511,0,0.0,0.0,0.334916481438,0.386069582942,0.0715411124068,0.457610695349,0.314528470535,nan,nan,0.0,0.0,0.0,nan,nan,209.966475347,625.464344241,625.791115097,625.964354789,nan,nan
0,344,4804,6,0,479,336,0.572572153349,0.331768222426,-1.0,0,0.0,1.0,0.422616183292,0,0.0,0.0,0.369438121561,0.385897202924,0.0715083539035,0.457405556827,0.31438884902,nan,nan,0.0,0.0,0.0,nan,nan,209.966475347,626.464479662,626.887095845,626.964509598,nan,nan
0,345,4805,6,1,198,139,1.0,-0.0302354974571,0.462326941081,1,1.0,1.0,0.318515563849,0,0.0,0.0,0.355967534551,0.386003634751,0.0714319245132,0.457435559264,0.314571710238,nan,nan,0.0,0.0,0.0,nan,nan,209.966475347,627.464569468,627.783085032,627.964625062,nan,nan
0,346,4806,6,1,28,19,1.0,0.082066132397,-1.0,1,1.0,1.0,0.286363087129,0,0.0,0.0,0.34249827809,0.385808582523,0.0714205735465,0.457229156069,0.314388008976,nan,nan,0.0,0.0,0.0,nan,nan,209.966475347,628.464694911,628.751057998,628.964747084,nan,nan
0,347,4807,6,1,349,245,-0.175656888649,0.468768509344,0.147945183432,1,1.0,1.0,0.342209473718,0,0.0,0.0,0.315696041565,0.385521996081,0.0715165430474,0.457038539128,0.314005453033,nan,nan,0.0,0.0,0.0,nan,nan,209.966475347,629.464845728,629.807055201,629.96486654,nan,nan
0,348,4808,6,1,500,351,0.748145934353,0.260058294274,-1.0,1,1.0,1.0,0.34206378879,0,0.0,0.0,0.323545449879,0.385397534809,0.071451340073,0.456848874882,0.313946194736,nan,nan,0.0,0.0,0.0,nan,nan,209.966475347,630.464968035,630.807031823,630.964994549,nan,nan
0,349,4809,6,0,380,267,-0.109519508899,0.478533032186,-0.177177385375,0,0.0,1.0,0.469843207393,0,0.0,0.0,0.384705489967,0.385273369348,0.0713864888208,0.456659858169,0.313886880527,nan,nan,0.0,0.0,0.0,nan,nan,209.966475347,631.465175016,631.935018223,631.965151067,nan,nan
0,350,4810,6,1,436,306,0.228681708805,0.431413732101,-1.0,1,1.0,1.0,0.317789705005,0,0.0,0.0,0.376565567063,0.385514997457,0.0714272130499,0.456942210507,0.314087784407,nan,nan,0.0,0.0,0.0,nan,nan,209.966475347,632.465212934,632.783002639,632.965262256,nan,nan
0,351,4811,6,1,306,215,-0.00395437407881,0.408974006242,0.494128827808,1,1.0,1.0,0.293657599483,0,0.0,0.0,0.360430170627,0.385322047906,0.0714166781877,0.456738726093,0.313905369718,nan,nan,0.0,0.0,0.0,nan,nan,209.966475347,633.46533353,633.75899113,633.965389409,nan,nan
0,352,4812,6,1,393,276,-0.0489456633786,0.475102171109,-0.327443230616,1,1.0,1.0,0.485436632764,0,0.0,0.0,0.365627979084,0.385061637541,0.0714818499657,0.456543487507,0.313579787575,nan,nan,0.0,0.0,0.0,nan,nan,209.966475347,634.46550744,634.950944073,634.965503734,nan,nan
0,353,4813,6,1,316,222,-0.0718215561597,0.428203514031,0.427892255365,1,1.0,1.0,0.285300527234,0,0.0,0.0,0.35479825316,0.385345985969,0.0715796098735,0.456925595843,0.313766376096,nan,nan,0.0,0.0,0.0,nan,nan,209.966475347,635.465614066,635.750914594,635.965651984,nan,nan
0,354,4814,6,1,5,3,0.88714030954,0.190659852496,-1.0,1,1.0,1.0,0.493168771267,0,0.0,0.0,0.421301977088,0.385063371679,0.0716753890415,0.45673876072,0.313387982637,nan,nan,0.0,0.0,0.0,nan,nan,209.966475347,636.46574293,636.958911702,636.97410656,nan,nan
0,355,4815,6,0,145,101,1.0,-0.281667413287,0.0150551701241,0,0.0,1.0,0.493027077056,0,0.0,0.0,0.423832125186,0.385367893931,0.0718033266616,0.457171220593,0.31356456727,nan,nan,0.0,0.0,0.0,nan,nan,209.966475347,637.465880348,637.958907425,637.974254526,nan,nan
0,356,4816,6,1,497,349,0.723174939644,0.271260599794,-1.0,1,1.0,1.0,0.260875056498,0,0.0,0.0,0.415690301607,0.385670307367,0.0719284470575,0.457598754425,0.31374186031,nan,nan,0.0,0.0,0.0,nan,nan,209.966475347,638.466005791,638.726880847,638.966028028,nan,nan
0,357,4817,6,1,24,16,1.0,0.102019060141,-1.0,1,1.0,1.0,0.292816846166,0,0.0,0.0,0.348906326573,0.385320740838,0.0721298231037,0.457450563942,0.313190917734,nan,nan,0.0,0.0,0.0,nan,nan,209.966475347,639.46610586,639.758922706,639.966148055,nan,nan
0,358,4818,6,1,208,146,0.97651257568,0.025020743352,0.522574479073,1,1.0,1.0,0.300609710626,0,1.0,0.0,0.28476720443,0.385062350071,0.0721942799268,0.457256629998,0.312868070144,nan,nan,0.0,0.0,0.0,nan,nan,209.966475347,640.46625354,640.766863251,640.966271217,nan,nan
0,359,4824,6,1,264,185,0.394966959701,0.287889713878,0.650717615019,1,1.0,1.0,0.356493160129,1,0.0,0.0,0.31663990564,0.38482710595,0.0722309321294,0.457058038079,0.31259617382,-94.3789686078,262.0,0.416452475899,0.2804144186,0.652815538838,-1.24603139225,3.28408315964,209.966475347,641.466372997,641.822866157,641.966432012,643.299908084,646.592022164
0,360,4825,6,1,403,283,0.00657627305109,0.469456436931,-0.450524507496,1,1.0,1.0,0.366189621855,0,0.0,0.0,0.341097497536,0.384748400545,0.0721459553644,0.456894355909,0.31260244518,nan,nan,0.0,0.0,0.0,nan,nan,209.966475347,647.800525891,648.166715513,648.300564379,nan,nan
0,361,4826,6,0,17,11,0.981069150956,0.135921910835,-1.0,0,0.0,1.0,0.406033468433,0,0.0,0.0,0.376238750139,0.384696991185,0.0720525637101,0.456749554896,0.312644427475,nan,nan,0.0,0.0,0.0,nan,nan,209.966475347,648.800665304,649.206698772,649.300697235,nan,nan
0,362,4827,6,1,511,359,0.838703193994,0.216284169582,-1.0,1,1.0,1.0,0.293953531422,0,0.0,0.0,0.355392207236,0.38475593173,0.0719616890287,0.456717620759,0.312794242702,nan,nan,0.0,0.0,0.0,nan,nan,209.966475347,649.800790747,650.094744279,650.300806142,nan,nan
0,363,4828,6,1,187,131,1.0,-0.0912463489427,0.385383214542,1,1.0,1.0,0.317791700829,0,0.0,0.0,0.339259566894,0.384505787377,0.0720199279738,0.456525715351,0.312485859403,nan,nan,0.0,0.0,0.0,nan,nan,209.966475347,650.800923603,651.118715303,651.300933866,nan,nan
0,364,4829,6,1,241,169,0.64365311028,0.192605941253,0.644254782112,1,1.0,1.0,0.293597729411,0,1.0,0.0,0.301780987221,0.384322506919,0.0720056537989,0.456328160718,0.31231685312,nan,nan,0.0,0.0,0.0,nan,nan,209.966475347,651.801044769,652.094642499,652.301062445,nan,nan
0,365,4835,6,0,80,56,1.0,-0.189075709245,-0.708965549488,0,0.0,1.0,0.445452803746,1,0.0,0.0,0.352280744662,0.384073945885,0.072063153349,0.456137099234,0.312010792536,31.1793152574,84.0,1.0,-0.20765784414,-0.652191087791,2.57068474262,3.11737505859,209.966475347,652.801173348,653.246626152,653.301205564,654.626351079,657.751771598
0,366,4836,6,1,9,6,0.918933560847,0.172916688009,-1.0,1,1.0,1.0,0.382557658479,0,0.0,0.0,0.373869397212,0.384241647682,0.0720359250579,0.45627757274,0.312205722625,nan,nan,0.0,0.0,0.0,nan,nan,209.966475347,658.951960446,659.334518105,659.451997509,nan,nan
0,367,4837,6,1,281,197,0.218083397074,0.345068392493,0.612644422055,1,1.0,1.0,0.350435401313,0,0.0,0.0,0.392815287846,0.384237059156,0.0719377700855,0.456174829242,0.312299289071,nan,nan,0.0,0.0,0.0,nan,nan,209.966475347,659.952061086,660.302496487,660.452093302,nan,nan
0,368,4838,6,1,356,250,-0.17284377641,0.473239407326,0.0788368070227,1,1.0,1.0,0.396240643226,0,0.0,0.0,0.376411234339,0.384145206825,0.07186150898,0.456006715805,0.312283697845,nan,nan,0.0,0.0,0.0,nan,nan,209.966475347,661.002248281,661.398488924,661.502226899,nan,nan
0,369,4839,6,1,87,61,1.0,-0.220959007447,-0.612675615602,1,1.0,1.0,0.492123602424,0,0.0,0.0,0.412933215654,0.384177985785,0.0717668244181,0.455944810203,0.312411161367,nan,nan,0.0,0.0,0.0,nan,nan,209.966475347,662.002337517,662.494461119,662.510692879,nan,nan
0,370,4840,6,0,287,201,0.159501648714,0.36255249221,0.590751920292,0,1.0,0.0,0.315943126101,0,0.0,0.0,0.401435790583,0.384469730695,0.0718885550545,0.45635828575,0.312581175641,nan,nan,0.0,0.0,0.0,nan,nan,209.966475347,663.002518839,663.318461965,663.502510001,nan,nan
0,371,4841,6,1,347,243,-0.174938837379,0.46723881498,0.167157479366,1,1.0,1.0,0.278305082116,0,0.0,0.0,0.36212393688,0.384285022866,0.0718794672223,0.456164490088,0.312405555644,nan,nan,0.0,0.0,0.0,nan,nan,209.966475347,664.032134801,664.310439883,664.53594884,nan,nan
0,372,4842,6,1,401,281,-0.00506340639596,0.470796889516,-0.425203102762,1,1.0,1.0,0.306653213687,0,0.0,0.0,0.300300473968,0.384000130552,0.0719922263165,0.455992356869,0.312007904236,nan,nan,0.0,0.0,0.0,nan,nan,209.966475347,665.027756269,665.334409482,665.527740018,nan,nan
0,373,4843,6,1,287,201,0.159501648714,0.36255249221,0.590751920292,1,1.0,1.0,0.346544385888,0,1.0,0.0,0.310500893897,0.383792766164,0.0720068158144,0.455799581978,0.311785950349,nan,nan,0.0,0.0,0.0,nan,nan,209.966475347,666.027844079,666.374388465,666.527872018,nan,nan
0,374,4847,6,1,42,29,1.0,0.00954878589686,-1.0,1,1.0,1.0,0.282401082572,1,0.0,0.0,0.311866227382,0.383693171564,0.0719362061497,0.455629377714,0.311756965415,66.6704479327,33.0,1.0,0.0565990290419,-1.0,-6.20169793268,0.967174977064,209.966475347,667.02796553,667.310366613,667.52799404,668.853166638,669.828294989
0,375,4848,6,1,263,184,0.405698801511,0.284171736334,0.651829885785,1,1.0,1.0,0.361220081802,0,0.0,0.0,0.330055183421,0.383423059327,0.0720298931927,0.45545295252,0.311393166134,nan,nan,0.0,0.0,0.0,nan,nan,209.966475347,671.045140679,671.40636076,671.545200549,nan,nan
0,376,4849,6,1,449,315,0.328095008353,0.407646248688,-1.0,1,1.0,1.0,0.296985831577,0,0.0,0.0,0.313535665317,0.383364008855,0.0719431333612,0.455307142216,0.311420875494,nan,nan,0.0,0.0,0.0,nan,nan,209.966475347,672.045300333,672.342286165,672.545332835,nan,nan
0,377,4850,6,1,154,108,1.0,-0.251813147593,0.102138173725,1,1.0,1.0,0.360867415555,0,0.0,0.0,0.339691109645,0.383134889021,0.0719848869192,0.45511977594,0.311150002102,nan,nan,0.0,0.0,0.0,nan,nan,209.966475347,673.045409526,673.406276941,673.545434614,nan,nan
0,378,4851,6,1,332,233,-0.146647089803,0.45205423783,0.302714191958,1,1.0,1.0,0.416705535259,0,0.0,0.0,0.358186260797,0.383075980361,0.0718987043876,0.454974684749,0.311177275974,nan,nan,0.0,0.0,0.0,nan,nan,209.966475347,674.045553215,674.46225875,674.545586287,nan,nan
0,379,4852,6,1,243,170,0.622151010882,0.20168048164,0.647463484622,1,1.0,1.0,0.416572394315,0,0.0,0.0,0.398048448376,0.383164712696,0.0718245097982,0.454989222494,0.311340202898,nan,nan,0.0,0.0,0.0,nan,nan,209.966475347,675.045666114,675.462238508,675.545689777,nan,nan
0,380,4853,6,1,466,327,0.464789014893,0.368385601135,-1.0,1,1.0,1.0,0.400440419093,0,0.0,0.0,0.411239449556,0.383252627648,0.0717503576902,0.455002985338,0.311502269957,nan,nan,0.0,0.0,0.0,nan,nan,209.966475347,676.045776447,676.446216866,676.54581693,nan,nan
0,381,4854,6,1,29,20,1.0,0.0770173926463,-1.0,1,1.0,1.0,0.592285024934,0,0.0,1.0,0.469765946114,0.383297739961,0.0716615312759,0.454959271237,0.311636208685,nan,nan,0.0,0.0,0.0,nan,nan,209.966475347,677.045905311,677.638190336,677.545985138,nan,nan
0,382,4859,6,1,99,69,1.0,-0.267176270739,-0.468793303331,1,1.0,1.0,0.544103777967,1,0.0,0.0,0.512276407331,0.383844827095,0.0723599794424,0.456204806537,0.311484847652,10.6196552762,113.0,1.0,-0.302191989669,-0.314576349441,9.77096972384,1.44217560394,209.966475347,678.046065536,678.590169314,678.546112292,679.879594922,681.329795174
0,383,4900,6,1,165,116,1.0,-0.205056383665,0.203745440608,1,1.0,1.0,0.691505054012,0,0.0,0.0,0.609297952304,0.384263257776,0.0727267342283,0.456989992004,0.311536523547,nan,nan,0.0,0.0,0.0,nan,nan,209.966475347,682.546597243,683.238102297,683.046685623,nan,nan
0,384,4901,6,1,227,159,0.791019951953,0.125257787881,0.608066708266,1,1.0,1.0,0.699309607036,0,0.0,0.0,0.644972813005,0.38506336662,0.0743006774879,0.459364044108,0.310762689132,nan,nan,0.0,0.0,0.0,nan,nan,209.966475347,683.546761745,684.246071352,684.046814203,nan,nan
0,385,4902,6,1,422,296,0.128328379107,0.451313674078,-0.730894888444,1,1.0,1.0,0.699173330329,0,0.0,1.0,0.696662663793,0.385879590621,0.0759083696351,0.461787960256,0.309971220986,nan,nan,0.0,0.0,0.0,nan,nan,209.966475347,684.546876354,685.246049684,685.046942212,nan,nan
0,386,4907,6,1,497,349,0.723174939644,0.271260599794,-1.0,1,1.0,1.0,0.71501678694,1,0.0,0.0,0.704499908102,0.386691232434,0.0774646787068,0.464155911141,0.309226553727,98.9198437837,499.0,0.739831889234,0.263827757734,-1.0,1.62703121634,2.21725223865,209.966475347,685.547016907,686.262033694,686.047070506,687.380528332,689.605816052
