block,trial,freq_trials,correct_response,actual_response,acc,rts,probe_trials,fast_rt_trigger,slow_rt_trigger,rt_triggered,rts_runningavg,rts_runningstd,rts_runningfastthresh,rts_runningslowthresh,rts_runningstd,rts_trailingavg,trials_colorind,trials_colorrgb0,trials_colorrgb1,trials_colorrgb2,wm_respdeg,wm_respdeg_in_colorspace,wm_respcolorminusorigcolor,wm_resptexind,wm_resptexrgb0,wm_resptexrgb1,wm_resptexrgb2,wm_rts,time_blockstart,time_encarray_offset,time_encarray_onset,time_response,time_iti_offset,time_iti_onset,time_memprobe_offset,time_memprobe_onset
1,1,1,1,1.0,1.0,0.380289989989,0,nan,nan,nan,nan,nan,nan,nan,nan,nan,453,0.359670421306,0.39926174925,-1.0,nan,nan,nan,nan,0.0,0.0,0.0,nan,209.966475347,210.978189161,211.478218241,211.358479151,nan,nan,nan,nan
1,2,1,1,1.0,1.0,0.363769996911,0,nan,nan,nan,nan,nan,nan,nan,nan,nan,277,0.258470646878,0.33263615818,0.624824240443,nan,nan,nan,nan,0.0,0.0,0.0,nan,209.966475347,211.986709024,212.486711876,212.350479021,nan,nan,nan,nan
1,3,0,0,0.0,1.0,0.563607319724,0,nan,nan,nan,nan,nan,nan,nan,nan,nan,181,1.0,-0.123914391386,0.3392011262,nan,nan,nan,nan,0.0,0.0,0.0,nan,209.966475347,212.986816506,213.486855565,213.550423826,nan,nan,nan,nan
1,4,1,1,1.0,1.0,0.331509182695,0,nan,nan,nan,nan,nan,nan,nan,nan,nan,350,-0.175756816429,0.469490941964,0.138247479403,nan,nan,nan,nan,0.0,0.0,0.0,nan,209.966475347,213.986912014,214.486934252,214.318421197,nan,nan,nan,nan
1,5,1,1,1.0,1.0,0.37728619948,0,nan,nan,nan,nan,nan,nan,nan,nan,nan,220,0.861731547614,0.0893272636146,0.581247684387,nan,nan,nan,nan,0.0,0.0,0.0,nan,209.966475347,215.037118881,215.537096073,215.41440508,nan,nan,nan,nan
1,6,1,1,1.0,1.0,0.4811958028,0,nan,nan,nan,nan,nan,nan,nan,nan,nan,49,1.0,-0.027785429985,-1.0,nan,nan,nan,nan,0.0,0.0,0.0,nan,209.966475347,216.037178752,216.537210112,216.518374554,nan,nan,nan,nan
1,7,1,1,1.0,1.0,0.337061747443,0,nan,nan,nan,nan,nan,nan,nan,nan,nan,152,1.0,-0.259184487343,0.0830625546756,nan,nan,nan,nan,0.0,0.0,0.0,nan,209.966475347,217.03730676,217.537344393,217.374368508,nan,nan,nan,nan
1,8,1,1,1.0,1.0,0.267899296712,0,nan,nan,nan,nan,nan,nan,nan,nan,nan,76,1.0,-0.169674511773,-0.773365826749,nan,nan,nan,nan,0.0,0.0,0.0,nan,209.966475347,218.082445729,218.58749196,218.350345025,nan,nan,nan,nan
1,9,1,1,1.0,1.0,0.327073060442,0,nan,nan,nan,nan,nan,nan,nan,nan,nan,485,0.622774561467,0.312875618285,-1.0,nan,nan,nan,nan,0.0,0.0,0.0,nan,209.966475347,219.079239518,219.579257765,219.406312579,nan,nan,nan,nan
1,10,1,1,1.0,1.0,0.366944846231,1,nan,nan,nan,nan,nan,nan,nan,nan,nan,331,-0.143297839787,0.450801753776,0.311166711333,-132.695221862,222.695221862,-10.0391531382,317.0,-0.077772836126,0.429938605076,0.420733606481,2.80898788013,209.966475347,220.079342439,220.579379216,220.446287285,224.729893761,225.739147181,221.904540696,224.721561492
1,11,1,1,1.0,1.0,0.339789848775,0,nan,nan,nan,nan,nan,nan,nan,nan,nan,110,1.0,-0.296722754836,-0.346921960777,nan,nan,nan,nan,0.0,0.0,0.0,nan,209.966475347,225.938411457,226.438477315,226.278201306,nan,nan,nan,nan
1,12,1,1,1.0,1.0,0.37963683065,0,nan,nan,nan,nan,nan,nan,nan,nan,nan,269,0.34171296506,0.305888347675,0.643262349404,nan,nan,nan,nan,0.0,0.0,0.0,nan,209.966475347,226.938561134,227.438596771,227.318197965,nan,nan,nan,nan
1,13,0,0,0.0,1.0,0.475461915135,0,nan,nan,nan,nan,nan,nan,nan,nan,nan,346,-0.174317561957,0.466431294057,0.176670174816,nan,nan,nan,nan,0.0,0.0,0.0,nan,209.966475347,227.938703113,228.438735614,228.414165028,nan,nan,nan,nan
1,14,1,1,1.0,1.0,0.355320837814,0,nan,nan,nan,nan,nan,nan,nan,nan,nan,84,1.0,-0.20765784414,-0.652191087791,nan,nan,nan,nan,0.0,0.0,0.0,nan,209.966475347,228.938830551,229.438835683,229.294151389,nan,nan,nan,nan
1,15,1,1,1.0,1.0,0.34720096644,0,nan,nan,nan,nan,nan,nan,nan,nan,nan,496,0.714833717156,0.274923884212,-1.0,nan,nan,nan,nan,0.0,0.0,0.0,nan,209.966475347,229.938941739,230.43897196,230.286142706,nan,nan,nan,nan
1,16,1,1,1.0,1.0,0.323024956509,0,nan,nan,nan,nan,nan,nan,nan,nan,nan,371,-0.14179360683,0.478331938097,-0.0779732583494,nan,nan,nan,nan,0.0,0.0,0.0,nan,209.966475347,230.939087709,231.439126198,231.262112666,nan,nan,nan,nan
1,17,1,1,0.0,0.0,0.426879535895,0,0.0,0.0,0.0,nan,nan,nan,nan,nan,nan,71,1.0,-0.144504067012,-0.877980773838,nan,nan,nan,nan,0.0,0.0,0.0,nan,209.966475347,231.939207736,232.439237956,232.366087272,nan,nan,nan,nan
1,18,1,1,1.0,1.0,0.370741493534,0,nan,nan,nan,nan,nan,nan,nan,nan,nan,143,1.0,-0.287057525782,-0.00469998909502,nan,nan,nan,nan,0.0,0.0,0.0,nan,209.966475347,232.939341732,233.439364539,233.310083225,nan,nan,nan,nan
1,19,1,1,1.0,1.0,0.402595758438,0,nan,nan,nan,nan,nan,nan,nan,nan,nan,297,0.0686262056446,0.388646276542,0.544904663634,nan,nan,nan,nan,0.0,0.0,0.0,nan,209.966475347,233.93946632,234.439464039,234.342062078,nan,nan,nan,nan
1,20,1,1,1.0,1.0,0.338418528438,0,nan,nan,nan,nan,nan,nan,nan,nan,nan,214,0.920243657418,0.0575410437433,0.553854850604,nan,nan,nan,nan,0.0,0.0,0.0,nan,209.966475347,234.939594613,235.43962797,235.278013142,nan,nan,nan,nan
1,21,1,1,1.0,1.0,0.298354586121,0,nan,nan,nan,nan,nan,nan,nan,nan,nan,10,0.926811495151,0.168400576072,-1.0,nan,nan,nan,nan,0.0,0.0,0.0,nan,209.966475347,235.939720627,236.439761396,236.238075213,nan,nan,nan,nan
1,22,1,1,1.0,1.0,0.410187628586,0,nan,nan,nan,nan,nan,nan,nan,nan,nan,212,0.93926288676,0.0467731277665,0.543851001166,nan,nan,nan,nan,0.0,0.0,0.0,nan,209.966475347,236.939817845,237.439866026,237.350005473,nan,nan,nan,nan
1,23,1,1,1.0,1.0,0.442019655835,0,nan,nan,nan,nan,nan,nan,nan,nan,nan,491,0.673033477965,0.292707709811,-1.0,nan,nan,nan,nan,0.0,0.0,0.0,nan,209.966475347,237.939980636,238.439986908,238.382000292,nan,nan,nan,nan
1,24,1,1,1.0,1.0,0.401903540827,0,nan,nan,nan,nan,nan,nan,nan,nan,nan,120,1.0,-0.310161497659,-0.240162905937,nan,nan,nan,nan,0.0,0.0,0.0,nan,209.966475347,238.940068161,239.440146278,239.341971702,nan,nan,nan,nan
1,25,1,1,1.0,1.0,0.425741995685,0,nan,nan,nan,nan,nan,nan,nan,nan,nan,51,1.0,-0.0385160204876,-1.0,nan,nan,nan,nan,0.0,0.0,0.0,nan,209.966475347,239.940228956,240.44025547,240.365970952,nan,nan,nan,nan
1,26,1,1,1.0,1.0,0.441596570425,0,nan,nan,nan,nan,nan,nan,nan,nan,nan,493,0.689769084006,0.285700779988,-1.0,nan,nan,nan,nan,0.0,0.0,0.0,nan,209.966475347,240.940340715,241.440358106,241.381937285,nan,nan,nan,nan
1,27,1,1,1.0,1.0,0.481453531422,0,nan,nan,nan,nan,nan,nan,nan,nan,nan,416,0.087881616042,0.458117504295,-0.630165317015,nan,nan,nan,nan,0.0,0.0,0.0,nan,209.966475347,241.940461026,242.440525458,242.421914557,nan,nan,nan,nan
1,28,1,1,1.0,1.0,0.38321537897,0,nan,nan,nan,nan,nan,nan,nan,nan,nan,29,1.0,0.0770173926463,-1.0,nan,nan,nan,nan,0.0,0.0,0.0,nan,209.966475347,242.990692696,243.49066105,243.373908075,nan,nan,nan,nan
1,29,1,1,1.0,1.0,0.423149886075,0,nan,nan,nan,nan,nan,nan,nan,nan,nan,212,0.93926288676,0.0467731277665,0.543851001166,nan,nan,nan,nan,0.0,0.0,0.0,nan,209.966475347,243.990748575,244.490774234,244.413898461,nan,nan,nan,nan
1,30,1,1,1.0,1.0,0.39897159487,0,nan,nan,nan,nan,nan,nan,nan,nan,nan,342,-0.170052622031,0.462913557708,0.21407524247,nan,nan,nan,nan,0.0,0.0,0.0,nan,209.966475347,244.990878295,245.490915643,245.38984989,nan,nan,nan,nan
1,31,1,1,1.0,1.0,0.350834253244,0,nan,nan,nan,nan,nan,nan,nan,nan,nan,9,0.918933560847,0.172916688009,-1.0,nan,nan,nan,nan,0.0,0.0,0.0,nan,209.966475347,245.99101001,246.491041371,246.341844263,nan,nan,nan,nan
1,32,1,1,1.0,1.0,0.342718658503,0,nan,nan,nan,nan,nan,nan,nan,nan,nan,450,0.335949728395,0.405598329481,-1.0,nan,nan,nan,nan,0.0,0.0,0.0,nan,209.966475347,246.991124334,247.49113916,247.333842993,nan,nan,nan,nan
1,33,1,1,1.0,1.0,0.414587543346,1,nan,nan,nan,nan,nan,nan,nan,nan,nan,65,1.0,-0.113312155659,-1.0,59.1687700924,30.8312299076,-14.8718950924,44.0,1.0,-0.00106984144607,-1.0,4.38419640064,209.966475347,247.991228965,248.491264888,248.405816508,254.225319651,255.222640017,249.824761772,254.216990233
1,34,1,1,1.0,1.0,0.45217398461,0,nan,nan,nan,nan,nan,nan,nan,nan,nan,351,-0.175686286722,0.4701852659,0.128489978773,nan,nan,nan,nan,0.0,0.0,0.0,nan,209.966475347,255.425501658,255.925530168,255.877675643,nan,nan,nan,nan
1,35,1,1,1.0,1.0,0.380036823452,0,nan,nan,nan,nan,nan,nan,nan,nan,nan,288,0.150005133015,0.365331945294,0.586687239957,nan,nan,nan,nan,0.0,0.0,0.0,nan,209.966475347,256.425627101,256.925676993,256.805663924,nan,nan,nan,nan
1,36,1,1,1.0,1.0,0.395899666008,0,nan,nan,nan,nan,nan,nan,nan,nan,nan,507,0.805995650865,0.232688349973,-1.0,nan,nan,nan,nan,0.0,0.0,0.0,nan,209.966475347,257.425751974,257.925795594,257.82165164,nan,nan,nan,nan
1,37,1,1,1.0,1.0,0.475710236002,0,nan,nan,nan,nan,nan,nan,nan,nan,nan,93,1.0,-0.245614297951,-0.538619881923,nan,nan,nan,nan,0.0,0.0,0.0,nan,209.966475347,258.425905071,258.925926739,258.901615307,nan,nan,nan,nan
1,38,1,1,1.0,1.0,0.467558718752,0,nan,nan,nan,nan,nan,nan,nan,nan,nan,502,0.764740937618,0.25241357569,-1.0,nan,nan,nan,nan,0.0,0.0,0.0,nan,209.966475347,259.426040493,259.926068718,259.893599212,nan,nan,nan,nan
1,39,1,1,1.0,1.0,0.435410232749,0,nan,nan,nan,nan,nan,nan,nan,nan,nan,79,1.0,-0.184296021705,-0.724170777997,nan,nan,nan,nan,0.0,0.0,0.0,nan,209.966475347,260.426170783,260.926183327,260.861581015,nan,nan,nan,nan
1,40,1,1,1.0,1.0,0.515119307674,0,nan,nan,nan,nan,nan,nan,nan,nan,nan,230,0.760023132926,0.140224214653,0.61781109556,nan,nan,nan,nan,0.0,0.0,0.0,nan,209.966475347,261.426468424,261.926351249,261.941587732,nan,nan,nan,nan
1,41,1,1,1.0,1.0,0.779135286808,0,nan,nan,nan,nan,nan,nan,nan,nan,nan,286,0.169078956243,0.359734776014,0.594698705761,nan,nan,nan,nan,0.0,0.0,0.0,nan,209.966475347,262.426413686,262.926480399,263.205548973,nan,nan,nan,nan
1,42,1,1,1.0,1.0,0.538995964918,0,nan,nan,nan,nan,nan,nan,nan,nan,nan,338,-0.162891363375,0.458928707883,0.250399161362,nan,nan,nan,nan,0.0,0.0,0.0,nan,209.966475347,263.4265263,263.92660014,263.965522265,nan,nan,nan,nan
1,43,1,1,1.0,1.0,0.410871577915,0,nan,nan,nan,nan,nan,nan,nan,nan,nan,400,-0.0107874812989,0.471427301814,-0.412692688905,nan,nan,nan,nan,0.0,0.0,0.0,nan,209.966475347,264.42664376,264.926700494,264.837515338,nan,nan,nan,nan
1,44,1,1,1.0,1.0,0.354720136616,0,nan,nan,nan,nan,nan,nan,nan,nan,nan,90,1.0,-0.233635786423,-0.574971871003,nan,nan,nan,nan,0.0,0.0,0.0,nan,209.966475347,265.426794006,265.926814248,265.781514143,nan,nan,nan,nan
1,45,1,1,1.0,1.0,0.362582279369,0,nan,nan,nan,nan,nan,nan,nan,nan,nan,434,0.213881816697,0.43461034373,-1.0,nan,nan,nan,nan,0.0,0.0,0.0,nan,209.966475347,266.426914318,266.92695138,266.789496597,nan,nan,nan,nan
1,46,1,1,1.0,1.0,0.386435559019,0,nan,nan,nan,nan,nan,nan,nan,nan,nan,42,1.0,0.00954878589686,-1.0,nan,nan,nan,nan,0.0,0.0,0.0,nan,209.966475347,267.427047173,267.927074543,267.813482732,nan,nan,nan,nan
1,47,1,1,1.0,1.0,0.442260848358,0,nan,nan,nan,nan,nan,nan,nan,nan,nan,113,1.0,-0.302191989669,-0.314576349441,nan,nan,nan,nan,0.0,0.0,0.0,nan,209.966475347,268.427179174,268.927195424,268.869440022,nan,nan,nan,nan
1,48,1,1,1.0,1.0,0.362163755577,0,nan,nan,nan,nan,nan,nan,nan,nan,nan,372,-0.138660017671,0.478458869494,-0.0888123791441,nan,nan,nan,nan,0.0,0.0,0.0,nan,209.966475347,269.42728466,269.927335692,269.789448415,nan,nan,nan,nan
1,49,1,1,1.0,1.0,0.353990856092,0,nan,nan,nan,nan,nan,nan,nan,nan,nan,487,0.639529740128,0.306295026098,-1.0,nan,nan,nan,nan,0.0,0.0,0.0,nan,209.966475347,270.427424073,270.927455433,270.781414929,nan,nan,nan,nan
1,50,1,1,1.0,1.0,0.369845146313,0,nan,nan,nan,nan,nan,nan,nan,nan,nan,316,-0.0718215561597,0.428203514031,0.427892255365,nan,nan,nan,nan,0.0,0.0,0.0,nan,209.966475347,271.427556928,271.927583157,271.797402075,nan,nan,nan,nan
1,51,1,1,1.0,1.0,0.425698945764,0,nan,nan,nan,nan,nan,nan,nan,nan,nan,92,1.0,-0.241703663401,-0.55060883727,nan,nan,nan,nan,0.0,0.0,0.0,nan,209.966475347,272.427704324,272.92770803,272.853403269,nan,nan,nan,nan
1,52,1,1,1.0,1.0,0.40154203726,0,nan,nan,nan,nan,nan,nan,nan,nan,nan,187,1.0,-0.0912463489427,0.385383214542,nan,nan,nan,nan,0.0,0.0,0.0,nan,209.966475347,273.427828626,273.927834613,273.829370664,nan,nan,nan,nan
1,53,1,1,1.0,1.0,0.433387748897,0,nan,nan,nan,nan,nan,nan,nan,nan,nan,45,1.0,-0.0063957592436,-1.0,nan,nan,nan,nan,0.0,0.0,0.0,nan,209.966475347,274.427953784,274.927960912,274.861341533,nan,nan,nan,nan
1,54,0,0,0.0,1.0,0.409249941818,0,nan,nan,nan,nan,nan,nan,nan,nan,nan,406,0.0244967455079,0.467245700284,-0.489366101921,nan,nan,nan,nan,0.0,0.0,0.0,nan,209.966475347,275.428091486,275.928118571,275.837341428,nan,nan,nan,nan
1,55,1,1,1.0,1.0,0.377114000265,0,nan,nan,nan,nan,nan,nan,nan,nan,nan,10,0.926811495151,0.168400576072,-1.0,nan,nan,nan,nan,0.0,0.0,0.0,nan,209.966475347,276.428208947,276.928220636,276.805322947,nan,nan,nan,nan
1,56,1,1,1.0,1.0,0.352983606048,0,nan,nan,nan,nan,nan,nan,nan,nan,nan,174,1.0,-0.160790688716,0.281981279739,nan,nan,nan,nan,0.0,0.0,0.0,nan,209.966475347,277.428318139,277.928365466,277.781301745,nan,nan,nan,nan
1,57,0,0,0.0,1.0,0.448732284363,0,nan,nan,nan,nan,nan,nan,nan,nan,nan,265,0.384259149088,0.291568309415,0.649478858709,nan,nan,nan,nan,0.0,0.0,0.0,nan,209.966475347,278.428547073,278.928496325,278.877279357,nan,nan,nan,nan
1,58,1,1,1.0,1.0,0.3447189047,0,nan,nan,nan,nan,nan,nan,nan,nan,nan,427,0.163265173604,0.444863218481,-0.840208708629,nan,nan,nan,nan,0.0,0.0,0.0,nan,209.966475347,279.428561328,279.928619488,279.773280233,nan,nan,nan,nan
1,59,1,1,1.0,1.0,0.360531285405,0,nan,nan,nan,nan,nan,nan,nan,nan,nan,151,1.0,-0.262720288689,0.0734626651272,nan,nan,nan,nan,0.0,0.0,0.0,nan,209.966475347,280.428716421,280.928768309,280.789247707,nan,nan,nan,nan
1,60,1,1,1.0,1.0,0.368391432334,0,nan,nan,nan,nan,nan,nan,nan,nan,nan,443,0.281558783006,0.419268214519,-1.0,nan,nan,nan,nan,0.0,0.0,0.0,nan,209.966475347,281.42884329,281.928852983,281.797234722,nan,nan,nan,nan
1,61,1,1,1.0,1.0,0.344273867086,0,nan,nan,nan,nan,nan,nan,nan,nan,nan,25,1.0,0.0970682892709,-1.0,nan,nan,nan,nan,0.0,0.0,0.0,nan,209.966475347,282.428937372,282.928986409,282.773211239,nan,nan,nan,nan
1,62,1,1,1.0,1.0,0.384121989831,0,nan,nan,nan,nan,nan,nan,nan,nan,nan,152,1.0,-0.259184487343,0.0830625546756,nan,nan,nan,nan,0.0,0.0,0.0,nan,209.966475347,283.4290631,283.929109286,283.81318509,nan,nan,nan,nan
1,63,1,1,1.0,1.0,0.375940537546,0,nan,nan,nan,nan,nan,nan,nan,nan,nan,105,1.0,-0.285049837405,-0.401580786678,nan,nan,nan,nan,0.0,0.0,0.0,nan,209.966475347,284.429228457,284.929233874,284.805168994,nan,nan,nan,nan
1,64,1,1,1.0,1.0,0.295824913308,1,nan,nan,nan,nan,nan,nan,nan,nan,nan,436,0.228681708805,0.431413732101,-1.0,162.7075506,287.2924494,-19.2700506001,409.0,0.0429436170054,0.464793150178,-0.529461854507,1.90044925688,209.966475347,285.429328526,285.929389822,285.725153439,289.179769002,290.18167089,287.262867035,289.171435593
1,65,0,0,0.0,1.0,0.449077252764,0,nan,nan,nan,nan,nan,nan,nan,nan,nan,115,1.0,-0.305166285737,-0.293172749504,nan,nan,nan,nan,0.0,0.0,0.0,nan,209.966475347,290.379984365,290.880016296,290.829061618,nan,nan,nan,nan
1,66,1,1,1.0,1.0,0.360962068196,0,nan,nan,nan,nan,nan,nan,nan,nan,nan,498,0.731507943485,0.267561876527,-1.0,nan,nan,nan,nan,0.0,0.0,0.0,nan,209.966475347,291.380075026,291.880122637,291.741037094,nan,nan,nan,nan
1,67,1,1,1.0,1.0,0.336817133706,1,nan,nan,nan,nan,nan,nan,nan,nan,nan,241,0.64365311028,0.192605941253,0.644254782112,-65.2604911303,155.26049113,-14.1926338697,221.0,0.851781464038,0.0945411604707,0.585422935822,1.90055417316,209.966475347,292.380208167,292.880241238,292.7170253,296.122342318,297.123535452,294.205438355,296.114020598
1,68,1,1,1.0,1.0,0.370438434649,0,nan,nan,nan,nan,nan,nan,nan,nan,nan,85,1.0,-0.212156452387,-0.638781227021,nan,nan,nan,nan,0.0,0.0,0.0,nan,209.966475347,297.322504368,297.822561102,297.692942802,nan,nan,nan,nan
1,69,0,0,0.0,1.0,0.450257842429,0,nan,nan,nan,nan,nan,nan,nan,nan,nan,22,1.0,0.111842423158,-1.0,nan,nan,nan,nan,0.0,0.0,0.0,nan,209.966475347,298.322664592,298.822692817,298.772922435,nan,nan,nan,nan
1,70,1,1,1.0,1.0,0.330135296099,0,nan,nan,nan,nan,nan,nan,nan,nan,nan,392,-0.0541067903503,0.475522277549,-0.315549842675,nan,nan,nan,nan,0.0,0.0,0.0,nan,209.966475347,299.322791746,299.822835936,299.652927042,nan,nan,nan,nan
1,71,0,0,0.0,1.0,0.441966912709,0,nan,nan,nan,nan,nan,nan,nan,nan,nan,345,-0.173519535469,0.465595146217,0.186119282857,nan,nan,nan,nan,0.0,0.0,0.0,nan,209.966475347,300.32292004,300.822946269,300.764886953,nan,nan,nan,nan
1,72,1,1,1.0,1.0,0.313827700913,0,nan,nan,nan,nan,nan,nan,nan,nan,nan,95,1.0,-0.253175017597,-0.514975443931,nan,nan,nan,nan,0.0,0.0,0.0,nan,209.966475347,301.323048619,301.823070572,301.63687632,nan,nan,nan,nan
1,73,1,1,1.0,1.0,0.289671647362,0,nan,nan,nan,nan,nan,nan,nan,nan,nan,246,0.589768841079,0.215019897151,0.651339528662,nan,nan,nan,nan,0.0,0.0,0.0,nan,209.966475347,302.323177768,302.823184896,302.612849416,nan,nan,nan,nan
1,74,1,1,1.0,1.0,0.321558698546,0,nan,nan,nan,nan,nan,nan,nan,nan,nan,314,-0.0594438881467,0.42463230952,0.441925406839,nan,nan,nan,nan,0.0,0.0,0.0,nan,209.966475347,303.323277553,303.823308344,303.644836251,nan,nan,nan,nan
1,75,1,1,1.0,1.0,0.433394876309,0,nan,nan,nan,nan,nan,nan,nan,nan,nan,474,0.530901762182,0.346545376391,-1.0,nan,nan,nan,nan,0.0,0.0,0.0,nan,209.966475347,304.323428655,304.823450892,304.756823531,nan,nan,nan,nan
1,76,1,1,1.0,1.0,0.409274175297,0,nan,nan,nan,nan,nan,nan,nan,nan,nan,365,-0.157962026257,0.477016591838,-0.0139196855225,nan,nan,nan,nan,0.0,0.0,0.0,nan,209.966475347,305.323534426,305.82356151,305.732808601,nan,nan,nan,nan
1,77,1,1,1.0,1.0,0.30510855373,0,nan,nan,nan,nan,nan,nan,nan,nan,nan,28,1.0,0.082066132397,-1.0,nan,nan,nan,nan,0.0,0.0,0.0,nan,209.966475347,306.32366215,306.823696646,306.628770703,nan,nan,nan,nan
1,78,1,1,1.0,1.0,0.304975128267,0,nan,nan,nan,nan,nan,nan,nan,nan,nan,379,-0.113535935895,0.478614986251,-0.165970515924,nan,nan,nan,nan,0.0,0.0,0.0,nan,209.966475347,307.323790159,307.823811256,307.628765287,nan,nan,nan,nan
1,79,1,1,1.0,1.0,0.384836730082,0,nan,nan,nan,nan,nan,nan,nan,nan,nan,82,1.0,-0.198479155091,-0.679872484948,nan,nan,nan,nan,0.0,0.0,0.0,nan,209.966475347,308.323914746,308.823945822,308.708751476,nan,nan,nan,nan
1,80,1,1,1.0,1.0,0.296629174612,0,nan,nan,nan,nan,nan,nan,nan,nan,nan,474,0.530901762182,0.346545376391,-1.0,nan,nan,nan,nan,0.0,0.0,0.0,nan,209.966475347,309.324093217,309.824067559,309.620722392,nan,nan,nan,nan
1,81,1,1,1.0,1.0,0.328514799941,0,0.0,0.0,0.0,0.392184955481,0.0723904867173,0.319794468764,0.464575442199,0.0723904867173,0.336660234878,134,1.0,-0.304950998219,-0.095144111098,nan,nan,nan,nan,0.0,0.0,0.0,nan,209.966475347,310.324177606,310.824198704,310.652692406,nan,nan,nan,nan
1,82,0,0,0.0,1.0,0.448372490704,0,0.0,0.0,0.0,0.391398904178,0.0722849681342,0.319113936044,0.463683872312,0.0722849681342,0.357838821753,355,-0.173737462994,0.472683863687,0.0888799762457,nan,nan,nan,nan,0.0,0.0,0.0,nan,209.966475347,311.324324147,311.824351802,311.772696638,nan,nan,nan,nan
1,83,1,1,1.0,1.0,0.336272311397,0,0.0,0.0,0.0,0.392093704014,0.0721144796525,0.319979224361,0.464208183666,0.0721144796525,0.371053200681,476,0.547545041103,0.340739382997,-1.0,nan,nan,nan,nan,0.0,0.0,0.0,nan,209.966475347,312.324409391,312.824446739,312.660681703,nan,nan,nan,nan
1,84,1,1,1.0,1.0,0.344128467143,0,0.0,0.0,0.0,0.391421157115,0.0719369985209,0.319484158594,0.463358155636,0.0719369985209,0.376257756415,68,1.0,-0.129018143495,-0.972903198114,nan,nan,nan,nan,0.0,0.0,0.0,nan,209.966475347,313.324547949,313.824587292,313.668676416,nan,nan,nan,nan
1,85,1,1,1.0,1.0,0.399983407464,0,0.0,0.0,0.0,0.390858148901,0.0716912450751,0.319166903826,0.462549393976,0.0716912450751,0.360128062001,237,0.686387300223,0.174031846447,0.636349816437,nan,nan,nan,nan,0.0,0.0,0.0,nan,209.966475347,314.324661417,314.824697055,314.724644825,nan,nan,nan,nan
1,86,1,1,1.0,1.0,0.479829044081,0,0.0,0.0,0.0,0.390965504884,0.0712750759843,0.3196904289,0.462240580868,0.0712750759843,0.407980306229,137,1.0,-0.300190217086,-0.0647316600203,nan,nan,nan,nan,0.0,0.0,0.0,nan,209.966475347,315.324790282,315.8248282,315.804619326,nan,nan,nan,nan
1,87,1,1,1.0,1.0,0.391668244265,0,0.0,0.0,0.0,0.391998801851,0.0714969917225,0.320501810129,0.463495793574,0.0714969917225,0.423826898603,24,1.0,0.102019060141,-1.0,nan,nan,nan,nan,0.0,0.0,0.0,nan,209.966475347,316.32493112,316.824961341,316.716599364,nan,nan,nan,nan
1,88,1,1,1.0,1.0,0.343541165814,0,0.0,0.0,0.0,0.391995002339,0.0710849106152,0.320910091724,0.463079912954,0.0710849106152,0.405012818053,368,-0.150457169737,0.477793263397,-0.0457341785459,nan,nan,nan,nan,0.0,0.0,0.0,nan,209.966475347,317.325062265,317.825095907,317.668603431,nan,nan,nan,nan
1,89,1,1,1.0,1.0,0.343402893282,0,0.0,0.0,0.0,0.39144439056,0.0708662078092,0.320578182751,0.46231059837,0.0708662078092,0.359537434454,40,1.0,0.0201165467467,-1.0,nan,nan,nan,nan,0.0,0.0,0.0,nan,209.966475347,318.325189134,318.825227052,318.668592027,nan,nan,nan,nan
1,90,0,0,0.0,1.0,0.447201879229,0,0.0,0.0,0.0,0.390904598456,0.0706486607819,0.320255937674,0.461553259238,0.0706486607819,0.378048646109,375,-0.128556699755,0.478682433309,-0.121605159467,nan,nan,nan,nan,0.0,0.0,0.0,nan,209.966475347,319.325346793,319.825439164,319.772548672,nan,nan,nan,nan
1,91,1,1,1.0,1.0,0.327092731837,0,0.0,0.0,0.0,0.391530123798,0.0705024766705,0.321027647127,0.462032600469,0.0705024766705,0.372565834783,273,0.299732959835,0.319577193062,0.635038033336,nan,nan,nan,nan,0.0,0.0,0.0,nan,209.966475347,320.325446862,320.825478508,320.652539594,nan,nan,nan,nan
1,92,1,1,1.0,1.0,0.326895729639,0,0.0,0.0,0.0,0.39082202059,0.0704351060275,0.320386914562,0.461257126617,0.0704351060275,0.367063446902,165,1.0,-0.205056383665,0.203745440608,nan,nan,nan,nan,0.0,0.0,0.0,nan,209.966475347,321.325609083,321.825617351,321.652504812,nan,nan,nan,nan
1,93,1,1,1.0,1.0,0.350707384758,0,0.0,0.0,0.0,0.390127169601,0.0703641637798,0.319763005821,0.460491333381,0.0703641637798,0.334898615411,349,-0.175656888649,0.468768509344,0.147945183432,nan,nan,nan,nan,0.0,0.0,0.0,nan,209.966475347,322.325800668,322.825742794,322.676508053,nan,nan,nan,nan
1,94,1,1,1.0,1.0,0.294647744857,0,0.0,0.0,0.0,0.389703300947,0.070102830823,0.319600470124,0.45980613177,0.070102830823,0.324083619751,185,1.0,-0.102214474652,0.370299946716,nan,nan,nan,nan,0.0,0.0,0.0,nan,209.966475347,323.325836021,323.825892185,323.620483765,nan,nan,nan,nan
1,95,0,0,0.0,1.0,0.414497166872,0,0.0,0.0,0.0,0.388692071627,0.0704075730704,0.318284498556,0.459099644697,0.0704075730704,0.353284098829,33,1.0,0.0565990290419,-1.0,nan,nan,nan,nan,0.0,0.0,0.0,nan,209.966475347,324.325974863,324.826007935,324.74047203,nan,nan,nan,nan
1,96,1,1,1.0,1.0,0.34237910714,0,0.0,0.0,0.0,0.388963704208,0.0700855244404,0.318878179768,0.459049228649,0.0700855244404,0.35050800629,463,0.440238315199,0.376011795327,-1.0,nan,nan,nan,nan,0.0,0.0,0.0,nan,209.966475347,325.326089473,325.826130812,325.66846858,nan,nan,nan,nan
1,97,1,1,1.0,1.0,0.334200791083,0,0.0,0.0,0.0,0.388478447989,0.0698797843582,0.318598663631,0.458358232347,0.0698797843582,0.363692355032,220,0.861731547614,0.0893272636146,0.581247684387,nan,nan,nan,nan,0.0,0.0,0.0,nan,209.966475347,326.326215771,326.826256825,326.660416562,nan,nan,nan,nan
1,98,1,1,1.0,1.0,0.318067105487,0,0.0,0.0,0.0,0.387918884515,0.0697345025012,0.318184382014,0.457653387017,0.0697345025012,0.331549001237,10,0.926811495151,0.168400576072,-1.0,nan,nan,nan,nan,0.0,0.0,0.0,nan,209.966475347,327.32634549,327.826385119,327.644412596,nan,nan,nan,nan
1,99,1,1,1.0,1.0,0.309919864405,0,0.0,0.0,0.0,0.38720611126,0.0697320574498,0.31747405381,0.45693816871,0.0697320574498,0.320729253658,338,-0.162891363375,0.458928707883,0.250399161362,nan,nan,nan,nan,0.0,0.0,0.0,nan,209.966475347,328.326472644,328.826510562,328.636392509,nan,nan,nan,nan
1,100,1,1,1.0,1.0,0.285773219541,0,1.0,0.0,0.0,0.3864254421,0.0698080841682,0.316617357932,0.456233526268,0.0698080841682,0.304586729811,425,0.149162615564,0.447529597292,-0.791715667876,nan,nan,nan,nan,0.0,0.0,0.0,nan,209.966475347,329.326604359,329.826630303,329.612377579,nan,nan,nan,nan
1,101,1,1,1.0,1.0,0.333632021211,1,0.0,0.0,1.0,0.385418919874,0.0701764386469,0.315242481227,0.455595358521,0.0701764386469,0.309775035052,469,0.489482198204,0.360453357602,-1.0,127.986237452,322.013762548,-7.75186245208,458.0,0.399688045963,0.388050214986,-1.0,2.47562641697,209.966475347,330.326731798,330.826743202,330.660363819,334.652221995,335.654879392,332.160246644,334.643889156
1,102,1,1,1.0,1.0,0.36784575507,0,0.0,0.0,0.0,0.384906178303,0.070016163883,0.31489001442,0.454922342186,0.070016163883,0.329083665274,353,-0.175041255135,0.471490071959,0.108799216003,nan,nan,nan,nan,0.0,0.0,0.0,nan,209.966475347,335.852440494,336.352463587,336.220286249,nan,nan,nan,nan
1,103,1,1,1.0,1.0,0.303646857385,0,0.0,0.0,0.0,0.384738919252,0.069692376452,0.3150465428,0.454431295704,0.069692376452,0.335041544555,268,0.35230222188,0.302367520405,0.645005310408,nan,nan,nan,nan,0.0,0.0,0.0,nan,209.966475347,336.852564797,337.352587034,337.156211654,nan,nan,nan,nan
1,104,1,1,1.0,1.0,0.28720412543,0,0.0,0.0,0.0,0.383951617681,0.0698075625868,0.314144055094,0.453759180267,0.0698075625868,0.319565579295,315,-0.0657111424032,0.426434809442,0.434956515233,nan,nan,nan,nan,0.0,0.0,0.0,nan,209.966475347,337.861018518,338.361035623,338.148222643,nan,nan,nan,nan
1,105,1,1,1.0,1.0,0.359066167846,0,0.0,0.0,0.0,0.383021353332,0.0701097315291,0.312911621803,0.453131084861,0.0701097315291,0.31663905022,40,1.0,0.0201165467467,-1.0,nan,nan,nan,nan,0.0,0.0,0.0,nan,209.966475347,338.861147952,339.361168479,339.22021412,nan,nan,nan,nan
1,106,1,1,1.0,1.0,0.34292136319,0,0.0,0.0,0.0,0.382793208708,0.0698138565174,0.312979352191,0.452607065226,0.0698138565174,0.329730552156,150,1.0,-0.266152531622,0.0638227105866,nan,nan,nan,nan,0.0,0.0,0.0,nan,209.966475347,339.861268548,340.361328134,340.204189911,nan,nan,nan,nan
1,107,1,1,1.0,1.0,0.334787807427,0,0.0,0.0,0.0,0.382417059222,0.0695905881245,0.312826471098,0.452007647347,0.0695905881245,0.345591779488,400,-0.0107874812989,0.471427301814,-0.412692688905,nan,nan,nan,nan,0.0,0.0,0.0,nan,209.966475347,340.861382872,341.36143362,341.19617068,nan,nan,nan,nan
1,108,0,0,0.0,1.0,0.398612942081,0,0.0,0.0,0.0,0.381971926028,0.0694160852612,0.312555840767,0.451388011289,0.0694160852612,0.358774037566,271,0.320642857732,0.312811632898,0.639400143054,nan,nan,nan,nan,0.0,0.0,0.0,nan,209.966475347,341.861535115,342.361575028,342.260148057,nan,nan,nan,nan
1,109,1,1,1.0,1.0,0.318494751584,0,0.0,0.0,0.0,0.38212600951,0.0691123480725,0.313013661437,0.451238357583,0.0691123480725,0.350631833697,504,0.78128615449,0.244628286196,-1.0,nan,nan,nan,nan,0.0,0.0,0.0,nan,209.966475347,342.861641456,343.361684506,343.180136208,nan,nan,nan,nan
1,110,1,1,1.0,1.0,0.366361536086,0,0.0,0.0,0.0,0.381542236501,0.0690615726893,0.312480663812,0.450603809191,0.0690615726893,0.361156409917,35,1.0,0.0462653595507,-1.0,nan,nan,nan,nan,0.0,0.0,0.0,nan,209.966475347,343.861761767,344.361807098,344.228123304,nan,nan,nan,nan
1,111,0,0,0.0,1.0,0.446177237667,0,0.0,0.0,0.0,0.381404230134,0.0687620368481,0.312642193286,0.450166266982,0.0687620368481,0.377011175112,327,-0.128086156831,0.445480682368,0.344176439252,nan,nan,nan,nan,0.0,0.0,0.0,nan,209.966475347,344.861928835,345.361955349,345.308106072,nan,nan,nan,nan
1,112,1,1,1.0,1.0,0.382055315655,0,0.0,0.0,0.0,0.381987770742,0.0687246558094,0.313263114933,0.450712426552,0.0687246558094,0.398198029802,97,1.0,-0.260369742894,-0.491718830742,nan,nan,nan,nan,0.0,0.0,0.0,nan,209.966475347,345.862036032,346.362062261,346.244091347,nan,nan,nan,nan
1,113,1,1,1.0,1.0,0.29388168687,0,0.0,0.0,0.0,0.381988373822,0.0684171616949,0.313571212127,0.450405535517,0.0684171616949,0.374038080064,276,0.268710435127,0.329430325417,0.627563005949,nan,nan,nan,nan,0.0,0.0,0.0,nan,209.966475347,346.862162045,347.362216499,347.156043732,nan,nan,nan,nan
1,114,1,1,1.0,1.0,0.397764205933,0,0.0,0.0,0.0,0.381208668628,0.0686117581099,0.312596910518,0.449820426738,0.0686117581099,0.357900402819,23,1.0,0.106943944166,-1.0,nan,nan,nan,nan,0.0,0.0,0.0,nan,209.966475347,347.862287773,348.362304879,348.260051979,nan,nan,nan,nan
1,115,1,1,1.0,1.0,0.348206506576,0,0.0,0.0,0.0,0.381353892639,0.068327608032,0.313026284607,0.449681500671,0.068327608032,0.34661746646,275,0.279002393219,0.326185254474,0.630178474337,nan,nan,nan,nan,0.0,0.0,0.0,nan,209.966475347,348.895813566,349.39577907,349.244020073,nan,nan,nan,nan
1,116,1,1,1.0,1.0,0.340060406365,0,0.0,0.0,0.0,0.3810656545,0.0680994582799,0.31296619622,0.449165112779,0.0680994582799,0.362010372958,430,0.184725017221,0.440645728776,-0.941904167281,nan,nan,nan,nan,0.0,0.0,0.0,nan,209.966475347,349.895907934,350.395928461,350.23596834,nan,nan,nan,nan
1,117,1,1,1.0,1.0,0.363970135339,0,0.0,0.0,0.0,0.380712160981,0.0679111742593,0.312800986722,0.44862333524,0.0679111742593,0.35074568276,182,1.0,-0.118523835432,0.347089474713,nan,nan,nan,nan,0.0,0.0,0.0,nan,209.966475347,350.896035087,351.396052763,351.260005223,nan,nan,nan,nan
1,118,1,1,1.0,1.0,0.371830852702,0,0.0,0.0,0.0,0.380569066745,0.0676378933451,0.3129311734,0.44820696009,0.0676378933451,0.358620464802,69,1.0,-0.134207199312,-0.939648005704,nan,nan,nan,nan,0.0,0.0,0.0,nan,209.966475347,351.896150267,352.396197308,352.267981119,nan,nan,nan,nan
1,119,1,1,1.0,1.0,0.39738017926,0,0.0,0.0,0.0,0.380495014083,0.0673554453015,0.313139568782,0.447850459385,0.0673554453015,0.377727055767,350,-0.175756816429,0.469490941964,0.138247479403,nan,nan,nan,nan,0.0,0.0,0.0,nan,209.966475347,352.926561937,353.429620181,353.323942116,nan,nan,nan,nan
1,120,1,1,1.0,1.0,0.378184257541,0,0.0,0.0,0.0,0.380636906228,0.0670895502339,0.313547355994,0.447726456462,0.0670895502339,0.382465096501,256,0.481312611765,0.257047908656,0.656065722404,nan,nan,nan,nan,0.0,0.0,0.0,nan,209.966475347,353.929742773,354.429751326,354.307927031,nan,nan,nan,nan
1,121,1,1,1.0,1.0,0.402037822176,0,0.0,0.0,0.0,0.380616467489,0.0668097976644,0.313806669824,0.447426265153,0.0668097976644,0.392534086326,338,-0.162891363375,0.458928707883,0.250399161362,nan,nan,nan,nan,0.0,0.0,0.0,nan,209.966475347,354.929883611,355.429902143,355.331921434,nan,nan,nan,nan
1,122,1,1,1.0,1.0,0.3939008452,0,0.0,0.0,0.0,0.380793503478,0.0665614095231,0.314232093955,0.447354913001,0.0665614095231,0.391374308305,31,1.0,0.0668515730764,-1.0,nan,nan,nan,nan,0.0,0.0,0.0,nan,209.966475347,355.929983396,356.430039275,356.323884241,nan,nan,nan,nan
1,123,1,1,1.0,1.0,0.36176775489,0,0.0,0.0,0.0,0.380900940705,0.066298589602,0.314602351103,0.447199530307,0.066298589602,0.385902140755,335,-0.155595990888,0.455627721073,0.276893227044,nan,nan,nan,nan,0.0,0.0,0.0,nan,209.966475347,356.930107698,357.430129936,357.291875453,nan,nan,nan,nan
1,124,1,1,1.0,1.0,0.369617353193,0,0.0,0.0,0.0,0.380745386349,0.0660508837174,0.314694502632,0.446796270066,0.0660508837174,0.375095317761,201,1.0,-0.0135712615467,0.48142235136,nan,nan,nan,nan,0.0,0.0,0.0,nan,209.966475347,357.930253098,358.430267638,358.299870451,nan,nan,nan,nan
1,125,1,1,1.0,1.0,0.385457958095,0,0.0,0.0,0.0,0.380655644146,0.0657915391271,0.314864105019,0.446447183273,0.0657915391271,0.372281022059,435,0.221263830514,0.433027056876,-1.0,nan,nan,nan,nan,0.0,0.0,0.0,nan,209.966475347,358.930380822,359.430407906,359.31583878,nan,nan,nan,nan
1,126,1,1,1.0,1.0,0.345311053097,0,0.0,0.0,0.0,0.380694062658,0.0655292410266,0.315164821631,0.446223303684,0.0655292410266,0.366795454795,42,1.0,0.00954878589686,-1.0,nan,nan,nan,nan,0.0,0.0,0.0,nan,209.966475347,359.930507976,360.430541047,360.275819029,nan,nan,nan,nan
1,127,1,1,1.0,1.0,0.385162597056,0,0.0,0.0,0.0,0.380413245121,0.0653441560452,0.315069089076,0.445757401167,0.0653441560452,0.37197720275,251,0.535576518695,0.236509187076,0.655284151108,nan,nan,nan,nan,0.0,0.0,0.0,nan,209.966475347,360.93063741,361.43065081,361.315800007,nan,nan,nan,nan
1,128,1,1,1.0,1.0,0.353052599356,0,0.0,0.0,0.0,0.380450641593,0.0650877408188,0.315362900775,0.445538382412,0.0650877408188,0.361175416503,363,-0.162287729338,0.476365729747,0.00704812682028,nan,nan,nan,nan,0.0,0.0,0.0,nan,209.966475347,361.930732633,362.430772261,362.283785232,nan,nan,nan,nan
1,129,1,1,1.0,1.0,0.448878254276,0,0.0,0.0,0.0,0.380236594388,0.0648778519884,0.3153587424,0.445114446377,0.0648778519884,0.395697816896,141,1.0,-0.291952736687,-0.024586852943,nan,nan,nan,nan,0.0,0.0,0.0,nan,209.966475347,362.930890577,363.430905402,363.379768831,nan,nan,nan,nan
1,130,1,1,1.0,1.0,0.30267125275,0,0.0,0.0,0.0,0.380768700279,0.0649056870757,0.315863013203,0.445674387355,0.0649056870757,0.368200702127,283,0.19826868328,0.351050922538,0.605825948857,nan,nan,nan,nan,0.0,0.0,0.0,nan,209.966475347,363.981077487,364.48102788,364.28374874,nan,nan,nan,nan
1,131,0,0,0.0,1.0,0.438577099703,0,0.0,0.0,0.0,0.380167950683,0.0650146027388,0.315153347944,0.445182553421,0.0650146027388,0.39670886891,406,0.0244967455079,0.467245700284,-0.489366101921,nan,nan,nan,nan,0.0,0.0,0.0,nan,209.966475347,364.981153038,365.481183829,365.419730138,nan,nan,nan,nan
1,132,1,1,1.0,1.0,0.302466267254,0,0.0,0.0,0.0,0.380613822049,0.0649651932484,0.315648628801,0.445579015298,0.0649651932484,0.347904873236,30,1.0,0.071945658744,-1.0,nan,nan,nan,nan,0.0,0.0,0.0,nan,209.966475347,365.981279336,366.481315829,366.283745604,nan,nan,nan,nan
1,133,1,1,1.0,1.0,0.350325068459,0,0.0,0.0,0.0,0.380021795119,0.0650724057442,0.314949389375,0.445094200863,0.0650724057442,0.363789478472,128,1.0,-0.310663006781,-0.156689791083,nan,nan,nan,nan,0.0,0.0,0.0,nan,209.966475347,366.981369997,367.481413047,367.331695066,nan,nan,nan,nan
1,134,1,1,1.0,1.0,0.39813739853,0,0.0,0.0,0.0,0.37979851146,0.0648780486628,0.314920462797,0.444676560123,0.0648780486628,0.350309578081,441,0.266287261384,0.422891888867,-1.0,nan,nan,nan,nan,0.0,0.0,0.0,nan,209.966475347,367.981545333,368.481547614,368.379682731,nan,nan,nan,nan
1,135,1,1,1.0,1.0,0.366006304044,0,0.0,0.0,0.0,0.379935368826,0.0646547804064,0.31528058842,0.444590149232,0.0646547804064,0.371489590344,488,0.647907709101,0.302951493728,-1.0,nan,nan,nan,nan,0.0,0.0,0.0,nan,209.966475347,368.981663933,369.481665644,369.347670238,nan,nan,nan,nan
1,136,1,1,1.0,1.0,0.381856887601,0,0.0,0.0,0.0,0.379832190568,0.0644259451997,0.315406245369,0.444258135768,0.0644259451997,0.382000196725,264,0.394966959701,0.287889713878,0.650717615019,nan,nan,nan,nan,0.0,0.0,0.0,nan,209.966475347,369.981791372,370.481801065,370.36364826,nan,nan,nan,nan
1,137,0,0,0.0,1.0,0.437705555465,0,0.0,0.0,0.0,0.379847078047,0.0641888811647,0.315658196882,0.444035959211,0.0641888811647,0.39518958237,40,1.0,0.0201165467467,-1.0,nan,nan,nan,nan,0.0,0.0,0.0,nan,209.966475347,370.981920236,371.481945325,371.419625792,nan,nan,nan,nan
1,138,1,1,1.0,1.0,0.309609963093,0,0.0,0.0,0.0,0.380269402699,0.0641435470247,0.316125855675,0.444412949724,0.0641435470247,0.376390802053,394,-0.0437090198531,0.474655926729,-0.339401417396,nan,nan,nan,nan,0.0,0.0,0.0,nan,209.966475347,371.982007761,372.482050811,372.291617725,nan,nan,nan,nan
1,139,1,1,1.0,1.0,0.301510619465,0,0.0,0.0,0.0,0.379757377775,0.0641911005967,0.315566277178,0.443948478371,0.0641911005967,0.349608712674,155,1.0,-0.2479831371,0.111611878621,nan,nan,nan,nan,0.0,0.0,0.0,nan,209.966475347,372.982135485,373.482175684,373.283646104,nan,nan,nan,nan
1,140,1,1,1.0,1.0,0.341311986092,0,0.0,0.0,0.0,0.379194451456,0.0643007294145,0.314893722041,0.44349518087,0.0643007294145,0.317477522884,6,0.895129075663,0.186272780825,-1.0,nan,nan,nan,nan,0.0,0.0,0.0,nan,209.966475347,373.982278604,374.482310535,374.32359059,nan,nan,nan,nan
1,141,1,1,1.0,1.0,0.341154326685,0,0.0,0.0,0.0,0.378923862417,0.064150046167,0.314773816251,0.443073908584,0.064150046167,0.327992310748,377,-0.121259861678,0.478700828387,-0.143695900877,nan,nan,nan,nan,0.0,0.0,0.0,nan,209.966475347,374.982406898,375.482424289,375.323561225,nan,nan,nan,nan
1,142,1,1,1.0,1.0,0.325024917722,0,0.0,0.0,0.0,0.37865599337,0.0640006870415,0.314655306328,0.442656680411,0.0640006870415,0.335830410166,317,-0.077772836126,0.429938605076,0.420733606481,nan,nan,nan,nan,0.0,0.0,0.0,nan,209.966475347,375.982534052,376.482565983,376.30755897,nan,nan,nan,nan
1,143,1,1,1.0,1.0,0.340861246455,0,0.0,0.0,0.0,0.378278309738,0.0639324267217,0.314345883017,0.44221073646,0.0639324267217,0.335680163621,234,0.71814774995,0.15974031316,0.62913160129,nan,nan,nan,nan,0.0,0.0,0.0,nan,209.966475347,376.982665482,377.482683158,377.323526728,nan,nan,nan,nan
1,144,1,1,1.0,1.0,0.484697089065,0,0.0,0.0,0.0,0.378016651953,0.0637847496212,0.314231902332,0.441801401574,0.0637847496212,0.383527751081,140,1.0,-0.294209249228,-0.0345777392028,nan,nan,nan,nan,0.0,0.0,0.0,nan,209.966475347,377.982809457,378.482814303,378.467506546,nan,nan,nan,nan
1,145,1,1,1.0,1.0,0.372242248617,0,0.0,0.0,0.0,0.378757488322,0.064177291629,0.314580196693,0.442934779951,0.064177291629,0.399266861379,232,0.739158239773,0.150046616059,0.623712016981,nan,nan,nan,nan,0.0,0.0,0.0,nan,209.966475347,378.991249492,379.491277717,379.363491741,nan,nan,nan,nan
1,146,1,1,1.0,1.0,0.372111388948,0,0.0,0.0,0.0,0.378712555634,0.0639578805994,0.314754675035,0.442670436234,0.0639578805994,0.409683575543,457,0.391639248186,0.390358177281,-1.0,nan,nan,nan,nan,0.0,0.0,0.0,nan,209.966475347,379.991363246,380.491411428,380.363474635,nan,nan,nan,nan
1,147,1,1,1.0,1.0,0.339955205563,0,0.0,0.0,0.0,0.378667342164,0.0637407956343,0.31492654653,0.442408137798,0.0637407956343,0.361436281043,331,-0.143297839787,0.450801753776,0.311166711333,nan,nan,nan,nan,0.0,0.0,0.0,nan,209.966475347,380.991499808,381.491533735,381.331455014,nan,nan,nan,nan
1,148,1,1,0.0,0.0,0.411795009859,0,0.0,0.0,0.0,0.378403994296,0.0636032682632,0.314800726033,0.442007262559,0.0636032682632,0.37462053479,157,1.0,-0.240048375319,0.130425901556,nan,nan,nan,nan,0.0,0.0,0.0,nan,209.966475347,381.991648629,382.49165262,382.403443639,nan,nan,nan,nan
1,149,1,1,1.0,1.0,0.443635875359,0,0.0,0.0,0.0,0.378629609266,0.0634470229783,0.315182586288,0.442076632244,0.0634470229783,0.398462030261,52,1.0,-0.0438860552364,-1.0,nan,nan,nan,nan,0.0,0.0,0.0,nan,209.966475347,382.991775498,383.4917812,383.435411373,nan,nan,nan,nan
1,150,0,0,0.0,1.0,0.46745579876,0,0.0,0.0,0.0,0.379065892931,0.0634561156149,0.315609777316,0.442522008546,0.0634561156149,0.440962227993,320,-0.0946500390753,0.43494401576,0.398701238857,nan,nan,nan,nan,0.0,0.0,0.0,nan,209.966475347,383.991907213,384.491934868,384.459363012,nan,nan,nan,nan
1,151,1,1,1.0,1.0,0.395321487449,0,0.0,0.0,0.0,0.37965515897,0.0636519600648,0.316003198905,0.443307119035,0.0636519600648,0.435471053856,221,0.851781464038,0.0945411604707,0.585422935822,nan,nan,nan,nan,0.0,0.0,0.0,nan,209.966475347,384.992038073,385.492060596,385.38735956,nan,nan,nan,nan
1,152,1,1,1.0,1.0,0.379219447728,0,0.0,0.0,0.0,0.37975890949,0.0634535660373,0.316305343452,0.443212475527,0.0634535660373,0.413998911312,357,-0.1717918326,0.473767524415,0.068739031695,nan,nan,nan,nan,0.0,0.0,0.0,nan,209.966475347,385.99216209,386.492167222,386.371381538,nan,nan,nan,nan
1,153,1,1,1.0,1.0,0.339051160496,0,0.0,0.0,0.0,0.379755360399,0.0632445078006,0.316510852598,0.4429998682,0.0632445078006,0.371197365224,280,0.228089347314,0.342018854333,0.61587222022,nan,nan,nan,nan,0.0,0.0,0.0,nan,209.966475347,386.992292095,387.492296657,387.331343255,nan,nan,nan,nan
1,154,1,1,1.0,1.0,0.346934970468,0,0.0,0.0,0.0,0.379489319877,0.0631227615794,0.316366558297,0.442612081456,0.0631227615794,0.355068526231,449,0.328095008353,0.407646248688,-1.0,nan,nan,nan,nan,0.0,0.0,0.0,nan,209.966475347,387.992385607,388.492422385,388.339320578,nan,nan,nan,nan
1,155,1,1,1.0,1.0,0.338817094918,0,0.0,0.0,0.0,0.379277927998,0.0629717936981,0.316306134299,0.442249721696,0.0629717936981,0.341601075294,397,-0.0275613476434,0.473159987783,-0.37569455347,nan,nan,nan,nan,0.0,0.0,0.0,nan,209.966475347,388.992508199,389.492550964,389.331325294,nan,nan,nan,nan
1,156,1,1,1.0,1.0,0.378678332083,0,0.0,0.0,0.0,0.379016890365,0.0628518649941,0.316165025371,0.441868755359,0.0628518649941,0.35481013249,266,0.373577590308,0.295207490188,0.648113769863,nan,nan,nan,nan,0.0,0.0,0.0,nan,209.966475347,389.992651318,390.492695509,390.37132965,nan,nan,nan,nan
1,157,1,1,1.0,1.0,0.346485655755,0,0.0,0.0,0.0,0.379014720119,0.0626500986626,0.316364621457,0.441664818782,0.0626500986626,0.354660360919,510,0.830554458933,0.220436700166,-1.0,nan,nan,nan,nan,0.0,0.0,0.0,nan,209.966475347,390.992798429,391.492803276,391.339284085,nan,nan,nan,nan
1,158,1,1,1.0,1.0,0.730350487866,0,0.0,1.0,0.0,0.378807528627,0.0625038515411,0.316303677086,0.441311380168,0.0625038515411,0.485171491901,397,-0.0275613476434,0.473159987783,-0.37569455347,nan,nan,nan,nan,0.0,0.0,0.0,nan,209.966475347,391.992903345,392.492974334,392.723253833,nan,nan,nan,nan
1,159,0,0,0.0,1.0,0.570174833294,1,0.0,0.0,1.0,0.381032484065,0.0682584961835,0.312773987881,0.449290980248,0.0682584961835,0.549003658971,158,1.0,-0.235949227405,0.139764106,-24.1696124447,114.169612445,3.07586244473,162.0,1.0,-0.218739557155,0.176632971453,2.0588977891,209.966475347,392.993054447,393.493101203,393.56322928,396.901822003,397.897839186,394.826561594,396.893493725
1,160,1,1,1.0,1.0,0.43747833278,0,0.0,0.0,0.0,0.382222058588,0.0696670858348,0.312554972753,0.451889144423,0.0696670858348,0.579334551313,325,-0.119404900653,0.442631039184,0.360186421743,nan,nan,nan,nan,0.0,0.0,0.0,nan,209.966475347,398.093679153,398.593706237,398.531157486,nan,nan,nan,nan
1,161,0,0,0.0,1.0,0.493316452019,0,0.0,0.0,0.0,0.382567410302,0.0695854297759,0.312981980526,0.452152840078,0.0695854297759,0.500323206031,236,0.697004556276,0.169301754335,0.634065852989,nan,nan,nan,nan,0.0,0.0,0.0,nan,209.966475347,399.09383168,399.602195595,399.587148132,nan,nan,nan,nan
1,162,1,1,1.0,1.0,0.365193775389,0,0.0,0.0,0.0,0.383255292549,0.0699125582458,0.313342734303,0.453167850794,0.0699125582458,0.43199618673,291,0.122027637739,0.373441943191,0.573791926984,nan,nan,nan,nan,0.0,0.0,0.0,nan,209.966475347,400.093929184,400.593967387,400.459122959,nan,nan,nan,nan
1,163,1,1,1.0,1.0,0.373046794906,0,0.0,0.0,0.0,0.383143801702,0.0697108002412,0.313433001461,0.452854601943,0.0697108002412,0.410519007438,59,1.0,-0.0814409933332,-1.0,nan,nan,nan,nan,0.0,0.0,0.0,nan,209.966475347,401.094048355,401.594097392,401.46709515,nan,nan,nan,nan
1,164,0,0,0.0,1.0,0.500846170355,0,0.0,0.0,0.0,0.383081856875,0.0695011066105,0.313580750265,0.452582963486,0.0695011066105,0.41302891355,140,1.0,-0.294209249228,-0.0345777392028,nan,nan,nan,nan,0.0,0.0,0.0,nan,209.966475347,402.094218558,402.594259612,402.595064729,nan,nan,nan,nan
1,165,1,1,1.0,1.0,0.452764707617,0,0.0,0.0,0.0,0.383799931957,0.0698927616103,0.313907170347,0.453692693568,0.0698927616103,0.442219224293,376,-0.124962824795,0.478704673615,-0.132627625282,nan,nan,nan,nan,0.0,0.0,0.0,nan,209.966475347,403.094303802,403.594334593,403.54706851,nan,nan,nan,nan
1,166,1,1,1.0,1.0,0.46860417258,0,0.0,0.0,0.0,0.384217900295,0.0698859247013,0.314331975593,0.454103824996,0.0698859247013,0.474071683517,84,1.0,-0.20765784414,-0.652191087791,nan,nan,nan,nan,0.0,0.0,0.0,nan,209.966475347,404.094431241,404.594476572,404.563035414,nan,nan,nan,nan
1,167,1,1,1.0,1.0,0.484455041587,0,0.0,1.0,0.0,0.384726251332,0.0699804255279,0.314745825805,0.45470667686,0.0699804255279,0.468607973928,157,1.0,-0.240048375319,0.130425901556,nan,nan,nan,nan,0.0,0.0,0.0,nan,209.966475347,405.094568943,405.594592321,405.579023985,nan,nan,nan,nan
1,168,0,0,0.0,1.0,0.476285848301,1,0.0,0.0,1.0,0.385323429717,0.0701935488703,0.315129880847,0.455516978587,0.0701935488703,0.476448354156,450,0.335949728395,0.405598329481,-1.0,134.654848877,315.345151123,-1.06109887684,448.0,0.32026743599,0.409662251776,-1.0,1.65048147319,209.966475347,406.094726888,406.594755112,406.571012736,409.595108918,410.59605858,407.928253422,409.58677722
1,169,1,1,1.0,1.0,0.359644345939,0,0.0,0.0,0.0,0.385864872685,0.0703332348468,0.315531637838,0.456198107532,0.0703332348468,0.440128411942,178,1.0,-0.139919655122,0.315097826042,nan,nan,nan,nan,0.0,0.0,0.0,nan,209.966475347,410.795289785,411.295341102,411.154934131,nan,nan,nan,nan
1,170,1,1,1.0,1.0,0.407458387315,0,0.0,0.0,0.0,0.385709721639,0.0701536684847,0.315556053154,0.455863390124,0.0701536684847,0.414462860518,363,-0.162287729338,0.476365729747,0.00704812682028,nan,nan,nan,nan,0.0,0.0,0.0,nan,209.966475347,411.795448584,412.29545058,412.202906971,nan,nan,nan,nan
1,171,1,1,1.0,1.0,0.383321150206,0,0.0,0.0,0.0,0.385837654967,0.0699667992355,0.315870855731,0.455804454202,0.0699667992355,0.38347462782,112,1.0,-0.300501516081,-0.325324861792,nan,nan,nan,nan,0.0,0.0,0.0,nan,209.966475347,412.795579444,413.295581155,413.178900594,nan,nan,nan,nan
1,172,1,1,1.0,1.0,0.38320283452,0,0.0,0.0,0.0,0.385822938565,0.0697621818559,0.316060756709,0.45558512042,0.0697621818559,0.391327457347,70,1.0,-0.13936984996,-0.906436913284,nan,nan,nan,nan,0.0,0.0,0.0,nan,209.966475347,413.795672956,414.295712585,414.17887579,nan,nan,nan,nan
1,173,1,1,1.0,1.0,0.343026563991,0,0.0,0.0,0.0,0.385807705401,0.06955937442,0.316248330981,0.455367079822,0.06955937442,0.369850182906,490,0.664660387652,0.296157848571,-1.0,nan,nan,nan,nan,0.0,0.0,0.0,nan,209.966475347,414.795835462,415.29585827,415.138862026,nan,nan,nan,nan
1,174,0,0,0.0,1.0,0.398805953097,0,0.0,0.0,0.0,0.385560415567,0.0694338283027,0.316126587264,0.454994243869,0.0694338283027,0.375011783869,326,-0.12383419111,0.444071765824,0.352223541474,nan,nan,nan,nan,0.0,0.0,0.0,nan,209.966475347,415.796027903,416.295991411,416.194833856,nan,nan,nan,nan
1,175,1,1,1.0,1.0,0.374740561005,0,0.0,0.0,0.0,0.385636539346,0.0692412579101,0.316395281436,0.454877797256,0.0692412579101,0.372191026031,381,-0.105403061426,0.478425078289,-0.188431136224,nan,nan,nan,nan,0.0,0.0,0.0,nan,209.966475347,416.796085778,417.296119419,417.170826339,nan,nan,nan,nan
1,176,1,1,1.0,1.0,0.398588708602,0,0.0,0.0,0.0,0.385574276612,0.0690480270372,0.316526249575,0.45462230365,0.0690480270372,0.390711740901,127,1.0,-0.31111021432,-0.167036648065,nan,nan,nan,nan,0.0,0.0,0.0,nan,209.966475347,417.796214642,418.296221199,418.194803351,nan,nan,nan,nan
1,177,1,1,1.0,1.0,0.414457253646,0,0.0,0.0,0.0,0.385648222249,0.0688585370393,0.316789685209,0.454506759288,0.0688585370393,0.395928841084,447,0.312467642152,0.411646472288,-1.0,nan,nan,nan,nan,0.0,0.0,0.0,nan,209.966475347,418.796324119,419.296345787,419.210781373,nan,nan,nan,nan
1,178,1,1,1.0,1.0,0.414313564543,0,0.0,0.0,0.0,0.385810985138,0.0686976895364,0.317113295601,0.454508674674,0.0686976895364,0.409119842264,226,0.801265930663,0.120208988367,0.60458276857,nan,nan,nan,nan,0.0,0.0,0.0,nan,209.966475347,419.796437018,420.296484059,420.210750583,nan,nan,nan,nan
1,179,1,1,1.0,1.0,0.414159041364,0,0.0,0.0,0.0,0.385971111988,0.0685375634699,0.317433548519,0.454508675458,0.0685375634699,0.414309953184,143,1.0,-0.287057525782,-0.00469998909502,nan,nan,nan,nan,0.0,0.0,0.0,nan,209.966475347,420.796595532,421.296619196,421.210754574,nan,nan,nan,nan
1,180,1,1,1.0,1.0,0.3660162827,0,0.0,0.0,0.0,0.386128586454,0.0683781342431,0.317750452211,0.454506720697,0.0683781342431,0.398162962869,359,-0.169222339917,0.474741883077,0.0483828026834,nan,nan,nan,nan,0.0,0.0,0.0,nan,209.966475347,421.796726963,422.296746919,422.162743245,nan,nan,nan,nan
1,181,1,1,1.0,1.0,0.333874353673,0,0.0,0.0,0.0,0.386016851433,0.0682043152729,0.31781253616,0.454221166706,0.0682043152729,0.371349892579,26,1.0,0.0920921692153,-1.0,nan,nan,nan,nan,0.0,0.0,0.0,nan,209.966475347,422.796841002,423.296870937,423.130715356,nan,nan,nan,nan
1,182,1,1,1.0,1.0,0.429723956622,0,0.0,0.0,0.0,0.385728771335,0.068125370729,0.317603400606,0.453854142064,0.068125370729,0.376538197665,314,-0.0594438881467,0.42463230952,0.441925406839,nan,nan,nan,nan,0.0,0.0,0.0,nan,209.966475347,423.796982125,424.297003793,424.226706082,nan,nan,nan,nan
1,183,1,1,1.0,1.0,0.469612563495,0,0.0,0.0,0.0,0.385970503123,0.0680157509264,0.317954752196,0.453986254049,0.0680157509264,0.411070291263,249,0.557275547736,0.228026269286,0.654084877906,nan,nan,nan,nan,0.0,0.0,0.0,nan,209.966475347,424.797068225,425.297124104,425.266680788,nan,nan,nan,nan
1,184,1,1,1.0,1.0,0.437117398717,0,0.0,0.0,0.0,0.386427563562,0.0681093494328,0.318318214129,0.454536912995,0.0681093494328,0.445484639611,435,0.221263830514,0.433027056876,-1.0,nan,nan,nan,nan,0.0,0.0,0.0,nan,209.966475347,425.805555302,426.305588373,426.2426727,nan,nan,nan,nan
1,185,1,1,1.0,1.0,0.532951606438,0,0.0,1.0,0.0,0.386703051796,0.0680261766994,0.318676875097,0.454729228496,0.0680261766994,0.479893856216,105,1.0,-0.285049837405,-0.401580786678,nan,nan,nan,nan,0.0,0.0,0.0,nan,209.966475347,426.805693574,427.305748883,427.338645181,nan,nan,nan,nan
1,186,1,1,1.0,1.0,0.396839063615,1,0.0,0.0,1.0,0.387493584524,0.0686843228216,0.318809261702,0.456177907346,0.0686843228216,0.455636022923,42,1.0,0.00954878589686,-1.0,70.5885131413,19.4114868587,-10.1197631413,28.0,1.0,0.082066132397,-1.0,1.63375136256,209.966475347,427.805787086,428.305827285,428.20262615,431.281197684,432.279647322,429.630994467,431.272869122
1,187,1,1,1.0,1.0,0.433150262572,0,0.0,0.0,0.0,0.387543829035,0.0685028476643,0.319040981371,0.4560466767,0.0685028476643,0.454313644208,486,0.631151757674,0.309603058574,-1.0,nan,nan,nan,nan,0.0,0.0,0.0,nan,209.966475347,432.481395941,432.981425306,432.914546204,nan,nan,nan,nan
1,188,1,1,1.0,1.0,0.344983190764,0,0.0,0.0,0.0,0.387787713707,0.0684003584505,0.319387355256,0.456188072157,0.0684003584505,0.39165750565,28,1.0,0.082066132397,-1.0,nan,nan,nan,nan,0.0,0.0,0.0,nan,209.966475347,433.481547043,433.981588953,433.826530234,nan,nan,nan,nan
1,189,1,1,1.0,1.0,0.328809021041,0,0.0,0.0,0.0,0.387560030074,0.0682892148682,0.319270815206,0.455849244942,0.0682892148682,0.368980824792,200,1.0,-0.0191209939188,0.47515178387,nan,nan,nan,nan,0.0,0.0,0.0,nan,209.966475347,434.48168446,434.98168332,434.810493481,nan,nan,nan,nan
1,190,1,1,1.0,1.0,0.336694256868,0,0.0,0.0,0.0,0.387249178174,0.068241548472,0.319007629702,0.455490726646,0.068241548472,0.336828822891,508,0.814199817736,0.228638933499,-1.0,nan,nan,nan,nan,0.0,0.0,0.0,nan,209.966475347,435.481801065,435.981821877,435.818495322,nan,nan,nan,nan
1,191,1,1,1.0,1.0,0.336551992688,0,0.0,0.0,0.0,0.386983099641,0.0681599565166,0.318823143125,0.455143056158,0.0681599565166,0.334018423532,256,0.481312611765,0.257047908656,0.656065722404,nan,nan,nan,nan,0.0,0.0,0.0,nan,209.966475347,436.481908832,436.981930215,436.818460825,nan,nan,nan,nan
1,192,1,1,1.0,1.0,0.392406647559,0,0.0,0.0,0.0,0.386719062432,0.068078647105,0.318640415327,0.454797709537,0.068078647105,0.355217632372,125,1.0,-0.311567427947,-0.187805059354,nan,nan,nan,nan,0.0,0.0,0.0,nan,209.966475347,437.482055373,437.982078466,437.87446202,nan,nan,nan,nan
1,193,1,1,1.0,1.0,0.320262643509,0,0.0,0.0,0.0,0.386748685271,0.0679023616868,0.318846323584,0.454651046958,0.0679023616868,0.349740427919,69,1.0,-0.134207199312,-0.939648005704,nan,nan,nan,nan,0.0,0.0,0.0,nan,209.966475347,438.482168557,438.982210466,438.8024312,nan,nan,nan,nan
1,194,1,1,1.0,1.0,0.36810747534,0,0.0,0.0,0.0,0.386404198008,0.0678942254483,0.31850997256,0.454298423456,0.0678942254483,0.360258922136,274,0.289344050657,0.322900892411,0.632670269059,nan,nan,nan,nan,0.0,0.0,0.0,nan,209.966475347,439.482312816,439.982337049,439.850420291,nan,nan,nan,nan
1,195,1,1,1.0,1.0,0.366528888233,0,0.0,0.0,0.0,0.386309885005,0.0677316884122,0.318578196592,0.454041573417,0.0677316884122,0.351633002361,166,1.0,-0.20036215083,0.21267421211,nan,nan,nan,nan,0.0,0.0,0.0,nan,209.966475347,440.515851724,441.015803827,440.882380612,nan,nan,nan,nan
1,196,1,1,1.0,1.0,0.366508931853,0,0.0,0.0,0.0,0.386208443996,0.0675725674338,0.318635876562,0.453781011429,0.0675725674338,0.367048431809,318,-0.0835627602325,0.431640264478,0.413481556053,nan,nan,nan,nan,0.0,0.0,0.0,nan,209.966475347,441.515899335,442.015910169,441.882408267,nan,nan,nan,nan
1,197,1,1,1.0,1.0,0.36635098746,0,0.0,0.0,0.0,0.386107936281,0.0674145795636,0.318693356717,0.453522515844,0.0674145795636,0.366462935849,505,0.789537956352,0.240683140511,-1.0,nan,nan,nan,nan,0.0,0.0,0.0,nan,209.966475347,442.516031336,443.016056709,442.882382323,nan,nan,nan,nan
1,198,1,1,1.0,1.0,0.342181249522,0,0.0,0.0,0.0,0.3860076472,0.0672579156181,0.318749731582,0.453265562818,0.0672579156181,0.358347056278,458,0.399688045963,0.388050214986,-1.0,nan,nan,nan,nan,0.0,0.0,0.0,nan,209.966475347,443.516159914,444.016184433,443.858341164,nan,nan,nan,nan
1,199,1,1,1.0,1.0,0.310063268989,0,0.0,0.0,0.0,0.385786301757,0.0671597527601,0.318626548997,0.452946054518,0.0671597527601,0.339531835324,170,1.0,-0.180990482069,0.247815061387,nan,nan,nan,nan,0.0,0.0,0.0,nan,209.966475347,444.516290204,445.016311016,444.826353473,nan,nan,nan,nan
1,200,1,1,1.0,1.0,0.389913467225,0,0.0,0.0,0.0,0.385405784005,0.0672044348677,0.318201349137,0.452610218873,0.0672044348677,0.347385995245,332,-0.146647089803,0.45205423783,0.302714191958,nan,nan,nan,nan,0.0,0.0,0.0,nan,209.966475347,445.51639284,446.016411941,445.906306307,nan,nan,nan,nan
1,201,1,1,1.0,1.0,0.333770863712,0,0.0,0.0,0.0,0.385428322421,0.0670369672167,0.318391355204,0.452465289638,0.0670369672167,0.344582533309,36,1.0,0.0410699577143,-1.0,nan,nan,nan,nan,0.0,0.0,0.0,nan,209.966475347,446.516517712,447.016573021,446.850288576,nan,nan,nan,nan
1,202,1,1,1.0,1.0,0.293624813668,0,0.0,0.0,0.0,0.385171320139,0.0669687018187,0.31820261832,0.452140021957,0.0669687018187,0.339103048202,182,1.0,-0.118523835432,0.347089474713,nan,nan,nan,nan,0.0,0.0,0.0,nan,209.966475347,447.51664059,448.016684209,447.810265403,nan,nan,nan,nan
1,203,1,1,1.0,1.0,0.301512614824,0,1.0,0.0,0.0,0.384718119612,0.0671110165515,0.31760710306,0.451829136163,0.0671110165515,0.309636097401,425,0.149162615564,0.447529597292,-0.791715667876,nan,nan,nan,nan,0.0,0.0,0.0,nan,209.966475347,448.516774016,449.016806231,448.81828663,nan,nan,nan,nan
1,204,1,1,1.0,1.0,0.317351224832,1,0.0,0.0,1.0,0.384308240278,0.0671984978651,0.317109742413,0.451506738143,0.0671984978651,0.304162884442,361,-0.166047812515,0.475607712818,0.0278173107143,-162.436703945,252.436703945,-1.39142105452,359.0,-0.169222339917,0.474741883077,0.0483828026834,5.43432629108,209.966475347,449.516900314,450.016937091,449.834251538,456.792782634,457.800841494,451.342090303,456.78444951
1,205,1,1,1.0,1.0,0.42478720285,0,0.0,0.0,0.0,0.383980019614,0.0671965146539,0.31678350496,0.451176534268,0.0671965146539,0.347883680835,95,1.0,-0.253175017597,-0.514975443931,nan,nan,nan,nan,0.0,0.0,0.0,nan,209.966475347,458.001313446,458.501334543,458.426100648,nan,nan,nan,nan
1,206,1,1,1.0,1.0,0.336638947483,0,0.0,0.0,0.0,0.384179079044,0.0670926881917,0.317086390853,0.451271767236,0.0670926881917,0.359592458388,173,1.0,-0.165909522591,0.273535192888,nan,nan,nan,nan,0.0,0.0,0.0,nan,209.966475347,459.001439459,459.501475096,459.338078406,nan,nan,nan,nan
1,207,1,1,1.0,1.0,0.360440909397,0,0.0,0.0,0.0,0.383948301707,0.0670111568281,0.316937144878,0.450959458535,0.0670111568281,0.373955686577,424,0.142174562463,0.448819569244,-0.770229420881,nan,nan,nan,nan,0.0,0.0,0.0,nan,209.966475347,460.00160339,460.501610518,460.362044299,nan,nan,nan,nan
1,208,1,1,1.0,1.0,0.392342500854,0,0.0,0.0,0.0,0.383834739425,0.0668689657683,0.316965773657,0.450703705193,0.0668689657683,0.363140785911,86,1.0,-0.21659106269,-0.625617802914,nan,nan,nan,nan,0.0,0.0,0.0,nan,209.966475347,461.001693196,461.501736246,461.394035697,nan,nan,nan,nan
1,209,1,1,1.0,1.0,0.400193524547,0,0.0,0.0,0.0,0.383875642124,0.0667106251152,0.317165017009,0.450586267239,0.0667106251152,0.384325644933,307,-0.0113868739462,0.411053355611,0.487957006857,nan,nan,nan,nan,0.0,0.0,0.0,nan,209.966475347,462.001818639,462.501847434,462.402012163,nan,nan,nan,nan
1,210,1,1,1.0,1.0,0.368035345338,0,0.0,0.0,0.0,0.383953718117,0.066560364369,0.317393353748,0.450514082486,0.066560364369,0.38685712358,460,0.415848916989,0.383334931935,-1.0,nan,nan,nan,nan,0.0,0.0,0.0,nan,209.966475347,463.001962043,463.502017637,463.369997388,nan,nan,nan,nan
1,211,1,1,1.0,1.0,0.375902049709,0,0.0,0.0,0.0,0.383877916341,0.0664107402344,0.317467176107,0.450288656576,0.0664107402344,0.381376973198,509,0.822386376617,0.224555004187,-1.0,nan,nan,nan,nan,0.0,0.0,0.0,nan,209.966475347,464.00208492,464.502102026,464.37798697,nan,nan,nan,nan
1,212,0,0,0.0,1.0,0.415730785578,0,0.0,0.0,0.0,0.383840116026,0.0662554463769,0.317584669649,0.450095562402,0.0662554463769,0.386556060209,284,0.188465149253,0.353984098999,0.602236276499,nan,nan,nan,nan,0.0,0.0,0.0,nan,209.966475347,465.002231461,465.502261111,465.417962246,nan,nan,nan,nan
1,213,1,1,1.0,1.0,0.391610084102,0,0.0,0.0,0.0,0.383990543712,0.0661351060832,0.317855437629,0.450125649795,0.0661351060832,0.394414306463,487,0.639529740128,0.306295026098,-1.0,nan,nan,nan,nan,0.0,0.0,0.0,nan,209.966475347,466.002336947,466.502366882,466.393947031,nan,nan,nan,nan
1,214,1,1,1.0,1.0,0.319474347867,0,0.0,0.0,0.0,0.384026316202,0.0659817325421,0.31804458366,0.450008048744,0.0659817325421,0.375605072516,425,0.149162615564,0.447529597292,-0.791715667876,nan,nan,nan,nan,0.0,0.0,0.0,nan,209.966475347,467.002461534,467.502493465,467.321935882,nan,nan,nan,nan
1,215,0,0,0.0,1.0,0.487292619888,0,0.0,0.0,0.0,0.38372467149,0.0659744338789,0.317750237611,0.449699105369,0.0659744338789,0.399459017285,319,-0.0891891826932,0.433308674125,0.406137099325,nan,nan,nan,nan,0.0,0.0,0.0,nan,209.966475347,468.002613491,468.502642856,468.489906111,nan,nan,nan,nan
1,216,1,1,1.0,1.0,0.327171134297,0,0.0,0.0,0.0,0.384206382878,0.0661969709896,0.318009411889,0.450403353868,0.0661969709896,0.377979367351,200,1.0,-0.0191209939188,0.47515178387,nan,nan,nan,nan,0.0,0.0,0.0,nan,209.966475347,469.002737794,469.502756896,469.329908928,nan,nan,nan,nan
1,217,1,1,1.0,1.0,0.31101692142,0,0.0,0.0,0.0,0.383942330802,0.066156952039,0.317785378763,0.450099282841,0.066156952039,0.375160225201,245,0.600577697281,0.210610106048,0.650172825369,nan,nan,nan,nan,0.0,0.0,0.0,nan,209.966475347,470.002866943,470.502880058,470.313883865,nan,nan,nan,nan
1,218,1,1,1.0,1.0,0.310869525652,0,1.0,0.0,0.0,0.383606269007,0.0661888773898,0.317417391617,0.449795146397,0.0661888773898,0.316352527123,9,0.918933560847,0.172916688009,-1.0,nan,nan,nan,nan,0.0,0.0,0.0,nan,209.966475347,471.002983834,471.503027454,471.313853359,nan,nan,nan,nan
1,219,0,0,1.0,0.0,0.48671216052,0,0.0,0.0,0.0,0.383272614221,0.0662195510858,0.317053063135,0.449492165307,0.0662195510858,0.369532869197,122,1.0,-0.311159539646,-0.219144224573,nan,nan,nan,nan,0.0,0.0,0.0,nan,209.966475347,472.003128378,472.503152326,472.489840539,nan,nan,nan,nan
1,220,1,1,1.0,1.0,0.414603223559,0,0.0,0.0,0.0,0.383744940917,0.066435232741,0.317309708176,0.450180173658,0.066435232741,0.404061636577,424,0.142174562463,0.448819569244,-0.770229420881,nan,nan,nan,nan,0.0,0.0,0.0,nan,209.966475347,473.00321961,473.503249545,473.417822833,nan,nan,nan,nan
1,221,1,1,1.0,1.0,0.324365771376,0,0.0,0.0,0.0,0.383885205838,0.0663165651177,0.31756864072,0.450201770955,0.0663165651177,0.408560385151,67,1.0,-0.12380466598,-1.0,nan,nan,nan,nan,0.0,0.0,0.0,nan,209.966475347,474.053447003,474.553390554,474.377812775,nan,nan,nan,nan
1,222,1,1,1.0,1.0,0.308262020815,0,0.0,0.0,0.0,0.38361588713,0.0662868315227,0.317329055607,0.449902718652,0.0662868315227,0.34907700525,437,0.23613482661,0.429770237144,-1.0,nan,nan,nan,nan,0.0,0.0,0.0,nan,209.966475347,475.053518278,475.553518848,475.361780299,nan,nan,nan,nan
1,223,1,1,1.0,1.0,0.412119451445,0,0.0,0.0,0.0,0.383276455299,0.066329584496,0.316946870803,0.449606039795,0.066329584496,0.348249081212,225,0.81146624694,0.115131125244,0.600981946568,nan,nan,nan,nan,0.0,0.0,0.0,nan,209.966475347,476.053649993,476.553635738,476.465769445,nan,nan,nan,nan
1,224,1,1,1.0,1.0,0.372026714962,0,0.0,0.0,0.0,0.383405796089,0.0662087487913,0.317197047298,0.449614544881,0.0662087487913,0.364136062407,334,-0.152796554809,0.454467054946,0.285576400052,nan,nan,nan,nan,0.0,0.0,0.0,nan,209.966475347,477.053732101,477.553776577,477.425758816,nan,nan,nan,nan
1,225,1,1,1.0,1.0,0.387870741077,0,0.0,0.0,0.0,0.38335499662,0.0660651515658,0.317289845054,0.449420148186,0.0660651515658,0.390672302494,198,1.0,-0.0302354974571,0.462326941081,nan,nan,nan,nan,0.0,0.0,0.0,nan,209.966475347,478.053879497,478.553919125,478.441750238,nan,nan,nan,nan
1,226,1,1,1.0,1.0,0.395709506236,0,0.0,0.0,0.0,0.383375066595,0.0659188610215,0.317456205574,0.449293927617,0.0659188610215,0.385202320758,435,0.221263830514,0.433027056876,-1.0,nan,nan,nan,nan,0.0,0.0,0.0,nan,209.966475347,479.05402005,479.554028033,479.449729556,nan,nan,nan,nan
1,227,0,0,0.0,1.0,0.443541508168,0,0.0,0.0,0.0,0.383429643762,0.06577795576,0.317651688002,0.449207599522,0.06577795576,0.40904058516,492,0.681403316433,0.289222019555,-1.0,nan,nan,nan,nan,0.0,0.0,0.0,nan,209.966475347,480.054155757,480.554177139,480.497697265,nan,nan,nan,nan
1,228,1,1,1.0,1.0,0.331435056869,0,0.0,0.0,0.0,0.383694453737,0.0657535324884,0.317940921249,0.449447986226,0.0657535324884,0.390228690424,251,0.535576518695,0.236509187076,0.655284151108,nan,nan,nan,nan,0.0,0.0,0.0,nan,209.966475347,481.054274928,481.554284051,481.385709985,nan,nan,nan,nan
1,229,1,1,1.0,1.0,0.331275402103,0,0.0,0.0,0.0,0.383465245856,0.0656999994383,0.317765246418,0.449165245295,0.0656999994383,0.368750655713,395,-0.0383984177995,0.474183508328,-0.351427224487,nan,nan,nan,nan,0.0,0.0,0.0,nan,209.966475347,482.054379559,482.554404362,482.385654961,nan,nan,nan,nan
1,230,1,1,1.0,1.0,0.355146928225,0,0.0,0.0,0.0,0.383237342608,0.0656466520107,0.317590690598,0.448883994619,0.0656466520107,0.339285795732,327,-0.128086156831,0.445480682368,0.344176439252,nan,nan,nan,nan,0.0,0.0,0.0,nan,209.966475347,483.05450101,483.554538073,483.409647938,nan,nan,nan,nan
1,231,1,1,1.0,1.0,0.395016717725,0,0.0,0.0,0.0,0.383115210372,0.0655298547748,0.317585355597,0.448645065147,0.0655298547748,0.360479682684,193,1.0,-0.0580453890011,0.428658791268,nan,nan,nan,nan,0.0,0.0,0.0,nan,209.966475347,484.054623602,484.554668077,484.44964032,nan,nan,nan,nan
1,232,1,1,1.0,1.0,0.394787499215,0,0.0,0.0,0.0,0.383166732049,0.0653925297922,0.317774202257,0.448559261841,0.0653925297922,0.381650381722,493,0.689769084006,0.285700779988,-1.0,nan,nan,nan,nan,0.0,0.0,0.0,nan,209.966475347,485.054782402,485.55480749,485.449569901,nan,nan,nan,nan
1,233,1,1,1.0,1.0,0.354651713278,0,0.0,0.0,0.0,0.383216821562,0.0652558863181,0.317960935244,0.448472707881,0.0652558863181,0.381485310073,137,1.0,-0.300190217086,-0.0647316600203,nan,nan,nan,nan,0.0,0.0,0.0,nan,209.966475347,486.054912976,486.554942057,486.40956469,nan,nan,nan,nan
1,234,1,1,1.0,1.0,0.378534357529,0,0.0,0.0,0.0,0.383094224531,0.0651424713162,0.317951753215,0.448236695847,0.0651424713162,0.375991190008,439,0.251144291643,0.426392204401,-1.0,nan,nan,nan,nan,0.0,0.0,0.0,nan,209.966475347,487.05503842,487.555065504,487.433572777,nan,nan,nan,nan
1,235,1,1,1.0,1.0,0.378385536838,0,0.0,0.0,0.0,0.38307473792,0.0650038095252,0.318070928395,0.448078547445,0.0650038095252,0.370523869215,63,1.0,-0.102744642793,-1.0,nan,nan,nan,nan,0.0,0.0,0.0,nan,209.966475347,488.055147897,488.555176977,488.433533434,nan,nan,nan,nan
1,236,1,1,1.0,1.0,0.37020921614,0,0.0,0.0,0.0,0.383054783873,0.0648660742784,0.318188709595,0.447920858151,0.0648660742784,0.375709703503,506,0.797774742377,0.236703125255,-1.0,nan,nan,nan,nan,0.0,0.0,0.0,nan,209.966475347,489.055281323,489.555320381,489.425490539,nan,nan,nan,nan
1,237,1,1,1.0,1.0,0.30610582605,0,0.0,0.0,0.0,0.383000353501,0.0647338780928,0.318266475408,0.447734231594,0.0647338780928,0.351566859676,297,0.0686262056446,0.388646276542,0.544904663634,nan,nan,nan,nan,0.0,0.0,0.0,nan,209.966475347,490.055424442,490.555454377,490.361530268,nan,nan,nan,nan
1,238,1,1,1.0,1.0,0.265940104146,0,1.0,0.0,0.0,0.382675904018,0.0647891716734,0.317886732345,0.447465075692,0.0647891716734,0.314085048779,181,1.0,-0.123914391386,0.3392011262,nan,nan,nan,nan,0.0,0.0,0.0,nan,209.966475347,491.055558153,491.555552451,491.321498257,nan,nan,nan,nan
1,239,1,1,1.0,1.0,0.321817852557,1,0.0,0.0,1.0,0.382185417464,0.0650923682164,0.317093049248,0.447277785681,0.0650923682164,0.297954594251,448,0.32026743599,0.409662251776,-1.0,-132.380451205,222.380451205,-92.6195487954,316.0,-0.0718215561597,0.428203514031,0.427892255365,1.91719732899,209.966475347,492.055644537,492.55567989,492.37746239,495.814426691,496.815813121,493.880852488,495.806094137
1,240,1,1,1.0,1.0,0.458729239181,0,0.0,0.0,0.0,0.381932833511,0.0650728236477,0.316860009863,0.447005657158,0.0650728236477,0.348829065294,107,1.0,-0.290089771429,-0.379592780214,nan,nan,nan,nan,0.0,0.0,0.0,nan,209.966475347,497.014642054,497.514664861,497.473371293,nan,nan,nan,nan
1,241,1,1,1.0,1.0,0.322602726519,0,0.0,0.0,0.0,0.382252818534,0.0651252643131,0.317127554221,0.447378082847,0.0651252643131,0.367716606085,23,1.0,0.106943944166,-1.0,nan,nan,nan,nan,0.0,0.0,0.0,nan,209.966475347,498.014774624,498.514781752,498.337377351,nan,nan,nan,nan
1,242,1,1,1.0,1.0,0.338509474415,0,0.0,0.0,0.0,0.382005307779,0.0651030266132,0.316902281166,0.447108334392,0.0651030266132,0.373280480038,186,1.0,-0.0967386681424,0.377881386018,nan,nan,nan,nan,0.0,0.0,0.0,nan,209.966475347,499.014862719,499.514911756,499.353372194,nan,nan,nan,nan
1,243,1,1,1.0,1.0,0.330360523425,0,0.0,0.0,0.0,0.38182557293,0.0650282663169,0.316797306613,0.446853839247,0.0650282663169,0.33049090812,295,0.0860222946478,0.38372732295,0.554986075565,nan,nan,nan,nan,0.0,0.0,0.0,nan,209.966475347,500.014992154,500.515035489,500.345352677,nan,nan,nan,nan
1,244,1,1,1.0,1.0,0.33020856604,0,0.0,0.0,0.0,0.381613782603,0.0649779070781,0.316635875525,0.446591689681,0.0649779070781,0.33302618796,406,0.0244967455079,0.467245700284,-0.489366101921,nan,nan,nan,nan,0.0,0.0,0.0,nan,209.966475347,501.015121873,501.515162072,501.34533044,nan,nan,nan,nan
1,245,1,1,1.0,1.0,0.346029499546,0,0.0,0.0,0.0,0.381403105486,0.0649277299871,0.316475375499,0.446330835473,0.0649277299871,0.335532863004,264,0.394966959701,0.287889713878,0.650717615019,nan,nan,nan,nan,0.0,0.0,0.0,nan,209.966475347,502.015288656,502.515291506,502.361318155,nan,nan,nan,nan
1,246,0,0,0.0,1.0,0.465884909499,0,0.0,0.0,0.0,0.381258723421,0.064834327462,0.316424395959,0.446093050883,0.064834327462,0.380707658362,335,-0.155595990888,0.455627721073,0.276893227044,nan,nan,nan,nan,0.0,0.0,0.0,nan,209.966475347,503.015409537,503.515438617,503.481294447,nan,nan,nan,nan
1,247,1,1,1.0,1.0,0.361761767417,0,0.0,0.0,0.0,0.381602732308,0.064926084724,0.316676647584,0.446528817032,0.064926084724,0.391225392154,2,0.863024578927,0.203622855609,-1.0,nan,nan,nan,nan,0.0,0.0,0.0,nan,209.966475347,504.01550533,504.515561779,504.377267098,nan,nan,nan,nan
1,248,1,1,1.0,1.0,0.393605483696,0,0.0,0.0,0.0,0.381522404514,0.064806769889,0.316715634625,0.446329174404,0.064806769889,0.407084053537,497,0.723174939644,0.271260599794,-1.0,nan,nan,nan,nan,0.0,0.0,0.0,nan,209.966475347,505.015656717,505.515688078,505.409262201,nan,nan,nan,nan
1,249,1,1,1.0,1.0,0.369423771743,0,0.0,0.0,0.0,0.381571126608,0.064680511838,0.31689061477,0.446251638446,0.064680511838,0.374930340952,178,1.0,-0.139919655122,0.315097826042,nan,nan,nan,nan,0.0,0.0,0.0,nan,209.966475347,506.015792138,506.515802117,506.38521591,nan,nan,nan,nan
1,250,1,1,1.0,1.0,0.409298693296,0,0.0,0.0,0.0,0.38152234205,0.0645550722613,0.316967269789,0.446077414312,0.0645550722613,0.390775982911,232,0.739158239773,0.150046616059,0.623712016981,nan,nan,nan,nan,0.0,0.0,0.0,nan,209.966475347,507.015915016,507.515919862,507.425213709,nan,nan,nan,nan
1,251,1,1,1.0,1.0,0.433190176263,0,0.0,0.0,0.0,0.381633447455,0.0644496833474,0.317183764108,0.446083130803,0.0644496833474,0.403970880434,495,0.706485112283,0.278551693791,-1.0,nan,nan,nan,nan,0.0,0.0,0.0,nan,209.966475347,508.016021642,508.516049582,508.449211818,nan,nan,nan,nan
1,252,1,1,1.0,1.0,0.385058821179,0,0.0,0.0,0.0,0.381838852749,0.0644031106854,0.317435742064,0.446241963435,0.0644031106854,0.409182563579,359,-0.169222339917,0.474741883077,0.0483828026834,nan,nan,nan,nan,0.0,0.0,0.0,nan,209.966475347,509.016133401,509.516188139,509.401192222,nan,nan,nan,nan
1,253,0,0,0.0,1.0,0.440865009557,0,0.0,0.0,0.0,0.381851630402,0.0642755185012,0.317576111901,0.446127148903,0.0642755185012,0.419704669,511,0.838703193994,0.216284169582,-1.0,nan,nan,nan,nan,0.0,0.0,0.0,nan,209.966475347,510.016301893,510.516330118,510.457166903,nan,nan,nan,nan
1,254,1,1,1.0,1.0,0.440718184225,0,0.0,0.0,0.0,0.382084884865,0.0642551444548,0.31782974041,0.44634002932,0.0642551444548,0.422214004987,189,1.0,-0.0802194643608,0.400143472992,nan,nan,nan,nan,0.0,0.0,0.0,nan,209.966475347,511.016427051,511.516461548,511.457145236,nan,nan,nan,nan
1,255,1,1,1.0,1.0,0.488564726431,0,0.0,0.0,0.0,0.382315724626,0.0642335611768,0.318082163449,0.446549285803,0.0642335611768,0.456715973405,428,0.170378320166,0.443486568519,-0.86866140055,nan,nan,nan,nan,0.0,0.0,0.0,nan,209.966475347,512.016561332,512.524898733,512.505126059,nan,nan,nan,nan
1,256,0,0,1.0,0.0,0.504086022265,0,0.0,0.0,0.0,0.382732387378,0.0644504971086,0.31828189027,0.447182884487,0.0644504971086,0.477789644307,349,-0.175656888649,0.468768509344,0.147945183432,nan,nan,nan,nan,0.0,0.0,0.0,nan,209.966475347,513.025018759,513.525062664,513.529104781,nan,nan,nan,nan
1,257,1,1,1.0,1.0,0.439653343987,0,0.0,0.0,0.0,0.383206425015,0.0647683720251,0.318438052989,0.44797479704,0.0647683720251,0.477434697561,89,1.0,-0.229484098413,-0.587370487375,nan,nan,nan,nan,0.0,0.0,0.0,nan,209.966475347,514.033445111,514.533508687,514.473098455,nan,nan,nan,nan
1,258,1,1,1.0,1.0,0.431474457495,0,0.0,0.0,0.0,0.383426062832,0.0647376931972,0.318688369634,0.448163756029,0.0647376931972,0.458404607916,230,0.760023132926,0.140224214653,0.61781109556,nan,nan,nan,nan,0.0,0.0,0.0,nan,209.966475347,515.033599063,515.53363185,515.465073521,nan,nan,nan,nan
1,259,1,1,1.0,1.0,0.431358993053,0,0.0,0.0,0.0,0.383612296919,0.0646810514813,0.318931245438,0.448293348401,0.0646810514813,0.434162264845,412,0.0618891196837,0.462096609288,-0.571158935758,nan,nan,nan,nan,0.0,0.0,0.0,nan,209.966475347,516.033702839,516.533737621,516.465061832,nan,nan,nan,nan
1,260,1,1,1.0,1.0,0.415201643948,0,0.0,0.0,0.0,0.383796647098,0.0646239390906,0.319172708007,0.448420586188,0.0646239390906,0.426011698165,506,0.797774742377,0.236703125255,-1.0,nan,nan,nan,nan,0.0,0.0,0.0,nan,209.966475347,517.033839971,517.533864204,517.449041615,nan,nan,nan,nan
1,261,1,1,1.0,1.0,0.44673346309,0,0.0,0.0,0.0,0.383917435547,0.0645288289149,0.319388606632,0.448446264462,0.0645288289149,0.431098033364,280,0.228089347314,0.342018854333,0.61587222022,nan,nan,nan,nan,0.0,0.0,0.0,nan,209.966475347,518.042298253,518.542344439,518.489031716,nan,nan,nan,nan
1,262,1,1,1.0,1.0,0.526554296259,0,0.0,1.0,0.0,0.384158109982,0.0645219043562,0.319636205626,0.448680014338,0.0645219043562,0.462829801099,467,0.473005185182,0.365775667588,-1.0,nan,nan,nan,nan,0.0,0.0,0.0,nan,209.966475347,519.04243396,519.542497822,519.568988256,nan,nan,nan,nan
1,263,1,1,1.0,1.0,0.742419533897,1,0.0,0.0,1.0,0.384701606876,0.064994484645,0.319707122231,0.449696091521,0.064994484645,0.571902431082,72,1.0,-0.149607777062,-0.853203742106,20.1125882891,69.8874117109,19.2624117109,99.0,1.0,-0.267176270739,-0.468793303331,3.45071513904,209.966475347,520.042555411,520.54262469,520.784974945,525.334851954,526.346083668,521.86777163,525.326533655
1,264,1,1,1.0,1.0,0.500219525304,0,0.0,0.0,0.0,0.386061751085,0.0685048837404,0.317556867345,0.454566634826,0.0685048837404,0.589731118487,250,0.546428449327,0.232286661223,0.654747725831,nan,nan,nan,nan,0.0,0.0,0.0,nan,209.966475347,526.543405858,527.043462023,527.043625384,nan,nan,nan,nan
1,265,1,1,1.0,1.0,0.745324966032,0,0.0,0.0,0.0,0.386494166897,0.0687336855605,0.317760481336,0.455227852457,0.0687336855605,0.662654675078,396,-0.0330153705648,0.473684876347,-0.363523780775,nan,nan,nan,nan,0.0,0.0,0.0,nan,209.966475347,527.543511915,528.043581478,528.288836881,nan,nan,nan,nan
1,266,1,1,1.0,1.0,0.609183058143,0,0.0,1.0,0.0,0.387848245384,0.072045426274,0.31580281911,0.459893671658,0.072045426274,0.618242516493,442,0.273907262724,0.421095538958,-1.0,nan,nan,nan,nan,0.0,0.0,0.0,nan,209.966475347,528.543643345,529.043710058,529.152826403,nan,nan,nan,nan
1,267,1,1,1.0,1.0,0.721029499546,1,0.0,0.0,1.0,0.388680331146,0.0731744990105,0.315505832136,0.461854830157,0.0731744990105,0.69184584124,144,1.0,-0.284423189345,0.00519445478499,-18.5932240543,108.593224054,7.34322405434,154.0,1.0,-0.251813147593,0.102138173725,1.77554048831,209.966475347,529.543768788,530.043835501,530.264798287,533.160851907,534.161535286,531.368955641,533.152531897
1,268,1,1,1.0,1.0,0.423654509243,0,0.0,0.0,0.0,0.389925084586,0.0758063079854,0.314118776601,0.465731392572,0.0758063079854,0.584622355644,65,1.0,-0.113312155659,-1.0,nan,nan,nan,nan,0.0,0.0,0.0,nan,209.966475347,534.361052444,534.86106898,534.784706953,nan,nan,nan,nan
1,269,1,1,1.0,1.0,0.351489122957,0,0.0,0.0,0.0,0.390050940648,0.0756926880193,0.314358252629,0.465743628667,0.0756926880193,0.498724377248,173,1.0,-0.165909522591,0.273535192888,nan,nan,nan,nan,0.0,0.0,0.0,nan,209.966475347,535.361208963,535.861204401,535.712698086,nan,nan,nan,nan
1,270,0,0,0.0,1.0,0.463384316303,0,0.0,0.0,0.0,0.389907588166,0.0755883031976,0.314319284969,0.465495891364,0.0755883031976,0.412842649501,325,-0.119404900653,0.442631039184,0.360186421743,nan,nan,nan,nan,0.0,0.0,0.0,nan,209.966475347,536.361311883,536.861353793,536.8246962,nan,nan,nan,nan
1,271,1,1,1.0,1.0,0.295240462758,0,0.0,0.0,0.0,0.390179724196,0.0755801014625,0.314599622734,0.465759825659,0.0755801014625,0.370037967339,444,0.289241202529,0.417409780569,-1.0,nan,nan,nan,nan,0.0,0.0,0.0,nan,209.966475347,537.361441317,537.861460419,537.65668178,nan,nan,nan,nan
1,272,1,1,1.0,1.0,0.303132256027,0,0.0,0.0,0.0,0.389829394818,0.0756598323426,0.314169562476,0.465489227161,0.0756598323426,0.353919011696,342,-0.170052622031,0.462913557708,0.21407524247,nan,nan,nan,nan,0.0,0.0,0.0,nan,209.966475347,538.361544808,538.861598406,538.664677064,nan,nan,nan,nan
1,273,1,1,1.0,1.0,0.342966123484,0,1.0,0.0,0.0,0.389510655337,0.0757026869432,0.313807968394,0.465213342281,0.0757026869432,0.31377961409,293,0.103830259013,0.378659598285,0.564617056734,nan,nan,nan,nan,0.0,0.0,0.0,nan,209.966475347,539.361691919,539.861722139,539.704658042,nan,nan,nan,nan
1,274,1,1,1.0,1.0,0.310797966085,1,0.0,0.0,1.0,0.389340162547,0.0756162082741,0.313723954273,0.464956370821,0.0756162082741,0.318965448532,373,-0.135407706169,0.478559568072,-0.0996974893599,-168.178511659,258.178511659,-4.08711334061,367.0,-0.15309091083,0.477560897992,-0.0350816338538,2.05054641841,209.966475347,540.361847012,540.861847297,540.672644978,544.26231309,545.268564145,542.195341615,544.253930644
1,275,1,1,1.0,1.0,0.465739224572,0,0.0,0.0,0.0,0.389053512195,0.0756265496397,0.313426962555,0.464680061834,0.0756265496397,0.37316777138,59,1.0,-0.0814409933332,-1.0,nan,nan,nan,nan,0.0,0.0,0.0,nan,209.966475347,545.470796289,545.970823089,545.936535514,nan,nan,nan,nan
1,276,1,1,1.0,1.0,0.401576248929,0,0.0,0.0,0.0,0.389332369331,0.0756299139224,0.313702455408,0.464962283253,0.0756299139224,0.392704479862,280,0.228089347314,0.342018854333,0.61587222022,nan,nan,nan,nan,0.0,0.0,0.0,nan,209.966475347,546.470940549,546.970963357,546.872516798,nan,nan,nan,nan
1,277,1,1,1.0,1.0,0.353428073227,0,0.0,0.0,0.0,0.389376731213,0.0754963632007,0.313880368013,0.464873094414,0.0754963632007,0.406914515576,68,1.0,-0.129018143495,-0.972903198114,nan,nan,nan,nan,0.0,0.0,0.0,nan,209.966475347,547.471069413,547.971082528,547.824497486,nan,nan,nan,nan
1,278,1,1,1.0,1.0,0.345292806625,0,0.0,0.0,0.0,0.389246952665,0.0753908007739,0.313856151891,0.464637753438,0.0753908007739,0.366765709594,258,0.459642287315,0.26499291187,0.655490062901,nan,nan,nan,nan,0.0,0.0,0.0,nan,209.966475347,548.471198278,548.971214243,548.816491084,nan,nan,nan,nan
1,279,1,1,1.0,1.0,0.369127554819,0,0.0,0.0,0.0,0.389088844226,0.0753010766086,0.313787767617,0.464389920834,0.0753010766086,0.355949478224,199,1.0,-0.0246761787097,0.468786302982,nan,nan,nan,nan,0.0,0.0,0.0,nan,209.966475347,549.471342822,549.971333984,549.840470377,nan,nan,nan,nan
1,280,1,1,1.0,1.0,0.360986016691,0,0.0,0.0,0.0,0.389017298385,0.0751754726122,0.313841825773,0.464192770998,0.0751754726122,0.358468792712,292,0.112881669716,0.376069582356,0.569261850688,nan,nan,nan,nan,0.0,0.0,0.0,nan,209.966475347,550.471466269,550.971458857,550.832452286,nan,nan,nan,nan
1,281,1,1,1.0,1.0,0.384857542347,0,0.0,0.0,0.0,0.388917186665,0.0750597396816,0.313857446983,0.463976926347,0.0750597396816,0.371657037952,344,-0.172543464245,0.464730234515,0.195503824632,nan,nan,nan,nan,0.0,0.0,0.0,nan,209.966475347,551.471568619,551.971597129,551.856426162,nan,nan,nan,nan
1,282,1,1,1.0,1.0,0.416709526442,0,0.0,0.0,0.0,0.388902739532,0.0749264523835,0.313976287149,0.463829191916,0.0749264523835,0.38751769516,475,0.539218753276,0.343659807328,-1.0,nan,nan,nan,nan,0.0,0.0,0.0,nan,209.966475347,552.471695773,552.971720291,552.888405299,nan,nan,nan,nan
1,283,1,1,1.0,1.0,0.360623942222,0,0.0,0.0,0.0,0.38900134516,0.0748117486946,0.314189596465,0.463813093854,0.0748117486946,0.387397003671,37,1.0,0.0358565504353,-1.0,nan,nan,nan,nan,0.0,0.0,0.0,nan,209.966475347,553.471816369,553.97184659,553.832440312,nan,nan,nan,nan
1,284,1,1,1.0,1.0,0.408424868714,0,0.0,0.0,0.0,0.388901071651,0.0746984371942,0.314202634457,0.463599508845,0.0746984371942,0.395252779126,185,1.0,-0.102214474652,0.370299946716,nan,nan,nan,nan,0.0,0.0,0.0,nan,209.966475347,554.47194951,554.97199199,554.880374379,nan,nan,nan,nan
1,285,1,1,1.0,1.0,0.320273192134,0,0.0,0.0,0.0,0.388969817415,0.0745757774986,0.314394039917,0.463545594914,0.0745757774986,0.363107334357,328,-0.132159558243,0.44685796506,0.336046158271,nan,nan,nan,nan,0.0,0.0,0.0,nan,209.966475347,555.47208037,555.972108595,555.792353562,nan,nan,nan,nan
1,286,1,1,1.0,1.0,0.376161488704,0,0.0,0.0,0.0,0.388728776625,0.0745555697394,0.314173206885,0.463284346364,0.0745555697394,0.368286516517,14,0.95801504718,0.150023555696,-1.0,nan,nan,nan,nan,0.0,0.0,0.0,nan,209.966475347,556.472179869,556.972227766,556.848341358,nan,nan,nan,nan
1,287,1,1,1.0,1.0,0.375975034665,0,0.0,0.0,0.0,0.388684835059,0.0744288105818,0.314256024477,0.46311364564,0.0744288105818,0.357469905168,352,-0.17544712699,0.470851603012,0.118673592819,nan,nan,nan,nan,0.0,0.0,0.0,nan,209.966475347,557.472334107,557.972365468,557.848309142,nan,nan,nan,nan
1,288,1,1,1.0,1.0,0.399851976894,0,0.0,0.0,0.0,0.38864055004,0.074302804983,0.314337745057,0.462943355023,0.074302804983,0.383996166755,240,0.654373017221,0.188015059697,0.642463954019,nan,nan,nan,nan,0.0,0.0,0.0,nan,209.966475347,558.47246012,558.972490055,558.872312097,nan,nan,nan,nan
1,289,1,1,1.0,1.0,0.447688255925,0,0.0,0.0,0.0,0.388679478605,0.0741766266575,0.314502851948,0.462856105263,0.0741766266575,0.407838422495,71,1.0,-0.144504067012,-0.877980773838,nan,nan,nan,nan,0.0,0.0,0.0,nan,209.966475347,559.472591836,559.972612648,559.920280091,nan,nan,nan,nan
1,290,1,1,1.0,1.0,0.335560137406,0,0.0,0.0,0.0,0.388883661226,0.074129212604,0.314754448622,0.46301287383,0.074129212604,0.394366790075,368,-0.150457169737,0.477793263397,-0.0457341785459,nan,nan,nan,nan,0.0,0.0,0.0,nan,209.966475347,560.472715283,560.97273581,560.80827542,nan,nan,nan,nan
1,291,0,0,0.0,1.0,0.463364359457,0,0.0,0.0,0.0,0.388699787006,0.0740672830185,0.314632503987,0.462767070024,0.0740672830185,0.415537584263,249,0.557275547736,0.228026269286,0.654084877906,nan,nan,nan,nan,0.0,0.0,0.0,nan,209.966475347,561.472877789,561.972894324,561.936242148,nan,nan,nan,nan
1,292,1,1,1.0,1.0,0.375271697994,0,0.0,0.0,0.0,0.388956366292,0.0740688994048,0.314887466888,0.463025265697,0.0740688994048,0.391398731619,119,1.0,-0.309446327048,-0.250710895617,nan,nan,nan,nan,0.0,0.0,0.0,nan,209.966475347,562.472969305,562.972995534,562.848241003,nan,nan,nan,nan
1,293,1,1,1.0,1.0,0.359124612994,0,0.0,0.0,0.0,0.38890950099,0.0739462820991,0.314963218891,0.462855783089,0.0739462820991,0.399253556815,8,0.91102658764,0.177400941622,-1.0,nan,nan,nan,nan,0.0,0.0,0.0,nan,209.966475347,563.473095318,563.973125824,563.832219931,nan,nan,nan,nan
1,294,1,1,1.0,1.0,0.374965502881,0,0.0,0.0,0.0,0.388807846082,0.0738404210911,0.314967424991,0.462648267173,0.0738404210911,0.36978727129,214,0.920243657418,0.0575410437433,0.553854850604,nan,nan,nan,nan,0.0,0.0,0.0,nan,209.966475347,564.473242999,564.973265807,564.848208502,nan,nan,nan,nan
1,295,1,1,1.0,1.0,0.39076733496,0,0.0,0.0,0.0,0.388760763282,0.0737191406738,0.315041622608,0.462479903956,0.0737191406738,0.374952483612,95,1.0,-0.253175017597,-0.514975443931,nan,nan,nan,nan,0.0,0.0,0.0,nan,209.966475347,565.473410066,565.973416053,565.864177401,nan,nan,nan,nan
1,296,1,1,1.0,1.0,0.366650054697,0,0.0,0.0,0.0,0.38876756522,0.0735941793243,0.315173385896,0.462361744544,0.0735941793243,0.377460964179,0,0.846831709088,0.212097570855,-1.0,nan,nan,nan,nan,0.0,0.0,0.0,nan,209.966475347,566.473512987,566.973498446,566.840163041,nan,nan,nan,nan
1,297,0,0,0.0,1.0,0.542430253699,0,0.0,0.0,0.0,0.388692843901,0.0734809679486,0.315211875952,0.462173811849,0.0734809679486,0.433282547786,402,0.000724920831492,0.470139955471,-0.437811562499,nan,nan,nan,nan,0.0,0.0,0.0,nan,209.966475347,567.4736983,567.973670076,568.016128554,nan,nan,nan,nan
1,298,1,1,1.0,1.0,0.38242337713,0,0.0,0.0,0.0,0.389210478277,0.0738957677971,0.31531471048,0.463106246074,0.0738957677971,0.430501228509,278,0.248285521772,0.335802812283,0.621962573991,nan,nan,nan,nan,0.0,0.0,0.0,nan,209.966475347,568.473715976,568.973760166,568.856139353,nan,nan,nan,nan
1,299,1,1,1.0,1.0,0.334230441134,0,0.0,0.0,0.0,0.38918770277,0.073772721586,0.315414981184,0.462960424356,0.073772721586,0.419694690655,370,-0.144805996584,0.478178727438,-0.0671803333712,nan,nan,nan,nan,0.0,0.0,0.0,nan,209.966475347,569.473887035,569.973895018,569.808117476,nan,nan,nan,nan
1,300,1,1,1.0,1.0,0.398097770289,0,0.0,0.0,0.0,0.389003899219,0.0737175688101,0.315286330409,0.46272146803,0.0737175688101,0.371583862851,143,1.0,-0.287057525782,-0.00469998909502,nan,nan,nan,nan,0.0,0.0,0.0,nan,209.966475347,570.473973705,570.974022456,570.872071475,nan,nan,nan,nan
1,301,1,1,1.0,1.0,0.381968930829,0,0.0,0.0,0.0,0.389034212123,0.0735964702111,0.315437741912,0.462630682334,0.0735964702111,0.371432380751,471,0.506014005179,0.354993781952,-1.0,nan,nan,nan,nan,0.0,0.0,0.0,nan,209.966475347,571.474111407,571.974139061,571.856080338,nan,nan,nan,nan
1,302,1,1,1.0,1.0,0.469823535997,0,0.0,0.0,0.0,0.389010739428,0.0734752400409,0.315535499387,0.462485979469,0.0734752400409,0.416630079038,136,1.0,-0.301914900238,-0.074841205769,nan,nan,nan,nan,0.0,0.0,0.0,nan,209.966475347,572.474229437,572.974258517,572.944052973,nan,nan,nan,nan
1,303,1,1,1.0,1.0,0.405679947231,0,0.0,0.0,0.0,0.389278331469,0.0735002582292,0.31577807324,0.462778589698,0.0735002582292,0.419157471353,281,0.218083397074,0.345068392493,0.612644422055,nan,nan,nan,nan,0.0,0.0,0.0,nan,209.966475347,573.474357446,573.974389663,573.880037393,nan,nan,nan,nan
1,304,1,1,1.0,1.0,0.357558000367,0,0.0,0.0,0.0,0.389332462214,0.0733848998643,0.31594756235,0.462717362079,0.0733848998643,0.411020494532,491,0.673033477965,0.292707709811,-1.0,nan,nan,nan,nan,0.0,0.0,0.0,nan,209.966475347,574.474478043,574.974536773,574.832036043,nan,nan,nan,nan
1,305,1,1,1.0,1.0,0.413383860141,0,0.0,0.0,0.0,0.389227940958,0.0732866888613,0.315941252097,0.46251462982,0.0732866888613,0.392207269246,44,1.0,-0.00106984144607,-1.0,nan,nan,nan,nan,0.0,0.0,0.0,nan,209.966475347,575.474621162,575.974647106,575.888005022,nan,nan,nan,nan
1,306,1,1,1.0,1.0,0.37323381938,0,0.0,0.0,0.0,0.389307140693,0.0731794779891,0.316127662704,0.462486618682,0.0731794779891,0.381391893296,309,-0.0258396312562,0.415106541901,0.475305697888,nan,nan,nan,nan,0.0,0.0,0.0,nan,209.966475347,576.47476143,576.974808471,576.847995249,nan,nan,nan,nan
1,307,1,1,1.0,1.0,0.317054722924,0,0.0,0.0,0.0,0.389254613499,0.0730655647681,0.316189048731,0.462320178268,0.0730655647681,0.367890800815,208,0.97651257568,0.025020743352,0.522574479073,nan,nan,nan,nan,0.0,0.0,0.0,nan,209.966475347,577.474894,577.974903694,577.791948723,nan,nan,nan,nan
1,308,1,1,1.0,1.0,0.284996327944,0,0.0,0.0,0.0,0.389019434703,0.0730623831282,0.315957051575,0.462081817831,0.0730623831282,0.325094956749,381,-0.105403061426,0.478425078289,-0.188431136224,nan,nan,nan,nan,0.0,0.0,0.0,nan,209.966475347,578.475007469,578.975033984,578.760003797,nan,nan,nan,nan
1,309,1,1,1.0,1.0,0.292783774901,0,1.0,0.0,0.0,0.388681697343,0.0731833226859,0.315498374657,0.461865020029,0.0731833226859,0.298278275256,324,-0.114799643766,0.441158325109,0.368064040095,nan,nan,nan,nan,0.0,0.0,0.0,nan,209.966475347,579.475148023,579.975160567,579.767931798,nan,nan,nan,nan
1,310,0,0,0.0,1.0,0.500632917043,1,0.0,0.0,1.0,0.38837134808,0.0732675342178,0.315103813862,0.461638882297,0.0732675342178,0.359471006629,177,1.0,-0.145192147526,0.306921212481,-12.3080158174,102.308015817,-22.1451091826,146.0,1.0,-0.278792578557,0.0248813210997,2.58398183575,209.966475347,580.47528544,580.9753302,580.975918357,584.900784817,585.905902893,582.300457183,584.892451978
1,311,1,1,1.0,1.0,0.370519687422,0,0.0,0.0,0.0,0.388733482173,0.0734257285786,0.315307753594,0.462159210752,0.0734257285786,0.387978793122,0,0.846831709088,0.212097570855,-1.0,nan,nan,nan,nan,0.0,0.0,0.0,nan,209.966475347,586.109311922,586.609342997,586.479831609,nan,nan,nan,nan
1,312,1,1,1.0,1.0,0.346350519452,0,0.0,0.0,0.0,0.388674916917,0.0733148374631,0.315360079454,0.46198975438,0.0733148374631,0.405834374639,146,1.0,-0.278792578557,0.0248813210997,nan,nan,nan,nan,0.0,0.0,0.0,nan,209.966475347,587.109444208,587.609466445,587.455794727,nan,nan,nan,nan
1,313,1,1,1.0,1.0,0.410231248941,0,0.0,0.0,0.0,0.388539261797,0.0732363348172,0.315302926979,0.461775596614,0.0732363348172,0.375700485272,3,0.871087178923,0.199335109687,-1.0,nan,nan,nan,nan,0.0,0.0,0.0,nan,209.966475347,588.109556821,588.60959702,588.51978807,nan,nan,nan,nan
1,314,1,1,1.0,1.0,0.370054122992,0,0.0,0.0,0.0,0.38860856527,0.073129496701,0.315479068569,0.461738061971,0.073129496701,0.375545297128,86,1.0,-0.21659106269,-0.625617802914,nan,nan,nan,nan,0.0,0.0,0.0,nan,209.966475347,589.109723318,589.609740709,589.479777441,nan,nan,nan,nan
1,315,1,1,1.0,1.0,0.3699175613,0,0.0,0.0,0.0,0.388549474689,0.0730204395083,0.315529035181,0.461569914198,0.0730204395083,0.383400977744,506,0.797774742377,0.236703125255,-1.0,nan,nan,nan,nan,0.0,0.0,0.0,nan,209.966475347,590.109835647,590.609862731,590.479753208,nan,nan,nan,nan
1,316,1,1,1.0,1.0,0.361797974911,0,0.0,0.0,0.0,0.388490325758,0.072911975765,0.315578349993,0.461402301523,0.072911975765,0.367256553068,253,0.513865899396,0.244839928328,0.655977188727,nan,nan,nan,nan,0.0,0.0,0.0,nan,209.966475347,591.109938567,591.609997582,591.471736542,nan,nan,nan,nan
1,317,1,1,1.0,1.0,0.297641271725,0,0.0,0.0,0.0,0.388405856293,0.0728119528945,0.315593903399,0.461217809188,0.0728119528945,0.343118935979,22,1.0,0.111842423158,-1.0,nan,nan,nan,nan,0.0,0.0,0.0,nan,209.966475347,592.110088814,592.610137851,592.407730085,nan,nan,nan,nan
1,318,1,1,1.0,1.0,0.297443983611,0,0.0,0.0,0.0,0.388119532683,0.0728749773105,0.315244555372,0.460994509993,0.0728749773105,0.318961076749,481,0.589289488337,0.325611856148,-1.0,nan,nan,nan,nan,0.0,0.0,0.0,nan,209.966475347,593.110231933,593.610237635,593.407675916,nan,nan,nan,nan
1,319,1,1,1.0,1.0,0.409349156078,0,0.0,0.0,0.0,0.387834389447,0.0729372060091,0.314897183437,0.460771595456,0.0729372060091,0.334811470471,360,-0.167709501072,0.475188317955,0.0381258551808,nan,nan,nan,nan,0.0,0.0,0.0,nan,209.966475347,594.11035595,594.610363077,594.519705106,nan,nan,nan,nan
1,320,1,1,1.0,1.0,0.369196263608,0,0.0,0.0,0.0,0.387901833856,0.0728327256146,0.315069108241,0.460734559471,0.0728327256146,0.358663134432,150,1.0,-0.266152531622,0.0638227105866,nan,nan,nan,nan,0.0,0.0,0.0,nan,209.966475347,595.110474551,595.610504486,595.479670814,nan,nan,nan,nan
1,321,1,1,1.0,1.0,0.393063513096,0,0.0,0.0,0.0,0.387843378949,0.0727263297736,0.315117049175,0.460569708723,0.0727263297736,0.390536310927,433,0.206536295144,0.436163724167,-1.0,nan,nan,nan,nan,0.0,0.0,0.0,nan,209.966475347,596.11057519,596.610618525,596.503638703,nan,nan,nan,nan
1,322,1,1,1.0,1.0,0.392885611858,0,0.0,0.0,0.0,0.387859641049,0.07261354324,0.315246097809,0.460473184289,0.07261354324,0.385048462854,88,1.0,-0.225257592204,-0.599932847766,nan,nan,nan,nan,0.0,0.0,0.0,nan,209.966475347,597.110727148,597.610753661,597.50361276,nan,nan,nan,nan
1,323,1,1,1.0,1.0,0.416722070891,0,0.0,0.0,0.0,0.387875249654,0.0725012409487,0.315374008705,0.460376490603,0.0725012409487,0.400890398615,444,0.289241202529,0.417409780569,-1.0,nan,nan,nan,nan,0.0,0.0,0.0,nan,209.966475347,598.110885377,598.610868271,598.527607447,nan,nan,nan,nan
1,324,1,1,1.0,1.0,0.376602250151,0,0.0,0.0,0.0,0.387964558698,0.0724066603852,0.315557898313,0.460371219083,0.0724066603852,0.395403310967,40,1.0,0.0201165467467,-1.0,nan,nan,nan,nan,0.0,0.0,0.0,nan,209.966475347,599.110993429,599.611019373,599.487595679,nan,nan,nan,nan
1,325,1,1,1.0,1.0,0.392452548258,0,0.0,0.0,0.0,0.387929489845,0.0722975826227,0.315631907222,0.460227072467,0.0722975826227,0.395258956434,118,1.0,-0.308588151016,-0.261285249573,nan,nan,nan,nan,0.0,0.0,0.0,nan,209.966475347,600.111122863,600.611136263,600.503575412,nan,nan,nan,nan
1,326,1,1,1.0,1.0,0.270301246084,0,0.0,0.0,0.0,0.387943406948,0.0721867045484,0.315756702399,0.460130111496,0.0721867045484,0.346452014831,255,0.492159363509,0.253017189294,0.656163111527,nan,nan,nan,nan,0.0,0.0,0.0,nan,209.966475347,601.161295233,601.66128383,601.431596479,nan,nan,nan,nan
1,327,0,0,0.0,1.0,0.446185790468,0,0.0,0.0,0.0,0.387582541423,0.0723689068008,0.315213634623,0.459951448224,0.0723689068008,0.36964652827,141,1.0,-0.291952736687,-0.024586852943,nan,nan,nan,nan,0.0,0.0,0.0,nan,209.966475347,602.161353963,602.661413549,602.607539754,nan,nan,nan,nan
1,328,1,1,1.0,1.0,0.342040981166,0,0.0,0.0,0.0,0.387761756252,0.0723305816599,0.315431174592,0.460092337912,0.0723305816599,0.352842672573,429,0.177531820842,0.442080780324,-0.901885199234,nan,nan,nan,nan,0.0,0.0,0.0,nan,209.966475347,603.161475985,603.661527873,603.503516966,nan,nan,nan,nan
1,329,1,1,1.0,1.0,0.341893585864,0,0.0,0.0,0.0,0.387622363645,0.0722642124869,0.315358151158,0.459886576132,0.0722642124869,0.376706785833,119,1.0,-0.309446327048,-0.250710895617,nan,nan,nan,nan,0.0,0.0,0.0,nan,209.966475347,604.161606275,604.66163678,604.503499861,nan,nan,nan,nan
1,330,1,1,1.0,1.0,0.397761355154,0,0.0,0.0,0.0,0.3874833704,0.0721982020845,0.315285168315,0.459681572484,0.0721982020845,0.360565307395,246,0.589768841079,0.215019897151,0.651339528662,nan,nan,nan,nan,0.0,0.0,0.0,nan,209.966475347,605.161728582,605.66178047,605.559489937,nan,nan,nan,nan
1,331,1,1,1.0,1.0,0.373586485162,0,0.0,0.0,0.0,0.387514515808,0.0720909413733,0.315423574435,0.459605457181,0.0720909413733,0.371080475394,107,1.0,-0.290089771429,-0.379592780214,nan,nan,nan,nan,0.0,0.0,0.0,nan,209.966475347,606.161871416,606.661906483,606.535457901,nan,nan,nan,nan
1,332,1,1,1.0,1.0,0.333465238567,0,0.0,0.0,0.0,0.387472437166,0.0719860188514,0.315486418314,0.459458456017,0.0719860188514,0.368271026295,207,0.985653507947,0.0195431921708,0.51699622314,nan,nan,nan,nan,0.0,0.0,0.0,nan,209.966475347,607.161981179,607.662030786,607.495446417,nan,nan,nan,nan
1,333,1,1,1.0,1.0,0.309329997748,0,0.0,0.0,0.0,0.387309764881,0.0719384287283,0.315371336152,0.459248193609,0.0719384287283,0.338793907159,25,1.0,0.0970682892709,-1.0,nan,nan,nan,nan,0.0,0.0,0.0,nan,209.966475347,608.162110043,608.662159935,608.471440041,nan,nan,nan,nan
1,334,1,1,1.0,1.0,0.301166791469,0,1.0,0.0,0.0,0.387075591406,0.0719569491445,0.315118642261,0.45903254055,0.0719569491445,0.314654009261,489,0.656284860842,0.299572439858,-1.0,nan,nan,nan,nan,0.0,0.0,0.0,nan,209.966475347,609.162262,609.662284523,609.463428792,nan,nan,nan,nan
1,335,1,1,1.0,1.0,0.309011828154,1,0.0,0.0,1.0,0.38681837943,0.0720022967798,0.31481608265,0.45882067621,0.0720022967798,0.306502872457,352,-0.17544712699,0.470851603012,0.118673592819,-168.031524348,258.031524348,10.5315243484,367.0,-0.15309091083,0.477560897992,-0.0350816338538,4.25914565334,209.966475347,610.162382026,610.662415668,610.471393854,616.26311678,617.261327791,611.987598815,616.254784511
1,336,1,1,1.0,1.0,0.383960909676,0,0.0,0.0,0.0,0.386586121068,0.0720199444989,0.314566176569,0.458606065567,0.0720199444989,0.3313798431,418,0.101175887384,0.455961754156,-0.661679309199,nan,nan,nan,nan,0.0,0.0,0.0,nan,209.966475347,617.463296506,617.963377759,617.847257416,nan,nan,nan,nan
1,337,1,1,1.0,1.0,0.335823853035,0,0.0,0.0,0.0,0.386578307939,0.0719128342887,0.31466547365,0.458491142228,0.0719128342887,0.342932196955,222,0.841778467246,0.0997291618919,0.589484691865,nan,nan,nan,nan,0.0,0.0,0.0,nan,209.966475347,618.4634248,618.963455591,618.799248653,nan,nan,nan,nan
1,338,1,1,1.0,1.0,0.335667904001,0,0.0,0.0,0.0,0.386427701248,0.0718591083134,0.314568592934,0.458286809561,0.0718591083134,0.35181755557,407,0.0305886347219,0.46645515455,-0.502577406972,nan,nan,nan,nan,0.0,0.0,0.0,nan,209.966475347,619.463575332,619.963603271,619.799243236,nan,nan,nan,nan
1,339,1,1,1.0,1.0,0.36753300298,0,0.0,0.0,0.0,0.386277524333,0.0718056720062,0.314471852327,0.458083196339,0.0718056720062,0.346341586672,494,0.698129958021,0.282143999684,-1.0,nan,nan,nan,nan,0.0,0.0,0.0,nan,209.966475347,620.463677967,620.963742399,620.83121097,nan,nan,nan,nan
1,340,0,0,0.0,1.0,0.463341266382,0,0.0,0.0,0.0,0.38622223076,0.0717068917613,0.314515338998,0.457929122521,0.0717068917613,0.388847391121,149,1.0,-0.269478519393,0.0541436597792,nan,nan,nan,nan,0.0,0.0,0.0,nan,209.966475347,621.463838192,621.963874399,621.927179459,nan,nan,nan,nan
1,341,1,1,1.0,1.0,0.35121086752,0,0.0,0.0,0.0,0.386449051453,0.0717230499909,0.314726001462,0.458172101443,0.0717230499909,0.394028378961,67,1.0,-0.12380466598,-1.0,nan,nan,nan,nan,0.0,0.0,0.0,nan,209.966475347,622.463971333,622.963996707,622.8151822,nan,nan,nan,nan
1,342,1,1,1.0,1.0,0.319051262923,0,0.0,0.0,0.0,0.38634571367,0.0716431506748,0.314702562995,0.457988864345,0.0716431506748,0.377867798942,394,-0.0437090198531,0.474655926729,-0.339401417396,nan,nan,nan,nan,0.0,0.0,0.0,nan,209.966475347,623.464105899,623.964114167,623.783157162,nan,nan,nan,nan
1,343,1,1,1.0,1.0,0.35892732488,0,0.0,0.0,0.0,0.38614894627,0.0716305497715,0.314518396498,0.457779496041,0.0716305497715,0.343063151774,241,0.64365311028,0.192605941253,0.644254782112,nan,nan,nan,nan,0.0,0.0,0.0,nan,209.966475347,624.464200837,624.964230202,624.823128161,nan,nan,nan,nan
1,344,1,1,1.0,1.0,0.326770856511,0,0.0,0.0,0.0,0.386069582942,0.0715411124068,0.314528470535,0.457610695349,0.0715411124068,0.334916481438,306,-0.00395437407881,0.408974006242,0.494128827808,nan,nan,nan,nan,0.0,0.0,0.0,nan,209.966475347,625.464344241,625.964354789,625.791115097,nan,nan,nan,nan
1,345,0,0,0.0,1.0,0.422616183292,0,0.0,0.0,0.0,0.385897202924,0.0715083539035,0.31438884902,0.457405556827,0.0715083539035,0.369438121561,479,0.572572153349,0.331768222426,-1.0,nan,nan,nan,nan,0.0,0.0,0.0,nan,209.966475347,626.464479662,626.964509598,626.887095845,nan,nan,nan,nan
1,346,1,1,1.0,1.0,0.318515563849,0,0.0,0.0,0.0,0.386003634751,0.0714319245132,0.314571710238,0.457435559264,0.0714319245132,0.355967534551,198,1.0,-0.0302354974571,0.462326941081,nan,nan,nan,nan,0.0,0.0,0.0,nan,209.966475347,627.464569468,627.964625062,627.783085032,nan,nan,nan,nan
1,347,1,1,1.0,1.0,0.286363087129,0,0.0,0.0,0.0,0.385808582523,0.0714205735465,0.314388008976,0.457229156069,0.0714205735465,0.34249827809,28,1.0,0.082066132397,-1.0,nan,nan,nan,nan,0.0,0.0,0.0,nan,209.966475347,628.464694911,628.964747084,628.751057998,nan,nan,nan,nan
1,348,1,1,1.0,1.0,0.342209473718,0,0.0,0.0,0.0,0.385521996081,0.0715165430474,0.314005453033,0.457038539128,0.0715165430474,0.315696041565,349,-0.175656888649,0.468768509344,0.147945183432,nan,nan,nan,nan,0.0,0.0,0.0,nan,209.966475347,629.464845728,629.96486654,629.807055201,nan,nan,nan,nan
1,349,1,1,1.0,1.0,0.34206378879,0,0.0,0.0,0.0,0.385397534809,0.071451340073,0.313946194736,0.456848874882,0.071451340073,0.323545449879,500,0.748145934353,0.260058294274,-1.0,nan,nan,nan,nan,0.0,0.0,0.0,nan,209.966475347,630.464968035,630.964994549,630.807031823,nan,nan,nan,nan
1,350,0,0,0.0,1.0,0.469843207393,0,0.0,0.0,0.0,0.385273369348,0.0713864888208,0.313886880527,0.456659858169,0.0713864888208,0.384705489967,380,-0.109519508899,0.478533032186,-0.177177385375,nan,nan,nan,nan,0.0,0.0,0.0,nan,209.966475347,631.465175016,631.965151067,631.935018223,nan,nan,nan,nan
1,351,1,1,1.0,1.0,0.317789705005,0,0.0,0.0,0.0,0.385514997457,0.0714272130499,0.314087784407,0.456942210507,0.0714272130499,0.376565567063,436,0.228681708805,0.431413732101,-1.0,nan,nan,nan,nan,0.0,0.0,0.0,nan,209.966475347,632.465212934,632.965262256,632.783002639,nan,nan,nan,nan
1,352,1,1,1.0,1.0,0.293657599483,0,0.0,0.0,0.0,0.385322047906,0.0714166781877,0.313905369718,0.456738726093,0.0714166781877,0.360430170627,306,-0.00395437407881,0.408974006242,0.494128827808,nan,nan,nan,nan,0.0,0.0,0.0,nan,209.966475347,633.46533353,633.965389409,633.75899113,nan,nan,nan,nan
1,353,1,1,1.0,1.0,0.485436632764,0,0.0,0.0,0.0,0.385061637541,0.0714818499657,0.313579787575,0.456543487507,0.0714818499657,0.365627979084,393,-0.0489456633786,0.475102171109,-0.327443230616,nan,nan,nan,nan,0.0,0.0,0.0,nan,209.966475347,634.46550744,634.965503734,634.950944073,nan,nan,nan,nan
1,354,1,1,1.0,1.0,0.285300527234,0,0.0,0.0,0.0,0.385345985969,0.0715796098735,0.313766376096,0.456925595843,0.0715796098735,0.35479825316,316,-0.0718215561597,0.428203514031,0.427892255365,nan,nan,nan,nan,0.0,0.0,0.0,nan,209.966475347,635.465614066,635.965651984,635.750914594,nan,nan,nan,nan
1,355,1,1,1.0,1.0,0.493168771267,0,0.0,0.0,0.0,0.385063371679,0.0716753890415,0.313387982637,0.45673876072,0.0716753890415,0.421301977088,5,0.88714030954,0.190659852496,-1.0,nan,nan,nan,nan,0.0,0.0,0.0,nan,209.966475347,636.46574293,636.97410656,636.958911702,nan,nan,nan,nan
1,356,0,0,0.0,1.0,0.493027077056,0,0.0,0.0,0.0,0.385367893931,0.0718033266616,0.31356456727,0.457171220593,0.0718033266616,0.423832125186,145,1.0,-0.281667413287,0.0150551701241,nan,nan,nan,nan,0.0,0.0,0.0,nan,209.966475347,637.465880348,637.974254526,637.958907425,nan,nan,nan,nan
1,357,1,1,1.0,1.0,0.260875056498,0,0.0,0.0,0.0,0.385670307367,0.0719284470575,0.31374186031,0.457598754425,0.0719284470575,0.415690301607,497,0.723174939644,0.271260599794,-1.0,nan,nan,nan,nan,0.0,0.0,0.0,nan,209.966475347,638.466005791,638.966028028,638.726880847,nan,nan,nan,nan
1,358,1,1,1.0,1.0,0.292816846166,0,0.0,0.0,0.0,0.385320740838,0.0721298231037,0.313190917734,0.457450563942,0.0721298231037,0.348906326573,24,1.0,0.102019060141,-1.0,nan,nan,nan,nan,0.0,0.0,0.0,nan,209.966475347,639.46610586,639.966148055,639.758922706,nan,nan,nan,nan
1,359,1,1,1.0,1.0,0.300609710626,0,1.0,0.0,0.0,0.385062350071,0.0721942799268,0.312868070144,0.457256629998,0.0721942799268,0.28476720443,208,0.97651257568,0.025020743352,0.522574479073,nan,nan,nan,nan,0.0,0.0,0.0,nan,209.966475347,640.46625354,640.966271217,640.766863251,nan,nan,nan,nan
1,360,1,1,1.0,1.0,0.356493160129,1,0.0,0.0,1.0,0.38482710595,0.0722309321294,0.31259617382,0.457058038079,0.0722309321294,0.31663990564,264,0.394966959701,0.287889713878,0.650717615019,-94.3789686078,184.378968608,-1.24603139225,262.0,0.416452475899,0.2804144186,0.652815538838,3.28408315964,209.966475347,641.466372997,641.966432012,641.822866157,646.600350442,647.602847329,643.299908084,646.592022164
1,361,1,1,1.0,1.0,0.366189621855,0,0.0,0.0,0.0,0.384748400545,0.0721459553644,0.31260244518,0.456894355909,0.0721459553644,0.341097497536,403,0.00657627305109,0.469456436931,-0.450524507496,nan,nan,nan,nan,0.0,0.0,0.0,nan,209.966475347,647.800525891,648.300564379,648.166715513,nan,nan,nan,nan
