block,trial,freq_trials,correct_response,actual_response,acc,rts,probe_trials,fast_rt_trigger,slow_rt_trigger,rt_triggered,rts_runningavg,rts_runningstd,rts_runningfastthresh,rts_runningslowthresh,rts_runningstd,rts_trailingavg,trials_colorind0,trials_colorind1,trials_colorind2,trials_colorind3,trials_colorind4,trials_colorind5,wholereport_resp0,wholereport_resp1,wholereport_resp2,wholereport_resp3,wholereport_resp4,wholereport_resp5,wholereport_respacc0,wholereport_respacc1,wholereport_respacc2,wholereport_respacc3,wholereport_respacc4,wholereport_respacc5,wholereport_respacc_total,wholereport_respcolorind0,wholereport_respcolorind1,wholereport_respcolorind2,wholereport_respcolorind3,wholereport_respcolorind4,wholereport_respcolorind5,wholereport_resporder0,wholereport_resporder1,wholereport_resporder2,wholereport_resporder3,wholereport_resporder4,wholereport_resporder5,wholereport_rts0,wholereport_rts1,wholereport_rts2,wholereport_rts3,wholereport_rts4,wholereport_rts5,time_blockstart,time_encarray_offset,time_encarray_onset,time_response,time_iti_offset,time_iti_onset,time_memprobe_offset,time_memprobe_onset
1,1,1,1,1.0,1.0,0.3967144756752532,0,nan,nan,nan,nan,nan,nan,nan,nan,nan,7,3,5,2,4,6,nan,nan,nan,nan,nan,nan,nan,nan,nan,nan,nan,nan,0.0,nan,nan,nan,nan,nan,nan,nan,nan,nan,nan,nan,nan,nan,nan,nan,nan,nan,nan,922.5496925504995,923.5609713054728,nan,923.957685781148,nan,nan,nan,nan
1,2,1,1,1.0,1.0,0.17151713094790466,0,nan,nan,nan,nan,nan,nan,nan,nan,nan,4,1,2,8,7,6,nan,nan,nan,nan,nan,nan,nan,nan,nan,nan,nan,nan,0.0,nan,nan,nan,nan,nan,nan,nan,nan,nan,nan,nan,nan,nan,nan,nan,nan,nan,nan,922.5496925504995,924.5861765189038,nan,924.7576936498517,nan,nan,nan,nan
1,3,1,1,1.0,1.0,0.24277134469593875,0,nan,nan,nan,nan,nan,nan,nan,nan,nan,2,5,3,1,6,8,nan,nan,nan,nan,nan,nan,nan,nan,nan,nan,nan,nan,0.0,nan,nan,nan,nan,nan,nan,nan,nan,nan,nan,nan,nan,nan,nan,nan,nan,nan,nan,922.5496925504995,925.6028903787665,nan,925.8456617234624,nan,nan,nan,nan
1,4,0,0,0.0,1.0,0.4099204919184558,0,nan,nan,nan,nan,nan,nan,nan,nan,nan,5,7,6,2,8,1,nan,nan,nan,nan,nan,nan,nan,nan,nan,nan,nan,nan,0.0,nan,nan,nan,nan,nan,nan,nan,nan,nan,nan,nan,nan,nan,nan,nan,nan,nan,nan,922.5496925504995,926.6197120056022,nan,927.0296324975207,nan,nan,nan,nan
1,5,1,1,1.0,1.0,0.36915378403500654,0,nan,nan,nan,nan,nan,nan,nan,nan,nan,6,3,0,5,4,2,nan,nan,nan,nan,nan,nan,nan,nan,nan,nan,nan,nan,0.0,nan,nan,nan,nan,nan,nan,nan,nan,nan,nan,nan,nan,nan,nan,nan,nan,nan,nan,922.5496925504995,927.636492863443,nan,928.005646647478,nan,nan,nan,nan
1,6,1,1,1.0,1.0,0.3763054629380349,0,nan,nan,nan,nan,nan,nan,nan,nan,nan,1,4,5,6,3,0,nan,nan,nan,nan,nan,nan,nan,nan,nan,nan,nan,nan,0.0,nan,nan,nan,nan,nan,nan,nan,nan,nan,nan,nan,nan,nan,nan,nan,nan,nan,nan,922.5496925504995,928.6532908271474,nan,929.0295962900855,nan,nan,nan,nan
1,7,1,1,1.0,1.0,0.3594932442938443,0,nan,nan,nan,nan,nan,nan,nan,nan,nan,4,6,1,8,0,7,nan,nan,nan,nan,nan,nan,nan,nan,nan,nan,nan,nan,0.0,nan,nan,nan,nan,nan,nan,nan,nan,nan,nan,nan,nan,nan,nan,nan,nan,nan,nan,922.5496925504995,929.6700916418631,nan,930.029584886157,nan,nan,nan,nan
1,8,1,1,1.0,1.0,0.3586801453202497,0,nan,nan,nan,nan,nan,nan,nan,nan,nan,1,0,2,7,5,6,nan,nan,nan,nan,nan,nan,nan,nan,nan,nan,nan,nan,0.0,nan,nan,nan,nan,nan,nan,nan,nan,nan,nan,nan,nan,nan,nan,nan,nan,nan,nan,922.5496925504995,930.6868893204664,nan,931.0455694657867,nan,nan,nan,nan
1,9,1,1,1.0,1.0,0.293844053754583,0,nan,nan,nan,nan,nan,nan,nan,nan,nan,7,5,0,4,3,1,nan,nan,nan,nan,nan,nan,nan,nan,nan,nan,nan,nan,0.0,nan,nan,nan,nan,nan,nan,nan,nan,nan,nan,nan,nan,nan,nan,nan,nan,nan,nan,922.5496925504995,931.7036944116408,nan,931.9975384653953,nan,nan,nan,nan
1,10,1,1,1.0,1.0,0.3170741094800178,0,nan,nan,nan,nan,nan,nan,nan,nan,nan,8,1,3,2,4,7,nan,nan,nan,nan,nan,nan,nan,nan,nan,nan,nan,nan,0.0,nan,nan,nan,nan,nan,nan,nan,nan,nan,nan,nan,nan,nan,nan,nan,nan,nan,nan,922.5496925504995,932.7204601592966,nan,933.0375342687767,nan,nan,nan,nan
1,11,1,1,1.0,1.0,0.3642361317179166,0,nan,nan,nan,nan,nan,nan,nan,nan,nan,1,8,5,7,2,6,nan,nan,nan,nan,nan,nan,nan,nan,nan,nan,nan,nan,0.0,nan,nan,nan,nan,nan,nan,nan,nan,nan,nan,nan,nan,nan,nan,nan,nan,nan,nan,922.5496925504995,933.7372883433709,nan,934.1015244750888,nan,nan,nan,nan
1,12,1,1,1.0,1.0,0.4190992163203191,0,nan,nan,nan,nan,nan,nan,nan,nan,nan,3,7,4,0,6,2,nan,nan,nan,nan,nan,nan,nan,nan,nan,nan,nan,nan,0.0,nan,nan,nan,nan,nan,nan,nan,nan,nan,nan,nan,nan,nan,nan,nan,nan,nan,nan,922.5496925504995,934.7623977639305,nan,935.1814969802508,nan,nan,nan,nan
1,13,1,1,1.0,1.0,0.5862740223528817,0,nan,nan,nan,nan,nan,nan,nan,nan,nan,1,6,0,7,4,8,nan,nan,nan,nan,nan,nan,nan,nan,nan,nan,nan,nan,0.0,nan,nan,nan,nan,nan,nan,nan,nan,nan,nan,nan,nan,nan,nan,nan,nan,nan,nan,922.5496925504995,935.7792062762601,nan,936.365480298613,nan,nan,nan,nan
1,14,1,1,1.0,1.0,0.5454434525454417,0,nan,nan,nan,nan,nan,nan,nan,nan,nan,3,7,1,8,0,4,nan,nan,nan,nan,nan,nan,nan,nan,nan,nan,nan,nan,0.0,nan,nan,nan,nan,nan,nan,nan,nan,nan,nan,nan,nan,nan,nan,nan,nan,nan,nan,922.5496925504995,936.7960164991964,nan,937.3414599517419,nan,nan,nan,nan
1,15,1,1,1.0,1.0,0.4646410276181996,0,nan,nan,nan,nan,nan,nan,nan,nan,nan,1,4,3,0,8,7,nan,nan,nan,nan,nan,nan,nan,nan,nan,nan,nan,nan,0.0,nan,nan,nan,nan,nan,nan,nan,nan,nan,nan,nan,nan,nan,nan,nan,nan,nan,nan,922.5496925504995,937.8128030590015,nan,938.2774440866197,nan,nan,nan,nan
1,16,1,1,1.0,1.0,0.3838120886066463,1,nan,nan,nan,nan,nan,nan,nan,nan,nan,7,8,6,3,2,4,1.0,1.0,1.0,1.0,1.0,1.0,1.0,0.0,0.0,0.0,0.0,0.0,1.0,7.0,5.0,0.0,2.0,3.0,2.0,3.0,2.0,1.0,6.0,5.0,4.0,7.202821727201808,5.547490740020294,2.9978170059912372,11.938382947962964,11.202825148386182,10.21886617736891,922.5496925504995,938.8296033034858,939.6380275450065,939.2134153920924,952.6313593920495,953.6324937962636,940.6548192365735,952.6230271230743
1,17,1,1,1.0,1.0,0.5565933433244936,0,nan,nan,nan,nan,nan,nan,nan,nan,nan,5,2,7,6,8,1,nan,nan,nan,nan,nan,nan,nan,nan,nan,nan,nan,nan,0.0,nan,nan,nan,nan,nan,nan,nan,nan,nan,nan,nan,nan,nan,nan,nan,nan,nan,nan,922.5496925504995,953.8565359245986,nan,954.4131292679231,nan,nan,nan,nan
1,18,1,1,1.0,1.0,0.7237567454285454,0,nan,nan,nan,nan,nan,nan,nan,nan,nan,7,0,3,8,4,5,nan,nan,nan,nan,nan,nan,nan,nan,nan,nan,nan,nan,0.0,nan,nan,nan,nan,nan,nan,nan,nan,nan,nan,nan,nan,nan,nan,nan,nan,nan,nan,922.5496925504995,954.8733504239935,nan,955.5971071694221,nan,nan,nan,nan
1,19,1,1,1.0,1.0,0.6509652842069045,0,nan,nan,nan,nan,nan,nan,nan,nan,nan,0,2,8,4,6,3,nan,nan,nan,nan,nan,nan,nan,nan,nan,nan,nan,nan,0.0,nan,nan,nan,nan,nan,nan,nan,nan,nan,nan,nan,nan,nan,nan,nan,nan,nan,nan,922.5496925504995,955.8901518088824,nan,956.5411170930893,nan,nan,nan,nan
1,20,1,1,1.0,1.0,0.5861622639931738,0,nan,nan,nan,nan,nan,nan,nan,nan,nan,7,8,2,1,4,6,nan,nan,nan,nan,nan,nan,nan,nan,nan,nan,nan,nan,0.0,nan,nan,nan,nan,nan,nan,nan,nan,nan,nan,nan,nan,nan,nan,nan,nan,nan,nan,922.5496925504995,956.9069369432109,nan,957.4930992072041,nan,nan,nan,nan
1,21,1,1,1.0,1.0,0.4733279582869727,0,nan,nan,nan,nan,nan,nan,nan,nan,nan,2,6,3,7,0,8,nan,nan,nan,nan,nan,nan,nan,nan,nan,nan,nan,nan,0.0,nan,nan,nan,nan,nan,nan,nan,nan,nan,nan,nan,nan,nan,nan,nan,nan,nan,nan,922.5496925504995,957.923738898302,nan,958.3970668565889,nan,nan,nan,nan
1,22,1,1,1.0,1.0,0.48053123988211155,0,nan,nan,nan,nan,nan,nan,nan,nan,nan,8,5,7,2,1,4,nan,nan,nan,nan,nan,nan,nan,nan,nan,nan,nan,nan,0.0,nan,nan,nan,nan,nan,nan,nan,nan,nan,nan,nan,nan,nan,nan,nan,nan,nan,nan,922.5496925504995,958.9405405682919,nan,959.421071808174,nan,nan,nan,nan
1,23,1,1,1.0,1.0,0.4957540381292347,0,nan,nan,nan,nan,nan,nan,nan,nan,nan,0,3,8,5,4,7,nan,nan,nan,nan,nan,nan,nan,nan,nan,nan,nan,nan,0.0,nan,nan,nan,nan,nan,nan,nan,nan,nan,nan,nan,nan,nan,nan,nan,nan,nan,nan,922.5496925504995,959.957309452031,nan,960.4530634901603,nan,nan,nan,nan
1,24,1,1,1.0,1.0,0.44691136421170086,0,nan,nan,nan,nan,nan,nan,nan,nan,nan,8,1,3,7,0,6,nan,nan,nan,nan,nan,nan,nan,nan,nan,nan,nan,nan,0.0,nan,nan,nan,nan,nan,nan,nan,nan,nan,nan,nan,nan,nan,nan,nan,nan,nan,nan,922.5496925504995,960.9741364957299,nan,961.4210478599416,nan,nan,nan,nan
1,25,1,1,1.0,1.0,0.3660827102721669,0,nan,nan,nan,nan,nan,nan,nan,nan,nan,1,0,7,6,5,3,nan,nan,nan,nan,nan,nan,nan,nan,nan,nan,nan,nan,0.0,nan,nan,nan,nan,nan,nan,nan,nan,nan,nan,nan,nan,nan,nan,nan,nan,nan,nan,922.5496925504995,961.990933319059,nan,962.3570160293311,nan,nan,nan,nan
1,26,1,1,1.0,1.0,0.357280029944377,0,nan,nan,nan,nan,nan,nan,nan,nan,nan,4,7,3,1,8,5,nan,nan,nan,nan,nan,nan,nan,nan,nan,nan,nan,nan,0.0,nan,nan,nan,nan,nan,nan,nan,nan,nan,nan,nan,nan,nan,nan,nan,nan,nan,nan,922.5496925504995,963.007717598055,nan,963.3649976279994,nan,nan,nan,nan
1,27,1,1,1.0,1.0,0.38046218917588703,0,nan,nan,nan,nan,nan,nan,nan,nan,nan,1,4,2,0,5,6,nan,nan,nan,nan,nan,nan,nan,nan,nan,nan,nan,nan,0.0,nan,nan,nan,nan,nan,nan,nan,nan,nan,nan,nan,nan,nan,nan,nan,nan,nan,nan,922.5496925504995,964.0245278209914,nan,964.4049900101672,nan,nan,nan,nan
1,28,1,1,1.0,1.0,0.3633509029750712,0,nan,nan,nan,nan,nan,nan,nan,nan,nan,3,2,1,8,4,0,nan,nan,nan,nan,nan,nan,nan,nan,nan,nan,nan,nan,0.0,nan,nan,nan,nan,nan,nan,nan,nan,nan,nan,nan,nan,nan,nan,nan,nan,nan,nan,922.5496925504995,965.0496534921112,nan,965.4130043950863,nan,nan,nan,nan
1,29,0,0,nan,nan,nan,0,nan,nan,nan,nan,nan,nan,nan,nan,nan,0,5,8,6,1,4,nan,nan,nan,nan,nan,nan,nan,nan,nan,nan,nan,nan,0.0,nan,nan,nan,nan,nan,nan,nan,nan,nan,nan,nan,nan,nan,nan,nan,nan,nan,nan,922.5496925504995,966.0664437582018,nan,nan,nan,nan,nan,nan
1,30,1,1,1.0,1.0,0.4333327251370065,0,nan,nan,nan,nan,nan,nan,nan,nan,nan,7,2,5,1,8,0,nan,nan,nan,nan,nan,nan,nan,nan,nan,nan,nan,nan,0.0,nan,nan,nan,nan,nan,nan,nan,nan,nan,nan,nan,nan,nan,nan,nan,nan,nan,nan,922.5496925504995,967.0915745610546,nan,967.5249072861916,nan,nan,nan,nan
1,31,1,1,1.0,1.0,0.5205475702823605,0,nan,nan,nan,nan,nan,nan,nan,nan,nan,2,4,0,6,1,5,nan,nan,nan,nan,nan,nan,nan,nan,nan,nan,nan,nan,0.0,nan,nan,nan,nan,nan,nan,nan,nan,nan,nan,nan,nan,nan,nan,nan,nan,nan,nan,922.5496925504995,968.1083699589071,nan,968.6289175291895,nan,nan,nan,nan
1,32,1,1,1.0,1.0,0.4873838511412032,1,nan,nan,nan,nan,nan,nan,nan,nan,nan,5,6,7,0,3,8,1.0,1.0,1.0,1.0,1.0,1.0,0.0,0.0,1.0,1.0,0.0,1.0,3.0,0.0,5.0,7.0,0.0,4.0,8.0,3.0,2.0,1.0,6.0,5.0,4.0,4.514392878481885,2.5709913535392843,1.0131937570404261,9.450031189684523,8.522923005337361,6.987709432840347,922.5496925504995,969.1335067488544,969.9419304201729,969.6208905999956,980.4516035041888,981.4623913207033,970.958727528603,980.4432675289572
1,33,1,1,1.0,1.0,0.4875192726321984,0,nan,nan,nan,nan,nan,nan,nan,nan,nan,6,2,8,7,0,1,nan,nan,nan,nan,nan,nan,nan,nan,nan,nan,nan,nan,0.0,nan,nan,nan,nan,nan,nan,nan,nan,nan,nan,nan,nan,nan,nan,nan,nan,nan,nan,922.5496925504995,981.6851239947428,nan,982.172643267375,nan,nan,nan,nan
1,34,1,1,1.0,1.0,0.4707213088986464,0,nan,nan,nan,nan,nan,nan,nan,nan,nan,3,4,0,8,2,6,nan,nan,nan,nan,nan,nan,nan,nan,nan,nan,nan,nan,0.0,nan,nan,nan,nan,nan,nan,nan,nan,nan,nan,nan,nan,nan,nan,nan,nan,nan,nan,922.5496925504995,982.7019233839528,nan,983.1726446928515,nan,nan,nan,nan
1,35,0,0,nan,nan,nan,0,nan,nan,nan,nan,nan,nan,nan,nan,nan,2,6,1,7,5,3,nan,nan,nan,nan,nan,nan,nan,nan,nan,nan,nan,nan,0.0,nan,nan,nan,nan,nan,nan,nan,nan,nan,nan,nan,nan,nan,nan,nan,nan,nan,nan,922.5496925504995,983.7270424978342,nan,nan,nan,nan,nan,nan
1,36,1,1,1.0,1.0,0.7087922458013054,0,nan,nan,nan,nan,nan,nan,nan,nan,nan,8,1,6,0,3,4,nan,nan,nan,nan,nan,nan,nan,nan,nan,nan,nan,nan,0.0,nan,nan,nan,nan,nan,nan,nan,nan,nan,nan,nan,nan,nan,nan,nan,nan,nan,nan,922.5496925504995,984.7438535760448,nan,985.4526458218461,nan,nan,nan,nan
1,37,1,1,1.0,1.0,0.5076092609087937,0,nan,nan,nan,nan,nan,nan,nan,nan,nan,0,7,3,5,2,1,nan,nan,nan,nan,nan,nan,nan,nan,nan,nan,nan,nan,0.0,nan,nan,nan,nan,nan,nan,nan,nan,nan,nan,nan,nan,nan,nan,nan,nan,nan,nan,922.5496925504995,985.7689858044032,nan,986.276595065312,nan,nan,nan,nan
1,38,1,1,1.0,1.0,0.6027980070502963,0,nan,nan,nan,nan,nan,nan,nan,nan,nan,5,4,2,3,7,8,nan,nan,nan,nan,nan,nan,nan,nan,nan,nan,nan,nan,0.0,nan,nan,nan,nan,nan,nan,nan,nan,nan,nan,nan,nan,nan,nan,nan,nan,nan,nan,922.5496925504995,986.7857797767501,nan,987.3885777838004,nan,nan,nan,nan
1,39,1,1,1.0,1.0,0.5459771556779742,0,nan,nan,nan,nan,nan,nan,nan,nan,nan,8,7,1,6,2,3,nan,nan,nan,nan,nan,nan,nan,nan,nan,nan,nan,nan,0.0,nan,nan,nan,nan,nan,nan,nan,nan,nan,nan,nan,nan,nan,nan,nan,nan,nan,nan,922.5496925504995,987.8025780255848,nan,988.3485551812628,nan,nan,nan,nan
1,40,1,1,1.0,1.0,0.4171628319018055,0,nan,nan,nan,nan,nan,nan,nan,nan,nan,4,3,0,5,8,1,nan,nan,nan,nan,nan,nan,nan,nan,nan,nan,nan,nan,0.0,nan,nan,nan,nan,nan,nan,nan,nan,nan,nan,nan,nan,nan,nan,nan,nan,nan,nan,922.5496925504995,988.8193771296937,nan,989.2365399615956,nan,nan,nan,nan
1,41,1,1,1.0,1.0,0.39234962800401263,0,nan,nan,nan,nan,nan,nan,nan,nan,nan,2,4,6,1,7,5,nan,nan,nan,nan,nan,nan,nan,nan,nan,nan,nan,nan,0.0,nan,nan,nan,nan,nan,nan,nan,nan,nan,nan,nan,nan,nan,nan,nan,nan,nan,nan,922.5496925504995,989.8361716722429,nan,990.2285213002469,nan,nan,nan,nan
1,42,1,1,1.0,1.0,0.36754526212462224,0,nan,nan,nan,nan,nan,nan,nan,nan,nan,0,2,8,4,1,7,nan,nan,nan,nan,nan,nan,nan,nan,nan,nan,nan,nan,0.0,nan,nan,nan,nan,nan,nan,nan,nan,nan,nan,nan,nan,nan,nan,nan,nan,nan,nan,922.5496925504995,990.8529679253697,nan,991.2205131874944,nan,nan,nan,nan
1,43,1,1,1.0,1.0,0.35068657257943414,0,nan,nan,nan,nan,nan,nan,nan,nan,nan,6,5,7,8,3,0,nan,nan,nan,nan,nan,nan,nan,nan,nan,nan,nan,nan,0.0,nan,nan,nan,nan,nan,nan,nan,nan,nan,nan,nan,nan,nan,nan,nan,nan,nan,nan,922.5496925504995,991.869770450634,nan,992.2204570232134,nan,nan,nan,nan
1,44,1,1,1.0,1.0,0.4298790500906762,0,nan,nan,nan,nan,nan,nan,nan,nan,nan,5,3,8,4,1,6,nan,nan,nan,nan,nan,nan,nan,nan,nan,nan,nan,nan,0.0,nan,nan,nan,nan,nan,nan,nan,nan,nan,nan,nan,nan,nan,nan,nan,nan,nan,nan,922.5496925504995,992.8865664186887,nan,993.3164454687794,nan,nan,nan,nan
1,45,1,1,1.0,1.0,0.44437941047362983,0,nan,nan,nan,nan,nan,nan,nan,nan,nan,2,5,4,6,7,8,nan,nan,nan,nan,nan,nan,nan,nan,nan,nan,nan,nan,0.0,nan,nan,nan,nan,nan,nan,nan,nan,nan,nan,nan,nan,nan,nan,nan,nan,nan,nan,922.5496925504995,993.920042890124,nan,994.3644223005977,nan,nan,nan,nan
1,46,0,0,0.0,1.0,0.635266657685861,0,nan,nan,nan,nan,nan,nan,nan,nan,nan,0,8,3,7,2,4,nan,nan,nan,nan,nan,nan,nan,nan,nan,nan,nan,nan,0.0,nan,nan,nan,nan,nan,nan,nan,nan,nan,nan,nan,nan,nan,nan,nan,nan,nan,nan,922.5496925504995,994.9451491746004,nan,995.5804158322862,nan,nan,nan,nan
1,47,1,1,1.0,1.0,0.5704513782984577,0,nan,nan,nan,nan,nan,nan,nan,nan,nan,3,6,2,0,5,1,nan,nan,nan,nan,nan,nan,nan,nan,nan,nan,nan,nan,0.0,nan,nan,nan,nan,nan,nan,nan,nan,nan,nan,nan,nan,nan,nan,nan,nan,nan,nan,922.5496925504995,995.9619616782875,nan,996.5324130565859,nan,nan,nan,nan
1,48,1,1,1.0,1.0,0.6256243642128538,0,nan,nan,nan,nan,nan,nan,nan,nan,nan,8,0,7,1,4,6,nan,nan,nan,nan,nan,nan,nan,nan,nan,nan,nan,nan,0.0,nan,nan,nan,nan,nan,nan,nan,nan,nan,nan,nan,nan,nan,nan,nan,nan,nan,nan,922.5496925504995,996.9787547953601,nan,997.604379159573,nan,nan,nan,nan
1,49,1,1,1.0,1.0,0.7127992956957314,0,nan,nan,nan,nan,nan,nan,nan,nan,nan,4,1,8,5,2,0,nan,nan,nan,nan,nan,nan,nan,nan,nan,nan,nan,nan,0.0,nan,nan,nan,nan,nan,nan,nan,nan,nan,nan,nan,nan,nan,nan,nan,nan,nan,nan,922.5496925504995,997.9955596014042,nan,998.7083588971,nan,nan,nan,nan
1,50,1,1,1.0,1.0,0.6320022876316216,0,nan,nan,nan,nan,nan,nan,nan,nan,nan,5,8,1,3,6,7,nan,nan,nan,nan,nan,nan,nan,nan,nan,nan,nan,nan,0.0,nan,nan,nan,nan,nan,nan,nan,nan,nan,nan,nan,nan,nan,nan,nan,nan,nan,nan,922.5496925504995,999.0123512929713,nan,999.6443535806029,nan,nan,nan,nan
1,51,1,1,1.0,1.0,0.5751660409732722,1,nan,nan,nan,nan,nan,nan,nan,nan,nan,1,5,3,4,7,8,1.0,1.0,1.0,1.0,1.0,1.0,0.0,1.0,1.0,0.0,0.0,0.0,2.0,4.0,5.0,3.0,5.0,6.0,1.0,3.0,2.0,1.0,6.0,5.0,4.0,4.0605456544144545,2.2514577051624656,1.3079478430736344,8.754190652893158,6.282512270612642,5.363236863835482,922.5496925504995,1000.0291672178719,1000.8375737833267,1000.6043332588451,1010.6388221126399,1011.6479061845748,1001.8460862341162,1010.6304527809552
1,52,1,1,1.0,1.0,0.45175318053225055,0,nan,nan,nan,nan,nan,nan,nan,nan,nan,0,6,5,8,1,7,nan,nan,nan,nan,nan,nan,nan,nan,nan,nan,nan,nan,0.0,nan,nan,nan,nan,nan,nan,nan,nan,nan,nan,nan,nan,nan,nan,nan,nan,nan,nan,922.5496925504995,1011.8723485902592,nan,1012.3241017707915,nan,nan,nan,nan
1,53,1,1,1.0,1.0,0.37896571069722995,0,nan,nan,nan,nan,nan,nan,nan,nan,nan,7,5,1,2,3,4,nan,nan,nan,nan,nan,nan,nan,nan,nan,nan,nan,nan,0.0,nan,nan,nan,nan,nan,nan,nan,nan,nan,nan,nan,nan,nan,nan,nan,nan,nan,nan,922.5496925504995,1012.8891431328084,nan,1013.2681088435056,nan,nan,nan,nan
1,54,1,1,1.0,1.0,0.33014555953559466,0,nan,nan,nan,nan,nan,nan,nan,nan,nan,0,4,5,8,6,7,nan,nan,nan,nan,nan,nan,nan,nan,nan,nan,nan,nan,0.0,nan,nan,nan,nan,nan,nan,nan,nan,nan,nan,nan,nan,nan,nan,nan,nan,nan,nan,922.5496925504995,1013.9059382455307,nan,1014.2360838050663,nan,nan,nan,nan
1,55,1,1,1.0,1.0,0.36135863937670365,0,nan,nan,nan,nan,nan,nan,nan,nan,nan,4,7,2,0,1,5,nan,nan,nan,nan,nan,nan,nan,nan,nan,nan,nan,nan,0.0,nan,nan,nan,nan,nan,nan,nan,nan,nan,nan,nan,nan,nan,nan,nan,nan,nan,nan,922.5496925504995,1014.9227225245559,nan,1015.2840811639326,nan,nan,nan,nan
1,56,0,0,0.0,1.0,0.49652579793473706,0,nan,nan,nan,nan,nan,nan,nan,nan,nan,1,6,3,2,8,7,nan,nan,nan,nan,nan,nan,nan,nan,nan,nan,nan,nan,0.0,nan,nan,nan,nan,nan,nan,nan,nan,nan,nan,nan,nan,nan,nan,nan,nan,nan,nan,922.5496925504995,1015.9395358835463,nan,1016.4360616814811,nan,nan,nan,nan
1,57,1,1,1.0,1.0,0.39172070220229216,0,nan,nan,nan,nan,nan,nan,nan,nan,nan,6,2,7,8,1,5,nan,nan,nan,nan,nan,nan,nan,nan,nan,nan,nan,nan,0.0,nan,nan,nan,nan,nan,nan,nan,nan,nan,nan,nan,nan,nan,nan,nan,nan,nan,nan,922.5496925504995,1016.9563312813989,nan,1017.3480519836012,nan,nan,nan,nan
1,58,1,1,1.0,1.0,0.4068767875432968,0,nan,nan,nan,nan,nan,nan,nan,nan,nan,4,3,5,1,0,8,nan,nan,nan,nan,nan,nan,nan,nan,nan,nan,nan,nan,0.0,nan,nan,nan,nan,nan,nan,nan,nan,nan,nan,nan,nan,nan,nan,nan,nan,nan,nan,922.5496925504995,1017.9731380831508,nan,1018.3800148706941,nan,nan,nan,nan
1,59,1,1,1.0,1.0,0.4780993554450106,0,nan,nan,nan,nan,nan,nan,nan,nan,nan,0,5,6,7,1,2,nan,nan,nan,nan,nan,nan,nan,nan,nan,nan,nan,nan,0.0,nan,nan,nan,nan,nan,nan,nan,nan,nan,nan,nan,nan,nan,nan,nan,nan,nan,nan,922.5496925504995,1018.9899138092296,nan,1019.4680131646746,nan,nan,nan,nan
1,60,1,1,1.0,1.0,0.557258191431174,0,nan,nan,nan,nan,nan,nan,nan,nan,nan,3,6,5,1,4,7,nan,nan,nan,nan,nan,nan,nan,nan,nan,nan,nan,nan,0.0,nan,nan,nan,nan,nan,nan,nan,nan,nan,nan,nan,nan,nan,nan,nan,nan,nan,nan,922.5496925504995,1020.0067328701844,nan,1020.5639910616155,nan,nan,nan,nan
1,61,1,1,1.0,1.0,0.5161382473597769,0,nan,nan,nan,nan,nan,nan,nan,nan,nan,7,4,3,5,2,0,nan,nan,nan,nan,nan,nan,nan,nan,nan,nan,nan,nan,0.0,nan,nan,nan,nan,nan,nan,nan,nan,nan,nan,nan,nan,nan,nan,nan,nan,nan,nan,922.5496925504995,1021.0318388695596,nan,1021.5479771169194,nan,nan,nan,nan
1,62,1,1,1.0,1.0,0.5952953727392014,0,nan,nan,nan,nan,nan,nan,nan,nan,nan,6,3,7,8,0,2,nan,nan,nan,nan,nan,nan,nan,nan,nan,nan,nan,nan,0.0,nan,nan,nan,nan,nan,nan,nan,nan,nan,nan,nan,nan,nan,nan,nan,nan,nan,nan,922.5496925504995,1022.0486579305143,nan,1022.6439533032535,nan,nan,nan,nan
1,63,1,1,1.0,1.0,0.5464364482613746,0,nan,nan,nan,nan,nan,nan,nan,nan,nan,8,7,5,1,2,6,nan,nan,nan,nan,nan,nan,nan,nan,nan,nan,nan,nan,0.0,nan,nan,nan,nan,nan,nan,nan,nan,nan,nan,nan,nan,nan,nan,nan,nan,nan,nan,922.5496925504995,1023.0654596005043,nan,1023.6118960487656,nan,nan,nan,nan
1,64,1,1,1.0,1.0,0.4096909881627653,0,nan,nan,nan,nan,nan,nan,nan,nan,nan,2,6,3,8,4,7,nan,nan,nan,nan,nan,nan,nan,nan,nan,nan,nan,nan,0.0,nan,nan,nan,nan,nan,nan,nan,nan,nan,nan,nan,nan,nan,nan,nan,nan,nan,nan,922.5496925504995,1024.0822381775652,nan,1024.491929165728,nan,nan,nan,nan
1,65,1,1,1.0,1.0,0.43249311204999685,0,nan,nan,nan,nan,nan,nan,nan,nan,nan,6,0,4,7,1,5,nan,nan,nan,nan,nan,nan,nan,nan,nan,nan,nan,nan,0.0,nan,nan,nan,nan,nan,nan,nan,nan,nan,nan,nan,nan,nan,nan,nan,nan,nan,nan,922.5496925504995,1025.1073806694476,nan,1025.5398737814976,nan,nan,nan,nan
1,66,1,1,1.0,1.0,0.39170530694536865,0,nan,nan,nan,nan,nan,nan,nan,nan,nan,7,5,6,8,4,0,nan,nan,nan,nan,nan,nan,nan,nan,nan,nan,nan,nan,0.0,nan,nan,nan,nan,nan,nan,nan,nan,nan,nan,nan,nan,nan,nan,nan,nan,nan,nan,922.5496925504995,1026.1241777778778,nan,1026.5158830848231,nan,nan,nan,nan
1,67,1,1,1.0,1.0,0.4145310939056799,0,nan,nan,nan,nan,nan,nan,nan,nan,nan,4,1,7,3,2,5,nan,nan,nan,nan,nan,nan,nan,nan,nan,nan,nan,nan,0.0,nan,nan,nan,nan,nan,nan,nan,nan,nan,nan,nan,nan,nan,nan,nan,nan,nan,nan,922.5496925504995,1027.1493385160284,nan,1027.563869609934,nan,nan,nan,nan
1,68,1,1,1.0,1.0,0.46172191100777127,1,nan,nan,nan,nan,nan,nan,nan,nan,nan,5,8,3,6,7,4,1.0,1.0,1.0,1.0,1.0,1.0,0.0,0.0,1.0,0.0,0.0,0.0,1.0,4.0,5.0,3.0,4.0,2.0,8.0,3.0,2.0,1.0,6.0,5.0,4.0,6.7854986703023314,5.585274184268201,3.0196743156411685,10.528401445102645,9.409013880853308,8.584994503326016,922.5496925504995,1028.166118803696,1028.974523373472,1028.6278407147038,1040.559351379663,1041.568174587068,1029.9913370175636,1040.5510128385213
1,69,1,1,1.0,1.0,0.5547265227651224,0,nan,nan,nan,nan,nan,nan,nan,nan,nan,4,7,6,5,0,1,nan,nan,nan,nan,nan,nan,nan,nan,nan,nan,nan,nan,0.0,nan,nan,nan,nan,nan,nan,nan,nan,nan,nan,nan,nan,nan,nan,nan,nan,nan,nan,922.5496925504995,1041.7928781423543,nan,1042.3476046651194,nan,nan,nan,nan
1,70,1,1,1.0,1.0,0.5939100824180059,0,nan,nan,nan,nan,nan,nan,nan,nan,nan,2,0,5,3,7,6,nan,nan,nan,nan,nan,nan,nan,nan,nan,nan,nan,nan,0.0,nan,nan,nan,nan,nan,nan,nan,nan,nan,nan,nan,nan,nan,nan,nan,nan,nan,nan,922.5496925504995,1042.8096644170582,nan,1043.4035744994762,nan,nan,nan,nan
1,71,1,1,1.0,1.0,0.5770733453973662,0,nan,nan,nan,nan,nan,nan,nan,nan,nan,7,3,0,4,2,8,nan,nan,nan,nan,nan,nan,nan,nan,nan,nan,nan,nan,0.0,nan,nan,nan,nan,nan,nan,nan,nan,nan,nan,nan,nan,nan,nan,nan,nan,nan,nan,922.5496925504995,1043.8264874693996,nan,1044.403560814797,nan,nan,nan,nan
1,72,1,1,1.0,1.0,0.44830891376477666,0,nan,nan,nan,nan,nan,nan,nan,nan,nan,8,6,3,7,1,2,nan,nan,nan,nan,nan,nan,nan,nan,nan,nan,nan,nan,0.0,nan,nan,nan,nan,nan,nan,nan,nan,nan,nan,nan,nan,nan,nan,nan,nan,nan,nan,922.5496925504995,1044.8432440939068,nan,1045.2915530076716,nan,nan,nan,nan
1,73,1,1,1.0,1.0,0.4074635189026594,0,nan,nan,nan,nan,nan,nan,nan,nan,nan,3,0,2,6,5,8,nan,nan,nan,nan,nan,nan,nan,nan,nan,nan,nan,nan,0.0,nan,nan,nan,nan,nan,nan,nan,nan,nan,nan,nan,nan,nan,nan,nan,nan,nan,nan,922.5496925504995,1045.8600711376057,nan,1046.2675346565084,nan,nan,nan,nan
1,74,1,1,1.0,1.0,0.3426145979028661,0,nan,nan,nan,nan,nan,nan,nan,nan,nan,5,4,6,0,3,7,nan,nan,nan,nan,nan,nan,nan,nan,nan,nan,nan,nan,0.0,nan,nan,nan,nan,nan,nan,nan,nan,nan,nan,nan,nan,nan,nan,nan,nan,nan,nan,922.5496925504995,1046.8768944750482,nan,1047.219509072951,nan,nan,nan,nan
1,75,1,1,1.0,1.0,0.3738273926428519,0,nan,nan,nan,nan,nan,nan,nan,nan,nan,3,2,0,4,7,5,nan,nan,nan,nan,nan,nan,nan,nan,nan,nan,nan,nan,0.0,nan,nan,nan,nan,nan,nan,nan,nan,nan,nan,nan,nan,nan,nan,nan,nan,nan,nan,922.5496925504995,1047.8936647842638,nan,1048.2674921769067,nan,nan,nan,nan
1,76,1,1,1.0,1.0,0.39701496876659803,0,nan,nan,nan,nan,nan,nan,nan,nan,nan,1,7,3,2,6,4,nan,nan,nan,nan,nan,nan,nan,nan,nan,nan,nan,nan,0.0,nan,nan,nan,nan,nan,nan,nan,nan,nan,nan,nan,nan,nan,nan,nan,nan,nan,nan,922.5496925504995,1048.9104587566108,nan,1049.3074737253773,nan,nan,nan,nan
1,77,1,1,1.0,1.0,0.37224538484588265,0,nan,nan,nan,nan,nan,nan,nan,nan,nan,6,2,0,7,4,1,nan,nan,nan,nan,nan,nan,nan,nan,nan,nan,nan,nan,0.0,nan,nan,nan,nan,nan,nan,nan,nan,nan,nan,nan,nan,nan,nan,nan,nan,nan,nan,922.5496925504995,1049.9272096791829,nan,1050.2994550640287,nan,nan,nan,nan
1,78,1,1,1.0,1.0,0.32337733724853024,0,nan,nan,nan,nan,nan,nan,nan,nan,nan,5,1,7,0,6,3,nan,nan,nan,nan,nan,nan,nan,nan,nan,nan,nan,nan,0.0,nan,nan,nan,nan,nan,nan,nan,nan,nan,nan,nan,nan,nan,nan,nan,nan,nan,nan,922.5496925504995,1050.9440612412873,nan,1051.2674385785358,nan,nan,nan,nan
1,79,1,1,1.0,1.0,0.3306202474341262,0,nan,nan,nan,nan,nan,nan,nan,nan,nan,1,8,3,2,4,0,nan,nan,nan,nan,nan,nan,nan,nan,nan,nan,nan,nan,0.0,nan,nan,nan,nan,nan,nan,nan,nan,nan,nan,nan,nan,nan,nan,nan,nan,nan,nan,922.5496925504995,1051.9608053215197,nan,1052.2914255689539,nan,nan,nan,nan
1,80,1,1,1.0,1.0,0.32138393324567005,0,nan,nan,nan,nan,nan,nan,nan,nan,nan,4,2,1,7,3,5,nan,nan,nan,nan,nan,nan,nan,nan,nan,nan,nan,nan,0.0,nan,nan,nan,nan,nan,nan,nan,nan,nan,nan,nan,nan,nan,nan,nan,nan,nan,nan,922.5496925504995,1052.9860125306295,nan,1053.3073964638752,nan,nan,nan,nan
1,81,1,1,1.0,1.0,0.384618915442843,0,0.0,0.0,0.0,0.45540301384253556,0.11048354421639435,0.34491946962614123,0.56588655805893,0.11048354421639435,0.34554103204087977,1,5,7,6,2,0,nan,nan,nan,nan,nan,nan,nan,nan,nan,nan,nan,nan,0.0,nan,nan,nan,nan,nan,nan,nan,nan,nan,nan,nan,nan,nan,nan,nan,nan,nan,nan,922.5496925504995,1054.0027762826066,nan,1054.3873951980495,nan,nan,nan,nan
1,82,1,1,1.0,1.0,0.4077922366850544,0,0.0,0.0,0.0,0.45450701259696985,0.11006688543444904,0.3444401271625208,0.5645738980314189,0.11006688543444904,0.3712650284578558,2,0,6,5,8,7,nan,nan,nan,nan,nan,nan,nan,nan,nan,nan,nan,nan,0.0,nan,nan,nan,nan,nan,nan,nan,nan,nan,nan,nan,nan,nan,nan,nan,nan,nan,nan,922.5496925504995,1055.0195799482754,nan,1055.4273721849604,nan,nan,nan,nan
1,83,1,1,1.0,1.0,0.35864935474819504,0,0.0,0.0,0.0,0.4539230778980709,0.10949987523850567,0.3444232026595652,0.5634229531365765,0.10949987523850567,0.38368683562536415,8,4,3,1,2,5,nan,nan,nan,nan,nan,nan,nan,nan,nan,nan,nan,nan,0.0,nan,nan,nan,nan,nan,nan,nan,nan,nan,nan,nan,nan,nan,nan,nan,nan,nan,nan,922.5496925504995,1056.044686802954,nan,1056.4033361577021,nan,nan,nan,nan
1,84,0,0,nan,nan,nan,0,0.0,0.0,0.0,0.45274685909375145,0.1093292023699031,0.3434176567238484,0.5620760614636545,0.1093292023699031,0.3832207957166247,5,7,8,2,0,1,nan,nan,nan,nan,nan,nan,nan,nan,nan,nan,nan,nan,0.0,nan,nan,nan,nan,nan,nan,nan,nan,nan,nan,nan,nan,nan,nan,nan,nan,nan,nan,922.5496925504995,1057.0615164125047,nan,nan,nan,nan,nan,nan
1,85,1,1,1.0,1.0,0.6290173134184442,0,0.0,0.0,0.0,0.45274685909375145,0.1093292023699031,0.3434176567238484,0.5620760614636545,0.1093292023699031,0.49383333408331964,8,6,3,7,5,0,nan,nan,nan,nan,nan,nan,nan,nan,nan,nan,nan,nan,0.0,nan,nan,nan,nan,nan,nan,nan,nan,nan,nan,nan,nan,nan,nan,nan,nan,nan,nan,922.5496925504995,1058.0782964150712,nan,1058.7073137284897,nan,nan,nan,nan
1,86,1,1,1.0,1.0,0.5318519840657245,0,0.0,0.0,0.0,0.454896498780638,0.11036940129498872,0.34452709748564925,0.5652659000756267,0.11036940129498872,0.5804346487420844,1,3,5,8,2,4,nan,nan,nan,nan,nan,nan,nan,nan,nan,nan,nan,nan,0.0,nan,nan,nan,nan,nan,nan,nan,nan,nan,nan,nan,nan,nan,nan,nan,nan,nan,nan,922.5496925504995,1059.103434630495,nan,1059.6352866145608,nan,nan,nan,nan
1,87,1,1,1.0,1.0,0.6110407552914694,0,0.0,1.0,0.0,0.455823673302145,0.11002332635541734,0.3458003469467277,0.5658469996575624,0.11002332635541734,0.5906366842585461,4,0,1,2,8,3,nan,nan,nan,nan,nan,nan,nan,nan,nan,nan,nan,nan,0.0,nan,nan,nan,nan,nan,nan,nan,nan,nan,nan,nan,nan,nan,nan,nan,nan,nan,nan,922.5496925504995,1060.120239151467,nan,1060.7312799067586,nan,nan,nan,nan
1,88,0,0,0.0,1.0,0.5302255009592045,1,0.0,0.0,1.0,0.45767149570677984,0.11065451991668787,0.34701697579009194,0.5683260156234677,0.11065451991668787,0.5577060801054662,1,7,0,6,3,2,1.0,1.0,1.0,1.0,1.0,1.0,0.0,0.0,0.0,0.0,0.0,0.0,0.0,6.0,8.0,3.0,4.0,2.0,7.0,3.0,2.0,1.0,6.0,5.0,4.0,7.917585917079123,3.990588350687176,2.325934949796647,10.868990993185434,10.197640359372599,9.12516877791495,922.5496925504995,1061.1370391108794,1061.9454488123883,1061.6672646118386,1073.8803099469515,1074.8892434872396,1062.9706009976217,1073.8719788183807
1,89,1,1,1.0,1.0,0.7851391619478818,0,0.0,0.0,0.0,0.4585250722391613,0.11027952007797061,0.3482455521611907,0.5688045923171319,0.11027952007797061,0.6421351393995186,6,0,4,2,1,3,nan,nan,nan,nan,nan,nan,nan,nan,nan,nan,nan,nan,0.0,nan,nan,nan,nan,nan,nan,nan,nan,nan,nan,nan,nan,nan,nan,nan,nan,nan,nan,922.5496925504995,1075.1138338586898,nan,1075.8989730206376,nan,nan,nan,nan
1,90,0,0,nan,nan,nan,0,0.0,0.0,0.0,0.4623229104915883,0.11509197549189498,0.3472309349996933,0.5774148859834833,0.11509197549189498,0.6576823314535432,3,7,6,1,4,8,nan,nan,nan,nan,nan,nan,nan,nan,nan,nan,nan,nan,0.0,nan,nan,nan,nan,nan,nan,nan,nan,nan,nan,nan,nan,nan,nan,nan,nan,nan,nan,922.5496925504995,1076.130623554549,nan,nan,nan,nan,nan,nan
1,91,1,1,1.0,1.0,0.5272117318818346,0,0.0,0.0,0.0,0.4623229104915883,0.11509197549189498,0.3472309349996933,0.5774148859834833,0.11509197549189498,0.6561754469148582,7,2,1,3,6,5,nan,nan,nan,nan,nan,nan,nan,nan,nan,nan,nan,nan,0.0,nan,nan,nan,nan,nan,nan,nan,nan,nan,nan,nan,nan,nan,nan,nan,nan,nan,nan,922.5496925504995,1077.1557529319543,nan,1077.6829646638362,nan,nan,nan,nan
1,92,1,1,1.0,1.0,0.46238732934580185,0,0.0,0.0,0.0,0.46306875901331523,0.11463746778009556,0.3484312912332197,0.5777062267934108,0.11463746778009556,0.4947995306138182,8,5,0,1,4,3,nan,nan,nan,nan,nan,nan,nan,nan,nan,nan,nan,nan,0.0,nan,nan,nan,nan,nan,nan,nan,nan,nan,nan,nan,nan,nan,nan,nan,nan,nan,nan,922.5496925504995,1078.1725605889806,nan,1078.6349479183264,nan,nan,nan,nan
1,93,0,0,0.0,1.0,0.5255744150781538,0,0.0,0.0,0.0,0.46306101549436623,0.11398428040172666,0.3490767350926396,0.5770452958960929,0.11398428040172666,0.5050578254352635,3,0,6,8,2,7,nan,nan,nan,nan,nan,nan,nan,nan,nan,nan,nan,nan,0.0,nan,nan,nan,nan,nan,nan,nan,nan,nan,nan,nan,nan,nan,nan,nan,nan,nan,nan,922.5496925504995,1079.1893545613566,nan,1079.7149289764347,nan,nan,nan,nan
1,94,1,1,1.0,1.0,0.42876631330000237,0,0.0,0.0,0.0,0.4637634132424987,0.11353347472416922,0.3502299385183295,0.5772968879666679,0.11353347472416922,0.472242685907986,8,2,4,7,5,0,nan,nan,nan,nan,nan,nan,nan,nan,nan,nan,nan,nan,0.0,nan,nan,nan,nan,nan,nan,nan,nan,nan,nan,nan,nan,nan,nan,nan,nan,nan,nan,922.5496925504995,1080.2061502442812,nan,1080.6349165575812,nan,nan,nan,nan
1,95,0,0,0.0,1.0,0.5639588455669582,0,0.0,0.0,0.0,0.463374556576471,0.11296055495077123,0.35041400162569974,0.5763351115272421,0.11296055495077123,0.5060998579817048,4,7,2,1,0,3,nan,nan,nan,nan,nan,nan,nan,nan,nan,nan,nan,nan,0.0,nan,nan,nan,nan,nan,nan,nan,nan,nan,nan,nan,nan,nan,nan,nan,nan,nan,nan,922.5496925504995,1081.222943931527,nan,1081.786902777094,nan,nan,nan,nan
1,96,1,1,1.0,1.0,0.4511034426104743,0,0.0,0.0,0.0,0.4644798784335093,0.11282651512604536,0.35165336330746394,0.5773063935595546,0.11282651512604536,0.48127620049247827,0,6,5,7,3,2,nan,nan,nan,nan,nan,nan,nan,nan,nan,nan,nan,nan,0.0,nan,nan,nan,nan,nan,nan,nan,nan,nan,nan,nan,nan,nan,nan,nan,nan,nan,nan,922.5496925504995,1082.2397547246364,nan,1082.690858167247,nan,nan,nan,nan
1,97,1,1,1.0,1.0,0.594310074695386,0,0.0,0.0,0.0,0.4643344823919545,0.11222022375784016,0.3521142586341144,0.5765547061497946,0.11222022375784016,0.5364574542909395,6,2,7,1,4,8,nan,nan,nan,nan,nan,nan,nan,nan,nan,nan,nan,nan,0.0,nan,nan,nan,nan,nan,nan,nan,nan,nan,nan,nan,nan,nan,nan,nan,nan,nan,nan,922.5496925504995,1083.2565509777633,nan,1083.8508610524586,nan,nan,nan,nan
1,98,1,1,1.0,1.0,0.4414899440307636,0,0.0,0.0,0.0,0.46573206940596995,0.11241736919802063,0.3533147002079493,0.5781494386039906,0.11241736919802063,0.495634487112208,1,7,4,0,8,3,nan,nan,nan,nan,nan,nan,nan,nan,nan,nan,nan,nan,0.0,nan,nan,nan,nan,nan,nan,nan,nan,nan,nan,nan,nan,nan,nan,nan,nan,nan,nan,922.5496925504995,1084.2733500818722,nan,1084.714840025903,nan,nan,nan,nan
1,99,1,1,1.0,1.0,0.3766854983114172,0,0.0,0.0,0.0,0.46547417445516986,0.11184546063984874,0.3536287138153211,0.5773196350950186,0.11184546063984874,0.47082850567918894,8,3,0,2,4,6,nan,nan,nan,nan,nan,nan,nan,nan,nan,nan,nan,nan,0.0,nan,nan,nan,nan,nan,nan,nan,nan,nan,nan,nan,nan,nan,nan,nan,nan,nan,nan,922.5496925504995,1085.2901406330639,nan,1085.6668261313753,nan,nan,nan,nan
1,100,1,1,1.0,1.0,0.3838847885490395,0,0.0,0.0,0.0,0.4645395568115514,0.11162364915090625,0.3529159076606452,0.5761632059624576,0.11162364915090625,0.40068674363040674,7,4,8,3,6,1,nan,nan,nan,nan,nan,nan,nan,nan,nan,nan,nan,nan,0.0,nan,nan,nan,nan,nan,nan,nan,nan,nan,nan,nan,nan,nan,nan,nan,nan,nan,nan,922.5496925504995,1086.3069331799052,nan,1086.6908179684542,nan,nan,nan,nan
1,101,1,1,1.0,1.0,0.3830480264441576,0,0.0,0.0,0.0,0.46369940297548357,0.11134229032199558,0.352357112653488,0.5750416932974791,0.11134229032199558,0.3812061044348714,8,2,1,4,5,0,nan,nan,nan,nan,nan,nan,nan,nan,nan,nan,nan,nan,0.0,nan,nan,nan,nan,nan,nan,nan,nan,nan,nan,nan,nan,nan,nan,nan,nan,nan,nan,922.5496925504995,1087.3237408369605,nan,1087.7067888634047,nan,nan,nan,nan
1,102,1,1,1.0,1.0,0.38223264666157775,0,0.0,0.0,0.0,0.4628679454854699,0.1110660491382031,0.3518018963472668,0.573933994623673,0.1110660491382031,0.38305515388492495,2,8,5,6,3,4,nan,nan,nan,nan,nan,nan,nan,nan,nan,nan,nan,nan,0.0,nan,nan,nan,nan,nan,nan,nan,nan,nan,nan,nan,nan,nan,nan,nan,nan,nan,nan,922.5496925504995,1088.3405370900873,nan,1088.722769736749,nan,nan,nan,nan
1,103,1,1,1.0,1.0,0.4054148059512954,0,0.0,0.0,0.0,0.46204513631379757,0.1107946910453806,0.351250445268417,0.5728398273591782,0.1107946910453806,0.3902318263523436,7,2,1,8,4,6,nan,nan,nan,nan,nan,nan,nan,nan,nan,nan,nan,nan,0.0,nan,nan,nan,nan,nan,nan,nan,nan,nan,nan,nan,nan,nan,nan,nan,nan,nan,nan,922.5496925504995,1089.357340755756,nan,1089.7627555617073,nan,nan,nan,nan
1,104,1,1,1.0,1.0,0.34060209238668904,0,0.0,0.0,0.0,0.46147311277478237,0.11037905441454354,0.3510940583602388,0.571852167189326,0.11037905441454354,0.3760831816665207,3,8,4,5,2,7,nan,nan,nan,nan,nan,nan,nan,nan,nan,nan,nan,nan,0.0,nan,nan,nan,nan,nan,nan,nan,nan,nan,nan,nan,nan,nan,nan,nan,nan,nan,nan,922.5496925504995,1090.3741381492873,nan,1090.714740241674,nan,nan,nan,nan
1,105,1,1,1.0,1.0,0.3074705892940983,0,0.0,0.0,0.0,0.46026440257090145,0.11048229429304002,0.34978210827786144,0.5707466968639414,0.11048229429304002,0.3511624958773609,6,7,3,8,0,1,nan,nan,nan,nan,nan,nan,nan,nan,nan,nan,nan,nan,0.0,nan,nan,nan,nan,nan,nan,nan,nan,nan,nan,nan,nan,nan,nan,nan,nan,nan,nan,922.5496925504995,1091.3992541270854,nan,1091.7067247163795,nan,nan,nan,nan
1,106,0,0,0.0,1.0,0.5386173553997651,0,0.0,0.0,0.0,0.4587515925384578,0.11097000471483391,0.3477815878236239,0.5697215972532917,0.11097000471483391,0.3955633456935175,2,0,7,1,8,6,nan,nan,nan,nan,nan,nan,nan,nan,nan,nan,nan,nan,0.0,nan,nan,nan,nan,nan,nan,nan,nan,nan,nan,nan,nan,nan,nan,nan,nan,nan,nan,922.5496925504995,1092.416070337058,nan,1092.9546876924578,nan,nan,nan,nan
1,107,1,1,1.0,1.0,0.4418212276941631,0,0.0,0.0,0.0,0.4595345902135687,0.1107047186215679,0.3488298715920008,0.5702393088351366,0.1107047186215679,0.4293030574626755,0,8,1,4,6,7,nan,nan,nan,nan,nan,nan,nan,nan,nan,nan,nan,nan,0.0,nan,nan,nan,nan,nan,nan,nan,nan,nan,nan,nan,nan,nan,nan,nan,nan,nan,nan,922.5496925504995,1093.4328506247257,nan,1093.8746718524199,nan,nan,nan,nan
1,108,1,1,1.0,1.0,0.417009449301986,0,0.0,0.0,0.0,0.4593626158201764,0.11017969695289984,0.3491829188672766,0.5695423127730762,0.11017969695289984,0.46581601079863805,5,3,7,6,2,0,nan,nan,nan,nan,nan,nan,nan,nan,nan,nan,nan,nan,0.0,nan,nan,nan,nan,nan,nan,nan,nan,nan,nan,nan,nan,nan,nan,nan,nan,nan,nan,922.5496925504995,1094.449648018228,nan,1094.8666574675299,nan,nan,nan,nan
1,109,1,1,1.0,1.0,0.48019282874884084,0,0.0,0.0,0.0,0.4589553738344246,0.10972657458304048,0.3492287992513841,0.5686819484174651,0.10972657458304048,0.44634116858166334,6,5,3,2,0,7,nan,nan,nan,nan,nan,nan,nan,nan,nan,nan,nan,nan,0.0,nan,nan,nan,nan,nan,nan,nan,nan,nan,nan,nan,nan,nan,nan,nan,nan,nan,nan,922.5496925504995,1095.466457670962,nan,1095.9466504997108,nan,nan,nan,nan
1,110,1,1,1.0,1.0,0.43904922157526016,0,0.0,0.0,0.0,0.45915763530979997,0.10922229563182219,0.3499353396779778,0.5683799309416222,0.10922229563182219,0.445417166542029,7,8,2,0,6,5,nan,nan,nan,nan,nan,nan,nan,nan,nan,nan,nan,nan,0.0,nan,nan,nan,nan,nan,nan,nan,nan,nan,nan,nan,nan,nan,nan,nan,nan,nan,nan,922.5496925504995,1096.4915802059986,nan,1096.9306294275739,nan,nan,nan,nan
1,111,1,1,1.0,1.0,0.4462248486815952,0,0.0,0.0,0.0,0.4589679332934364,0.10872325389254733,0.35024467940088905,0.5676911871859838,0.10872325389254733,0.4551556330018987,3,6,7,4,5,1,nan,nan,nan,nan,nan,nan,nan,nan,nan,nan,nan,nan,0.0,nan,nan,nan,nan,nan,nan,nan,nan,nan,nan,nan,nan,nan,nan,nan,nan,nan,nan,922.5496925504995,1097.5083713273634,nan,1097.954596176045,nan,nan,nan,nan
1,112,1,1,1.0,1.0,0.4850950858090073,0,0.0,0.0,0.0,0.4588488390447276,0.1082209550897515,0.3506278839549761,0.5670697941344791,0.1082209550897515,0.4567897186886209,8,4,6,2,1,0,nan,nan,nan,nan,nan,nan,nan,nan,nan,nan,nan,nan,0.0,nan,nan,nan,nan,nan,nan,nan,nan,nan,nan,nan,nan,nan,nan,nan,nan,nan,nan,922.5496925504995,1098.533503840852,nan,1099.018598926661,nan,nan,nan,nan
1,113,1,1,1.0,1.0,0.4762217011884786,0,0.0,0.0,0.0,0.4590918598481006,0.10774809549673774,0.35134376435136283,0.5668399553448383,0.10774809549673774,0.4691805452263604,3,8,1,7,6,4,nan,nan,nan,nan,nan,nan,nan,nan,nan,nan,nan,nan,0.0,nan,nan,nan,nan,nan,nan,nan,nan,nan,nan,nan,nan,nan,nan,nan,nan,nan,nan,922.5496925504995,1099.5503197657235,nan,1100.026541466912,nan,nan,nan,nan
1,114,1,1,1.0,1.0,0.4754422437690664,0,0.0,0.0,0.0,0.45924901435581045,0.1072651334211048,0.3519838809347057,0.5665141477769152,0.1072651334211048,0.4789196769221841,4,1,0,6,3,5,nan,nan,nan,nan,nan,nan,nan,nan,nan,nan,nan,nan,0.0,nan,nan,nan,nan,nan,nan,nan,nan,nan,nan,nan,nan,nan,nan,nan,nan,nan,nan,922.5496925504995,1100.567117729428,nan,1101.042559973197,nan,nan,nan,nan
1,115,1,1,1.0,1.0,0.47462344280211255,0,0.0,0.0,0.0,0.4593962255322946,0.10678751209208301,0.3526087134402116,0.5661837376243776,0.10678751209208301,0.4754291292532192,7,5,8,2,6,1,nan,nan,nan,nan,nan,nan,nan,nan,nan,nan,nan,nan,0.0,nan,nan,nan,nan,nan,nan,nan,nan,nan,nan,nan,nan,nan,nan,nan,nan,nan,nan,922.5496925504995,1101.5839151229593,nan,1102.0585385657614,nan,nan,nan,nan
1,116,1,1,1.0,1.0,0.449835042381892,0,0.0,0.0,0.0,0.4595334076698605,0.10631513501168718,0.3532182726581733,0.5658485426815477,0.10631513501168718,0.4666335763176903,0,2,1,4,5,6,nan,nan,nan,nan,nan,nan,nan,nan,nan,nan,nan,nan,0.0,nan,nan,nan,nan,nan,nan,nan,nan,nan,nan,nan,nan,nan,nan,nan,nan,nan,nan,922.5496925504995,1102.6006999721867,nan,1103.0505350145686,nan,nan,nan,nan
1,117,1,1,1.0,1.0,0.576640852028504,0,0.0,0.0,0.0,0.4594468151226465,0.10584338155790265,0.3536034335647439,0.5652901966805491,0.10584338155790265,0.5003664457375029,7,0,5,2,3,1,nan,nan,nan,nan,nan,nan,nan,nan,nan,nan,nan,nan,0.0,nan,nan,nan,nan,nan,nan,nan,nan,nan,nan,nan,nan,nan,nan,nan,nan,nan,nan,922.5496925504995,1103.6258595699328,nan,1104.2025004219613,nan,nan,nan,nan
1,118,1,1,1.0,1.0,0.5038516715867445,0,0.0,0.0,0.0,0.4604839304934948,0.10594408683736535,0.35453984365612945,0.5664280173308601,0.10594408683736535,0.5101091886657135,4,5,8,3,0,7,nan,nan,nan,nan,nan,nan,nan,nan,nan,nan,nan,nan,0.0,nan,nan,nan,nan,nan,nan,nan,nan,nan,nan,nan,nan,nan,nan,nan,nan,nan,nan,922.5496925504995,1104.6426347258384,nan,1105.1464863974252,nan,nan,nan,nan
1,119,1,1,1.0,1.0,0.7030107470636722,0,0.0,1.0,0.0,0.4608643492750145,0.10555588694388099,0.35530846233113356,0.5664202362188955,0.10555588694388099,0.5945010902263069,3,4,2,7,6,1,nan,nan,nan,nan,nan,nan,nan,nan,nan,nan,nan,nan,0.0,nan,nan,nan,nan,nan,nan,nan,nan,nan,nan,nan,nan,nan,nan,nan,nan,nan,nan,922.5496925504995,1105.659435540525,nan,1106.3624462875887,nan,nan,nan,nan
1,120,1,1,1.0,1.0,0.5662496065488085,1,0.0,0.0,1.0,0.4629699701253507,0.10747368414268049,0.3554962859826702,0.5704436542680311,0.10747368414268049,0.5910373417330751,8,7,5,4,3,0,1.0,1.0,1.0,1.0,1.0,1.0,0.0,0.0,0.0,1.0,0.0,0.0,1.0,1.0,8.0,3.0,4.0,7.0,4.0,4.0,3.0,2.0,1.0,6.0,5.0,5.377215495187556,4.242446333199041,2.51518659084104,1.211813712521689,7.16088811395457,6.433797434583539,922.5496925504995,1106.6761955862457,1107.4846480524575,1107.2424451927945,1115.7023906592804,1116.7121167715231,1108.5014423098764,1115.6940352974052
1,121,1,1,1.0,1.0,0.7064071174245328,0,0.0,0.0,0.0,0.4638603118186564,0.10743453897853251,0.3564257728401239,0.5712948507971889,0.10743453897853251,0.6585558236790044,7,6,3,2,8,5,nan,nan,nan,nan,nan,nan,nan,nan,nan,nan,nan,nan,0.0,nan,nan,nan,nan,nan,nan,nan,nan,nan,nan,nan,nan,nan,nan,nan,nan,nan,nan,922.5496925504995,1116.9358626831963,nan,1117.6422698006209,nan,nan,nan,nan
1,122,1,1,1.0,1.0,0.6651990780956112,0,0.0,0.0,0.0,0.46593336143921943,0.10927965538747207,0.35665370605174734,0.5752130168266915,0.10927965538747207,0.6459519340229841,2,3,4,1,6,7,nan,nan,nan,nan,nan,nan,nan,nan,nan,nan,nan,nan,0.0,nan,nan,nan,nan,nan,nan,nan,nan,nan,nan,nan,nan,nan,nan,nan,nan,nan,nan,922.5496925504995,1117.9610296935134,nan,1118.626228771609,nan,nan,nan,nan
1,123,1,1,1.0,1.0,0.5440778339689132,0,0.0,1.0,0.0,0.4676220539532566,0.11033805403527262,0.357283999917984,0.5779601079885293,0.11033805403527262,0.638561343163019,4,2,5,7,3,6,nan,nan,nan,nan,nan,nan,nan,nan,nan,nan,nan,nan,0.0,nan,nan,nan,nan,nan,nan,nan,nan,nan,nan,nan,nan,nan,nan,nan,nan,nan,nan,922.5496925504995,1118.9861533689545,nan,1119.5302312029235,nan,nan,nan,nan
1,124,1,1,1.0,1.0,0.5752390260167886,1,0.0,0.0,1.0,0.46826453949960667,0.11009490682021685,0.35816963267938984,0.5783594463198235,0.11009490682021685,0.5948386460271043,8,7,2,6,4,1,1.0,1.0,1.0,1.0,1.0,1.0,0.0,0.0,0.0,1.0,1.0,0.0,2.0,1.0,3.0,5.0,6.0,4.0,8.0,4.0,3.0,2.0,1.0,6.0,5.0,7.738487179711228,6.530383445147891,3.92481457235408,1.9717636265268084,10.129950723669026,9.234036517591449,922.5496925504995,1120.002959030302,1120.8113561875361,1120.5781980563188,1131.9961306523473,1132.9982429421216,1121.8281615638116,1131.9878095021995
1,125,1,1,1.0,1.0,0.6286110490327701,0,0.0,0.0,0.0,0.4691559935539165,0.11006565882646355,0.359090334727453,0.57922165238038,0.11006565882646355,0.5826426363394906,0,2,5,4,6,8,nan,nan,nan,nan,nan,nan,nan,nan,nan,nan,nan,nan,0.0,nan,nan,nan,nan,nan,nan,nan,nan,nan,nan,nan,nan,nan,nan,nan,nan,nan,nan,922.5496925504995,1133.2213294225512,nan,1133.849940471584,nan,nan,nan,nan
1,126,1,1,1.0,1.0,0.45184498207527213,0,0.0,0.0,0.0,0.47047380392977484,0.11055643237730038,0.35991737155247444,0.5810302363070752,0.11055643237730038,0.5518983523749436,7,0,3,1,4,6,nan,nan,nan,nan,nan,nan,nan,nan,nan,nan,nan,nan,0.0,nan,nan,nan,nan,nan,nan,nan,nan,nan,nan,nan,nan,nan,nan,nan,nan,nan,nan,922.5496925504995,1134.238110280392,nan,1134.6899552624673,nan,nan,nan,nan
1,127,1,1,1.0,1.0,0.3790469635860063,0,0.0,0.0,0.0,0.4703211086686723,0.11011521097745901,0.3602058976912133,0.5804363196461313,0.11011521097745901,0.4865009982313495,6,7,4,5,2,3,nan,nan,nan,nan,nan,nan,nan,nan,nan,nan,nan,nan,0.0,nan,nan,nan,nan,nan,nan,nan,nan,nan,nan,nan,nan,nan,nan,nan,nan,nan,nan,922.5496925504995,1135.2549062484468,nan,1135.6339532120328,nan,nan,nan,nan
1,128,1,1,1.0,1.0,0.36221621360164136,0,0.0,0.0,0.0,0.4695790424484881,0.1099725435102199,0.3596064989382682,0.5795515859587079,0.1099725435102199,0.3977027197543066,7,3,0,4,6,2,nan,nan,nan,nan,nan,nan,nan,nan,nan,nan,nan,nan,0.0,nan,nan,nan,nan,nan,nan,nan,nan,nan,nan,nan,nan,nan,nan,nan,nan,nan,nan,922.5496925504995,1136.2717107694189,nan,1136.6339269830205,nan,nan,nan,nan
1,129,1,1,1.0,1.0,0.2734130884928163,0,1.0,0.0,0.0,0.46871321318359416,0.10994833608042867,0.3587648771031655,0.5786615492640228,0.10994833608042867,0.338225421893488,1,2,4,6,5,8,nan,nan,nan,nan,nan,nan,nan,nan,nan,nan,nan,nan,0.0,nan,nan,nan,nan,nan,nan,nan,nan,nan,nan,nan,nan,nan,nan,nan,nan,nan,nan,922.5496925504995,1137.2885047417658,nan,1137.5619178302586,nan,nan,nan,nan
1,130,1,1,1.0,1.0,0.3525953024800401,1,0.0,0.0,1.0,0.4671508121860679,0.1108811234014016,0.3562696887846663,0.5780319355874695,0.1108811234014016,0.3294082015248326,5,3,7,8,4,2,1.0,1.0,1.0,1.0,1.0,1.0,0.0,0.0,1.0,1.0,0.0,0.0,2.0,0.0,2.0,7.0,8.0,3.0,6.0,4.0,3.0,2.0,1.0,6.0,5.0,5.668228812661255,4.420717431552475,2.558530868118396,1.7271382906765211,7.771702216472477,6.916617439768743,922.5496925504995,1138.3052981439105,1139.113719534449,1138.6578934463905,1147.9315109500312,1148.9411994293623,1140.1221897907672,1147.9231895147823
1,131,1,1,1.0,1.0,0.5166696696833242,0,0.0,0.0,0.0,0.46624164147411534,0.11090703797547934,0.355334603498636,0.5771486794495947,0.11090703797547934,0.3808926868853935,1,8,6,4,3,0,nan,nan,nan,nan,nan,nan,nan,nan,nan,nan,nan,nan,0.0,nan,nan,nan,nan,nan,nan,nan,nan,nan,nan,nan,nan,nan,nan,nan,nan,nan,nan,922.5496925504995,1149.165038282954,nan,1149.6817079526372,nan,nan,nan,nan
1,132,1,1,1.0,1.0,0.4598143214825541,0,0.0,0.0,0.0,0.4666387125623768,0.1105594120984448,0.356079300463932,0.5771981246608217,0.1105594120984448,0.4430264312153061,3,2,4,0,6,1,nan,nan,nan,nan,nan,nan,nan,nan,nan,nan,nan,nan,0.0,nan,nan,nan,nan,nan,nan,nan,nan,nan,nan,nan,nan,nan,nan,nan,nan,nan,nan,922.5496925504995,1150.1818696031114,nan,1150.641683924594,nan,nan,nan,nan
1,133,1,1,1.0,1.0,0.44302804677863605,0,0.0,0.0,0.0,0.4665853970070657,0.1101283316081862,0.3564570653988795,0.5767137286152519,0.1101283316081862,0.4731706793148381,2,6,8,4,5,7,nan,nan,nan,nan,nan,nan,nan,nan,nan,nan,nan,nan,0.0,nan,nan,nan,nan,nan,nan,nan,nan,nan,nan,nan,nan,nan,nan,nan,nan,nan,nan,922.5496925504995,1151.1986384868505,nan,1151.6416665336292,nan,nan,nan,nan
1,134,1,1,1.0,1.0,0.40221600836957805,0,0.0,0.0,0.0,0.46640278188901585,0.10972010100901347,0.3566826808800024,0.5761228828980294,0.10972010100901347,0.4350194588769227,1,4,2,8,3,6,nan,nan,nan,nan,nan,nan,nan,nan,nan,nan,nan,nan,0.0,nan,nan,nan,nan,nan,nan,nan,nan,nan,nan,nan,nan,nan,nan,nan,nan,nan,nan,922.5496925504995,1152.21542362115,nan,1152.6176396295195,nan,nan,nan,nan
1,135,1,1,1.0,1.0,0.4174097266222816,0,0.0,0.0,0.0,0.46590903747732787,0.10944105624540665,0.35646798123192125,0.5753500937227345,0.10944105624540665,0.4208845939234986,3,2,1,4,8,0,nan,nan,nan,nan,nan,nan,nan,nan,nan,nan,nan,nan,0.0,nan,nan,nan,nan,nan,nan,nan,nan,nan,nan,nan,nan,nan,nan,nan,nan,nan,nan,922.5496925504995,1153.2322232954612,nan,1153.6496330220834,nan,nan,nan,nan
1,136,1,1,1.0,1.0,0.6245980120729655,0,0.0,0.0,0.0,0.4655388137303428,0.10910423094528235,0.35643458278506046,0.5746430446756251,0.10910423094528235,0.48140791568827507,1,5,3,6,7,2,nan,nan,nan,nan,nan,nan,nan,nan,nan,nan,nan,nan,0.0,nan,nan,nan,nan,nan,nan,nan,nan,nan,nan,nan,nan,nan,nan,nan,nan,nan,nan,922.5496925504995,1154.249016982707,nan,1154.87361499478,nan,nan,nan,nan
1,137,1,1,1.0,1.0,0.7117555525619537,0,0.0,1.0,0.0,0.4667438076571808,0.10956170302967046,0.3571821046275104,0.5763055106868513,0.10956170302967046,0.5845877637524003,2,4,6,7,5,3,nan,nan,nan,nan,nan,nan,nan,nan,nan,nan,nan,nan,0.0,nan,nan,nan,nan,nan,nan,nan,nan,nan,nan,nan,nan,nan,nan,nan,nan,nan,nan,922.5496925504995,1155.2658300566254,nan,1155.9775856091874,nan,nan,nan,nan
1,138,1,1,nan,nan,nan,0,0.0,0.0,0.0,0.4685860012278934,0.11118218503576875,0.35740381619212463,0.5797681862636621,0.11118218503576875,0.6681767823174596,8,2,5,6,3,4,nan,nan,nan,nan,nan,nan,nan,nan,nan,nan,nan,nan,0.0,nan,nan,nan,nan,nan,nan,nan,nan,nan,nan,nan,nan,nan,nan,nan,nan,nan,nan,922.5496925504995,1156.2826322967885,nan,nan,nan,nan,nan,nan
1,139,0,0,nan,nan,nan,0,0.0,0.0,0.0,0.4685860012278934,0.11118218503576875,0.35740381619212463,0.5797681862636621,0.11118218503576875,0.7117555525619537,4,6,2,8,0,1,nan,nan,nan,nan,nan,nan,nan,nan,nan,nan,nan,nan,0.0,nan,nan,nan,nan,nan,nan,nan,nan,nan,nan,nan,nan,nan,nan,nan,nan,nan,nan,922.5496925504995,1157.299414580135,nan,nan,nan,nan,nan,nan
1,140,1,1,1.0,1.0,0.18136412466992624,0,0.0,0.0,0.0,0.4685860012278934,0.11118218503576875,0.35740381619212463,0.5797681862636621,0.11118218503576875,0.18136412466992624,5,8,6,3,2,0,nan,nan,nan,nan,nan,nan,nan,nan,nan,nan,nan,nan,0.0,nan,nan,nan,nan,nan,nan,nan,nan,nan,nan,nan,nan,nan,nan,nan,nan,nan,nan,922.5496925504995,1158.3161751960288,nan,1158.4975393206987,nan,nan,nan,nan
1,141,1,1,1.0,1.0,0.5005071890191175,0,0.0,0.0,0.0,0.4664425543879086,0.11349131636748233,0.3529512380204263,0.5799338707553909,0.11349131636748233,0.3409356568445219,2,3,5,7,0,4,nan,nan,nan,nan,nan,nan,nan,nan,nan,nan,nan,nan,0.0,nan,nan,nan,nan,nan,nan,nan,nan,nan,nan,nan,nan,nan,nan,nan,nan,nan,nan,922.5496925504995,1159.3330139287573,nan,1159.8335211177764,nan,nan,nan,nan
1,142,1,1,1.0,1.0,0.5317328131641261,0,0.0,0.0,0.0,0.46669488501480644,0.11310791880953723,0.3535869662052692,0.5798028038243437,0.11310791880953723,0.40453470895105664,4,0,8,2,6,3,nan,nan,nan,nan,nan,nan,nan,nan,nan,nan,nan,nan,0.0,nan,nan,nan,nan,nan,nan,nan,nan,nan,nan,nan,nan,nan,nan,nan,nan,nan,nan,922.5496925504995,1160.3497779658064,nan,1160.8815107789706,nan,nan,nan,nan
1,143,1,1,1.0,1.0,0.546876354230335,0,0.0,0.0,0.0,0.46717310507472787,0.11282821419179222,0.35434489088293564,0.5800013192665201,0.11282821419179222,0.5263721188045262,3,8,6,0,7,5,nan,nan,nan,nan,nan,nan,nan,nan,nan,nan,nan,nan,0.0,nan,nan,nan,nan,nan,nan,nan,nan,nan,nan,nan,nan,nan,nan,nan,nan,nan,nan,922.5496925504995,1161.3666052946064,nan,1161.9134816488368,nan,nan,nan,nan
1,144,1,1,1.0,1.0,0.5300535869901069,0,0.0,0.0,0.0,0.46775488061600967,0.11262022751162316,0.3551346531043865,0.5803751081276328,0.11262022751162316,0.5362209181281893,6,4,7,1,0,2,nan,nan,nan,nan,nan,nan,nan,nan,nan,nan,nan,nan,0.0,nan,nan,nan,nan,nan,nan,nan,nan,nan,nan,nan,nan,nan,nan,nan,nan,nan,nan,922.5496925504995,1162.3834089602751,nan,1162.9134625472652,nan,nan,nan,nan
1,145,1,1,1.0,1.0,0.49725051660789177,0,0.0,0.0,0.0,0.4682063205172713,0.11233578185180877,0.35587053866546253,0.5805421023690801,0.11233578185180877,0.5247268192761112,2,0,4,8,3,7,nan,nan,nan,nan,nan,nan,nan,nan,nan,nan,nan,nan,0.0,nan,nan,nan,nan,nan,nan,nan,nan,nan,nan,nan,nan,nan,nan,nan,nan,nan,nan,922.5496925504995,1163.400202932622,nan,1163.89745344923,nan,nan,nan,nan
1,146,1,1,1.0,1.0,0.4404313758132048,0,0.0,0.0,0.0,0.46841527156828294,0.11195787827336205,0.3564573932949209,0.580373149841645,0.11195787827336205,0.48924515980373445,1,3,5,7,6,0,nan,nan,nan,nan,nan,nan,nan,nan,nan,nan,nan,nan,0.0,nan,nan,nan,nan,nan,nan,nan,nan,nan,nan,nan,nan,nan,nan,nan,nan,nan,nan,922.5496925504995,1164.416999185778,nan,1164.8574305615912,nan,nan,nan,nan
1,147,1,1,1.0,1.0,0.3516405098780524,0,0.0,0.0,0.0,0.4682153865986038,0.11158220062230284,0.35663318597630095,0.5797975872209067,0.11158220062230284,0.4297741340997163,4,2,6,3,0,7,nan,nan,nan,nan,nan,nan,nan,nan,nan,nan,nan,nan,0.0,nan,nan,nan,nan,nan,nan,nan,nan,nan,nan,nan,nan,nan,nan,nan,nan,nan,nan,922.5496925504995,1165.433767784416,nan,1165.785408294294,nan,nan,nan,nan
1,148,1,1,1.0,1.0,0.43081046469160356,0,0.0,0.0,0.0,0.4673886144232807,0.11161533393276887,0.3557732804905118,0.5790039483560496,0.11161533393276887,0.40762745012762025,0,5,4,8,7,3,nan,nan,nan,nan,nan,nan,nan,nan,nan,nan,nan,nan,0.0,nan,nan,nan,nan,nan,nan,nan,nan,nan,nan,nan,nan,nan,nan,nan,nan,nan,nan,922.5496925504995,1166.4505842794897,nan,1166.8813947441813,nan,nan,nan,nan
1,149,0,0,0.0,1.0,0.5179526099236682,0,0.0,0.0,0.0,0.46713102181953653,0.11126367962090301,0.35586734219863353,0.5783947014404396,0.11126367962090301,0.4334678614977747,8,4,5,3,0,7,nan,nan,nan,nan,nan,nan,nan,nan,nan,nan,nan,nan,0.0,nan,nan,nan,nan,nan,nan,nan,nan,nan,nan,nan,nan,nan,nan,nan,nan,nan,nan,922.5496925504995,1167.4674295694276,nan,1167.9853821793513,nan,nan,nan,nan
1,150,1,1,1.0,1.0,0.461162549094297,0,0.0,0.0,0.0,0.46748641754054443,0.1109548160174498,0.3565316015230946,0.5784412335579943,0.1109548160174498,0.4699752079031896,0,3,6,8,5,1,nan,nan,nan,nan,nan,nan,nan,nan,nan,nan,nan,nan,0.0,nan,nan,nan,nan,nan,nan,nan,nan,nan,nan,nan,nan,nan,nan,nan,nan,nan,nan,922.5496925504995,1168.4841907555237,nan,1168.945353304618,nan,nan,nan,nan
1,151,1,1,1.0,1.0,0.4923374258214608,0,0.0,0.0,0.0,0.4674425017874455,0.11057013218215904,0.35687236960528645,0.5780126339696046,0.11057013218215904,0.4904841949464753,3,2,7,5,0,4,nan,nan,nan,nan,nan,nan,nan,nan,nan,nan,nan,nan,0.0,nan,nan,nan,nan,nan,nan,nan,nan,nan,nan,nan,nan,nan,nan,nan,nan,nan,nan,922.5496925504995,1169.5009875788528,nan,1169.9933250046743,nan,nan,nan,nan
1,152,1,1,1.0,1.0,0.4514737846911885,0,0.0,0.0,0.0,0.4676141909187146,0.11020745571772002,0.3574067352009946,0.5778216466364346,0.11020745571772002,0.46832458653564873,4,5,1,0,2,3,nan,nan,nan,nan,nan,nan,nan,nan,nan,nan,nan,nan,0.0,nan,nan,nan,nan,nan,nan,nan,nan,nan,nan,nan,nan,nan,nan,nan,nan,nan,nan,922.5496925504995,1170.5178391409572,nan,1170.9693129256484,nan,nan,nan,nan
1,153,1,1,1.0,1.0,0.5223984253534582,0,0.0,0.0,0.0,0.4675036401911288,0.10983745170180773,0.3576661884893211,0.5773410918929365,0.10983745170180773,0.4887365452887025,5,0,3,6,7,8,nan,nan,nan,nan,nan,nan,nan,nan,nan,nan,nan,nan,0.0,nan,nan,nan,nan,nan,nan,nan,nan,nan,nan,nan,nan,nan,nan,nan,nan,nan,nan,922.5496925504995,1171.5428961035213,nan,1172.0652945288748,nan,nan,nan,nan
1,154,1,1,1.0,1.0,0.5535342436633073,0,0.0,0.0,0.0,0.4678770741037977,0.1095561777469386,0.3583208963568591,0.5774332518507364,0.1095561777469386,0.509135484569318,0,2,4,7,1,6,nan,nan,nan,nan,nan,nan,nan,nan,nan,nan,nan,nan,0.0,nan,nan,nan,nan,nan,nan,nan,nan,nan,nan,nan,nan,nan,nan,nan,nan,nan,nan,922.5496925504995,1172.5597428189649,nan,1173.1132770626282,nan,nan,nan,nan
1,155,1,1,1.0,1.0,0.4407332944101654,0,0.0,0.0,0.0,0.4684558387629836,0.10941068551392093,0.35904515324906267,0.5778665242769045,0.10941068551392093,0.5055553211423103,3,4,7,6,5,1,nan,nan,nan,nan,nan,nan,nan,nan,nan,nan,nan,nan,0.0,nan,nan,nan,nan,nan,nan,nan,nan,nan,nan,nan,nan,nan,nan,nan,nan,nan,nan,922.5496925504995,1173.5765145536861,nan,1174.0172478480963,nan,nan,nan,nan
1,156,1,1,1.0,1.0,0.4159215159888845,0,0.0,0.0,0.0,0.46826978141833375,0.10906640736058047,0.35920337405775327,0.5773361887789142,0.10906640736058047,0.4700630180207857,4,0,8,5,6,2,nan,nan,nan,nan,nan,nan,nan,nan,nan,nan,nan,nan,0.0,nan,nan,nan,nan,nan,nan,nan,nan,nan,nan,nan,nan,nan,nan,nan,nan,nan,nan,922.5496925504995,1174.5933281977777,nan,1175.0092497137666,nan,nan,nan,nan
1,157,1,1,1.0,1.0,0.37510206503793597,0,0.0,0.0,0.0,0.46792079298213746,0.1087856845031015,0.35913510847903596,0.576706477485239,0.1087856845031015,0.41058562514566194,7,8,3,6,1,0,nan,nan,nan,nan,nan,nan,nan,nan,nan,nan,nan,nan,0.0,nan,nan,nan,nan,nan,nan,nan,nan,nan,nan,nan,nan,nan,nan,nan,nan,nan,nan,922.5496925504995,1175.6101235956012,nan,1175.9852256606391,nan,nan,nan,nan
1,158,0,0,nan,nan,nan,0,0.0,0.0,0.0,0.46730609941959306,0.10868592072999315,0.3586201786895999,0.5759920201495862,0.10868592072999315,0.39551179051341023,6,5,7,2,0,1,nan,nan,nan,nan,nan,nan,nan,nan,nan,nan,nan,nan,0.0,nan,nan,nan,nan,nan,nan,nan,nan,nan,nan,nan,nan,nan,nan,nan,nan,nan,nan,922.5496925504995,1176.6269053087453,nan,nan,nan,nan,nan,nan
1,159,1,1,1.0,1.0,0.645458049577428,0,0.0,0.0,0.0,0.46730609941959306,0.10868592072999315,0.3586201786895999,0.5759920201495862,0.10868592072999315,0.510280057307682,8,3,1,6,5,0,nan,nan,nan,nan,nan,nan,nan,nan,nan,nan,nan,nan,0.0,nan,nan,nan,nan,nan,nan,nan,nan,nan,nan,nan,nan,nan,nan,nan,nan,nan,nan,922.5496925504995,1177.6437021320744,nan,1178.2891601816518,nan,nan,nan,nan
1,160,0,0,nan,nan,nan,0,0.0,0.0,0.0,0.468478151723263,0.1092810340133872,0.35919711770987583,0.5777591857366502,0.1092810340133872,0.645458049577428,5,0,7,3,2,4,nan,nan,nan,nan,nan,nan,nan,nan,nan,nan,nan,nan,0.0,nan,nan,nan,nan,nan,nan,nan,nan,nan,nan,nan,nan,nan,nan,nan,nan,nan,nan,922.5496925504995,1178.6605203377549,nan,nan,nan,nan,nan,nan
1,161,1,1,1.0,1.0,0.5235043198044877,0,0.0,0.0,0.0,0.468478151723263,0.1092810340133872,0.35919711770987583,0.5777591857366502,0.1092810340133872,0.5844811846909579,7,2,6,1,8,3,nan,nan,nan,nan,nan,nan,nan,nan,nan,nan,nan,nan,0.0,nan,nan,nan,nan,nan,nan,nan,nan,nan,nan,nan,nan,nan,nan,nan,nan,nan,nan,922.5496925504995,1179.6856377410295,nan,1180.209142060834,nan,nan,nan,nan
1,162,0,0,0.0,1.0,0.4587061462516431,0,0.0,0.0,0.0,0.46883779988065666,0.10901353388303296,0.3598242659976237,0.5778513337636896,0.10901353388303296,0.4911052330280654,0,5,8,6,2,4,nan,nan,nan,nan,nan,nan,nan,nan,nan,nan,nan,nan,0.0,nan,nan,nan,nan,nan,nan,nan,nan,nan,nan,nan,nan,nan,nan,nan,nan,nan,nan,922.5496925504995,1180.7024314282753,nan,1181.161137574527,nan,nan,nan,nan
1,163,1,1,1.0,1.0,0.41410544284735806,0,0.0,0.0,0.0,0.4687720099220267,0.1086620646418472,0.36010994528017953,0.577434074563874,0.1086620646418472,0.46543863630116294,6,7,3,0,8,2,nan,nan,nan,nan,nan,nan,nan,nan,nan,nan,nan,nan,0.0,nan,nan,nan,nan,nan,nan,nan,nan,nan,nan,nan,nan,nan,nan,nan,nan,nan,nan,922.5496925504995,1181.7230043722666,nan,1182.137109815114,nan,nan,nan,nan
1,164,1,1,1.0,1.0,0.4167371808725875,0,0.0,0.0,0.0,0.4684193223925127,0.10839936835735814,0.3600199540351546,0.5768186907498709,0.10839936835735814,0.4298495899905295,2,1,0,4,7,6,nan,nan,nan,nan,nan,nan,nan,nan,nan,nan,nan,nan,0.0,nan,nan,nan,nan,nan,nan,nan,nan,nan,nan,nan,nan,nan,nan,nan,nan,nan,nan,922.5496925504995,1182.7443690329092,nan,1183.1611062137817,nan,nan,nan,nan
1,165,1,1,1.0,1.0,0.3839190002763644,0,0.0,0.0,0.0,0.4680880266135388,0.10813007053530292,0.3599579560782359,0.5762180971488418,0.10813007053530292,0.4049205413321033,4,3,1,8,0,7,nan,nan,nan,nan,nan,nan,nan,nan,nan,nan,nan,nan,0.0,nan,nan,nan,nan,nan,nan,nan,nan,nan,nan,nan,nan,nan,nan,nan,nan,nan,nan,922.5496925504995,1183.7611612946785,nan,1184.1450802949548,nan,nan,nan,nan
1,166,0,0,0.0,1.0,0.5190824525780044,0,0.0,0.0,0.0,0.4675519181655314,0.10799294613929823,0.35955897202623316,0.5755448643048297,0.10799294613929823,0.4399128779089854,6,2,8,4,3,5,nan,nan,nan,nan,nan,nan,nan,nan,nan,nan,nan,nan,0.0,nan,nan,nan,nan,nan,nan,nan,nan,nan,nan,nan,nan,nan,nan,nan,nan,nan,nan,922.5496925504995,1184.7779666709248,nan,1185.2970491235028,nan,nan,nan,nan
1,167,1,1,1.0,1.0,0.5502616057638079,0,0.0,0.0,0.0,0.4678780607883951,0.10772819133640618,0.3601498694519889,0.5756062521248013,0.10772819133640618,0.48442101953939226,7,8,0,5,1,3,nan,nan,nan,nan,nan,nan,nan,nan,nan,nan,nan,nan,0.0,nan,nan,nan,nan,nan,nan,nan,nan,nan,nan,nan,nan,nan,nan,nan,nan,nan,nan,922.5496925504995,1185.7947757534566,nan,1186.3450373592204,nan,nan,nan,nan
1,168,1,1,1.0,1.0,0.5251527554064523,0,0.0,0.0,0.0,0.4683961962913851,0.10758620208006818,0.36080999421131693,0.5759823983714533,0.10758620208006818,0.5314989379160883,5,0,2,7,8,1,nan,nan,nan,nan,nan,nan,nan,nan,nan,nan,nan,nan,0.0,nan,nan,nan,nan,nan,nan,nan,nan,nan,nan,nan,nan,nan,nan,nan,nan,nan,nan,922.5496925504995,1186.8198840336117,nan,1187.3450367890182,nan,nan,nan,nan
1,169,1,1,1.0,1.0,0.6043061745294835,0,0.0,0.0,0.0,0.4687509247858543,0.10734270246033047,0.36140822232552383,0.5760936272461847,0.10734270246033047,0.559906845233248,3,2,7,1,5,6,nan,nan,nan,nan,nan,nan,nan,nan,nan,nan,nan,nan,0.0,nan,nan,nan,nan,nan,nan,nan,nan,nan,nan,nan,nan,nan,nan,nan,nan,nan,nan,922.5496925504995,1187.836706800852,nan,1188.4410129753815,nan,nan,nan,nan
1,170,1,1,1.0,1.0,0.5471788430004381,0,0.0,0.0,0.0,0.4695928828587961,0.10753748493744694,0.3620553979213491,0.577130367796243,0.10753748493744694,0.558879257645458,2,5,8,6,3,0,nan,nan,nan,nan,nan,nan,nan,nan,nan,nan,nan,nan,0.0,nan,nan,nan,nan,nan,nan,nan,nan,nan,nan,nan,nan,nan,nan,nan,nan,nan,nan,922.5496925504995,1188.8618113747216,nan,1189.408990217722,nan,nan,nan,nan
1,171,1,1,1.0,1.0,0.4823290667554829,0,0.0,0.0,0.0,0.47007180853868274,0.10737716038259898,0.36269464815608377,0.5774489689212817,0.10737716038259898,0.5446046947618015,0,3,6,4,2,7,nan,nan,nan,nan,nan,nan,nan,nan,nan,nan,nan,nan,0.0,nan,nan,nan,nan,nan,nan,nan,nan,nan,nan,nan,nan,nan,nan,nan,nan,nan,nan,922.5496925504995,1189.8786384184205,nan,1190.360967485176,nan,nan,nan,nan
1,172,0,0,0.0,1.0,0.44154439770500176,0,0.0,0.0,0.0,0.4701470064418533,0.10705155455714133,0.363095451884712,0.5771985609989947,0.10705155455714133,0.4903507691536409,8,2,4,1,3,0,nan,nan,nan,nan,nan,nan,nan,nan,nan,nan,nan,nan,0.0,nan,nan,nan,nan,nan,nan,nan,nan,nan,nan,nan,nan,nan,nan,nan,nan,nan,nan,922.5496925504995,1190.8953970386356,nan,1191.3369414363406,nan,nan,nan,nan
1,173,1,1,1.0,1.0,0.48073194874450564,0,0.0,0.0,0.0,0.46997260029101884,0.10674790453335631,0.36322469575766253,0.5767205048243751,0.10674790453335631,0.4682018044016634,7,0,5,3,1,2,nan,nan,nan,nan,nan,nan,nan,nan,nan,nan,nan,nan,0.0,nan,nan,nan,nan,nan,nan,nan,nan,nan,nan,nan,nan,nan,nan,nan,nan,nan,nan,922.5496925504995,1191.9122118231317,nan,1192.3929437718762,nan,nan,nan,nan
1,174,1,1,1.0,1.0,0.39991213285247795,0,0.0,0.0,0.0,0.4700378084634642,0.106427210636354,0.3636105978271102,0.5764650190998182,0.106427210636354,0.4407294931006618,8,5,7,4,6,0,nan,nan,nan,nan,nan,nan,nan,nan,nan,nan,nan,nan,0.0,nan,nan,nan,nan,nan,nan,nan,nan,nan,nan,nan,nan,nan,nan,nan,nan,nan,nan,922.5496925504995,1192.929007220955,nan,1193.3289193538076,nan,nan,nan,nan
1,175,1,1,1.0,1.0,0.4230954325175844,0,0.0,0.0,0.0,0.4696153646344824,0.10624482774806156,0.36337053688642085,0.5758601923825439,0.10624482774806156,0.43457983803818934,6,8,0,5,7,1,nan,nan,nan,nan,nan,nan,nan,nan,nan,nan,nan,nan,0.0,nan,nan,nan,nan,nan,nan,nan,nan,nan,nan,nan,nan,nan,nan,nan,nan,nan,nan,922.5496925504995,1193.9458068952663,nan,1194.3689023277839,nan,nan,nan,nan
1,176,1,1,1.0,1.0,0.4063245530705899,0,0.0,0.0,0.0,0.4693368021667165,0.10598703665028573,0.3633497655164308,0.5753238388170022,0.10598703665028573,0.40977737281355076,7,1,8,4,2,5,nan,nan,nan,nan,nan,nan,nan,nan,nan,nan,nan,nan,0.0,nan,nan,nan,nan,nan,nan,nan,nan,nan,nan,nan,nan,nan,nan,nan,nan,nan,nan,922.5496925504995,1194.9626020080177,nan,1195.3689265610883,nan,nan,nan,nan
1,177,1,1,1.0,1.0,0.5094447206647601,0,0.0,0.0,0.0,0.46896172925543006,0.10578223315409312,0.36317949610133693,0.5747439624095232,0.10578223315409312,0.4462882354176448,1,4,5,3,0,7,nan,nan,nan,nan,nan,nan,nan,nan,nan,nan,nan,nan,0.0,nan,nan,nan,nan,nan,nan,nan,nan,nan,nan,nan,nan,nan,nan,nan,nan,nan,nan,922.5496925504995,1195.979407384264,nan,1196.4888521049288,nan,nan,nan,nan
1,178,0,0,0.0,1.0,0.5166477171587758,0,0.0,0.0,0.0,0.46920127358329594,0.10551449487070885,0.3636867787125871,0.5747157684540047,0.10551449487070885,0.4774723302980419,0,3,7,2,8,6,nan,nan,nan,nan,nan,nan,nan,nan,nan,nan,nan,nan,0.0,nan,nan,nan,nan,nan,nan,nan,nan,nan,nan,nan,nan,nan,nan,nan,nan,nan,nan,922.5496925504995,1196.9961999311345,nan,1197.5128476482932,nan,nan,nan,nan
1,179,1,1,1.0,1.0,0.4358515643980354,0,0.0,0.0,0.0,0.4694803703102105,0.10526624734069148,0.36421412296951905,0.574746617650902,0.10526624734069148,0.4873146674071904,6,7,8,4,3,5,nan,nan,nan,nan,nan,nan,nan,nan,nan,nan,nan,nan,0.0,nan,nan,nan,nan,nan,nan,nan,nan,nan,nan,nan,nan,nan,nan,nan,nan,nan,nan,922.5496925504995,1198.012962542707,nan,1198.4488141071051,nan,nan,nan,nan
1,180,1,1,1.0,1.0,0.4590131966106128,0,0.0,0.0,0.0,0.4692837106265136,0.10498931619606675,0.36429439443044687,0.5742730268225803,0.10498931619606675,0.4705041593891413,0,4,3,7,6,1,nan,nan,nan,nan,nan,nan,nan,nan,nan,nan,nan,nan,0.0,nan,nan,nan,nan,nan,nan,nan,nan,nan,nan,nan,nan,nan,nan,nan,nan,nan,nan,922.5496925504995,1199.0297930075903,nan,1199.488806204201,nan,nan,nan,nan
1,181,1,1,1.0,1.0,0.44221893916255794,0,0.0,0.0,0.0,0.4692239983357235,0.10468658190993621,0.3645374164257873,0.5739105802456597,0.10468658190993621,0.44569456672373536,3,6,4,1,8,2,nan,nan,nan,nan,nan,nan,nan,nan,nan,nan,nan,nan,0.0,nan,nan,nan,nan,nan,nan,nan,nan,nan,nan,nan,nan,nan,nan,nan,nan,nan,nan,922.5496925504995,1200.0465707293479,nan,1200.4887896685104,nan,nan,nan,nan
1,182,1,1,1.0,1.0,0.40137126349145547,0,0.0,0.0,0.0,0.46906789972778606,0.10440365451243168,0.3646642452153544,0.5734715542402178,0.10440365451243168,0.43420113308820873,2,5,0,8,4,3,nan,nan,nan,nan,nan,nan,nan,nan,nan,nan,nan,nan,0.0,nan,nan,nan,nan,nan,nan,nan,nan,nan,nan,nan,nan,nan,nan,nan,nan,nan,nan,922.5496925504995,1201.063403475011,nan,1201.4647747385025,nan,nan,nan,nan
1,183,1,1,1.0,1.0,0.472595256898785,0,0.0,0.0,0.0,0.4686788385999911,0.10422890890314641,0.3644499296968447,0.5729077475031376,0.10422890890314641,0.4387284865175995,5,8,7,3,1,2,nan,nan,nan,nan,nan,nan,nan,nan,nan,nan,nan,nan,0.0,nan,nan,nan,nan,nan,nan,nan,nan,nan,nan,nan,nan,nan,nan,nan,nan,nan,nan,922.5496925504995,1202.0801612399227,nan,1202.5527564968215,nan,nan,nan,nan
1,184,1,1,1.0,1.0,0.4554166875605006,0,0.0,0.0,0.0,0.46870121813312704,0.10393110463002764,0.3647701135030994,0.5726323227631547,0.10393110463002764,0.44312773598358035,0,1,4,6,3,8,nan,nan,nan,nan,nan,nan,nan,nan,nan,nan,nan,nan,0.0,nan,nan,nan,nan,nan,nan,nan,nan,nan,nan,nan,nan,nan,nan,nan,nan,nan,nan,922.5496925504995,1203.105323403579,nan,1203.5607400911395,nan,nan,nan,nan
1,185,1,1,1.0,1.0,0.38257732993224636,0,0.0,0.0,0.0,0.4686257378457826,0.10364023534277604,0.36498550250300654,0.5722659731885587,0.10364023534277604,0.436863091463844,2,8,7,4,6,3,nan,nan,nan,nan,nan,nan,nan,nan,nan,nan,nan,nan,0.0,nan,nan,nan,nan,nan,nan,nan,nan,nan,nan,nan,nan,nan,nan,nan,nan,nan,nan,922.5496925504995,1204.122132771212,nan,1204.5047101011442,nan,nan,nan,nan
1,186,1,1,1.0,1.0,0.42977555957622826,0,0.0,0.0,0.0,0.46813958864853095,0.10354810043503103,0.3645914882134999,0.5716876890835619,0.10354810043503103,0.42258985902299173,5,0,8,1,2,4,nan,nan,nan,nan,nan,nan,nan,nan,nan,nan,nan,nan,0.0,nan,nan,nan,nan,nan,nan,nan,nan,nan,nan,nan,nan,nan,nan,nan,nan,nan,nan,922.5496925504995,1205.138924462779,nan,1205.5687000223552,nan,nan,nan,nan
1,187,1,1,1.0,1.0,0.36497710095136426,0,0.0,0.0,0.0,0.46792406039531576,0.10329663137610783,0.3646274290192079,0.5712206917714235,0.10329663137610783,0.39244333015327965,7,6,3,4,1,0,nan,nan,nan,nan,nan,nan,nan,nan,nan,nan,nan,nan,0.0,nan,nan,nan,nan,nan,nan,nan,nan,nan,nan,nan,nan,nan,nan,nan,nan,nan,nan,922.5496925504995,1206.1557098821795,nan,1206.5206869831309,nan,nan,nan,nan
1,188,1,1,1.0,1.0,0.32415109273279086,0,0.0,0.0,0.0,0.4673489377168579,0.10329308009719056,0.36405585761966736,0.5706420178140484,0.10329308009719056,0.3729679177534611,6,4,7,3,8,2,nan,nan,nan,nan,nan,nan,nan,nan,nan,nan,nan,nan,0.0,nan,nan,nan,nan,nan,nan,nan,nan,nan,nan,nan,nan,nan,nan,nan,nan,nan,nan,922.5496925504995,1207.1725092713896,nan,1207.4966603641224,nan,nan,nan,nan
1,189,1,1,1.0,1.0,0.3473460813984275,0,1.0,0.0,0.0,0.46655339413361313,0.10355420248886937,0.36299919164474376,0.5701075966224824,0.10355420248886937,0.34549142502752755,1,8,3,4,0,7,nan,nan,nan,nan,nan,nan,nan,nan,nan,nan,nan,nan,0.0,nan,nan,nan,nan,nan,nan,nan,nan,nan,nan,nan,nan,nan,nan,nan,nan,nan,nan,922.5496925504995,1208.1893058096175,nan,1208.536651891016,nan,nan,nan,nan
1,190,0,0,1.0,0.0,0.546512854489265,0,0.0,0.0,0.0,0.4658947901958497,0.10364508571642828,0.3622497044794214,0.569539875912278,0.10364508571642828,0.40600334287349443,8,5,4,7,6,1,nan,nan,nan,nan,nan,nan,nan,nan,nan,nan,nan,nan,0.0,nan,nan,nan,nan,nan,nan,nan,nan,nan,nan,nan,nan,nan,nan,nan,nan,nan,nan,922.5496925504995,1209.206103773322,nan,1209.7526166278112,nan,nan,nan,nan
1,191,1,1,0.0,0.0,0.16936150632682256,0,0.0,0.0,0.0,0.46633774659306626,0.10353160977639013,0.3628061368166761,0.5698693563694563,0.10353160977639013,0.35440681407150504,2,8,3,0,5,7,nan,nan,nan,nan,nan,nan,nan,nan,nan,nan,nan,nan,0.0,nan,nan,nan,nan,nan,nan,nan,nan,nan,nan,nan,nan,nan,nan,nan,nan,nan,nan,922.5496925504995,1210.231232580525,nan,1210.400594086852,nan,nan,nan,nan
1,192,1,1,1.0,1.0,0.12057129040476866,0,0.0,0.0,0.0,0.4647149256080048,0.10554395910559328,0.35917096650241154,0.5702588847135981,0.10554395910559328,0.2788152170736187,8,7,5,6,4,1,nan,nan,nan,nan,nan,nan,nan,nan,nan,nan,nan,nan,0.0,nan,nan,nan,nan,nan,nan,nan,nan,nan,nan,nan,nan,nan,nan,nan,nan,nan,nan,922.5496925504995,1211.2480402375804,nan,1211.3686115279852,nan,nan,nan,nan
1,193,1,1,1.0,1.0,0.3037440756743308,0,1.0,0.0,0.0,0.46284457976450893,0.10825504985227083,0.35458952991223813,0.5710996296167797,0.10825504985227083,0.197892290801974,3,4,1,2,6,8,nan,nan,nan,nan,nan,nan,nan,nan,nan,nan,nan,nan,0.0,nan,nan,nan,nan,nan,nan,nan,nan,nan,nan,nan,nan,nan,nan,nan,nan,nan,nan,922.5496925504995,1212.2648373459815,nan,1212.5685814216558,nan,nan,nan,nan
1,194,1,1,1.0,1.0,0.40658114111283794,1,0.0,0.0,1.0,0.4619845770396972,0.10859049816931146,0.35339407887038576,0.5705750752090086,0.10859049816931146,0.2769655023973125,8,6,3,5,7,2,1.0,1.0,1.0,1.0,1.0,1.0,0.0,0.0,0.0,1.0,0.0,0.0,1.0,0.0,1.0,6.0,5.0,4.0,8.0,4.0,3.0,2.0,1.0,6.0,5.0,5.601664458110463,4.427156936086249,3.017597092926735,2.066335991199594,8.129516519722529,7.146310206968337,922.5496925504995,1213.2899453410646,1214.0983812715858,1213.6965264821774,1223.2828903103364,1224.2879009045719,1215.1151823713735,1223.2745725813438
1,195,1,1,1.0,1.0,0.6122749437927268,0,0.0,0.0,0.0,0.4616867091046065,0.10837395066395301,0.3533127584406535,0.5700606597685596,0.10837395066395301,0.44086672019329853,5,8,6,7,2,0,nan,nan,nan,nan,nan,nan,nan,nan,nan,nan,nan,nan,0.0,nan,nan,nan,nan,nan,nan,nan,nan,nan,nan,nan,nan,nan,nan,nan,nan,nan,nan,922.5496925504995,1224.5080845189514,nan,1225.120359462744,nan,nan,nan,nan
1,196,1,1,1.0,1.0,0.531459689460462,0,0.0,0.0,0.0,0.4624919937820831,0.10864034275874389,0.3538516510233392,0.571132336540827,0.10864034275874389,0.5167719247886756,6,2,5,1,4,3,nan,nan,nan,nan,nan,nan,nan,nan,nan,nan,nan,nan,0.0,nan,nan,nan,nan,nan,nan,nan,nan,nan,nan,nan,nan,nan,nan,nan,nan,nan,nan,922.5496925504995,1225.5248841932626,nan,1226.056343882723,nan,nan,nan,nan
1,197,1,1,1.0,1.0,0.4266340666799806,0,0.0,0.0,0.0,0.4628588432271809,0.10846709090735873,0.3543917523198222,0.5713259341345396,0.10846709090735873,0.5234562333110565,1,5,7,3,6,4,nan,nan,nan,nan,nan,nan,nan,nan,nan,nan,nan,nan,0.0,nan,nan,nan,nan,nan,nan,nan,nan,nan,nan,nan,nan,nan,nan,nan,nan,nan,nan,922.5496925504995,1226.5416867185559,nan,1226.9683207852358,nan,nan,nan,nan
1,198,1,1,1.0,1.0,0.40984437079168856,0,0.0,0.0,0.0,0.46266717774280414,0.10821167615066875,0.3544555015921354,0.5708788538934729,0.10821167615066875,0.4559793756440437,7,2,8,0,3,6,nan,nan,nan,nan,nan,nan,nan,nan,nan,nan,nan,nan,0.0,nan,nan,nan,nan,nan,nan,nan,nan,nan,nan,nan,nan,nan,nan,nan,nan,nan,nan,922.5496925504995,1227.5584527513129,nan,1227.9682971221046,nan,nan,nan,nan
1,199,1,1,1.0,1.0,0.3689949845720548,0,0.0,0.0,0.0,0.4623891629693772,0.10799418841752115,0.3543949745518561,0.5703833513868983,0.10799418841752115,0.40182447401457466,5,4,6,7,2,3,nan,nan,nan,nan,nan,nan,nan,nan,nan,nan,nan,nan,0.0,nan,nan,nan,nan,nan,nan,nan,nan,nan,nan,nan,nan,nan,nan,nan,nan,nan,nan,922.5496925504995,1228.5752889181313,nan,1228.9442839027033,nan,nan,nan,nan
1,200,1,1,1.0,1.0,0.33590653125429526,0,0.0,0.0,0.0,0.4619001882133703,0.1079217843648728,0.3539784038484975,0.5698219725782431,0.1079217843648728,0.37158196220601286,4,8,3,5,7,1,nan,nan,nan,nan,nan,nan,nan,nan,nan,nan,nan,nan,0.0,nan,nan,nan,nan,nan,nan,nan,nan,nan,nan,nan,nan,nan,nan,nan,nan,nan,nan,922.5496925504995,1229.6003675481188,nan,1229.936274079373,nan,nan,nan,nan
1,201,1,1,1.0,1.0,0.32703542738454416,0,1.0,0.0,0.0,0.4612439712500418,0.10802174806718345,0.35322222318285834,0.5692657193172252,0.10802174806718345,0.34397898107029806,3,5,2,8,1,0,nan,nan,nan,nan,nan,nan,nan,nan,nan,nan,nan,nan,0.0,nan,nan,nan,nan,nan,nan,nan,nan,nan,nan,nan,nan,nan,nan,nan,nan,nan,nan,922.5496925504995,1230.6172099871037,nan,1230.9442454144883,nan,nan,nan,nan
1,202,1,1,1.0,1.0,0.2542356983467471,1,0.0,0.0,1.0,0.4605485901937439,0.10817153509244909,0.3523770551012948,0.568720125286193,0.10817153509244909,0.30572588566186215,1,7,8,2,0,6,1.0,1.0,1.0,1.0,1.0,1.0,0.0,0.0,1.0,1.0,0.0,0.0,2.0,0.0,3.0,8.0,2.0,4.0,1.0,4.0,3.0,2.0,1.0,6.0,5.0,6.785978489933768,5.4750539404922165,3.329309652734082,2.530933683970943,8.92099540194613,7.681584220175864,922.5496925504995,1231.6339979723853,1232.4424162268697,1231.888233670732,1242.4186872499704,1243.4287757215207,1233.4592201776395,1242.410356976703
1,203,1,1,nan,nan,nan,0,0.0,0.0,0.0,0.45948512167906863,0.10889923072771777,0.35058589095135084,0.5683843524067864,0.10889923072771777,0.2906355628656456,3,1,2,4,6,7,nan,nan,nan,nan,nan,nan,nan,nan,nan,nan,nan,nan,0.0,nan,nan,nan,nan,nan,nan,nan,nan,nan,nan,nan,nan,nan,nan,nan,nan,nan,nan,922.5496925504995,1243.6522162934707,nan,nan,nan,nan,nan,nan
1,204,0,0,0.0,1.0,0.594985471398104,0,0.0,0.0,0.0,0.45948512167906863,0.10889923072771777,0.35058589095135084,0.5683843524067864,0.10889923072771777,0.42461058487242553,8,3,6,0,5,2,nan,nan,nan,nan,nan,nan,nan,nan,nan,nan,nan,nan,0.0,nan,nan,nan,nan,nan,nan,nan,nan,nan,nan,nan,nan,nan,nan,nan,nan,nan,nan,922.5496925504995,1244.6690048489545,nan,1245.2639903203526,nan,nan,nan,nan
1,205,1,1,1.0,1.0,0.41817692486802116,0,0.0,0.0,0.0,0.4601799952673714,0.10904998677527201,0.3511300084920994,0.5692299820426434,0.10904998677527201,0.5065811981330626,5,0,2,6,1,4,nan,nan,nan,nan,nan,nan,nan,nan,nan,nan,nan,nan,0.0,nan,nan,nan,nan,nan,nan,nan,nan,nan,nan,nan,nan,nan,nan,nan,nan,nan,nan,922.5496925504995,1245.6858065189444,nan,1246.1039834438125,nan,nan,nan,nan
1,206,1,1,1.0,1.0,0.4333663666911889,0,0.0,0.0,0.0,0.45996569388778286,0.10881260059991377,0.3511530932878691,0.5687782944876967,0.10881260059991377,0.48217625431910466,8,4,3,7,5,6,nan,nan,nan,nan,nan,nan,nan,nan,nan,nan,nan,nan,0.0,nan,nan,nan,nan,nan,nan,nan,nan,nan,nan,nan,nan,nan,nan,nan,nan,nan,nan,922.5496925504995,1246.7026016316668,nan,1247.135967998358,nan,nan,nan,nan
1,207,1,1,1.0,1.0,0.3525479762465693,0,0.0,0.0,0.0,0.4598306719223179,0.10855253504581308,0.35127813687650483,0.5683832069681309,0.10855253504581308,0.4013637559352598,4,1,0,2,3,7,nan,nan,nan,nan,nan,nan,nan,nan,nan,nan,nan,nan,0.0,nan,nan,nan,nan,nan,nan,nan,nan,nan,nan,nan,nan,nan,nan,nan,nan,nan,nan,922.5496925504995,1247.7193973146204,nan,1248.071945290867,nan,nan,nan,nan
1,208,1,1,1.0,1.0,0.32740348868537694,0,0.0,0.0,0.0,0.45928884012597576,0.1085448066955943,0.35074403343038146,0.5678336468215701,0.1085448066955943,0.3711059438743784,7,2,4,1,8,3,nan,nan,nan,nan,nan,nan,nan,nan,nan,nan,nan,nan,0.0,nan,nan,nan,nan,nan,nan,nan,nan,nan,nan,nan,nan,nan,nan,nan,nan,nan,nan,922.5496925504995,1248.7445258367225,nan,1249.0719293254078,nan,nan,nan,nan
1,209,1,1,1.0,1.0,0.27861811945331283,0,1.0,0.0,0.0,0.4586260996664753,0.10867260781473567,0.34995349185173963,0.5672987074812109,0.10867260781473567,0.31952319479508634,8,1,6,3,5,4,nan,nan,nan,nan,nan,nan,nan,nan,nan,nan,nan,nan,0.0,nan,nan,nan,nan,nan,nan,nan,nan,nan,nan,nan,nan,nan,nan,nan,nan,nan,nan,922.5496925504995,1249.761293294956,nan,1250.0399114144093,nan,nan,nan,nan
1,210,1,1,1.0,1.0,0.2537764057633467,1,0.0,0.0,1.0,0.4577260597654094,0.10914161123827919,0.3485844485271302,0.5668676710036886,0.10914161123827919,0.2865993379673455,5,8,3,7,6,0,1.0,1.0,1.0,1.0,1.0,1.0,0.0,0.0,1.0,1.0,0.0,0.0,2.0,1.0,5.0,3.0,7.0,5.0,4.0,4.0,3.0,2.0,1.0,6.0,5.0,5.514427375339437,3.922408916958375,2.2729683359211776,1.434086523775477,7.673311536666006,6.889628084201831,922.5496925504995,1250.7781203386548,1251.5865502821398,1251.0318967444182,1260.304324534838,1261.306087579782,1252.5950290913752,1260.29596147532
1,211,1,1,1.0,1.0,0.6862107876513619,0,0.0,0.0,0.0,0.4567113848698768,0.10981138917069642,0.34689999569918034,0.5665227740405732,0.10981138917069642,0.4062017709560071,6,2,7,1,3,4,nan,nan,nan,nan,nan,nan,nan,nan,nan,nan,nan,nan,0.0,nan,nan,nan,nan,nan,nan,nan,nan,nan,nan,nan,nan,nan,nan,nan,nan,nan,nan,922.5496925504995,1261.5294896634878,nan,1262.2157004511391,nan,nan,nan,nan
1,212,1,1,1.0,1.0,0.5573454313562252,0,0.0,0.0,0.0,0.4578475205272109,0.1107171942099778,0.34713032631723306,0.5685647147371887,0.1107171942099778,0.4991108749236446,5,7,0,3,4,2,nan,nan,nan,nan,nan,nan,nan,nan,nan,nan,nan,nan,0.0,nan,nan,nan,nan,nan,nan,nan,nan,nan,nan,nan,nan,nan,nan,nan,nan,nan,nan,922.5496925504995,1262.5463158519124,nan,1263.1036612832686,nan,nan,nan,nan
1,213,1,1,1.0,1.0,0.4762339603912551,0,0.0,1.0,0.0,0.4583376580189794,0.11066362914458361,0.3476740288743958,0.569001287163563,0.11066362914458361,0.5732633931329474,2,3,4,0,7,6,nan,nan,nan,nan,nan,nan,nan,nan,nan,nan,nan,nan,0.0,nan,nan,nan,nan,nan,nan,nan,nan,nan,nan,nan,nan,nan,nan,nan,nan,nan,nan,922.5496925504995,1263.5714209959842,nan,1264.0476549563755,nan,nan,nan,nan
1,214,0,0,0.0,1.0,0.5633989134221338,1,0.0,0.0,1.0,0.4584253849913925,0.11039913742884011,0.3480262475625524,0.5688245224202326,0.11039913742884011,0.5323261017232047,0,2,7,5,4,8,1.0,1.0,1.0,1.0,1.0,1.0,0.0,0.0,0.0,0.0,1.0,0.0,1.0,6.0,1.0,4.0,0.0,4.0,2.0,4.0,3.0,2.0,1.0,6.0,5.0,9.158401775814127,6.542449355212739,4.3506657604302745,3.4950367319979705,12.20589337113779,11.398385434004012,922.5496925504995,1264.588242907921,1265.396662302781,1265.1516418213432,1278.6650342915673,1279.6669681101048,1266.4218022287823,1278.656702022592
1,215,1,1,nan,nan,nan,0,0.0,0.0,0.0,0.4589374509837376,0.11037213052886807,0.34856532045486954,0.5693095815126057,0.11037213052886807,0.5198164369066944,3,6,4,8,0,1,nan,nan,nan,nan,nan,nan,nan,nan,nan,nan,nan,nan,0.0,nan,nan,nan,nan,nan,nan,nan,nan,nan,nan,nan,nan,nan,nan,nan,nan,nan,nan,922.5496925504995,1279.8901957139606,nan,nan,nan,nan,nan,nan
1,216,0,0,1.0,0.0,0.06035806005820632,0,0.0,0.0,0.0,0.4589374509837376,0.11037213052886807,0.34856532045486954,0.5693095815126057,0.11037213052886807,0.31187848674017005,7,0,5,2,4,6,nan,nan,nan,nan,nan,nan,nan,nan,nan,nan,nan,nan,0.0,nan,nan,nan,nan,nan,nan,nan,nan,nan,nan,nan,nan,nan,nan,nan,nan,nan,nan,922.5496925504995,1280.907024183136,nan,1280.9673822431942,nan,nan,nan,nan
1,217,1,1,1.0,1.0,0.6594937004847452,0,0.0,0.0,0.0,0.45700259957147776,0.11353554283859561,0.34346705673288214,0.5705381424100734,0.11353554283859561,0.35992588027147576,0,4,2,5,8,1,nan,nan,nan,nan,nan,nan,nan,nan,nan,nan,nan,nan,0.0,nan,nan,nan,nan,nan,nan,nan,nan,nan,nan,nan,nan,nan,nan,nan,nan,nan,nan,922.5496925504995,1281.9238141641254,nan,1282.58330786461,nan,nan,nan,nan
1,218,1,1,1.0,1.0,0.6906891042599455,0,0.0,0.0,0.0,0.4579808174502858,0.11412787090728302,0.3438529465430028,0.5721086883575688,0.11412787090728302,0.4701802882676323,2,5,1,4,0,7,nan,nan,nan,nan,nan,nan,nan,nan,nan,nan,nan,nan,0.0,nan,nan,nan,nan,nan,nan,nan,nan,nan,nan,nan,nan,nan,nan,nan,nan,nan,nan,922.5496925504995,1282.940617829794,nan,1283.631306934054,nan,nan,nan,nan
1,219,1,1,0.0,0.0,0.5298702690924983,0,0.0,0.0,0.0,0.45909960729071686,0.11498543333901534,0.3441141739517015,0.5740850406297322,0.11498543333901534,0.6266843579457296,7,6,5,0,2,8,nan,nan,nan,nan,nan,nan,nan,nan,nan,nan,nan,nan,0.0,nan,nan,nan,nan,nan,nan,nan,nan,nan,nan,nan,nan,nan,nan,nan,nan,nan,nan,922.5496925504995,1283.957429478207,nan,1284.4872997472994,nan,nan,nan,nan
1,220,1,1,1.0,1.0,0.39308945686207153,1,0.0,0.0,1.0,0.459438222897424,0.11481392680130278,0.3446242960961212,0.5742521496987267,0.11481392680130278,0.5378829434048384,5,8,3,7,4,1,1.0,1.0,1.0,1.0,1.0,1.0,0.0,0.0,1.0,1.0,1.0,0.0,3.0,4.0,1.0,3.0,7.0,4.0,8.0,4.0,3.0,2.0,1.0,6.0,5.0,7.028843061620137,5.861110889352858,4.645085996889975,1.9353455157543067,8.980336803157115,7.933067584148375,922.5496925504995,1284.9742049191846,1285.7826371434494,1285.3672943760466,1295.8088992144912,1296.811105016357,1286.791093429987,1295.8005763537658
1,221,1,1,nan,nan,nan,0,0.0,0.0,0.0,0.4591222763924937,0.11463127001470069,0.344491006377793,0.5737535464071943,0.11463127001470069,0.46147986297728494,7,4,6,1,0,2,nan,nan,nan,nan,nan,nan,nan,nan,nan,nan,nan,nan,0.0,nan,nan,nan,nan,nan,nan,nan,nan,nan,nan,nan,nan,nan,nan,nan,nan,nan,nan,922.5496925504995,1297.0341219329275,nan,nan,nan,nan,nan,nan
1,222,1,1,1.0,1.0,0.3881795021588914,0,0.0,0.0,0.0,0.4591222763924937,0.11463127001470069,0.344491006377793,0.5737535464071943,0.11463127001470069,0.39063447951048147,1,7,3,2,5,4,nan,nan,nan,nan,nan,nan,nan,nan,nan,nan,nan,nan,0.0,nan,nan,nan,nan,nan,nan,nan,nan,nan,nan,nan,nan,nan,nan,nan,nan,nan,nan,922.5496925504995,1298.0508631621778,nan,1298.4390426643367,nan,nan,nan,nan
1,223,1,1,1.0,1.0,0.40336124630994163,0,0.0,0.0,0.0,0.45878605471366146,0.11446305553536415,0.34432299917829734,0.5732491102490256,0.11446305553536415,0.3957703742344165,3,2,6,1,8,0,nan,nan,nan,nan,nan,nan,nan,nan,nan,nan,nan,nan,0.0,nan,nan,nan,nan,nan,nan,nan,nan,nan,nan,nan,nan,nan,nan,nan,nan,nan,nan,922.5496925504995,1299.0676842188113,nan,1299.4710454651213,nan,nan,nan,nan
1,224,1,1,1.0,1.0,0.33853085670853034,0,0.0,0.0,0.0,0.4585246169381722,0.11425590562445724,0.34426871131371495,0.5727805225626295,0.11425590562445724,0.37669053505912115,0,3,2,8,4,6,nan,nan,nan,nan,nan,nan,nan,nan,nan,nan,nan,nan,0.0,nan,nan,nan,nan,nan,nan,nan,nan,nan,nan,nan,nan,nan,nan,nan,nan,nan,nan,922.5496925504995,1300.08449016526,nan,1300.4230210219685,nan,nan,nan,nan
1,225,1,1,1.0,1.0,0.3537220090802293,0,0.0,0.0,0.0,0.4579612659511786,0.11428212847983053,0.34367913747134804,0.5722433944310091,0.11428212847983053,0.36520470403290045,5,6,8,2,7,4,nan,nan,nan,nan,nan,nan,nan,nan,nan,nan,nan,nan,0.0,nan,nan,nan,nan,nan,nan,nan,nan,nan,nan,nan,nan,nan,nan,nan,nan,nan,nan,922.5496925504995,1301.1012755846896,nan,1301.4549975937698,nan,nan,nan,nan
1,226,1,1,1.0,1.0,0.28892212494974956,0,1.0,0.0,0.0,0.45747416662000595,0.1142362139036211,0.34323795271638485,0.571710380523627,0.1142362139036211,0.32705833024616976,2,8,1,7,3,0,nan,nan,nan,nan,nan,nan,nan,nan,nan,nan,nan,nan,0.0,nan,nan,nan,nan,nan,nan,nan,nan,nan,nan,nan,nan,nan,nan,nan,nan,nan,nan,922.5496925504995,1302.1180612891912,nan,1302.406983414141,nan,nan,nan,nan
1,227,1,1,1.0,1.0,0.2480924104747828,1,0.0,0.0,1.0,0.4566902036354931,0.11454579548352127,0.34214440815197183,0.5712359991190143,0.11454579548352127,0.2969121815015872,1,4,8,0,7,3,1.0,1.0,1.0,1.0,1.0,1.0,0.0,0.0,0.0,1.0,0.0,0.0,1.0,2.0,6.0,4.0,0.0,5.0,6.0,4.0,3.0,2.0,1.0,6.0,5.0,6.154596290085465,4.684351379662985,3.539854965027189,2.5329039950156584,8.578599188971566,7.842757717036875,922.5496925504995,1303.1348723674018,1303.9433017406845,1303.3829647778766,1313.5861993267317,1314.594785617839,1304.9684282671078,1313.5778613557923
1,228,1,1,nan,nan,nan,0,0.0,0.0,0.0,0.45572447311160097,0.11515429527518868,0.3405701778364123,0.5708787683867896,0.11515429527518868,0.2685072677122662,3,7,6,4,2,1,nan,nan,nan,nan,nan,nan,nan,nan,nan,nan,nan,nan,0.0,nan,nan,nan,nan,nan,nan,nan,nan,nan,nan,nan,nan,nan,nan,nan,nan,nan,nan,922.5496925504995,1314.8113698722445,nan,nan,nan,nan,nan,nan
1,229,1,1,1.0,1.0,0.1225735324260313,0,0.0,0.0,0.0,0.45572447311160097,0.11515429527518868,0.3405701778364123,0.5708787683867896,0.11515429527518868,0.18533297145040706,7,0,3,8,1,4,nan,nan,nan,nan,nan,nan,nan,nan,nan,nan,nan,nan,0.0,nan,nan,nan,nan,nan,nan,nan,nan,nan,nan,nan,nan,nan,nan,nan,nan,nan,nan,922.5496925504995,1315.8281800951518,nan,1315.9507536275778,nan,nan,nan,nan
1,230,1,1,1.0,1.0,0.4257377191388514,0,0.0,0.0,0.0,0.4541892153204232,0.11708338452668719,0.337105830793736,0.5712725998471104,0.11708338452668719,0.27415562578244135,5,4,1,7,0,2,nan,nan,nan,nan,nan,nan,nan,nan,nan,nan,nan,nan,0.0,nan,nan,nan,nan,nan,nan,nan,nan,nan,nan,nan,nan,nan,nan,nan,nan,nan,nan,922.5496925504995,1316.8449786290585,nan,1317.2707163481973,nan,nan,nan,nan
1,231,1,1,1.0,1.0,0.36890974029665813,0,1.0,0.0,0.0,0.45405870387004904,0.11683035577558337,0.33722834809446567,0.5708890596456324,0.11683035577558337,0.3057403306205136,8,1,6,2,3,7,nan,nan,nan,nan,nan,nan,nan,nan,nan,nan,nan,nan,0.0,nan,nan,nan,nan,nan,nan,nan,nan,nan,nan,nan,nan,nan,nan,nan,nan,nan,nan,922.5496925504995,1317.861779158673,nan,1318.2306888989697,nan,nan,nan,nan
1,232,0,0,0.0,1.0,0.5441248751303647,1,0.0,0.0,1.0,0.45366989581720246,0.11670459178901818,0.33696530402818425,0.5703744876062207,0.11670459178901818,0.4462574448552914,7,4,2,5,0,1,1.0,1.0,1.0,1.0,1.0,1.0,0.0,1.0,0.0,1.0,0.0,0.0,2.0,8.0,4.0,0.0,5.0,4.0,3.0,4.0,3.0,2.0,1.0,6.0,5.0,6.26851425258792,4.836283145472407,3.987232464191038,2.228849732899107,7.627068099594908,7.067798828124069,922.5496925504995,1318.8785694247345,1319.6869819772546,1319.4226942998648,1328.371434281522,1329.367755664338,1320.7037902045122,1328.3631017274747
1,233,1,1,1.0,1.0,0.7061565164185595,0,0.0,0.0,0.0,0.4540810548140805,0.11659792088393592,0.3374831339301446,0.5706789756980164,0.11659792088393592,0.5397303772818608,6,8,1,7,2,3,nan,nan,nan,nan,nan,nan,nan,nan,nan,nan,nan,nan,0.0,nan,nan,nan,nan,nan,nan,nan,nan,nan,nan,nan,nan,nan,nan,nan,nan,nan,nan,922.5496925504995,1329.5883007827797,nan,1330.2944572991983,nan,nan,nan,nan
1,234,1,1,1.0,1.0,0.46539026469690725,0,0.0,0.0,0.0,0.45522166776251705,0.1175575540528049,0.33766411370971217,0.5727792218153219,0.1175575540528049,0.5718905520819438,2,3,0,8,6,1,nan,nan,nan,nan,nan,nan,nan,nan,nan,nan,nan,nan,0.0,nan,nan,nan,nan,nan,nan,nan,nan,nan,nan,nan,nan,nan,nan,nan,nan,nan,nan,922.5496925504995,1330.6050916190434,nan,1331.0704818837403,nan,nan,nan,nan
1,235,0,0,nan,nan,nan,0,0.0,0.0,0.0,0.4552674722532125,0.11729446248505904,0.3379730097681535,0.5725619347382715,0.11729446248505904,0.5857733905577334,0,7,2,3,5,6,nan,nan,nan,nan,nan,nan,nan,nan,nan,nan,nan,nan,0.0,nan,nan,nan,nan,nan,nan,nan,nan,nan,nan,nan,nan,nan,nan,nan,nan,nan,nan,922.5496925504995,1331.6218910082534,nan,nan,nan,nan,nan,nan
1,236,1,1,1.0,1.0,0.5117272138595581,0,0.0,0.0,0.0,0.4552674722532125,0.11729446248505904,0.3379730097681535,0.5725619347382715,0.11729446248505904,0.4885587392782327,8,2,7,5,1,0,nan,nan,nan,nan,nan,nan,nan,nan,nan,nan,nan,nan,0.0,nan,nan,nan,nan,nan,nan,nan,nan,nan,nan,nan,nan,nan,nan,nan,nan,nan,nan,922.5496925504995,1332.6386787084339,nan,1333.1504059222934,nan,nan,nan,nan
1,237,1,1,1.0,1.0,0.734936856519198,0,0.0,0.0,0.0,0.4555206549509988,0.11709195715883423,0.33842869779216456,0.572612612109833,0.11709195715883423,0.6233320351893781,6,3,2,8,7,5,nan,nan,nan,nan,nan,nan,nan,nan,nan,nan,nan,nan,0.0,nan,nan,nan,nan,nan,nan,nan,nan,nan,nan,nan,nan,nan,nan,nan,nan,nan,nan,922.5496925504995,1333.6554823741317,nan,1334.3904192306509,nan,nan,nan,nan
1,238,1,1,1.0,1.0,0.48611288506072015,0,0.0,1.0,0.0,0.4567680487079997,0.11830597938506665,0.33846206932293305,0.5750740280930664,0.11830597938506665,0.5775923184798254,5,8,6,0,2,4,nan,nan,nan,nan,nan,nan,nan,nan,nan,nan,nan,nan,0.0,nan,nan,nan,nan,nan,nan,nan,nan,nan,nan,nan,nan,nan,nan,nan,nan,nan,nan,922.5496925504995,1334.6722968734975,nan,1335.1584097585583,nan,nan,nan,nan
1,239,1,1,1.0,1.0,0.4613116552645806,1,0.0,0.0,1.0,0.4568984702029007,0.11805892235232637,0.33883954785057435,0.574957392555227,0.11805892235232637,0.5607871322814996,2,5,4,3,6,1,1.0,1.0,1.0,1.0,1.0,1.0,0.0,0.0,1.0,1.0,0.0,0.0,2.0,0.0,7.0,4.0,3.0,4.0,8.0,4.0,3.0,2.0,1.0,6.0,5.0,4.137066765339114,3.2819765718013514,2.305478895897977,1.0105657253006939,6.0885342778638005,5.48047992226202,922.5496925504995,1335.689071459201,1336.4974871478043,1336.1503831144655,1343.6317280235235,1344.639897501649,1337.5059548382415,1343.6233988906315
1,240,1,1,1.0,1.0,0.4773164768121205,0,0.0,0.0,0.0,0.4569179975704302,0.1177978046450527,0.33912019292537754,0.5747158022154829,0.1177978046450527,0.47491367237914045,6,1,5,8,0,3,nan,nan,nan,nan,nan,nan,nan,nan,nan,nan,nan,nan,0.0,nan,nan,nan,nan,nan,nan,nan,nan,nan,nan,nan,nan,nan,nan,nan,nan,nan,nan,922.5496925504995,1344.8569196662866,nan,1345.3342361430987,nan,nan,nan,nan
1,241,0,0,0.0,1.0,0.6925268447957933,0,0.0,0.0,0.0,0.45700785871246413,0.11754581472587965,0.33946204398658447,0.5745536734383437,0.11754581472587965,0.5437183256241648,5,8,3,6,1,7,nan,nan,nan,nan,nan,nan,nan,nan,nan,nan,nan,nan,0.0,nan,nan,nan,nan,nan,nan,nan,nan,nan,nan,nan,nan,nan,nan,nan,nan,nan,nan,922.5496925504995,1345.8736811374838,nan,1346.5662079822796,nan,nan,nan,nan
1,242,1,1,1.0,1.0,0.4916663055482786,0,0.0,0.0,0.0,0.4580408367216015,0.11831583364354609,0.3397250030780554,0.5763566703651476,0.11831583364354609,0.5538365423853975,7,2,0,3,8,4,nan,nan,nan,nan,nan,nan,nan,nan,nan,nan,nan,nan,0.0,nan,nan,nan,nan,nan,nan,nan,nan,nan,nan,nan,nan,nan,nan,nan,nan,nan,nan,922.5496925504995,1346.890524716844,nan,1347.3821910223924,nan,nan,nan,nan
1,243,1,1,1.0,1.0,0.4108587488590274,0,0.0,0.0,0.0,0.45818767283001494,0.11807803752569898,0.3401096353043159,0.576265710355714,0.11807803752569898,0.5316839664010331,8,6,2,1,5,7,nan,nan,nan,nan,nan,nan,nan,nan,nan,nan,nan,nan,0.0,nan,nan,nan,nan,nan,nan,nan,nan,nan,nan,nan,nan,nan,nan,nan,nan,nan,nan,922.5496925504995,1347.9073164084111,nan,1348.3181751572702,nan,nan,nan,nan
1,244,1,1,1.0,1.0,0.3220599001797382,0,0.0,0.0,0.0,0.4579818948997063,0.11786221031010152,0.3401196845896048,0.5758441052098078,0.11786221031010152,0.40819498486234806,3,8,1,0,7,5,nan,nan,nan,nan,nan,nan,nan,nan,nan,nan,nan,nan,0.0,nan,nan,nan,nan,nan,nan,nan,nan,nan,nan,nan,nan,nan,nan,nan,nan,nan,nan,922.5496925504995,1348.9241063894005,nan,1349.2461662895803,nan,nan,nan,nan
1,245,1,1,1.0,1.0,0.36923874318017624,0,0.0,0.0,0.0,0.45739348799615664,0.11794488318794978,0.3394486048082069,0.5753383711841065,0.11794488318794978,0.36738579740631394,8,2,6,7,5,3,nan,nan,nan,nan,nan,nan,nan,nan,nan,nan,nan,nan,0.0,nan,nan,nan,nan,nan,nan,nan,nan,nan,nan,nan,nan,nan,nan,nan,nan,nan,nan,922.5496925504995,1349.9409103401704,nan,1350.3101490833506,nan,nan,nan,nan
1,246,1,1,1.0,1.0,0.2884032469301019,0,1.0,0.0,0.0,0.4570135106478119,0.11783202750628291,0.339181483141529,0.5748455381540949,0.11783202750628291,0.3265672967633388,1,7,3,5,2,8,nan,nan,nan,nan,nan,nan,nan,nan,nan,nan,nan,nan,0.0,nan,nan,nan,nan,nan,nan,nan,nan,nan,nan,nan,nan,nan,nan,nan,nan,nan,nan,922.5496925504995,1350.9577177120955,nan,1351.2461209590256,nan,nan,nan,nan
1,247,1,1,1.0,1.0,0.27160072163678706,1,0.0,0.0,1.0,0.4562898614473067,0.11809440324628535,0.33819545820102137,0.574384264693592,0.11809440324628535,0.3097475705823551,8,0,2,1,7,3,1.0,1.0,1.0,1.0,1.0,1.0,0.0,1.0,0.0,0.0,0.0,0.0,1.0,7.0,0.0,8.0,4.0,3.0,1.0,4.0,3.0,2.0,1.0,6.0,5.0,7.8431317653739825,6.866665735346032,5.7814112228224985,1.724895711231511,10.226974929653807,8.954916626011254,922.5496925504995,1351.9744994252396,1352.782925092266,1352.2461001468764,1364.0593636388658,1365.0599523658748,1353.7913913571974,1364.0510384973313
1,248,1,1,nan,nan,nan,0,0.0,0.0,0.0,0.45550059161905665,0.11845604744035278,0.3370445441787039,0.5739566390594094,0.11845604744035278,0.28000198428344447,4,1,3,5,2,0,nan,nan,nan,nan,nan,nan,nan,nan,nan,nan,nan,nan,0.0,nan,nan,nan,nan,nan,nan,nan,nan,nan,nan,nan,nan,nan,nan,nan,nan,nan,nan,922.5496925504995,1365.284563549445,nan,nan,nan,nan,nan,nan
1,249,1,1,1.0,1.0,0.5924974227091298,0,0.0,0.0,0.0,0.45550059161905665,0.11845604744035278,0.3370445441787039,0.5739566390594094,0.11845604744035278,0.4320490721729584,6,5,7,4,3,1,nan,nan,nan,nan,nan,nan,nan,nan,nan,nan,nan,nan,0.0,nan,nan,nan,nan,nan,nan,nan,nan,nan,nan,nan,nan,nan,nan,nan,nan,nan,nan,922.5496925504995,1366.3013481135713,nan,1366.8938455362804,nan,nan,nan,nan
1,250,1,1,1.0,1.0,0.4953814152686391,0,0.0,0.0,0.0,0.4560835568577378,0.11853965488451904,0.3375439019732188,0.5746232117422568,0.11853965488451904,0.5439394189888844,5,6,2,0,1,3,nan,nan,nan,nan,nan,nan,nan,nan,nan,nan,nan,nan,0.0,nan,nan,nan,nan,nan,nan,nan,nan,nan,nan,nan,nan,nan,nan,nan,nan,nan,nan,922.5496925504995,1367.3264469855058,nan,1367.8218284007744,nan,nan,nan,nan
1,251,1,1,1.0,1.0,0.6221681233437266,0,0.0,0.0,0.0,0.45625007320693656,0.11831578465894284,0.33793428854799373,0.5745658578658794,0.11831578465894284,0.5700156537738318,1,3,0,5,2,4,nan,nan,nan,nan,nan,nan,nan,nan,nan,nan,nan,nan,0.0,nan,nan,nan,nan,nan,nan,nan,nan,nan,nan,nan,nan,nan,nan,nan,nan,nan,nan,922.5496925504995,1368.3516182722524,nan,1368.973786395596,nan,nan,nan,nan
1,252,1,1,1.0,1.0,0.6453474316222128,0,0.0,1.0,0.0,0.4569501493678513,0.11855473055323709,0.3383954188146142,0.5755048799210883,0.11855473055323709,0.5876323234115262,0,6,2,1,4,7,nan,nan,nan,nan,nan,nan,nan,nan,nan,nan,nan,nan,0.0,nan,nan,nan,nan,nan,nan,nan,nan,nan,nan,nan,nan,nan,nan,nan,nan,nan,nan,922.5496925504995,1369.3684210826468,nan,1370.013768514269,nan,nan,nan,nan
1,253,1,1,nan,nan,nan,0,0.0,0.0,0.0,0.4577417345874074,0.1189313855541462,0.33881034903326124,0.5766731201415536,0.1189313855541462,0.6337577774829697,3,4,7,6,5,1,nan,nan,nan,nan,nan,nan,nan,nan,nan,nan,nan,nan,0.0,nan,nan,nan,nan,nan,nan,nan,nan,nan,nan,nan,nan,nan,nan,nan,nan,nan,nan,922.5496925504995,1370.385205646773,nan,nan,nan,nan,nan,nan
1,254,1,1,nan,nan,nan,0,0.0,0.0,0.0,0.4577417345874074,0.1189313855541462,0.33881034903326124,0.5766731201415536,0.1189313855541462,0.6453474316222128,4,5,6,1,3,0,nan,nan,nan,nan,nan,nan,nan,nan,nan,nan,nan,nan,0.0,nan,nan,nan,nan,nan,nan,nan,nan,nan,nan,nan,nan,nan,nan,nan,nan,nan,nan,922.5496925504995,1371.4103150673036,nan,nan,nan,nan,nan,nan
1,255,1,1,1.0,1.0,0.6342212039744481,0,0.0,0.0,0.0,0.4577417345874074,0.1189313855541462,0.33881034903326124,0.5766731201415536,0.1189313855541462,0.6342212039744481,5,7,2,8,6,4,nan,nan,nan,nan,nan,nan,nan,nan,nan,nan,nan,nan,0.0,nan,nan,nan,nan,nan,nan,nan,nan,nan,nan,nan,nan,nan,nan,nan,nan,nan,nan,922.5496925504995,1372.4354769458587,nan,1373.0696981498331,nan,nan,nan,nan
1,256,1,1,1.0,1.0,0.48141960470820777,0,0.0,0.0,0.0,0.4584801424091105,0.11922776650560783,0.33925237590350266,0.5777079089147183,0.11922776650560783,0.557820404341328,0,3,4,5,1,7,nan,nan,nan,nan,nan,nan,nan,nan,nan,nan,nan,nan,0.0,nan,nan,nan,nan,nan,nan,nan,nan,nan,nan,nan,nan,nan,nan,nan,nan,nan,nan,922.5496925504995,1373.4522880240693,nan,1373.9337076287775,nan,nan,nan,nan
1,257,1,1,1.0,1.0,0.3446578939910978,0,0.0,0.0,0.0,0.4585757235020234,0.11898829143143938,0.33958743207058406,0.5775640149334628,0.11898829143143938,0.4867662342245846,5,6,3,4,2,8,nan,nan,nan,nan,nan,nan,nan,nan,nan,nan,nan,nan,0.0,nan,nan,nan,nan,nan,nan,nan,nan,nan,nan,nan,nan,nan,nan,nan,nan,nan,nan,922.5496925504995,1374.469038091367,nan,1374.8136959853582,nan,nan,nan,nan
1,258,1,1,1.0,1.0,0.3198213120631408,0,0.0,0.0,0.0,0.4581030354127665,0.11896675960560398,0.3391362758071625,0.5770697950183704,0.11896675960560398,0.3819662702541488,7,5,1,8,4,6,nan,nan,nan,nan,nan,nan,nan,nan,nan,nan,nan,nan,0.0,nan,nan,nan,nan,nan,nan,nan,nan,nan,nan,nan,nan,nan,nan,nan,nan,nan,nan,922.5496925504995,1375.4858648499649,nan,1375.805686162028,nan,nan,nan,nan
1,259,1,1,1.0,1.0,0.38300469156820327,0,0.0,0.0,0.0,0.45753162333280933,0.11905165006805524,0.3384799732647541,0.5765832734008646,0.11905165006805524,0.3491612992074806,0,3,5,6,8,2,nan,nan,nan,nan,nan,nan,nan,nan,nan,nan,nan,nan,0.0,nan,nan,nan,nan,nan,nan,nan,nan,nan,nan,nan,nan,nan,nan,nan,nan,nan,nan,922.5496925504995,1376.5026630987704,nan,1376.8856677903386,nan,nan,nan,nan
1,260,1,1,1.0,1.0,0.40586155420169234,0,0.0,0.0,0.0,0.4572249281403624,0.11890219533386782,0.3383227328064946,0.5761271234742302,0.11890219533386782,0.3695625192776788,1,6,0,7,3,5,nan,nan,nan,nan,nan,nan,nan,nan,nan,nan,nan,nan,0.0,nan,nan,nan,nan,nan,nan,nan,nan,nan,nan,nan,nan,nan,nan,nan,nan,nan,nan,922.5496925504995,1377.5277810722473,nan,1377.933642626449,nan,nan,nan,nan
1,261,1,1,1.0,1.0,0.3649474507838022,0,0.0,0.0,0.0,0.4570144225094662,0.11870365831435899,0.33831076419510725,0.5757180808238253,0.11870365831435899,0.3846045655178993,4,2,5,6,8,1,nan,nan,nan,nan,nan,nan,nan,nan,nan,nan,nan,nan,0.0,nan,nan,nan,nan,nan,nan,nan,nan,nan,nan,nan,nan,nan,nan,nan,nan,nan,nan,922.5496925504995,1378.5446722629422,nan,1378.909619713726,nan,nan,nan,nan
1,262,1,1,1.0,1.0,0.3482130638731178,0,0.0,0.0,0.0,0.4566386389514023,0.11860650089469266,0.3380321380567096,0.5752451398460949,0.11860650089469266,0.37300735628620413,2,5,7,1,6,4,nan,nan,nan,nan,nan,nan,nan,nan,nan,nan,nan,nan,0.0,nan,nan,nan,nan,nan,nan,nan,nan,nan,nan,nan,nan,nan,nan,nan,nan,nan,nan,922.5496925504995,1379.5613906843646,nan,1379.9096037482377,nan,nan,nan,nan
1,263,1,1,1.0,1.0,0.33142108720494434,0,0.0,0.0,0.0,0.45619788458116534,0.11856606541682954,0.3376318191643358,0.5747639499979948,0.11856606541682954,0.34819386728728813,3,4,6,2,5,0,nan,nan,nan,nan,nan,nan,nan,nan,nan,nan,nan,nan,0.0,nan,nan,nan,nan,nan,nan,nan,nan,nan,nan,nan,nan,nan,nan,nan,nan,nan,nan,922.5496925504995,1380.5781786696753,nan,1380.9095997568802,nan,nan,nan,nan
1,264,1,1,1.0,1.0,0.33827711964841,0,0.0,0.0,0.0,0.4556927153610187,0.11859078989095553,0.3371019254700631,0.5742835052519742,0.11859078989095553,0.33930375690882403,2,6,0,5,8,3,nan,nan,nan,nan,nan,nan,nan,nan,nan,nan,nan,nan,0.0,nan,nan,nan,nan,nan,nan,nan,nan,nan,nan,nan,nan,nan,nan,nan,nan,nan,nan,922.5496925504995,1381.603326863522,nan,1381.9416039831704,nan,nan,nan,nan
1,265,1,1,1.0,1.0,0.26543091965140775,0,1.0,0.0,0.0,0.4552192653783066,0.11858512947191713,0.33663413590638946,0.5738043948502237,0.11858512947191713,0.3117097088349207,3,8,7,6,4,0,nan,nan,nan,nan,nan,nan,nan,nan,nan,nan,nan,nan,0.0,nan,nan,nan,nan,nan,nan,nan,nan,nan,nan,nan,nan,nan,nan,nan,nan,nan,nan,922.5496925504995,1382.6201308142918,nan,1382.8855617339432,nan,nan,nan,nan
1,266,1,1,1.0,1.0,0.2886102279298939,1,0.0,0.0,1.0,0.45445706318663226,0.11895391308609016,0.3355031501005421,0.5734109762727224,0.11895391308609016,0.2974394224099039,1,2,3,5,7,6,1.0,1.0,1.0,1.0,1.0,1.0,0.0,0.0,0.0,1.0,0.0,0.0,1.0,3.0,6.0,1.0,5.0,0.0,2.0,2.0,4.0,3.0,1.0,6.0,5.0,2.222099756851094,6.3794979883532505,4.932363962725503,1.158800912759034,8.779356237704633,7.3475827125657815,922.5496925504995,1383.6369250717398,1384.4453361987544,1383.9255352996697,1394.279920446308,1395.2766572166292,1385.46213929425,1394.271593594196
1,267,1,1,nan,nan,nan,0,0.0,0.0,0.0,0.4537936758456053,0.11917639830534227,0.33461727754026305,0.5729700741509476,0.11917639830534227,0.2770205737906508,5,8,6,0,3,4,nan,nan,nan,nan,nan,nan,nan,nan,nan,nan,nan,nan,0.0,nan,nan,nan,nan,nan,nan,nan,nan,nan,nan,nan,nan,nan,nan,nan,nan,nan,nan,922.5496925504995,1395.496774973435,nan,nan,nan,nan,nan,nan
1,268,1,1,1.0,1.0,0.25171685908571817,0,0.0,0.0,0.0,0.4537936758456053,0.11917639830534227,0.33461727754026305,0.5729700741509476,0.11917639830534227,0.270163543507806,2,7,4,8,1,5,nan,nan,nan,nan,nan,nan,nan,nan,nan,nan,nan,nan,0.0,nan,nan,nan,nan,nan,nan,nan,nan,nan,nan,nan,nan,nan,nan,nan,nan,nan,nan,922.5496925504995,1396.5135988810507,nan,1396.7653157401364,nan,nan,nan,nan
1,269,1,1,1.0,1.0,0.6105711991840508,0,0.0,0.0,0.0,0.4529885889262432,0.11961801468493216,0.33337057424131106,0.5726066036111754,0.11961801468493216,0.4311440291348845,3,1,5,4,7,6,nan,nan,nan,nan,nan,nan,nan,nan,nan,nan,nan,nan,0.0,nan,nan,nan,nan,nan,nan,nan,nan,nan,nan,nan,nan,nan,nan,nan,nan,nan,nan,922.5496925504995,1397.5387028847472,nan,1398.1492740839312,nan,nan,nan,nan
1,270,1,1,1.0,1.0,0.5137343025126029,0,0.0,0.0,0.0,0.45361391674472656,0.11979081580640412,0.33382310093832246,0.5734047325511307,0.11979081580640412,0.45867412026079063,0,3,4,6,8,7,nan,nan,nan,nan,nan,nan,nan,nan,nan,nan,nan,nan,0.0,nan,nan,nan,nan,nan,nan,nan,nan,nan,nan,nan,nan,nan,nan,nan,nan,nan,nan,922.5496925504995,1398.5555228009762,nan,1399.0692571034888,nan,nan,nan,nan
1,271,1,1,1.0,1.0,0.3449361494858749,0,0.0,0.0,0.0,0.4538515467279988,0.11961333853886798,0.33423820818913086,0.5734648852668668,0.11961333853886798,0.48974721706084284,4,8,0,3,2,5,nan,nan,nan,nan,nan,nan,nan,nan,nan,nan,nan,nan,0.0,nan,nan,nan,nan,nan,nan,nan,nan,nan,nan,nan,nan,nan,nan,nan,nan,nan,nan,922.5496925504995,1399.572318769031,nan,1399.9172549185168,nan,nan,nan,nan
1,272,1,1,1.0,1.0,0.29613310418790206,0,0.0,0.0,0.0,0.45342274595145504,0.11957232849049385,0.3338504174609612,0.5729950744419489,0.11957232849049385,0.3849345187287933,6,1,7,0,4,2,nan,nan,nan,nan,nan,nan,nan,nan,nan,nan,nan,nan,0.0,nan,nan,nan,nan,nan,nan,nan,nan,nan,nan,nan,nan,nan,nan,nan,nan,nan,nan,922.5496925504995,1400.5891084648902,nan,1400.885241569078,nan,nan,nan,nan
1,273,0,0,1.0,0.0,0.27132275127223693,0,0.0,0.0,0.0,0.45280592382689205,0.11974185655387926,0.3330640672730128,0.5725477803807713,0.11974185655387926,0.30413066831533797,8,7,6,5,2,1,nan,nan,nan,nan,nan,nan,nan,nan,nan,nan,nan,nan,0.0,nan,nan,nan,nan,nan,nan,nan,nan,nan,nan,nan,nan,nan,nan,nan,nan,nan,nan,922.5496925504995,1401.605894739594,nan,1401.8772174908663,nan,nan,nan,nan
