block,trial,freq_trials,correct_response,actual_response,acc,rts,probe_trials,fast_rt_trigger,slow_rt_trigger,rt_triggered,rts_runningavg,rts_runningstd,rts_runningfastthresh,rts_runningslowthresh,rts_runningstd,rts_trailingavg,trials_colorind,trials_colorrgb0,trials_colorrgb1,trials_colorrgb2,wm_respdeg,wm_respdeg_in_colorspace,wm_respcolorminusorigcolor,wm_resptexind,wm_resptexrgb0,wm_resptexrgb1,wm_resptexrgb2,wm_rts,time_blockstart,time_encarray_offset,time_encarray_onset,time_response,time_iti_offset,time_iti_onset,time_memprobe_offset,time_memprobe_onset
1,1,1,1,1.0,1.0,0.62470663432,0,nan,nan,nan,nan,nan,nan,nan,nan,nan,424,0.142174562463,0.448819569244,-0.770229420881,nan,nan,nan,nan,nan,nan,nan,nan,857.278913196,858.294201566,nan,858.918908201,nan,nan,nan,nan
1,2,0,0,0.0,1.0,0.511980380688,0,nan,nan,nan,nan,nan,nan,nan,nan,nan,305,0.00361192545304,0.406859252708,0.500196907155,nan,nan,nan,nan,nan,nan,nan,nan,857.278913196,859.238922239,nan,859.75090262,nan,nan,nan,nan
1,3,1,1,1.0,1.0,0.373157127644,0,nan,nan,nan,nan,nan,nan,nan,nan,nan,234,0.71814774995,0.15974031316,0.62913160129,nan,nan,nan,nan,nan,nan,nan,nan,857.278913196,860.177730838,nan,860.550887966,nan,nan,nan,nan
1,4,1,1,1.0,1.0,0.367355672061,0,nan,nan,nan,nan,nan,nan,nan,nan,nan,459,0.407758158413,0.385709174134,-1.0,nan,nan,nan,nan,nan,nan,nan,nan,857.278913196,861.119524126,nan,861.486879798,nan,nan,nan,nan
1,5,1,1,1.0,1.0,0.313555147033,0,nan,nan,nan,nan,nan,nan,nan,nan,nan,115,1.0,-0.305166285737,-0.293172749504,nan,nan,nan,nan,nan,nan,nan,nan,857.278913196,862.061309717,nan,862.374864864,nan,nan,nan,nan
1,6,1,1,1.0,1.0,0.243772323185,0,nan,nan,nan,nan,nan,nan,nan,nan,nan,352,-0.17544712699,0.470851603012,0.118673592819,nan,nan,nan,nan,nan,nan,nan,nan,857.278913196,863.003071359,nan,863.246843682,nan,nan,nan,nan
1,7,1,1,1.0,1.0,0.309933834476,0,nan,nan,nan,nan,nan,nan,nan,nan,nan,483,0.606025706087,0.319314454546,-1.0,nan,nan,nan,nan,nan,nan,nan,nan,857.278913196,863.944891161,nan,864.254824996,nan,nan,nan,nan
1,8,1,1,1.0,1.0,0.304126962088,0,nan,nan,nan,nan,nan,nan,nan,nan,nan,210,0.958022500947,0.0359304984579,0.533421856807,nan,nan,nan,nan,nan,nan,nan,nan,857.278913196,864.886683024,nan,865.190809986,nan,nan,nan,nan
1,9,1,1,1.0,1.0,0.322256047511,0,nan,nan,nan,nan,nan,nan,nan,nan,nan,38,1.0,0.0306259494545,-1.0,nan,nan,nan,nan,nan,nan,nan,nan,857.278913196,865.828541884,nan,866.150797932,nan,nan,nan,nan
1,10,1,1,1.0,1.0,0.332529547566,0,nan,nan,nan,nan,nan,nan,nan,nan,nan,308,-0.0186828559465,0.413097475488,0.481682330771,nan,nan,nan,nan,nan,nan,nan,nan,857.278913196,866.770247077,nan,867.102776625,nan,nan,nan,nan
1,11,0,0,0.0,1.0,0.374707489624,0,nan,nan,nan,nan,nan,nan,nan,nan,nan,391,-0.0591907973189,0.475916278612,-0.303718712187,nan,nan,nan,nan,nan,nan,nan,nan,857.278913196,867.712077428,nan,868.086784918,nan,nan,nan,nan
1,12,1,1,1.0,1.0,0.336916632834,0,nan,nan,nan,nan,nan,nan,nan,nan,nan,120,1.0,-0.310161497659,-0.240162905937,nan,nan,nan,nan,nan,nan,nan,nan,857.278913196,868.653826241,nan,868.990742874,nan,nan,nan,nan
1,13,1,1,1.0,1.0,0.307094260177,0,nan,nan,nan,nan,nan,nan,nan,nan,nan,237,0.686387300223,0.174031846447,0.636349816437,nan,nan,nan,nan,nan,nan,nan,nan,857.278913196,869.595615538,nan,869.902709798,nan,nan,nan,nan
1,14,1,1,1.0,1.0,0.301272847748,0,nan,nan,nan,nan,nan,nan,nan,nan,nan,491,0.673033477965,0.292707709811,-1.0,nan,nan,nan,nan,nan,nan,nan,nan,857.278913196,870.537437906,nan,870.838710753,nan,nan,nan,nan
1,15,1,1,1.0,1.0,0.503480189131,0,nan,nan,nan,nan,nan,nan,nan,nan,nan,47,1.0,-0.0170755915744,-1.0,nan,nan,nan,nan,nan,nan,nan,nan,857.278913196,871.479195271,nan,871.982675461,nan,nan,nan,nan
1,16,1,1,1.0,1.0,0.329668020713,0,nan,nan,nan,nan,nan,nan,nan,nan,nan,126,1.0,-0.311411754845,-0.177408431044,nan,nan,nan,nan,nan,nan,nan,nan,857.278913196,872.421007091,nan,872.750675112,nan,nan,nan,nan
1,17,1,1,1.0,1.0,0.53182718053,0,nan,nan,nan,nan,nan,nan,nan,nan,nan,13,0.950262168777,0.154664060346,-1.0,nan,nan,nan,nan,nan,nan,nan,nan,857.278913196,873.362825183,nan,873.894652363,nan,nan,nan,nan
1,18,1,1,1.0,1.0,0.334084185946,0,nan,nan,nan,nan,nan,nan,nan,nan,nan,73,1.0,-0.1546788618,-0.830916872461,nan,nan,nan,nan,nan,nan,nan,nan,857.278913196,874.304554324,nan,874.63863851,nan,nan,nan,nan
1,19,1,1,1.0,1.0,0.256264739553,0,nan,nan,nan,nan,nan,nan,nan,nan,nan,364,-0.160194321586,0.476704516321,-0.00341124574885,nan,nan,nan,nan,nan,nan,nan,nan,857.278913196,875.246357875,nan,875.502622615,nan,nan,nan,nan
1,20,1,1,1.0,1.0,0.338466424611,0,nan,nan,nan,nan,nan,nan,nan,nan,nan,300,0.0433537089178,0.395748422077,0.528951029102,nan,nan,nan,nan,nan,nan,nan,nan,857.278913196,876.188135483,nan,876.526601908,nan,nan,nan,nan
1,21,1,1,1.0,1.0,0.292662323278,0,nan,nan,nan,nan,nan,nan,nan,nan,nan,481,0.589289488337,0.325611856148,-1.0,nan,nan,nan,nan,nan,nan,nan,nan,857.278913196,877.129932192,nan,877.422594516,nan,nan,nan,nan
1,22,1,1,1.0,1.0,0.190869571175,0,nan,nan,nan,nan,nan,nan,nan,nan,nan,12,0.942476689623,0.159273951266,-1.0,nan,nan,nan,nan,nan,nan,nan,nan,857.278913196,878.071710085,nan,878.262579656,nan,nan,nan,nan
1,23,1,1,1.0,1.0,0.30507918878,0,nan,nan,nan,nan,nan,nan,nan,nan,nan,251,0.535576518695,0.236509187076,0.655284151108,nan,nan,nan,nan,nan,nan,nan,nan,857.278913196,879.013507935,nan,879.318587124,nan,nan,nan,nan
1,24,1,1,1.0,1.0,0.227268010203,1,nan,nan,nan,nan,nan,nan,nan,nan,nan,377,-0.121259861678,0.478700828387,-0.143695900877,-166.984357235,256.984357235,-8.09376776511,365.0,-0.157962026257,0.477016591838,-0.0139196855225,2.51728519594,857.278913196,879.955288394,880.763713775,880.182556404,884.31411736,885.32172434,881.780468119,884.305780814
1,25,1,1,1.0,1.0,0.50211114937,0,nan,nan,nan,nan,nan,nan,nan,nan,nan,444,0.289241202529,0.417409780569,-1.0,nan,nan,nan,nan,nan,nan,nan,nan,857.278913196,885.464329131,nan,885.96644028,nan,nan,nan,nan
1,26,1,1,1.0,1.0,0.440308498626,0,nan,nan,nan,nan,nan,nan,nan,nan,nan,66,1.0,-0.118568705386,-1.0,nan,nan,nan,nan,nan,nan,nan,nan,857.278913196,886.406120708,nan,886.846429207,nan,nan,nan,nan
1,27,1,1,1.0,1.0,0.322501516726,0,nan,nan,nan,nan,nan,nan,nan,nan,nan,382,-0.1011887567,0.478291136399,-0.199732273247,nan,nan,nan,nan,nan,nan,nan,nan,857.278913196,887.347903448,nan,887.670404964,nan,nan,nan,nan
1,28,0,0,0.0,1.0,0.332696614845,0,nan,nan,nan,nan,nan,nan,nan,nan,nan,67,1.0,-0.12380466598,-1.0,nan,nan,nan,nan,nan,nan,nan,nan,857.278913196,888.289691319,nan,888.622387934,nan,nan,nan,nan
1,29,1,1,1.0,1.0,0.26290951448,0,nan,nan,nan,nan,nan,nan,nan,nan,nan,340,-0.166837174664,0.460980112934,0.232376404312,nan,nan,nan,nan,nan,nan,nan,nan,857.278913196,889.231472063,nan,889.494381577,nan,nan,nan,nan
1,30,1,1,1.0,1.0,0.313081029337,1,nan,nan,nan,nan,nan,nan,nan,nan,nan,194,1.0,-0.0524864644427,0.435571704399,-22.533250079,112.533250079,-23.872999921,160.0,1.0,-0.227501418013,0.158297521075,5.26763843209,857.278913196,890.173271338,890.981690163,890.486352367,897.282551044,898.285138022,891.998450778,897.274124408
1,31,1,1,1.0,1.0,0.477877834404,0,nan,nan,nan,nan,nan,nan,nan,nan,nan,135,1.0,-0.303502321856,-0.0849788702499,nan,nan,nan,nan,nan,nan,nan,nan,857.278913196,898.424336748,nan,898.902214583,nan,nan,nan,nan
1,32,1,1,1.0,1.0,0.336071602884,0,nan,nan,nan,nan,nan,nan,nan,nan,nan,366,-0.155593376329,0.477302029306,-0.0244766492797,nan,nan,nan,nan,nan,nan,nan,nan,857.278913196,899.366122624,nan,899.702194227,nan,nan,nan,nan
1,33,1,1,1.0,1.0,0.274286628235,0,nan,nan,nan,nan,nan,nan,nan,nan,nan,103,1.0,-0.279537473278,-0.423758835275,nan,nan,nan,nan,nan,nan,nan,nan,857.278913196,900.307884836,nan,900.582171465,nan,nan,nan,nan
1,34,1,1,1.0,1.0,0.244456843066,0,nan,nan,nan,nan,nan,nan,nan,nan,nan,213,0.929785093221,0.0521668813814,0.548906519778,nan,nan,nan,nan,nan,nan,nan,nan,857.278913196,901.249701217,nan,901.494158061,nan,nan,nan,nan
1,35,1,1,1.0,1.0,0.246607050824,0,nan,nan,nan,nan,nan,nan,nan,nan,nan,148,1.0,-0.272695592461,0.0444264621409,nan,nan,nan,nan,nan,nan,nan,nan,857.278913196,902.191544968,nan,902.438152019,nan,nan,nan,nan
1,36,0,0,0.0,1.0,0.424847073504,0,nan,nan,nan,nan,nan,nan,nan,nan,nan,237,0.686387300223,0.174031846447,0.636349816437,nan,nan,nan,nan,nan,nan,nan,nan,857.278913196,903.133281807,nan,903.55812888,nan,nan,nan,nan
1,37,1,1,1.0,1.0,0.435066119884,0,nan,nan,nan,nan,nan,nan,nan,nan,nan,161,1.0,-0.223158351501,0.167490545043,nan,nan,nan,nan,nan,nan,nan,nan,857.278913196,904.075049436,nan,904.510115556,nan,nan,nan,nan
1,38,1,1,1.0,1.0,0.333224045811,1,nan,nan,nan,nan,nan,nan,nan,nan,nan,484,0.614398947124,0.316112737715,-1.0,127.551282126,322.448717874,-17.8637821262,459.0,0.407758158413,0.385709174134,-1.0,1.80057749414,857.278913196,905.016874085,905.825272382,905.350098131,908.667266608,909.672931216,906.850366693,908.658960568
1,39,1,1,1.0,1.0,0.500482670614,0,nan,nan,nan,nan,nan,nan,nan,nan,nan,59,1.0,-0.0814409933332,-1.0,nan,nan,nan,nan,nan,nan,nan,nan,857.278913196,909.817501186,nan,910.317983857,nan,nan,nan,nan
1,40,1,1,nan,nan,nan,0,nan,nan,nan,nan,nan,nan,nan,nan,nan,127,1.0,-0.31111021432,-0.167036648065,nan,nan,nan,nan,nan,nan,nan,nan,857.278913196,910.759264824,nan,nan,nan,nan,nan,nan
1,41,1,1,1.0,1.0,0.14494173741,0,nan,nan,nan,nan,nan,nan,nan,nan,nan,72,1.0,-0.149607777062,-0.853203742106,nan,nan,nan,nan,nan,nan,nan,nan,857.278913196,911.701057542,nan,911.845999279,nan,nan,nan,nan
1,42,1,1,1.0,1.0,0.315108930168,0,nan,nan,nan,nan,nan,nan,nan,nan,nan,502,0.764740937618,0.25241357569,-1.0,nan,nan,nan,nan,nan,nan,nan,nan,857.278913196,912.642840852,nan,912.957949782,nan,nan,nan,nan
1,43,1,1,1.0,1.0,0.293320614146,1,nan,nan,nan,nan,nan,nan,nan,nan,nan,211,0.948675772315,0.0413606888024,0.538689155053,-5.04245106917,95.0424510692,-53.3169239308,135.0,1.0,-0.303502321856,-0.0849788702499,2.78395600599,857.278913196,913.584630148,914.393044982,913.877950762,918.210220871,919.219925316,915.409829546,918.201830157
1,44,1,1,1.0,1.0,0.389462442312,0,nan,nan,nan,nan,nan,nan,nan,nan,nan,285,0.178734351563,0.356878681702,0.598527012995,nan,nan,nan,nan,nan,nan,nan,nan,857.278913196,919.360378758,nan,919.7498412,nan,nan,nan,nan
1,45,1,1,1.0,1.0,0.255661472562,0,nan,nan,nan,nan,nan,nan,nan,nan,nan,350,-0.175756816429,0.469490941964,0.138247479403,nan,nan,nan,nan,nan,nan,nan,nan,857.278913196,920.302166915,nan,920.557828387,nan,nan,nan,nan
1,46,1,1,1.0,1.0,0.265856570681,0,nan,nan,nan,nan,nan,nan,nan,nan,nan,510,0.830554458933,0.220436700166,-1.0,nan,nan,nan,nan,nan,nan,nan,nan,857.278913196,921.243951365,nan,921.509807935,nan,nan,nan,nan
1,47,1,1,1.0,1.0,0.284067764354,0,nan,nan,nan,nan,nan,nan,nan,nan,nan,226,0.801265930663,0.120208988367,0.60458276857,nan,nan,nan,nan,nan,nan,nan,nan,857.278913196,922.185732393,nan,922.469800158,nan,nan,nan,nan
1,48,1,1,1.0,1.0,0.278239794658,0,nan,nan,nan,nan,nan,nan,nan,nan,nan,369,-0.147694689129,0.477999187239,-0.0564338676883,nan,nan,nan,nan,nan,nan,nan,nan,857.278913196,923.127537086,nan,923.40577688,nan,nan,nan,nan
1,49,1,1,1.0,1.0,0.256450623332,0,nan,nan,nan,nan,nan,nan,nan,nan,nan,173,1.0,-0.165909522591,0.273535192888,nan,nan,nan,nan,nan,nan,nan,nan,857.278913196,924.069317259,nan,924.325767882,nan,nan,nan,nan
1,50,1,1,1.0,1.0,0.258624494192,0,nan,nan,nan,nan,nan,nan,nan,nan,nan,395,-0.0383984177995,0.474183508328,-0.351427224487,nan,nan,nan,nan,nan,nan,nan,nan,857.278913196,925.011108552,nan,925.269733046,nan,nan,nan,nan
1,51,0,0,1.0,0.0,0.292830245919,0,0.0,0.0,0.0,nan,nan,nan,nan,nan,nan,21,1.0,0.116713997928,-1.0,nan,nan,nan,nan,nan,nan,nan,nan,857.278913196,925.952894427,nan,926.245724673,nan,nan,nan,nan
1,52,1,1,1.0,1.0,0.271019122039,0,nan,nan,nan,nan,nan,nan,nan,nan,nan,104,1.0,-0.282351481576,-0.412644567278,nan,nan,nan,nan,nan,nan,nan,nan,857.278913196,926.894686575,nan,927.165705697,nan,nan,nan,nan
1,53,1,1,1.0,1.0,0.249221397855,0,nan,nan,nan,nan,nan,nan,nan,nan,nan,323,-0.11001989341,0.43965344528,0.375855360355,nan,nan,nan,nan,nan,nan,nan,nan,857.278913196,927.83647017,nan,928.085691568,nan,nan,nan,nan
1,54,1,1,1.0,1.0,0.251411234203,0,nan,nan,nan,nan,nan,nan,nan,nan,nan,140,1.0,-0.294209249228,-0.0345777392028,nan,nan,nan,nan,nan,nan,nan,nan,857.278913196,928.778259181,nan,929.029670416,nan,nan,nan,nan
1,55,1,1,1.0,1.0,0.245608068013,0,nan,nan,nan,nan,nan,nan,nan,nan,nan,325,-0.119404900653,0.442631039184,0.360186421743,nan,nan,nan,nan,nan,nan,nan,nan,857.278913196,929.720052469,nan,929.965660537,nan,nan,nan,nan
1,56,1,1,1.0,1.0,0.231811899284,0,nan,nan,nan,nan,nan,nan,nan,nan,nan,382,-0.1011887567,0.478291136399,-0.199732273247,nan,nan,nan,nan,nan,nan,nan,nan,857.278913196,930.661840341,nan,930.89365224,nan,nan,nan,nan
1,57,1,1,1.0,1.0,0.234004586644,0,nan,nan,nan,nan,nan,nan,nan,nan,nan,173,1.0,-0.165909522591,0.273535192888,nan,nan,nan,nan,nan,nan,nan,nan,857.278913196,931.603629067,nan,931.837633654,nan,nan,nan,nan
1,58,1,1,1.0,1.0,0.276197638945,0,nan,nan,nan,nan,nan,nan,nan,nan,nan,334,-0.152796554809,0.454467054946,0.285576400052,nan,nan,nan,nan,nan,nan,nan,nan,857.278913196,932.545416083,nan,932.821613722,nan,nan,nan,nan
1,59,1,1,1.0,1.0,0.262391206692,0,nan,nan,nan,nan,nan,nan,nan,nan,nan,194,1.0,-0.0524864644427,0.435571704399,nan,nan,nan,nan,nan,nan,nan,nan,857.278913196,933.487211082,nan,933.749602289,nan,nan,nan,nan
1,60,0,0,0.0,1.0,0.536621100386,0,nan,nan,nan,nan,nan,nan,nan,nan,nan,251,0.535576518695,0.236509187076,0.655284151108,nan,nan,nan,nan,nan,nan,nan,nan,857.278913196,934.428958184,nan,934.965579285,nan,nan,nan,nan
1,61,1,1,1.0,1.0,0.498786053504,0,nan,nan,nan,nan,nan,nan,nan,nan,nan,138,1.0,-0.29832987918,-0.0546508148191,nan,nan,nan,nan,nan,nan,nan,nan,857.278913196,935.370779412,nan,935.869565465,nan,nan,nan,nan
1,62,0,0,0.0,1.0,0.476979776344,0,nan,nan,nan,nan,nan,nan,nan,nan,nan,207,0.985653507947,0.0195431921708,0.51699622314,nan,nan,nan,nan,nan,nan,nan,nan,857.278913196,936.312563007,nan,936.789542783,nan,nan,nan,nan
1,63,1,1,1.0,1.0,0.407206360658,0,nan,nan,nan,nan,nan,nan,nan,nan,nan,83,1.0,-0.203097876184,-0.665876706514,nan,nan,nan,nan,nan,nan,nan,nan,857.278913196,937.254359146,nan,937.661565506,nan,nan,nan,nan
1,64,1,1,1.0,1.0,0.409364266088,0,nan,nan,nan,nan,nan,nan,nan,nan,nan,384,-0.0924750057551,0.477945316949,-0.222479273925,nan,nan,nan,nan,nan,nan,nan,nan,857.278913196,938.196146732,nan,938.605510998,nan,nan,nan,nan
1,65,1,1,1.0,1.0,0.307548421028,0,nan,nan,nan,nan,nan,nan,nan,nan,nan,79,1.0,-0.184296021705,-0.724170777997,nan,nan,nan,nan,nan,nan,nan,nan,857.278913196,939.137942016,nan,939.445490437,nan,nan,nan,nan
1,66,1,1,1.0,1.0,0.293753107544,0,nan,nan,nan,nan,nan,nan,nan,nan,nan,301,0.0351599448551,0.39804275895,0.523414514543,nan,nan,nan,nan,nan,nan,nan,nan,857.278913196,940.079725896,nan,940.373479003,nan,nan,nan,nan
1,67,1,1,1.0,1.0,0.255945715064,0,nan,nan,nan,nan,nan,nan,nan,nan,nan,232,0.739158239773,0.150046616059,0.623712016981,nan,nan,nan,nan,nan,nan,nan,nan,857.278913196,941.021522035,nan,941.27746775,nan,nan,nan,nan
1,68,1,1,1.0,1.0,0.282154757937,0,nan,nan,nan,nan,nan,nan,nan,nan,nan,112,1.0,-0.300501516081,-0.325324861792,nan,nan,nan,nan,nan,nan,nan,nan,857.278913196,941.963288809,nan,942.245443567,nan,nan,nan,nan
1,69,1,1,1.0,1.0,0.372339752212,0,nan,nan,nan,nan,nan,nan,nan,nan,nan,227,0.791019951953,0.125257787881,0.608066708266,nan,nan,nan,nan,nan,nan,nan,nan,857.278913196,942.905084663,nan,943.277424415,nan,nan,nan,nan
1,70,1,1,1.0,1.0,0.390523576469,0,nan,nan,nan,nan,nan,nan,nan,nan,nan,263,0.405698801511,0.284171736334,0.651829885785,nan,nan,nan,nan,nan,nan,nan,nan,857.278913196,943.846874244,nan,944.237397821,nan,nan,nan,nan
1,71,1,1,1.0,1.0,0.312760864501,0,nan,nan,nan,nan,nan,nan,nan,nan,nan,40,1.0,0.0201165467467,-1.0,nan,nan,nan,nan,nan,nan,nan,nan,857.278913196,944.788634461,nan,945.101395326,nan,nan,nan,nan
1,72,1,1,1.0,1.0,0.274924677156,0,nan,nan,nan,nan,nan,nan,nan,nan,nan,129,1.0,-0.310070485259,-0.146368003411,nan,nan,nan,nan,nan,nan,nan,nan,857.278913196,945.730451698,nan,946.005376375,nan,nan,nan,nan
1,73,1,1,1.0,1.0,0.285123196431,0,nan,nan,nan,nan,nan,nan,nan,nan,nan,326,-0.12383419111,0.444071765824,0.352223541474,nan,nan,nan,nan,nan,nan,nan,nan,857.278913196,946.672240139,nan,946.957363335,nan,nan,nan,nan
1,74,0,0,0.0,1.0,0.479295911035,0,nan,nan,nan,nan,nan,nan,nan,nan,nan,381,-0.105403061426,0.478425078289,-0.188431136224,nan,nan,nan,nan,nan,nan,nan,nan,857.278913196,947.614032857,nan,948.093328768,nan,nan,nan,nan
1,75,1,1,1.0,1.0,0.417489839077,0,nan,nan,nan,nan,nan,nan,nan,nan,nan,236,0.697004556276,0.169301754335,0.634065852989,nan,nan,nan,nan,nan,nan,nan,nan,857.278913196,948.555818162,nan,948.973308001,nan,nan,nan,nan
1,76,1,1,1.0,1.0,0.3396743841,0,nan,nan,nan,nan,nan,nan,nan,nan,nan,154,1.0,-0.251813147593,0.102138173725,nan,nan,nan,nan,nan,nan,nan,nan,857.278913196,949.497638535,nan,949.837312919,nan,nan,nan,nan
1,77,1,1,1.0,1.0,0.277851776511,0,nan,nan,nan,nan,nan,nan,nan,nan,nan,454,0.367627362238,0.397084843583,-1.0,nan,nan,nan,nan,nan,nan,nan,nan,857.278913196,950.439425266,nan,950.717277042,nan,nan,nan,nan
1,78,1,1,1.0,1.0,0.296088058734,0,nan,nan,nan,nan,nan,nan,nan,nan,nan,400,-0.0107874812989,0.471427301814,-0.412692688905,nan,nan,nan,nan,nan,nan,nan,nan,857.278913196,951.381182916,nan,951.677270975,nan,nan,nan,nan
1,79,1,1,1.0,1.0,0.32228341687,0,nan,nan,nan,nan,nan,nan,nan,nan,nan,444,0.289241202529,0.417409780569,-1.0,nan,nan,nan,nan,nan,nan,nan,nan,857.278913196,952.322973354,nan,952.64525677,nan,nan,nan,nan
1,80,1,1,1.0,1.0,0.284468896978,0,nan,nan,nan,nan,nan,nan,nan,nan,nan,327,-0.128086156831,0.445480682368,0.344176439252,nan,nan,nan,nan,nan,nan,nan,nan,857.278913196,953.264769778,nan,953.549238675,nan,nan,nan,nan
1,81,1,1,1.0,1.0,0.262688563671,0,0.0,0.0,0.0,0.333632616272,0.09102094437,0.242611671902,0.424653560642,0.09102094437,0.28981362584,479,0.572572153349,0.331768222426,-1.0,nan,nan,nan,nan,nan,nan,nan,nan,857.278913196,954.206547956,nan,954.469236519,nan,nan,nan,nan
1,82,1,1,1.0,1.0,0.264866996149,0,0.0,0.0,0.0,0.332745815615,0.0907930557761,0.241952759839,0.423538871391,0.0907930557761,0.270674818933,32,1.0,0.061735800531,-1.0,nan,nan,nan,nan,nan,nan,nan,nan,857.278913196,955.148338963,nan,955.413205959,nan,nan,nan,nan
1,83,1,1,1.0,1.0,0.21107103274,0,0.0,0.0,0.0,0.331907805498,0.0905416464552,0.241366159043,0.422449451953,0.0905416464552,0.246208864187,211,0.948675772315,0.0413606888024,0.538689155053,nan,nan,nan,nan,nan,nan,nan,nan,857.278913196,956.090121703,nan,956.301192735,nan,nan,nan,nan
1,84,1,1,1.0,1.0,0.3572720472,0,0.0,0.0,0.0,0.330434186318,0.0909599501411,0.239474236177,0.421394136459,0.0909599501411,0.27773669203,123,1.0,-0.311441137266,-0.208672863777,nan,nan,nan,nan,nan,nan,nan,nan,857.278913196,957.031910999,nan,957.389183046,nan,nan,nan,nan
1,85,1,1,1.0,1.0,0.319453820994,0,0.0,0.0,0.0,0.33075753404,0.0904577396003,0.240299794439,0.42121527364,0.0904577396003,0.295932300311,320,-0.0946500390753,0.43494401576,0.398701238857,nan,nan,nan,nan,nan,nan,nan,nan,857.278913196,957.973700866,nan,958.293154687,nan,nan,nan,nan
1,86,1,1,1.0,1.0,0.273662549094,0,0.0,0.0,0.0,0.330622966027,0.089926045876,0.240696920151,0.420549011903,0.089926045876,0.316796139096,20,1.0,0.121558187834,-1.0,nan,nan,nan,nan,nan,nan,nan,nan,857.278913196,958.915492159,nan,959.189154708,nan,nan,nan,nan
1,87,1,1,1.0,1.0,0.259843572509,0,0.0,0.0,0.0,0.329952843475,0.0896062361076,0.240346607367,0.419559079582,0.0896062361076,0.284319980865,95,1.0,-0.253175017597,-0.514975443931,nan,nan,nan,nan,nan,nan,nan,nan,857.278913196,959.8572806,nan,960.117124173,nan,nan,nan,nan
1,88,0,0,1.0,0.0,0.246030297945,0,0.0,0.0,0.0,0.329137619394,0.0894002462671,0.239737373127,0.418537865661,0.0894002462671,0.259845473183,397,-0.0275613476434,0.473159987783,-0.37569455347,nan,nan,nan,nan,nan,nan,nan,nan,857.278913196,960.799068186,nan,961.045098484,nan,nan,nan,nan
1,89,1,1,1.0,1.0,0.26422495587,0,0.0,0.0,0.0,0.328182362826,0.089325324624,0.238857038202,0.41750768745,0.089325324624,0.256699608775,199,1.0,-0.0246761787097,0.468786302982,nan,nan,nan,nan,nan,nan,nan,nan,857.278913196,961.740856913,nan,962.005081869,nan,nan,nan,nan
1,90,1,1,1.0,1.0,0.30643169285,0,0.0,0.0,0.0,0.32745557411,0.0890746782744,0.238380895836,0.416530252385,0.0890746782744,0.272228982222,97,1.0,-0.260369742894,-0.491718830742,nan,nan,nan,nan,nan,nan,nan,nan,857.278913196,962.682642503,nan,962.989074196,nan,nan,nan,nan
1,91,0,0,1.0,0.0,0.260616187647,0,0.0,0.0,0.0,0.327219350725,0.0886005610669,0.238618789658,0.415819911792,0.0886005610669,0.277090945456,3,0.871087178923,0.199335109687,-1.0,nan,nan,nan,nan,nan,nan,nan,nan,857.278913196,963.624439783,nan,963.88505597,nan,nan,nan,nan
1,92,1,1,1.0,1.0,0.270827536355,0,0.0,0.0,0.0,0.32647931558,0.088383129433,0.238096186147,0.414862445013,0.088383129433,0.279291805617,131,1.0,-0.308451667147,-0.125800503078,nan,nan,nan,nan,nan,nan,nan,nan,857.278913196,964.566214825,nan,964.837042361,nan,nan,nan,nan
1,93,1,1,1.0,1.0,0.217010475637,0,0.0,0.0,0.0,0.325867757566,0.0880874357952,0.237780321771,0.413955193362,0.0880874357952,0.249484733213,411,0.0555201669072,0.463022710015,-0.557054760163,nan,nan,nan,nan,nan,nan,nan,nan,857.278913196,965.508009823,nan,965.725020299,nan,nan,nan,nan
1,94,1,1,1.0,1.0,0.243236624345,0,0.0,0.0,0.0,0.324684526241,0.0883315254592,0.236353000782,0.4130160517,0.0883315254592,0.243691545445,37,1.0,0.0358565504353,-1.0,nan,nan,nan,nan,nan,nan,nan,nan,857.278913196,966.449779163,nan,966.693015788,nan,nan,nan,nan
1,95,1,1,1.0,1.0,0.237406944099,0,1.0,0.0,0.0,0.32380874235,0.0882560182138,0.235552724136,0.412064760564,0.0882560182138,0.232551348027,404,0.0124894593597,0.468746268022,-0.463349101315,nan,nan,nan,nan,nan,nan,nan,nan,857.278913196,967.391584711,nan,967.628991655,nan,nan,nan,nan
1,96,1,1,1.0,1.0,0.239606473828,1,0.0,0.0,1.0,0.322889574283,0.0882317098644,0.234657864419,0.411121284148,0.0882317098644,0.240083347424,21,1.0,0.116713997928,-1.0,62.9442046823,27.0557953177,12.2901703177,38.0,1.0,0.0306259494545,-1.0,1.82559796417,857.278913196,968.333363744,969.141794257,968.572970218,972.008787,973.00783905,970.166906244,972.000458722
1,97,1,1,1.0,1.0,0.42219252768,0,0.0,0.0,0.0,0.322012910068,0.0881767076484,0.233836202419,0.410189617716,0.0881767076484,0.299735315202,480,0.580928072941,0.32870764083,-1.0,nan,nan,nan,nan,nan,nan,nan,nan,857.278913196,973.150664791,nan,973.572857319,nan,nan,nan,nan
1,98,1,1,1.0,1.0,0.328435257718,0,0.0,0.0,0.0,0.323056447751,0.0883039809463,0.234752466805,0.411360428698,0.0883039809463,0.330078086408,273,0.299732959835,0.319577193062,0.635038033336,nan,nan,nan,nan,nan,nan,nan,nan,857.278913196,974.092441829,nan,974.420877086,nan,nan,nan,nan
1,99,1,1,1.0,1.0,0.282614335651,0,0.0,0.0,0.0,0.323111899401,0.0878493066719,0.235262592729,0.410961206072,0.0878493066719,0.344414040349,472,0.51429864939,0.352212277195,-1.0,nan,nan,nan,nan,nan,nan,nan,nan,857.278913196,975.034240819,nan,975.316855154,nan,nan,nan,nan
1,100,1,1,1.0,1.0,0.300757390854,0,0.0,0.0,0.0,0.322698658954,0.0874946577765,0.235204001178,0.410193316731,0.0874946577765,0.303935661407,426,0.156193047225,0.446210853967,-0.81485970128,nan,nan,nan,nan,nan,nan,nan,nan,857.278913196,975.976065182,nan,976.276822573,nan,nan,nan,nan
1,101,1,1,1.0,1.0,0.295001265826,0,0.0,0.0,0.0,0.322477029983,0.0870792881524,0.235397741831,0.409556318136,0.0870792881524,0.292790997444,463,0.440238315199,0.376011795327,-1.0,nan,nan,nan,nan,nan,nan,nan,nan,857.278913196,976.917818557,nan,977.212819823,nan,nan,nan,nan
1,102,1,1,1.0,1.0,0.297210203717,0,0.0,0.0,0.0,0.322202272342,0.0866859163029,0.235516356039,0.408888188645,0.0866859163029,0.297656286799,343,-0.171388175652,0.463836419185,0.204822810802,nan,nan,nan,nan,nan,nan,nan,nan,857.278913196,977.859605003,nan,978.156815206,nan,nan,nan,nan
1,103,1,1,1.0,1.0,0.291409033292,0,0.0,0.0,0.0,0.321954826118,0.0862911963793,0.235663629739,0.408246022497,0.0862911963793,0.294540167612,37,1.0,0.0358565504353,-1.0,nan,nan,nan,nan,nan,nan,nan,nan,857.278913196,978.801391734,nan,979.092800767,nan,nan,nan,nan
1,104,0,0,0.0,1.0,0.413578867214,0,0.0,0.0,0.0,0.321655357561,0.0859198854944,0.235735472066,0.407575243055,0.0859198854944,0.334066034741,362,-0.164239727892,0.476000155386,0.0174578511848,nan,nan,nan,nan,nan,nan,nan,nan,857.278913196,979.743194715,nan,980.156773582,nan,nan,nan,nan
1,105,1,1,1.0,1.0,0.391783138621,0,0.0,0.0,0.0,0.322547818819,0.0859755564291,0.23657226239,0.408523375249,0.0859755564291,0.365590346376,126,1.0,-0.311411754845,-0.177408431044,nan,nan,nan,nan,nan,nan,nan,nan,857.278913196,980.684982016,nan,981.076765155,nan,nan,nan,nan
1,106,1,1,1.0,1.0,0.281979137682,0,0.0,0.0,0.0,0.323213543048,0.0858275583946,0.237385984654,0.409041101443,0.0858275583946,0.362447047839,410,0.0492046846968,0.463921527344,-0.54316189137,nan,nan,nan,nan,nan,nan,nan,nan,857.278913196,981.626772738,nan,981.908751876,nan,nan,nan,nan
1,107,0,0,0.0,1.0,0.500173339504,0,0.0,0.0,0.0,0.322820834426,0.0855117112668,0.237309123159,0.408332545693,0.0855117112668,0.391311871936,70,1.0,-0.13936984996,-0.906436913284,nan,nan,nan,nan,nan,nan,nan,nan,857.278913196,982.568552627,nan,983.068725966,nan,nan,nan,nan
1,108,1,1,1.0,1.0,0.310357489856,0,0.0,0.0,0.0,0.324493971266,0.0868170770657,0.2376768942,0.411311048332,0.0868170770657,0.364169989014,380,-0.109519508899,0.478533032186,-0.177177385375,nan,nan,nan,nan,nan,nan,nan,nan,857.278913196,983.510340213,nan,983.820697703,nan,nan,nan,nan
1,109,1,1,1.0,1.0,0.312554738775,0,0.0,0.0,0.0,0.324361854617,0.0864211427427,0.237940711875,0.41078299736,0.0864211427427,0.374361856045,62,1.0,-0.0974372467467,-1.0,nan,nan,nan,nan,nan,nan,nan,nan,857.278913196,984.452127229,nan,984.764681968,nan,nan,nan,nan
1,110,0,0,1.0,0.0,0.274747061194,0,0.0,0.0,0.0,0.324252529471,0.0860275475828,0.238224981888,0.410280077054,0.0860275475828,0.299219763275,298,0.0600896634305,0.391050340636,0.53969689008,nan,nan,nan,nan,nan,nan,nan,nan,857.278913196,985.393915385,nan,985.668662446,nan,nan,nan,nan
1,111,1,1,1.0,1.0,0.276947161125,0,0.0,0.0,0.0,0.323798350863,0.0857619980063,0.238036352856,0.409560348869,0.0857619980063,0.288082987031,21,1.0,0.116713997928,-1.0,nan,nan,nan,nan,nan,nan,nan,nan,857.278913196,986.335704397,nan,986.612651558,nan,nan,nan,nan
1,112,1,1,1.0,1.0,0.375142833975,0,0.0,0.0,0.0,0.323372430956,0.0854870108181,0.237885420138,0.408859441774,0.0854870108181,0.308945685431,226,0.801265930663,0.120208988367,0.60458276857,nan,nan,nan,nan,nan,nan,nan,nan,857.278913196,987.277489702,nan,987.652632536,nan,nan,nan,nan
1,113,1,1,1.0,1.0,0.353344254487,0,0.0,0.0,0.0,0.323838830983,0.0852415339358,0.238597297047,0.409080364919,0.0852415339358,0.335144749862,122,1.0,-0.311159539646,-0.219144224573,nan,nan,nan,nan,nan,nan,nan,nan,857.278913196,988.219278429,nan,988.572622683,nan,nan,nan,nan
1,114,1,1,1.0,1.0,0.323526728491,0,0.0,0.0,0.0,0.324102272264,0.0849055156603,0.239196756604,0.409007787925,0.0849055156603,0.350671272317,257,0.470472903111,0.261039853404,0.655841377839,nan,nan,nan,nan,nan,nan,nan,nan,857.278913196,989.161070577,nan,989.484597305,nan,nan,nan,nan
1,115,1,1,1.0,1.0,0.34975059639,0,0.0,0.0,0.0,0.324097178957,0.0845290098575,0.239568169099,0.408626188814,0.0845290098575,0.342207193122,377,-0.121259861678,0.478700828387,-0.143695900877,nan,nan,nan,nan,nan,nan,nan,nan,857.278913196,990.102847329,nan,990.452597925,nan,nan,nan,nan
1,116,1,1,1.0,1.0,0.46392229601,0,0.0,0.0,0.0,0.324322208934,0.0841914417967,0.240130767138,0.408513650731,0.0841914417967,0.379066540297,23,1.0,0.106943944166,-1.0,nan,nan,nan,nan,nan,nan,nan,nan,857.278913196,991.04465031,nan,991.508572606,nan,nan,nan,nan
1,117,1,1,1.0,1.0,0.530112032022,0,0.0,1.0,0.0,0.325536122735,0.0848207005714,0.240715422163,0.410356823306,0.0848207005714,0.447928308141,262,0.416452475899,0.2804144186,0.652815538838,nan,nan,nan,nan,nan,nan,nan,nan,857.278913196,991.986438182,nan,992.516550214,nan,nan,nan,nan
1,118,1,1,1.0,1.0,0.572307935276,1,0.0,0.0,1.0,0.32729970816,0.0865459768579,0.240753731302,0.413845685018,0.0865459768579,0.522114087769,499,0.739831889234,0.263827757734,-1.0,110.85445804,339.14554196,-11.7138330396,482.0,0.597655625539,0.322480811492,-1.0,1.57550473721,857.278913196,992.928227193,993.73663718,993.500535129,996.345289671,997.343405744,994.753422884,996.336959968
1,119,1,1,1.0,1.0,0.469301236619,0,0.0,0.0,0.0,0.329393795571,0.0890778911774,0.240315904394,0.418471686748,0.0890778911774,0.523907067972,330,-0.139766326074,0.449518327743,0.319540245599,nan,nan,nan,nan,nan,nan,nan,nan,857.278913196,997.487143229,nan,997.956444465,nan,nan,nan,nan
1,120,1,1,1.0,1.0,0.359504078049,0,0.0,0.0,0.0,0.330579451851,0.089621997216,0.240957454635,0.420201449067,0.089621997216,0.467037749981,81,1.0,-0.193804253699,-0.694219169772,nan,nan,nan,nan,nan,nan,nan,nan,857.278913196,998.42893224,nan,998.788436318,nan,nan,nan,nan
1,121,1,1,1.0,1.0,0.321702672576,0,0.0,0.0,0.0,0.330822515937,0.0892836893501,0.241538826587,0.420106205287,0.0892836893501,0.383502662415,494,0.698129958021,0.282143999684,-1.0,nan,nan,nan,nan,nan,nan,nan,nan,857.278913196,999.370721822,nan,999.692424495,nan,nan,nan,nan
1,122,1,1,1.0,1.0,0.315893519379,0,0.0,0.0,0.0,0.330746517242,0.0889147608358,0.241831756406,0.419661278078,0.0889147608358,0.332366756668,417,0.0945046041228,0.457053563907,-0.645720198395,nan,nan,nan,nan,nan,nan,nan,nan,857.278913196,1000.31251055,nan,1000.62840407,nan,nan,nan,nan
1,123,1,1,1.0,1.0,0.35810054146,0,0.0,0.0,0.0,0.330623765194,0.0885567918655,0.242066973328,0.419180557059,0.0885567918655,0.331898911138,308,-0.0186828559465,0.413097475488,0.481682330771,nan,nan,nan,nan,nan,nan,nan,nan,857.278913196,1001.25428844,nan,1001.61238898,nan,nan,nan,nan
1,124,1,1,1.0,1.0,0.360278973938,0,0.0,0.0,0.0,0.330848984671,0.0882278968083,0.242621087863,0.41907688148,0.0882278968083,0.344757678259,28,1.0,0.082066132397,-1.0,nan,nan,nan,nan,nan,nan,nan,nan,857.278913196,1002.19608544,nan,1002.55636441,nan,nan,nan,nan
1,125,1,1,1.0,1.0,0.570477037109,0,0.0,1.0,0.0,0.331088252877,0.0879082494341,0.243180003443,0.418996502311,0.0879082494341,0.429618850835,341,-0.168535884224,0.46196150489,0.223260112086,nan,nan,nan,nan,nan,nan,nan,nan,857.278913196,1003.1378753,nan,1003.70835234,nan,nan,nan,nan
1,126,1,1,1.0,1.0,0.492686385522,1,0.0,0.0,1.0,0.333018807588,0.0901330403802,0.242885767208,0.423151847968,0.0901330403802,0.474480798856,451,0.343830962376,0.403518361206,-1.0,132.33223372,317.66776628,0.558391280446,452.0,0.351738073422,0.401406211611,-1.0,2.78397339699,857.278913196,1004.07966061,1004.88807886,1004.57234699,1008.70520229,1009.71402322,1005.90486542,1008.69686917
1,127,1,1,1.0,1.0,0.404792722489,0,0.0,0.0,0.0,0.334296148212,0.090891647212,0.243404501,0.425187795424,0.090891647212,0.48931871504,75,1.0,-0.164714458691,-0.791355921409,nan,nan,nan,nan,nan,nan,nan,nan,857.278913196,1009.85541036,nan,1010.26020308,nan,nan,nan,nan
1,128,1,1,1.0,1.0,0.38301238924,0,0.0,0.0,0.0,0.334855644833,0.0907461034191,0.244109541414,0.425601748252,0.0907461034191,0.426830499084,451,0.343830962376,0.403518361206,-1.0,nan,nan,nan,nan,nan,nan,nan,nan,857.278913196,1010.79720137,nan,1011.18021375,nan,nan,nan,nan
1,129,1,1,1.0,1.0,0.297221892804,0,0.0,0.0,0.0,0.335234831797,0.0904882894771,0.24474654232,0.425723121274,0.0904882894771,0.361675668178,40,1.0,0.0201165467467,-1.0,nan,nan,nan,nan,nan,nan,nan,nan,857.278913196,1011.73898753,nan,1012.03620942,nan,nan,nan,nan
1,130,1,1,1.0,1.0,0.299410588748,0,0.0,0.0,0.0,0.334937855711,0.0901962388448,0.244741616866,0.425134094556,0.0901962388448,0.326548290264,138,1.0,-0.29832987918,-0.0546508148191,nan,nan,nan,nan,nan,nan,nan,nan,857.278913196,1012.68077397,nan,1012.98018456,nan,nan,nan,nan
1,131,1,1,1.0,1.0,0.333611778857,0,0.0,0.0,0.0,0.334662450541,0.0898999734644,0.244762477076,0.424562424005,0.0898999734644,0.310081420136,413,0.0683106243366,0.461143133648,-0.585495598612,nan,nan,nan,nan,nan,nan,nan,nan,857.278913196,1013.6225664,nan,1013.95617818,nan,nan,nan,nan
1,132,1,1,1.0,1.0,0.343805166427,0,0.0,0.0,0.0,0.334654368451,0.0895535838714,0.245100784579,0.424207952322,0.0895535838714,0.325609178011,325,-0.119404900653,0.442631039184,0.360186421743,nan,nan,nan,nan,nan,nan,nan,nan,857.278913196,1014.56434601,nan,1014.90815117,nan,nan,nan,nan
1,133,1,1,1.0,1.0,0.313985929824,0,0.0,0.0,0.0,0.33472422187,0.0892146766687,0.245509545202,0.423938898539,0.0892146766687,0.330467625036,124,1.0,-0.311577186586,-0.198226518473,nan,nan,nan,nan,nan,nan,nan,nan,857.278913196,1015.50614528,nan,1015.82013121,nan,nan,nan,nan
1,134,1,1,1.0,1.0,0.332187430118,0,0.0,0.0,0.0,0.334567113597,0.0888942888729,0.245672824725,0.42346140247,0.0888942888729,0.329992842123,190,1.0,-0.0746884387243,0.407399635172,nan,nan,nan,nan,nan,nan,nan,nan,857.278913196,1016.44792831,nan,1016.78011574,nan,nan,nan,nan
1,135,1,1,1.0,1.0,0.326386829838,0,0.0,0.0,0.0,0.33454922124,0.0885597078545,0.245989513386,0.423108929095,0.0885597078545,0.324186729927,129,1.0,-0.310070485259,-0.146368003411,nan,nan,nan,nan,nan,nan,nan,nan,857.278913196,1017.38971561,nan,1017.71610244,nan,nan,nan,nan
1,136,1,1,1.0,1.0,0.33657594095,0,0.0,0.0,0.0,0.334488307872,0.0882314389675,0.246256868904,0.422719746839,0.0882314389675,0.331716733635,190,1.0,-0.0746884387243,0.407399635172,nan,nan,nan,nan,nan,nan,nan,nan,857.278913196,1018.3315089,nan,1018.66808484,nan,nan,nan,nan
1,137,1,1,1.0,1.0,0.314781067718,0,0.0,0.0,0.0,0.33450377182,0.0879042307209,0.2465995411,0.422408002541,0.0879042307209,0.325914612835,474,0.530901762182,0.346545376391,-1.0,nan,nan,nan,nan,nan,nan,nan,nan,857.278913196,1019.27329278,nan,1019.58807384,nan,nan,nan,nan
1,138,1,1,1.0,1.0,0.380948851176,0,0.0,0.0,0.0,0.334358751937,0.0875966644622,0.246762087475,0.4219554164,0.0875966644622,0.344101953281,509,0.822386376617,0.224555004187,-1.0,nan,nan,nan,nan,nan,nan,nan,nan,857.278913196,1020.21508806,nan,1020.59603691,nan,nan,nan,nan
1,139,1,1,1.0,1.0,0.375147395593,0,0.0,0.0,0.0,0.334698825654,0.0873664435684,0.247332382086,0.422065269223,0.0873664435684,0.356959104829,437,0.23613482661,0.429770237144,-1.0,nan,nan,nan,nan,nan,nan,nan,nan,857.278913196,1021.15687821,nan,1021.53202561,nan,nan,nan,nan
1,140,1,1,1.0,1.0,0.353364781477,0,0.0,0.0,0.0,0.334991931234,0.0871169008618,0.247875030372,0.422108832095,0.0871169008618,0.369820342748,495,0.706485112283,0.278551693791,-1.0,nan,nan,nan,nan,nan,nan,nan,nan,857.278913196,1022.09865867,nan,1022.45202345,nan,nan,nan,nan
1,141,1,1,1.0,1.0,0.395491976175,0,0.0,0.0,0.0,0.335124110012,0.0868168518974,0.248307258115,0.42194096191,0.0868168518974,0.374668051081,155,1.0,-0.2479831371,0.111611878621,nan,nan,nan,nan,nan,nan,nan,nan,857.278913196,1023.04049644,nan,1023.43598841,nan,nan,nan,nan
1,142,1,1,1.0,1.0,0.413754772511,0,0.0,0.0,0.0,0.335555309056,0.0866554874694,0.248899821587,0.422210796526,0.0866554874694,0.387537176721,383,-0.0968787136249,0.478131214543,-0.211081409456,nan,nan,nan,nan,nan,nan,nan,nan,857.278913196,1023.98223555,nan,1024.39599033,nan,nan,nan,nan
1,143,1,1,1.0,1.0,0.38394294848,0,0.0,0.0,0.0,0.33610991518,0.0865966470033,0.249513268177,0.422706562183,0.0865966470033,0.397729899055,137,1.0,-0.300190217086,-0.0647316600203,nan,nan,nan,nan,nan,nan,nan,nan,857.278913196,1024.92402457,nan,1025.30796751,nan,nan,nan,nan
1,144,1,1,1.0,1.0,0.514145128487,0,0.0,1.0,0.0,0.336446767527,0.0863838454751,0.250062922052,0.422830613002,0.0863838454751,0.437280949826,490,0.664660387652,0.296157848571,-1.0,nan,nan,nan,nan,nan,nan,nan,nan,857.278913196,1025.86581272,nan,1026.37995785,nan,nan,nan,nan
1,145,0,0,0.0,1.0,0.4843298833,1,0.0,0.0,1.0,0.337689413408,0.0873456222615,0.250343791147,0.42503503567,0.0873456222615,0.460805986756,52,1.0,-0.0438860552364,-1.0,50.6910981469,39.3089018531,2.74640185308,56.0,1.0,-0.0653675053377,-1.0,2.30891318427,857.278913196,1026.8076043,1027.6160197,1027.29193418,1030.95807779,1031.95929886,1028.63280398,1030.94974638
1,146,1,1,1.0,1.0,0.447859599604,0,0.0,0.0,0.0,0.338707750005,0.0878895279279,0.250818222077,0.426597277933,0.0878895279279,0.482111537131,310,-0.032854544558,0.417080732083,0.468828018046,nan,nan,nan,nan,nan,nan,nan,nan,857.278913196,1032.09995387,nan,1032.54781347,nan,nan,nan,nan
1,147,1,1,1.0,1.0,0.346080817224,0,0.0,0.0,0.0,0.339460521381,0.0880505306755,0.251409990706,0.427511052057,0.0880505306755,0.426090100043,381,-0.105403061426,0.478425078289,-0.188431136224,nan,nan,nan,nan,nan,nan,nan,nan,857.278913196,1033.04173946,nan,1033.38782028,nan,nan,nan,nan
1,148,0,0,0.0,1.0,0.508271543134,0,0.0,0.0,0.0,0.339505865873,0.08775016845,0.251755697423,0.427256034323,0.08775016845,0.434070653321,322,-0.105067232891,0.43811622051,0.383559350674,nan,nan,nan,nan,nan,nan,nan,nan,857.278913196,1033.98353275,nan,1034.49180429,nan,nan,nan,nan
1,149,1,1,1.0,1.0,0.358478866285,0,0.0,0.0,0.0,0.340653931705,0.0885446019632,0.252109329742,0.429198533668,0.0885446019632,0.404277075548,221,0.851781464038,0.0945411604707,0.585422935822,nan,nan,nan,nan,nan,nan,nan,nan,857.278913196,1034.92532091,nan,1035.28379977,nan,nan,nan,nan
1,150,1,1,1.0,1.0,0.288673519623,0,0.0,0.0,0.0,0.340774370452,0.0882570387053,0.252517331747,0.429031409157,0.0882570387053,0.385141309681,35,1.0,0.0462653595507,-1.0,nan,nan,nan,nan,nan,nan,nan,nan,857.278913196,1035.86711248,nan,1036.155786,nan,nan,nan,nan
1,151,1,1,1.0,1.0,0.346860844933,0,0.0,0.0,0.0,0.340424700312,0.0880631790798,0.252361521233,0.428487879392,0.0880631790798,0.331337743613,135,1.0,-0.303502321856,-0.0849788702499,nan,nan,nan,nan,nan,nan,nan,nan,857.278913196,1036.80890235,nan,1037.1557632,nan,nan,nan,nan
1,152,1,1,1.0,1.0,0.301055318094,0,0.0,0.0,0.0,0.340467607943,0.0877707069864,0.252696900957,0.42823831493,0.0877707069864,0.312196560883,238,0.675741828754,0.178727669763,0.638511091232,nan,nan,nan,nan,nan,nan,nan,nan,857.278913196,1037.75068252,nan,1038.05173784,nan,nan,nan,nan
1,153,1,1,1.0,1.0,0.327166287287,0,0.0,0.0,0.0,0.340206599401,0.087537980116,0.252668619285,0.427744579517,0.087537980116,0.325027483438,378,-0.117450136118,0.478670924818,-0.154810124165,nan,nan,nan,nan,nan,nan,nan,nan,857.278913196,1038.69255735,nan,1039.01972364,nan,nan,nan,nan
1,154,1,1,1.0,1.0,0.313451086346,0,0.0,0.0,0.0,0.340120807874,0.0872559198479,0.252864888026,0.427376727722,0.0872559198479,0.313890897242,319,-0.0891891826932,0.433308674125,0.406137099325,nan,nan,nan,nan,nan,nan,nan,nan,857.278913196,1039.63425684,nan,1039.94770793,nan,nan,nan,nan
1,155,1,1,1.0,1.0,0.275643123663,0,0.0,0.0,0.0,0.339946495969,0.0869968502386,0.25294964573,0.426943346207,0.0869968502386,0.305420165765,19,0.99625917486,0.126374530333,-1.0,nan,nan,nan,nan,nan,nan,nan,nan,857.278913196,1040.57604927,nan,1040.8516924,nan,nan,nan,nan
1,156,1,1,1.0,1.0,0.285834230424,0,0.0,0.0,0.0,0.339528941603,0.0868676116958,0.252661329907,0.426396553299,0.0868676116958,0.291642813478,238,0.675741828754,0.178727669763,0.638511091232,nan,nan,nan,nan,nan,nan,nan,nan,857.278913196,1041.517836,nan,1041.80367024,nan,nan,nan,nan
1,157,1,1,1.0,1.0,0.256033810321,0,0.0,0.0,0.0,0.339182524112,0.0866935925499,0.252488931562,0.425876116661,0.0866935925499,0.27250372147,21,1.0,0.116713997928,-1.0,nan,nan,nan,nan,nan,nan,nan,nan,857.278913196,1042.45962844,nan,1042.71566225,nan,nan,nan,nan
1,158,0,0,0.0,1.0,0.490202043147,0,0.0,0.0,0.0,0.338649519536,0.0866696917601,0.251979827776,0.425319211296,0.0866696917601,0.344023361298,322,-0.105067232891,0.43811622051,0.383559350674,nan,nan,nan,nan,nan,nan,nan,nan,857.278913196,1043.40142173,nan,1043.89162377,nan,nan,nan,nan
1,159,1,1,1.0,1.0,0.308424811752,0,0.0,0.0,0.0,0.339614822234,0.0872304586056,0.252384363629,0.42684528084,0.0872304586056,0.351553555074,131,1.0,-0.308451667147,-0.125800503078,nan,nan,nan,nan,nan,nan,nan,nan,857.278913196,1044.34320589,nan,1044.6516307,nan,nan,nan,nan
1,160,1,1,1.0,1.0,0.3586171387,0,0.0,0.0,0.0,0.339417417105,0.0869891476691,0.252428269435,0.426406564774,0.0869891476691,0.385747997866,431,0.191957257768,0.43918128748,-0.982298765802,nan,nan,nan,nan,nan,nan,nan,nan,857.278913196,1045.28499234,nan,1045.64360948,nan,nan,nan,nan
1,161,1,1,1.0,1.0,0.336732174561,0,0.0,0.0,0.0,0.339538170071,0.0867284483664,0.252809721704,0.426266618437,0.0867284483664,0.334591375004,221,0.851781464038,0.0945411604707,0.585422935822,nan,nan,nan,nan,nan,nan,nan,nan,857.278913196,1046.22686488,nan,1046.56359706,nan,nan,nan,nan
1,162,1,1,1.0,1.0,0.291037835879,0,0.0,0.0,0.0,0.339520632599,0.0864572799716,0.252947005925,0.425491988506,0.0864572799716,0.32879571638,33,1.0,0.0565990290419,-1.0,nan,nan,nan,nan,nan,nan,nan,nan,857.278913196,1047.16853757,nan,1047.45957541,nan,nan,nan,nan
1,163,1,1,nan,nan,nan,0,0.0,0.0,0.0,0.339219497215,0.0862724912904,0.252947005925,0.425491988506,0.0862724912904,0.31388500522,152,1.0,-0.259184487343,0.0830625546756,nan,nan,nan,nan,nan,nan,nan,nan,857.278913196,1048.11036023,nan,nan,nan,nan,nan,nan
1,164,1,1,1.0,1.0,0.415369851689,0,0.0,0.0,0.0,0.339219497215,0.0862724912904,0.252947005925,0.425491988506,0.0862724912904,0.353203843784,321,-0.0999433513493,0.43654647086,0.391174984052,nan,nan,nan,nan,nan,nan,nan,nan,857.278913196,1049.05214325,nan,1049.4675131,nan,nan,nan,nan
1,165,1,1,1.0,1.0,0.289599802461,0,0.0,0.0,0.0,0.339689561132,0.0862123728716,0.25347718826,0.425901934003,0.0862123728716,0.352484827075,212,0.93926288676,0.0467731277665,0.543851001166,nan,nan,nan,nan,nan,nan,nan,nan,857.278913196,1049.9939354,nan,1050.2835352,nan,nan,nan,nan
1,166,1,1,1.0,1.0,0.259780280816,0,0.0,0.0,0.0,0.339382261999,0.0860364616543,0.253345800344,0.425418723653,0.0860364616543,0.321583311656,419,0.107894673663,0.454841969249,-0.678098861371,nan,nan,nan,nan,nan,nan,nan,nan,857.278913196,1050.93572441,nan,1051.19550469,nan,nan,nan,nan
1,167,1,1,1.0,1.0,0.309986577602,0,0.0,0.0,0.0,0.338896884065,0.0859973161097,0.252899567955,0.424894200174,0.0859973161097,0.286455553626,72,1.0,-0.149607777062,-0.853203742106,nan,nan,nan,nan,nan,nan,nan,nan,857.278913196,1051.87751114,nan,1052.18749772,nan,nan,nan,nan
1,168,1,1,1.0,1.0,0.272167781251,0,0.0,0.0,0.0,0.338721670086,0.0857656791685,0.252955990918,0.424487349255,0.0857656791685,0.28064487989,225,0.81146624694,0.115131125244,0.600981946568,nan,nan,nan,nan,nan,nan,nan,nan,857.278913196,1052.81930614,nan,1053.09147392,nan,nan,nan,nan
1,169,1,1,1.0,1.0,0.314277584956,0,0.0,0.0,0.0,0.338320743045,0.0856619079703,0.252658835075,0.423982651015,0.0856619079703,0.298810647936,431,0.191957257768,0.43918128748,-0.982298765802,nan,nan,nan,nan,nan,nan,nan,nan,857.278913196,1053.76116472,nan,1054.0754423,nan,nan,nan,nan
1,170,0,0,0.0,1.0,0.628541770275,0,0.0,0.0,0.0,0.338176772038,0.0854251916712,0.252751580367,0.42360196371,0.0854251916712,0.404995712161,21,1.0,0.116713997928,-1.0,nan,nan,nan,nan,nan,nan,nan,nan,857.278913196,1054.70288017,nan,1055.33142194,nan,nan,nan,nan
1,171,1,1,1.0,1.0,0.39076106291,0,0.0,0.0,0.0,0.339905135123,0.0880505252408,0.251854609882,0.427955660364,0.0880505252408,0.444526806047,95,1.0,-0.253175017597,-0.514975443931,nan,nan,nan,nan,nan,nan,nan,nan,857.278913196,1055.64466548,nan,1056.03542654,nan,nan,nan,nan
1,172,1,1,1.0,1.0,0.248959392949,0,0.0,0.0,0.0,0.340206057773,0.0878762369641,0.252329820809,0.428082294737,0.0878762369641,0.422754075378,378,-0.117450136118,0.478670924818,-0.154810124165,nan,nan,nan,nan,nan,nan,nan,nan,857.278913196,1056.58645477,nan,1056.83541417,nan,nan,nan,nan
1,173,1,1,1.0,1.0,0.235156381852,0,0.0,0.0,0.0,0.339669312686,0.0878948020454,0.25177451064,0.427564114731,0.0878948020454,0.291625612571,430,0.184725017221,0.440645728776,-0.941904167281,nan,nan,nan,nan,nan,nan,nan,nan,857.278913196,1057.52824179,nan,1057.76339817,nan,nan,nan,nan
1,174,1,1,1.0,1.0,0.309341686312,0,0.0,0.0,0.0,0.339058125956,0.087998984388,0.251059141568,0.427057110344,0.087998984388,0.264485820371,256,0.481312611765,0.257047908656,0.656065722404,nan,nan,nan,nan,nan,nan,nan,nan,857.278913196,1058.47003251,nan,1058.7793742,nan,nan,nan,nan
1,175,0,0,1.0,0.0,0.215534809337,0,0.0,0.0,0.0,0.338885355958,0.0877718821518,0.251113473806,0.42665723811,0.0877718821518,0.2533442925,477,0.555879874869,0.337784025865,-1.0,nan,nan,nan,nan,nan,nan,nan,nan,857.278913196,1059.41181924,nan,1059.62735405,nan,nan,nan,nan
1,176,1,1,1.0,1.0,0.257730427489,0,0.0,0.0,0.0,0.338172347018,0.0880159856179,0.2501563614,0.426188332636,0.0880159856179,0.260868974379,326,-0.12383419111,0.444071765824,0.352223541474,nan,nan,nan,nan,nan,nan,nan,nan,857.278913196,1060.35360826,nan,1060.61133868,nan,nan,nan,nan
1,177,1,1,1.0,1.0,0.235898776562,0,0.0,0.0,0.0,0.337710037135,0.087973104812,0.249736932323,0.425683141947,0.087973104812,0.236388004463,456,0.383612429175,0.392633185378,-1.0,nan,nan,nan,nan,nan,nan,nan,nan,857.278913196,1061.29543005,nan,1061.53132883,nan,nan,nan,nan
1,178,1,1,1.0,1.0,0.326126250438,0,0.0,0.0,0.0,0.337128258504,0.0880564360847,0.249071822419,0.425184694588,0.0880564360847,0.273251818163,308,-0.0186828559465,0.413097475488,0.481682330771,nan,nan,nan,nan,nan,nan,nan,nan,857.278913196,1062.23718371,nan,1062.56330996,nan,nan,nan,nan
1,179,1,1,1.0,1.0,0.256359392079,0,0.0,0.0,0.0,0.337065747094,0.0878098133759,0.249255933718,0.42487556047,0.0878098133759,0.27279480636,58,1.0,-0.0760896648475,-1.0,nan,nan,nan,nan,nan,nan,nan,nan,857.278913196,1063.17894393,nan,1063.43530332,nan,nan,nan,nan
1,180,1,1,1.0,1.0,0.282521393732,0,0.0,0.0,0.0,0.336609778987,0.0877701112993,0.248839667687,0.424379890286,0.0877701112993,0.28833567875,410,0.0492046846968,0.463921527344,-0.54316189137,nan,nan,nan,nan,nan,nan,nan,nan,857.278913196,1064.12076202,nan,1064.40328341,nan,nan,nan,nan
1,181,1,1,1.0,1.0,0.31669464428,0,0.0,0.0,0.0,0.336305911654,0.087616534891,0.248689376763,0.423922446545,0.087616534891,0.28519181003,280,0.228089347314,0.342018854333,0.61587222022,nan,nan,nan,nan,nan,nan,nan,nan,857.278913196,1065.06255075,nan,1065.37924539,nan,nan,nan,nan
1,182,1,1,1.0,1.0,0.262898965855,0,0.0,0.0,0.0,0.336196351501,0.0873836795022,0.248812671999,0.423580031003,0.0873836795022,0.287371667956,355,-0.173737462994,0.472683863687,0.0888799762457,nan,nan,nan,nan,nan,nan,nan,nan,857.278913196,1066.00434461,nan,1066.26724357,nan,nan,nan,nan
1,183,1,1,1.0,1.0,0.225095849833,0,0.0,0.0,0.0,0.335789143803,0.0873107506375,0.248478393165,0.42309989444,0.0873107506375,0.268229819989,116,1.0,-0.306446923025,-0.282515442494,nan,nan,nan,nan,nan,nan,nan,nan,857.278913196,1066.94613504,nan,1067.17123089,nan,nan,nan,nan
1,184,1,1,1.0,1.0,0.331284240237,0,0.0,0.0,0.0,0.335177578643,0.0874549734507,0.247722605192,0.422632552093,0.0874549734507,0.273093018642,200,1.0,-0.0191209939188,0.47515178387,nan,nan,nan,nan,nan,nan,nan,nan,857.278913196,1067.88791864,nan,1068.21920288,nan,nan,nan,nan
1,185,1,1,1.0,1.0,0.349456945667,0,0.0,0.0,0.0,0.335156186673,0.0872148564509,0.247941330223,0.422371043124,0.0872148564509,0.301945678579,350,-0.175756816429,0.469490941964,0.138247479403,nan,nan,nan,nan,nan,nan,nan,nan,857.278913196,1068.82972533,nan,1069.17918227,nan,nan,nan,nan
1,186,0,0,0.0,1.0,0.423687865783,0,0.0,0.0,0.0,0.335234332897,0.086982627182,0.248251705715,0.42221696008,0.086982627182,0.368143017229,294,0.0948761993654,0.381212130724,0.559858230992,nan,nan,nan,nan,nan,nan,nan,nan,857.278913196,1069.7714921,nan,1070.19517997,nan,nan,nan,nan
1,187,1,1,1.0,1.0,0.321875156835,0,0.0,0.0,0.0,0.33571505862,0.0869893601551,0.248725698465,0.422704418775,0.0869893601551,0.365006656095,101,1.0,-0.273572672894,-0.446152610616,nan,nan,nan,nan,nan,nan,nan,nan,857.278913196,1070.71329622,nan,1071.03517138,nan,nan,nan,nan
1,188,1,1,1.0,1.0,0.300065458461,0,0.0,0.0,0.0,0.33564024834,0.0867598700069,0.248880378333,0.422400118347,0.0867598700069,0.348542827026,503,0.773020196022,0.248538461814,-1.0,nan,nan,nan,nan,nan,nan,nan,nan,857.278913196,1071.65507183,nan,1071.95513729,nan,nan,nan,nan
1,189,1,1,1.0,1.0,0.350272895594,0,0.0,0.0,0.0,0.335448986029,0.0865654281928,0.248883557836,0.422014414221,0.0865654281928,0.324071170297,447,0.312467642152,0.411646472288,-1.0,nan,nan,nan,nan,nan,nan,nan,nan,857.278913196,1072.596854,nan,1072.9471269,nan,nan,nan,nan
1,190,1,1,1.0,1.0,0.304463662556,0,0.0,0.0,0.0,0.335528258272,0.0863404286177,0.249187829655,0.42186868689,0.0863404286177,0.31826733887,157,1.0,-0.240048375319,0.130425901556,nan,nan,nan,nan,nan,nan,nan,nan,857.278913196,1073.53864501,nan,1073.84310867,nan,nan,nan,nan
1,191,1,1,1.0,1.0,0.346640749369,0,0.0,0.0,0.0,0.335363021061,0.0861401348953,0.249222886166,0.421503155956,0.0861401348953,0.33379243584,94,1.0,-0.249439013202,-0.526745155233,nan,nan,nan,nan,nan,nan,nan,nan,857.278913196,1074.48043431,nan,1074.82707506,nan,nan,nan,nan
1,192,1,1,1.0,1.0,0.276835972967,0,0.0,0.0,0.0,0.335422691581,0.0859158443939,0.249506847187,0.421338535975,0.0859158443939,0.309313461631,292,0.112881669716,0.376069582356,0.569261850688,nan,nan,nan,nan,nan,nan,nan,nan,857.278913196,1075.42222503,nan,1075.699061,nan,nan,nan,nan
1,193,0,0,0.0,1.0,0.455014984705,0,0.0,0.0,0.0,0.335114340431,0.0857942442678,0.249320096163,0.420908584698,0.0857942442678,0.35949723568,471,0.506014005179,0.354993781952,-1.0,nan,nan,nan,nan,nan,nan,nan,nan,857.278913196,1076.36402487,nan,1076.81903986,nan,nan,nan,nan
1,194,1,1,1.0,1.0,0.305259940797,0,0.0,0.0,0.0,0.335742092495,0.0860057481039,0.249736344391,0.421747840599,0.0860057481039,0.345703632823,56,1.0,-0.0653675053377,-1.0,nan,nan,nan,nan,nan,nan,nan,nan,857.278913196,1077.30579821,nan,1077.61105815,nan,nan,nan,nan
1,195,1,1,1.0,1.0,0.33939213719,0,0.0,0.0,0.0,0.335583331288,0.0858095385265,0.249773792761,0.421392869815,0.0858095385265,0.366555687564,10,0.926811495151,0.168400576072,-1.0,nan,nan,nan,nan,nan,nan,nan,nan,857.278913196,1078.24763198,nan,1078.58702411,nan,nan,nan,nan
1,196,1,1,1.0,1.0,0.317640883906,0,0.0,0.0,0.0,0.335603066034,0.0855873821582,0.250015683875,0.421190448192,0.0855873821582,0.320764320631,392,-0.0541067903503,0.475522277549,-0.315549842675,nan,nan,nan,nan,nan,nan,nan,nan,857.278913196,1079.18937138,nan,1079.50701227,nan,nan,nan,nan
1,197,1,1,1.0,1.0,0.319825873652,0,0.0,0.0,0.0,0.335510477466,0.0853762012622,0.250134276204,0.420886678728,0.0853762012622,0.325619631583,504,0.78128615449,0.244628286196,-1.0,nan,nan,nan,nan,nan,nan,nan,nan,857.278913196,1080.13116895,nan,1080.45099482,nan,nan,nan,nan
1,198,1,1,1.0,1.0,0.322030820185,0,0.0,0.0,0.0,0.3354300436,0.0851643755775,0.250265668023,0.420594419178,0.0851643755775,0.319832525915,342,-0.170052622031,0.462913557708,0.21407524247,nan,nan,nan,nan,nan,nan,nan,nan,857.278913196,1081.07295454,nan,1081.39498536,nan,nan,nan,nan
1,199,1,1,1.0,1.0,0.308210418152,0,0.0,0.0,0.0,0.335361680215,0.0849522057207,0.250409474495,0.420313885936,0.0849522057207,0.31668903733,211,0.948675772315,0.0413606888024,0.538689155053,nan,nan,nan,nan,nan,nan,nan,nan,857.278913196,1082.01475239,nan,1082.3229628,nan,nan,nan,nan
1,200,1,1,1.0,1.0,0.342423582391,0,0.0,0.0,0.0,0.33522385655,0.0847582825051,0.250465574045,0.419982139055,0.0847582825051,0.32422160691,107,1.0,-0.290089771429,-0.379592780214,nan,nan,nan,nan,nan,nan,nan,nan,857.278913196,1082.95652429,nan,1083.29894787,nan,nan,nan,nan
1,201,1,1,1.0,1.0,0.320597063284,0,0.0,0.0,0.0,0.335260218802,0.0845455159685,0.250714702833,0.41980573477,0.0845455159685,0.323743687943,371,-0.14179360683,0.478331938097,-0.0779732583494,nan,nan,nan,nan,nan,nan,nan,nan,857.278913196,1083.89833326,nan,1084.21893032,nan,nan,nan,nan
1,202,1,1,1.0,1.0,0.282806206495,0,0.0,0.0,0.0,0.335186534603,0.0843391959052,0.250847338698,0.419525730509,0.0843391959052,0.31527561739,469,0.489482198204,0.360453357602,-1.0,nan,nan,nan,nan,nan,nan,nan,nan,857.278913196,1084.84009832,nan,1085.12290453,nan,nan,nan,nan
1,203,1,1,1.0,1.0,0.300994877354,0,0.0,0.0,0.0,0.334924632963,0.084209170329,0.250715462634,0.419133803292,0.084209170329,0.301466049044,360,-0.167709501072,0.475188317955,0.0381258551808,nan,nan,nan,nan,nan,nan,nan,nan,857.278913196,1085.7819033,nan,1086.08289818,nan,nan,nan,nan
1,204,1,1,1.0,1.0,0.287175615667,0,0.0,0.0,0.0,0.334755828209,0.0840333496435,0.250722478565,0.418789177852,0.0840333496435,0.290325566505,5,0.88714030954,0.190659852496,-1.0,nan,nan,nan,nan,nan,nan,nan,nan,857.278913196,1086.72368861,nan,1087.01086422,nan,nan,nan,nan
1,205,1,1,1.0,1.0,0.249378486769,0,0.0,0.0,0.0,0.334520282602,0.0838915803027,0.250628702299,0.418411862905,0.0838915803027,0.279182993264,377,-0.121259861678,0.478700828387,-0.143695900877,nan,nan,nan,nan,nan,nan,nan,nan,857.278913196,1087.66547619,nan,1087.91485468,nan,nan,nan,nan
1,206,1,1,1.0,1.0,0.275595797459,0,0.0,0.0,0.0,0.334100864888,0.0838967362884,0.2502041286,0.417997601177,0.0838967362884,0.270716633298,473,0.522594813828,0.349396171415,-1.0,nan,nan,nan,nan,nan,nan,nan,nan,857.278913196,1088.60724867,nan,1088.88284447,nan,nan,nan,nan
1,207,1,1,1.0,1.0,0.261776250671,0,0.0,0.0,0.0,0.333814075342,0.083790545448,0.250023529894,0.41760462079,0.083790545448,0.2622501783,249,0.557275547736,0.228026269286,0.654084877906,nan,nan,nan,nan,nan,nan,nan,nan,857.278913196,1089.54905051,nan,1089.81082676,nan,nan,nan,nan
1,208,1,1,1.0,1.0,0.215971008991,0,0.0,0.0,0.0,0.333462671319,0.0837364814608,0.249726189859,0.41719915278,0.0837364814608,0.251114352373,58,1.0,-0.0760896648475,-1.0,nan,nan,nan,nan,nan,nan,nan,nan,857.278913196,1090.49084066,nan,1090.70681167,nan,nan,nan,nan
1,209,1,1,1.0,1.0,0.242099654221,0,1.0,0.0,0.0,0.332892323444,0.0839311997696,0.248961123674,0.416823523214,0.0839311997696,0.239948971294,188,1.0,-0.0857393506835,0.392804289229,nan,nan,nan,nan,nan,nan,nan,nan,857.278913196,1091.43268755,nan,1091.6747872,nan,nan,nan,nan
1,210,1,1,1.0,1.0,0.21235796425,1,0.0,0.0,1.0,0.332453711515,0.0839645491893,0.248489162326,0.416418260705,0.0839645491893,0.223476209154,293,0.103830259013,0.378659598285,0.564617056734,-110.127488693,200.127488693,-5.88813630699,285.0,0.178734351563,0.356878681702,0.598527012995,2.76732510963,857.278913196,1092.37441726,1093.18283295,1092.58677522,1096.98329156,1097.99293955,1094.19959071,1096.9749476
1,211,1,1,1.0,1.0,0.653169945697,0,0.0,0.0,0.0,0.331876328115,0.0841733864727,0.247702941642,0.416049714588,0.0841733864727,0.369209188056,423,0.135229581944,0.450080889006,-0.750039916123,nan,nan,nan,nan,nan,nan,nan,nan,857.278913196,1098.13349592,nan,1098.78666586,nan,nan,nan,nan
1,212,1,1,1.0,1.0,0.591310845572,0,0.0,0.0,0.0,0.333413618151,0.0868493921936,0.246564225958,0.420263010345,0.0868493921936,0.485612918506,25,1.0,0.0970682892709,-1.0,nan,nan,nan,nan,nan,nan,nan,nan,857.278913196,1099.07532256,nan,1099.66663341,nan,nan,nan,nan
1,213,1,1,1.0,1.0,0.505546578148,0,0.0,1.0,0.0,0.334641700187,0.0884426905688,0.246199009618,0.423084390755,0.0884426905688,0.583342456472,72,1.0,-0.149607777062,-0.853203742106,nan,nan,nan,nan,nan,nan,nan,nan,857.278913196,1100.01707109,nan,1100.52261767,nan,nan,nan,nan
1,214,1,1,1.0,1.0,0.691730566614,1,0.0,0.0,1.0,0.335451675912,0.0890101715969,0.246441504315,0.424461847509,0.0890101715969,0.596195996778,482,0.597655625539,0.322480811492,-1.0,-113.464022405,203.464022405,-135.442227595,289.0,0.140592130943,0.368073254824,0.582505265782,28.6873300817,857.278913196,1100.95887378,1101.76728149,1101.65060435,1131.48774621,1132.48395755,1102.78406178,1131.47941223
1,215,1,1,1.0,1.0,0.580415262084,0,0.0,0.0,0.0,0.337132236717,0.0920943155368,0.24503792118,0.429226552254,0.0920943155368,0.592564135615,367,-0.15309091083,0.477560897992,-0.0350816338538,nan,nan,nan,nan,nan,nan,nan,nan,857.278913196,1132.62964225,nan,1133.21005751,nan,nan,nan,nan
1,216,1,1,1.0,1.0,0.358665035106,0,0.0,0.0,0.0,0.338274410545,0.093370826772,0.244903583773,0.431645237317,0.093370826772,0.543603621268,186,1.0,-0.0967386681424,0.377881386018,nan,nan,nan,nan,nan,nan,nan,nan,857.278913196,1133.57137567,nan,1133.9300407,nan,nan,nan,nan
1,217,1,1,1.0,1.0,0.312820735038,0,0.0,0.0,0.0,0.338369693837,0.0931627944043,0.245206899433,0.431532488241,0.0931627944043,0.417300344076,478,0.56422249903,0.334793662244,-1.0,nan,nan,nan,nan,nan,nan,nan,nan,857.278913196,1134.5132026,nan,1134.82602333,nan,nan,nan,nan
1,218,0,0,0.0,1.0,0.515001847409,0,0.0,0.0,0.0,0.338250861471,0.0929621391588,0.245288722312,0.43121300063,0.0929621391588,0.395495872518,274,0.289344050657,0.322900892411,0.632670269059,nan,nan,nan,nan,nan,nan,nan,nan,857.278913196,1135.45499303,nan,1135.96999488,nan,nan,nan,nan
1,219,1,1,1.0,1.0,0.677189437265,0,0.0,0.0,0.0,0.339069153072,0.0935195941623,0.244554277878,0.43670034425,0.0935195941623,0.501670673237,97,1.0,-0.260369742894,-0.491718830742,nan,nan,nan,nan,nan,nan,nan,nan,857.278913196,1136.39678119,nan,1137.07397063,nan,nan,nan,nan
1,220,0,0,nan,nan,nan,0,0.0,0.0,0.0,0.340627311064,0.0960730331857,0.244554277878,0.43670034425,0.0960730331857,0.596095642337,160,1.0,-0.227501418013,0.158297521075,nan,nan,nan,nan,nan,nan,nan,nan,857.278913196,1137.33856849,nan,nan,nan,nan,nan,nan
1,221,1,1,1.0,1.0,0.729476092791,0,0.0,0.0,0.0,0.340627311064,0.0960730331857,0.244554277878,0.43670034425,0.0960730331857,0.703332765028,464,0.448404880525,0.373503555275,-1.0,nan,nan,nan,nan,nan,nan,nan,nan,857.278913196,1138.28043704,nan,1139.00991314,nan,nan,nan,nan
1,222,1,1,1.0,1.0,0.77979300759,0,0.0,0.0,0.0,0.342411021072,0.0993886309948,0.240955139874,0.447861258311,0.0993886309948,0.754634550191,365,-0.157962026257,0.477016591838,-0.0139196855225,nan,nan,nan,nan,nan,nan,nan,nan,857.278913196,1139.22214423,nan,1140.00193724,nan,nan,nan,nan
1,223,1,1,nan,nan,nan,0,0.0,0.0,0.0,0.344408199092,0.103453059219,0.240955139874,0.447861258311,0.103453059219,0.754634550191,504,0.78128615449,0.244628286196,-1.0,nan,nan,nan,nan,nan,nan,nan,nan,857.278913196,1140.16393581,nan,nan,nan,nan,nan,nan
1,224,1,1,1.0,1.0,0.784141604672,0,0.0,0.0,0.0,0.344408199092,0.103453059219,0.239034614855,0.453779359744,0.103453059219,0.781967306131,247,0.578947625354,0.219392674348,0.6523805853,nan,nan,nan,nan,nan,nan,nan,nan,857.278913196,1141.10572311,nan,1141.88986472,nan,nan,nan,nan
1,225,1,1,nan,nan,nan,0,0.0,0.0,0.0,0.3464069873,0.107372372445,0.239034614855,0.453779359744,0.107372372445,0.784141604672,448,0.32026743599,0.409662251776,-1.0,nan,nan,nan,nan,nan,nan,nan,nan,857.278913196,1142.04751184,nan,nan,nan,nan,nan,nan
1,226,1,1,nan,nan,nan,0,0.0,0.0,0.0,0.3464069873,0.107372372445,0.239034614855,0.453779359744,0.107372372445,0.784141604672,319,-0.0891891826932,0.433308674125,0.406137099325,nan,nan,nan,nan,nan,nan,nan,nan,857.278913196,1142.98930398,nan,nan,nan,nan,nan,nan
1,227,1,1,1.0,1.0,0.518766849302,0,0.0,0.0,0.0,0.3464069873,0.107372372445,0.239034614855,0.453779359744,0.107372372445,0.518766849302,161,1.0,-0.223158351501,0.167490545043,nan,nan,nan,nan,nan,nan,nan,nan,857.278913196,1143.931091,nan,1144.44985785,nan,nan,nan,nan
1,228,1,1,1.0,1.0,0.488944761746,0,0.0,0.0,0.0,0.347186896178,0.107751920901,0.239898207572,0.455752682671,0.107751920901,0.503855805524,472,0.51429864939,0.352212277195,-1.0,nan,nan,nan,nan,nan,nan,nan,nan,857.278913196,1144.87289997,nan,1145.36184473,nan,nan,nan,nan
1,229,1,1,nan,nan,nan,0,0.0,0.0,0.0,0.347825445122,0.107927237549,0.239898207572,0.455752682671,0.107927237549,0.503855805524,185,1.0,-0.102214474652,0.370299946716,nan,nan,nan,nan,nan,nan,nan,nan,857.278913196,1145.81473944,nan,nan,nan,nan,nan,nan
1,230,1,1,1.0,1.0,0.70931796619,0,0.0,0.0,0.0,0.347825445122,0.107927237549,0.239898207572,0.455752682671,0.107927237549,0.599131363968,54,1.0,-0.0546292063271,-1.0,nan,nan,nan,nan,nan,nan,nan,nan,857.278913196,1146.75645433,nan,1147.4657723,nan,nan,nan,nan
1,231,1,1,1.0,1.0,0.575552063412,0,0.0,0.0,0.0,0.349446487817,0.110360414816,0.239086073001,0.459806902632,0.110360414816,0.642435014801,396,-0.0330153705648,0.473684876347,-0.363523780775,nan,nan,nan,nan,nan,nan,nan,nan,857.278913196,1147.69824049,nan,1148.27379255,nan,nan,nan,nan
1,232,1,1,1.0,1.0,0.673731770832,0,0.0,1.0,0.0,0.350455887708,0.111140725198,0.23931516251,0.461596612906,0.111140725198,0.652867266811,436,0.228681708805,0.431413732101,-1.0,nan,nan,nan,nan,nan,nan,nan,nan,857.278913196,1148.64003406,nan,1149.31376583,nan,nan,nan,nan
1,233,1,1,1.0,1.0,0.3799396049,1,0.0,0.0,1.0,0.351892669411,0.112959171354,0.238933498057,0.464851840764,0.112959171354,0.543074479715,72,1.0,-0.149607777062,-0.853203742106,38.7922327783,51.2077672217,0.582767221662,73.0,1.0,-0.1546788618,-0.830916872461,8.91812161589,857.278913196,1149.58182108,1150.39023335,1149.96176068,1160.34156059,1161.34348728,1151.40699624,1160.33317672
1,234,1,1,1.0,1.0,0.654174345313,0,0.0,0.0,0.0,0.352016770895,0.112724356194,0.239292414701,0.464741127089,0.112724356194,0.569281907015,203,1.0,-0.00249325098487,0.493674673203,nan,nan,nan,nan,nan,nan,nan,nan,857.278913196,1161.48336426,nan,1162.1375386,nan,nan,nan,nan
1,235,0,0,0.0,1.0,0.504380528058,0,0.0,0.0,0.0,0.353347861531,0.114241983476,0.239105878056,0.467589845007,0.114241983476,0.512831492757,323,-0.11001989341,0.43965344528,0.375855360355,nan,nan,nan,nan,nan,nan,nan,nan,857.278913196,1162.42515127,nan,1162.9295318,nan,nan,nan,nan
1,236,1,1,1.0,1.0,0.346567479253,0,0.0,0.0,0.0,0.354010285507,0.114427258126,0.239583027382,0.468437543633,0.114427258126,0.501707450875,103,1.0,-0.279537473278,-0.423758835275,nan,nan,nan,nan,nan,nan,nan,nan,857.278913196,1163.36693202,nan,1163.7134995,nan,nan,nan,nan
1,237,1,1,1.0,1.0,0.33275363443,0,0.0,0.0,0.0,0.35397778417,0.114178198294,0.239799585876,0.468155982464,0.114178198294,0.394567213914,49,1.0,-0.027785429985,-1.0,nan,nan,nan,nan,nan,nan,nan,nan,857.278913196,1164.30874127,nan,1164.6414949,nan,nan,nan,nan
1,238,1,1,1.0,1.0,0.318905577878,0,0.0,0.0,0.0,0.353885505258,0.113938272135,0.239947233123,0.467823777393,0.113938272135,0.33274223052,126,1.0,-0.311411754845,-0.177408431044,nan,nan,nan,nan,nan,nan,nan,nan,857.278913196,1165.25057618,nan,1165.56948176,nan,nan,nan,nan
1,239,1,1,1.0,1.0,0.137181944912,0,0.0,0.0,0.0,0.353734077001,0.113714577102,0.240019499899,0.467448654103,0.113714577102,0.262947052407,67,1.0,-0.12380466598,-1.0,nan,nan,nan,nan,nan,nan,nan,nan,857.278913196,1166.1922942,nan,1166.32947615,nan,nan,nan,nan
1,240,1,1,1.0,1.0,0.259348072519,0,0.0,0.0,0.0,0.352800662639,0.114352654376,0.238448008263,0.467153317014,0.114352654376,0.23847853177,258,0.459642287315,0.26499291187,0.655490062901,nan,nan,nan,nan,nan,nan,nan,nan,857.278913196,1167.13409947,nan,1167.39344754,nan,nan,nan,nan
1,241,1,1,1.0,1.0,0.285554549424,0,1.0,0.0,0.0,0.352399578561,0.114270418726,0.238129159835,0.466669997286,0.114270418726,0.227361522285,427,0.163265173604,0.444863218481,-0.840208708629,nan,nan,nan,nan,nan,nan,nan,nan,857.278913196,1168.07588648,nan,1168.36144103,nan,nan,nan,nan
1,242,1,1,1.0,1.0,0.223746766977,1,0.0,0.0,1.0,0.352113916043,0.114109332892,0.238004583151,0.466223248935,0.114109332892,0.256216462973,350,-0.175756816429,0.469490941964,0.138247479403,-153.183653156,243.183653156,-2.91009684429,346.0,-0.174317561957,0.466431294057,0.176670174816,3.9592178968,857.278913196,1169.01766038,1169.82608206,1169.24140715,1174.81838185,1175.82007106,1170.84287176,1174.81003961
1,243,1,1,1.0,1.0,0.705099658808,0,0.0,0.0,0.0,0.351567672856,0.114172469963,0.237395202893,0.465740142818,0.114172469963,0.404800325069,172,1.0,-0.170984061773,0.265024678188,nan,nan,nan,nan,nan,nan,nan,nan,857.278913196,1175.96023227,nan,1176.66533193,nan,nan,nan,nan
1,244,1,1,1.0,1.0,0.427234767762,0,0.0,0.0,0.0,0.353065689745,0.11622164679,0.236844042955,0.469287336535,0.11622164679,0.452027064515,504,0.78128615449,0.244628286196,-1.0,nan,nan,nan,nan,nan,nan,nan,nan,857.278913196,1176.90203241,nan,1177.32926717,nan,nan,nan,nan
1,245,0,0,0.0,1.0,0.493426784582,0,0.0,0.0,0.0,0.353378639442,0.116075798021,0.23730284142,0.469454437463,0.116075798021,0.541920403717,81,1.0,-0.193804253699,-0.694219169772,nan,nan,nan,nan,nan,nan,nan,nan,857.278913196,1177.84382512,nan,1178.33725191,nan,nan,nan,nan
1,246,1,1,1.0,1.0,0.519635257253,0,0.0,0.0,0.0,0.353967077026,0.11618537986,0.237781697166,0.470152456886,0.11618537986,0.480098936532,435,0.221263830514,0.433027056876,-1.0,nan,nan,nan,nan,nan,nan,nan,nan,857.278913196,1178.7856033,nan,1179.30523856,nan,nan,nan,nan
1,247,1,1,1.0,1.0,0.545818071114,0,0.0,0.0,0.0,0.354660249328,0.11643417561,0.238226073718,0.471094424938,0.11643417561,0.519626704316,180,1.0,-0.129278616986,0.331238955499,nan,nan,nan,nan,nan,nan,nan,nan,857.278913196,1179.72739573,nan,1180.27321381,nan,nan,nan,nan
1,248,1,1,1.0,1.0,0.628006926738,0,0.0,1.0,0.0,0.355456740252,0.116841992311,0.238614747942,0.472298732563,0.116841992311,0.564486751702,107,1.0,-0.290089771429,-0.379592780214,nan,nan,nan,nan,nan,nan,nan,nan,857.278913196,1180.66917733,nan,1181.29718426,nan,nan,nan,nan
1,249,1,1,1.0,1.0,0.654202284932,1,0.0,0.0,1.0,0.356587653889,0.117908249961,0.238614255798,0.477020677031,0.117908249961,0.609342427594,215,0.910639861846,0.0628947364355,0.558695148714,-15.3762512488,105.376251249,-45.7956237512,150.0,1.0,-0.266152531622,0.0638227105866,105.214008681,857.278913196,1181.6109692,1182.41938431,1182.26517148,1288.66645779,1289.66690852,1183.43614579,1288.65812694
1,250,1,1,nan,nan,nan,0,0.0,0.0,0.0,0.357817466414,0.119203210616,0.238614255798,0.477020677031,0.119203210616,0.641104605835,465,0.456588679398,0.37096152752,-1.0,nan,nan,nan,nan,nan,nan,nan,nan,857.278913196,1289.80835183,nan,nan,nan,nan,nan,nan
1,251,1,1,1.0,1.0,0.585087730258,0,0.0,0.0,0.0,0.357817466414,0.119203210616,0.238614255798,0.477020677031,0.119203210616,0.619645007595,94,1.0,-0.249439013202,-0.526745155233,nan,nan,nan,nan,nan,nan,nan,nan,857.278913196,1290.75011689,nan,1291.33520462,nan,nan,nan,nan
1,252,1,1,1.0,1.0,0.323334572546,0,0.0,0.0,0.0,0.35875273499,0.11984412589,0.238908609099,0.47859686088,0.11984412589,0.454211151402,384,-0.0924750057551,0.477945316949,-0.222479273925,nan,nan,nan,nan,nan,nan,nan,nan,857.278913196,1291.69190562,nan,1292.01524019,nan,nan,nan,nan
1,253,1,1,1.0,1.0,0.253535213007,0,0.0,0.0,0.0,0.358607578586,0.119619695029,0.238987883557,0.478227273616,0.119619695029,0.387319171937,124,1.0,-0.311577186586,-0.198226518473,nan,nan,nan,nan,nan,nan,nan,nan,857.278913196,1292.63369662,nan,1292.88723184,nan,nan,nan,nan
1,254,1,1,1.0,1.0,0.287713880418,0,0.0,0.0,0.0,0.358178711788,0.119563146514,0.238615565274,0.477741858302,0.119563146514,0.288194555324,295,0.0860222946478,0.38372732295,0.554986075565,nan,nan,nan,nan,nan,nan,nan,nan,857.278913196,1293.57549077,nan,1293.86320465,nan,nan,nan,nan
1,255,1,1,1.0,1.0,0.433904061152,0,0.0,0.0,0.0,0.357892269384,0.119404090835,0.238488178549,0.477296360219,0.119404090835,0.325051051526,101,1.0,-0.273572672894,-0.446152610616,nan,nan,nan,nan,nan,nan,nan,nan,857.278913196,1294.51728234,nan,1294.95118641,nan,nan,nan,nan
1,256,1,1,1.0,1.0,0.292100680585,0,0.0,0.0,0.0,0.358200009432,0.119259851018,0.238940158414,0.47745986045,0.119259851018,0.337906207385,489,0.656284860842,0.299572439858,-1.0,nan,nan,nan,nan,nan,nan,nan,nan,857.278913196,1295.45905995,nan,1295.75116063,nan,nan,nan,nan
1,257,1,1,1.0,1.0,0.118239475298,0,0.0,0.0,0.0,0.35793347988,0.119092854527,0.237154506879,0.476787199832,0.119092854527,0.281414739011,372,-0.138660017671,0.478458869494,-0.0888123791441,nan,nan,nan,nan,nan,nan,nan,nan,857.278913196,1296.4009268,nan,1296.51916627,nan,nan,nan,nan
1,258,1,1,nan,nan,nan,0,0.0,0.0,0.0,0.356970853356,0.119816346477,0.237154506879,0.476787199832,0.119816346477,0.205170077941,48,1.0,-0.0224273256894,-1.0,nan,nan,nan,nan,nan,nan,nan,nan,857.278913196,1297.34263655,nan,nan,nan,nan,nan,nan
1,259,1,1,1.0,1.0,0.106706413091,0,0.0,0.0,0.0,0.356970853356,0.119816346477,0.237154506879,0.476787199832,0.119816346477,0.112472944194,376,-0.124962824795,0.478704673615,-0.132627625282,nan,nan,nan,nan,nan,nan,nan,nan,857.278913196,1298.28443212,nan,1298.39113853,nan,nan,nan,nan
1,260,1,1,1.0,1.0,0.260878762754,0,0.0,0.0,0.0,0.355969795594,0.120615339402,0.235354456192,0.476585134997,0.120615339402,0.183792587923,232,0.739158239773,0.150046616059,0.623712016981,nan,nan,nan,nan,nan,nan,nan,nan,857.278913196,1299.22621999,nan,1299.48709875,nan,nan,nan,nan
1,261,1,1,1.0,1.0,0.311079357576,0,1.0,0.0,0.0,0.355590946858,0.120523778947,0.235067167911,0.476114725805,0.120523778947,0.22622151114,66,1.0,-0.118568705386,-1.0,nan,nan,nan,nan,nan,nan,nan,nan,857.278913196,1300.16800986,nan,1300.47908922,nan,nan,nan,nan
1,262,1,1,1.0,1.0,0.361267408065,1,0.0,0.0,1.0,0.355414313567,0.120316954491,0.235097359077,0.475731268058,0.120316954491,0.311075176132,146,1.0,-0.278792578557,0.0248813210997,-14.7290244507,104.729024451,2.07277445071,149.0,1.0,-0.269478519393,0.0541436597792,2.18392800936,857.278913196,1301.10980058,1301.91821399,1301.47106799,1305.14363941,1306.14024019,1302.94330687,1305.13531626
1,263,1,1,1.0,1.0,0.537504048378,0,0.0,0.0,0.0,0.355437448328,0.120079500129,0.235357948199,0.475516948457,0.120079500129,0.403283604673,86,1.0,-0.21659106269,-0.625617802914,nan,nan,nan,nan,nan,nan,nan,nan,857.278913196,1306.2854733,nan,1306.82297734,nan,nan,nan,nan
1,264,1,1,1.0,1.0,0.387699967658,0,0.0,0.0,0.0,0.356154245966,0.120384008094,0.235770237872,0.47653825406,0.120384008094,0.428823808033,243,0.622151010882,0.20168048164,0.647463484622,nan,nan,nan,nan,nan,nan,nan,nan,857.278913196,1307.22725518,nan,1307.61495515,nan,nan,nan,nan
1,265,1,1,1.0,1.0,0.325893895701,0,0.0,0.0,0.0,0.356277954679,0.120163904712,0.236114049967,0.47644185939,0.120163904712,0.417032637245,419,0.107894673663,0.454841969249,-0.678098861371,nan,nan,nan,nan,nan,nan,nan,nan,857.278913196,1308.16904761,nan,1308.49494151,nan,nan,nan,nan
1,266,1,1,1.0,1.0,0.256087123649,0,0.0,0.0,0.0,0.356159266948,0.119943955072,0.236215311877,0.47610322202,0.119943955072,0.323226995669,156,1.0,-0.244060613314,0.121041471254,nan,nan,nan,nan,nan,nan,nan,nan,857.278913196,1309.1108429,nan,1309.36693002,nan,nan,nan,nan
1,267,1,1,1.0,1.0,0.322291114484,0,0.0,0.0,0.0,0.355769881177,0.119872384654,0.235897496522,0.475642265831,0.119872384654,0.301424044611,76,1.0,-0.169674511773,-0.773365826749,nan,nan,nan,nan,nan,nan,nan,nan,857.278913196,1310.05262621,nan,1310.37491732,nan,nan,nan,nan
1,268,1,1,1.0,1.0,0.324452156026,0,0.0,0.0,0.0,0.355640118515,0.119657932264,0.235982186252,0.475298050779,0.119657932264,0.30094346472,304,0.0113092810281,0.404708921832,0.506160370659,nan,nan,nan,nan,nan,nan,nan,nan,857.278913196,1310.99442406,nan,1311.31887621,nan,nan,nan,nan
1,269,1,1,1.0,1.0,0.302677524684,0,0.0,0.0,0.0,0.355519701671,0.119442370522,0.236077331149,0.474962072194,0.119442370522,0.316473598398,30,1.0,0.071945658744,-1.0,nan,nan,nan,nan,nan,nan,nan,nan,857.278913196,1311.93620338,nan,1312.2388809,nan,nan,nan,nan
1,270,1,1,1.0,1.0,0.328855206782,0,0.0,0.0,0.0,0.355316462529,0.119257314627,0.236059147902,0.474573777156,0.119257314627,0.318661629164,485,0.622774561467,0.312875618285,-1.0,nan,nan,nan,nan,nan,nan,nan,nan,857.278913196,1312.87799324,nan,1313.20684845,nan,nan,nan,nan
1,271,1,1,1.0,1.0,0.267063104722,0,0.0,0.0,0.0,0.355215078408,0.11903985873,0.236175219678,0.474254937138,0.11903985873,0.299531945396,59,1.0,-0.0814409933332,-1.0,nan,nan,nan,nan,nan,nan,nan,nan,857.278913196,1313.81978396,nan,1314.08684707,nan,nan,nan,nan
1,272,1,1,1.0,1.0,0.3492550964,0,0.0,0.0,0.0,0.354878620493,0.118936741001,0.235941879492,0.473815361493,0.118936741001,0.315057802635,491,0.673033477965,0.292707709811,-1.0,nan,nan,nan,nan,nan,nan,nan,nan,857.278913196,1314.76156585,nan,1315.11082094,nan,nan,nan,nan
1,273,1,1,1.0,1.0,0.247451795673,0,0.0,0.0,0.0,0.354857238272,0.118710914705,0.236146323566,0.473568152977,0.118710914705,0.287923332265,450,0.335949728395,0.405598329481,-1.0,nan,nan,nan,nan,nan,nan,nan,nan,857.278913196,1315.70335857,nan,1315.95081036,nan,nan,nan,nan
1,274,0,0,0.0,1.0,0.545650718675,0,0.0,0.0,0.0,0.354450399474,0.118669425718,0.235780973756,0.473119825192,0.118669425718,0.380785870249,278,0.248285521772,0.335802812283,0.621962573991,nan,nan,nan,nan,nan,nan,nan,nan,857.278913196,1316.64515128,nan,1317.190802,nan,nan,nan,nan
1,275,1,1,1.0,1.0,0.347845857905,0,0.0,0.0,0.0,0.355171910113,0.119024047284,0.236147862828,0.474195957397,0.119024047284,0.380316124084,150,1.0,-0.266152531622,0.0638227105866,nan,nan,nan,nan,nan,nan,nan,nan,857.278913196,1317.58693916,nan,1317.93478501,nan,nan,nan,nan
1,276,1,1,1.0,1.0,0.262030272861,0,0.0,0.0,0.0,0.355144368563,0.118800953211,0.236343415352,0.473945321774,0.118800953211,0.38517561648,25,1.0,0.0970682892709,-1.0,nan,nan,nan,nan,nan,nan,nan,nan,857.278913196,1318.52872817,nan,1318.79075844,nan,nan,nan,nan
1,277,1,1,1.0,1.0,0.152241097006,0,0.0,0.0,0.0,0.354795626631,0.118714605161,0.236081021471,0.473510231792,0.118714605161,0.254039075924,102,1.0,-0.276610342793,-0.434926949461,nan,nan,nan,nan,nan,nan,nan,nan,857.278913196,1319.47051803,nan,1319.62275913,nan,nan,nan,nan
1,278,1,1,1.0,1.0,0.154462294129,0,1.0,0.0,0.0,0.354039826148,0.11913475835,0.234905067798,0.473174584498,0.11913475835,0.189577887999,146,1.0,-0.278792578557,0.0248813210997,nan,nan,nan,nan,nan,nan,nan,nan,857.278913196,1320.41226656,nan,1320.56672886,nan,nan,nan,nan
1,279,1,1,1.0,1.0,0.18061688327,1,0.0,0.0,1.0,0.353297902237,0.119531791254,0.233766110983,0.472829693491,0.119531791254,0.162440091469,201,1.0,-0.0135712615467,0.48142235136,-22.2139732255,112.213973226,-29.1141517745,160.0,1.0,-0.227501418013,0.158297521075,4.22591294022,857.278913196,1321.35409264,1322.16250861,1321.53470952,1327.42154935,1328.43226247,1323.17929517,1327.4132148
1,280,1,1,1.0,1.0,0.466877620027,0,0.0,0.0,0.0,0.352658342907,0.119770454959,0.232887887948,0.472428797867,0.119770454959,0.267318932475,34,1.0,0.0514419701458,-1.0,nan,nan,nan,nan,nan,nan,nan,nan,857.278913196,1328.57169555,nan,1329.03857317,nan,nan,nan,nan
1,281,0,0,1.0,0.0,0.309063715918,0,0.0,0.0,0.0,0.353079816255,0.119749702228,0.233330114026,0.472829518483,0.119749702228,0.318852739738,418,0.101175887384,0.455961754156,-0.661679309199,nan,nan,nan,nan,nan,nan,nan,nan,857.278913196,1329.51349026,nan,1329.82255397,nan,nan,nan,nan
1,282,1,1,1.0,1.0,0.247271328699,0,0.0,0.0,0.0,0.352917992356,0.119559053601,0.233358938756,0.472477045957,0.119559053601,0.341070888215,158,1.0,-0.235949227405,0.139764106,nan,nan,nan,nan,nan,nan,nan,nan,857.278913196,1330.45527471,nan,1330.70254604,nan,nan,nan,nan
1,283,0,0,0.0,1.0,0.481443837984,0,0.0,0.0,0.0,0.352531008241,0.119510421312,0.233020586928,0.472041429553,0.119510421312,0.3459262942,292,0.112881669716,0.376069582356,0.569261850688,nan,nan,nan,nan,nan,nan,nan,nan,857.278913196,1331.39706401,nan,1331.87850784,nan,nan,nan,nan
1,284,1,1,1.0,1.0,0.355654117011,0,0.0,0.0,0.0,0.353001493021,0.119545155399,0.233456337622,0.472546648419,0.119545155399,0.361456427898,16,0.973419431522,0.140652110383,-1.0,nan,nan,nan,nan,nan,nan,nan,nan,857.278913196,1332.33885188,nan,1332.69450599,nan,nan,nan,nan
1,285,0,0,0.0,1.0,0.437856657372,0,0.0,0.0,0.0,0.353011138926,0.119327709439,0.233683429487,0.472338848365,0.119327709439,0.424984870789,330,-0.139766326074,0.449518327743,0.319540245599,nan,nan,nan,nan,nan,nan,nan,nan,857.278913196,1333.28064146,nan,1333.71849812,nan,nan,nan,nan
1,286,1,1,1.0,1.0,0.33602399152,0,0.0,0.0,0.0,0.353318550225,0.119220381056,0.234098169169,0.47253893128,0.119220381056,0.376511588634,272,0.310166696092,0.316214117232,0.637281430288,nan,nan,nan,nan,nan,nan,nan,nan,857.278913196,1334.22246668,nan,1334.55849067,nan,nan,nan,nan
1,287,1,1,1.0,1.0,0.474202068232,0,0.0,0.0,0.0,0.353256114995,0.119009507515,0.23424660748,0.47226562251,0.119009507515,0.416027572375,60,1.0,-0.0867837676833,-1.0,nan,nan,nan,nan,nan,nan,nan,nan,857.278913196,1335.16424771,nan,1335.63844977,nan,nan,nan,nan
1,288,1,1,1.0,1.0,0.308441347384,0,0.0,0.0,0.0,0.35369117238,0.119015734445,0.234675437936,0.472706906825,0.119015734445,0.372889135712,500,0.748145934353,0.260058294274,-1.0,nan,nan,nan,nan,nan,nan,nan,nan,857.278913196,1336.10600821,nan,1336.41444956,nan,nan,nan,nan
1,289,1,1,1.0,1.0,0.358643082611,0,0.0,0.0,0.0,0.353528986628,0.118833025387,0.234695961241,0.472362012015,0.118833025387,0.380428832742,37,1.0,0.0358565504353,-1.0,nan,nan,nan,nan,nan,nan,nan,nan,857.278913196,1337.04779665,nan,1337.40643973,nan,nan,nan,nan
1,290,0,0,0.0,1.0,0.560830752249,0,0.0,0.0,0.0,0.353547251256,0.118621026066,0.23492622519,0.472168277323,0.118621026066,0.409305060748,239,0.665069831863,0.183388857662,0.640549267122,nan,nan,nan,nan,nan,nan,nan,nan,857.278913196,1337.98958566,nan,1338.55041641,nan,nan,nan,nan
1,291,1,1,1.0,1.0,0.475012886454,0,0.0,0.0,0.0,0.354284914961,0.119051394973,0.235233519988,0.473336309934,0.119051394973,0.464828907105,165,1.0,-0.205056383665,0.203745440608,nan,nan,nan,nan,nan,nan,nan,nan,857.278913196,1338.93137866,nan,1339.40639155,nan,nan,nan,nan
1,292,0,0,0.0,1.0,0.509220918873,0,0.0,0.0,0.0,0.354713028335,0.119056612273,0.235656416062,0.473769640608,0.119056612273,0.515021519192,19,0.99625917486,0.126374530333,-1.0,nan,nan,nan,nan,nan,nan,nan,nan,857.278913196,1339.87316397,nan,1340.38238489,nan,nan,nan,nan
1,293,1,1,1.0,1.0,0.439436954563,0,0.0,0.0,0.0,0.355258992613,0.119199195244,0.236059797368,0.474458187857,0.119199195244,0.474556919963,290,0.131265381085,0.370776544741,0.578206616232,nan,nan,nan,nan,nan,nan,nan,nan,857.278913196,1340.81495441,nan,1341.25439136,nan,nan,nan,nan
1,294,1,1,1.0,1.0,0.433603853104,0,0.0,0.0,0.0,0.355555393887,0.119093580857,0.23646181303,0.474648974744,0.119093580857,0.460753908847,226,0.801265930663,0.120208988367,0.60458276857,nan,nan,nan,nan,nan,nan,nan,nan,857.278913196,1341.75673914,nan,1342.190343,nan,nan,nan,nan
1,295,1,1,1.0,1.0,0.363738636021,0,0.0,0.0,0.0,0.35582924813,0.118974005601,0.236855242529,0.47480325373,0.118974005601,0.412259814562,499,0.739831889234,0.263827757734,-1.0,nan,nan,nan,nan,nan,nan,nan,nan,857.278913196,1342.69859088,nan,1343.06232951,nan,nan,nan,nan
1,296,1,1,1.0,1.0,0.301977324474,0,0.0,0.0,0.0,0.355856903332,0.1187667446,0.237090158732,0.474623647932,0.1187667446,0.366439937866,335,-0.155595990888,0.455627721073,0.276893227044,nan,nan,nan,nan,nan,nan,nan,nan,857.278913196,1343.64032087,nan,1343.9422982,nan,nan,nan,nan
1,297,1,1,1.0,1.0,0.280180170434,0,0.0,0.0,0.0,0.355669169608,0.118602155003,0.237067014605,0.474271324611,0.118602155003,0.315298710309,472,0.51429864939,0.352212277195,-1.0,nan,nan,nan,nan,nan,nan,nan,nan,857.278913196,1344.5821076,nan,1344.86228777,nan,nan,nan,nan
1,298,1,1,1.0,1.0,0.274385842262,0,0.0,0.0,0.0,0.355407055028,0.118479311784,0.236927743244,0.473886366811,0.118479311784,0.285514445723,56,1.0,-0.0653675053377,-1.0,nan,nan,nan,nan,nan,nan,nan,nan,857.278913196,1345.52389633,nan,1345.79828217,nan,nan,nan,nan
1,299,1,1,1.0,1.0,0.316570341587,0,0.0,0.0,0.0,0.35512670481,0.118369805707,0.236756899104,0.473496510517,0.118369805707,0.290378784761,491,0.673033477965,0.292707709811,-1.0,nan,nan,nan,nan,nan,nan,nan,nan,857.278913196,1346.46568933,nan,1346.78225967,nan,nan,nan,nan
1,300,1,1,1.0,1.0,0.366774072521,0,0.0,0.0,0.0,0.354993751834,0.118187157508,0.236806594326,0.473180909342,0.118187157508,0.31924341879,64,1.0,-0.108036866323,-1.0,nan,nan,nan,nan,nan,nan,nan,nan,857.278913196,1347.40747578,nan,1347.77424985,nan,nan,nan,nan
1,301,1,1,1.0,1.0,0.3209540057,0,0.0,0.0,0.0,0.355034234035,0.117985926079,0.237048307957,0.473020160114,0.117985926079,0.334766139936,336,-0.158211608236,0.456758111158,0.268135266647,nan,nan,nan,nan,nan,nan,nan,nan,857.278913196,1348.34926707,nan,1348.67022108,nan,nan,nan,nan
1,302,1,1,1.0,1.0,0.299157992064,0,0.0,0.0,0.0,0.354917520925,0.117800548313,0.237116972612,0.472718069237,0.117800548313,0.328962023428,129,1.0,-0.310070485259,-0.146368003411,nan,nan,nan,nan,nan,nan,nan,nan,857.278913196,1349.29105494,nan,1349.59021293,nan,nan,nan,nan
1,303,1,1,1.0,1.0,0.293301512604,0,0.0,0.0,0.0,0.354727215365,0.117644305622,0.237082909743,0.472371520988,0.117644305622,0.304471170122,452,0.351738073422,0.401406211611,-1.0,nan,nan,nan,nan,nan,nan,nan,nan,857.278913196,1350.23289812,nan,1350.52619963,nan,nan,nan,nan
1,304,1,1,1.0,1.0,0.303547073039,0,0.0,0.0,0.0,0.354518284404,0.117498499025,0.237019785379,0.472016783429,0.117498499025,0.298668859235,19,0.99625917486,0.126374530333,-1.0,nan,nan,nan,nan,nan,nan,nan,nan,857.278913196,1351.17463297,nan,1351.47818004,nan,nan,nan,nan
1,305,1,1,1.0,1.0,0.313747873181,0,0.0,0.0,0.0,0.354345500636,0.117336587495,0.237008913141,0.471682088132,0.117336587495,0.303532152941,305,0.00361192545304,0.406859252708,0.500196907155,nan,nan,nan,nan,nan,nan,nan,nan,857.278913196,1352.11642055,nan,1352.43016842,nan,nan,nan,nan
1,306,1,1,1.0,1.0,0.339952069335,0,0.0,0.0,0.0,0.35420834649,0.117161900788,0.237046445701,0.471370247278,0.117161900788,0.319082338518,73,1.0,-0.1546788618,-0.830916872461,nan,nan,nan,nan,nan,nan,nan,nan,857.278913196,1353.0581973,nan,1353.39814937,nan,nan,nan,nan
1,307,1,1,1.0,1.0,0.326131952403,0,0.0,0.0,0.0,0.354160345556,0.116967407645,0.237192937911,0.471127753202,0.116967407645,0.326610631639,206,0.994723455659,0.014051917983,0.511316161583,nan,nan,nan,nan,nan,nan,nan,nan,857.278913196,1353.99999715,nan,1354.3261291,nan,nan,nan,nan
1,308,1,1,1.0,1.0,0.36031432607,0,0.0,0.0,0.0,0.354066290546,0.116782238218,0.237284052328,0.470848528764,0.116782238218,0.342132782602,86,1.0,-0.21659106269,-0.625617802914,nan,nan,nan,nan,nan,nan,nan,nan,857.278913196,1354.94178844,nan,1355.30210277,nan,nan,nan,nan
1,309,1,1,1.0,1.0,0.290513541026,0,0.0,0.0,0.0,0.354087186986,0.116587344696,0.23749984229,0.470674531682,0.116587344696,0.325653273166,132,1.0,-0.307426825298,-0.115555361894,nan,nan,nan,nan,nan,nan,nan,nan,857.278913196,1355.88357546,nan,1356.174089,nan,nan,nan,nan
1,310,1,1,1.0,1.0,0.396700790967,0,0.0,0.0,0.0,0.353875274832,0.116450536144,0.237424738688,0.470325810976,0.116450536144,0.349176219354,465,0.456588679398,0.37096152752,-1.0,nan,nan,nan,nan,nan,nan,nan,nan,857.278913196,1356.82536475,nan,1357.22206555,nan,nan,nan,nan
1,311,1,1,1.0,1.0,0.478889361548,0,0.0,0.0,0.0,0.354017552295,0.116283051133,0.237734501162,0.470300603427,0.116283051133,0.38870123118,105,1.0,-0.285049837405,-0.401580786678,nan,nan,nan,nan,nan,nan,nan,nan,857.278913196,1357.76720936,nan,1358.24609872,nan,nan,nan,nan
1,312,1,1,1.0,1.0,0.433090962179,0,0.0,0.0,0.0,0.354431035107,0.116311802323,0.238119232784,0.47074283743,0.116311802323,0.436227038231,48,1.0,-0.0224273256894,-1.0,nan,nan,nan,nan,nan,nan,nan,nan,857.278913196,1358.70894591,nan,1359.14203688,nan,nan,nan,nan
1,313,1,1,1.0,1.0,0.339302331384,0,0.0,0.0,0.0,0.354690638826,0.116207315061,0.238483323766,0.470897953887,0.116207315061,0.41709421837,431,0.191957257768,0.43918128748,-0.982298765802,nan,nan,nan,nan,nan,nan,nan,nan,857.278913196,1359.65072922,nan,1359.99003155,nan,nan,nan,nan
1,314,1,1,1.0,1.0,0.285501806356,0,0.0,0.0,0.0,0.354640019394,0.116019373146,0.238620646248,0.470659392541,0.116019373146,0.352631699973,291,0.122027637739,0.373441943191,0.573791926984,nan,nan,nan,nan,nan,nan,nan,nan,857.278913196,1360.59251966,nan,1360.87802147,nan,nan,nan,nan
1,315,1,1,1.0,1.0,0.295694053522,0,0.0,0.0,0.0,0.354413336728,0.115896433182,0.238516903546,0.470309769911,0.115896433182,0.306832730421,247,0.578947625354,0.219392674348,0.6523805853,nan,nan,nan,nan,nan,nan,nan,nan,857.278913196,1361.53430867,nan,1361.83000273,nan,nan,nan,nan
1,316,1,1,1.0,1.0,0.329883554659,0,0.0,0.0,0.0,0.354221443646,0.115755426895,0.238466016751,0.469976870541,0.115755426895,0.303693138179,419,0.107894673663,0.454841969249,-0.678098861371,nan,nan,nan,nan,nan,nan,nan,nan,857.278913196,1362.47609825,nan,1362.80598181,nan,nan,nan,nan
1,317,1,1,1.0,1.0,0.380071034946,0,0.0,0.0,0.0,0.354142167135,0.115575066533,0.238567100602,0.469717233668,0.115575066533,0.335216214376,123,1.0,-0.311441137266,-0.208672863777,nan,nan,nan,nan,nan,nan,nan,nan,857.278913196,1363.41788955,nan,1363.79796058,nan,nan,nan,nan
1,318,1,1,1.0,1.0,0.358279297827,0,0.0,0.0,0.0,0.35422635177,0.115396719672,0.238829632098,0.469623071443,0.115396719672,0.356077962477,485,0.622774561467,0.312875618285,-1.0,nan,nan,nan,nan,nan,nan,nan,nan,857.278913196,1364.35967172,nan,1364.71795101,nan,nan,nan,nan
1,319,1,1,1.0,1.0,0.296461536898,0,0.0,0.0,0.0,0.354239468101,0.115210072232,0.239029395868,0.469449540333,0.115210072232,0.34493728989,36,1.0,0.0410699577143,-1.0,nan,nan,nan,nan,nan,nan,nan,nan,857.278913196,1365.30147213,nan,1365.59793367,nan,nan,nan,nan
1,320,1,1,1.0,1.0,0.410655189015,0,0.0,0.0,0.0,0.354053087677,0.115070749492,0.238982338185,0.46912383717,0.115070749492,0.355132007913,257,0.470472903111,0.261039853404,0.655841377839,nan,nan,nan,nan,nan,nan,nan,nan,857.278913196,1366.24325658,nan,1366.65391177,nan,nan,nan,nan
1,321,1,1,1.0,1.0,0.308844760817,0,0.0,0.0,0.0,0.354235088003,0.114930280652,0.239304807351,0.469165368656,0.114930280652,0.33865382891,471,0.506014005179,0.354993781952,-1.0,nan,nan,nan,nan,nan,nan,nan,nan,857.278913196,1367.18504417,nan,1367.49388893,nan,nan,nan,nan
1,322,1,1,1.0,1.0,0.295045741077,0,0.0,0.0,0.0,0.354089606185,0.114774628175,0.23931497801,0.468864234361,0.114774628175,0.33818189697,166,1.0,-0.20036215083,0.21267421211,nan,nan,nan,nan,nan,nan,nan,nan,857.278913196,1368.12682463,nan,1368.42187037,nan,nan,nan,nan
1,323,0,0,0.0,1.0,0.489234136068,0,0.0,0.0,0.0,0.353900967639,0.114639568594,0.239261399045,0.468540536233,0.114639568594,0.364374879321,421,0.121471671064,0.452518040197,-0.712610339232,nan,nan,nan,nan,nan,nan,nan,nan,857.278913196,1369.06862134,nan,1369.55785547,nan,nan,nan,nan
1,324,1,1,1.0,1.0,0.355430315249,0,0.0,0.0,0.0,0.35433196499,0.114710587689,0.239621377301,0.46904255268,0.114710587689,0.379903397465,169,1.0,-0.185917379452,0.239118302078,nan,nan,nan,nan,nan,nan,nan,nan,857.278913196,1370.0104132,nan,1370.36584351,nan,nan,nan,nan
1,325,1,1,1.0,1.0,0.317624918476,0,0.0,0.0,0.0,0.354335451817,0.11452837932,0.239807072497,0.468863831137,0.11452837932,0.387429789931,98,1.0,-0.263822910468,-0.480217789416,nan,nan,nan,nan,nan,nan,nan,nan,857.278913196,1370.95220135,nan,1371.26982627,nan,nan,nan,nan
1,326,1,1,1.0,1.0,0.215833591821,0,0.0,0.0,0.0,0.354219279243,0.11436560772,0.239853671522,0.468584886963,0.11436560772,0.296296275182,216,0.900975005756,0.0682271079607,0.563426584804,nan,nan,nan,nan,nan,nan,nan,nan,857.278913196,1371.89398752,nan,1372.10982111,nan,nan,nan,nan
1,327,1,1,1.0,1.0,0.169963918044,0,1.0,0.0,0.0,0.353782731333,0.114448474913,0.23933425642,0.468231206246,0.114448474913,0.234474142781,390,-0.0641960347588,0.476284203309,-0.291947553613,nan,nan,nan,nan,nan,nan,nan,nan,857.278913196,1372.83583326,nan,1373.00579718,nan,nan,nan,nan
1,328,0,0,1.0,0.0,0.252217775967,0,0.0,0.0,0.0,0.35320468475,0.114730924357,0.238473760393,0.467935609107,0.114730924357,0.212671761944,27,1.0,0.0870912575778,-1.0,nan,nan,nan,nan,nan,nan,nan,nan,857.278913196,1373.77756525,nan,1374.02978303,nan,nan,nan,nan
1,329,1,1,1.0,1.0,0.270417565654,0,0.0,0.0,0.0,0.352888111369,0.114689976238,0.23819813513,0.467578087607,0.114689976238,0.230866419889,182,1.0,-0.118523835432,0.347089474713,nan,nan,nan,nan,nan,nan,nan,nan,857.278913196,1374.71935854,nan,1374.98977611,nan,nan,nan,nan
1,330,1,1,1.0,1.0,0.256596308318,0,0.0,0.0,0.0,0.352630390913,0.114603110693,0.23802728022,0.467233501606,0.114603110693,0.259743883313,349,-0.175656888649,0.468768509344,0.147945183432,nan,nan,nan,nan,nan,nan,nan,nan,857.278913196,1375.66114071,nan,1375.91773702,nan,nan,nan,nan
1,331,1,1,1.0,1.0,0.314797033148,0,0.0,0.0,0.0,0.352331219316,0.114549546724,0.237781672593,0.46688076604,0.114549546724,0.280603635707,58,1.0,-0.0760896648475,-1.0,nan,nan,nan,nan,nan,nan,nan,nan,857.278913196,1376.60293058,nan,1376.91772761,nan,nan,nan,nan
1,332,1,1,1.0,1.0,0.284990055778,0,0.0,0.0,0.0,0.352214653521,0.114390602599,0.237824050922,0.466605256119,0.114390602599,0.285461132415,415,0.0813077335083,0.459153678902,-0.614968023274,nan,nan,nan,nan,nan,nan,nan,nan,857.278913196,1377.54472444,nan,1377.82971449,nan,nan,nan,nan
1,333,1,1,1.0,1.0,0.27917833667,0,0.0,0.0,0.0,0.352006527831,0.114274434264,0.237732093567,0.466280962095,0.114274434264,0.292988475199,75,1.0,-0.164714458691,-0.791355921409,nan,nan,nan,nan,nan,nan,nan,nan,857.278913196,1378.48651145,nan,1378.76568979,nan,nan,nan,nan
1,334,1,1,1.0,1.0,0.329370378575,0,0.0,0.0,0.0,0.351781749463,0.11416944223,0.237612307234,0.465951191693,0.11416944223,0.297846257008,487,0.639529740128,0.306295026098,-1.0,nan,nan,nan,nan,nan,nan,nan,nan,857.278913196,1379.42830246,nan,1379.75767284,nan,nan,nan,nan
1,335,1,1,1.0,1.0,0.347518280498,0,0.0,0.0,0.0,0.351712791399,0.1140004192,0.237712372199,0.465713210599,0.1140004192,0.318688998581,286,0.169078956243,0.359734776014,0.594698705761,nan,nan,nan,nan,nan,nan,nan,nan,857.278913196,1380.37013538,nan,1380.71765366,nan,nan,nan,nan
1,336,1,1,1.0,1.0,0.277767672611,0,0.0,0.0,0.0,0.351699924801,0.113825673982,0.23787425082,0.465525598783,0.113825673982,0.318218777228,216,0.900975005756,0.0682271079607,0.563426584804,nan,nan,nan,nan,nan,nan,nan,nan,857.278913196,1381.31187649,nan,1381.58964416,nan,nan,nan,nan
1,337,1,1,1.0,1.0,0.319957018655,0,0.0,0.0,0.0,0.351473832287,0.113724785357,0.23774904693,0.465198617644,0.113724785357,0.315080990588,307,-0.0113868739462,0.411053355611,0.487957006857,nan,nan,nan,nan,nan,nan,nan,nan,857.278913196,1382.25366607,nan,1382.57362309,nan,nan,nan,nan
1,338,1,1,1.0,1.0,0.330156393233,0,0.0,0.0,0.0,0.35137774444,0.113564585501,0.237813158939,0.464942329941,0.113564585501,0.309293694833,460,0.415848916989,0.383334931935,-1.0,nan,nan,nan,nan,nan,nan,nan,nan,857.278913196,1383.19545508,nan,1383.52561148,nan,nan,nan,nan
1,339,0,0,0.0,1.0,0.492349970154,0,0.0,0.0,0.0,0.351313241853,0.11339788094,0.237915360913,0.464711122793,0.11339788094,0.380821127347,275,0.279002393219,0.326185254474,0.630178474337,nan,nan,nan,nan,nan,nan,nan,nan,857.278913196,1384.13724125,nan,1384.62959122,nan,nan,nan,nan
1,340,1,1,1.0,1.0,0.366554832261,0,0.0,0.0,0.0,0.351740625878,0.113490998242,0.238249627636,0.46523162412,0.113490998242,0.396353731883,365,-0.157962026257,0.477016591838,-0.0139196855225,nan,nan,nan,nan,nan,nan,nan,nan,857.278913196,1385.07903254,nan,1385.44558737,nan,nan,nan,nan
1,341,0,0,0.0,1.0,0.472738376004,0,0.0,0.0,0.0,0.351785381789,0.113322348595,0.238463033194,0.465107730384,0.113322348595,0.443881059473,299,0.0516645560415,0.393417669654,0.534378752182,nan,nan,nan,nan,nan,nan,nan,nan,857.278913196,1386.02082155,nan,1386.49355993,nan,nan,nan,nan
1,342,1,1,1.0,1.0,0.338937121094,0,0.0,0.0,0.0,0.352149698036,0.113345518303,0.238804179734,0.465495216339,0.113345518303,0.392743443119,126,1.0,-0.311411754845,-0.177408431044,nan,nan,nan,nan,nan,nan,nan,nan,857.278913196,1386.96260914,nan,1387.30154626,nan,nan,nan,nan
1,343,1,1,0.0,0.0,0.26909015025,0,0.0,0.0,0.0,0.352110020628,0.113177510955,0.238932509673,0.465287531584,0.113177510955,0.360255215783,17,0.981069150956,0.135921910835,-1.0,nan,nan,nan,nan,nan,nan,nan,nan,857.278913196,1387.90444205,nan,1388.1735322,nan,nan,nan,nan
1,344,1,1,1.0,1.0,0.335319229751,0,0.0,0.0,0.0,0.351861458142,0.113098948194,0.238762509948,0.464960406336,0.113098948194,0.314448833698,511,0.838703193994,0.216284169582,-1.0,nan,nan,nan,nan,nan,nan,nan,nan,857.278913196,1388.84618659,nan,1389.18150582,nan,nan,nan,nan
1,345,1,1,1.0,1.0,0.345515468274,0,0.0,0.0,0.0,0.351812078356,0.112933623407,0.238878454949,0.464745701762,0.112933623407,0.316641616092,230,0.760023132926,0.140224214653,0.61781109556,nan,nan,nan,nan,nan,nan,nan,nan,857.278913196,1389.78797589,nan,1390.13349135,nan,nan,nan,nan
1,346,1,1,1.0,1.0,0.291713802842,0,0.0,0.0,0.0,0.351793338445,0.112765963834,0.239027374611,0.464559302279,0.112765963834,0.324182833623,18,0.988682696815,0.131162580546,-1.0,nan,nan,nan,nan,nan,nan,nan,nan,857.278913196,1390.72976632,nan,1391.02148013,nan,nan,nan,nan
1,347,1,1,1.0,1.0,0.30989049963,0,0.0,0.0,0.0,0.351615060891,0.112645941911,0.238969118981,0.464261002802,0.112645941911,0.315706590249,420,0.1146601879,0.45369410126,-0.695047497311,nan,nan,nan,nan,nan,nan,nan,nan,857.278913196,1391.67155334,nan,1391.98144384,nan,nan,nan,nan
1,348,1,1,1.0,1.0,0.28010690026,0,0.0,0.0,0.0,0.351491615444,0.11250200868,0.238989606764,0.463993624123,0.11250200868,0.293903734244,502,0.764740937618,0.25241357569,-1.0,nan,nan,nan,nan,nan,nan,nan,nan,857.278913196,1392.61334577,nan,1392.89345267,nan,nan,nan,nan
1,349,1,1,1.0,1.0,0.386308690242,0,0.0,0.0,0.0,0.351281041063,0.112402642334,0.238878398729,0.463683683396,0.112402642334,0.325435363377,374,-0.132039125116,0.478634076427,-0.110628443238,nan,nan,nan,nan,nan,nan,nan,nan,857.278913196,1393.55512851,nan,1393.9414372,nan,nan,nan,nan
1,350,1,1,1.0,1.0,0.324481806194,0,0.0,0.0,0.0,0.35138406356,0.112253250114,0.239130813446,0.463637313674,0.112253250114,0.330299132232,264,0.394966959701,0.287889713878,0.650717615019,nan,nan,nan,nan,nan,nan,nan,nan,857.278913196,1394.49692265,nan,1394.82140446,nan,nan,nan,nan
1,351,1,1,1.0,1.0,0.326633154356,0,0.0,0.0,0.0,0.35130517131,0.112097974322,0.239207196988,0.463403145632,0.112097974322,0.345807883597,353,-0.175041255135,0.471490071959,0.108799216003,nan,nan,nan,nan,nan,nan,nan,nan,857.278913196,1395.43876726,nan,1395.76540041,nan,nan,nan,nan
1,352,1,1,1.0,1.0,0.24091279204,0,0.0,0.0,0.0,0.351233030909,0.111941895335,0.239291135575,0.463174926244,0.111941895335,0.297342584197,131,1.0,-0.308451667147,-0.125800503078,nan,nan,nan,nan,nan,nan,nan,nan,857.278913196,1396.38049754,nan,1396.62141033,nan,nan,nan,nan
1,353,1,1,1.0,1.0,0.26707393839,0,0.0,0.0,0.0,0.35091139756,0.111936739538,0.238974658021,0.462848137098,0.111936739538,0.278206628262,208,0.97651257568,0.025020743352,0.522574479073,nan,nan,nan,nan,nan,nan,nan,nan,857.278913196,1397.3222894,nan,1397.58936334,nan,nan,nan,nan
1,354,1,1,1.0,1.0,0.269278029678,0,0.0,0.0,0.0,0.350667684016,0.111865019785,0.238802664231,0.462532703801,0.111865019785,0.25908825337,444,0.289241202529,0.417409780569,-1.0,nan,nan,nan,nan,nan,nan,nan,nan,857.278913196,1398.26407528,nan,1398.53335331,nan,nan,nan,nan
1,355,1,1,1.0,1.0,0.295456852124,0,0.0,0.0,0.0,0.350431771974,0.111788442885,0.238643329089,0.46222021486,0.111788442885,0.277269606731,238,0.675741828754,0.178727669763,0.638511091232,nan,nan,nan,nan,nan,nan,nan,nan,857.278913196,1399.20586828,nan,1399.50132513,nan,nan,nan,nan
1,356,1,1,1.0,1.0,0.249654461455,0,0.0,0.0,0.0,0.350272884923,0.111665787141,0.238607097782,0.461938672063,0.111665787141,0.271463114419,383,-0.0968787136249,0.478131214543,-0.211081409456,nan,nan,nan,nan,nan,nan,nan,nan,857.278913196,1400.14765701,nan,1400.39731147,nan,nan,nan,nan
1,357,1,1,1.0,1.0,0.147848879918,0,1.0,0.0,0.0,0.349982918284,0.111635144515,0.23834777377,0.461618062799,0.111635144515,0.230986731166,63,1.0,-0.102744642793,-1.0,nan,nan,nan,nan,nan,nan,nan,nan,857.278913196,1401.08944403,nan,1401.2372929,nan,nan,nan,nan
1,358,1,1,1.0,1.0,0.302042041672,1,0.0,0.0,1.0,0.349402073347,0.111998505047,0.237403568299,0.461400578394,0.111998505047,0.233181794349,412,0.0618891196837,0.462096609288,-0.571158935758,-175.236358309,265.236358309,-24.4511416907,377.0,-0.121259861678,0.478700828387,-0.143695900877,2.61742637638,857.278913196,1402.03123304,1402.83965671,1402.33327508,1406.49011566,1407.49169054,1403.85643386,1406.4817831
1,359,1,1,1.0,1.0,0.517209074751,0,0.0,0.0,0.0,0.34926637125,0.11186658053,0.23739979072,0.46113295178,0.11186658053,0.322366665447,112,1.0,-0.300501516081,-0.325324861792,nan,nan,nan,nan,nan,nan,nan,nan,857.278913196,1407.63195952,nan,1408.1491686,nan,nan,nan,nan
1,360,1,1,1.0,1.0,0.35141756339,0,0.0,0.0,0.0,0.349746207546,0.112065748286,0.23768045926,0.461811955832,0.112065748286,0.390222893271,440,0.258699398066,0.424657399123,-1.0,nan,nan,nan,nan,nan,nan,nan,nan,857.278913196,1408.57374796,nan,1408.92516553,nan,nan,nan,nan
1,361,1,1,1.0,1.0,0.257610401313,0,0.0,0.0,0.0,0.349750969243,0.111906032061,0.237844937182,0.461657001305,0.111906032061,0.375412346485,4,0.879126049628,0.195014037372,-1.0,nan,nan,nan,nan,nan,nan,nan,nan,857.278913196,1409.51553954,nan,1409.77314994,nan,nan,nan,nan
1,362,1,1,1.0,1.0,0.315801147663,0,0.0,0.0,0.0,0.349489206266,0.111854521099,0.237634685167,0.461343727365,0.111854521099,0.308276370789,311,-0.0397249783266,0.419020224334,0.462250212202,nan,nan,nan,nan,nan,nan,nan,nan,857.278913196,1410.45733112,nan,1410.77313227,nan,nan,nan,nan
1,363,0,0,0.0,1.0,0.453932183213,0,0.0,0.0,0.0,0.349393772673,0.111710324499,0.237683448173,0.461104097172,0.111710324499,0.342447910729,43,1.0,0.00424534395127,-1.0,nan,nan,nan,nan,nan,nan,nan,nan,857.278913196,1411.39910074,nan,1411.85303293,nan,nan,nan,nan
1,364,1,1,1.0,1.0,0.320193649852,0,0.0,0.0,0.0,0.349689078917,0.111690323088,0.237998755829,0.461379402005,0.111690323088,0.363308993576,453,0.359670421306,0.39926174925,-1.0,nan,nan,nan,nan,nan,nan,nan,nan,857.278913196,1412.34090344,nan,1412.66109709,nan,nan,nan,nan
1,365,1,1,1.0,1.0,0.314387062506,0,0.0,0.0,0.0,0.349605993201,0.111543856565,0.238062136636,0.461149849767,0.111543856565,0.362837631857,289,0.140592130943,0.368073254824,0.582505265782,nan,nan,nan,nan,nan,nan,nan,nan,857.278913196,1413.28268989,nan,1413.59707695,nan,nan,nan,nan
1,366,1,1,1.0,1.0,0.260490744608,0,0.0,0.0,0.0,0.349507063621,0.111402678678,0.238104384943,0.460909742298,0.111402678678,0.298357152322,194,1.0,-0.0524864644427,0.435571704399,nan,nan,nan,nan,nan,nan,nan,nan,857.278913196,1414.22456528,nan,1414.48505603,nan,nan,nan,nan
1,367,1,1,1.0,1.0,0.166792774922,0,0.0,0.0,0.0,0.349257718189,0.111345978784,0.237911739405,0.460603696974,0.111345978784,0.247223527345,441,0.266287261384,0.422891888867,-1.0,nan,nan,nan,nan,nan,nan,nan,nan,857.278913196,1415.16626934,nan,1415.33306211,nan,nan,nan,nan
1,368,1,1,1.0,1.0,0.320966550033,0,0.0,0.0,0.0,0.348748039577,0.111606606513,0.237141433064,0.460354646089,0.111606606513,0.249416689854,102,1.0,-0.276610342793,-0.434926949461,nan,nan,nan,nan,nan,nan,nan,nan,857.278913196,1416.10806433,nan,1416.42903088,nan,nan,nan,nan
1,369,1,1,1.0,1.0,0.355163463682,0,0.0,0.0,0.0,0.348670653812,0.111460674882,0.23720997893,0.460131328695,0.111460674882,0.280974262879,475,0.539218753276,0.343659807328,-1.0,nan,nan,nan,nan,nan,nan,nan,nan,857.278913196,1417.04985278,nan,1417.40501624,nan,nan,nan,nan
1,370,1,1,1.0,1.0,0.317355501,0,0.0,0.0,0.0,0.348688689395,0.111306285309,0.237382404086,0.459994974704,0.111306285309,0.331161838238,19,0.99625917486,0.126374530333,-1.0,nan,nan,nan,nan,nan,nan,nan,nan,857.278913196,1417.9916378,nan,1418.3089933,nan,nan,nan,nan
1,371,1,1,1.0,1.0,0.335554435442,0,0.0,0.0,0.0,0.348601893859,0.111164213622,0.237437680238,0.459766107481,0.111164213622,0.336024466708,273,0.299732959835,0.319577193062,0.635038033336,nan,nan,nan,nan,nan,nan,nan,nan,857.278913196,1418.93343194,nan,1419.26898637,nan,nan,nan,nan
1,372,1,1,1.0,1.0,0.329753264959,0,0.0,0.0,0.0,0.348565851157,0.111012677947,0.237553173209,0.459578529104,0.111012677947,0.327554400467,365,-0.157962026257,0.477016591838,-0.0139196855225,nan,nan,nan,nan,nan,nan,nan,nan,857.278913196,1419.87521525,nan,1420.20496851,nan,nan,nan,nan
1,373,1,1,1.0,1.0,0.315941700886,0,0.0,0.0,0.0,0.34851402585,0.110864047574,0.237649978276,0.459378073425,0.110864047574,0.327083133763,229,0.770397026975,0.135265939772,0.614681466938,nan,nan,nan,nan,nan,nan,nan,nan,857.278913196,1420.81700683,nan,1421.13294853,nan,nan,nan,nan
1,374,1,1,1.0,1.0,0.286053755786,0,0.0,0.0,0.0,0.348424541441,0.11072478366,0.237699757781,0.459149325101,0.11072478366,0.310582907211,397,-0.0275613476434,0.473159987783,-0.37569455347,nan,nan,nan,nan,nan,nan,nan,nan,857.278913196,1421.75887338,nan,1422.04492714,nan,nan,nan,nan
1,375,1,1,1.0,1.0,0.304331377207,0,0.0,0.0,0.0,0.348253662576,0.110621053086,0.23763260949,0.458874715663,0.110621053086,0.302108944627,74,1.0,-0.159715158178,-0.810443278181,nan,nan,nan,nan,nan,nan,nan,nan,857.278913196,1422.70058685,nan,1423.00491822,nan,nan,nan,nan
1,376,1,1,1.0,1.0,0.274532952753,0,0.0,0.0,0.0,0.348133656332,0.110493617278,0.237640039054,0.45862727361,0.110493617278,0.288306028582,121,1.0,-0.310732805591,-0.229640808446,nan,nan,nan,nan,nan,nan,nan,nan,857.278913196,1423.6423713,nan,1423.91690425,nan,nan,nan,nan
