block,trial,time,setsize,freqtrials,colorind,colordeg,colorrgb,correctresp,actualresp,acc,rts,probe_trials,fast_rt_trigger,slow_rt_trigger,rt_trailingavg,rt_runningavg,rt_runningstd,rt_runningslowthresh,rt_runningfastthresh,wm_mousepos,wm_respdeg,wm_colorind,wm_colorrgb,wm_colorhsv,wm_degdiff,wm_rts,timeBlockStart,timeEncArrayOnset,timeResponse,timeProbeOnset,timeProbeOffset
0,0,15:20:12:821000,6,1,424,298.125,[ 0.14217456  0.44881957 -0.77022942],1,1,1,0.624706634,0,nan,nan,nan,nan,nan,nan,nan,nan,nan,nan,[ nan  nan  nan],nan,nan,nan,857.2789132,858.2942016,858.9189082,nan,nan
0,1,15:20:13:757000,6,0,305,214.453125,[ 0.00361193  0.40685925  0.50019691],0,0,1,0.511980381,0,nan,nan,nan,nan,nan,nan,nan,nan,nan,nan,[ nan  nan  nan],nan,nan,nan,857.2789132,859.2389222,859.7509026,nan,nan
0,2,15:20:14:693000,6,1,234,164.53125,[ 0.71814775  0.15974031  0.6291316 ],1,1,1,0.373157128,0,nan,nan,nan,nan,nan,nan,nan,nan,nan,nan,[ nan  nan  nan],nan,nan,nan,857.2789132,860.1777308,860.550888,nan,nan
0,3,15:20:15:644000,6,1,459,322.734375,[ 0.40775816  0.38570917 -1.        ],1,1,1,0.367355672,0,nan,nan,nan,nan,nan,nan,nan,nan,nan,nan,[ nan  nan  nan],nan,nan,nan,857.2789132,861.1195241,861.4868798,nan,nan
0,4,15:20:16:580000,6,1,115,80.859375,[ 1.         -0.30516629 -0.29317275],1,1,1,0.313555147,0,nan,nan,nan,nan,nan,nan,nan,nan,nan,nan,[ nan  nan  nan],nan,nan,nan,857.2789132,862.0613097,862.3748649,nan,nan
0,5,15:20:17:516000,6,1,352,247.5,[-0.17544713  0.4708516   0.11867359],1,1,1,0.243772323,0,nan,nan,nan,nan,nan,nan,nan,nan,nan,nan,[ nan  nan  nan],nan,nan,nan,857.2789132,863.0030714,863.2468437,nan,nan
0,6,15:20:18:468000,6,1,483,339.609375,[ 0.60602571  0.31931445 -1.        ],1,1,1,0.309933834,0,nan,nan,nan,nan,nan,nan,nan,nan,nan,nan,[ nan  nan  nan],nan,nan,nan,857.2789132,863.9448912,864.254825,nan,nan
0,7,15:20:19:404000,6,1,210,147.65625,[ 0.9580225   0.0359305   0.53342186],1,1,1,0.304126962,0,nan,nan,nan,nan,nan,nan,nan,nan,nan,nan,[ nan  nan  nan],nan,nan,nan,857.2789132,864.886683,865.19081,nan,nan
0,8,15:20:20:356000,6,1,38,26.71875,[ 1.          0.03062595 -1.        ],1,1,1,0.322256048,0,nan,nan,nan,nan,nan,nan,nan,nan,nan,nan,[ nan  nan  nan],nan,nan,nan,857.2789132,865.8285419,866.1507979,nan,nan
0,9,15:20:21:292000,6,1,308,216.5625,[-0.01868286  0.41309748  0.48168233],1,1,1,0.332529548,0,nan,nan,nan,nan,nan,nan,nan,nan,nan,nan,[ nan  nan  nan],nan,nan,nan,857.2789132,866.7702471,867.1027766,nan,nan
0,10,15:20:22:228000,6,0,391,274.921875,[-0.0591908   0.47591628 -0.30371871],0,0,1,0.37470749,0,nan,nan,nan,nan,nan,nan,nan,nan,nan,nan,[ nan  nan  nan],nan,nan,nan,857.2789132,867.7120774,868.0867849,nan,nan
0,11,15:20:23:179000,6,1,120,84.375,[ 1.         -0.3101615  -0.24016291],1,1,1,0.336916633,0,nan,nan,nan,nan,nan,nan,nan,nan,nan,nan,[ nan  nan  nan],nan,nan,nan,857.2789132,868.6538262,868.9907429,nan,nan
0,12,15:20:24:115000,6,1,237,166.640625,[ 0.6863873   0.17403185  0.63634982],1,1,1,0.30709426,0,nan,nan,nan,nan,nan,nan,nan,nan,nan,nan,[ nan  nan  nan],nan,nan,nan,857.2789132,869.5956155,869.9027098,nan,nan
0,13,15:20:25:051000,6,1,491,345.234375,[ 0.67303348  0.29270771 -1.        ],1,1,1,0.301272848,0,nan,nan,nan,nan,nan,nan,nan,nan,nan,nan,[ nan  nan  nan],nan,nan,nan,857.2789132,870.5374379,870.8387108,nan,nan
0,14,15:20:26:003000,6,1,47,33.046875,[ 1.         -0.01707559 -1.        ],1,1,1,0.503480189,0,nan,nan,nan,nan,nan,nan,nan,nan,nan,nan,[ nan  nan  nan],nan,nan,nan,857.2789132,871.4791953,871.9826755,nan,nan
0,15,15:20:26:939000,6,1,126,88.59375,[ 1.         -0.31141175 -0.17740843],1,1,1,0.329668021,0,nan,nan,nan,nan,nan,nan,nan,nan,nan,nan,[ nan  nan  nan],nan,nan,nan,857.2789132,872.4210071,872.7506751,nan,nan
0,16,15:20:27:890000,6,1,13,9.140625,[ 0.95026217  0.15466406 -1.        ],1,1,1,0.531827181,0,nan,nan,nan,nan,nan,nan,nan,nan,nan,nan,[ nan  nan  nan],nan,nan,nan,857.2789132,873.3628252,873.8946524,nan,nan
0,17,15:20:28:826000,6,1,73,51.328125,[ 1.         -0.15467886 -0.83091687],1,1,1,0.334084186,0,nan,nan,nan,nan,nan,nan,nan,nan,nan,nan,[ nan  nan  nan],nan,nan,nan,857.2789132,874.3045543,874.6386385,nan,nan
0,18,15:20:29:762000,6,1,364,255.9375,[-0.16019432  0.47670452 -0.00341125],1,1,1,0.25626474,0,nan,nan,nan,nan,nan,nan,nan,nan,nan,nan,[ nan  nan  nan],nan,nan,nan,857.2789132,875.2463579,875.5026226,nan,nan
0,19,15:20:30:714000,6,1,300,210.9375,[ 0.04335371  0.39574842  0.52895103],1,1,1,0.338466425,0,nan,nan,nan,nan,nan,nan,nan,nan,nan,nan,[ nan  nan  nan],nan,nan,nan,857.2789132,876.1881355,876.5266019,nan,nan
0,20,15:20:31:650000,6,1,481,338.203125,[ 0.58928949  0.32561186 -1.        ],1,1,1,0.292662323,0,nan,nan,nan,nan,nan,nan,nan,nan,nan,nan,[ nan  nan  nan],nan,nan,nan,857.2789132,877.1299322,877.4225945,nan,nan
0,21,15:20:32:586000,6,1,12,8.4375,[ 0.94247669  0.15927395 -1.        ],1,1,1,0.190869571,0,nan,nan,nan,nan,nan,nan,nan,nan,nan,nan,[ nan  nan  nan],nan,nan,nan,857.2789132,878.0717101,878.2625797,nan,nan
0,22,15:20:33:538000,6,1,251,176.484375,[ 0.53557652  0.23650919  0.65528415],1,1,1,0.305079189,0,nan,nan,nan,nan,nan,nan,nan,nan,nan,nan,[ nan  nan  nan],nan,nan,nan,857.2789132,879.0135079,879.3185871,nan,nan
0,23,15:20:39:044000,6,1,377,265.078125,[-0.12125986  0.47870083 -0.1436959 ],1,1,1,0.22726801,1,nan,nan,nan,nan,nan,nan,nan,nan,-166.9843572,365,[-0.15796203  0.47701659 -0.01391969],nan,-8.093767765,2.517285196,857.2789132,879.9552884,880.1825564,881.7804681,884.3057808
0,24,15:20:39:980000,6,1,444,312.1875,[ 0.2892412   0.41740978 -1.        ],1,1,1,0.502111149,0,nan,nan,nan,nan,nan,nan,nan,nan,nan,nan,[ nan  nan  nan],nan,nan,nan,857.2789132,885.4643291,885.9664403,nan,nan
0,25,15:20:40:932000,6,1,66,46.40625,[ 1.         -0.11856871 -1.        ],1,1,1,0.440308499,0,nan,nan,nan,nan,nan,nan,nan,nan,nan,nan,[ nan  nan  nan],nan,nan,nan,857.2789132,886.4061207,886.8464292,nan,nan
0,26,15:20:41:868000,6,1,382,268.59375,[-0.10118876  0.47829114 -0.19973227],1,1,1,0.322501517,0,nan,nan,nan,nan,nan,nan,nan,nan,nan,nan,[ nan  nan  nan],nan,nan,nan,857.2789132,887.3479034,887.670405,nan,nan
0,27,15:20:42:804000,6,0,67,47.109375,[ 1.         -0.12380467 -1.        ],0,0,1,0.332696615,0,nan,nan,nan,nan,nan,nan,nan,nan,nan,nan,[ nan  nan  nan],nan,nan,nan,857.2789132,888.2896913,888.6223879,nan,nan
0,28,15:20:43:756000,6,1,340,239.0625,[-0.16683717  0.46098011  0.2323764 ],1,1,1,0.262909514,0,nan,nan,nan,nan,nan,nan,nan,nan,nan,nan,[ nan  nan  nan],nan,nan,nan,857.2789132,889.2314721,889.4943816,nan,nan
0,29,15:20:52:008000,6,1,194,136.40625,[ 1.         -0.05248646  0.4355717 ],1,1,1,0.313081029,1,nan,nan,nan,nan,nan,nan,nan,nan,-22.53325008,160,[ 1.         -0.22750142  0.15829752],nan,-23.87299992,5.267638432,857.2789132,890.1732713,890.4863524,891.9984508,897.2741244
0,30,15:20:52:944000,6,1,135,94.921875,[ 1.         -0.30350232 -0.08497887],1,1,1,0.477877834,0,nan,nan,nan,nan,nan,nan,nan,nan,nan,nan,[ nan  nan  nan],nan,nan,nan,857.2789132,898.4243367,898.9022146,nan,nan
0,31,15:20:53:880000,6,1,366,257.34375,[-0.15559338  0.47730203 -0.02447665],1,1,1,0.336071603,0,nan,nan,nan,nan,nan,nan,nan,nan,nan,nan,[ nan  nan  nan],nan,nan,nan,857.2789132,899.3661226,899.7021942,nan,nan
0,32,15:20:54:832000,6,1,103,72.421875,[ 1.         -0.27953747 -0.42375884],1,1,1,0.274286628,0,nan,nan,nan,nan,nan,nan,nan,nan,nan,nan,[ nan  nan  nan],nan,nan,nan,857.2789132,900.3078848,900.5821715,nan,nan
0,33,15:20:55:768000,6,1,213,149.765625,[ 0.92978509  0.05216688  0.54890652],1,1,1,0.244456843,0,nan,nan,nan,nan,nan,nan,nan,nan,nan,nan,[ nan  nan  nan],nan,nan,nan,857.2789132,901.2497012,901.4941581,nan,nan
0,34,15:20:56:719000,6,1,148,104.0625,[ 1.         -0.27269559  0.04442646],1,1,1,0.246607051,0,nan,nan,nan,nan,nan,nan,nan,nan,nan,nan,[ nan  nan  nan],nan,nan,nan,857.2789132,902.191545,902.438152,nan,nan
0,35,15:20:57:655000,6,0,237,166.640625,[ 0.6863873   0.17403185  0.63634982],0,0,1,0.424847074,0,nan,nan,nan,nan,nan,nan,nan,nan,nan,nan,[ nan  nan  nan],nan,nan,nan,857.2789132,903.1332818,903.5581289,nan,nan
0,36,15:20:58:591000,6,1,161,113.203125,[ 1.         -0.22315835  0.16749055],1,1,1,0.43506612,0,nan,nan,nan,nan,nan,nan,nan,nan,nan,nan,[ nan  nan  nan],nan,nan,nan,857.2789132,904.0750494,904.5101156,nan,nan
0,37,15:21:03:396000,6,1,484,340.3125,[ 0.61439895  0.31611274 -1.        ],1,1,1,0.333224046,1,nan,nan,nan,nan,nan,nan,nan,nan,127.5512821,459,[ 0.40775816  0.38570917 -1.        ],nan,-17.86378213,1.800577494,857.2789132,905.0168741,905.3500981,906.8503667,908.6589606
0,38,15:21:04:332000,6,1,59,41.484375,[ 1.         -0.08144099 -1.        ],1,1,1,0.500482671,0,nan,nan,nan,nan,nan,nan,nan,nan,nan,nan,[ nan  nan  nan],nan,nan,nan,857.2789132,909.8175012,910.3179839,nan,nan
0,39,15:21:05:284000,6,1,127,89.296875,[ 1.         -0.31111021 -0.16703665],1,nan,nan,nan,0,nan,nan,nan,nan,nan,nan,nan,nan,nan,nan,[ nan  nan  nan],nan,nan,nan,857.2789132,910.7592648,nan,nan,nan
0,40,15:21:06:220000,6,1,72,50.625,[ 1.         -0.14960778 -0.85320374],1,1,1,0.144941737,0,nan,nan,nan,nan,nan,nan,nan,nan,nan,nan,[ nan  nan  nan],nan,nan,nan,857.2789132,911.7010575,911.8459993,nan,nan
0,41,15:21:07:171000,6,1,502,352.96875,[ 0.76474094  0.25241358 -1.        ],1,1,1,0.31510893,0,nan,nan,nan,nan,nan,nan,nan,nan,nan,nan,[ nan  nan  nan],nan,nan,nan,857.2789132,912.6428409,912.9579498,nan,nan
0,42,15:21:12:943000,6,1,211,148.359375,[ 0.94867577  0.04136069  0.53868916],1,1,1,0.293320614,1,nan,nan,nan,nan,nan,nan,nan,nan,-5.042451069,135,[ 1.         -0.30350232 -0.08497887],nan,-53.31692393,2.783956006,857.2789132,913.5846301,913.8779508,915.4098295,918.2018302
0,43,15:21:13:879000,6,1,285,200.390625,[ 0.17873435  0.35687868  0.59852701],1,1,1,0.389462442,0,nan,nan,nan,nan,nan,nan,nan,nan,nan,nan,[ nan  nan  nan],nan,nan,nan,857.2789132,919.3603788,919.7498412,nan,nan
0,44,15:21:14:815000,6,1,350,246.09375,[-0.17575682  0.46949094  0.13824748],1,1,1,0.255661473,0,nan,nan,nan,nan,nan,nan,nan,nan,nan,nan,[ nan  nan  nan],nan,nan,nan,857.2789132,920.3021669,920.5578284,nan,nan
0,45,15:21:15:767000,6,1,510,358.59375,[ 0.83055446  0.2204367  -1.        ],1,1,1,0.265856571,0,nan,nan,nan,nan,nan,nan,nan,nan,nan,nan,[ nan  nan  nan],nan,nan,nan,857.2789132,921.2439514,921.5098079,nan,nan
0,46,15:21:16:703000,6,1,226,158.90625,[ 0.80126593  0.12020899  0.60458277],1,1,1,0.284067764,0,nan,nan,nan,nan,nan,nan,nan,nan,nan,nan,[ nan  nan  nan],nan,nan,nan,857.2789132,922.1857324,922.4698002,nan,nan
0,47,15:21:17:654000,6,1,369,259.453125,[-0.14769469  0.47799919 -0.05643387],1,1,1,0.278239795,0,nan,nan,nan,nan,nan,nan,nan,nan,nan,nan,[ nan  nan  nan],nan,nan,nan,857.2789132,923.1275371,923.4057769,nan,nan
0,48,15:21:18:590000,6,1,173,121.640625,[ 1.         -0.16590952  0.27353519],1,1,1,0.256450623,0,nan,nan,nan,nan,nan,nan,nan,nan,nan,nan,[ nan  nan  nan],nan,nan,nan,857.2789132,924.0693173,924.3257679,nan,nan
0,49,15:21:19:526000,6,1,395,277.734375,[-0.03839842  0.47418351 -0.35142722],1,1,1,0.258624494,0,nan,nan,nan,nan,nan,nan,nan,nan,nan,nan,[ nan  nan  nan],nan,nan,nan,857.2789132,925.0111086,925.269733,nan,nan
0,50,15:21:20:478000,6,0,21,14.765625,[ 1.        0.116714 -1.      ],0,1,0,0.292830246,0,0,0,nan,nan,nan,nan,nan,nan,nan,nan,[ nan  nan  nan],nan,nan,nan,857.2789132,925.9528944,926.2457247,nan,nan
0,51,15:21:21:414000,6,1,104,73.125,[ 1.         -0.28235148 -0.41264457],1,1,1,0.271019122,0,nan,nan,nan,nan,nan,nan,nan,nan,nan,nan,[ nan  nan  nan],nan,nan,nan,857.2789132,926.8946866,927.1657057,nan,nan
0,52,15:21:22:350000,6,1,323,227.109375,[-0.11001989  0.43965345  0.37585536],1,1,1,0.249221398,0,nan,nan,nan,nan,nan,nan,nan,nan,nan,nan,[ nan  nan  nan],nan,nan,nan,857.2789132,927.8364702,928.0856916,nan,nan
0,53,15:21:23:302000,6,1,140,98.4375,[ 1.         -0.29420925 -0.03457774],1,1,1,0.251411234,0,nan,nan,nan,nan,nan,nan,nan,nan,nan,nan,[ nan  nan  nan],nan,nan,nan,857.2789132,928.7782592,929.0296704,nan,nan
0,54,15:21:24:238000,6,1,325,228.515625,[-0.1194049   0.44263104  0.36018642],1,1,1,0.245608068,0,nan,nan,nan,nan,nan,nan,nan,nan,nan,nan,[ nan  nan  nan],nan,nan,nan,857.2789132,929.7200525,929.9656605,nan,nan
0,55,15:21:25:189000,6,1,382,268.59375,[-0.10118876  0.47829114 -0.19973227],1,1,1,0.231811899,0,nan,nan,nan,nan,nan,nan,nan,nan,nan,nan,[ nan  nan  nan],nan,nan,nan,857.2789132,930.6618403,930.8936522,nan,nan
0,56,15:21:26:125000,6,1,173,121.640625,[ 1.         -0.16590952  0.27353519],1,1,1,0.234004587,0,nan,nan,nan,nan,nan,nan,nan,nan,nan,nan,[ nan  nan  nan],nan,nan,nan,857.2789132,931.6036291,931.8376337,nan,nan
0,57,15:21:27:061000,6,1,334,234.84375,[-0.15279655  0.45446705  0.2855764 ],1,1,1,0.276197639,0,nan,nan,nan,nan,nan,nan,nan,nan,nan,nan,[ nan  nan  nan],nan,nan,nan,857.2789132,932.5454161,932.8216137,nan,nan
0,58,15:21:28:013000,6,1,194,136.40625,[ 1.         -0.05248646  0.4355717 ],1,1,1,0.262391207,0,nan,nan,nan,nan,nan,nan,nan,nan,nan,nan,[ nan  nan  nan],nan,nan,nan,857.2789132,933.4872111,933.7496023,nan,nan
0,59,15:21:28:949000,6,0,251,176.484375,[ 0.53557652  0.23650919  0.65528415],0,0,1,0.5366211,0,nan,nan,nan,nan,nan,nan,nan,nan,nan,nan,[ nan  nan  nan],nan,nan,nan,857.2789132,934.4289582,934.9655793,nan,nan
0,60,15:21:29:885000,6,1,138,97.03125,[ 1.         -0.29832988 -0.05465081],1,1,1,0.498786054,0,nan,nan,nan,nan,nan,nan,nan,nan,nan,nan,[ nan  nan  nan],nan,nan,nan,857.2789132,935.3707794,935.8695655,nan,nan
0,61,15:21:30:836000,6,0,207,145.546875,[ 0.98565351  0.01954319  0.51699622],0,0,1,0.476979776,0,nan,nan,nan,nan,nan,nan,nan,nan,nan,nan,[ nan  nan  nan],nan,nan,nan,857.2789132,936.312563,936.7895428,nan,nan
0,62,15:21:31:772000,6,1,83,58.359375,[ 1.         -0.20309788 -0.66587671],1,1,1,0.407206361,0,nan,nan,nan,nan,nan,nan,nan,nan,nan,nan,[ nan  nan  nan],nan,nan,nan,857.2789132,937.2543591,937.6615655,nan,nan
0,63,15:21:32:724000,6,1,384,270,[-0.09247501  0.47794532 -0.22247927],1,1,1,0.409364266,0,nan,nan,nan,nan,nan,nan,nan,nan,nan,nan,[ nan  nan  nan],nan,nan,nan,857.2789132,938.1961467,938.605511,nan,nan
0,64,15:21:33:660000,6,1,79,55.546875,[ 1.         -0.18429602 -0.72417078],1,1,1,0.307548421,0,nan,nan,nan,nan,nan,nan,nan,nan,nan,nan,[ nan  nan  nan],nan,nan,nan,857.2789132,939.137942,939.4454904,nan,nan
0,65,15:21:34:596000,6,1,301,211.640625,[ 0.03515994  0.39804276  0.52341451],1,1,1,0.293753108,0,nan,nan,nan,nan,nan,nan,nan,nan,nan,nan,[ nan  nan  nan],nan,nan,nan,857.2789132,940.0797259,940.373479,nan,nan
0,66,15:21:35:548000,6,1,232,163.125,[ 0.73915824  0.15004662  0.62371202],1,1,1,0.255945715,0,nan,nan,nan,nan,nan,nan,nan,nan,nan,nan,[ nan  nan  nan],nan,nan,nan,857.2789132,941.021522,941.2774678,nan,nan
0,67,15:21:36:484000,6,1,112,78.75,[ 1.         -0.30050152 -0.32532486],1,1,1,0.282154758,0,nan,nan,nan,nan,nan,nan,nan,nan,nan,nan,[ nan  nan  nan],nan,nan,nan,857.2789132,941.9632888,942.2454436,nan,nan
0,68,15:21:37:420000,6,1,227,159.609375,[ 0.79101995  0.12525779  0.60806671],1,1,1,0.372339752,0,nan,nan,nan,nan,nan,nan,nan,nan,nan,nan,[ nan  nan  nan],nan,nan,nan,857.2789132,942.9050847,943.2774244,nan,nan
0,69,15:21:38:371000,6,1,263,184.921875,[ 0.4056988   0.28417174  0.65182989],1,1,1,0.390523576,0,nan,nan,nan,nan,nan,nan,nan,nan,nan,nan,[ nan  nan  nan],nan,nan,nan,857.2789132,943.8468742,944.2373978,nan,nan
0,70,15:21:39:307000,6,1,40,28.125,[ 1.          0.02011655 -1.        ],1,1,1,0.312760865,0,nan,nan,nan,nan,nan,nan,nan,nan,nan,nan,[ nan  nan  nan],nan,nan,nan,857.2789132,944.7886345,945.1013953,nan,nan
0,71,15:21:40:259000,6,1,129,90.703125,[ 1.         -0.31007049 -0.146368  ],1,1,1,0.274924677,0,nan,nan,nan,nan,nan,nan,nan,nan,nan,nan,[ nan  nan  nan],nan,nan,nan,857.2789132,945.7304517,946.0053764,nan,nan
0,72,15:21:41:195000,6,1,326,229.21875,[-0.12383419  0.44407177  0.35222354],1,1,1,0.285123196,0,nan,nan,nan,nan,nan,nan,nan,nan,nan,nan,[ nan  nan  nan],nan,nan,nan,857.2789132,946.6722401,946.9573633,nan,nan
0,73,15:21:42:131000,6,0,381,267.890625,[-0.10540306  0.47842508 -0.18843114],0,0,1,0.479295911,0,nan,nan,nan,nan,nan,nan,nan,nan,nan,nan,[ nan  nan  nan],nan,nan,nan,857.2789132,947.6140329,948.0933288,nan,nan
0,74,15:21:43:082000,6,1,236,165.9375,[ 0.69700456  0.16930175  0.63406585],1,1,1,0.417489839,0,nan,nan,nan,nan,nan,nan,nan,nan,nan,nan,[ nan  nan  nan],nan,nan,nan,857.2789132,948.5558182,948.973308,nan,nan
0,75,15:21:44:018000,6,1,154,108.28125,[ 1.         -0.25181315  0.10213817],1,1,1,0.339674384,0,nan,nan,nan,nan,nan,nan,nan,nan,nan,nan,[ nan  nan  nan],nan,nan,nan,857.2789132,949.4976385,949.8373129,nan,nan
0,76,15:21:44:954000,6,1,454,319.21875,[ 0.36762736  0.39708484 -1.        ],1,1,1,0.277851777,0,nan,nan,nan,nan,nan,nan,nan,nan,nan,nan,[ nan  nan  nan],nan,nan,nan,857.2789132,950.4394253,950.717277,nan,nan
0,77,15:21:45:906000,6,1,400,281.25,[-0.01078748  0.4714273  -0.41269269],1,1,1,0.296088059,0,nan,nan,nan,nan,nan,nan,nan,nan,nan,nan,[ nan  nan  nan],nan,nan,nan,857.2789132,951.3811829,951.677271,nan,nan
0,78,15:21:46:842000,6,1,444,312.1875,[ 0.2892412   0.41740978 -1.        ],1,1,1,0.322283417,0,nan,nan,nan,nan,nan,nan,nan,nan,nan,nan,[ nan  nan  nan],nan,nan,nan,857.2789132,952.3229734,952.6452568,nan,nan
0,79,15:21:47:794000,6,1,327,229.921875,[-0.12808616  0.44548068  0.34417644],1,1,1,0.284468897,0,nan,nan,nan,nan,nan,nan,nan,nan,nan,nan,[ nan  nan  nan],nan,nan,nan,857.2789132,953.2647698,953.5492387,nan,nan
0,80,15:21:48:730000,6,1,479,336.796875,[ 0.57257215  0.33176822 -1.        ],1,1,1,0.262688564,0,0,0,0.289813626,0.333632616,0.091020944,0.424653561,0.242611672,nan,nan,nan,[ nan  nan  nan],nan,nan,nan,857.2789132,954.206548,954.4692365,nan,nan
0,81,15:21:49:666000,6,1,32,22.5,[ 1.         0.0617358 -1.       ],1,1,1,0.264866996,0,0,0,0.270674819,0.332745816,0.090793056,0.423538871,0.24195276,nan,nan,nan,[ nan  nan  nan],nan,nan,nan,857.2789132,955.148339,955.413206,nan,nan
0,82,15:21:50:617000,6,1,211,148.359375,[ 0.94867577  0.04136069  0.53868916],1,1,1,0.211071033,0,0,0,0.246208864,0.331907805,0.090541646,0.422449452,0.241366159,nan,nan,nan,[ nan  nan  nan],nan,nan,nan,857.2789132,956.0901217,956.3011927,nan,nan
0,83,15:21:51:553000,6,1,123,86.484375,[ 1.         -0.31144114 -0.20867286],1,1,1,0.357272047,0,0,0,0.277736692,0.330434186,0.09095995,0.421394136,0.239474236,nan,nan,nan,[ nan  nan  nan],nan,nan,nan,857.2789132,957.031911,957.389183,nan,nan
0,84,15:21:52:489000,6,1,320,225,[-0.09465004  0.43494402  0.39870124],1,1,1,0.319453821,0,0,0,0.2959323,0.330757534,0.09045774,0.421215274,0.240299794,nan,nan,nan,[ nan  nan  nan],nan,nan,nan,857.2789132,957.9737009,958.2931547,nan,nan
0,85,15:21:53:441000,6,1,20,14.0625,[ 1.          0.12155819 -1.        ],1,1,1,0.273662549,0,0,0,0.316796139,0.330622966,0.089926046,0.420549012,0.24069692,nan,nan,nan,[ nan  nan  nan],nan,nan,nan,857.2789132,958.9154922,959.1891547,nan,nan
0,86,15:21:54:377000,6,1,95,66.796875,[ 1.         -0.25317502 -0.51497544],1,1,1,0.259843573,0,0,0,0.284319981,0.329952843,0.089606236,0.41955908,0.240346607,nan,nan,nan,[ nan  nan  nan],nan,nan,nan,857.2789132,959.8572806,960.1171242,nan,nan
0,87,15:21:55:329000,6,0,397,279.140625,[-0.02756135  0.47315999 -0.37569455],0,1,0,0.246030298,0,0,0,0.259845473,0.329137619,0.089400246,0.418537866,0.239737373,nan,nan,nan,[ nan  nan  nan],nan,nan,nan,857.2789132,960.7990682,961.0450985,nan,nan
0,88,15:21:56:265000,6,1,199,139.921875,[ 1.         -0.02467618  0.4687863 ],1,1,1,0.264224956,0,0,0,0.256699609,0.328182363,0.089325325,0.417507687,0.238857038,nan,nan,nan,[ nan  nan  nan],nan,nan,nan,857.2789132,961.7408569,962.0050819,nan,nan
0,89,15:21:57:201000,6,1,97,68.203125,[ 1.         -0.26036974 -0.49171883],1,1,1,0.306431693,0,0,0,0.272228982,0.327455574,0.089074678,0.416530252,0.238380896,nan,nan,nan,[ nan  nan  nan],nan,nan,nan,857.2789132,962.6826425,962.9890742,nan,nan
0,90,15:21:58:152000,6,0,3,2.109375,[ 0.87108718  0.19933511 -1.        ],0,1,0,0.260616188,0,0,0,0.277090945,0.327219351,0.088600561,0.415819912,0.23861879,nan,nan,nan,[ nan  nan  nan],nan,nan,nan,857.2789132,963.6244398,963.885056,nan,nan
0,91,15:21:59:088000,6,1,131,92.109375,[ 1.         -0.30845167 -0.1258005 ],1,1,1,0.270827536,0,0,0,0.279291806,0.326479316,0.088383129,0.414862445,0.238096186,nan,nan,nan,[ nan  nan  nan],nan,nan,nan,857.2789132,964.5662148,964.8370424,nan,nan
0,92,15:22:00:024000,6,1,411,288.984375,[ 0.05552017  0.46302271 -0.55705476],1,1,1,0.217010476,0,0,0,0.249484733,0.325867758,0.088087436,0.413955193,0.237780322,nan,nan,nan,[ nan  nan  nan],nan,nan,nan,857.2789132,965.5080098,965.7250203,nan,nan
0,93,15:22:00:976000,6,1,37,26.015625,[ 1.          0.03585655 -1.        ],1,1,1,0.243236624,0,0,0,0.243691545,0.324684526,0.088331525,0.413016052,0.236353001,nan,nan,nan,[ nan  nan  nan],nan,nan,nan,857.2789132,966.4497792,966.6930158,nan,nan
0,94,15:22:01:912000,6,1,404,284.0625,[ 0.01248946  0.46874627 -0.4633491 ],1,1,1,0.237406944,0,1,0,0.232551348,0.323808742,0.088256018,0.412064761,0.235552724,nan,nan,nan,[ nan  nan  nan],nan,nan,nan,857.2789132,967.3915847,967.6289917,nan,nan
0,95,15:22:06:732000,6,1,21,14.765625,[ 1.        0.116714 -1.      ],1,1,1,0.239606474,1,0,0,0.240083347,0.322889574,0.08823171,0.411121284,0.234657864,nan,62.94420468,38,[ 1.          0.03062595 -1.        ],nan,12.29017032,1.825597964,857.2789132,968.3333637,968.5729702,970.1669062,972.0004587
0,96,15:22:07:668000,6,1,480,337.5,[ 0.58092807  0.32870764 -1.        ],1,1,1,0.422192528,0,0,0,0.299735315,0.32201291,0.088176708,0.410189618,0.233836202,nan,nan,nan,[ nan  nan  nan],nan,nan,nan,857.2789132,973.1506648,973.5728573,nan,nan
0,97,15:22:08:620000,6,1,273,191.953125,[ 0.29973296  0.31957719  0.63503803],1,1,1,0.328435258,0,0,0,0.330078086,0.323056448,0.088303981,0.411360429,0.234752467,nan,nan,nan,[ nan  nan  nan],nan,nan,nan,857.2789132,974.0924418,974.4208771,nan,nan
0,98,15:22:09:556000,6,1,472,331.875,[ 0.51429865  0.35221228 -1.        ],1,1,1,0.282614336,0,0,0,0.34441404,0.323111899,0.087849307,0.410961206,0.235262593,nan,nan,nan,[ nan  nan  nan],nan,nan,nan,857.2789132,975.0342408,975.3168552,nan,nan
0,99,15:22:10:492000,6,1,426,299.53125,[ 0.15619305  0.44621085 -0.8148597 ],1,1,1,0.300757391,0,0,0,0.303935661,0.322698659,0.087494658,0.410193317,0.235204001,nan,nan,nan,[ nan  nan  nan],nan,nan,nan,857.2789132,975.9760652,976.2768226,nan,nan
0,100,15:22:11:443000,6,1,463,325.546875,[ 0.44023832  0.3760118  -1.        ],1,1,1,0.295001266,0,0,0,0.292790997,0.32247703,0.087079288,0.409556318,0.235397742,nan,nan,nan,[ nan  nan  nan],nan,nan,nan,857.2789132,976.9178186,977.2128198,nan,nan
0,101,15:22:12:379000,6,1,343,241.171875,[-0.17138818  0.46383642  0.20482281],1,1,1,0.297210204,0,0,0,0.297656287,0.322202272,0.086685916,0.408888189,0.235516356,nan,nan,nan,[ nan  nan  nan],nan,nan,nan,857.2789132,977.859605,978.1568152,nan,nan
0,102,15:22:13:331000,6,1,37,26.015625,[ 1.          0.03585655 -1.        ],1,1,1,0.291409033,0,0,0,0.294540168,0.321954826,0.086291196,0.408246022,0.23566363,nan,nan,nan,[ nan  nan  nan],nan,nan,nan,857.2789132,978.8013917,979.0928008,nan,nan
0,103,15:22:14:267000,6,0,362,254.53125,[-0.16423973  0.47600016  0.01745785],0,0,1,0.413578867,0,0,0,0.334066035,0.321655358,0.085919885,0.407575243,0.235735472,nan,nan,nan,[ nan  nan  nan],nan,nan,nan,857.2789132,979.7431947,980.1567736,nan,nan
0,104,15:22:15:203000,6,1,126,88.59375,[ 1.         -0.31141175 -0.17740843],1,1,1,0.391783139,0,0,0,0.365590346,0.322547819,0.085975556,0.408523375,0.236572262,nan,nan,nan,[ nan  nan  nan],nan,nan,nan,857.2789132,980.684982,981.0767652,nan,nan
0,105,15:22:16:155000,6,1,410,288.28125,[ 0.04920468  0.46392153 -0.54316189],1,1,1,0.281979138,0,0,0,0.362447048,0.323213543,0.085827558,0.409041101,0.237385985,nan,nan,nan,[ nan  nan  nan],nan,nan,nan,857.2789132,981.6267727,981.9087519,nan,nan
0,106,15:22:17:091000,6,0,70,49.21875,[ 1.         -0.13936985 -0.90643691],0,0,1,0.50017334,0,0,0,0.391311872,0.322820834,0.085511711,0.408332546,0.237309123,nan,nan,nan,[ nan  nan  nan],nan,nan,nan,857.2789132,982.5685526,983.068726,nan,nan
0,107,15:22:18:027000,6,1,380,267.1875,[-0.10951951  0.47853303 -0.17717739],1,1,1,0.31035749,0,0,0,0.364169989,0.324493971,0.086817077,0.411311048,0.237676894,nan,nan,nan,[ nan  nan  nan],nan,nan,nan,857.2789132,983.5103402,983.8206977,nan,nan
0,108,15:22:18:978000,6,1,62,43.59375,[ 1.         -0.09743725 -1.        ],1,1,1,0.312554739,0,0,0,0.374361856,0.324361855,0.086421143,0.410782997,0.237940712,nan,nan,nan,[ nan  nan  nan],nan,nan,nan,857.2789132,984.4521272,984.764682,nan,nan
0,109,15:22:19:914000,6,0,298,209.53125,[ 0.06008966  0.39105034  0.53969689],0,1,0,0.274747061,0,0,0,0.299219763,0.324252529,0.086027548,0.410280077,0.238224982,nan,nan,nan,[ nan  nan  nan],nan,nan,nan,857.2789132,985.3939154,985.6686624,nan,nan
0,110,15:22:20:850000,6,1,21,14.765625,[ 1.        0.116714 -1.      ],1,1,1,0.276947161,0,0,0,0.288082987,0.323798351,0.085761998,0.409560349,0.238036353,nan,nan,nan,[ nan  nan  nan],nan,nan,nan,857.2789132,986.3357044,986.6126516,nan,nan
0,111,15:22:21:802000,6,1,226,158.90625,[ 0.80126593  0.12020899  0.60458277],1,1,1,0.375142834,0,0,0,0.308945685,0.323372431,0.085487011,0.408859442,0.23788542,nan,nan,nan,[ nan  nan  nan],nan,nan,nan,857.2789132,987.2774897,987.6526325,nan,nan
0,112,15:22:22:738000,6,1,122,85.78125,[ 1.         -0.31115954 -0.21914422],1,1,1,0.353344254,0,0,0,0.33514475,0.323838831,0.085241534,0.409080365,0.238597297,nan,nan,nan,[ nan  nan  nan],nan,nan,nan,857.2789132,988.2192784,988.5726227,nan,nan
0,113,15:22:23:689000,6,1,257,180.703125,[ 0.4704729   0.26103985  0.65584138],1,1,1,0.323526728,0,0,0,0.350671272,0.324102272,0.084905516,0.409007788,0.239196757,nan,nan,nan,[ nan  nan  nan],nan,nan,nan,857.2789132,989.1610706,989.4845973,nan,nan
0,114,15:22:24:625000,6,1,377,265.078125,[-0.12125986  0.47870083 -0.1436959 ],1,1,1,0.349750596,0,0,0,0.342207193,0.324097179,0.08452901,0.408626189,0.239568169,nan,nan,nan,[ nan  nan  nan],nan,nan,nan,857.2789132,990.1028473,990.4525979,nan,nan
0,115,15:22:25:561000,6,1,23,16.171875,[ 1.          0.10694394 -1.        ],1,1,1,0.463922296,0,0,0,0.37906654,0.324322209,0.084191442,0.408513651,0.240130767,nan,nan,nan,[ nan  nan  nan],nan,nan,nan,857.2789132,991.0446503,991.5085726,nan,nan
0,116,15:22:26:513000,6,1,262,184.21875,[ 0.41645248  0.28041442  0.65281554],1,1,1,0.530112032,0,0,1,0.447928308,0.325536123,0.084820701,0.410356823,0.240715422,nan,nan,nan,[ nan  nan  nan],nan,nan,nan,857.2789132,991.9864382,992.5165502,nan,nan
0,117,15:22:31:068000,6,1,499,350.859375,[ 0.73983189  0.26382776 -1.        ],1,1,1,0.572307935,1,0,0,0.522114088,0.327299708,0.086545977,0.413845685,0.240753731,nan,110.854458,482,[ 0.59765563  0.32248081 -1.        ],nan,-11.71383304,1.575504737,857.2789132,992.9282272,993.5005351,994.7534229,996.33696
0,118,15:22:32:004000,6,1,330,232.03125,[-0.13976633  0.44951833  0.31954025],1,1,1,0.469301237,0,0,0,0.523907068,0.329393796,0.089077891,0.418471687,0.240315904,nan,nan,nan,[ nan  nan  nan],nan,nan,nan,857.2789132,997.4871432,997.9564445,nan,nan
0,119,15:22:32:956000,6,1,81,56.953125,[ 1.         -0.19380425 -0.69421917],1,1,1,0.359504078,0,0,0,0.46703775,0.330579452,0.089621997,0.420201449,0.240957455,nan,nan,nan,[ nan  nan  nan],nan,nan,nan,857.2789132,998.4289322,998.7884363,nan,nan
0,120,15:22:33:892000,6,1,494,347.34375,[ 0.69812996  0.282144   -1.        ],1,1,1,0.321702673,0,0,0,0.383502662,0.330822516,0.089283689,0.420106205,0.241538827,nan,nan,nan,[ nan  nan  nan],nan,nan,nan,857.2789132,999.3707218,999.6924245,nan,nan
0,121,15:22:34:828000,6,1,417,293.203125,[ 0.0945046   0.45705356 -0.6457202 ],1,1,1,0.315893519,0,0,0,0.332366757,0.330746517,0.088914761,0.419661278,0.241831756,nan,nan,nan,[ nan  nan  nan],nan,nan,nan,857.2789132,1000.312511,1000.628404,nan,nan
0,122,15:22:35:779000,6,1,308,216.5625,[-0.01868286  0.41309748  0.48168233],1,1,1,0.358100541,0,0,0,0.331898911,0.330623765,0.088556792,0.419180557,0.242066973,nan,nan,nan,[ nan  nan  nan],nan,nan,nan,857.2789132,1001.254288,1001.612389,nan,nan
0,123,15:22:36:715000,6,1,28,19.6875,[ 1.          0.08206613 -1.        ],1,1,1,0.360278974,0,0,0,0.344757678,0.330848985,0.088227897,0.419076881,0.242621088,nan,nan,nan,[ nan  nan  nan],nan,nan,nan,857.2789132,1002.196085,1002.556364,nan,nan
0,124,15:22:37:667000,6,1,341,239.765625,[-0.16853588  0.4619615   0.22326011],1,1,1,0.570477037,0,0,1,0.429618851,0.331088253,0.087908249,0.418996502,0.243180003,nan,nan,nan,[ nan  nan  nan],nan,nan,nan,857.2789132,1003.137875,1003.708352,nan,nan
0,125,15:22:43:439000,6,1,451,317.109375,[ 0.34383096  0.40351836 -1.        ],1,1,1,0.492686386,1,0,0,0.474480799,0.333018808,0.09013304,0.423151848,0.242885767,nan,132.3322337,452,[ 0.35173807  0.40140621 -1.        ],nan,0.55839128,2.783973397,857.2789132,1004.079661,1004.572347,1005.904865,1008.696869
0,126,15:22:44:375000,6,1,75,52.734375,[ 1.         -0.16471446 -0.79135592],1,1,1,0.404792722,0,0,0,0.489318715,0.334296148,0.090891647,0.425187795,0.243404501,nan,nan,nan,[ nan  nan  nan],nan,nan,nan,857.2789132,1009.85541,1010.260203,nan,nan
0,127,15:22:45:327000,6,1,451,317.109375,[ 0.34383096  0.40351836 -1.        ],1,1,1,0.383012389,0,0,0,0.426830499,0.334855645,0.090746103,0.425601748,0.244109541,nan,nan,nan,[ nan  nan  nan],nan,nan,nan,857.2789132,1010.797201,1011.180214,nan,nan
0,128,15:22:46:263000,6,1,40,28.125,[ 1.          0.02011655 -1.        ],1,1,1,0.297221893,0,0,0,0.361675668,0.335234832,0.090488289,0.425723121,0.244746542,nan,nan,nan,[ nan  nan  nan],nan,nan,nan,857.2789132,1011.738988,1012.036209,nan,nan
0,129,15:22:47:199000,6,1,138,97.03125,[ 1.         -0.29832988 -0.05465081],1,1,1,0.299410589,0,0,0,0.32654829,0.334937856,0.090196239,0.425134095,0.244741617,nan,nan,nan,[ nan  nan  nan],nan,nan,nan,857.2789132,1012.680774,1012.980185,nan,nan
0,130,15:22:48:150000,6,1,413,290.390625,[ 0.06831062  0.46114313 -0.5854956 ],1,1,1,0.333611779,0,0,0,0.31008142,0.334662451,0.089899973,0.424562424,0.244762477,nan,nan,nan,[ nan  nan  nan],nan,nan,nan,857.2789132,1013.622566,1013.956178,nan,nan
0,131,15:22:49:086000,6,1,325,228.515625,[-0.1194049   0.44263104  0.36018642],1,1,1,0.343805166,0,0,0,0.325609178,0.334654368,0.089553584,0.424207952,0.245100785,nan,nan,nan,[ nan  nan  nan],nan,nan,nan,857.2789132,1014.564346,1014.908151,nan,nan
0,132,15:22:50:022000,6,1,124,87.1875,[ 1.         -0.31157719 -0.19822652],1,1,1,0.31398593,0,0,0,0.330467625,0.334724222,0.089214677,0.423938899,0.245509545,nan,nan,nan,[ nan  nan  nan],nan,nan,nan,857.2789132,1015.506145,1015.820131,nan,nan
0,133,15:22:50:974000,6,1,190,133.59375,[ 1.         -0.07468844  0.40739964],1,1,1,0.33218743,0,0,0,0.329992842,0.334567114,0.088894289,0.423461402,0.245672825,nan,nan,nan,[ nan  nan  nan],nan,nan,nan,857.2789132,1016.447928,1016.780116,nan,nan
0,134,15:22:51:910000,6,1,129,90.703125,[ 1.         -0.31007049 -0.146368  ],1,1,1,0.32638683,0,0,0,0.32418673,0.334549221,0.088559708,0.423108929,0.245989513,nan,nan,nan,[ nan  nan  nan],nan,nan,nan,857.2789132,1017.389716,1017.716102,nan,nan
0,135,15:22:52:861000,6,1,190,133.59375,[ 1.         -0.07468844  0.40739964],1,1,1,0.336575941,0,0,0,0.331716734,0.334488308,0.088231439,0.422719747,0.246256869,nan,nan,nan,[ nan  nan  nan],nan,nan,nan,857.2789132,1018.331509,1018.668085,nan,nan
0,136,15:22:53:797000,6,1,474,333.28125,[ 0.53090176  0.34654538 -1.        ],1,1,1,0.314781068,0,0,0,0.325914613,0.334503772,0.087904231,0.422408003,0.246599541,nan,nan,nan,[ nan  nan  nan],nan,nan,nan,857.2789132,1019.273293,1019.588074,nan,nan
0,137,15:22:54:733000,6,1,509,357.890625,[ 0.82238638  0.224555   -1.        ],1,1,1,0.380948851,0,0,0,0.344101953,0.334358752,0.087596664,0.421955416,0.246762087,nan,nan,nan,[ nan  nan  nan],nan,nan,nan,857.2789132,1020.215088,1020.596037,nan,nan
0,138,15:22:55:685000,6,1,437,307.265625,[ 0.23613483  0.42977024 -1.        ],1,1,1,0.375147396,0,0,0,0.356959105,0.334698826,0.087366444,0.422065269,0.247332382,nan,nan,nan,[ nan  nan  nan],nan,nan,nan,857.2789132,1021.156878,1021.532026,nan,nan
0,139,15:22:56:621000,6,1,495,348.046875,[ 0.70648511  0.27855169 -1.        ],1,1,1,0.353364781,0,0,0,0.369820343,0.334991931,0.087116901,0.422108832,0.24787503,nan,nan,nan,[ nan  nan  nan],nan,nan,nan,857.2789132,1022.098659,1022.452023,nan,nan
0,140,15:22:57:557000,6,1,155,108.984375,[ 1.         -0.24798314  0.11161188],1,1,1,0.395491976,0,0,0,0.374668051,0.33512411,0.086816852,0.421940962,0.248307258,nan,nan,nan,[ nan  nan  nan],nan,nan,nan,857.2789132,1023.040496,1023.435988,nan,nan
0,141,15:22:58:509000,6,1,383,269.296875,[-0.09687871  0.47813121 -0.21108141],1,1,1,0.413754773,0,0,0,0.387537177,0.335555309,0.086655487,0.422210797,0.248899822,nan,nan,nan,[ nan  nan  nan],nan,nan,nan,857.2789132,1023.982236,1024.39599,nan,nan
0,142,15:22:59:445000,6,1,137,96.328125,[ 1.         -0.30019022 -0.06473166],1,1,1,0.383942948,0,0,0,0.397729899,0.336109915,0.086596647,0.422706562,0.249513268,nan,nan,nan,[ nan  nan  nan],nan,nan,nan,857.2789132,1024.924025,1025.307968,nan,nan
0,143,15:23:00:396000,6,1,490,344.53125,[ 0.66466039  0.29615785 -1.        ],1,1,1,0.514145128,0,0,1,0.43728095,0.336446768,0.086383845,0.422830613,0.250062922,nan,nan,nan,[ nan  nan  nan],nan,nan,nan,857.2789132,1025.865813,1026.379958,nan,nan
0,144,15:23:05:685000,6,0,52,36.5625,[ 1.         -0.04388606 -1.        ],0,0,1,0.484329883,1,0,0,0.460805987,0.337689413,0.087345622,0.425035036,0.250343791,nan,50.69109815,56,[ 1.         -0.06536751 -1.        ],nan,2.746401853,2.308913184,857.2789132,1026.807604,1027.291934,1028.632804,1030.949746
0,145,15:23:06:621000,6,1,310,217.96875,[-0.03285454  0.41708073  0.46882802],1,1,1,0.4478596,0,0,0,0.482111537,0.33870775,0.087889528,0.426597278,0.250818222,nan,nan,nan,[ nan  nan  nan],nan,nan,nan,857.2789132,1032.099954,1032.547813,nan,nan
0,146,15:23:07:572000,6,1,381,267.890625,[-0.10540306  0.47842508 -0.18843114],1,1,1,0.346080817,0,0,0,0.4260901,0.339460521,0.088050531,0.427511052,0.251409991,nan,nan,nan,[ nan  nan  nan],nan,nan,nan,857.2789132,1033.041739,1033.38782,nan,nan
0,147,15:23:08:508000,6,0,322,226.40625,[-0.10506723  0.43811622  0.38355935],0,0,1,0.508271543,0,0,0,0.434070653,0.339505866,0.087750168,0.427256034,0.251755697,nan,nan,nan,[ nan  nan  nan],nan,nan,nan,857.2789132,1033.983533,1034.491804,nan,nan
0,148,15:23:09:444000,6,1,221,155.390625,[ 0.85178146  0.09454116  0.58542294],1,1,1,0.358478866,0,0,0,0.404277076,0.340653932,0.088544602,0.429198534,0.25210933,nan,nan,nan,[ nan  nan  nan],nan,nan,nan,857.2789132,1034.925321,1035.2838,nan,nan
0,149,15:23:10:396000,6,1,35,24.609375,[ 1.          0.04626536 -1.        ],1,1,1,0.28867352,0,0,0,0.38514131,0.34077437,0.088257039,0.429031409,0.252517332,nan,nan,nan,[ nan  nan  nan],nan,nan,nan,857.2789132,1035.867112,1036.155786,nan,nan
0,150,15:23:11:332000,6,1,135,94.921875,[ 1.         -0.30350232 -0.08497887],1,1,1,0.346860845,0,0,0,0.331337744,0.3404247,0.088063179,0.428487879,0.252361521,nan,nan,nan,[ nan  nan  nan],nan,nan,nan,857.2789132,1036.808902,1037.155763,nan,nan
0,151,15:23:12:268000,6,1,238,167.34375,[ 0.67574183  0.17872767  0.63851109],1,1,1,0.301055318,0,0,0,0.312196561,0.340467608,0.087770707,0.428238315,0.252696901,nan,nan,nan,[ nan  nan  nan],nan,nan,nan,857.2789132,1037.750683,1038.051738,nan,nan
0,152,15:23:13:219000,6,1,378,265.78125,[-0.11745014  0.47867092 -0.15481012],1,1,1,0.327166287,0,0,0,0.325027483,0.340206599,0.08753798,0.42774458,0.252668619,nan,nan,nan,[ nan  nan  nan],nan,nan,nan,857.2789132,1038.692557,1039.019724,nan,nan
0,153,15:23:14:155000,6,1,319,224.296875,[-0.08918918  0.43330867  0.4061371 ],1,1,1,0.313451086,0,0,0,0.313890897,0.340120808,0.08725592,0.427376728,0.252864888,nan,nan,nan,[ nan  nan  nan],nan,nan,nan,857.2789132,1039.634257,1039.947708,nan,nan
0,154,15:23:15:091000,6,1,19,13.359375,[ 0.99625917  0.12637453 -1.        ],1,1,1,0.275643124,0,0,0,0.305420166,0.339946496,0.08699685,0.426943346,0.252949646,nan,nan,nan,[ nan  nan  nan],nan,nan,nan,857.2789132,1040.576049,1040.851692,nan,nan
0,155,15:23:16:043000,6,1,238,167.34375,[ 0.67574183  0.17872767  0.63851109],1,1,1,0.28583423,0,0,0,0.291642813,0.339528942,0.086867612,0.426396553,0.25266133,nan,nan,nan,[ nan  nan  nan],nan,nan,nan,857.2789132,1041.517836,1041.80367,nan,nan
0,156,15:23:16:979000,6,1,21,14.765625,[ 1.        0.116714 -1.      ],1,1,1,0.25603381,0,0,0,0.272503721,0.339182524,0.086693593,0.425876117,0.252488932,nan,nan,nan,[ nan  nan  nan],nan,nan,nan,857.2789132,1042.459628,1042.715662,nan,nan
0,157,15:23:17:931000,6,0,322,226.40625,[-0.10506723  0.43811622  0.38355935],0,0,1,0.490202043,0,0,0,0.344023361,0.33864952,0.086669692,0.425319211,0.251979828,nan,nan,nan,[ nan  nan  nan],nan,nan,nan,857.2789132,1043.401422,1043.891624,nan,nan
0,158,15:23:18:867000,6,1,131,92.109375,[ 1.         -0.30845167 -0.1258005 ],1,1,1,0.308424812,0,0,0,0.351553555,0.339614822,0.087230459,0.426845281,0.252384364,nan,nan,nan,[ nan  nan  nan],nan,nan,nan,857.2789132,1044.343206,1044.651631,nan,nan
0,159,15:23:19:803000,6,1,431,303.046875,[ 0.19195726  0.43918129 -0.98229877],1,1,1,0.358617139,0,0,0,0.385747998,0.339417417,0.086989148,0.426406565,0.252428269,nan,nan,nan,[ nan  nan  nan],nan,nan,nan,857.2789132,1045.284992,1045.643609,nan,nan
0,160,15:23:20:754000,6,1,221,155.390625,[ 0.85178146  0.09454116  0.58542294],1,1,1,0.336732175,0,0,0,0.334591375,0.33953817,0.086728448,0.426266618,0.252809722,nan,nan,nan,[ nan  nan  nan],nan,nan,nan,857.2789132,1046.226865,1046.563597,nan,nan
0,161,15:23:21:690000,6,1,33,23.203125,[ 1.          0.05659903 -1.        ],1,1,1,0.291037836,0,0,0,0.328795716,0.339520633,0.08645728,0.425977913,0.253063353,nan,nan,nan,[ nan  nan  nan],nan,nan,nan,857.2789132,1047.168538,1047.459575,nan,nan
0,162,15:23:22:626000,6,1,152,106.875,[ 1.         -0.25918449  0.08306255],1,nan,nan,nan,0,0,0,0.313885005,0.339219497,0.086272491,0.425491989,0.252947006,nan,nan,nan,[ nan  nan  nan],nan,nan,nan,857.2789132,1048.11036,nan,nan,nan
0,163,15:23:23:578000,6,1,321,225.703125,[-0.09994335  0.43654647  0.39117498],1,1,1,0.415369852,0,0,0,0.353203844,0.339219497,0.086272491,0.425491989,0.252947006,nan,nan,nan,[ nan  nan  nan],nan,nan,nan,857.2789132,1049.052143,1049.467513,nan,nan
0,164,15:23:24:514000,6,1,212,149.0625,[ 0.93926289  0.04677313  0.543851  ],1,1,1,0.289599802,0,0,0,0.352484827,0.339689561,0.086212373,0.425901934,0.253477188,nan,nan,nan,[ nan  nan  nan],nan,nan,nan,857.2789132,1049.993935,1050.283535,nan,nan
0,165,15:23:25:465000,6,1,419,294.609375,[ 0.10789467  0.45484197 -0.67809886],1,1,1,0.259780281,0,0,0,0.321583312,0.339382262,0.086036462,0.425418724,0.2533458,nan,nan,nan,[ nan  nan  nan],nan,nan,nan,857.2789132,1050.935724,1051.195505,nan,nan
0,166,15:23:26:401000,6,1,72,50.625,[ 1.         -0.14960778 -0.85320374],1,1,1,0.309986578,0,0,0,0.286455554,0.338896884,0.085997316,0.4248942,0.252899568,nan,nan,nan,[ nan  nan  nan],nan,nan,nan,857.2789132,1051.877511,1052.187498,nan,nan
0,167,15:23:27:337000,6,1,225,158.203125,[ 0.81146625  0.11513113  0.60098195],1,1,1,0.272167781,0,0,0,0.28064488,0.33872167,0.085765679,0.424487349,0.252955991,nan,nan,nan,[ nan  nan  nan],nan,nan,nan,857.2789132,1052.819306,1053.091474,nan,nan
0,168,15:23:28:289000,6,1,431,303.046875,[ 0.19195726  0.43918129 -0.98229877],1,1,1,0.314277585,0,0,0,0.298810648,0.338320743,0.085661908,0.423982651,0.252658835,nan,nan,nan,[ nan  nan  nan],nan,nan,nan,857.2789132,1053.761165,1054.075442,nan,nan
0,169,15:23:29:225000,6,0,21,14.765625,[ 1.        0.116714 -1.      ],0,0,1,0.62854177,0,0,0,0.404995712,0.338176772,0.085425192,0.423601964,0.25275158,nan,nan,nan,[ nan  nan  nan],nan,nan,nan,857.2789132,1054.70288,1055.331422,nan,nan
0,170,15:23:30:161000,6,1,95,66.796875,[ 1.         -0.25317502 -0.51497544],1,1,1,0.390761063,0,0,0,0.444526806,0.339905135,0.088050525,0.42795566,0.25185461,nan,nan,nan,[ nan  nan  nan],nan,nan,nan,857.2789132,1055.644665,1056.035427,nan,nan
0,171,15:23:31:113000,6,1,378,265.78125,[-0.11745014  0.47867092 -0.15481012],1,1,1,0.248959393,0,0,0,0.422754075,0.340206058,0.087876237,0.428082295,0.252329821,nan,nan,nan,[ nan  nan  nan],nan,nan,nan,857.2789132,1056.586455,1056.835414,nan,nan
0,172,15:23:32:049000,6,1,430,302.34375,[ 0.18472502  0.44064573 -0.94190417],1,1,1,0.235156382,0,0,0,0.291625613,0.339669313,0.087894802,0.427564115,0.251774511,nan,nan,nan,[ nan  nan  nan],nan,nan,nan,857.2789132,1057.528242,1057.763398,nan,nan
0,173,15:23:33:000000,6,1,256,180,[ 0.48131261  0.25704791  0.65606572],1,1,1,0.309341686,0,0,0,0.26448582,0.339058126,0.087998984,0.42705711,0.251059142,nan,nan,nan,[ nan  nan  nan],nan,nan,nan,857.2789132,1058.470033,1058.779374,nan,nan
0,174,15:23:33:936000,6,0,477,335.390625,[ 0.55587987  0.33778403 -1.        ],0,1,0,0.215534809,0,0,0,0.253344293,0.338885356,0.087771882,0.426657238,0.251113474,nan,nan,nan,[ nan  nan  nan],nan,nan,nan,857.2789132,1059.411819,1059.627354,nan,nan
0,175,15:23:34:872000,6,1,326,229.21875,[-0.12383419  0.44407177  0.35222354],1,1,1,0.257730427,0,0,0,0.260868974,0.338172347,0.088015986,0.426188333,0.250156361,nan,nan,nan,[ nan  nan  nan],nan,nan,nan,857.2789132,1060.353608,1060.611339,nan,nan
0,176,15:23:35:824000,6,1,456,320.625,[ 0.38361243  0.39263319 -1.        ],1,1,1,0.235898777,0,0,0,0.236388004,0.337710037,0.087973105,0.425683142,0.249736932,nan,nan,nan,[ nan  nan  nan],nan,nan,nan,857.2789132,1061.29543,1061.531329,nan,nan
0,177,15:23:36:760000,6,1,308,216.5625,[-0.01868286  0.41309748  0.48168233],1,1,1,0.32612625,0,0,0,0.273251818,0.337128259,0.088056436,0.425184695,0.249071822,nan,nan,nan,[ nan  nan  nan],nan,nan,nan,857.2789132,1062.237184,1062.56331,nan,nan
0,178,15:23:37:696000,6,1,58,40.78125,[ 1.         -0.07608966 -1.        ],1,1,1,0.256359392,0,0,0,0.272794806,0.337065747,0.087809813,0.42487556,0.249255934,nan,nan,nan,[ nan  nan  nan],nan,nan,nan,857.2789132,1063.178944,1063.435303,nan,nan
0,179,15:23:38:647000,6,1,410,288.28125,[ 0.04920468  0.46392153 -0.54316189],1,1,1,0.282521394,0,0,0,0.288335679,0.336609779,0.087770111,0.42437989,0.248839668,nan,nan,nan,[ nan  nan  nan],nan,nan,nan,857.2789132,1064.120762,1064.403283,nan,nan
0,180,15:23:39:583000,6,1,280,196.875,[ 0.22808935  0.34201885  0.61587222],1,1,1,0.316694644,0,0,0,0.28519181,0.336305912,0.087616535,0.423922447,0.248689377,nan,nan,nan,[ nan  nan  nan],nan,nan,nan,857.2789132,1065.062551,1065.379245,nan,nan
0,181,15:23:40:535000,6,1,355,249.609375,[-0.17373746  0.47268386  0.08887998],1,1,1,0.262898966,0,0,0,0.287371668,0.336196352,0.08738368,0.423580031,0.248812672,nan,nan,nan,[ nan  nan  nan],nan,nan,nan,857.2789132,1066.004345,1066.267244,nan,nan
0,182,15:23:41:471000,6,1,116,81.5625,[ 1.         -0.30644692 -0.28251544],1,1,1,0.22509585,0,0,0,0.26822982,0.335789144,0.087310751,0.423099894,0.248478393,nan,nan,nan,[ nan  nan  nan],nan,nan,nan,857.2789132,1066.946135,1067.171231,nan,nan
0,183,15:23:42:407000,6,1,200,140.625,[ 1.         -0.01912099  0.47515178],1,1,1,0.33128424,0,0,0,0.273093019,0.335177579,0.087454973,0.422632552,0.247722605,nan,nan,nan,[ nan  nan  nan],nan,nan,nan,857.2789132,1067.887919,1068.219203,nan,nan
0,184,15:23:43:359000,6,1,350,246.09375,[-0.17575682  0.46949094  0.13824748],1,1,1,0.349456946,0,0,0,0.301945679,0.335156187,0.087214856,0.422371043,0.24794133,nan,nan,nan,[ nan  nan  nan],nan,nan,nan,857.2789132,1068.829725,1069.179182,nan,nan
0,185,15:23:44:295000,6,0,294,206.71875,[ 0.0948762   0.38121213  0.55985823],0,0,1,0.423687866,0,0,0,0.368143017,0.335234333,0.086982627,0.42221696,0.248251706,nan,nan,nan,[ nan  nan  nan],nan,nan,nan,857.2789132,1069.771492,1070.19518,nan,nan
0,186,15:23:45:231000,6,1,101,71.015625,[ 1.         -0.27357267 -0.44615261],1,1,1,0.321875157,0,0,0,0.365006656,0.335715059,0.08698936,0.422704419,0.248725698,nan,nan,nan,[ nan  nan  nan],nan,nan,nan,857.2789132,1070.713296,1071.035171,nan,nan
0,187,15:23:46:182000,6,1,503,353.671875,[ 0.7730202   0.24853846 -1.        ],1,1,1,0.300065458,0,0,0,0.348542827,0.335640248,0.08675987,0.422400118,0.248880378,nan,nan,nan,[ nan  nan  nan],nan,nan,nan,857.2789132,1071.655072,1071.955137,nan,nan
0,188,15:23:47:118000,6,1,447,314.296875,[ 0.31246764  0.41164647 -1.        ],1,1,1,0.350272896,0,0,0,0.32407117,0.335448986,0.086565428,0.422014414,0.248883558,nan,nan,nan,[ nan  nan  nan],nan,nan,nan,857.2789132,1072.596854,1072.947127,nan,nan
0,189,15:23:48:070000,6,1,157,110.390625,[ 1.         -0.24004838  0.1304259 ],1,1,1,0.304463663,0,0,0,0.318267339,0.335528258,0.086340429,0.421868687,0.24918783,nan,nan,nan,[ nan  nan  nan],nan,nan,nan,857.2789132,1073.538645,1073.843109,nan,nan
0,190,15:23:49:006000,6,1,94,66.09375,[ 1.         -0.24943901 -0.52674516],1,1,1,0.346640749,0,0,0,0.333792436,0.335363021,0.086140135,0.421503156,0.249222886,nan,nan,nan,[ nan  nan  nan],nan,nan,nan,857.2789132,1074.480434,1074.827075,nan,nan
0,191,15:23:49:942000,6,1,292,205.3125,[ 0.11288167  0.37606958  0.56926185],1,1,1,0.276835973,0,0,0,0.309313462,0.335422692,0.085915844,0.421338536,0.249506847,nan,nan,nan,[ nan  nan  nan],nan,nan,nan,857.2789132,1075.422225,1075.699061,nan,nan
0,192,15:23:50:894000,6,0,471,331.171875,[ 0.50601401  0.35499378 -1.        ],0,0,1,0.455014985,0,0,0,0.359497236,0.33511434,0.085794244,0.420908585,0.249320096,nan,nan,nan,[ nan  nan  nan],nan,nan,nan,857.2789132,1076.364025,1076.81904,nan,nan
0,193,15:23:51:830000,6,1,56,39.375,[ 1.         -0.06536751 -1.        ],1,1,1,0.305259941,0,0,0,0.345703633,0.335742092,0.086005748,0.421747841,0.249736344,nan,nan,nan,[ nan  nan  nan],nan,nan,nan,857.2789132,1077.305798,1077.611058,nan,nan
0,194,15:23:52:766000,6,1,10,7.03125,[ 0.9268115   0.16840058 -1.        ],1,1,1,0.339392137,0,0,0,0.366555688,0.335583331,0.085809539,0.42139287,0.249773793,nan,nan,nan,[ nan  nan  nan],nan,nan,nan,857.2789132,1078.247632,1078.587024,nan,nan
0,195,15:23:53:717000,6,1,392,275.625,[-0.05410679  0.47552228 -0.31554984],1,1,1,0.317640884,0,0,0,0.320764321,0.335603066,0.085587382,0.421190448,0.250015684,nan,nan,nan,[ nan  nan  nan],nan,nan,nan,857.2789132,1079.189371,1079.507012,nan,nan
0,196,15:23:54:653000,6,1,504,354.375,[ 0.78128615  0.24462829 -1.        ],1,1,1,0.319825874,0,0,0,0.325619632,0.335510477,0.085376201,0.420886679,0.250134276,nan,nan,nan,[ nan  nan  nan],nan,nan,nan,857.2789132,1080.131169,1080.450995,nan,nan
0,197,15:23:55:589000,6,1,342,240.46875,[-0.17005262  0.46291356  0.21407524],1,1,1,0.32203082,0,0,0,0.319832526,0.335430044,0.085164376,0.420594419,0.250265668,nan,nan,nan,[ nan  nan  nan],nan,nan,nan,857.2789132,1081.072955,1081.394985,nan,nan
0,198,15:23:56:541000,6,1,211,148.359375,[ 0.94867577  0.04136069  0.53868916],1,1,1,0.308210418,0,0,0,0.316689037,0.33536168,0.084952206,0.420313886,0.250409474,nan,nan,nan,[ nan  nan  nan],nan,nan,nan,857.2789132,1082.014752,1082.322963,nan,nan
0,199,15:23:57:477000,6,1,107,75.234375,[ 1.         -0.29008977 -0.37959278],1,1,1,0.342423582,0,0,0,0.324221607,0.335223857,0.084758283,0.419982139,0.250465574,nan,nan,nan,[ nan  nan  nan],nan,nan,nan,857.2789132,1082.956524,1083.298948,nan,nan
0,200,15:23:58:428000,6,1,371,260.859375,[-0.14179361  0.47833194 -0.07797326],1,1,1,0.320597063,0,0,0,0.323743688,0.335260219,0.084545516,0.419805735,0.250714703,nan,nan,nan,[ nan  nan  nan],nan,nan,nan,857.2789132,1083.898333,1084.21893,nan,nan
0,201,15:23:59:364000,6,1,469,329.765625,[ 0.4894822   0.36045336 -1.        ],1,1,1,0.282806206,0,0,0,0.315275617,0.335186535,0.084339196,0.419525731,0.250847339,nan,nan,nan,[ nan  nan  nan],nan,nan,nan,857.2789132,1084.840098,1085.122905,nan,nan
0,202,15:24:00:300000,6,1,360,253.125,[-0.1677095   0.47518832  0.03812586],1,1,1,0.300994877,0,0,0,0.301466049,0.334924633,0.08420917,0.419133803,0.250715463,nan,nan,nan,[ nan  nan  nan],nan,nan,nan,857.2789132,1085.781903,1086.082898,nan,nan
0,203,15:24:01:252000,6,1,5,3.515625,[ 0.88714031  0.19065985 -1.        ],1,1,1,0.287175616,0,0,0,0.290325567,0.334755828,0.08403335,0.418789178,0.250722479,nan,nan,nan,[ nan  nan  nan],nan,nan,nan,857.2789132,1086.723689,1087.010864,nan,nan
0,204,15:24:02:188000,6,1,377,265.078125,[-0.12125986  0.47870083 -0.1436959 ],1,1,1,0.249378487,0,0,0,0.279182993,0.334520283,0.08389158,0.418411863,0.250628702,nan,nan,nan,[ nan  nan  nan],nan,nan,nan,857.2789132,1087.665476,1087.914855,nan,nan
0,205,15:24:03:124000,6,1,473,332.578125,[ 0.52259481  0.34939617 -1.        ],1,1,1,0.275595797,0,0,0,0.270716633,0.334100865,0.083896736,0.417997601,0.250204129,nan,nan,nan,[ nan  nan  nan],nan,nan,nan,857.2789132,1088.607249,1088.882844,nan,nan
0,206,15:24:04:076000,6,1,249,175.078125,[ 0.55727555  0.22802627  0.65408488],1,1,1,0.261776251,0,0,0,0.262250178,0.333814075,0.083790545,0.417604621,0.25002353,nan,nan,nan,[ nan  nan  nan],nan,nan,nan,857.2789132,1089.549051,1089.810827,nan,nan
0,207,15:24:05:012000,6,1,58,40.78125,[ 1.         -0.07608966 -1.        ],1,1,1,0.215971009,0,0,0,0.251114352,0.333462671,0.083736481,0.417199153,0.24972619,nan,nan,nan,[ nan  nan  nan],nan,nan,nan,857.2789132,1090.490841,1090.706812,nan,nan
0,208,15:24:05:963000,6,1,188,132.1875,[ 1.         -0.08573935  0.39280429],1,1,1,0.242099654,0,1,0,0.239948971,0.332892323,0.0839312,0.416823523,0.248961124,nan,nan,nan,[ nan  nan  nan],nan,nan,nan,857.2789132,1091.432688,1091.674787,nan,nan
0,209,15:24:11:720000,6,1,293,206.015625,[ 0.10383026  0.3786596   0.56461706],1,1,1,0.212357964,1,0,0,0.223476209,0.332453712,0.083964549,0.416418261,0.248489162,nan,-110.1274887,285,[ 0.17873435  0.35687868  0.59852701],nan,-5.888136307,2.76732511,857.2789132,1092.374417,1092.586775,1094.199591,1096.974948
0,210,15:24:12:656000,6,1,423,297.421875,[ 0.13522958  0.45008089 -0.75003992],1,1,1,0.653169946,0,0,0,0.369209188,0.331876328,0.084173386,0.416049715,0.247702942,nan,nan,nan,[ nan  nan  nan],nan,nan,nan,857.2789132,1098.133496,1098.786666,nan,nan
0,211,15:24:13:592000,6,1,25,17.578125,[ 1.          0.09706829 -1.        ],1,1,1,0.591310846,0,0,0,0.485612919,0.333413618,0.086849392,0.42026301,0.246564226,nan,nan,nan,[ nan  nan  nan],nan,nan,nan,857.2789132,1099.075323,1099.666633,nan,nan
0,212,15:24:14:543000,6,1,72,50.625,[ 1.         -0.14960778 -0.85320374],1,1,1,0.505546578,0,0,1,0.583342456,0.3346417,0.088442691,0.423084391,0.24619901,nan,nan,nan,[ nan  nan  nan],nan,nan,nan,857.2789132,1100.017071,1100.522618,nan,nan
0,213,15:24:46:211000,6,1,482,338.90625,[ 0.59765563  0.32248081 -1.        ],1,1,1,0.691730567,1,0,0,0.596195997,0.335451676,0.089010172,0.424461848,0.246441504,nan,-113.4640224,289,[ 0.14059213  0.36807325  0.58250527],nan,-135.4422276,28.68733008,857.2789132,1100.958874,1101.650604,1102.784062,1131.479412
0,214,15:24:47:147000,6,1,367,258.046875,[-0.15309091  0.4775609  -0.03508163],1,1,1,0.580415262,0,0,0,0.592564136,0.337132237,0.092094316,0.429226552,0.245037921,nan,nan,nan,[ nan  nan  nan],nan,nan,nan,857.2789132,1132.629642,1133.210058,nan,nan
0,215,15:24:48:099000,6,1,186,130.78125,[ 1.         -0.09673867  0.37788139],1,1,1,0.358665035,0,0,0,0.543603621,0.338274411,0.093370827,0.431645237,0.244903584,nan,nan,nan,[ nan  nan  nan],nan,nan,nan,857.2789132,1133.571376,1133.930041,nan,nan
0,216,15:24:49:035000,6,1,478,336.09375,[ 0.5642225   0.33479366 -1.        ],1,1,1,0.312820735,0,0,0,0.417300344,0.338369694,0.093162794,0.431532488,0.245206899,nan,nan,nan,[ nan  nan  nan],nan,nan,nan,857.2789132,1134.513203,1134.826023,nan,nan
0,217,15:24:49:986000,6,0,274,192.65625,[ 0.28934405  0.32290089  0.63267027],0,0,1,0.515001847,0,0,0,0.395495873,0.338250861,0.092962139,0.431213001,0.245288722,nan,nan,nan,[ nan  nan  nan],nan,nan,nan,857.2789132,1135.454993,1135.969995,nan,nan
0,218,15:24:50:922000,6,1,97,68.203125,[ 1.         -0.26036974 -0.49171883],1,1,1,0.677189437,0,0,0,0.501670673,0.339069153,0.093519594,0.432588747,0.245549559,nan,nan,nan,[ nan  nan  nan],nan,nan,nan,857.2789132,1136.396781,1137.073971,nan,nan
0,219,15:24:51:858000,6,0,160,112.5,[ 1.         -0.22750142  0.15829752],0,nan,nan,nan,0,0,0,0.596095642,0.340627311,0.096073033,0.436700344,0.244554278,nan,nan,nan,[ nan  nan  nan],nan,nan,nan,857.2789132,1137.338568,nan,nan,nan
0,220,15:24:52:810000,6,1,464,326.25,[ 0.44840488  0.37350356 -1.        ],1,1,1,0.729476093,0,0,0,0.703332765,0.340627311,0.096073033,0.436700344,0.244554278,nan,nan,nan,[ nan  nan  nan],nan,nan,nan,857.2789132,1138.280437,1139.009913,nan,nan
0,221,15:24:53:746000,6,1,365,256.640625,[-0.15796203  0.47701659 -0.01391969],1,1,1,0.779793008,0,0,0,0.75463455,0.342411021,0.099388631,0.441799652,0.24302239,nan,nan,nan,[ nan  nan  nan],nan,nan,nan,857.2789132,1139.222144,1140.001937,nan,nan
0,222,15:24:54:682000,6,1,504,354.375,[ 0.78128615  0.24462829 -1.        ],1,nan,nan,nan,0,0,0,0.75463455,0.344408199,0.103453059,0.447861258,0.24095514,nan,nan,nan,[ nan  nan  nan],nan,nan,nan,857.2789132,1140.163936,nan,nan,nan
0,223,15:24:55:634000,6,1,247,173.671875,[ 0.57894763  0.21939267  0.65238059],1,1,1,0.784141605,0,0,0,0.781967306,0.344408199,0.103453059,0.447861258,0.24095514,nan,nan,nan,[ nan  nan  nan],nan,nan,nan,857.2789132,1141.105723,1141.889865,nan,nan
0,224,15:24:56:570000,6,1,448,315,[ 0.32026744  0.40966225 -1.        ],1,nan,nan,nan,0,0,0,0.784141605,0.346406987,0.107372372,0.45377936,0.239034615,nan,nan,nan,[ nan  nan  nan],nan,nan,nan,857.2789132,1142.047512,nan,nan,nan
0,225,15:24:57:521000,6,1,319,224.296875,[-0.08918918  0.43330867  0.4061371 ],1,nan,nan,nan,0,0,0,0.784141605,0.346406987,0.107372372,0.45377936,0.239034615,nan,nan,nan,[ nan  nan  nan],nan,nan,nan,857.2789132,1142.989304,nan,nan,nan
0,226,15:24:58:457000,6,1,161,113.203125,[ 1.         -0.22315835  0.16749055],1,1,1,0.518766849,0,0,0,0.518766849,0.346406987,0.107372372,0.45377936,0.239034615,nan,nan,nan,[ nan  nan  nan],nan,nan,nan,857.2789132,1143.931091,1144.449858,nan,nan
0,227,15:24:59:393000,6,1,472,331.875,[ 0.51429865  0.35221228 -1.        ],1,1,1,0.488944762,0,0,0,0.503855806,0.347186896,0.107751921,0.454938817,0.239434975,nan,nan,nan,[ nan  nan  nan],nan,nan,nan,857.2789132,1144.8729,1145.361845,nan,nan
0,228,15:25:00:345000,6,1,185,130.078125,[ 1.         -0.10221447  0.37029995],1,nan,nan,nan,0,0,0,0.503855806,0.347825445,0.107927238,0.455752683,0.239898208,nan,nan,nan,[ nan  nan  nan],nan,nan,nan,857.2789132,1145.814739,nan,nan,nan
0,229,15:25:01:281000,6,1,54,37.96875,[ 1.         -0.05462921 -1.        ],1,1,1,0.709317966,0,0,0,0.599131364,0.347825445,0.107927238,0.455752683,0.239898208,nan,nan,nan,[ nan  nan  nan],nan,nan,nan,857.2789132,1146.756454,1147.465772,nan,nan
0,230,15:25:02:217000,6,1,396,278.4375,[-0.03301537  0.47368488 -0.36352378],1,1,1,0.575552063,0,0,0,0.642435015,0.349446488,0.110360415,0.459806903,0.239086073,nan,nan,nan,[ nan  nan  nan],nan,nan,nan,857.2789132,1147.69824,1148.273793,nan,nan
0,231,15:25:03:168000,6,1,436,306.5625,[ 0.22868171  0.43141373 -1.        ],1,1,1,0.673731771,0,0,1,0.652867267,0.350455888,0.111140725,0.461596613,0.239315163,nan,nan,nan,[ nan  nan  nan],nan,nan,nan,857.2789132,1148.640034,1149.313766,nan,nan
0,232,15:25:15:071000,6,1,72,50.625,[ 1.         -0.14960778 -0.85320374],1,1,1,0.379939605,1,0,0,0.54307448,0.351892669,0.112959171,0.464851841,0.238933498,nan,38.79223278,73,[ 1.         -0.15467886 -0.83091687],nan,0.582767222,8.918121616,857.2789132,1149.581821,1149.961761,1151.406996,1160.333177
0,233,15:25:16:007000,6,1,203,142.734375,[ 1.         -0.00249325  0.49367467],1,1,1,0.654174345,0,0,0,0.569281907,0.352016771,0.112724356,0.464741127,0.239292415,nan,nan,nan,[ nan  nan  nan],nan,nan,nan,857.2789132,1161.483364,1162.137539,nan,nan
0,234,15:25:16:943000,6,0,323,227.109375,[-0.11001989  0.43965345  0.37585536],0,0,1,0.504380528,0,0,0,0.512831493,0.353347862,0.114241983,0.467589845,0.239105878,nan,nan,nan,[ nan  nan  nan],nan,nan,nan,857.2789132,1162.425151,1162.929532,nan,nan
0,235,15:25:17:895000,6,1,103,72.421875,[ 1.         -0.27953747 -0.42375884],1,1,1,0.346567479,0,0,0,0.501707451,0.354010286,0.114427258,0.468437544,0.239583027,nan,nan,nan,[ nan  nan  nan],nan,nan,nan,857.2789132,1163.366932,1163.7135,nan,nan
0,236,15:25:18:831000,6,1,49,34.453125,[ 1.         -0.02778543 -1.        ],1,1,1,0.332753634,0,0,0,0.394567214,0.353977784,0.114178198,0.468155982,0.239799586,nan,nan,nan,[ nan  nan  nan],nan,nan,nan,857.2789132,1164.308741,1164.641495,nan,nan
0,237,15:25:19:782000,6,1,126,88.59375,[ 1.         -0.31141175 -0.17740843],1,1,1,0.318905578,0,0,0,0.332742231,0.353885505,0.113938272,0.467823777,0.239947233,nan,nan,nan,[ nan  nan  nan],nan,nan,nan,857.2789132,1165.250576,1165.569482,nan,nan
0,238,15:25:20:718000,6,1,67,47.109375,[ 1.         -0.12380467 -1.        ],1,1,1,0.137181945,0,0,0,0.262947052,0.353734077,0.113714577,0.467448654,0.2400195,nan,nan,nan,[ nan  nan  nan],nan,nan,nan,857.2789132,1166.192294,1166.329476,nan,nan
0,239,15:25:21:654000,6,1,258,181.40625,[ 0.45964229  0.26499291  0.65549006],1,1,1,0.259348073,0,0,0,0.238478532,0.352800663,0.114352654,0.467153317,0.238448008,nan,nan,nan,[ nan  nan  nan],nan,nan,nan,857.2789132,1167.134099,1167.393448,nan,nan
0,240,15:25:22:606000,6,1,427,300.234375,[ 0.16326517  0.44486322 -0.84020871],1,1,1,0.285554549,0,1,0,0.227361522,0.352399579,0.114270419,0.466669997,0.23812916,nan,nan,nan,[ nan  nan  nan],nan,nan,nan,857.2789132,1168.075886,1168.361441,nan,nan
0,241,15:25:29:548000,6,1,350,246.09375,[-0.17575682  0.46949094  0.13824748],1,1,1,0.223746767,1,0,0,0.256216463,0.352113916,0.114109333,0.466223249,0.238004583,nan,-153.1836532,346,[-0.17431756  0.46643129  0.17667017],nan,-2.910096844,3.959217897,857.2789132,1169.01766,1169.241407,1170.842872,1174.81004
0,242,15:25:30:484000,6,1,172,120.9375,[ 1.         -0.17098406  0.26502468],1,1,1,0.705099659,0,0,0,0.404800325,0.351567673,0.11417247,0.465740143,0.237395203,nan,nan,nan,[ nan  nan  nan],nan,nan,nan,857.2789132,1175.960232,1176.665332,nan,nan
0,243,15:25:31:436000,6,1,504,354.375,[ 0.78128615  0.24462829 -1.        ],1,1,1,0.427234768,0,0,0,0.452027065,0.35306569,0.116221647,0.469287337,0.236844043,nan,nan,nan,[ nan  nan  nan],nan,nan,nan,857.2789132,1176.902032,1177.329267,nan,nan
0,244,15:25:32:372000,6,0,81,56.953125,[ 1.         -0.19380425 -0.69421917],0,0,1,0.493426785,0,0,0,0.541920404,0.353378639,0.116075798,0.469454437,0.237302841,nan,nan,nan,[ nan  nan  nan],nan,nan,nan,857.2789132,1177.843825,1178.337252,nan,nan
0,245,15:25:33:308000,6,1,435,305.859375,[ 0.22126383  0.43302706 -1.        ],1,1,1,0.519635257,0,0,0,0.480098937,0.353967077,0.11618538,0.470152457,0.237781697,nan,nan,nan,[ nan  nan  nan],nan,nan,nan,857.2789132,1178.785603,1179.305239,nan,nan
0,246,15:25:34:259000,6,1,180,126.5625,[ 1.         -0.12927862  0.33123896],1,1,1,0.545818071,0,0,0,0.519626704,0.354660249,0.116434176,0.471094425,0.238226074,nan,nan,nan,[ nan  nan  nan],nan,nan,nan,857.2789132,1179.727396,1180.273214,nan,nan
0,247,15:25:35:195000,6,1,107,75.234375,[ 1.         -0.29008977 -0.37959278],1,1,1,0.628006927,0,0,1,0.564486752,0.35545674,0.116841992,0.472298733,0.238614748,nan,nan,nan,[ nan  nan  nan],nan,nan,nan,857.2789132,1180.669177,1181.297184,nan,nan
0,248,15:27:23:397000,6,1,215,151.171875,[ 0.91063986  0.06289474  0.55869515],1,1,1,0.654202285,1,0,0,0.609342428,0.356587654,0.11790825,0.474495904,0.238679404,nan,-15.37625125,150,[ 1.         -0.26615253  0.06382271],nan,-45.79562375,105.2140087,857.2789132,1181.610969,1182.265171,1183.436146,1288.658127
0,249,15:27:24:333000,6,1,465,326.953125,[ 0.45658868  0.37096153 -1.        ],1,nan,nan,nan,0,0,0,0.641104606,0.357817466,0.119203211,0.477020677,0.238614256,nan,nan,nan,[ nan  nan  nan],nan,nan,nan,857.2789132,1289.808352,nan,nan,nan
0,250,15:27:25:285000,6,1,94,66.09375,[ 1.         -0.24943901 -0.52674516],1,1,1,0.58508773,0,0,0,0.619645008,0.357817466,0.119203211,0.477020677,0.238614256,nan,nan,nan,[ nan  nan  nan],nan,nan,nan,857.2789132,1290.750117,1291.335205,nan,nan
0,251,15:27:26:221000,6,1,384,270,[-0.09247501  0.47794532 -0.22247927],1,1,1,0.323334573,0,0,0,0.454211151,0.358752735,0.119844126,0.478596861,0.238908609,nan,nan,nan,[ nan  nan  nan],nan,nan,nan,857.2789132,1291.691906,1292.01524,nan,nan
0,252,15:27:27:157000,6,1,124,87.1875,[ 1.         -0.31157719 -0.19822652],1,1,1,0.253535213,0,0,0,0.387319172,0.358607579,0.119619695,0.478227274,0.238987884,nan,nan,nan,[ nan  nan  nan],nan,nan,nan,857.2789132,1292.633697,1292.887232,nan,nan
0,253,15:27:28:108000,6,1,295,207.421875,[ 0.08602229  0.38372732  0.55498608],1,1,1,0.28771388,0,0,0,0.288194555,0.358178712,0.119563147,0.477741858,0.238615565,nan,nan,nan,[ nan  nan  nan],nan,nan,nan,857.2789132,1293.575491,1293.863205,nan,nan
0,254,15:27:29:044000,6,1,101,71.015625,[ 1.         -0.27357267 -0.44615261],1,1,1,0.433904061,0,0,0,0.325051052,0.357892269,0.119404091,0.47729636,0.238488179,nan,nan,nan,[ nan  nan  nan],nan,nan,nan,857.2789132,1294.517282,1294.951186,nan,nan
0,255,15:27:29:980000,6,1,489,343.828125,[ 0.65628486  0.29957244 -1.        ],1,1,1,0.292100681,0,0,0,0.337906207,0.358200009,0.119259851,0.47745986,0.238940158,nan,nan,nan,[ nan  nan  nan],nan,nan,nan,857.2789132,1295.45906,1295.751161,nan,nan
0,256,15:27:30:932000,6,1,372,261.5625,[-0.13866002  0.47845887 -0.08881238],1,1,1,0.118239475,0,0,0,0.281414739,0.35793348,0.119092855,0.477026334,0.238840625,nan,nan,nan,[ nan  nan  nan],nan,nan,nan,857.2789132,1296.400927,1296.519166,nan,nan
0,257,15:27:31:868000,6,1,48,33.75,[ 1.         -0.02242733 -1.        ],1,nan,nan,nan,0,0,0,0.205170078,0.356970853,0.119816346,0.4767872,0.237154507,nan,nan,nan,[ nan  nan  nan],nan,nan,nan,857.2789132,1297.342637,nan,nan,nan
0,258,15:27:32:819000,6,1,376,264.375,[-0.12496282  0.47870467 -0.13262763],1,1,1,0.106706413,0,0,0,0.112472944,0.356970853,0.119816346,0.4767872,0.237154507,nan,nan,nan,[ nan  nan  nan],nan,nan,nan,857.2789132,1298.284432,1298.391139,nan,nan
0,259,15:27:33:755000,6,1,232,163.125,[ 0.73915824  0.15004662  0.62371202],1,1,1,0.260878763,0,0,0,0.183792588,0.355969796,0.120615339,0.476585135,0.235354456,nan,nan,nan,[ nan  nan  nan],nan,nan,nan,857.2789132,1299.22622,1299.487099,nan,nan
0,260,15:27:34:691000,6,1,66,46.40625,[ 1.         -0.11856871 -1.        ],1,1,1,0.311079358,0,1,0,0.226221511,0.355590947,0.120523779,0.476114726,0.235067168,nan,nan,nan,[ nan  nan  nan],nan,nan,nan,857.2789132,1300.16801,1300.479089,nan,nan
0,261,15:27:39:871000,6,1,146,102.65625,[ 1.         -0.27879258  0.02488132],1,1,1,0.361267408,1,0,0,0.311075176,0.355414314,0.120316954,0.475731268,0.235097359,nan,-14.72902445,149,[ 1.         -0.26947852  0.05414366],nan,2.072774451,2.183928009,857.2789132,1301.109801,1301.471068,1302.943307,1305.135316
0,262,15:27:40:807000,6,1,86,60.46875,[ 1.         -0.21659106 -0.6256178 ],1,1,1,0.537504048,0,0,0,0.403283605,0.355437448,0.1200795,0.475516948,0.235357948,nan,nan,nan,[ nan  nan  nan],nan,nan,nan,857.2789132,1306.285473,1306.822977,nan,nan
0,263,15:27:41:758000,6,1,243,170.859375,[ 0.62215101  0.20168048  0.64746348],1,1,1,0.387699968,0,0,0,0.428823808,0.356154246,0.120384008,0.476538254,0.235770238,nan,nan,nan,[ nan  nan  nan],nan,nan,nan,857.2789132,1307.227255,1307.614955,nan,nan
0,264,15:27:42:694000,6,1,419,294.609375,[ 0.10789467  0.45484197 -0.67809886],1,1,1,0.325893896,0,0,0,0.417032637,0.356277955,0.120163905,0.476441859,0.23611405,nan,nan,nan,[ nan  nan  nan],nan,nan,nan,857.2789132,1308.169048,1308.494942,nan,nan
0,265,15:27:43:646000,6,1,156,109.6875,[ 1.         -0.24406061  0.12104147],1,1,1,0.256087124,0,0,0,0.323226996,0.356159267,0.119943955,0.476103222,0.236215312,nan,nan,nan,[ nan  nan  nan],nan,nan,nan,857.2789132,1309.110843,1309.36693,nan,nan
0,266,15:27:44:582000,6,1,76,53.4375,[ 1.         -0.16967451 -0.77336583],1,1,1,0.322291114,0,0,0,0.301424045,0.355769881,0.119872385,0.475642266,0.235897497,nan,nan,nan,[ nan  nan  nan],nan,nan,nan,857.2789132,1310.052626,1310.374917,nan,nan
0,267,15:27:45:518000,6,1,304,213.75,[ 0.01130928  0.40470892  0.50616037],1,1,1,0.324452156,0,0,0,0.300943465,0.355640119,0.119657932,0.475298051,0.235982186,nan,nan,nan,[ nan  nan  nan],nan,nan,nan,857.2789132,1310.994424,1311.318876,nan,nan
0,268,15:27:46:470000,6,1,30,21.09375,[ 1.          0.07194566 -1.        ],1,1,1,0.302677525,0,0,0,0.316473598,0.355519702,0.119442371,0.474962072,0.236077331,nan,nan,nan,[ nan  nan  nan],nan,nan,nan,857.2789132,1311.936203,1312.238881,nan,nan
0,269,15:27:47:406000,6,1,485,341.015625,[ 0.62277456  0.31287562 -1.        ],1,1,1,0.328855207,0,0,0,0.318661629,0.355316463,0.119257315,0.474573777,0.236059148,nan,nan,nan,[ nan  nan  nan],nan,nan,nan,857.2789132,1312.877993,1313.206848,nan,nan
0,270,15:27:48:342000,6,1,59,41.484375,[ 1.         -0.08144099 -1.        ],1,1,1,0.267063105,0,0,0,0.299531945,0.355215078,0.119039859,0.474254937,0.23617522,nan,nan,nan,[ nan  nan  nan],nan,nan,nan,857.2789132,1313.819784,1314.086847,nan,nan
0,271,15:27:49:293000,6,1,491,345.234375,[ 0.67303348  0.29270771 -1.        ],1,1,1,0.349255096,0,0,0,0.315057803,0.35487862,0.118936741,0.473815361,0.235941879,nan,nan,nan,[ nan  nan  nan],nan,nan,nan,857.2789132,1314.761566,1315.110821,nan,nan
0,272,15:27:50:229000,6,1,450,316.40625,[ 0.33594973  0.40559833 -1.        ],1,1,1,0.247451796,0,0,0,0.287923332,0.354857238,0.118710915,0.473568153,0.236146324,nan,nan,nan,[ nan  nan  nan],nan,nan,nan,857.2789132,1315.703359,1315.95081,nan,nan
0,273,15:27:51:181000,6,0,278,195.46875,[ 0.24828552  0.33580281  0.62196257],0,0,1,0.545650719,0,0,0,0.38078587,0.354450399,0.118669426,0.473119825,0.235780974,nan,nan,nan,[ nan  nan  nan],nan,nan,nan,857.2789132,1316.645151,1317.190802,nan,nan
0,274,15:27:52:117000,6,1,150,105.46875,[ 1.         -0.26615253  0.06382271],1,1,1,0.347845858,0,0,0,0.380316124,0.35517191,0.119024047,0.474195957,0.236147863,nan,nan,nan,[ nan  nan  nan],nan,nan,nan,857.2789132,1317.586939,1317.934785,nan,nan
0,275,15:27:53:053000,6,1,25,17.578125,[ 1.          0.09706829 -1.        ],1,1,1,0.262030273,0,0,0,0.385175616,0.355144369,0.118800953,0.473945322,0.236343415,nan,nan,nan,[ nan  nan  nan],nan,nan,nan,857.2789132,1318.528728,1318.790758,nan,nan
0,276,15:27:54:004000,6,1,102,71.71875,[ 1.         -0.27661034 -0.43492695],1,1,1,0.152241097,0,0,0,0.254039076,0.354795627,0.118714605,0.473510232,0.236081021,nan,nan,nan,[ nan  nan  nan],nan,nan,nan,857.2789132,1319.470518,1319.622759,nan,nan
0,277,15:27:54:940000,6,1,146,102.65625,[ 1.         -0.27879258  0.02488132],1,1,1,0.154462294,0,1,0,0.189577888,0.354039826,0.119134758,0.473174584,0.234905068,nan,nan,nan,[ nan  nan  nan],nan,nan,nan,857.2789132,1320.412267,1320.566729,nan,nan
0,278,15:28:02:163000,6,1,201,141.328125,[ 1.         -0.01357126  0.48142235],1,1,1,0.180616883,1,0,0,0.162440091,0.353297902,0.119531791,0.472829693,0.233766111,nan,-22.21397323,160,[ 1.         -0.22750142  0.15829752],nan,-29.11415177,4.22591294,857.2789132,1321.354093,1321.53471,1323.179295,1327.413215
0,279,15:28:03:099000,6,1,34,23.90625,[ 1.          0.05144197 -1.        ],1,1,1,0.46687762,0,0,0,0.267318932,0.352658343,0.119770455,0.472428798,0.232887888,nan,nan,nan,[ nan  nan  nan],nan,nan,nan,857.2789132,1328.571696,1329.038573,nan,nan
0,280,15:28:04:035000,6,0,418,293.90625,[ 0.10117589  0.45596175 -0.66167931],0,1,0,0.309063716,0,0,0,0.31885274,0.353079816,0.119749702,0.472829518,0.233330114,nan,nan,nan,[ nan  nan  nan],nan,nan,nan,857.2789132,1329.51349,1329.822554,nan,nan
0,281,15:28:04:987000,6,1,158,111.09375,[ 1.         -0.23594923  0.13976411],1,1,1,0.247271329,0,0,0,0.341070888,0.352917992,0.119559054,0.472477046,0.233358939,nan,nan,nan,[ nan  nan  nan],nan,nan,nan,857.2789132,1330.455275,1330.702546,nan,nan
0,282,15:28:05:923000,6,0,292,205.3125,[ 0.11288167  0.37606958  0.56926185],0,0,1,0.481443838,0,0,0,0.345926294,0.352531008,0.119510421,0.47204143,0.233020587,nan,nan,nan,[ nan  nan  nan],nan,nan,nan,857.2789132,1331.397064,1331.878508,nan,nan
0,283,15:28:06:874000,6,1,16,11.25,[ 0.97341943  0.14065211 -1.        ],1,1,1,0.355654117,0,0,0,0.361456428,0.353001493,0.119545155,0.472546648,0.233456338,nan,nan,nan,[ nan  nan  nan],nan,nan,nan,857.2789132,1332.338852,1332.694506,nan,nan
0,284,15:28:07:810000,6,0,330,232.03125,[-0.13976633  0.44951833  0.31954025],0,0,1,0.437856657,0,0,0,0.424984871,0.353011139,0.119327709,0.472338848,0.233683429,nan,nan,nan,[ nan  nan  nan],nan,nan,nan,857.2789132,1333.280641,1333.718498,nan,nan
0,285,15:28:08:746000,6,1,272,191.25,[ 0.3101667   0.31621412  0.63728143],1,1,1,0.336023992,0,0,0,0.376511589,0.35331855,0.119220381,0.472538931,0.234098169,nan,nan,nan,[ nan  nan  nan],nan,nan,nan,857.2789132,1334.222467,1334.558491,nan,nan
0,286,15:28:09:698000,6,1,60,42.1875,[ 1.         -0.08678377 -1.        ],1,1,1,0.474202068,0,0,0,0.416027572,0.353256115,0.119009508,0.472265623,0.234246607,nan,nan,nan,[ nan  nan  nan],nan,nan,nan,857.2789132,1335.164248,1335.63845,nan,nan
0,287,15:28:10:634000,6,1,500,351.5625,[ 0.74814593  0.26005829 -1.        ],1,1,1,0.308441347,0,0,0,0.372889136,0.353691172,0.119015734,0.472706907,0.234675438,nan,nan,nan,[ nan  nan  nan],nan,nan,nan,857.2789132,1336.106008,1336.41445,nan,nan
0,288,15:28:11:570000,6,1,37,26.015625,[ 1.          0.03585655 -1.        ],1,1,1,0.358643083,0,0,0,0.380428833,0.353528987,0.118833025,0.472362012,0.234695961,nan,nan,nan,[ nan  nan  nan],nan,nan,nan,857.2789132,1337.047797,1337.40644,nan,nan
0,289,15:28:12:522000,6,0,239,168.046875,[ 0.66506983  0.18338886  0.64054927],0,0,1,0.560830752,0,0,0,0.409305061,0.353547251,0.118621026,0.472168277,0.234926225,nan,nan,nan,[ nan  nan  nan],nan,nan,nan,857.2789132,1337.989586,1338.550416,nan,nan
0,290,15:28:13:458000,6,1,165,116.015625,[ 1.         -0.20505638  0.20374544],1,1,1,0.475012886,0,0,0,0.464828907,0.354284915,0.119051395,0.47333631,0.23523352,nan,nan,nan,[ nan  nan  nan],nan,nan,nan,857.2789132,1338.931379,1339.406392,nan,nan
0,291,15:28:14:409000,6,0,19,13.359375,[ 0.99625917  0.12637453 -1.        ],0,0,1,0.509220919,0,0,0,0.515021519,0.354713028,0.119056612,0.473769641,0.235656416,nan,nan,nan,[ nan  nan  nan],nan,nan,nan,857.2789132,1339.873164,1340.382385,nan,nan
0,292,15:28:15:345000,6,1,290,203.90625,[ 0.13126538  0.37077654  0.57820662],1,1,1,0.439436955,0,0,0,0.47455692,0.355258993,0.119199195,0.474458188,0.236059797,nan,nan,nan,[ nan  nan  nan],nan,nan,nan,857.2789132,1340.814954,1341.254391,nan,nan
0,293,15:28:16:281000,6,1,226,158.90625,[ 0.80126593  0.12020899  0.60458277],1,1,1,0.433603853,0,0,0,0.460753909,0.355555394,0.119093581,0.474648975,0.236461813,nan,nan,nan,[ nan  nan  nan],nan,nan,nan,857.2789132,1341.756739,1342.190343,nan,nan
0,294,15:28:17:233000,6,1,499,350.859375,[ 0.73983189  0.26382776 -1.        ],1,1,1,0.363738636,0,0,0,0.412259815,0.355829248,0.118974006,0.474803254,0.236855243,nan,nan,nan,[ nan  nan  nan],nan,nan,nan,857.2789132,1342.698591,1343.06233,nan,nan
0,295,15:28:18:169000,6,1,335,235.546875,[-0.15559599  0.45562772  0.27689323],1,1,1,0.301977324,0,0,0,0.366439938,0.355856903,0.118766745,0.474623648,0.237090159,nan,nan,nan,[ nan  nan  nan],nan,nan,nan,857.2789132,1343.640321,1343.942298,nan,nan
0,296,15:28:19:105000,6,1,472,331.875,[ 0.51429865  0.35221228 -1.        ],1,1,1,0.28018017,0,0,0,0.31529871,0.35566917,0.118602155,0.474271325,0.237067015,nan,nan,nan,[ nan  nan  nan],nan,nan,nan,857.2789132,1344.582108,1344.862288,nan,nan
0,297,15:28:20:056000,6,1,56,39.375,[ 1.         -0.06536751 -1.        ],1,1,1,0.274385842,0,0,0,0.285514446,0.355407055,0.118479312,0.473886367,0.236927743,nan,nan,nan,[ nan  nan  nan],nan,nan,nan,857.2789132,1345.523896,1345.798282,nan,nan
0,298,15:28:20:992000,6,1,491,345.234375,[ 0.67303348  0.29270771 -1.        ],1,1,1,0.316570342,0,0,0,0.290378785,0.355126705,0.118369806,0.473496511,0.236756899,nan,nan,nan,[ nan  nan  nan],nan,nan,nan,857.2789132,1346.465689,1346.78226,nan,nan
0,299,15:28:21:928000,6,1,64,45,[ 1.         -0.10803687 -1.        ],1,1,1,0.366774073,0,0,0,0.319243419,0.354993752,0.118187158,0.473180909,0.236806594,nan,nan,nan,[ nan  nan  nan],nan,nan,nan,857.2789132,1347.407476,1347.77425,nan,nan
0,300,15:28:22:880000,6,1,336,236.25,[-0.15821161  0.45675811  0.26813527],1,1,1,0.320954006,0,0,0,0.33476614,0.355034234,0.117985926,0.47302016,0.237048308,nan,nan,nan,[ nan  nan  nan],nan,nan,nan,857.2789132,1348.349267,1348.670221,nan,nan
0,301,15:28:23:816000,6,1,129,90.703125,[ 1.         -0.31007049 -0.146368  ],1,1,1,0.299157992,0,0,0,0.328962023,0.354917521,0.117800548,0.472718069,0.237116973,nan,nan,nan,[ nan  nan  nan],nan,nan,nan,857.2789132,1349.291055,1349.590213,nan,nan
0,302,15:28:24:768000,6,1,452,317.8125,[ 0.35173807  0.40140621 -1.        ],1,1,1,0.293301513,0,0,0,0.30447117,0.354727215,0.117644306,0.472371521,0.23708291,nan,nan,nan,[ nan  nan  nan],nan,nan,nan,857.2789132,1350.232898,1350.5262,nan,nan
0,303,15:28:25:704000,6,1,19,13.359375,[ 0.99625917  0.12637453 -1.        ],1,1,1,0.303547073,0,0,0,0.298668859,0.354518284,0.117498499,0.472016783,0.237019785,nan,nan,nan,[ nan  nan  nan],nan,nan,nan,857.2789132,1351.174633,1351.47818,nan,nan
0,304,15:28:26:640000,6,1,305,214.453125,[ 0.00361193  0.40685925  0.50019691],1,1,1,0.313747873,0,0,0,0.303532153,0.354345501,0.117336587,0.471682088,0.237008913,nan,nan,nan,[ nan  nan  nan],nan,nan,nan,857.2789132,1352.116421,1352.430168,nan,nan
0,305,15:28:27:591000,6,1,73,51.328125,[ 1.         -0.15467886 -0.83091687],1,1,1,0.339952069,0,0,0,0.319082339,0.354208346,0.117161901,0.471370247,0.237046446,nan,nan,nan,[ nan  nan  nan],nan,nan,nan,857.2789132,1353.058197,1353.398149,nan,nan
0,306,15:28:28:527000,6,1,206,144.84375,[ 0.99472346  0.01405192  0.51131616],1,1,1,0.326131952,0,0,0,0.326610632,0.354160346,0.116967408,0.471127753,0.237192938,nan,nan,nan,[ nan  nan  nan],nan,nan,nan,857.2789132,1353.999997,1354.326129,nan,nan
0,307,15:28:29:463000,6,1,86,60.46875,[ 1.         -0.21659106 -0.6256178 ],1,1,1,0.360314326,0,0,0,0.342132783,0.354066291,0.116782238,0.470848529,0.237284052,nan,nan,nan,[ nan  nan  nan],nan,nan,nan,857.2789132,1354.941788,1355.302103,nan,nan
0,308,15:28:30:415000,6,1,132,92.8125,[ 1.         -0.30742683 -0.11555536],1,1,1,0.290513541,0,0,0,0.325653273,0.354087187,0.116587345,0.470674532,0.237499842,nan,nan,nan,[ nan  nan  nan],nan,nan,nan,857.2789132,1355.883575,1356.174089,nan,nan
0,309,15:28:31:351000,6,1,465,326.953125,[ 0.45658868  0.37096153 -1.        ],1,1,1,0.396700791,0,0,0,0.349176219,0.353875275,0.116450536,0.470325811,0.237424739,nan,nan,nan,[ nan  nan  nan],nan,nan,nan,857.2789132,1356.825365,1357.222066,nan,nan
0,310,15:28:32:302000,6,1,105,73.828125,[ 1.         -0.28504984 -0.40158079],1,1,1,0.478889362,0,0,0,0.388701231,0.354017552,0.116283051,0.470300603,0.237734501,nan,nan,nan,[ nan  nan  nan],nan,nan,nan,857.2789132,1357.767209,1358.246099,nan,nan
0,311,15:28:33:238000,6,1,48,33.75,[ 1.         -0.02242733 -1.        ],1,1,1,0.433090962,0,0,0,0.436227038,0.354431035,0.116311802,0.470742837,0.238119233,nan,nan,nan,[ nan  nan  nan],nan,nan,nan,857.2789132,1358.708946,1359.142037,nan,nan
0,312,15:28:34:174000,6,1,431,303.046875,[ 0.19195726  0.43918129 -0.98229877],1,1,1,0.339302331,0,0,0,0.417094218,0.354690639,0.116207315,0.470897954,0.238483324,nan,nan,nan,[ nan  nan  nan],nan,nan,nan,857.2789132,1359.650729,1359.990032,nan,nan
0,313,15:28:35:126000,6,1,291,204.609375,[ 0.12202764  0.37344194  0.57379193],1,1,1,0.285501806,0,0,0,0.3526317,0.354640019,0.116019373,0.470659393,0.238620646,nan,nan,nan,[ nan  nan  nan],nan,nan,nan,857.2789132,1360.59252,1360.878021,nan,nan
0,314,15:28:36:062000,6,1,247,173.671875,[ 0.57894763  0.21939267  0.65238059],1,1,1,0.295694054,0,0,0,0.30683273,0.354413337,0.115896433,0.47030977,0.238516904,nan,nan,nan,[ nan  nan  nan],nan,nan,nan,857.2789132,1361.534309,1361.830003,nan,nan
0,315,15:28:36:998000,6,1,419,294.609375,[ 0.10789467  0.45484197 -0.67809886],1,1,1,0.329883555,0,0,0,0.303693138,0.354221444,0.115755427,0.469976871,0.238466017,nan,nan,nan,[ nan  nan  nan],nan,nan,nan,857.2789132,1362.476098,1362.805982,nan,nan
0,316,15:28:37:950000,6,1,123,86.484375,[ 1.         -0.31144114 -0.20867286],1,1,1,0.380071035,0,0,0,0.335216214,0.354142167,0.115575067,0.469717234,0.238567101,nan,nan,nan,[ nan  nan  nan],nan,nan,nan,857.2789132,1363.41789,1363.797961,nan,nan
0,317,15:28:38:886000,6,1,485,341.015625,[ 0.62277456  0.31287562 -1.        ],1,1,1,0.358279298,0,0,0,0.356077962,0.354226352,0.11539672,0.469623071,0.238829632,nan,nan,nan,[ nan  nan  nan],nan,nan,nan,857.2789132,1364.359672,1364.717951,nan,nan
0,318,15:28:39:837000,6,1,36,25.3125,[ 1.          0.04106996 -1.        ],1,1,1,0.296461537,0,0,0,0.34493729,0.354239468,0.115210072,0.46944954,0.239029396,nan,nan,nan,[ nan  nan  nan],nan,nan,nan,857.2789132,1365.301472,1365.597934,nan,nan
0,319,15:28:40:773000,6,1,257,180.703125,[ 0.4704729   0.26103985  0.65584138],1,1,1,0.410655189,0,0,0,0.355132008,0.354053088,0.115070749,0.469123837,0.238982338,nan,nan,nan,[ nan  nan  nan],nan,nan,nan,857.2789132,1366.243257,1366.653912,nan,nan
0,320,15:28:41:709000,6,1,471,331.171875,[ 0.50601401  0.35499378 -1.        ],1,1,1,0.308844761,0,0,0,0.338653829,0.354235088,0.114930281,0.469165369,0.239304807,nan,nan,nan,[ nan  nan  nan],nan,nan,nan,857.2789132,1367.185044,1367.493889,nan,nan
0,321,15:28:42:661000,6,1,166,116.71875,[ 1.         -0.20036215  0.21267421],1,1,1,0.295045741,0,0,0,0.338181897,0.354089606,0.114774628,0.468864234,0.239314978,nan,nan,nan,[ nan  nan  nan],nan,nan,nan,857.2789132,1368.126825,1368.42187,nan,nan
0,322,15:28:43:597000,6,0,421,296.015625,[ 0.12147167  0.45251804 -0.71261034],0,0,1,0.489234136,0,0,0,0.364374879,0.353900968,0.114639569,0.468540536,0.239261399,nan,nan,nan,[ nan  nan  nan],nan,nan,nan,857.2789132,1369.068621,1369.557855,nan,nan
0,323,15:28:44:533000,6,1,169,118.828125,[ 1.         -0.18591738  0.2391183 ],1,1,1,0.355430315,0,0,0,0.379903397,0.354331965,0.114710588,0.469042553,0.239621377,nan,nan,nan,[ nan  nan  nan],nan,nan,nan,857.2789132,1370.010413,1370.365844,nan,nan
0,324,15:28:45:484000,6,1,98,68.90625,[ 1.         -0.26382291 -0.48021779],1,1,1,0.317624918,0,0,0,0.38742979,0.354335452,0.114528379,0.468863831,0.239807072,nan,nan,nan,[ nan  nan  nan],nan,nan,nan,857.2789132,1370.952201,1371.269826,nan,nan
0,325,15:28:46:420000,6,1,216,151.875,[ 0.90097501  0.06822711  0.56342658],1,1,1,0.215833592,0,0,0,0.296296275,0.354219279,0.114365608,0.468584887,0.239853672,nan,nan,nan,[ nan  nan  nan],nan,nan,nan,857.2789132,1371.893988,1372.109821,nan,nan
0,326,15:28:47:372000,6,1,390,274.21875,[-0.06419603  0.4762842  -0.29194755],1,1,1,0.169963918,0,1,0,0.234474143,0.353782731,0.114448475,0.468231206,0.239334256,nan,nan,nan,[ nan  nan  nan],nan,nan,nan,857.2789132,1372.835833,1373.005797,nan,nan
0,327,15:28:48:308000,6,0,27,18.984375,[ 1.          0.08709126 -1.        ],0,1,0,0.252217776,0,0,0,0.212671762,0.353204685,0.114730924,0.467935609,0.23847376,nan,nan,nan,[ nan  nan  nan],nan,nan,nan,857.2789132,1373.777565,1374.029783,nan,nan
0,328,15:28:49:244000,6,1,182,127.96875,[ 1.         -0.11852384  0.34708947],1,1,1,0.270417566,0,0,0,0.23086642,0.352888111,0.114689976,0.467578088,0.238198135,nan,nan,nan,[ nan  nan  nan],nan,nan,nan,857.2789132,1374.719359,1374.989776,nan,nan
0,329,15:28:50:196000,6,1,349,245.390625,[-0.17565689  0.46876851  0.14794518],1,1,1,0.256596308,0,0,0,0.259743883,0.352630391,0.114603111,0.467233502,0.23802728,nan,nan,nan,[ nan  nan  nan],nan,nan,nan,857.2789132,1375.661141,1375.917737,nan,nan
0,330,15:28:51:132000,6,1,58,40.78125,[ 1.         -0.07608966 -1.        ],1,1,1,0.314797033,0,0,0,0.280603636,0.352331219,0.114549547,0.466880766,0.237781673,nan,nan,nan,[ nan  nan  nan],nan,nan,nan,857.2789132,1376.602931,1376.917728,nan,nan
0,331,15:28:52:068000,6,1,415,291.796875,[ 0.08130773  0.45915368 -0.61496802],1,1,1,0.284990056,0,0,0,0.285461132,0.352214654,0.114390603,0.466605256,0.237824051,nan,nan,nan,[ nan  nan  nan],nan,nan,nan,857.2789132,1377.544724,1377.829714,nan,nan
0,332,15:28:53:019000,6,1,75,52.734375,[ 1.         -0.16471446 -0.79135592],1,1,1,0.279178337,0,0,0,0.292988475,0.352006528,0.114274434,0.466280962,0.237732094,nan,nan,nan,[ nan  nan  nan],nan,nan,nan,857.2789132,1378.486511,1378.76569,nan,nan
0,333,15:28:53:955000,6,1,487,342.421875,[ 0.63952974  0.30629503 -1.        ],1,1,1,0.329370379,0,0,0,0.297846257,0.351781749,0.114169442,0.465951192,0.237612307,nan,nan,nan,[ nan  nan  nan],nan,nan,nan,857.2789132,1379.428302,1379.757673,nan,nan
0,334,15:28:54:907000,6,1,286,201.09375,[ 0.16907896  0.35973478  0.59469871],1,1,1,0.34751828,0,0,0,0.318688999,0.351712791,0.114000419,0.465713211,0.237712372,nan,nan,nan,[ nan  nan  nan],nan,nan,nan,857.2789132,1380.370135,1380.717654,nan,nan
0,335,15:28:55:843000,6,1,216,151.875,[ 0.90097501  0.06822711  0.56342658],1,1,1,0.277767673,0,0,0,0.318218777,0.351699925,0.113825674,0.465525599,0.237874251,nan,nan,nan,[ nan  nan  nan],nan,nan,nan,857.2789132,1381.311876,1381.589644,nan,nan
0,336,15:28:56:779000,6,1,307,215.859375,[-0.01138687  0.41105336  0.48795701],1,1,1,0.319957019,0,0,0,0.315080991,0.351473832,0.113724785,0.465198618,0.237749047,nan,nan,nan,[ nan  nan  nan],nan,nan,nan,857.2789132,1382.253666,1382.573623,nan,nan
0,337,15:28:57:730000,6,1,460,323.4375,[ 0.41584892  0.38333493 -1.        ],1,1,1,0.330156393,0,0,0,0.309293695,0.351377744,0.113564586,0.46494233,0.237813159,nan,nan,nan,[ nan  nan  nan],nan,nan,nan,857.2789132,1383.195455,1383.525611,nan,nan
0,338,15:28:58:666000,6,0,275,193.359375,[ 0.27900239  0.32618525  0.63017847],0,0,1,0.49234997,0,0,0,0.380821127,0.351313242,0.113397881,0.464711123,0.237915361,nan,nan,nan,[ nan  nan  nan],nan,nan,nan,857.2789132,1384.137241,1384.629591,nan,nan
0,339,15:28:59:602000,6,1,365,256.640625,[-0.15796203  0.47701659 -0.01391969],1,1,1,0.366554832,0,0,0,0.396353732,0.351740626,0.113490998,0.465231624,0.238249628,nan,nan,nan,[ nan  nan  nan],nan,nan,nan,857.2789132,1385.079033,1385.445587,nan,nan
0,340,15:29:00:554000,6,0,299,210.234375,[ 0.05166456  0.39341767  0.53437875],0,0,1,0.472738376,0,0,0,0.443881059,0.351785382,0.113322349,0.46510773,0.238463033,nan,nan,nan,[ nan  nan  nan],nan,nan,nan,857.2789132,1386.020822,1386.49356,nan,nan
0,341,15:29:01:490000,6,1,126,88.59375,[ 1.         -0.31141175 -0.17740843],1,1,1,0.338937121,0,0,0,0.392743443,0.352149698,0.113345518,0.465495216,0.23880418,nan,nan,nan,[ nan  nan  nan],nan,nan,nan,857.2789132,1386.962609,1387.301546,nan,nan
0,342,15:29:02:426000,6,1,17,11.953125,[ 0.98106915  0.13592191 -1.        ],1,0,0,0.26909015,0,0,0,0.360255216,0.352110021,0.113177511,0.465287532,0.23893251,nan,nan,nan,[ nan  nan  nan],nan,nan,nan,857.2789132,1387.904442,1388.173532,nan,nan
0,343,15:29:03:378000,6,1,511,359.296875,[ 0.83870319  0.21628417 -1.        ],1,1,1,0.33531923,0,0,0,0.314448834,0.351861458,0.113098948,0.464960406,0.23876251,nan,nan,nan,[ nan  nan  nan],nan,nan,nan,857.2789132,1388.846187,1389.181506,nan,nan
0,344,15:29:04:314000,6,1,230,161.71875,[ 0.76002313  0.14022421  0.6178111 ],1,1,1,0.345515468,0,0,0,0.316641616,0.351812078,0.112933623,0.464745702,0.238878455,nan,nan,nan,[ nan  nan  nan],nan,nan,nan,857.2789132,1389.787976,1390.133491,nan,nan
0,345,15:29:05:265000,6,1,18,12.65625,[ 0.9886827   0.13116258 -1.        ],1,1,1,0.291713803,0,0,0,0.324182834,0.351793338,0.112765964,0.464559302,0.239027375,nan,nan,nan,[ nan  nan  nan],nan,nan,nan,857.2789132,1390.729766,1391.02148,nan,nan
0,346,15:29:06:201000,6,1,420,295.3125,[ 0.11466019  0.4536941  -0.6950475 ],1,1,1,0.3098905,0,0,0,0.31570659,0.351615061,0.112645942,0.464261003,0.238969119,nan,nan,nan,[ nan  nan  nan],nan,nan,nan,857.2789132,1391.671553,1391.981444,nan,nan
0,347,15:29:07:137000,6,1,502,352.96875,[ 0.76474094  0.25241358 -1.        ],1,1,1,0.2801069,0,0,0,0.293903734,0.351491615,0.112502009,0.463993624,0.238989607,nan,nan,nan,[ nan  nan  nan],nan,nan,nan,857.2789132,1392.613346,1392.893453,nan,nan
0,348,15:29:08:089000,6,1,374,262.96875,[-0.13203913  0.47863408 -0.11062844],1,1,1,0.38630869,0,0,0,0.325435363,0.351281041,0.112402642,0.463683683,0.238878399,nan,nan,nan,[ nan  nan  nan],nan,nan,nan,857.2789132,1393.555129,1393.941437,nan,nan
0,349,15:29:09:025000,6,1,264,185.625,[ 0.39496696  0.28788971  0.65071762],1,1,1,0.324481806,0,0,0,0.330299132,0.351384064,0.11225325,0.463637314,0.239130813,nan,nan,nan,[ nan  nan  nan],nan,nan,nan,857.2789132,1394.496923,1394.821404,nan,nan
0,350,15:29:09:961000,6,1,353,248.203125,[-0.17504126  0.47149007  0.10879922],1,1,1,0.326633154,0,0,0,0.345807884,0.351305171,0.112097974,0.463403146,0.239207197,nan,nan,nan,[ nan  nan  nan],nan,nan,nan,857.2789132,1395.438767,1395.7654,nan,nan
0,351,15:29:10:912000,6,1,131,92.109375,[ 1.         -0.30845167 -0.1258005 ],1,1,1,0.240912792,0,0,0,0.297342584,0.351233031,0.111941895,0.463174926,0.239291136,nan,nan,nan,[ nan  nan  nan],nan,nan,nan,857.2789132,1396.380498,1396.62141,nan,nan
0,352,15:29:11:848000,6,1,208,146.25,[ 0.97651258  0.02502074  0.52257448],1,1,1,0.267073938,0,0,0,0.278206628,0.350911398,0.11193674,0.462848137,0.238974658,nan,nan,nan,[ nan  nan  nan],nan,nan,nan,857.2789132,1397.322289,1397.589363,nan,nan
0,353,15:29:12:800000,6,1,444,312.1875,[ 0.2892412   0.41740978 -1.        ],1,1,1,0.26927803,0,0,0,0.259088253,0.350667684,0.11186502,0.462532704,0.238802664,nan,nan,nan,[ nan  nan  nan],nan,nan,nan,857.2789132,1398.264075,1398.533353,nan,nan
0,354,15:29:13:736000,6,1,238,167.34375,[ 0.67574183  0.17872767  0.63851109],1,1,1,0.295456852,0,0,0,0.277269607,0.350431772,0.111788443,0.462220215,0.238643329,nan,nan,nan,[ nan  nan  nan],nan,nan,nan,857.2789132,1399.205868,1399.501325,nan,nan
0,355,15:29:14:672000,6,1,383,269.296875,[-0.09687871  0.47813121 -0.21108141],1,1,1,0.249654461,0,0,0,0.271463114,0.350272885,0.111665787,0.461938672,0.238607098,nan,nan,nan,[ nan  nan  nan],nan,nan,nan,857.2789132,1400.147657,1400.397311,nan,nan
0,356,15:29:15:624000,6,1,63,44.296875,[ 1.         -0.10274464 -1.        ],1,1,1,0.14784888,0,1,0,0.230986731,0.349982918,0.111635145,0.461618063,0.238347774,nan,nan,nan,[ nan  nan  nan],nan,nan,nan,857.2789132,1401.089444,1401.237293,nan,nan
0,357,15:29:21:224000,6,1,412,289.6875,[ 0.06188912  0.46209661 -0.57115894],1,1,1,0.302042042,1,0,0,0.233181794,0.349402073,0.111998505,0.461400578,0.237403568,nan,-175.2363583,377,[-0.12125986  0.47870083 -0.1436959 ],nan,-24.45114169,2.617426376,857.2789132,1402.031233,1402.333275,1403.856434,1406.481783
0,358,15:29:22:160000,6,1,112,78.75,[ 1.         -0.30050152 -0.32532486],1,1,1,0.517209075,0,0,0,0.322366665,0.349266371,0.111866581,0.461132952,0.237399791,nan,nan,nan,[ nan  nan  nan],nan,nan,nan,857.2789132,1407.63196,1408.149169,nan,nan
0,359,15:29:23:096000,6,1,440,309.375,[ 0.2586994  0.4246574 -1.       ],1,1,1,0.351417563,0,0,0,0.390222893,0.349746208,0.112065748,0.461811956,0.237680459,nan,nan,nan,[ nan  nan  nan],nan,nan,nan,857.2789132,1408.573748,1408.925166,nan,nan
0,360,15:29:24:048000,6,1,4,2.8125,[ 0.87912605  0.19501404 -1.        ],1,1,1,0.257610401,0,0,0,0.375412346,0.349750969,0.111906032,0.461657001,0.237844937,nan,nan,nan,[ nan  nan  nan],nan,nan,nan,857.2789132,1409.51554,1409.77315,nan,nan
0,361,15:29:24:984000,6,1,311,218.671875,[-0.03972498  0.41902022  0.46225021],1,1,1,0.315801148,0,0,0,0.308276371,0.349489206,0.111854521,0.461343727,0.237634685,nan,nan,nan,[ nan  nan  nan],nan,nan,nan,857.2789132,1410.457331,1410.773132,nan,nan
0,362,15:29:25:935000,6,0,43,30.234375,[ 1.          0.00424534 -1.        ],0,0,1,0.453932183,0,0,0,0.342447911,0.349393773,0.111710324,0.461104097,0.237683448,nan,nan,nan,[ nan  nan  nan],nan,nan,nan,857.2789132,1411.399101,1411.853033,nan,nan
0,363,15:29:26:871000,6,1,453,318.515625,[ 0.35967042  0.39926175 -1.        ],1,1,1,0.32019365,0,0,0,0.363308994,0.349689079,0.111690323,0.461379402,0.237998756,nan,nan,nan,[ nan  nan  nan],nan,nan,nan,857.2789132,1412.340903,1412.661097,nan,nan
0,364,15:29:27:807000,6,1,289,203.203125,[ 0.14059213  0.36807325  0.58250527],1,1,1,0.314387063,0,0,0,0.362837632,0.349605993,0.111543857,0.46114985,0.238062137,nan,nan,nan,[ nan  nan  nan],nan,nan,nan,857.2789132,1413.28269,1413.597077,nan,nan
0,365,15:29:28:759000,6,1,194,136.40625,[ 1.         -0.05248646  0.4355717 ],1,1,1,0.260490745,0,0,0,0.298357152,0.349507064,0.111402679,0.460909742,0.238104385,nan,nan,nan,[ nan  nan  nan],nan,nan,nan,857.2789132,1414.224565,1414.485056,nan,nan
0,366,15:29:29:695000,6,1,441,310.078125,[ 0.26628726  0.42289189 -1.        ],1,1,1,0.166792775,0,0,0,0.247223527,0.349257718,0.111345979,0.460603697,0.237911739,nan,nan,nan,[ nan  nan  nan],nan,nan,nan,857.2789132,1415.166269,1415.333062,nan,nan
0,367,15:29:30:631000,6,1,102,71.71875,[ 1.         -0.27661034 -0.43492695],1,1,1,0.32096655,0,0,0,0.24941669,0.34874804,0.111606607,0.460354646,0.237141433,nan,nan,nan,[ nan  nan  nan],nan,nan,nan,857.2789132,1416.108064,1416.429031,nan,nan
0,368,15:29:31:583000,6,1,475,333.984375,[ 0.53921875  0.34365981 -1.        ],1,1,1,0.355163464,0,0,0,0.280974263,0.348670654,0.111460675,0.460131329,0.237209979,nan,nan,nan,[ nan  nan  nan],nan,nan,nan,857.2789132,1417.049853,1417.405016,nan,nan
0,369,15:29:32:519000,6,1,19,13.359375,[ 0.99625917  0.12637453 -1.        ],1,1,1,0.317355501,0,0,0,0.331161838,0.348688689,0.111306285,0.459994975,0.237382404,nan,nan,nan,[ nan  nan  nan],nan,nan,nan,857.2789132,1417.991638,1418.308993,nan,nan
0,370,15:29:33:470000,6,1,273,191.953125,[ 0.29973296  0.31957719  0.63503803],1,1,1,0.335554435,0,0,0,0.336024467,0.348601894,0.111164214,0.459766107,0.23743768,nan,nan,nan,[ nan  nan  nan],nan,nan,nan,857.2789132,1418.933432,1419.268986,nan,nan
0,371,15:29:34:406000,6,1,365,256.640625,[-0.15796203  0.47701659 -0.01391969],1,1,1,0.329753265,0,0,0,0.3275544,0.348565851,0.111012678,0.459578529,0.237553173,nan,nan,nan,[ nan  nan  nan],nan,nan,nan,857.2789132,1419.875215,1420.204969,nan,nan
0,372,15:29:35:342000,6,1,229,161.015625,[ 0.77039703  0.13526594  0.61468147],1,1,1,0.315941701,0,0,0,0.327083134,0.348514026,0.110864048,0.459378073,0.237649978,nan,nan,nan,[ nan  nan  nan],nan,nan,nan,857.2789132,1420.817007,1421.132949,nan,nan
0,373,15:29:36:294000,6,1,397,279.140625,[-0.02756135  0.47315999 -0.37569455],1,1,1,0.286053756,0,0,0,0.310582907,0.348424541,0.110724784,0.459149325,0.237699758,nan,nan,nan,[ nan  nan  nan],nan,nan,nan,857.2789132,1421.758873,1422.044927,nan,nan
0,374,15:29:37:230000,6,1,74,52.03125,[ 1.         -0.15971516 -0.81044328],1,1,1,0.304331377,0,0,0,0.302108945,0.348253663,0.110621053,0.458874716,0.237632609,nan,nan,nan,[ nan  nan  nan],nan,nan,nan,857.2789132,1422.700587,1423.004918,nan,nan
0,375,15:29:38:166000,6,1,121,85.078125,[ 1.         -0.31073281 -0.22964081],1,1,1,0.274532953,0,0,0,0.288306029,0.348133656,0.110493617,0.458627274,0.237640039,nan,nan,nan,[ nan  nan  nan],nan,nan,nan,857.2789132,1423.642371,1423.916904,nan,nan
0,376,15:29:39:117000,6,1,484,340.3125,[ 0.61439895  0.31611274 -1.        ],1,1,1,0.284705528,0,0,0,0.287856619,0.347933109,0.11040966,0.45834277,0.237523449,nan,nan,nan,[ nan  nan  nan],nan,nan,nan,857.2789132,1424.58416,1424.868865,nan,nan
0,377,15:29:40:053000,6,1,61,42.890625,[ 1.        -0.0921164 -1.       ],1,1,1,0.214912726,0,0,0,0.258050402,0.347761295,0.110308663,0.458069958,0.237452632,nan,nan,nan,[ nan  nan  nan],nan,nan,nan,857.2789132,1425.525949,1425.740861,nan,nan
0,378,15:29:41:005000,6,0,163,114.609375,[ 1.         -0.2142478   0.18572368],0,0,1,0.457141815,0,0,0,0.318920023,0.347401272,0.11037538,0.457776652,0.237025892,nan,nan,nan,[ nan  nan  nan],nan,nan,nan,857.2789132,1426.467739,1426.924881,nan,nan
0,379,15:29:41:941000,6,1,28,19.6875,[ 1.          0.08206613 -1.        ],1,1,1,0.315303937,0,0,0,0.329119492,0.347697868,0.11037327,0.458071139,0.237324598,nan,nan,nan,[ nan  nan  nan],nan,nan,nan,857.2789132,1427.409539,1427.724843,nan,nan
0,380,15:29:42:877000,6,1,502,352.96875,[ 0.76474094  0.25241358 -1.        ],1,1,1,0.325494759,0,0,0,0.36598017,0.347610553,0.110237214,0.457847767,0.237373339,nan,nan,nan,[ nan  nan  nan],nan,nan,nan,857.2789132,1428.351317,1428.676812,nan,nan
0,381,15:29:43:829000,6,1,127,89.296875,[ 1.         -0.31111021 -0.16703665],1,1,1,0.32768431,0,0,0,0.322827669,0.347551102,0.110094902,0.457646004,0.2374562,nan,nan,nan,[ nan  nan  nan],nan,nan,nan,857.2789132,1429.293111,1429.620796,nan,nan
0,382,15:29:44:765000,6,1,462,324.84375,[ 0.43208968  0.37848636 -1.        ],1,1,1,0.313872176,0,0,0,0.322350415,0.34749784,0.109952021,0.457449861,0.237545819,nan,nan,nan,[ nan  nan  nan],nan,nan,nan,857.2789132,1430.234895,1430.548767,nan,nan
0,383,15:29:45:701000,6,0,46,32.34375,[ 1.         -0.01173137 -1.        ],0,1,0,0.276083315,0,0,0,0.305879934,0.347407932,0.109818657,0.457226588,0.237589275,nan,nan,nan,[ nan  nan  nan],nan,nan,nan,857.2789132,1431.176686,1431.45277,nan,nan
0,384,15:29:46:652000,6,1,308,216.5625,[-0.01868286  0.41309748  0.48168233],1,1,1,0.278272581,0,0,0,0.289409357,0.347217733,0.109733799,0.456951532,0.237483933,nan,nan,nan,[ nan  nan  nan],nan,nan,nan,857.2789132,1432.118478,1432.39675,nan,nan
0,385,15:29:47:588000,6,1,101,71.015625,[ 1.         -0.27357267 -0.44615261],1,1,1,0.304467369,0,0,0,0.286274421,0.347034368,0.109645291,0.456679659,0.237389076,nan,nan,nan,[ nan  nan  nan],nan,nan,nan,857.2789132,1433.060256,1433.364723,nan,nan
0,386,15:29:48:524000,6,1,176,123.75,[ 1.         -0.15042967  0.29867547],1,1,1,0.274654404,0,0,0,0.285798118,0.346921458,0.109521663,0.456443121,0.237399795,nan,nan,nan,[ nan  nan  nan],nan,nan,nan,857.2789132,1434.002052,1434.276706,nan,nan
0,387,15:29:49:476000,6,1,492,345.9375,[ 0.68140332  0.28922202 -1.        ],1,1,1,0.268848957,0,0,0,0.28265691,0.346730275,0.10943967,0.456169946,0.237290605,nan,nan,nan,[ nan  nan  nan],nan,nan,nan,857.2789132,1434.943841,1435.21269,nan,nan
0,388,15:29:50:412000,6,1,422,296.71875,[ 0.12832838  0.45131367 -0.73089489],1,1,1,0.375051603,0,0,0,0.306184988,0.346524784,0.109368192,0.455892976,0.237156591,nan,nan,nan,[ nan  nan  nan],nan,nan,nan,857.2789132,1435.885628,1436.26068,nan,nan
0,389,15:29:51:363000,6,1,44,30.9375,[ 1.         -0.00106984 -1.        ],1,1,1,0.305173271,0,0,0,0.316357944,0.346599854,0.109233969,0.455833823,0.237365885,nan,nan,nan,[ nan  nan  nan],nan,nan,nan,857.2789132,1436.827476,1437.13265,nan,nan
0,390,15:29:52:299000,6,1,156,109.6875,[ 1.         -0.24406061  0.12104147],1,1,1,0.291439539,0,0,0,0.323888138,0.346491123,0.109111112,0.455602235,0.237380011,nan,nan,nan,[ nan  nan  nan],nan,nan,nan,857.2789132,1437.769206,1438.060645,nan,nan
0,391,15:29:53:235000,6,0,370,260.15625,[-0.144806    0.47817873 -0.06718033],0,0,1,0.597616069,0,0,0,0.398076293,0.346347009,0.109004505,0.455351514,0.237342504,nan,nan,nan,[ nan  nan  nan],nan,nan,nan,857.2789132,1438.710997,1439.308613,nan,nan
0,392,15:29:54:187000,6,1,100,70.3125,[ 1.         -0.27042709 -0.4574399 ],1,1,1,0.535805721,0,0,0,0.474953776,0.347003064,0.109614664,0.456617728,0.2373884,nan,nan,nan,[ nan  nan  nan],nan,nan,nan,857.2789132,1439.652786,1440.188592,nan,nan
0,393,15:29:55:123000,6,1,56,39.375,[ 1.         -0.06536751 -1.        ],1,1,1,0.362018071,0,0,0,0.498479953,0.347494738,0.109893913,0.457388651,0.237600824,nan,nan,nan,[ nan  nan  nan],nan,nan,nan,857.2789132,1440.594574,1440.956592,nan,nan
0,394,15:29:56:059000,6,0,441,310.078125,[ 0.26628726  0.42289189 -1.        ],0,0,1,0.39621698,0,0,0,0.431346924,0.347532461,0.10975359,0.457286051,0.23777887,nan,nan,nan,[ nan  nan  nan],nan,nan,nan,857.2789132,1441.536363,1441.93258,nan,nan
0,395,15:29:57:011000,6,1,202,142.03125,[ 1.         -0.00802826  0.48759698],1,1,1,0.246414325,0,0,0,0.334883125,0.347658586,0.109639264,0.45729785,0.238019322,nan,nan,nan,[ nan  nan  nan],nan,nan,nan,857.2789132,1442.478151,1442.724566,nan,nan
0,396,15:29:57:947000,6,0,44,30.9375,[ 1.         -0.00106984 -1.        ],0,0,1,0.360614534,0,0,0,0.33441528,0.347396973,0.109618088,0.457015061,0.237778885,nan,nan,nan,[ nan  nan  nan],nan,nan,nan,857.2789132,1443.41994,1443.780555,nan,nan
0,397,15:29:58:898000,6,1,281,197.578125,[ 0.2180834   0.34506839  0.61264442],1,1,1,0.266733532,0,0,0,0.29125413,0.347431039,0.109478787,0.456909826,0.237952252,nan,nan,nan,[ nan  nan  nan],nan,nan,nan,857.2789132,1444.361787,1444.628521,nan,nan
0,398,15:29:59:834000,6,1,75,52.734375,[ 1.         -0.16471446 -0.79135592],1,1,1,0.500965341,0,0,0,0.376104469,0.34722359,0.109414309,0.4566379,0.237809281,nan,nan,nan,[ nan  nan  nan],nan,nan,nan,857.2789132,1445.303546,1445.804511,nan,nan
0,399,15:30:00:770000,6,1,389,273.515625,[-0.06912081  0.47662608 -0.28023432],1,1,1,0.343196768,0,0,0,0.370298547,0.3476178,0.109550199,0.457167999,0.238067601,nan,nan,nan,[ nan  nan  nan],nan,nan,nan,857.2789132,1446.245305,1446.588502,nan,nan
0,400,15:30:01:722000,6,1,222,156.09375,[ 0.84177847  0.09972916  0.58948469],1,1,1,0.321383078,0,0,0,0.388515062,0.347606493,0.109410247,0.45701674,0.238196246,nan,nan,nan,[ nan  nan  nan],nan,nan,nan,857.2789132,1447.187098,1447.508481,nan,nan
0,401,15:30:02:658000,6,1,431,303.046875,[ 0.19195726  0.43918129 -0.98229877],1,1,1,0.275561301,0,0,0,0.313380382,0.347539597,0.109278611,0.456818207,0.238260986,nan,nan,nan,[ nan  nan  nan],nan,nan,nan,857.2789132,1448.128893,1448.404454,nan,nan
0,402,15:30:03:594000,6,1,141,99.140625,[ 1.         -0.29195274 -0.02458685],1,1,1,0.28577322,0,0,0,0.294239199,0.347356446,0.109199715,0.456556161,0.238156731,nan,nan,nan,[ nan  nan  nan],nan,nan,nan,857.2789132,1449.070678,1449.356451,nan,nan
0,403,15:30:04:545000,6,1,393,276.328125,[-0.04894566  0.47510217 -0.32744323],1,1,1,0.279970053,0,0,0,0.280434858,0.347200143,0.109105057,0.4563052,0.238095086,nan,nan,nan,[ nan  nan  nan],nan,nan,nan,857.2789132,1450.012464,1450.292434,nan,nan
0,404,15:30:05:481000,6,1,252,177.1875,[ 0.52472169  0.24069367  0.65569401],1,1,1,0.330155823,0,0,0,0.298633032,0.34702994,0.109019222,0.456049163,0.238010718,nan,nan,nan,[ nan  nan  nan],nan,nan,nan,857.2789132,1450.954246,1451.284401,nan,nan
0,405,15:30:06:433000,6,1,335,235.546875,[-0.15559599  0.45562772  0.27689323],1,1,1,0.292296258,0,0,0,0.300807378,0.346987329,0.108884778,0.455872107,0.238102551,nan,nan,nan,[ nan  nan  nan],nan,nan,nan,857.2789132,1451.896096,1452.188393,nan,nan
0,406,15:30:07:369000,6,1,427,300.234375,[ 0.16326517  0.44486322 -0.84020871],1,1,1,0.270565531,0,0,0,0.297672537,0.346849568,0.108782106,0.455631674,0.238067462,nan,nan,nan,[ nan  nan  nan],nan,nan,nan,857.2789132,1452.837833,1453.108398,nan,nan
0,407,15:30:08:305000,6,1,50,35.15625,[ 1.         -0.03314873 -1.        ],1,1,1,0.240758269,0,0,0,0.267873353,0.3466579,0.108712458,0.455370358,0.237945442,nan,nan,nan,[ nan  nan  nan],nan,nan,nan,857.2789132,1453.779617,1454.020376,nan,nan
0,408,15:30:09:257000,6,1,469,329.765625,[ 0.4894822   0.36045336 -1.        ],1,1,1,0.306937171,0,0,0,0.272753657,0.346392487,0.108705175,0.455097662,0.237687312,nan,nan,nan,[ nan  nan  nan],nan,nan,nan,857.2789132,1454.721408,1455.028345,nan,nan
0,409,15:30:10:193000,6,1,264,185.625,[ 0.39496696  0.28788971  0.65071762],1,1,1,0.325125557,0,0,0,0.290940332,0.346293849,0.108587086,0.454880934,0.237706763,nan,nan,nan,[ nan  nan  nan],nan,nan,nan,857.2789132,1455.663199,1455.988325,nan,nan
0,410,15:30:11:129000,6,1,191,134.296875,[ 1.         -0.06914798  0.41457165],1,1,1,0.279360514,0,0,0,0.303807748,0.34624106,0.108456745,0.454697805,0.237784315,nan,nan,nan,[ nan  nan  nan],nan,nan,nan,857.2789132,1456.604948,1456.884308,nan,nan
0,411,15:30:12:080000,6,1,51,35.859375,[ 1.         -0.03851602 -1.        ],1,1,1,0.361520575,0,0,0,0.322002215,0.34607469,0.108372985,0.454447675,0.237701706,nan,nan,nan,[ nan  nan  nan],nan,nan,nan,857.2789132,1457.546771,1457.908291,nan,nan
0,412,15:30:13:016000,6,1,307,215.859375,[-0.01138687  0.41105336  0.48795701],1,1,1,0.315723601,0,0,0,0.31886823,0.346113018,0.108241171,0.454354189,0.237871847,nan,nan,nan,[ nan  nan  nan],nan,nan,nan,857.2789132,1458.488557,1458.804281,nan,nan
0,413,15:30:13:968000,6,1,242,170.15625,[ 0.63291185  0.19716118  0.6459214 ],1,1,1,0.317855278,0,0,0,0.331699818,0.346037796,0.108117672,0.454155469,0.237920124,nan,nan,nan,[ nan  nan  nan],nan,nan,nan,857.2789132,1459.430409,1459.748264,nan,nan
