block,trial,freq_trials,correct_response,actual_response,acc,rts,probe_trials,fast_rt_trigger,slow_rt_trigger,rt_triggered,rts_runningavg,rts_runningstd,rts_runningfastthresh,rts_runningslowthresh,rts_runningstd,rts_trailingavg,trials_colorind0,trials_colorind1,trials_colorind2,trials_colorind3,trials_colorind4,trials_colorind5,wholereport_resp0,wholereport_resp1,wholereport_resp2,wholereport_resp3,wholereport_resp4,wholereport_resp5,wholereport_respacc0,wholereport_respacc1,wholereport_respacc2,wholereport_respacc3,wholereport_respacc4,wholereport_respacc5,wholereport_respacc_total,wholereport_respcolorind0,wholereport_respcolorind1,wholereport_respcolorind2,wholereport_respcolorind3,wholereport_respcolorind4,wholereport_respcolorind5,wholereport_resporder0,wholereport_resporder1,wholereport_resporder2,wholereport_resporder3,wholereport_resporder4,wholereport_resporder5,wholereport_rts0,wholereport_rts1,wholereport_rts2,wholereport_rts3,wholereport_rts4,wholereport_rts5,time_blockstart,time_encarray_offset,time_encarray_onset,time_response,time_iti_offset,time_iti_onset,time_memprobe_offset,time_memprobe_onset
1,1,1,1,1.0,1.0,0.6094579580239952,0,nan,nan,nan,nan,nan,nan,nan,nan,nan,0,8,1,4,7,3,nan,nan,nan,nan,nan,nan,nan,nan,nan,nan,nan,nan,0.0,nan,nan,nan,nan,nan,nan,nan,nan,nan,nan,nan,nan,nan,nan,nan,nan,nan,nan,700.3676529326476,701.3981363932835,nan,702.0075943513075,nan,nan,nan,nan
1,2,1,1,1.0,1.0,0.3443874983349815,0,nan,nan,nan,nan,nan,nan,nan,nan,nan,1,4,3,6,8,0,nan,nan,nan,nan,nan,nan,nan,nan,nan,nan,nan,nan,0.0,nan,nan,nan,nan,nan,nan,nan,nan,nan,nan,nan,nan,nan,nan,nan,nan,nan,nan,700.3676529326476,702.4152072909055,nan,702.7595947892405,nan,nan,nan,nan
1,3,1,1,1.0,1.0,0.27956524200271815,0,nan,nan,nan,nan,nan,nan,nan,nan,nan,3,2,7,0,6,1,nan,nan,nan,nan,nan,nan,nan,nan,nan,nan,nan,nan,0.0,nan,nan,nan,nan,nan,nan,nan,nan,nan,nan,nan,nan,nan,nan,nan,nan,nan,nan,700.3676529326476,703.4319905280136,nan,703.7115557700163,nan,nan,nan,nan
1,4,1,1,1.0,1.0,0.5267913424177095,0,nan,nan,nan,nan,nan,nan,nan,nan,nan,4,3,2,7,5,0,nan,nan,nan,nan,nan,nan,nan,nan,nan,nan,nan,nan,0.0,nan,nan,nan,nan,nan,nan,nan,nan,nan,nan,nan,nan,nan,nan,nan,nan,nan,nan,700.3676529326476,704.4487515276996,nan,704.9755428701174,nan,nan,nan,nan
1,5,1,1,1.0,1.0,0.42962167656514794,0,nan,nan,nan,nan,nan,nan,nan,nan,nan,5,0,3,1,4,8,nan,nan,nan,nan,nan,nan,nan,nan,nan,nan,nan,nan,0.0,nan,nan,nan,nan,nan,nan,nan,nan,nan,nan,nan,nan,nan,nan,nan,nan,nan,nan,700.3676529326476,705.473893740098,nan,705.9035154166631,nan,nan,nan,nan
1,6,1,1,1.0,1.0,0.37281970295589417,0,nan,nan,nan,nan,nan,nan,nan,nan,nan,3,4,7,8,2,5,nan,nan,nan,nan,nan,nan,nan,nan,nan,nan,nan,nan,0.0,nan,nan,nan,nan,nan,nan,nan,nan,nan,nan,nan,nan,nan,nan,nan,nan,nan,nan,700.3676529326476,706.4906672840007,nan,706.8634869869566,nan,nan,nan,nan
1,7,1,1,1.0,1.0,0.388006980298087,0,nan,nan,nan,nan,nan,nan,nan,nan,nan,0,1,8,4,7,3,nan,nan,nan,nan,nan,nan,nan,nan,nan,nan,nan,nan,0.0,nan,nan,nan,nan,nan,nan,nan,nan,nan,nan,nan,nan,nan,nan,nan,nan,nan,nan,700.3676529326476,707.5074556528125,nan,707.8954626331106,nan,nan,nan,nan
1,8,0,0,0.0,1.0,0.4991659555817023,0,nan,nan,nan,nan,nan,nan,nan,nan,nan,1,5,2,7,6,8,nan,nan,nan,nan,nan,nan,nan,nan,nan,nan,nan,nan,0.0,nan,nan,nan,nan,nan,nan,nan,nan,nan,nan,nan,nan,nan,nan,nan,nan,nan,nan,700.3676529326476,708.5242548552342,nan,709.0234208108159,nan,nan,nan,nan
1,9,1,1,1.0,1.0,0.5623714401153848,0,nan,nan,nan,nan,nan,nan,nan,nan,nan,5,7,4,6,0,1,nan,nan,nan,nan,nan,nan,nan,nan,nan,nan,nan,nan,0.0,nan,nan,nan,nan,nan,nan,nan,nan,nan,nan,nan,nan,nan,nan,nan,nan,nan,nan,700.3676529326476,709.5410218419274,nan,710.1033932820428,nan,nan,nan,nan
1,10,1,1,1.0,1.0,0.34551732847467065,0,nan,nan,nan,nan,nan,nan,nan,nan,nan,3,4,7,5,1,6,nan,nan,nan,nan,nan,nan,nan,nan,nan,nan,nan,nan,0.0,nan,nan,nan,nan,nan,nan,nan,nan,nan,nan,nan,nan,nan,nan,nan,nan,nan,nan,700.3676529326476,710.5578524047742,nan,710.9033697332488,nan,nan,nan,nan
1,11,1,1,1.0,1.0,0.49670900986529887,0,nan,nan,nan,nan,nan,nan,nan,nan,nan,1,7,3,0,6,2,nan,nan,nan,nan,nan,nan,nan,nan,nan,nan,nan,nan,0.0,nan,nan,nan,nan,nan,nan,nan,nan,nan,nan,nan,nan,nan,nan,nan,nan,nan,nan,700.3676529326476,711.5746364971856,nan,712.0713455070509,nan,nan,nan,nan
1,12,1,1,1.0,1.0,0.32788621983490884,0,nan,nan,nan,nan,nan,nan,nan,nan,nan,3,2,8,5,7,4,nan,nan,nan,nan,nan,nan,nan,nan,nan,nan,nan,nan,0.0,nan,nan,nan,nan,nan,nan,nan,nan,nan,nan,nan,nan,nan,nan,nan,nan,nan,nan,700.3676529326476,712.5914254361996,nan,712.9193116560346,nan,nan,nan,nan
1,13,1,1,1.0,1.0,0.4070681235753,0,nan,nan,nan,nan,nan,nan,nan,nan,nan,4,1,5,2,6,8,nan,nan,nan,nan,nan,nan,nan,nan,nan,nan,nan,nan,0.0,nan,nan,nan,nan,nan,nan,nan,nan,nan,nan,nan,nan,nan,nan,nan,nan,nan,nan,700.3676529326476,713.6082004056079,nan,714.0152685291832,nan,nan,nan,nan
1,14,1,1,1.0,1.0,0.3662402885966003,0,nan,nan,nan,nan,nan,nan,nan,nan,nan,7,5,1,3,0,2,nan,nan,nan,nan,nan,nan,nan,nan,nan,nan,nan,nan,0.0,nan,nan,nan,nan,nan,nan,nan,nan,nan,nan,nan,nan,nan,nan,nan,nan,nan,nan,700.3676529326476,714.6249964719173,nan,714.9912367605139,nan,nan,nan,nan
1,15,1,1,1.0,1.0,0.4851444304222241,0,nan,nan,nan,nan,nan,nan,nan,nan,nan,0,7,2,1,4,8,nan,nan,nan,nan,nan,nan,nan,nan,nan,nan,nan,nan,0.0,nan,nan,nan,nan,nan,nan,nan,nan,nan,nan,nan,nan,nan,nan,nan,nan,nan,nan,700.3676529326476,715.6500714019639,nan,716.1352158323862,nan,nan,nan,nan
1,16,1,1,1.0,1.0,0.34829671622719616,0,nan,nan,nan,nan,nan,nan,nan,nan,nan,6,5,3,0,8,7,nan,nan,nan,nan,nan,nan,nan,nan,nan,nan,nan,nan,0.0,nan,nan,nan,nan,nan,nan,nan,nan,nan,nan,nan,nan,nan,nan,nan,nan,nan,nan,700.3676529326476,716.6668857143959,nan,717.0151824306231,nan,nan,nan,nan
1,17,1,1,1.0,1.0,0.3874815508024767,0,nan,nan,nan,nan,nan,nan,nan,nan,nan,4,3,2,7,5,1,nan,nan,nan,nan,nan,nan,nan,nan,nan,nan,nan,nan,0.0,nan,nan,nan,nan,nan,nan,nan,nan,nan,nan,nan,nan,nan,nan,nan,nan,nan,nan,700.3676529326476,717.6836757938145,nan,718.071157344617,nan,nan,nan,nan
1,18,1,1,1.0,1.0,0.40266569203231484,0,nan,nan,nan,nan,nan,nan,nan,nan,nan,7,6,4,0,8,5,nan,nan,nan,nan,nan,nan,nan,nan,nan,nan,nan,nan,0.0,nan,nan,nan,nan,nan,nan,nan,nan,nan,nan,nan,nan,nan,nan,nan,nan,nan,nan,700.3676529326476,718.7004382190062,nan,719.1031039110385,nan,nan,nan,nan
1,19,1,1,1.0,1.0,0.2578655475517735,0,nan,nan,nan,nan,nan,nan,nan,nan,nan,5,4,8,1,3,0,nan,nan,nan,nan,nan,nan,nan,nan,nan,nan,nan,nan,0.0,nan,nan,nan,nan,nan,nan,nan,nan,nan,nan,nan,nan,nan,nan,nan,nan,nan,nan,700.3676529326476,719.7172234518221,nan,719.9750889993738,nan,nan,nan,nan
1,20,1,1,1.0,1.0,0.3850428512087092,0,nan,nan,nan,nan,nan,nan,nan,nan,nan,6,1,7,0,5,2,nan,nan,nan,nan,nan,nan,nan,nan,nan,nan,nan,nan,0.0,nan,nan,nan,nan,nan,nan,nan,nan,nan,nan,nan,nan,nan,nan,nan,nan,nan,nan,700.3676529326476,720.7340083994204,nan,721.1190512506291,nan,nan,nan,nan
1,21,1,1,1.0,1.0,0.40022300102282315,0,nan,nan,nan,nan,nan,nan,nan,nan,nan,7,0,5,6,4,8,nan,nan,nan,nan,nan,nan,nan,nan,nan,nan,nan,nan,0.0,nan,nan,nan,nan,nan,nan,nan,nan,nan,nan,nan,nan,nan,nan,nan,nan,nan,nan,700.3676529326476,721.7507939173374,nan,722.1510169183603,nan,nan,nan,nan
1,22,1,1,1.0,1.0,0.3114128806628287,0,nan,nan,nan,nan,nan,nan,nan,nan,nan,0,2,8,1,5,3,nan,nan,nan,nan,nan,nan,nan,nan,nan,nan,nan,nan,0.0,nan,nan,nan,nan,nan,nan,nan,nan,nan,nan,nan,nan,nan,nan,nan,nan,nan,nan,700.3676529326476,722.7675919793546,nan,723.0790048600174,nan,nan,nan,nan
1,23,1,1,1.0,1.0,0.34263103012926877,0,nan,nan,nan,nan,nan,nan,nan,nan,nan,4,5,6,7,3,1,nan,nan,nan,nan,nan,nan,nan,nan,nan,nan,nan,nan,0.0,nan,nan,nan,nan,nan,nan,nan,nan,nan,nan,nan,nan,nan,nan,nan,nan,nan,nan,700.3676529326476,723.7843789227773,nan,724.1270099529065,nan,nan,nan,nan
1,24,1,1,1.0,1.0,0.4218052364885807,0,nan,nan,nan,nan,nan,nan,nan,nan,nan,8,7,1,6,0,5,nan,nan,nan,nan,nan,nan,nan,nan,nan,nan,nan,nan,0.0,nan,nan,nan,nan,nan,nan,nan,nan,nan,nan,nan,nan,nan,nan,nan,nan,nan,nan,700.3676529326476,724.8011501858709,nan,725.2229554223595,nan,nan,nan,nan
1,25,1,1,1.0,1.0,0.4129724338417873,0,nan,nan,nan,nan,nan,nan,nan,nan,nan,5,6,0,4,8,3,nan,nan,nan,nan,nan,nan,nan,nan,nan,nan,nan,nan,0.0,nan,nan,nan,nan,nan,nan,nan,nan,nan,nan,nan,nan,nan,nan,nan,nan,nan,nan,700.3676529326476,725.8179462522967,nan,726.2309186861385,nan,nan,nan,nan
1,26,1,1,1.0,1.0,0.4201819074805826,0,nan,nan,nan,nan,nan,nan,nan,nan,nan,2,0,3,7,5,4,nan,nan,nan,nan,nan,nan,nan,nan,nan,nan,nan,nan,0.0,nan,nan,nan,nan,nan,nan,nan,nan,nan,nan,nan,nan,nan,nan,nan,nan,nan,nan,700.3676529326476,726.834704401088,nan,727.2548863085685,nan,nan,nan,nan
1,27,1,1,1.0,1.0,0.35535908106248826,0,nan,nan,nan,nan,nan,nan,nan,nan,nan,4,5,8,3,7,1,nan,nan,nan,nan,nan,nan,nan,nan,nan,nan,nan,nan,0.0,nan,nan,nan,nan,nan,nan,nan,nan,nan,nan,nan,nan,nan,nan,nan,nan,nan,nan,700.3676529326476,727.8515038884943,nan,728.2068629695568,nan,nan,nan,nan
1,28,1,1,1.0,1.0,0.2825638676295057,0,nan,nan,nan,nan,nan,nan,nan,nan,nan,7,3,0,2,1,4,nan,nan,nan,nan,nan,nan,nan,nan,nan,nan,nan,nan,0.0,nan,nan,nan,nan,nan,nan,nan,nan,nan,nan,nan,nan,nan,nan,nan,nan,nan,nan,700.3676529326476,728.8682757219067,nan,729.1508395895362,nan,nan,nan,nan
1,29,1,1,1.0,1.0,0.3297424711054191,0,nan,nan,nan,nan,nan,nan,nan,nan,nan,5,8,2,0,7,6,nan,nan,nan,nan,nan,nan,nan,nan,nan,nan,nan,nan,0.0,nan,nan,nan,nan,nan,nan,nan,nan,nan,nan,nan,nan,nan,nan,nan,nan,nan,nan,700.3676529326476,729.8850598143181,nan,730.2148022854235,nan,nan,nan,nan
1,30,1,1,1.0,1.0,0.2889323119306937,0,nan,nan,nan,nan,nan,nan,nan,nan,nan,8,7,6,1,4,3,nan,nan,nan,nan,nan,nan,nan,nan,nan,nan,nan,nan,0.0,nan,nan,nan,nan,nan,nan,nan,nan,nan,nan,nan,nan,nan,nan,nan,nan,nan,nan,700.3676529326476,730.9018481831299,nan,731.1907804950606,nan,nan,nan,nan
1,31,1,1,1.0,1.0,0.26406065444462,0,nan,nan,nan,nan,nan,nan,nan,nan,nan,6,2,7,3,8,4,nan,nan,nan,nan,nan,nan,nan,nan,nan,nan,nan,nan,0.0,nan,nan,nan,nan,nan,nan,nan,nan,nan,nan,nan,nan,nan,nan,nan,nan,nan,nan,700.3676529326476,731.9186824521748,nan,732.1827431066195,nan,nan,nan,nan
1,32,1,1,1.0,1.0,0.27926275657955557,0,nan,nan,nan,nan,nan,nan,nan,nan,nan,4,1,0,2,7,8,nan,nan,nan,nan,nan,nan,nan,nan,nan,nan,nan,nan,0.0,nan,nan,nan,nan,nan,nan,nan,nan,nan,nan,nan,nan,nan,nan,nan,nan,nan,nan,700.3676529326476,732.935437179869,nan,733.2146999364486,nan,nan,nan,nan
1,33,1,1,1.0,1.0,0.3264385092770681,0,nan,nan,nan,nan,nan,nan,nan,nan,nan,7,5,8,6,0,3,nan,nan,nan,nan,nan,nan,nan,nan,nan,nan,nan,nan,0.0,nan,nan,nan,nan,nan,nan,nan,nan,nan,nan,nan,nan,nan,nan,nan,nan,nan,nan,700.3676529326476,733.9522369523766,nan,734.2786754616536,nan,nan,nan,nan
1,34,1,1,1.0,1.0,0.26961201755329967,0,nan,nan,nan,nan,nan,nan,nan,nan,nan,6,3,2,4,5,0,nan,nan,nan,nan,nan,nan,nan,nan,nan,nan,nan,nan,0.0,nan,nan,nan,nan,nan,nan,nan,nan,nan,nan,nan,nan,nan,nan,nan,nan,nan,nan,700.3676529326476,734.9690341592068,nan,735.2386461767601,nan,nan,nan,nan
1,35,1,1,1.0,1.0,0.34080186299979687,0,nan,nan,nan,nan,nan,nan,nan,nan,nan,5,0,3,6,7,8,nan,nan,nan,nan,nan,nan,nan,nan,nan,nan,nan,nan,0.0,nan,nan,nan,nan,nan,nan,nan,nan,nan,nan,nan,nan,nan,nan,nan,nan,nan,nan,700.3676529326476,735.9858105540043,nan,736.3266124170041,nan,nan,nan,nan
1,36,1,1,1.0,1.0,0.23599337099585682,0,nan,nan,nan,nan,nan,nan,nan,nan,nan,3,6,1,7,5,2,nan,nan,nan,nan,nan,nan,nan,nan,nan,nan,nan,nan,0.0,nan,nan,nan,nan,nan,nan,nan,nan,nan,nan,nan,nan,nan,nan,nan,nan,nan,nan,700.3676529326476,737.0025963570224,nan,737.2385897280183,nan,nan,nan,nan
1,37,1,1,1.0,1.0,0.16324662370607257,0,nan,nan,nan,nan,nan,nan,nan,nan,nan,0,1,6,5,2,3,nan,nan,nan,nan,nan,nan,nan,nan,nan,nan,nan,nan,0.0,nan,nan,nan,nan,nan,nan,nan,nan,nan,nan,nan,nan,nan,nan,nan,nan,nan,nan,700.3676529326476,738.0193465230986,nan,738.1825931468047,nan,nan,nan,nan
1,38,0,0,1.0,0.0,0.21807859314139932,0,nan,nan,nan,nan,nan,nan,nan,nan,nan,3,2,4,0,6,8,nan,nan,nan,nan,nan,nan,nan,nan,nan,nan,nan,nan,0.0,nan,nan,nan,nan,nan,nan,nan,nan,nan,nan,nan,nan,nan,nan,nan,nan,nan,nan,700.3676529326476,739.0444684937829,nan,739.2625470869243,nan,nan,nan,nan
1,39,1,1,1.0,1.0,0.5532358670607209,0,nan,nan,nan,nan,nan,nan,nan,nan,nan,5,6,7,1,8,0,nan,nan,nan,nan,nan,nan,nan,nan,nan,nan,nan,nan,0.0,nan,nan,nan,nan,nan,nan,nan,nan,nan,nan,nan,nan,nan,nan,nan,nan,nan,nan,700.3676529326476,740.0612810956081,nan,740.6145169626689,nan,nan,nan,nan
1,40,1,1,1.0,1.0,0.48042554361745715,0,nan,nan,nan,nan,nan,nan,nan,nan,nan,3,0,2,4,6,1,nan,nan,nan,nan,nan,nan,nan,nan,nan,nan,nan,nan,0.0,nan,nan,nan,nan,nan,nan,nan,nan,nan,nan,nan,nan,nan,nan,nan,nan,nan,nan,700.3676529326476,741.0780423805118,nan,741.5584679241292,nan,nan,nan,nan
1,41,1,1,1.0,1.0,0.43925673537887633,0,nan,nan,nan,nan,nan,nan,nan,nan,nan,8,4,5,1,3,2,nan,nan,nan,nan,nan,nan,nan,nan,nan,nan,nan,nan,0.0,nan,nan,nan,nan,nan,nan,nan,nan,nan,nan,nan,nan,nan,nan,nan,nan,nan,nan,700.3676529326476,742.1031905798009,nan,742.5424473151797,nan,nan,nan,nan
1,42,1,1,1.0,1.0,0.34246025851462036,0,nan,nan,nan,nan,nan,nan,nan,nan,nan,6,0,1,5,8,7,nan,nan,nan,nan,nan,nan,nan,nan,nan,nan,nan,nan,0.0,nan,nan,nan,nan,nan,nan,nan,nan,nan,nan,nan,nan,nan,nan,nan,nan,nan,nan,700.3676529326476,743.1199672596995,nan,743.4624275182141,nan,nan,nan,nan
1,43,0,0,0.0,1.0,0.4216518554603681,0,nan,nan,nan,nan,nan,nan,nan,nan,nan,2,6,3,8,7,4,nan,nan,nan,nan,nan,nan,nan,nan,nan,nan,nan,nan,0.0,nan,nan,nan,nan,nan,nan,nan,nan,nan,nan,nan,nan,nan,nan,nan,nan,nan,nan,700.3676529326476,744.136739378213,nan,744.5583912336733,nan,nan,nan,nan
1,44,1,1,1.0,1.0,0.3888388865161687,1,nan,nan,nan,nan,nan,nan,nan,nan,nan,5,4,0,3,8,7,1.0,1.0,1.0,1.0,1.0,1.0,0.0,0.0,0.0,1.0,0.0,0.0,1.0,8.0,6.0,7.0,3.0,4.0,2.0,3.0,1.0,2.0,6.0,5.0,4.0,5.904979947838001,2.963033771957271,3.8977091788547114,9.520398379769176,8.376750017865561,7.1779540865682065,700.3676529326476,745.1535194792086,745.9619874747004,745.5423583657248,756.5381788780214,757.5416387867881,746.978735074983,756.5298501228681
1,45,1,1,1.0,1.0,0.7546389889903367,0,nan,nan,nan,nan,nan,nan,nan,nan,nan,7,3,2,8,4,6,nan,nan,nan,nan,nan,nan,nan,nan,nan,nan,nan,nan,0.0,nan,nan,nan,nan,nan,nan,nan,nan,nan,nan,nan,nan,nan,nan,nan,nan,nan,nan,700.3676529326476,757.7633443541126,nan,758.517983343103,nan,nan,nan,nan
1,46,1,1,nan,nan,nan,0,nan,nan,nan,nan,nan,nan,nan,nan,nan,4,1,5,0,3,8,nan,nan,nan,nan,nan,nan,nan,nan,nan,nan,nan,nan,0.0,nan,nan,nan,nan,nan,nan,nan,nan,nan,nan,nan,nan,nan,nan,nan,nan,nan,nan,700.3676529326476,758.7801432714332,nan,nan,nan,nan,nan,nan
1,47,1,1,nan,nan,nan,0,nan,nan,nan,nan,nan,nan,nan,nan,nan,1,7,0,4,8,6,nan,nan,nan,nan,nan,nan,nan,nan,nan,nan,nan,nan,0.0,nan,nan,nan,nan,nan,nan,nan,nan,nan,nan,nan,nan,nan,nan,nan,nan,nan,nan,700.3676529326476,759.7969247980509,nan,nan,nan,nan,nan,nan
1,48,1,1,1.0,1.0,0.6722209757426754,1,nan,nan,nan,nan,nan,nan,nan,nan,nan,2,8,1,0,7,3,1.0,1.0,1.0,1.0,1.0,1.0,0.0,1.0,0.0,0.0,0.0,0.0,1.0,3.0,8.0,0.0,1.0,2.0,6.0,6.0,1.0,2.0,3.0,4.0,5.0,7.092017720337026,1.0054715365404263,1.8044949162285775,2.629731038818136,3.572737766779028,5.572293304139748,700.3676529326476,760.8136806660332,761.6221141649876,761.4859016417759,769.7730689327,770.7700677413959,762.6389216352254,769.764735330944
1,49,1,1,nan,nan,nan,0,nan,nan,nan,nan,nan,nan,nan,nan,nan,6,0,7,3,1,2,nan,nan,nan,nan,nan,nan,nan,nan,nan,nan,nan,nan,0.0,nan,nan,nan,nan,nan,nan,nan,nan,nan,nan,nan,nan,nan,nan,nan,nan,nan,nan,700.3676529326476,770.9899085045327,nan,nan,nan,nan,nan,nan
1,50,0,0,1.0,0.0,0.32681369374040514,0,nan,nan,nan,nan,nan,nan,nan,nan,nan,8,4,0,2,6,5,nan,nan,nan,nan,nan,nan,nan,nan,nan,nan,nan,nan,0.0,nan,nan,nan,nan,nan,nan,nan,nan,nan,nan,nan,nan,nan,nan,nan,nan,nan,nan,700.3676529326476,772.0067912397208,nan,772.3336049334612,nan,nan,nan,nan
1,51,1,1,1.0,1.0,0.4777046003146097,0,nan,nan,nan,nan,nan,nan,nan,nan,nan,0,2,3,1,7,4,nan,nan,nan,nan,nan,nan,nan,nan,nan,nan,nan,nan,0.0,nan,nan,nan,nan,nan,nan,nan,nan,nan,nan,nan,nan,nan,nan,nan,nan,nan,nan,700.3676529326476,773.0318496342516,nan,773.5095542345662,nan,nan,nan,nan
1,52,1,1,1.0,1.0,0.38097398029640317,0,nan,nan,nan,nan,nan,nan,nan,nan,nan,7,0,4,6,8,3,nan,nan,nan,nan,nan,nan,nan,nan,nan,nan,nan,nan,0.0,nan,nan,nan,nan,nan,nan,nan,nan,nan,nan,nan,nan,nan,nan,nan,nan,nan,nan,700.3676529326476,774.0485667294124,nan,774.4295407097088,nan,nan,nan,nan
1,53,1,1,1.0,1.0,0.34815017762593925,0,nan,nan,nan,nan,nan,nan,nan,nan,nan,4,1,3,8,2,0,nan,nan,nan,nan,nan,nan,nan,nan,nan,nan,nan,nan,0.0,nan,nan,nan,nan,nan,nan,nan,nan,nan,nan,nan,nan,nan,nan,nan,nan,nan,nan,700.3676529326476,775.0653539578198,nan,775.4135041354457,nan,nan,nan,nan
1,54,1,1,1.0,1.0,0.40291885600890964,0,nan,nan,nan,nan,nan,nan,nan,nan,nan,0,8,1,7,4,6,nan,nan,nan,nan,nan,nan,nan,nan,nan,nan,nan,nan,0.0,nan,nan,nan,nan,nan,nan,nan,nan,nan,nan,nan,nan,nan,nan,nan,nan,nan,nan,700.3676529326476,776.090527245542,nan,776.493446101551,nan,nan,nan,nan
1,55,1,1,1.0,1.0,0.4661348891677335,0,nan,nan,nan,nan,nan,nan,nan,nan,nan,1,7,5,0,8,3,nan,nan,nan,nan,nan,nan,nan,nan,nan,nan,nan,nan,0.0,nan,nan,nan,nan,nan,nan,nan,nan,nan,nan,nan,nan,nan,nan,nan,nan,nan,nan,700.3676529326476,777.1073087720433,nan,777.5734436612111,nan,nan,nan,nan
1,56,1,1,1.0,1.0,0.5693291750503704,0,nan,nan,nan,nan,nan,nan,nan,nan,nan,8,1,4,5,7,2,nan,nan,nan,nan,nan,nan,nan,nan,nan,nan,nan,nan,0.0,nan,nan,nan,nan,nan,nan,nan,nan,nan,nan,nan,nan,nan,nan,nan,nan,nan,nan,700.3676529326476,778.1240640699398,nan,778.6933932449901,nan,nan,nan,nan
1,57,1,1,1.0,1.0,0.40845168801024556,0,nan,nan,nan,nan,nan,nan,nan,nan,nan,7,6,8,3,4,0,nan,nan,nan,nan,nan,nan,nan,nan,nan,nan,nan,nan,0.0,nan,nan,nan,nan,nan,nan,nan,nan,nan,nan,nan,nan,nan,nan,nan,nan,nan,nan,700.3676529326476,779.140891211573,nan,779.5493428995833,nan,nan,nan,nan
1,58,1,1,1.0,1.0,0.4557064118562266,0,nan,nan,nan,nan,nan,nan,nan,nan,nan,2,3,5,1,6,4,nan,nan,nan,nan,nan,nan,nan,nan,nan,nan,nan,nan,0.0,nan,nan,nan,nan,nan,nan,nan,nan,nan,nan,nan,nan,nan,nan,nan,nan,nan,nan,700.3676529326476,780.157639667159,nan,780.6133460790152,nan,nan,nan,nan
1,59,1,1,1.0,1.0,0.5668730847537518,0,nan,nan,nan,nan,nan,nan,nan,nan,nan,0,2,3,8,1,5,nan,nan,nan,nan,nan,nan,nan,nan,nan,nan,nan,nan,0.0,nan,nan,nan,nan,nan,nan,nan,nan,nan,nan,nan,nan,nan,nan,nan,nan,nan,nan,700.3676529326476,781.1744271806674,nan,781.7413002654212,nan,nan,nan,nan
1,60,1,1,1.0,1.0,0.5980513211106881,0,nan,nan,nan,nan,nan,nan,nan,nan,nan,7,4,8,1,0,6,nan,nan,nan,nan,nan,nan,nan,nan,nan,nan,nan,nan,0.0,nan,nan,nan,nan,nan,nan,nan,nan,nan,nan,nan,nan,nan,nan,nan,nan,nan,nan,700.3676529326476,782.1912161196815,nan,782.7892674407922,nan,nan,nan,nan
1,61,1,1,1.0,1.0,0.5412504877895117,0,nan,nan,nan,nan,nan,nan,nan,nan,nan,2,7,0,8,6,5,nan,nan,nan,nan,nan,nan,nan,nan,nan,nan,nan,nan,0.0,nan,nan,nan,nan,nan,nan,nan,nan,nan,nan,nan,nan,nan,nan,nan,nan,nan,nan,700.3676529326476,783.2080019226996,nan,783.7492524104891,nan,nan,nan,nan
1,62,0,0,0.0,1.0,0.5004303504247218,0,nan,nan,nan,nan,nan,nan,nan,nan,nan,8,2,7,5,0,1,nan,nan,nan,nan,nan,nan,nan,nan,nan,nan,nan,nan,0.0,nan,nan,nan,nan,nan,nan,nan,nan,nan,nan,nan,nan,nan,nan,nan,nan,nan,nan,700.3676529326476,784.2247840194032,nan,784.7252143698279,nan,nan,nan,nan
1,63,1,1,1.0,1.0,0.530872187227942,1,nan,nan,nan,nan,nan,nan,nan,nan,nan,7,1,3,2,8,6,1.0,1.0,1.0,1.0,1.0,1.0,1.0,0.0,0.0,1.0,1.0,0.0,3.0,7.0,3.0,1.0,2.0,8.0,5.0,1.0,3.0,4.0,2.0,5.0,6.0,1.1776273681316525,3.2556204273132607,4.263295460375957,2.2070576892001554,5.542629775824025,12.182475117617287,700.3676529326476,785.2583305370063,786.0666745163035,785.7892027242342,799.3015260831453,800.3000435909489,787.0834720081184,799.2931944769807
1,64,1,1,nan,nan,nan,0,nan,nan,nan,nan,nan,nan,nan,nan,nan,8,5,2,4,3,1,nan,nan,nan,nan,nan,nan,nan,nan,nan,nan,nan,nan,0.0,nan,nan,nan,nan,nan,nan,nan,nan,nan,nan,nan,nan,nan,nan,nan,nan,nan,nan,700.3676529326476,800.518362518982,nan,nan,nan,nan,nan,nan
1,65,1,1,nan,nan,nan,0,nan,nan,nan,nan,nan,nan,nan,nan,nan,0,7,5,3,6,4,nan,nan,nan,nan,nan,nan,nan,nan,nan,nan,nan,nan,0.0,nan,nan,nan,nan,nan,nan,nan,nan,nan,nan,nan,nan,nan,nan,nan,nan,nan,nan,700.3676529326476,801.543513569166,nan,nan,nan,nan,nan,nan
1,66,0,0,0.0,1.0,0.6920849457383156,0,nan,nan,nan,nan,nan,nan,nan,nan,nan,4,5,0,8,1,2,nan,nan,nan,nan,nan,nan,nan,nan,nan,nan,nan,nan,0.0,nan,nan,nan,nan,nan,nan,nan,nan,nan,nan,nan,nan,nan,nan,nan,nan,nan,nan,700.3676529326476,802.5686227105325,nan,803.2607076562708,nan,nan,nan,nan
1,67,1,1,nan,nan,nan,0,nan,nan,nan,nan,nan,nan,nan,nan,nan,0,8,4,5,2,7,nan,nan,nan,nan,nan,nan,nan,nan,nan,nan,nan,nan,0.0,nan,nan,nan,nan,nan,nan,nan,nan,nan,nan,nan,nan,nan,nan,nan,nan,nan,nan,700.3676529326476,803.5853862761287,nan,nan,nan,nan,nan,nan
1,68,1,1,nan,nan,nan,0,nan,nan,nan,nan,nan,nan,nan,nan,nan,6,5,2,1,7,8,nan,nan,nan,nan,nan,nan,nan,nan,nan,nan,nan,nan,0.0,nan,nan,nan,nan,nan,nan,nan,nan,nan,nan,nan,nan,nan,nan,nan,nan,nan,nan,700.3676529326476,804.6105065362062,nan,nan,nan,nan,nan,nan
1,69,0,0,0.0,1.0,0.6730246575316414,0,nan,nan,nan,nan,nan,nan,nan,nan,nan,5,7,0,4,6,1,nan,nan,nan,nan,nan,nan,nan,nan,nan,nan,nan,nan,0.0,nan,nan,nan,nan,nan,nan,nan,nan,nan,nan,nan,nan,nan,nan,nan,nan,nan,nan,700.3676529326476,805.635607409873,nan,806.3086320674047,nan,nan,nan,nan
1,70,1,1,1.0,1.0,0.7012986347544938,0,nan,nan,nan,nan,nan,nan,nan,nan,nan,2,3,7,0,8,5,nan,nan,nan,nan,nan,nan,nan,nan,nan,nan,nan,nan,0.0,nan,nan,nan,nan,nan,nan,nan,nan,nan,nan,nan,nan,nan,nan,nan,nan,nan,nan,700.3676529326476,806.6632721396163,nan,807.3645707743708,nan,nan,nan,nan
1,71,1,1,nan,nan,nan,0,nan,nan,nan,nan,nan,nan,nan,nan,nan,3,2,8,5,0,7,nan,nan,nan,nan,nan,nan,nan,nan,nan,nan,nan,nan,0.0,nan,nan,nan,nan,nan,nan,nan,nan,nan,nan,nan,nan,nan,nan,nan,nan,nan,nan,700.3676529326476,807.6859060892602,nan,nan,nan,nan,nan,nan
1,72,1,1,1.0,1.0,0.5815087037626654,0,nan,nan,nan,nan,nan,nan,nan,nan,nan,1,8,4,7,6,0,nan,nan,nan,nan,nan,nan,nan,nan,nan,nan,nan,nan,0.0,nan,nan,nan,nan,nan,nan,nan,nan,nan,nan,nan,nan,nan,nan,nan,nan,nan,nan,700.3676529326476,808.7110186517239,nan,809.2925273554865,nan,nan,nan,nan
1,73,1,1,1.0,1.0,0.7726871910272166,0,nan,nan,nan,nan,nan,nan,nan,nan,nan,7,1,8,2,5,3,nan,nan,nan,nan,nan,nan,nan,nan,nan,nan,nan,nan,0.0,nan,nan,nan,nan,nan,nan,nan,nan,nan,nan,nan,nan,nan,nan,nan,nan,nan,nan,700.3676529326476,809.7278098715469,nan,810.5004970625741,nan,nan,nan,nan
1,74,0,0,nan,nan,nan,0,nan,nan,nan,nan,nan,nan,nan,nan,nan,3,2,6,1,8,4,nan,nan,nan,nan,nan,nan,nan,nan,nan,nan,nan,nan,0.0,nan,nan,nan,nan,nan,nan,nan,nan,nan,nan,nan,nan,nan,nan,nan,nan,nan,nan,700.3676529326476,810.7445551910205,nan,nan,nan,nan,nan,nan
1,75,1,1,nan,nan,nan,0,nan,nan,nan,nan,nan,nan,nan,nan,nan,5,8,3,6,1,7,nan,nan,nan,nan,nan,nan,nan,nan,nan,nan,nan,nan,0.0,nan,nan,nan,nan,nan,nan,nan,nan,nan,nan,nan,nan,nan,nan,nan,nan,nan,nan,700.3676529326476,811.761347551248,nan,nan,nan,nan,nan,nan
1,76,0,0,1.0,0.0,0.01029733382165432,0,nan,nan,nan,nan,nan,nan,nan,nan,nan,3,4,1,8,7,0,nan,nan,nan,nan,nan,nan,nan,nan,nan,nan,nan,nan,0.0,nan,nan,nan,nan,nan,nan,nan,nan,nan,nan,nan,nan,nan,nan,nan,nan,nan,nan,700.3676529326476,812.7781285075471,nan,812.7884258413687,nan,nan,nan,nan
1,77,1,1,1.0,1.0,0.5214563661720604,0,nan,nan,nan,nan,nan,nan,nan,nan,nan,5,0,6,3,4,8,nan,nan,nan,nan,nan,nan,nan,nan,nan,nan,nan,nan,0.0,nan,nan,nan,nan,nan,nan,nan,nan,nan,nan,nan,nan,nan,nan,nan,nan,nan,nan,700.3676529326476,813.7949165912578,nan,814.3163729574298,nan,nan,nan,nan
1,78,1,1,1.0,1.0,0.3526367121376097,1,nan,nan,nan,nan,nan,nan,nan,nan,nan,4,5,3,7,8,1,1.0,1.0,1.0,1.0,1.0,1.0,1.0,1.0,1.0,0.0,0.0,1.0,4.0,4.0,5.0,3.0,0.0,2.0,1.0,2.0,1.0,6.0,5.0,4.0,3.0,2.3814395398367196,1.150136546115391,12.044746461091563,9.509120890754275,6.236684440402314,3.557426758459769,700.3676529326476,814.8117069557775,815.6201119453181,815.1643436679151,828.7133284886368,829.7208256226731,816.6285772607662,828.7050051502883
1,79,1,1,1.0,1.0,0.7774089286103845,0,nan,nan,nan,nan,nan,nan,nan,nan,nan,8,1,7,6,2,4,nan,nan,nan,nan,nan,nan,nan,nan,nan,nan,nan,nan,0.0,nan,nan,nan,nan,nan,nan,nan,nan,nan,nan,nan,nan,nan,nan,nan,nan,nan,nan,700.3676529326476,829.9384785696166,nan,830.715887498227,nan,nan,nan,nan
1,80,1,1,nan,nan,nan,0,nan,nan,nan,nan,nan,nan,nan,nan,nan,3,6,5,8,7,2,nan,nan,nan,nan,nan,nan,nan,nan,nan,nan,nan,nan,0.0,nan,nan,nan,nan,nan,nan,nan,nan,nan,nan,nan,nan,nan,nan,nan,nan,nan,nan,700.3676529326476,830.9553048559465,nan,nan,nan,nan,nan,nan
1,81,0,0,0.0,1.0,0.7434042639797553,0,0.0,0.0,0.0,0.42890170511816617,0.14552823940177517,0.283373465716391,0.5744299445199413,0.14552823940177517,0.7604065962950699,0,1,2,5,6,7,nan,nan,nan,nan,nan,nan,nan,nan,nan,nan,nan,nan,0.0,nan,nan,nan,nan,nan,nan,nan,nan,nan,nan,nan,nan,nan,nan,nan,nan,nan,nan,700.3676529326476,831.9803777902853,nan,832.723782054265,nan,nan,nan,nan
1,82,1,1,nan,nan,nan,0,0.0,0.0,0.0,0.0,0.0,0.0,0.0,0.0,0.0,8,6,0,2,7,5,nan,nan,nan,nan,nan,nan,nan,nan,nan,nan,nan,nan,0.0,nan,nan,nan,nan,nan,nan,nan,nan,nan,nan,nan,nan,nan,nan,nan,nan,nan,nan,700.3676529326476,833.0054991907673,nan,nan,nan,nan,nan,nan
1,83,1,1,nan,nan,nan,0,0.0,0.0,0.0,0.0,0.0,0.0,0.0,0.0,0.0,7,4,3,1,6,2,nan,nan,nan,nan,nan,nan,nan,nan,nan,nan,nan,nan,0.0,nan,nan,nan,nan,nan,nan,nan,nan,nan,nan,nan,nan,nan,nan,nan,nan,nan,nan,700.3676529326476,834.0306220166385,nan,nan,nan,nan,nan,nan
1,84,1,1,1.0,1.0,0.1083134455839172,1,1.0,0.0,1.0,0.43339459881618886,0.1492272072540495,0.2841673915621393,0.5826218060702384,0.1492272072540495,0.1083134455839172,0,3,6,4,1,8,1.0,1.0,1.0,1.0,1.0,1.0,0.0,0.0,0.0,0.0,0.0,0.0,0.0,8.0,6.0,7.0,1.0,5.0,3.0,2.0,1.0,6.0,5.0,4.0,3.0,2.6887208287371323,1.722345462301746,8.352017486584373,7.616218692739494,6.784520044573583,5.3363683560164645,700.3676529326476,835.0474488732871,835.8558165153954,835.155762318871,845.2735751182772,846.2719954088097,836.8809533108724,845.2652435122291
1,85,1,1,nan,nan,nan,0,0.0,0.0,0.0,0.0,0.0,0.0,0.0,0.0,0.0,2,4,5,7,8,0,nan,nan,nan,nan,nan,nan,nan,nan,nan,nan,nan,nan,0.0,nan,nan,nan,nan,nan,nan,nan,nan,nan,nan,nan,nan,nan,nan,nan,nan,nan,nan,700.3676529326476,846.4904132646043,nan,nan,nan,nan,nan,nan
1,86,1,1,1.0,1.0,0.6558585383463651,0,0.0,0.0,0.0,0.42881599102418505,0.1530443410857613,0.27577164993842374,0.5818603321099464,0.1530443410857613,0.38208599196514115,6,8,1,4,0,7,nan,nan,nan,nan,nan,nan,nan,nan,nan,nan,nan,nan,0.0,nan,nan,nan,nan,nan,nan,nan,nan,nan,nan,nan,nan,nan,nan,nan,nan,nan,nan,700.3676529326476,847.5155432178872,nan,848.1714017562335,nan,nan,nan,nan
1,87,1,1,1.0,1.0,0.7426938080461696,1,0.0,1.0,1.0,0.4319693597369931,0.15428305802133965,0.27768630171565345,0.5862524177583327,0.15428305802133965,0.6992761731962673,8,1,0,2,7,3,1.0,1.0,1.0,1.0,1.0,1.0,0.0,1.0,1.0,1.0,0.0,1.0,4.0,6.0,1.0,0.0,2.0,8.0,3.0,3.0,1.0,2.0,6.0,5.0,4.0,4.132061830139719,1.2588314482709393,2.162713781814091,13.35428655485157,11.858137756003998,6.0671928183874115,700.3676529326476,848.5406631928636,849.349059059401,849.2833570009097,863.7674149356317,864.7730370021891,850.3741972803837,863.759080763557
1,88,1,1,nan,nan,nan,0,0.0,0.0,0.0,0.0,0.0,0.0,0.0,0.0,0.0,6,4,7,3,5,2,nan,nan,nan,nan,nan,nan,nan,nan,nan,nan,nan,nan,0.0,nan,nan,nan,nan,nan,nan,nan,nan,nan,nan,nan,nan,nan,nan,nan,nan,nan,nan,700.3676529326476,865.0009188600816,nan,nan,nan,nan,nan,nan
1,89,1,1,nan,nan,nan,0,0.0,0.0,0.0,0.0,0.0,0.0,0.0,0.0,0.0,4,3,8,6,7,1,nan,nan,nan,nan,nan,nan,nan,nan,nan,nan,nan,nan,0.0,nan,nan,nan,nan,nan,nan,nan,nan,nan,nan,nan,nan,nan,nan,nan,nan,nan,nan,700.3676529326476,866.0260382648557,nan,nan,nan,nan,nan,nan
1,90,1,1,1.0,1.0,0.19168053881730884,1,1.0,0.0,1.0,0.4362258590288996,0.15742195056062613,0.27880390846827346,0.5936478095895257,0.15742195056062613,0.19168053881730884,7,1,5,3,2,6,1.0,1.0,1.0,1.0,1.0,1.0,0.0,0.0,0.0,0.0,0.0,0.0,0.0,1.0,5.0,3.0,8.0,4.0,7.0,2.0,1.0,6.0,5.0,4.0,3.0,2.3894221901427954,1.5094085511518642,8.243601406924427,7.2835366105427966,5.18025508557912,3.435448155971244,700.3676529326476,867.0511585249333,867.8595692162635,867.2428390637506,877.1606502666837,878.1574697507313,868.876359295682,877.1523198009236
1,91,1,1,nan,nan,nan,0,0.0,0.0,0.0,0.0,0.0,0.0,0.0,0.0,0.0,4,5,0,8,7,2,nan,nan,nan,nan,nan,nan,nan,nan,nan,nan,nan,nan,0.0,nan,nan,nan,nan,nan,nan,nan,nan,nan,nan,nan,nan,nan,nan,nan,nan,nan,nan,700.3676529326476,878.3858208744787,nan,nan,nan,nan,nan,nan
1,92,1,1,nan,nan,nan,0,0.0,0.0,0.0,0.0,0.0,0.0,0.0,0.0,0.0,2,0,4,1,3,5,nan,nan,nan,nan,nan,nan,nan,nan,nan,nan,nan,nan,0.0,nan,nan,nan,nan,nan,nan,nan,nan,nan,nan,nan,nan,nan,nan,nan,nan,nan,nan,700.3676529326476,879.4109533935552,nan,nan,nan,nan,nan,nan
1,93,1,1,nan,nan,nan,0,0.0,0.0,0.0,0.0,0.0,0.0,0.0,0.0,0.0,7,4,0,8,6,3,nan,nan,nan,nan,nan,nan,nan,nan,nan,nan,nan,nan,0.0,nan,nan,nan,nan,nan,nan,nan,nan,nan,nan,nan,nan,nan,nan,nan,nan,nan,nan,700.3676529326476,880.4360722281272,nan,nan,nan,nan,nan,nan
1,94,1,1,1.0,1.0,0.15689043840393424,1,1.0,0.0,1.0,0.4329211925395538,0.15888361458344077,0.27403757795611305,0.5918048071229945,0.15888361458344077,0.15689043840393424,5,7,8,2,4,0,1.0,1.0,1.0,1.0,1.0,1.0,0.0,0.0,0.0,0.0,0.0,1.0,1.0,7.0,5.0,6.0,1.0,2.0,0.0,2.0,1.0,6.0,5.0,4.0,3.0,2.682783447438851,1.8814696172485128,13.152813014690764,9.737182928365655,5.938202883000486,3.6416779302526265,700.3676529326476,881.4695317918668,882.2779233820038,881.6264222302707,896.4795331974747,897.4853693700861,883.2863815701567,896.4712041571038
1,95,1,1,1.0,1.0,0.6168319312855601,0,0.0,0.0,0.0,0.4292407824844122,0.16096514287737296,0.26827563960703926,0.5902059253617852,0.16096514287737296,0.3868611848447472,7,8,0,3,2,1,nan,nan,nan,nan,nan,nan,nan,nan,nan,nan,nan,nan,0.0,nan,nan,nan,nan,nan,nan,nan,nan,nan,nan,nan,nan,nan,nan,nan,nan,nan,nan,700.3676529326476,897.7131286372896,nan,898.3299605685752,nan,nan,nan,nan
1,96,1,1,1.0,1.0,0.7996887906920165,0,0.0,0.0,0.0,0.431709087073901,0.16132513339893442,0.2703839536749666,0.5930342204728354,0.16132513339893442,0.524470386793837,6,5,2,4,1,3,nan,nan,nan,nan,nan,nan,nan,nan,nan,nan,nan,nan,0.0,nan,nan,nan,nan,nan,nan,nan,nan,nan,nan,nan,nan,nan,nan,nan,nan,nan,nan,700.3676529326476,898.7382300810423,nan,899.5379188717343,nan,nan,nan,nan
1,97,1,1,nan,nan,nan,0,0.0,0.0,0.0,0.0,0.0,0.0,0.0,0.0,0.0,5,2,0,3,8,7,nan,nan,nan,nan,nan,nan,nan,nan,nan,nan,nan,nan,0.0,nan,nan,nan,nan,nan,nan,nan,nan,nan,nan,nan,nan,nan,nan,nan,nan,nan,nan,700.3676529326476,899.7716651266674,nan,nan,nan,nan,nan,nan
1,98,1,1,1.0,1.0,0.013077006675302982,0,0.0,0.0,0.0,0.43648804426374666,0.16560048942986114,0.2708875548338855,0.6020885336936078,0.16560048942986114,0.40638289868365973,8,3,6,2,7,5,nan,nan,nan,nan,nan,nan,nan,nan,nan,nan,nan,nan,0.0,nan,nan,nan,nan,nan,nan,nan,nan,nan,nan,nan,nan,nan,nan,nan,nan,nan,nan,700.3676529326476,900.796809049556,nan,900.8098860562313,nan,nan,nan,nan
1,99,1,1,1.0,1.0,0.19592303247191012,1,1.0,0.0,1.0,0.43105969762799734,0.171291836982925,0.25976786064507235,0.6023515346109223,0.171291836982925,0.10450001957360655,2,0,8,3,6,4,1.0,1.0,1.0,1.0,1.0,1.0,0.0,0.0,0.0,0.0,0.0,1.0,1.0,0.0,8.0,6.0,0.0,2.0,4.0,2.0,1.0,6.0,5.0,4.0,3.0,2.647698273998685,1.8093432360328734,7.383481387747452,6.040234838146716,4.95275810547173,3.5842299322830513,700.3676529326476,901.8219270288246,902.6303351544775,902.0178500612965,911.0729443178279,912.0709292688407,903.6471429097,911.0646172732813
1,100,1,1,1.0,1.0,0.6233546119183302,0,0.0,0.0,0.0,0.4280832841450089,0.17222222448377472,0.2558610596612342,0.6003055086287836,0.17222222448377472,0.2774515503551811,5,1,7,8,2,6,nan,nan,nan,nan,nan,nan,nan,nan,nan,nan,nan,nan,0.0,nan,nan,nan,nan,nan,nan,nan,nan,nan,nan,nan,nan,nan,nan,nan,nan,nan,nan,700.3676529326476,912.2981708041625,nan,912.9215254160808,nan,nan,nan,nan
1,101,1,1,1.0,1.0,0.47024509869515896,0,0.0,0.0,0.0,0.43052417574217544,0.17251207672190166,0.2580120990202738,0.6030362524640771,0.17251207672190166,0.4298409143617998,3,5,8,6,4,7,nan,nan,nan,nan,nan,nan,nan,nan,nan,nan,nan,nan,0.0,nan,nan,nan,nan,nan,nan,nan,nan,nan,nan,nan,nan,nan,nan,nan,nan,nan,nan,700.3676529326476,913.3232511510141,nan,913.7934962497093,nan,nan,nan,nan
1,102,1,1,1.0,1.0,0.5650812648236752,0,0.0,0.0,0.0,0.43101455750702705,0.17149997669424313,0.2595145808127839,0.6025145342012702,0.17149997669424313,0.5528936584790548,4,0,7,1,6,8,nan,nan,nan,nan,nan,nan,nan,nan,nan,nan,nan,nan,0.0,nan,nan,nan,nan,nan,nan,nan,nan,nan,nan,nan,nan,nan,nan,nan,nan,nan,nan,700.3676529326476,914.3483979247976,nan,914.9134791896213,nan,nan,nan,nan
1,103,1,1,1.0,1.0,0.7319457395933568,0,0.0,0.0,0.0,0.4326495173523521,0.17108499851642245,0.2615645188359296,0.6037345158687746,0.17108499851642245,0.589090701037397,6,8,2,7,0,1,nan,nan,nan,nan,nan,nan,nan,nan,nan,nan,nan,nan,0.0,nan,nan,nan,nan,nan,nan,nan,nan,nan,nan,nan,nan,nan,nan,nan,nan,nan,nan,700.3676529326476,915.3734999388689,nan,916.1054456784623,nan,nan,nan,nan
1,104,1,1,1.0,1.0,0.7547253726515919,1,0.0,1.0,1.0,0.436255495933569,0.17315795643273527,0.2630975395008337,0.6094134523663043,0.17315795643273527,0.6839174590228746,0,1,8,6,5,3,1.0,1.0,1.0,1.0,1.0,1.0,1.0,1.0,0.0,0.0,0.0,1.0,3.0,0.0,1.0,6.0,2.0,7.0,3.0,2.0,1.0,6.0,5.0,4.0,3.0,2.2328923963941634,1.5204209022922441,12.70229418517556,10.783002200652845,8.27097961655818,3.3840319054434076,700.3676529326476,916.3986977445893,917.2070442897966,917.1534231172409,930.9753187857568,931.9759745034389,918.2321514354553,930.9669891751837
1,105,1,1,1.0,1.0,0.6884516994468868,0,0.0,0.0,0.0,0.44004680398973595,0.17555561148049195,0.264491192509244,0.6156024154702279,0.17555561148049195,0.7250409372306118,8,5,3,1,7,4,nan,nan,nan,nan,nan,nan,nan,nan,nan,nan,nan,nan,0.0,nan,nan,nan,nan,nan,nan,nan,nan,nan,nan,nan,nan,nan,nan,nan,nan,nan,nan,700.3676529326476,932.2004868276417,nan,932.8889385270886,nan,nan,nan,nan
1,106,1,1,1.0,1.0,0.6633012193487957,0,0.0,0.0,0.0,0.4429692145245259,0.1765632684362585,0.2664059460882674,0.6195324829607844,0.1765632684362585,0.7021594304824248,0,8,2,7,5,3,nan,nan,nan,nan,nan,nan,nan,nan,nan,nan,nan,nan,0.0,nan,nan,nan,nan,nan,nan,nan,nan,nan,nan,nan,nan,nan,nan,nan,nan,nan,nan,700.3676529326476,933.2256233380176,nan,933.8889245573664,nan,nan,nan,nan
1,107,0,0,nan,nan,nan,0,0.0,0.0,0.0,0.0,0.0,0.0,0.0,0.0,0.0,1,7,8,6,2,0,nan,nan,nan,nan,nan,nan,nan,nan,nan,nan,nan,nan,0.0,nan,nan,nan,nan,nan,nan,nan,nan,nan,nan,nan,nan,nan,nan,nan,nan,nan,nan,700.3676529326476,934.2507416025037,nan,nan,nan,nan,nan,nan
1,108,1,1,nan,nan,nan,0,0.0,0.0,0.0,0.0,0.0,0.0,0.0,0.0,0.0,0,3,2,5,6,4,nan,nan,nan,nan,nan,nan,nan,nan,nan,nan,nan,nan,0.0,nan,nan,nan,nan,nan,nan,nan,nan,nan,nan,nan,nan,nan,nan,nan,nan,nan,nan,700.3676529326476,935.2758513140725,nan,nan,nan,nan,nan,nan
1,109,1,1,nan,nan,nan,0,0.0,0.0,0.0,0.0,0.0,0.0,0.0,0.0,0.0,1,5,6,7,0,3,nan,nan,nan,nan,nan,nan,nan,nan,nan,nan,nan,nan,0.0,nan,nan,nan,nan,nan,nan,nan,nan,nan,nan,nan,nan,nan,nan,nan,nan,nan,nan,700.3676529326476,936.3009767057374,nan,nan,nan,nan,nan,nan
1,110,1,1,nan,nan,nan,0,0.0,0.0,0.0,0.0,0.0,0.0,0.0,0.0,0.0,0,7,1,4,8,2,nan,nan,nan,nan,nan,nan,nan,nan,nan,nan,nan,nan,0.0,nan,nan,nan,nan,nan,nan,nan,nan,nan,nan,nan,nan,nan,nan,nan,nan,nan,nan,700.3676529326476,937.3260926894145,nan,nan,nan,nan,nan,nan
1,111,0,0,0.0,1.0,0.7282081487355754,0,0.0,0.0,0.0,0.4455312145806221,0.1771158358781178,0.2684153787025043,0.6226470504587399,0.1771158358781178,0.7282081487355754,2,8,5,0,3,4,nan,nan,nan,nan,nan,nan,nan,nan,nan,nan,nan,nan,0.0,nan,nan,nan,nan,nan,nan,nan,nan,nan,nan,nan,nan,nan,nan,nan,nan,nan,nan,700.3676529326476,938.3525577409891,nan,939.0807658897247,nan,nan,nan,nan
1,112,1,1,1.0,1.0,0.7364009137963876,1,0.0,1.0,1.0,0.4487803747433227,0.1786542749998253,0.27012609974349744,0.627434649743148,0.1786542749998253,0.7323045312659815,8,6,7,3,4,0,1.0,1.0,1.0,1.0,1.0,1.0,1.0,1.0,1.0,0.0,0.0,1.0,4.0,8.0,6.0,7.0,4.0,5.0,0.0,2.0,1.0,4.0,5.0,6.0,3.0,2.7164217656245455,1.7099136249162257,5.429117914405651,8.74811431276612,9.627937793498859,4.237876991392113,700.3676529326476,939.3763423325727,940.1847051280783,940.1127432463691,950.8776291072136,951.881011470221,941.2098450595513,950.8692957905587
1,113,1,1,1.0,1.0,0.7855780308600515,0,0.0,0.0,0.0,0.45204878995983483,0.18023327557721744,0.2718155143826174,0.6322820655370522,0.18023327557721744,0.7500623644640049,7,3,8,5,1,4,nan,nan,nan,nan,nan,nan,nan,nan,nan,nan,nan,nan,0.0,nan,nan,nan,nan,nan,nan,nan,nan,nan,nan,nan,nan,nan,nan,nan,nan,nan,nan,700.3676529326476,952.1028008554131,nan,952.8883788862731,nan,nan,nan,nan
1,114,1,1,1.0,1.0,0.7767706017475575,0,0.0,0.0,0.0,0.4557963095205114,0.1826332607574795,0.27316304876303193,0.638429570277991,0.1826332607574795,0.7662498488013322,4,5,3,6,0,7,nan,nan,nan,nan,nan,nan,nan,nan,nan,nan,nan,nan,0.0,nan,nan,nan,nan,nan,nan,nan,nan,nan,nan,nan,nan,nan,nan,nan,nan,nan,nan,700.3676529326476,953.1195689825108,nan,953.8963395842584,nan,nan,nan,nan
1,115,1,1,nan,nan,nan,0,0.0,0.0,0.0,0.0,0.0,0.0,0.0,0.0,0.0,0,3,7,5,2,6,nan,nan,nan,nan,nan,nan,nan,nan,nan,nan,nan,nan,0.0,nan,nan,nan,nan,nan,nan,nan,nan,nan,nan,nan,nan,nan,nan,nan,nan,nan,nan,700.3676529326476,954.1363664743258,nan,nan,nan,nan,nan,nan
1,116,1,1,1.0,1.0,0.07913286739494652,0,0.0,0.0,0.0,0.45936269054525636,0.18470597012105391,0.2746567204242024,0.6440686606663103,0.18470597012105391,0.427951734571252,1,7,4,2,8,3,nan,nan,nan,nan,nan,nan,nan,nan,nan,nan,nan,nan,0.0,nan,nan,nan,nan,nan,nan,nan,nan,nan,nan,nan,nan,nan,nan,nan,nan,nan,nan,700.3676529326476,955.1531896247761,nan,955.2323224921711,nan,nan,nan,nan
1,117,1,1,1.0,1.0,0.3503160416148603,1,1.0,0.0,1.0,0.4551843408403079,0.18791664539480957,0.26726769544549833,0.6431009862351175,0.18791664539480957,0.2147244545049034,2,8,5,7,1,6,1.0,1.0,1.0,1.0,1.0,1.0,1.0,1.0,1.0,1.0,0.0,1.0,5.0,2.0,8.0,5.0,7.0,0.0,6.0,2.0,1.0,4.0,5.0,6.0,3.0,2.356282217428088,1.4596127787372097,5.131144680664875,6.602833498734981,8.17001819179859,3.8118500732816756,700.3676529326476,956.1699608878698,956.9783744302113,956.5202769294847,966.204445081763,967.215378746856,957.9951801898424,966.1961203179089
1,118,1,1,1.0,1.0,0.7779705651337281,0,0.0,0.0,0.0,0.45404446802264,0.18720862562446872,0.26683584239817126,0.6412530936471087,0.18720862562446872,0.40247315804784495,0,3,7,1,8,5,nan,nan,nan,nan,nan,nan,nan,nan,nan,nan,nan,nan,0.0,nan,nan,nan,nan,nan,nan,nan,nan,nan,nan,nan,nan,nan,nan,nan,nan,nan,nan,700.3676529326476,967.4379655417288,nan,968.2159361068625,nan,nan,nan,nan
1,119,1,1,nan,nan,nan,0,0.0,0.0,0.0,0.0,0.0,0.0,0.0,0.0,0.0,1,6,5,3,0,8,nan,nan,nan,nan,nan,nan,nan,nan,nan,nan,nan,nan,0.0,nan,nan,nan,nan,nan,nan,nan,nan,nan,nan,nan,nan,nan,nan,nan,nan,nan,nan,700.3676529326476,968.4547464981442,nan,nan,nan,nan,nan,nan
1,120,1,1,nan,nan,nan,0,0.0,0.0,0.0,0.0,0.0,0.0,0.0,0.0,0.0,2,1,6,4,7,0,nan,nan,nan,nan,nan,nan,nan,nan,nan,nan,nan,nan,0.0,nan,nan,nan,nan,nan,nan,nan,nan,nan,nan,nan,nan,nan,nan,nan,nan,nan,nan,700.3676529326476,969.4714992301306,nan,nan,nan,nan,nan,nan
1,121,1,1,nan,nan,nan,0,0.0,0.0,0.0,0.0,0.0,0.0,0.0,0.0,0.0,1,4,3,8,6,2,nan,nan,nan,nan,nan,nan,nan,nan,nan,nan,nan,nan,0.0,nan,nan,nan,nan,nan,nan,nan,nan,nan,nan,nan,nan,nan,nan,nan,nan,nan,nan,700.3676529326476,970.4882750547258,nan,nan,nan,nan,nan,nan
1,122,1,1,nan,nan,nan,0,0.0,0.0,0.0,0.0,0.0,0.0,0.0,0.0,0.0,7,3,4,5,8,1,nan,nan,nan,nan,nan,nan,nan,nan,nan,nan,nan,nan,0.0,nan,nan,nan,nan,nan,nan,nan,nan,nan,nan,nan,nan,nan,nan,nan,nan,nan,nan,700.3676529326476,971.5050762528554,nan,nan,nan,nan,nan,nan
1,123,1,1,nan,nan,nan,0,0.0,0.0,0.0,0.0,0.0,0.0,0.0,0.0,0.0,6,7,8,0,2,4,nan,nan,nan,nan,nan,nan,nan,nan,nan,nan,nan,nan,0.0,nan,nan,nan,nan,nan,nan,nan,nan,nan,nan,nan,nan,nan,nan,nan,nan,nan,nan,700.3676529326476,972.5218651918694,nan,nan,nan,nan,nan,nan
1,124,1,1,nan,nan,nan,0,0.0,0.0,0.0,0.0,0.0,0.0,0.0,0.0,0.0,8,0,5,2,3,6,nan,nan,nan,nan,nan,nan,nan,nan,nan,nan,nan,nan,0.0,nan,nan,nan,nan,nan,nan,nan,nan,nan,nan,nan,nan,nan,nan,nan,nan,nan,nan,700.3676529326476,973.5469677760266,nan,nan,nan,nan,nan,nan
1,125,0,0,0.0,1.0,0.7319443142041564,0,0.0,0.0,0.0,0.45752754433566245,0.18917279612526736,0.26835474821039507,0.6467003404609298,0.18917279612526736,0.7319443142041564,2,6,0,7,5,4,nan,nan,nan,nan,nan,nan,nan,nan,nan,nan,nan,nan,0.0,nan,nan,nan,nan,nan,nan,nan,nan,nan,nan,nan,nan,nan,nan,nan,nan,nan,nan,700.3676529326476,974.5637706846464,nan,975.2957149988506,nan,nan,nan,nan
1,126,1,1,1.0,1.0,0.754774123779498,1,0.0,1.0,1.0,0.46044687167468895,0.19025832671225762,0.27018854496243133,0.6507051983869465,0.19025832671225762,0.7433592189918272,1,2,6,4,8,5,1.0,1.0,1.0,1.0,1.0,1.0,1.0,1.0,0.0,0.0,1.0,1.0,4.0,1.0,2.0,0.0,1.0,8.0,5.0,2.0,1.0,6.0,5.0,4.0,3.0,1.968061131075956,1.1925201426493004,10.318400835618377,5.942993043339811,4.511759156594053,2.943900784710422,700.3676529326476,975.5889231604524,976.3972651440417,976.3436972842319,987.7736485301284,988.7739866524935,977.4141473090276,987.765308371163
1,127,1,1,nan,nan,nan,0,0.0,0.0,0.0,0.0,0.0,0.0,0.0,0.0,0.0,3,6,0,8,4,2,nan,nan,nan,nan,nan,nan,nan,nan,nan,nan,nan,nan,0.0,nan,nan,nan,nan,nan,nan,nan,nan,nan,nan,nan,nan,nan,nan,nan,nan,nan,nan,700.3676529326476,988.99048781686,nan,nan,nan,nan,nan,nan
1,128,1,1,1.0,1.0,0.10409090865869075,0,0.0,0.0,0.0,0.4635450532757922,0.1916232695211903,0.2719217837546019,0.6551683227969824,0.1916232695211903,0.4294325162190944,2,4,7,5,3,8,nan,nan,nan,nan,nan,nan,nan,nan,nan,nan,nan,nan,0.0,nan,nan,nan,nan,nan,nan,nan,nan,nan,nan,nan,nan,nan,nan,nan,nan,nan,nan,700.3676529326476,990.0072282898473,nan,990.111319198506,nan,nan,nan,nan
1,129,1,1,1.0,1.0,0.5272164185298607,0,0.0,0.0,0.0,0.4598007392693641,0.19408470358709723,0.26571603568226687,0.6538854428564613,0.19408470358709723,0.3156536635942757,6,3,8,0,5,1,nan,nan,nan,nan,nan,nan,nan,nan,nan,nan,nan,nan,0.0,nan,nan,nan,nan,nan,nan,nan,nan,nan,nan,nan,nan,nan,nan,nan,nan,nan,nan,700.3676529326476,991.0240400363691,nan,991.551256454899,nan,nan,nan,nan
1,130,0,0,0.0,1.0,0.6463928256416693,0,0.0,0.0,0.0,0.4604957462720496,0.19320172000430044,0.2672940262677491,0.6536974662763501,0.19320172000430044,0.42590005094340694,1,2,3,7,6,8,nan,nan,nan,nan,nan,nan,nan,nan,nan,nan,nan,nan,0.0,nan,nan,nan,nan,nan,nan,nan,nan,nan,nan,nan,nan,nan,nan,nan,nan,nan,nan,700.3676529326476,992.0408343921881,nan,992.6872272178298,nan,nan,nan,nan
1,131,1,1,1.0,1.0,0.6375959450379014,0,0.0,0.0,0.0,0.462392655245209,0.19311926212873376,0.26927339311647525,0.6555119173739428,0.19311926212873376,0.6037350630698105,3,6,7,5,8,0,nan,nan,nan,nan,nan,nan,nan,nan,nan,nan,nan,nan,0.0,nan,nan,nan,nan,nan,nan,nan,nan,nan,nan,nan,nan,nan,nan,nan,nan,nan,nan,700.3676529326476,993.0576190548018,nan,993.6952149998397,nan,nan,nan,nan
1,132,1,1,nan,nan,nan,0,0.0,0.0,0.0,0.0,0.0,0.0,0.0,0.0,0.0,6,7,8,0,5,1,nan,nan,nan,nan,nan,nan,nan,nan,nan,nan,nan,nan,0.0,nan,nan,nan,nan,nan,nan,nan,nan,nan,nan,nan,nan,nan,nan,nan,nan,nan,nan,700.3676529326476,994.0743823352968,nan,nan,nan,nan,nan,nan
1,133,1,1,nan,nan,nan,0,0.0,0.0,0.0,0.0,0.0,0.0,0.0,0.0,0.0,8,2,5,1,6,7,nan,nan,nan,nan,nan,nan,nan,nan,nan,nan,nan,nan,0.0,nan,nan,nan,nan,nan,nan,nan,nan,nan,nan,nan,nan,nan,nan,nan,nan,nan,nan,700.3676529326476,995.09116272151,nan,nan,nan,nan,nan,nan
1,134,1,1,nan,nan,nan,0,0.0,0.0,0.0,0.0,0.0,0.0,0.0,0.0,0.0,7,0,6,4,2,3,nan,nan,nan,nan,nan,nan,nan,nan,nan,nan,nan,nan,0.0,nan,nan,nan,nan,nan,nan,nan,nan,nan,nan,nan,nan,nan,nan,nan,nan,nan,nan,700.3676529326476,996.1079485244118,nan,nan,nan,nan,nan,nan
1,135,1,1,nan,nan,nan,0,0.0,0.0,0.0,0.0,0.0,0.0,0.0,0.0,0.0,4,5,3,0,8,1,nan,nan,nan,nan,nan,nan,nan,nan,nan,nan,nan,nan,0.0,nan,nan,nan,nan,nan,nan,nan,nan,nan,nan,nan,nan,nan,nan,nan,nan,nan,nan,700.3676529326476,997.1247360380366,nan,nan,nan,nan,nan,nan
1,136,1,1,nan,nan,nan,0,0.0,0.0,0.0,0.0,0.0,0.0,0.0,0.0,0.0,1,6,0,4,3,7,nan,nan,nan,nan,nan,nan,nan,nan,nan,nan,nan,nan,0.0,nan,nan,nan,nan,nan,nan,nan,nan,nan,nan,nan,nan,nan,nan,nan,nan,nan,nan,700.3676529326476,998.1415184198413,nan,nan,nan,nan,nan,nan
1,137,1,1,1.0,1.0,0.032732857507653534,1,1.0,0.0,1.0,0.46416238544513516,0.19293849367733631,0.2712238917677988,0.6571008791224715,0.19293849367733631,0.032732857507653534,3,7,4,1,5,6,1.0,1.0,1.0,1.0,1.0,1.0,1.0,1.0,0.0,0.0,0.0,0.0,2.0,3.0,7.0,2.0,8.0,4.0,4.0,2.0,1.0,5.0,4.0,6.0,3.0,2.3486593565903604,1.1436298307962716,7.83629180805292,4.3967189026298,12.532483542221598,3.3407813360681757,700.3676529326476,999.1583170520607,999.9667177650845,999.1910499095684,1013.5516370562837,1014.560050769709,1000.9835141166113,1013.5433043097146
1,138,1,1,1.0,1.0,0.6640276405960321,0,0.0,0.0,0.0,0.4598480901657604,0.19671225419648034,0.26313583596928003,0.6565603443622408,0.19671225419648034,0.34838024905184284,0,5,2,7,4,3,nan,nan,nan,nan,nan,nan,nan,nan,nan,nan,nan,nan,0.0,nan,nan,nan,nan,nan,nan,nan,nan,nan,nan,nan,nan,nan,nan,nan,nan,nan,nan,700.3676529326476,1014.7905095980968,nan,1015.4545372386929,nan,nan,nan,nan
1,139,1,1,1.0,1.0,0.660251276800409,0,0.0,0.0,0.0,0.4618696698729908,0.1967771926604521,0.2650924772125387,0.6586468625334428,0.1967771926604521,0.4523372583013649,1,6,3,0,5,2,nan,nan,nan,nan,nan,nan,nan,nan,nan,nan,nan,nan,0.0,nan,nan,nan,nan,nan,nan,nan,nan,nan,nan,nan,nan,nan,nan,nan,nan,nan,nan,700.3676529326476,1015.8102737849113,nan,1016.4705250617117,nan,nan,nan,nan
1,140,0,0,nan,nan,nan,0,0.0,0.0,0.0,0.0,0.0,0.0,0.0,0.0,0.0,5,2,4,6,8,0,nan,nan,nan,nan,nan,nan,nan,nan,nan,nan,nan,nan,0.0,nan,nan,nan,nan,nan,nan,nan,nan,nan,nan,nan,nan,nan,nan,nan,nan,nan,nan,700.3676529326476,1016.8353795051808,nan,nan,nan,nan,nan,nan
1,141,1,1,1.0,1.0,0.7939794851699844,1,0.0,1.0,1.0,0.46381458758796545,0.1967833745954001,0.2670312129925654,0.6605979621833655,0.1967833745954001,0.7271153809851967,1,0,7,4,5,8,1.0,1.0,1.0,1.0,1.0,1.0,1.0,0.0,0.0,0.0,0.0,1.0,2.0,1.0,4.0,6.0,2.0,0.0,8.0,2.0,1.0,6.0,5.0,4.0,3.0,1.8458752648439258,1.0626119174994528,6.221974696731195,5.334331354708411,4.430187589372508,3.0303531723329797,700.3676529326476,1017.8604932080489,1018.6689081758959,1018.6544726932188,1025.9447580643464,1026.946100860252,1019.6857013913104,1025.936471788329
1,142,1,1,1.0,1.0,0.6683094770414755,0,0.0,0.0,0.0,0.4670200720305093,0.19848375654118972,0.2685363154893196,0.665503828571699,0.19848375654118972,0.7311444811057299,5,1,2,7,3,4,nan,nan,nan,nan,nan,nan,nan,nan,nan,nan,nan,nan,0.0,nan,nan,nan,nan,nan,nan,nan,nan,nan,nan,nan,nan,nan,nan,nan,nan,nan,nan,700.3676529326476,1027.16992667655,nan,1027.8382361535914,nan,nan,nan,nan
1,143,1,1,1.0,1.0,0.6831207145005465,0,0.0,0.0,0.0,0.4689555470786917,0.19850148710572435,0.27045405997296734,0.667457034184416,0.19850148710572435,0.7151365589040021,2,5,7,0,8,6,nan,nan,nan,nan,nan,nan,nan,nan,nan,nan,nan,nan,0.0,nan,nan,nan,nan,nan,nan,nan,nan,nan,nan,nan,nan,nan,nan,nan,nan,nan,nan,700.3676529326476,1028.1950480769156,nan,1028.878168791416,nan,nan,nan,nan
1,144,1,1,nan,nan,nan,0,0.0,0.0,0.0,0.0,0.0,0.0,0.0,0.0,0.0,4,2,6,1,0,8,nan,nan,nan,nan,nan,nan,nan,nan,nan,nan,nan,nan,0.0,nan,nan,nan,nan,nan,nan,nan,nan,nan,nan,nan,nan,nan,nan,nan,nan,nan,nan,700.3676529326476,1029.2118427178357,nan,nan,nan,nan,nan,nan
1,145,0,0,0.0,1.0,0.7771566198207438,0,0.0,0.0,0.0,0.4709952153398522,0.19864601905071855,0.2723491962891337,0.6696412343905708,0.19864601905071855,0.7301386671606451,1,4,7,6,3,5,nan,nan,nan,nan,nan,nan,nan,nan,nan,nan,nan,nan,0.0,nan,nan,nan,nan,nan,nan,nan,nan,nan,nan,nan,nan,nan,nan,nan,nan,nan,nan,700.3676529326476,1030.236937034293,nan,1031.0140936541138,nan,nan,nan,nan
1,146,1,1,nan,nan,nan,0,0.0,0.0,0.0,0.0,0.0,0.0,0.0,0.0,0.0,0,6,4,5,8,7,nan,nan,nan,nan,nan,nan,nan,nan,nan,nan,nan,nan,0.0,nan,nan,nan,nan,nan,nan,nan,nan,nan,nan,nan,nan,nan,nan,nan,nan,nan,nan,700.3676529326476,1031.2621009137947,nan,nan,nan,nan,nan,nan
1,147,0,0,nan,nan,nan,0,0.0,0.0,0.0,0.0,0.0,0.0,0.0,0.0,0.0,6,2,0,8,7,4,nan,nan,nan,nan,nan,nan,nan,nan,nan,nan,nan,nan,0.0,nan,nan,nan,nan,nan,nan,nan,nan,nan,nan,nan,nan,nan,nan,nan,nan,nan,nan,700.3676529326476,1032.2871986513492,nan,nan,nan,nan,nan,nan
1,148,1,1,1.0,1.0,0.6697087215725332,0,0.0,0.0,0.0,0.4738835304764644,0.19990978644313065,0.27397374403333374,0.6737933169195951,0.19990978644313065,0.6697087215725332,5,0,6,3,8,2,nan,nan,nan,nan,nan,nan,nan,nan,nan,nan,nan,nan,0.0,nan,nan,nan,nan,nan,nan,nan,nan,nan,nan,nan,nan,nan,nan,nan,nan,nan,nan,700.3676529326476,1033.3123166307341,nan,1033.9820253523067,nan,nan,nan,nan
1,149,1,1,1.0,1.0,0.7485336868558079,1,0.0,1.0,1.0,0.4757136724493249,0.1998636199833417,0.27585005246598315,0.6755772924326666,0.1998636199833417,0.7091212042141706,0,4,8,2,5,3,1.0,1.0,1.0,1.0,1.0,1.0,0.0,0.0,0.0,0.0,0.0,0.0,0.0,4.0,2.0,0.0,5.0,2.0,0.0,2.0,1.0,6.0,5.0,4.0,3.0,1.8643907370278612,1.0193217198830098,6.256664728978649,4.977120583993383,3.9846909873886034,2.6904319669120014,700.3676529326476,1034.337440882111,1035.1458692493616,1035.0859745689668,1042.455022469745,1043.4660479351878,1036.162639942253,1042.4466962803854
1,150,1,1,1.0,1.0,0.500899616163224,0,0.0,0.0,0.0,0.47823978369382936,0.20064494419129744,0.27759483950253194,0.6788847278851268,0.20064494419129744,0.6397140081971884,4,8,5,0,6,2,nan,nan,nan,nan,nan,nan,nan,nan,nan,nan,nan,nan,0.0,nan,nan,nan,nan,nan,nan,nan,nan,nan,nan,nan,nan,nan,nan,nan,nan,nan,nan,700.3676529326476,1043.6968580003595,nan,1044.1977576165227,nan,nan,nan,nan
1,151,1,1,1.0,1.0,0.6756880118045956,0,0.0,0.0,0.0,0.4784476720651082,0.19973411843447805,0.2787135536306301,0.6781817904995863,0.19973411843447805,0.6417071049412092,8,5,0,7,2,3,nan,nan,nan,nan,nan,nan,nan,nan,nan,nan,nan,nan,0.0,nan,nan,nan,nan,nan,nan,nan,nan,nan,nan,nan,nan,nan,nan,nan,nan,nan,nan,700.3676529326476,1044.7220061996486,nan,1045.3976942114532,nan,nan,nan,nan
1,152,1,1,1.0,1.0,0.610605749185197,0,0.0,0.0,0.0,0.4802407660627399,0.19970353824043244,0.2805372278223075,0.6799443043031723,0.19970353824043244,0.5957311257176722,0,6,7,3,5,4,nan,nan,nan,nan,nan,nan,nan,nan,nan,nan,nan,nan,0.0,nan,nan,nan,nan,nan,nan,nan,nan,nan,nan,nan,nan,nan,nan,nan,nan,nan,nan,700.3676529326476,1045.7470831252867,nan,1046.357688874472,nan,nan,nan,nan
1,153,1,1,1.0,1.0,0.6253961746115237,0,0.0,0.0,0.0,0.4814152253701494,0.1991831804580355,0.2822320449121139,0.6805984058281849,0.1991831804580355,0.6372299785337722,3,2,4,0,8,6,nan,nan,nan,nan,nan,nan,nan,nan,nan,nan,nan,nan,0.0,nan,nan,nan,nan,nan,nan,nan,nan,nan,nan,nan,nan,nan,nan,nan,nan,nan,nan,700.3676529326476,1046.7722663913155,nan,1047.397662565927,nan,nan,nan,nan
1,154,1,1,1.0,1.0,0.680249241180718,0,0.0,0.0,0.0,0.48270076955980457,0.1987539912169044,0.28394677834290016,0.681454760776709,0.1987539912169044,0.6387503883258129,5,6,1,3,0,7,nan,nan,nan,nan,nan,nan,nan,nan,nan,nan,nan,nan,0.0,nan,nan,nan,nan,nan,nan,nan,nan,nan,nan,nan,nan,nan,nan,nan,nan,nan,nan,700.3676529326476,1047.7973806643859,nan,1048.4776299055666,nan,nan,nan,nan
1,155,1,1,1.0,1.0,0.7587603172287345,1,0.0,1.0,1.0,0.4844489861228215,0.19873566585790733,0.28571332026491414,0.6831846519807289,0.19873566585790733,0.6881352443403254,2,3,0,8,4,5,1.0,1.0,1.0,1.0,1.0,1.0,0.0,0.0,0.0,1.0,0.0,0.0,1.0,3.0,5.0,4.0,8.0,0.0,1.0,5.0,4.0,1.0,2.0,3.0,6.0,7.779388911090791,5.258972285198979,1.1327155522303656,2.0925397287355736,2.858915494289249,8.61067046574317,700.3676529326476,1048.8308219820028,1049.6392309628427,1049.5895822992316,1059.3069967644988,1060.3135687663453,1050.6560344416648,1059.2986677241279
1,156,1,1,1.0,1.0,0.6806959845125675,0,0.0,0.0,0.0,0.4868552258693646,0.19950859321587996,0.2873466326534846,0.6863638190852446,0.19950859321587996,0.70656851430734,7,5,2,0,6,1,nan,nan,nan,nan,nan,nan,nan,nan,nan,nan,nan,nan,0.0,nan,nan,nan,nan,nan,nan,nan,nan,nan,nan,nan,nan,nan,nan,nan,nan,nan,nan,700.3676529326476,1060.5405602736864,nan,1061.221256258199,nan,nan,nan,nan
1,157,1,1,1.0,1.0,0.7191891794791445,0,0.0,0.0,0.0,0.4885407976836533,0.1994528796183897,0.2890879180652636,0.687993677302043,0.1994528796183897,0.7195484937401488,8,0,4,6,1,5,nan,nan,nan,nan,nan,nan,nan,nan,nan,nan,nan,nan,0.0,nan,nan,nan,nan,nan,nan,nan,nan,nan,nan,nan,nan,nan,nan,nan,nan,nan,nan,700.3676529326476,1061.5739981702063,nan,1062.2931873496855,nan,nan,nan,nan
1,158,1,1,nan,nan,nan,0,0.0,0.0,0.0,0.0,0.0,0.0,0.0,0.0,0.0,2,7,1,3,0,8,nan,nan,nan,nan,nan,nan,nan,nan,nan,nan,nan,nan,0.0,nan,nan,nan,nan,nan,nan,nan,nan,nan,nan,nan,nan,nan,nan,nan,nan,nan,nan,700.3676529326476,1062.5990371783264,nan,nan,nan,nan,nan,nan
1,159,1,1,1.0,1.0,0.012986061512492597,0,0.0,0.0,0.0,0.49052914580257995,0.19973272989467108,0.29079641590790883,0.6902618756972511,0.19973272989467108,0.36608762049581856,6,8,2,4,3,7,nan,nan,nan,nan,nan,nan,nan,nan,nan,nan,nan,nan,0.0,nan,nan,nan,nan,nan,nan,nan,nan,nan,nan,nan,nan,nan,nan,nan,nan,nan,nan,700.3676529326476,1063.6242016280303,nan,1063.6371876895428,nan,nan,nan,nan
1,160,1,1,nan,nan,nan,0,0.0,0.0,0.0,0.0,0.0,0.0,0.0,0.0,0.0,4,6,3,2,5,1,nan,nan,nan,nan,nan,nan,nan,nan,nan,nan,nan,nan,0.0,nan,nan,nan,nan,nan,nan,nan,nan,nan,nan,nan,nan,nan,nan,nan,nan,nan,nan,700.3676529326476,1064.649350112537,nan,nan,nan,nan,nan,nan
1,161,1,1,nan,nan,nan,0,0.0,0.0,0.0,0.0,0.0,0.0,0.0,0.0,0.0,7,1,0,6,3,4,nan,nan,nan,nan,nan,nan,nan,nan,nan,nan,nan,nan,0.0,nan,nan,nan,nan,nan,nan,nan,nan,nan,nan,nan,nan,nan,nan,nan,nan,nan,nan,700.3676529326476,1065.6744732235093,nan,nan,nan,nan,nan,nan
1,162,1,1,nan,nan,nan,0,0.0,0.0,0.0,0.0,0.0,0.0,0.0,0.0,0.0,8,4,3,1,5,6,nan,nan,nan,nan,nan,nan,nan,nan,nan,nan,nan,nan,0.0,nan,nan,nan,nan,nan,nan,nan,nan,nan,nan,nan,nan,nan,nan,nan,nan,nan,nan,700.3676529326476,1066.6995926282834,nan,nan,nan,nan,nan,nan
1,163,1,1,1.0,1.0,0.16037686087656766,1,1.0,0.0,1.0,0.48644758097958773,0.20367783400655887,0.28276974697302887,0.6901254149861467,0.20367783400655887,0.16037686087656766,4,6,8,5,2,1,1.0,1.0,1.0,1.0,1.0,1.0,0.0,0.0,0.0,0.0,0.0,0.0,0.0,6.0,4.0,3.0,7.0,1.0,2.0,2.0,1.0,6.0,5.0,4.0,3.0,5.269955841707997,4.509480680222623,10.396327752852812,8.164600538206287,7.212247552233748,5.980809138622135,700.3676529326476,1067.72470176965,1068.5331127460813,1067.8850786305266,1079.9761153401341,1080.983000376029,1069.5415803423384,1079.9677777470788
1,164,1,1,1.0,1.0,0.7150367758003995,0,0.0,0.0,0.0,0.483684269792274,0.20500364418661282,0.2786806256056612,0.6886879139788868,0.20500364418661282,0.43770681833848357,0,7,6,3,5,8,nan,nan,nan,nan,nan,nan,nan,nan,nan,nan,nan,nan,0.0,nan,nan,nan,nan,nan,nan,nan,nan,nan,nan,nan,nan,nan,nan,nan,nan,nan,nan,700.3676529326476,1081.2096067204839,nan,1081.9246434962843,nan,nan,nan,nan
1,165,1,1,nan,nan,nan,0,0.0,0.0,0.0,0.0,0.0,0.0,0.0,0.0,0.0,3,8,5,0,4,6,nan,nan,nan,nan,nan,nan,nan,nan,nan,nan,nan,nan,0.0,nan,nan,nan,nan,nan,nan,nan,nan,nan,nan,nan,nan,nan,nan,nan,nan,nan,nan,700.3676529326476,1082.2347192829475,nan,nan,nan,nan,nan,nan
1,166,0,0,0.0,1.0,0.6487745062913746,0,0.0,0.0,0.0,0.48562840849822464,0.20522994908130665,0.280398459416918,0.6908583575795313,0.20522994908130665,0.681905641045887,8,3,6,7,0,2,nan,nan,nan,nan,nan,nan,nan,nan,nan,nan,nan,nan,0.0,nan,nan,nan,nan,nan,nan,nan,nan,nan,nan,nan,nan,nan,nan,nan,nan,nan,nan,700.3676529326476,1083.2598358368268,nan,1083.9086103431182,nan,nan,nan,nan
1,167,1,1,1.0,1.0,0.5916150241391733,0,0.0,0.0,0.0,0.4869879593131676,0.20491045507336636,0.2820775042398012,0.6918984143865339,0.20491045507336636,0.620194765215274,0,8,1,5,6,3,nan,nan,nan,nan,nan,nan,nan,nan,nan,nan,nan,nan,0.0,nan,nan,nan,nan,nan,nan,nan,nan,nan,nan,nan,nan,nan,nan,nan,nan,nan,nan,700.3676529326476,1084.2849578073947,nan,1084.8765728315338,nan,nan,nan,nan
1,168,1,1,nan,nan,nan,0,0.0,0.0,0.0,0.0,0.0,0.0,0.0,0.0,0.0,6,4,8,2,3,7,nan,nan,nan,nan,nan,nan,nan,nan,nan,nan,nan,nan,0.0,nan,nan,nan,nan,nan,nan,nan,nan,nan,nan,nan,nan,nan,nan,nan,nan,nan,nan,700.3676529326476,1085.310075501562,nan,nan,nan,nan,nan,nan
1,169,1,1,1.0,1.0,0.773315824684687,0,0.0,0.0,0.0,0.4878526457993329,0.20428168255019052,0.2835709632491424,0.6921343283495234,0.20428168255019052,0.6824654244119301,2,0,7,4,6,3,nan,nan,nan,nan,nan,nan,nan,nan,nan,nan,nan,nan,0.0,nan,nan,nan,nan,nan,nan,nan,nan,nan,nan,nan,nan,nan,nan,nan,nan,nan,nan,700.3676529326476,1086.3351874939399,nan,1087.1085033186246,nan,nan,nan,nan
1,170,1,1,nan,nan,nan,0,0.0,0.0,0.0,0.0,0.0,0.0,0.0,0.0,0.0,4,5,8,0,7,1,nan,nan,nan,nan,nan,nan,nan,nan,nan,nan,nan,nan,0.0,nan,nan,nan,nan,nan,nan,nan,nan,nan,nan,nan,nan,nan,nan,nan,nan,nan,nan,700.3676529326476,1087.3603120304178,nan,nan,nan,nan,nan,nan
1,171,1,1,nan,nan,nan,0,0.0,0.0,0.0,0.0,0.0,0.0,0.0,0.0,0.0,5,2,6,7,1,3,nan,nan,nan,nan,nan,nan,nan,nan,nan,nan,nan,nan,0.0,nan,nan,nan,nan,nan,nan,nan,nan,nan,nan,nan,nan,nan,nan,nan,nan,nan,nan,700.3676529326476,1088.3854610850103,nan,nan,nan,nan,nan,nan
1,172,1,1,1.0,1.0,0.7778918789699674,1,0.0,1.0,1.0,0.490192507921344,0.2050644238416065,0.2851280840797375,0.6952569317629504,0.2050644238416065,0.7778918789699674,7,5,1,4,3,0,1.0,1.0,1.0,1.0,1.0,1.0,1.0,1.0,0.0,0.0,0.0,1.0,3.0,7.0,5.0,3.0,8.0,1.0,0.0,2.0,1.0,6.0,5.0,4.0,3.0,1.8463268547784537,0.9502344476059079,7.005944223492406,6.062783829518594,4.775197164271958,2.743728701607324,700.3676529326476,1089.4105297429487,1090.21894071938,1090.1884216219187,1098.2698985376628,1099.2656822728459,1091.2273914951365,1098.261566361296
1,173,1,1,1.0,1.0,0.6214048495749012,0,0.0,0.0,0.0,0.49253152719816207,0.20585674592438102,0.28667478127378104,0.698388273122543,0.20585674592438102,0.6996483642724343,8,7,3,1,2,5,nan,nan,nan,nan,nan,nan,nan,nan,nan,nan,nan,nan,0.0,nan,nan,nan,nan,nan,nan,nan,nan,nan,nan,nan,nan,nan,nan,nan,nan,nan,nan,700.3676529326476,1099.4867272758856,nan,1100.1081321254605,nan,nan,nan,nan
1,174,1,1,1.0,1.0,0.6999130747281015,0,0.0,0.0,0.0,0.49357082818507125,0.20534874693660962,0.2882220812484616,0.6989195751216809,0.20534874693660962,0.69973660109099,7,4,6,2,5,8,nan,nan,nan,nan,nan,nan,nan,nan,nan,nan,nan,nan,0.0,nan,nan,nan,nan,nan,nan,nan,nan,nan,nan,nan,nan,nan,nan,nan,nan,nan,nan,700.3676529326476,1100.520175150712,nan,1101.2200882254401,nan,nan,nan,nan
1,175,1,1,1.0,1.0,0.6991073972312734,0,0.0,0.0,0.0,0.4952215661574155,0.20535007925808627,0.2898714868993293,0.7005716454155018,0.20535007925808627,0.673475107178092,2,8,5,0,7,4,nan,nan,nan,nan,nan,nan,nan,nan,nan,nan,nan,nan,0.0,nan,nan,nan,nan,nan,nan,nan,nan,nan,nan,nan,nan,nan,nan,nan,nan,nan,nan,700.3676529326476,1101.5369686512277,nan,1102.236076048459,nan,nan,nan,nan
1,176,1,1,1.0,1.0,0.7223166677867994,1,0.0,1.0,1.0,0.4968397076738747,0.2053321234773724,0.2915075841965023,0.702171831151247,0.2053321234773724,0.7071123799153914,5,7,8,6,3,1,1.0,1.0,1.0,1.0,1.0,1.0,1.0,1.0,0.0,0.0,0.0,0.0,2.0,5.0,7.0,1.0,8.0,6.0,3.0,2.0,1.0,4.0,5.0,6.0,3.0,4.262276817229576,1.152318945620209,7.374364060699008,8.550297966692597,10.094140820205212,6.110049101873301,700.3676529326476,1102.5537339274306,1103.3621477548731,1103.2760505952174,1114.5134663033532,1115.5204277446028,1104.3789355534827,1114.5051341271028
1,177,1,1,nan,nan,nan,0,0.0,0.0,0.0,0.0,0.0,0.0,0.0,0.0,0.0,0,1,3,4,6,8,nan,nan,nan,nan,nan,nan,nan,nan,nan,nan,nan,nan,0.0,nan,nan,nan,nan,nan,nan,nan,nan,nan,nan,nan,nan,nan,nan,nan,nan,nan,nan,700.3676529326476,1115.7386400471441,nan,nan,nan,nan,nan,nan
1,178,1,1,nan,nan,nan,0,0.0,0.0,0.0,0.0,0.0,0.0,0.0,0.0,0.0,6,8,0,3,2,7,nan,nan,nan,nan,nan,nan,nan,nan,nan,nan,nan,nan,0.0,nan,nan,nan,nan,nan,nan,nan,nan,nan,nan,nan,nan,nan,nan,nan,nan,nan,nan,700.3676529326476,1116.7554061786504,nan,nan,nan,nan,nan,nan
1,179,1,1,nan,nan,nan,0,0.0,0.0,0.0,0.0,0.0,0.0,0.0,0.0,0.0,0,5,4,7,3,6,nan,nan,nan,nan,nan,nan,nan,nan,nan,nan,nan,nan,0.0,nan,nan,nan,nan,nan,nan,nan,nan,nan,nan,nan,nan,nan,nan,nan,nan,nan,nan,700.3676529326476,1117.7721820032457,nan,nan,nan,nan,nan,nan
1,180,1,1,nan,nan,nan,0,0.0,0.0,0.0,0.0,0.0,0.0,0.0,0.0,0.0,1,8,3,0,7,2,nan,nan,nan,nan,nan,nan,nan,nan,nan,nan,nan,nan,0.0,nan,nan,nan,nan,nan,nan,nan,nan,nan,nan,nan,nan,nan,nan,nan,nan,nan,nan,700.3676529326476,1118.7890014473815,nan,nan,nan,nan,nan,nan
1,181,1,1,nan,nan,nan,0,0.0,0.0,0.0,0.0,0.0,0.0,0.0,0.0,0.0,0,5,2,4,1,3,nan,nan,nan,nan,nan,nan,nan,nan,nan,nan,nan,nan,0.0,nan,nan,nan,nan,nan,nan,nan,nan,nan,nan,nan,nan,nan,nan,nan,nan,nan,nan,700.3676529326476,1119.8057786975987,nan,nan,nan,nan,nan,nan
1,182,1,1,nan,nan,nan,0,0.0,0.0,0.0,0.0,0.0,0.0,0.0,0.0,0.0,5,2,7,8,6,1,nan,nan,nan,nan,nan,nan,nan,nan,nan,nan,nan,nan,0.0,nan,nan,nan,nan,nan,nan,nan,nan,nan,nan,nan,nan,nan,nan,nan,nan,nan,nan,700.3676529326476,1120.8225431183819,nan,nan,nan,nan,nan,nan
1,183,1,1,nan,nan,nan,0,0.0,0.0,0.0,0.0,0.0,0.0,0.0,0.0,0.0,7,0,5,2,8,4,nan,nan,nan,nan,nan,nan,nan,nan,nan,nan,nan,nan,0.0,nan,nan,nan,nan,nan,nan,nan,nan,nan,nan,nan,nan,nan,nan,nan,nan,nan,nan,700.3676529326476,1121.8393483078107,nan,nan,nan,nan,nan,nan
1,184,0,0,1.0,0.0,0.03539336076937616,0,0.0,0.0,0.0,0.49861511680862214,0.20549078840370713,0.293124328404915,0.7041059052123293,0.20549078840370713,0.03539336076937616,6,4,7,5,1,8,nan,nan,nan,nan,nan,nan,nan,nan,nan,nan,nan,nan,0.0,nan,nan,nan,nan,nan,nan,nan,nan,nan,nan,nan,nan,nan,nan,nan,nan,nan,nan,700.3676529326476,1122.856115579605,nan,1122.8915089403745,nan,nan,nan,nan
1,185,1,1,1.0,1.0,0.6581102157942951,0,0.0,0.0,0.0,0.4949961968395655,0.20870993208071972,0.2862862647588458,0.7037061289202853,0.20870993208071972,0.3467517882818356,3,5,0,7,6,1,nan,nan,nan,nan,nan,nan,nan,nan,nan,nan,nan,nan,0.0,nan,nan,nan,nan,nan,nan,nan,nan,nan,nan,nan,nan,nan,nan,nan,nan,nan,nan,700.3676529326476,1123.8813059730455,nan,1124.5394161888398,nan,nan,nan,nan
1,186,1,1,1.0,1.0,0.4573673731647432,0,0.0,0.0,0.0,0.4962606465989045,0.20839101048897168,0.2878696361099328,0.7046516570878762,0.20839101048897168,0.38362364990947145,0,3,2,4,1,8,nan,nan,nan,nan,nan,nan,nan,nan,nan,nan,nan,nan,0.0,nan,nan,nan,nan,nan,nan,nan,nan,nan,nan,nan,nan,nan,nan,nan,nan,nan,nan,700.3676529326476,1124.8980376080144,nan,1125.3554049811792,nan,nan,nan,nan
1,187,1,1,1.0,1.0,0.600539056933485,0,0.0,0.0,0.0,0.4959614675724879,0.20761576863660802,0.28834569893587986,0.703577236209096,0.20761576863660802,0.5720055486308411,2,8,0,5,6,4,nan,nan,nan,nan,nan,nan,nan,nan,nan,nan,nan,nan,0.0,nan,nan,nan,nan,nan,nan,nan,nan,nan,nan,nan,nan,nan,nan,nan,nan,nan,nan,700.3676529326476,1125.9148302532267,nan,1126.5153693101602,nan,nan,nan,nan
1,188,1,1,1.0,1.0,0.6389957597712055,0,0.0,0.0,0.0,0.49675976978135045,0.2070220135790781,0.2897377562022724,0.7037817833604285,0.2070220135790781,0.5656340632898113,1,5,7,6,3,0,nan,nan,nan,nan,nan,nan,nan,nan,nan,nan,nan,nan,0.0,nan,nan,nan,nan,nan,nan,nan,nan,nan,nan,nan,nan,nan,nan,nan,nan,nan,nan,700.3676529326476,1126.9482989399694,nan,1127.5872946997406,nan,nan,nan,nan
1,189,1,1,1.0,1.0,0.7502180261071771,0,0.0,0.0,0.0,0.49783731516006147,0.2066047822616142,0.2912325328984473,0.7044420974216756,0.2066047822616142,0.6632509476039559,8,7,1,5,0,3,nan,nan,nan,nan,nan,nan,nan,nan,nan,nan,nan,nan,0.0,nan,nan,nan,nan,nan,nan,nan,nan,nan,nan,nan,nan,nan,nan,nan,nan,nan,nan,700.3676529326476,1127.9650702031795,nan,1128.7152882292867,nan,nan,nan,nan
1,190,0,0,0.0,1.0,0.7333894589683041,0,0.0,0.0,0.0,0.4997349144904909,0.20697803931373057,0.2927568751767603,0.7067129538042215,0.20697803931373057,0.7075344149488956,1,4,0,8,6,2,nan,nan,nan,nan,nan,nan,nan,nan,nan,nan,nan,nan,0.0,nan,nan,nan,nan,nan,nan,nan,nan,nan,nan,nan,nan,nan,nan,nan,nan,nan,nan,700.3676529326476,1128.9818739671027,nan,1129.715263426071,nan,nan,nan,nan
1,191,1,1,nan,nan,nan,0,0.0,0.0,0.0,0.0,0.0,0.0,0.0,0.0,0.0,6,1,5,0,4,8,nan,nan,nan,nan,nan,nan,nan,nan,nan,nan,nan,nan,0.0,nan,nan,nan,nan,nan,nan,nan,nan,nan,nan,nan,nan,nan,nan,nan,nan,nan,nan,700.3676529326476,1129.9986190014752,nan,nan,nan,nan,nan,nan
1,192,1,1,1.0,1.0,0.7877493116538972,1,0.0,1.0,1.0,0.5014786051209223,0.20718250102138744,0.2942961040995349,0.7086611061423098,0.20718250102138744,0.7605693853111006,7,3,8,5,2,4,1.0,1.0,1.0,1.0,1.0,1.0,1.0,1.0,0.0,0.0,0.0,1.0,3.0,7.0,3.0,0.0,1.0,5.0,4.0,2.0,1.0,6.0,5.0,4.0,3.0,2.281319999601692,1.106491120532155,7.639710206887685,6.752235070802271,4.448675692547113,3.168030226835981,700.3676529326476,1131.0154398711165,1131.8238283251412,1131.8031891827704,1140.5081766571384,1141.5093016406754,1132.832288509002,1140.4998456212925
1,193,1,1,1.0,1.0,0.6695807141950354,0,0.0,0.0,0.0,0.5035991288730185,0.20786816982095133,0.29573095905206714,0.7114672986939699,0.20786816982095133,0.7286650129244663,1,7,6,3,4,8,nan,nan,nan,nan,nan,nan,nan,nan,nan,nan,nan,nan,0.0,nan,nan,nan,nan,nan,nan,nan,nan,nan,nan,nan,nan,nan,nan,nan,nan,nan,nan,700.3676529326476,1141.7333378568292,nan,1142.4029185710242,nan,nan,nan,nan
1,194,1,1,nan,nan,nan,0,0.0,0.0,0.0,0.0,0.0,0.0,0.0,0.0,0.0,7,1,0,2,8,3,nan,nan,nan,nan,nan,nan,nan,nan,nan,nan,nan,nan,0.0,nan,nan,nan,nan,nan,nan,nan,nan,nan,nan,nan,nan,nan,nan,nan,nan,nan,nan,700.3676529326476,1142.750131642446,nan,nan,nan,nan,nan,nan
1,195,1,1,nan,nan,nan,0,0.0,0.0,0.0,0.0,0.0,0.0,0.0,0.0,0.0,2,0,6,5,3,4,nan,nan,nan,nan,nan,nan,nan,nan,nan,nan,nan,nan,0.0,nan,nan,nan,nan,nan,nan,nan,nan,nan,nan,nan,nan,nan,nan,nan,nan,nan,nan,700.3676529326476,1143.7669402529718,nan,nan,nan,nan,nan,nan
1,196,1,1,nan,nan,nan,0,0.0,0.0,0.0,0.0,0.0,0.0,0.0,0.0,0.0,3,8,0,6,7,2,nan,nan,nan,nan,nan,nan,nan,nan,nan,nan,nan,nan,0.0,nan,nan,nan,nan,nan,nan,nan,nan,nan,nan,nan,nan,nan,nan,nan,nan,nan,nan,700.3676529326476,1144.783709520474,nan,nan,nan,nan,nan,nan
1,197,1,1,1.0,1.0,0.018298515235073864,1,1.0,0.0,1.0,0.5048195817062686,0.20758743865194204,0.29723214305432655,0.7124070203582107,0.20758743865194204,0.018298515235073864,2,0,7,1,6,5,1.0,1.0,1.0,1.0,1.0,1.0,1.0,1.0,1.0,1.0,0.0,0.0,4.0,2.0,0.0,7.0,1.0,3.0,6.0,2.0,1.0,5.0,4.0,6.0,3.0,1.9033129995223135,0.9105181966442615,5.463403397239745,3.9909468193072826,6.414565542829223,2.9187269270187244,700.3676529326476,1145.800509293098,1146.608901738422,1145.818807808333,1154.0680825987365,1155.065334571409,1147.6173476674594,1154.0597549839877
1,198,1,1,1.0,1.0,0.7975845070322976,0,0.0,0.0,0.0,0.5012683330458949,0.2109339860780601,0.2903343469678348,0.712202319123955,0.2109339860780601,0.4079415111336857,8,7,0,3,5,4,nan,nan,nan,nan,nan,nan,nan,nan,nan,nan,nan,nan,0.0,nan,nan,nan,nan,nan,nan,nan,nan,nan,nan,nan,nan,nan,nan,nan,nan,nan,nan,700.3676529326476,1155.2849449781934,nan,1156.0825294852257,nan,nan,nan,nan
1,199,1,1,nan,nan,nan,0,0.0,0.0,0.0,0.0,0.0,0.0,0.0,0.0,0.0,6,1,8,2,4,0,nan,nan,nan,nan,nan,nan,nan,nan,nan,nan,nan,nan,0.0,nan,nan,nan,nan,nan,nan,nan,nan,nan,nan,nan,nan,nan,nan,nan,nan,nan,nan,700.3676529326476,1156.3100355883362,nan,nan,nan,nan,nan,nan
1,200,1,1,1.0,1.0,0.747282691532746,1,0.0,1.0,1.0,0.5034155516979703,0.21166572099796171,0.29174983070000854,0.7150812726959319,0.21166572099796171,0.7724335992825218,8,6,3,4,0,5,1.0,1.0,1.0,1.0,1.0,1.0,1.0,1.0,0.0,0.0,0.0,1.0,3.0,8.0,6.0,0.0,3.0,2.0,5.0,2.0,1.0,6.0,5.0,4.0,3.0,3.1691438065608963,2.239278801716864,8.742815258330666,7.830658052582294,6.487776424153708,4.951444389298558,700.3676529326476,1157.3351427341113,1158.1435611230554,1158.082425425644,1167.95305517409,1168.9489007748198,1159.1687155944528,1167.9447090281174
1,201,1,1,nan,nan,nan,0,0.0,0.0,0.0,0.0,0.0,0.0,0.0,0.0,0.0,6,2,7,5,1,4,nan,nan,nan,nan,nan,nan,nan,nan,nan,nan,nan,nan,0.0,nan,nan,nan,nan,nan,nan,nan,nan,nan,nan,nan,nan,nan,nan,nan,nan,nan,nan,700.3676529326476,1169.169902158319,nan,nan,nan,nan,nan,nan
1,202,1,1,nan,nan,nan,0,0.0,0.0,0.0,0.0,0.0,0.0,0.0,0.0,0.0,2,0,8,4,3,6,nan,nan,nan,nan,nan,nan,nan,nan,nan,nan,nan,nan,0.0,nan,nan,nan,nan,nan,nan,nan,nan,nan,nan,nan,nan,nan,nan,nan,nan,nan,nan,700.3676529326476,1170.1866722811246,nan,nan,nan,nan,nan,nan
1,203,1,1,nan,nan,nan,0,0.0,0.0,0.0,0.0,0.0,0.0,0.0,0.0,0.0,6,2,3,1,7,8,nan,nan,nan,nan,nan,nan,nan,nan,nan,nan,nan,nan,0.0,nan,nan,nan,nan,nan,nan,nan,nan,nan,nan,nan,nan,nan,nan,nan,nan,nan,nan,700.3676529326476,1171.2034643561346,nan,nan,nan,nan,nan,nan
1,204,1,1,nan,nan,nan,0,0.0,0.0,0.0,0.0,0.0,0.0,0.0,0.0,0.0,8,5,6,7,4,0,nan,nan,nan,nan,nan,nan,nan,nan,nan,nan,nan,nan,0.0,nan,nan,nan,nan,nan,nan,nan,nan,nan,nan,nan,nan,nan,nan,nan,nan,nan,nan,700.3676529326476,1172.2202587119536,nan,nan,nan,nan,nan,nan
1,205,1,1,nan,nan,nan,0,0.0,0.0,0.0,0.0,0.0,0.0,0.0,0.0,0.0,2,0,7,5,8,1,nan,nan,nan,nan,nan,nan,nan,nan,nan,nan,nan,nan,0.0,nan,nan,nan,nan,nan,nan,nan,nan,nan,nan,nan,nan,nan,nan,nan,nan,nan,nan,700.3676529326476,1173.237031400553,nan,nan,nan,nan,nan,nan
1,206,0,0,1.0,0.0,0.10814894596114755,0,0.0,0.0,0.0,0.5051699915528968,0.2119075986217035,0.29326239293119327,0.7170775901746003,0.2119075986217035,0.10814894596114755,1,5,3,2,4,7,nan,nan,nan,nan,nan,nan,nan,nan,nan,nan,nan,nan,0.0,nan,nan,nan,nan,nan,nan,nan,nan,nan,nan,nan,nan,nan,nan,nan,nan,nan,nan,700.3676529326476,1174.2538240458816,nan,1174.3619729918428,nan,nan,nan,nan
1,207,1,1,1.0,1.0,0.48299054033122957,0,0.0,0.0,0.0,0.5023341269415271,0.2137801145346439,0.2885540124068832,0.716114241476171,0.2137801145346439,0.29556974314618856,2,3,4,8,5,1,nan,nan,nan,nan,nan,nan,nan,nan,nan,nan,nan,nan,0.0,nan,nan,nan,nan,nan,nan,nan,nan,nan,nan,nan,nan,nan,nan,nan,nan,nan,nan,700.3676529326476,1175.2789400294423,nan,1175.7619305697735,nan,nan,nan,nan
1,208,1,1,1.0,1.0,0.39415761234704405,0,0.0,0.0,0.0,0.5021969383840073,0.21302686462767143,0.28917007375633585,0.7152238030116786,0.21302686462767143,0.32843236621314037,0,2,1,7,4,6,nan,nan,nan,nan,nan,nan,nan,nan,nan,nan,nan,nan,0.0,nan,nan,nan,nan,nan,nan,nan,nan,nan,nan,nan,nan,nan,nan,nan,nan,nan,nan,700.3676529326476,1176.2957292535575,nan,1176.6898868659046,nan,nan,nan,nan
1,209,1,1,1.0,1.0,0.4173115745652467,0,0.0,0.0,0.0,0.5014360980598033,0.21246761224238528,0.28896848581741796,0.7139037103021886,0.21246761224238528,0.4314865757478401,5,6,3,2,8,1,nan,nan,nan,nan,nan,nan,nan,nan,nan,nan,nan,nan,0.0,nan,nan,nan,nan,nan,nan,nan,nan,nan,nan,nan,nan,nan,nan,nan,nan,nan,nan,700.3676529326476,1177.3125495529966,nan,1177.729861127562,nan,nan,nan,nan
1,210,1,1,1.0,1.0,0.4805278927087784,0,0.0,0.0,0.0,0.5008478146787225,0.21183943804616623,0.2890083766325563,0.7126872527248888,0.21183943804616623,0.430665693207023,3,7,8,5,0,4,nan,nan,nan,nan,nan,nan,nan,nan,nan,nan,nan,nan,0.0,nan,nan,nan,nan,nan,nan,nan,nan,nan,nan,nan,nan,nan,nan,nan,nan,nan,nan,700.3676529326476,1178.329316824791,nan,1178.8098447174998,nan,nan,nan,nan
1,211,1,1,1.0,1.0,0.4234408244956285,0,0.0,0.0,0.0,0.5007067041094868,0.2111093470950347,0.2895973570144521,0.7118160512045215,0.2111093470950347,0.44042676392321783,7,8,0,4,2,6,nan,nan,nan,nan,nan,nan,nan,nan,nan,nan,nan,nan,0.0,nan,nan,nan,nan,nan,nan,nan,nan,nan,nan,nan,nan,nan,nan,nan,nan,nan,nan,700.3676529326476,1179.35441826866,nan,1179.7778590931557,nan,nan,nan,nan
1,212,1,1,1.0,1.0,0.49458648019935936,0,0.0,0.0,0.0,0.5001738359742188,0.21047727979073783,0.289696556183481,0.7106511157649567,0.21047727979073783,0.4661850658012554,1,2,8,0,6,3,nan,nan,nan,nan,nan,nan,nan,nan,nan,nan,nan,nan,0.0,nan,nan,nan,nan,nan,nan,nan,nan,nan,nan,nan,nan,nan,nan,nan,nan,nan,nan,700.3676529326476,1180.3712049268652,nan,1180.8657914070645,nan,nan,nan,nan
1,213,1,1,1.0,1.0,0.501755470293574,0,0.0,0.0,0.0,0.500135566414117,0.20975573488649016,0.2903798315276269,0.7098913013006072,0.20975573488649016,0.47326092499618727,2,8,0,3,5,6,nan,nan,nan,nan,nan,nan,nan,nan,nan,nan,nan,nan,0.0,nan,nan,nan,nan,nan,nan,nan,nan,nan,nan,nan,nan,nan,nan,nan,nan,nan,nan,700.3676529326476,1181.3879947211826,nan,1181.8897501914762,nan,nan,nan,nan
1,214,1,1,1.0,1.0,0.6525904983282089,0,0.0,0.0,0.0,0.500146586168399,0.20904110490933644,0.29110548125906255,0.7091876910777355,0.20904110490933644,0.5496441496070474,4,1,2,6,8,0,nan,nan,nan,nan,nan,nan,nan,nan,nan,nan,nan,nan,0.0,nan,nan,nan,nan,nan,nan,nan,nan,nan,nan,nan,nan,nan,nan,nan,nan,nan,nan,700.3676529326476,1182.4131169768516,nan,1183.0657074751798,nan,nan,nan,nan
1,215,1,1,1.0,1.0,0.7394508563447744,0,0.0,0.0,0.0,0.5011766126019113,0.20870765642283373,0.29246895617907753,0.709884269024745,0.20870765642283373,0.6312656083221858,8,2,6,0,1,3,nan,nan,nan,nan,nan,nan,nan,nan,nan,nan,nan,nan,0.0,nan,nan,nan,nan,nan,nan,nan,nan,nan,nan,nan,nan,nan,nan,nan,nan,nan,nan,700.3676529326476,1183.4382286841283,nan,1184.177679540473,nan,nan,nan,nan
1,216,1,1,nan,nan,nan,0,0.0,0.0,0.0,0.0,0.0,0.0,0.0,0.0,0.0,7,6,3,4,8,2,nan,nan,nan,nan,nan,nan,nan,nan,nan,nan,nan,nan,0.0,nan,nan,nan,nan,nan,nan,nan,nan,nan,nan,nan,nan,nan,nan,nan,nan,nan,nan,700.3676529326476,1184.4550179082435,nan,nan,nan,nan,nan,nan
1,217,1,1,nan,nan,nan,0,0.0,0.0,0.0,0.0,0.0,0.0,0.0,0.0,0.0,0,4,6,2,5,1,nan,nan,nan,nan,nan,nan,nan,nan,nan,nan,nan,nan,0.0,nan,nan,nan,nan,nan,nan,nan,nan,nan,nan,nan,nan,nan,nan,nan,nan,nan,nan,700.3676529326476,1185.4717905968428,nan,nan,nan,nan,nan,nan
1,218,1,1,nan,nan,nan,0,0.0,0.0,0.0,0.0,0.0,0.0,0.0,0.0,0.0,7,3,1,5,2,8,nan,nan,nan,nan,nan,nan,nan,nan,nan,nan,nan,nan,0.0,nan,nan,nan,nan,nan,nan,nan,nan,nan,nan,nan,nan,nan,nan,nan,nan,nan,nan,700.3676529326476,1186.4885809613625,nan,nan,nan,nan,nan,nan
1,219,1,1,1.0,1.0,0.11223777348641306,1,1.0,0.0,1.0,0.5027757686001855,0.2089139170087812,0.29386185159140427,0.7116896856089667,0.2089139170087812,0.11223777348641306,5,1,8,7,4,6,1.0,1.0,1.0,1.0,1.0,1.0,0.0,0.0,0.0,0.0,0.0,0.0,0.0,2.0,5.0,6.0,3.0,8.0,1.0,2.0,1.0,6.0,5.0,4.0,3.0,7.484244386549108,2.1022141305729747,16.20403112436179,15.61210050038062,11.619896413641982,8.91667937708553,700.3676529326476,1187.505374176777,1188.3137854383094,1187.6176119502634,1205.5741267479025,1206.575090082828,1189.3305872066412,1205.5658028393518
1,220,0,0,nan,nan,nan,0,0.0,0.0,0.0,0.0,0.0,0.0,0.0,0.0,0.0,0,2,3,4,1,5,nan,nan,nan,nan,nan,nan,nan,nan,nan,nan,nan,nan,0.0,nan,nan,nan,nan,nan,nan,nan,nan,nan,nan,nan,nan,nan,nan,nan,nan,nan,nan,700.3676529326476,1206.799340690137,nan,nan,nan,nan,nan,nan
1,221,1,1,nan,nan,nan,0,0.0,0.0,0.0,0.0,0.0,0.0,0.0,0.0,0.0,4,0,5,6,3,7,nan,nan,nan,nan,nan,nan,nan,nan,nan,nan,nan,nan,0.0,nan,nan,nan,nan,nan,nan,nan,nan,nan,nan,nan,nan,nan,nan,nan,nan,nan,nan,700.3676529326476,1207.8161222166382,nan,nan,nan,nan,nan,nan
1,222,1,1,nan,nan,nan,0,0.0,0.0,0.0,0.0,0.0,0.0,0.0,0.0,0.0,0,8,2,4,1,3,nan,nan,nan,nan,nan,nan,nan,nan,nan,nan,nan,nan,0.0,nan,nan,nan,nan,nan,nan,nan,nan,nan,nan,nan,nan,nan,nan,nan,nan,nan,nan,700.3676529326476,1208.8412453276105,nan,nan,nan,nan,nan,nan
1,223,0,0,1.0,0.0,0.022595461807213724,0,0.0,0.0,0.0,0.5001721819660937,0.21062782040677241,0.2895443615593213,0.7108000023728661,0.21062782040677241,0.022595461807213724,8,2,4,5,6,0,nan,nan,nan,nan,nan,nan,nan,nan,nan,nan,nan,nan,0.0,nan,nan,nan,nan,nan,nan,nan,nan,nan,nan,nan,nan,nan,nan,nan,nan,nan,nan,700.3676529326476,1209.8663695789874,nan,1209.8889650407946,nan,nan,nan,nan
1,224,1,1,1.0,1.0,0.4454489912604913,1,1.0,0.0,1.0,0.49700942222994215,0.2134730293402689,0.28353639288967325,0.7104824515702111,0.2134730293402689,0.23402222653385252,4,5,1,7,3,2,1.0,1.0,1.0,1.0,1.0,1.0,1.0,1.0,0.0,0.0,1.0,1.0,4.0,4.0,5.0,6.0,1.0,3.0,2.0,2.0,1.0,6.0,5.0,4.0,3.0,1.762037480250001,1.0421215946553275,5.265131184947677,4.513956951326691,3.7304304615827277,2.6911683663493022,700.3676529326476,1210.8914710228564,1211.6998888415983,1211.336920014117,1218.0172570644645,1219.0235297170002,1212.716685763211,1218.0089263136033
1,225,0,0,nan,nan,nan,0,0.0,0.0,0.0,0.0,0.0,0.0,0.0,0.0,0.0,6,3,2,4,5,1,nan,nan,nan,nan,nan,nan,nan,nan,nan,nan,nan,nan,0.0,nan,nan,nan,nan,nan,nan,nan,nan,nan,nan,nan,nan,nan,nan,nan,nan,nan,nan,700.3676529326476,1219.242384052719,nan,nan,nan,nan,nan,nan
1,226,1,1,1.0,1.0,0.5730818760348484,0,0.0,0.0,0.0,0.49667020886830104,0.2128104830945007,0.28385972577380036,0.7094806919628017,0.2128104830945007,0.5092654336476699,0,2,8,5,6,4,nan,nan,nan,nan,nan,nan,nan,nan,nan,nan,nan,nan,0.0,nan,nan,nan,nan,nan,nan,nan,nan,nan,nan,nan,nan,nan,nan,nan,nan,nan,nan,700.3676529326476,1220.2675616168417,nan,1220.8406434928766,nan,nan,nan,nan
1,227,1,1,1.0,1.0,0.39629468182101846,0,0.0,0.0,0.0,0.4971696315295203,0.21220323286437426,0.28496639866514606,0.7093728643938946,0.21220323286437426,0.4846882789279334,1,8,4,2,3,5,nan,nan,nan,nan,nan,nan,nan,nan,nan,nan,nan,nan,0.0,nan,nan,nan,nan,nan,nan,nan,nan,nan,nan,nan,nan,nan,nan,nan,nan,nan,nan,700.3676529326476,1221.2843291737372,nan,1221.6806238555582,nan,nan,nan,nan
1,228,1,1,1.0,1.0,0.39513748267199844,0,0.0,0.0,0.0,0.496514599388556,0.21166826718001464,0.2848463322085414,0.7081828665685707,0.21166826718001464,0.45483801350928843,5,2,6,4,7,1,nan,nan,nan,nan,nan,nan,nan,nan,nan,nan,nan,nan,0.0,nan,nan,nan,nan,nan,nan,nan,nan,nan,nan,nan,nan,nan,nan,nan,nan,nan,nan,700.3676529326476,1222.3094608375104,nan,1222.7045983201824,nan,nan,nan,nan
1,229,1,1,1.0,1.0,0.41801005648449063,0,0.0,0.0,0.0,0.4958605534742556,0.21114042316288356,0.28472013031137205,0.7070009766371392,0.21114042316288356,0.4031474069925025,7,5,0,8,2,3,nan,nan,nan,nan,nan,nan,nan,nan,nan,nan,nan,nan,0.0,nan,nan,nan,nan,nan,nan,nan,nan,nan,nan,nan,nan,nan,nan,nan,nan,nan,nan,700.3676529326476,1223.33455572417,nan,1223.7525657806545,nan,nan,nan,nan
1,230,1,1,1.0,1.0,0.5368634513579309,0,0.0,0.0,0.0,0.4953615118268853,0.21055428961766798,0.28480722220921734,0.7059158014445532,0.21055428961766798,0.45000366350480664,3,7,8,4,0,1,nan,nan,nan,nan,nan,nan,nan,nan,nan,nan,nan,nan,0.0,nan,nan,nan,nan,nan,nan,nan,nan,nan,nan,nan,nan,nan,nan,nan,nan,nan,nan,700.3676529326476,1224.3596782649402,nan,1224.896541716298,nan,nan,nan,nan
1,231,1,1,1.0,1.0,0.567752601695247,0,0.0,0.0,0.0,0.49562585539077736,0.20990863078927105,0.2857172246015063,0.7055344861800484,0.20990863078927105,0.5075420365125561,8,6,4,1,2,5,nan,nan,nan,nan,nan,nan,nan,nan,nan,nan,nan,nan,0.0,nan,nan,nan,nan,nan,nan,nan,nan,nan,nan,nan,nan,nan,nan,nan,nan,nan,nan,700.3676529326476,1225.3847962443251,nan,1225.9525488460204,nan,nan,nan,nan
1,232,1,1,1.0,1.0,0.5904834833927453,0,0.0,0.0,0.0,0.49608235378510945,0.20932147414016344,0.286760879644946,0.7054038279252729,0.20932147414016344,0.5650331788153077,2,4,5,0,1,3,nan,nan,nan,nan,nan,nan,nan,nan,nan,nan,nan,nan,0.0,nan,nan,nan,nan,nan,nan,nan,nan,nan,nan,nan,nan,nan,nan,nan,nan,nan,nan,700.3676529326476,1226.409977229545,nan,1227.0004607129376,nan,nan,nan,nan
1,233,1,1,1.0,1.0,0.6133808604208753,0,0.0,0.0,0.0,0.4966760715813839,0.20879560726303387,0.28788046431835,0.7054716788444177,0.20879560726303387,0.5905389818362892,0,8,4,5,7,6,nan,nan,nan,nan,nan,nan,nan,nan,nan,nan,nan,nan,0.0,nan,nan,nan,nan,nan,nan,nan,nan,nan,nan,nan,nan,nan,nan,nan,nan,nan,nan,700.3676529326476,1227.435059857089,nan,1228.04844071751,nan,nan,nan,nan
1,234,1,1,nan,nan,nan,0,0.0,0.0,0.0,0.0,0.0,0.0,0.0,0.0,0.0,7,5,8,6,2,1,nan,nan,nan,nan,nan,nan,nan,nan,nan,nan,nan,nan,0.0,nan,nan,nan,nan,nan,nan,nan,nan,nan,nan,nan,nan,nan,nan,nan,nan,nan,nan,700.3676529326476,1228.460153033142,nan,nan,nan,nan,nan,nan
1,235,1,1,1.0,1.0,0.7714404721045867,0,0.0,0.0,0.0,0.4974054765116307,0.20834520895396813,0.28906026755766256,0.7057506854655988,0.20834520895396813,0.692410666262731,0,7,5,8,1,6,nan,nan,nan,nan,nan,nan,nan,nan,nan,nan,nan,nan,0.0,nan,nan,nan,nan,nan,nan,nan,nan,nan,nan,nan,nan,nan,nan,nan,nan,nan,nan,700.3676529326476,1229.4769391211448,nan,1230.2483795932494,nan,nan,nan,nan
1,236,1,1,1.0,1.0,0.7865958188194782,1,0.0,1.0,1.0,0.4991075572295994,0.2088100703792715,0.29029748685032786,0.7079176276088709,0.2088100703792715,0.7790181454620324,6,5,4,7,8,3,1.0,1.0,1.0,1.0,1.0,1.0,1.0,1.0,0.0,0.0,1.0,1.0,4.0,6.0,5.0,0.0,1.0,8.0,3.0,2.0,1.0,6.0,5.0,4.0,3.0,1.8310529087902978,1.1116196883376688,8.278658356051892,4.743383452063426,3.87059696263168,2.8402549088932574,700.3676529326476,1230.493742885068,1231.302131909295,1231.2803387038875,1240.6282539634267,1241.6273031728342,1232.3106146155624,1240.6199408884859
1,237,1,1,1.0,1.0,0.5945529245072976,0,0.0,0.0,0.0,0.5008821761283023,0.2093789205290433,0.29150325559925905,0.7102610966573456,0.2093789205290433,0.7175297384771208,5,3,8,1,2,4,nan,nan,nan,nan,nan,nan,nan,nan,nan,nan,nan,nan,0.0,nan,nan,nan,nan,nan,nan,nan,nan,nan,nan,nan,nan,nan,nan,nan,nan,nan,nan,700.3676529326476,1241.8534462384414,nan,1242.4479991629487,nan,nan,nan,nan
1,238,1,1,1.0,1.0,0.6094297337112948,0,0.0,0.0,0.0,0.5014568432962716,0.2088637772256756,0.292593066070596,0.7103206205219472,0.2088637772256756,0.6635261590126902,6,0,4,5,7,3,nan,nan,nan,nan,nan,nan,nan,nan,nan,nan,nan,nan,0.0,nan,nan,nan,nan,nan,nan,nan,nan,nan,nan,nan,nan,nan,nan,nan,nan,nan,nan,700.3676529326476,1242.8785339976894,nan,1243.4879637314007,nan,nan,nan,nan
1,239,1,1,nan,nan,nan,0,0.0,0.0,0.0,0.0,0.0,0.0,0.0,0.0,0.0,5,4,1,6,8,2,nan,nan,nan,nan,nan,nan,nan,nan,nan,nan,nan,nan,0.0,nan,nan,nan,nan,nan,nan,nan,nan,nan,nan,nan,nan,nan,nan,nan,nan,nan,nan,700.3676529326476,1243.9036422837526,nan,nan,nan,nan,nan,nan
1,240,1,1,nan,nan,nan,0,0.0,0.0,0.0,0.0,0.0,0.0,0.0,0.0,0.0,0,2,8,4,1,3,nan,nan,nan,nan,nan,nan,nan,nan,nan,nan,nan,nan,0.0,nan,nan,nan,nan,nan,nan,nan,nan,nan,nan,nan,nan,nan,nan,nan,nan,nan,nan,700.3676529326476,1244.9287833557464,nan,nan,nan,nan,nan,nan
1,241,0,0,0.0,1.0,0.6954291060101241,0,0.0,0.0,0.0,0.5021152145792901,0.2083956087887828,0.29371960579050727,0.7105108233680729,0.2083956087887828,0.6954291060101241,4,3,7,2,6,5,nan,nan,nan,nan,nan,nan,nan,nan,nan,nan,nan,nan,0.0,nan,nan,nan,nan,nan,nan,nan,nan,nan,nan,nan,nan,nan,nan,nan,nan,nan,nan,700.3676529326476,1245.9604294323362,nan,1246.6558585383464,nan,nan,nan,nan
1,242,1,1,1.0,1.0,0.5008899229578674,0,0.0,0.0,0.0,0.5032868139212952,0.20830419852376308,0.29498261539753207,0.7115910124450582,0.20830419852376308,0.5981595144839957,0,4,3,7,8,2,nan,nan,nan,nan,nan,nan,nan,nan,nan,nan,nan,nan,0.0,nan,nan,nan,nan,nan,nan,nan,nan,nan,nan,nan,nan,nan,nan,nan,nan,nan,nan,700.3676529326476,1246.9790073403856,nan,1247.4798972633434,nan,nan,nan,nan
1,243,1,1,1.0,1.0,0.3396885683760047,0,0.0,0.0,0.0,0.5032723748191058,0.20767591129158,0.2955964635275258,0.7109482861106858,0.20767591129158,0.5120025324479988,1,3,2,0,4,5,nan,nan,nan,nan,nan,nan,nan,nan,nan,nan,nan,nan,0.0,nan,nan,nan,nan,nan,nan,nan,nan,nan,nan,nan,nan,nan,nan,nan,nan,nan,nan,700.3676529326476,1248.0041335873539,nan,1248.3438221557299,nan,nan,nan,nan
1,244,1,1,1.0,1.0,0.38655727403238416,0,0.0,0.0,0.0,0.5022928310679495,0.20743746752649958,0.2948553635414499,0.7097302985944491,0.20743746752649958,0.4090452551220854,7,1,3,6,2,4,nan,nan,nan,nan,nan,nan,nan,nan,nan,nan,nan,nan,0.0,nan,nan,nan,nan,nan,nan,nan,nan,nan,nan,nan,nan,nan,nan,nan,nan,nan,nan,700.3676529326476,1249.029241588316,nan,1249.4157988623483,nan,nan,nan,nan
1,245,1,1,1.0,1.0,0.35373461176641285,0,0.0,0.0,0.0,0.5016039289427378,0.20701069069812658,0.29459323824461114,0.7086146196408644,0.20701069069812658,0.3599934847249339,2,0,5,4,7,6,nan,nan,nan,nan,nan,nan,nan,nan,nan,nan,nan,nan,0.0,nan,nan,nan,nan,nan,nan,nan,nan,nan,nan,nan,nan,nan,nan,nan,nan,nan,nan,700.3676529326476,1250.046045067138,nan,1250.3997796789045,nan,nan,nan,nan
1,246,0,0,0.0,1.0,0.5845863005379215,0,0.0,0.0,0.0,0.5007289625689134,0.20670866118522413,0.2940203013836893,0.7074376237541375,0.20670866118522413,0.4416260621122395,6,4,7,0,8,2,nan,nan,nan,nan,nan,nan,nan,nan,nan,nan,nan,nan,0.0,nan,nan,nan,nan,nan,nan,nan,nan,nan,nan,nan,nan,nan,nan,nan,nan,nan,nan,700.3676529326476,1251.071157629718,nan,1251.655743930256,nan,nan,nan,nan
1,247,1,1,1.0,1.0,0.4397545106476173,0,0.0,0.0,0.0,0.5012222410275546,0.20619953530260535,0.29502270572494926,0.70742177633016,0.20619953530260535,0.4593584743173172,3,0,5,6,1,4,nan,nan,nan,nan,nan,nan,nan,nan,nan,nan,nan,nan,0.0,nan,nan,nan,nan,nan,nan,nan,nan,nan,nan,nan,nan,nan,nan,nan,nan,nan,nan,700.3676529326476,1252.0879522706382,nan,1252.5277067812858,nan,nan,nan,nan
1,248,1,1,1.0,1.0,0.49494997586589307,0,0.0,0.0,0.0,0.500862780615976,0.2056491420736746,0.2952136385423014,0.7065119226896506,0.2056491420736746,0.5064302623504773,2,4,1,0,7,8,nan,nan,nan,nan,nan,nan,nan,nan,nan,nan,nan,nan,0.0,nan,nan,nan,nan,nan,nan,nan,nan,nan,nan,nan,nan,nan,nan,nan,nan,nan,nan,700.3676529326476,1253.1047392139444,nan,1253.5996891898103,nan,nan,nan,nan
1,249,1,1,1.0,1.0,0.43014425493311137,0,0.0,0.0,0.0,0.5008284038441733,0.2050509461041419,0.2957774577400314,0.7058793499483151,0.2050509461041419,0.45494958048220724,6,1,0,8,2,3,nan,nan,nan,nan,nan,nan,nan,nan,nan,nan,nan,nan,0.0,nan,nan,nan,nan,nan,nan,nan,nan,nan,nan,nan,nan,nan,nan,nan,nan,nan,nan,700.3676529326476,1254.121515038656,nan,1254.5516592935892,nan,nan,nan,nan
1,250,0,0,0.0,1.0,0.7009647887898609,0,0.0,0.0,0.0,0.5004198249487336,0.2045276601917396,0.295892164756994,0.7049474851404732,0.2045276601917396,0.5420196731962884,2,0,3,5,4,1,nan,nan,nan,nan,nan,nan,nan,nan,nan,nan,nan,nan,0.0,nan,nan,nan,nan,nan,nan,nan,nan,nan,nan,nan,nan,nan,nan,nan,nan,nan,nan,700.3676529326476,1255.1466318775201,nan,1255.84759666631,nan,nan,nan,nan
1,251,1,1,1.0,1.0,0.5958367057610303,0,0.0,0.0,0.0,0.5015723822121884,0.2045017448920043,0.29707063732018407,0.7060741271041926,0.2045017448920043,0.5756485831613342,1,3,8,2,5,0,nan,nan,nan,nan,nan,nan,nan,nan,nan,nan,nan,nan,0.0,nan,nan,nan,nan,nan,nan,nan,nan,nan,nan,nan,nan,nan,nan,nan,nan,nan,nan,700.3676529326476,1256.1717518524965,nan,1256.7675885582576,nan,nan,nan,nan
1,252,1,1,1.0,1.0,0.6106818693224341,0,0.0,0.0,0.0,0.5021110354896102,0.20404036945693502,0.2980706660326752,0.7061514049465453,0.20404036945693502,0.6358277879577751,7,6,5,3,2,1,nan,nan,nan,nan,nan,nan,nan,nan,nan,nan,nan,nan,0.0,nan,nan,nan,nan,nan,nan,nan,nan,nan,nan,nan,nan,nan,nan,nan,nan,nan,nan,700.3676529326476,1257.1968723976752,nan,1257.8075542669976,nan,nan,nan,nan
1,253,1,1,1.0,1.0,0.457540140603669,0,0.0,0.0,0.0,0.5027279152272968,0.2036234731963673,0.29910444203092945,0.7063513884236641,0.2036234731963673,0.5546862385623778,3,2,6,0,5,4,nan,nan,nan,nan,nan,nan,nan,nan,nan,nan,nan,nan,0.0,nan,nan,nan,nan,nan,nan,nan,nan,nan,nan,nan,nan,nan,nan,nan,nan,nan,nan,700.3676529326476,1258.2219935129397,nan,1258.6795336535433,nan,nan,nan,nan
1,254,1,1,1.0,1.0,0.4643864035606384,0,0.0,0.0,0.0,0.5024726170655813,0.20307569646893542,0.2993969205966459,0.7055483135345167,0.20307569646893542,0.5108694711622471,2,5,3,4,0,1,nan,nan,nan,nan,nan,nan,nan,nan,nan,nan,nan,nan,0.0,nan,nan,nan,nan,nan,nan,nan,nan,nan,nan,nan,nan,nan,nan,nan,nan,nan,nan,700.3676529326476,1259.247135440237,nan,1259.7115218437975,nan,nan,nan,nan
1,255,1,1,1.0,1.0,0.4792061939369887,0,0.0,0.0,0.0,0.5022586495739806,0.20252446272410451,0.29973418684987607,0.7047831122980851,0.20252446272410451,0.4670442460337654,1,0,6,8,2,7,nan,nan,nan,nan,nan,nan,nan,nan,nan,nan,nan,nan,0.0,nan,nan,nan,nan,nan,nan,nan,nan,nan,nan,nan,nan,nan,nan,nan,nan,nan,nan,700.3676529326476,1260.2722719506128,nan,1260.7514781445498,nan,nan,nan,nan
1,256,1,1,1.0,1.0,0.5740859793731943,0,0.0,0.0,0.0,0.5021298649056175,0.2019652684784072,0.3001645964272103,0.7040951333840247,0.2019652684784072,0.5058928589569405,2,6,0,7,1,4,nan,nan,nan,nan,nan,nan,nan,nan,nan,nan,nan,nan,0.0,nan,nan,nan,nan,nan,nan,nan,nan,nan,nan,nan,nan,nan,nan,nan,nan,nan,nan,700.3676529326476,1261.2973579993704,nan,1261.8714439787436,nan,nan,nan,nan
1,257,1,1,1.0,1.0,0.6369185601361096,0,0.0,0.0,0.0,0.502529621097104,0.20147447437875707,0.3010551467183469,0.7040040954758611,0.20147447437875707,0.5634035778154308,8,1,2,5,6,7,nan,nan,nan,nan,nan,nan,nan,nan,nan,nan,nan,nan,0.0,nan,nan,nan,nan,nan,nan,nan,nan,nan,nan,nan,nan,nan,nan,nan,nan,nan,nan,700.3676529326476,1262.3224865271477,nan,1262.9594050872838,nan,nan,nan,nan
1,258,0,0,0.0,1.0,0.6918409046484157,0,0.0,0.0,0.0,0.5032721014232864,0.20116393488630052,0.30210816653698586,0.704436036309587,0.20116393488630052,0.6342818147192398,1,7,6,4,5,3,nan,nan,nan,nan,nan,nan,nan,nan,nan,nan,nan,nan,0.0,nan,nan,nan,nan,nan,nan,nan,nan,nan,nan,nan,nan,nan,nan,nan,nan,nan,nan,700.3676529326476,1263.3475705801975,nan,1264.039411484846,nan,nan,nan,nan
1,259,1,1,1.0,1.0,0.6266480253543705,0,0.0,0.0,0.0,0.5043081937486992,0.2010942170709658,0.30321397667773337,0.705402410819665,0.2010942170709658,0.6518024967129653,8,6,3,5,1,0,nan,nan,nan,nan,nan,nan,nan,nan,nan,nan,nan,nan,0.0,nan,nan,nan,nan,nan,nan,nan,nan,nan,nan,nan,nan,nan,nan,nan,nan,nan,nan,700.3676529326476,1264.372723055887,nan,1264.9993710812414,nan,nan,nan,nan
1,260,1,1,1.0,1.0,0.5133859066991135,0,0.0,0.0,0.0,0.5049767174186754,0.20074672296139315,0.30422999445728227,0.7057234403800686,0.20074672296139315,0.6106249455673,0,3,7,1,4,8,nan,nan,nan,nan,nan,nan,nan,nan,nan,nan,nan,nan,0.0,nan,nan,nan,nan,nan,nan,nan,nan,nan,nan,nan,nan,nan,nan,nan,nan,nan,nan,700.3676529326476,1265.3979453798383,nan,1265.9113312865375,nan,nan,nan,nan
1,261,1,1,1.0,1.0,0.4083496241364628,0,0.0,0.0,0.0,0.50502241953433,0.20020142697606816,0.3048209925582619,0.7052238465103982,0.20020142697606816,0.5161278520633156,7,6,0,3,5,4,nan,nan,nan,nan,nan,nan,nan,nan,nan,nan,nan,nan,0.0,nan,nan,nan,nan,nan,nan,nan,nan,nan,nan,nan,nan,nan,nan,nan,nan,nan,nan,700.3676529326476,1266.4229655716335,nan,1266.83131519577,nan,nan,nan,nan
1,262,1,1,1.0,1.0,0.4232093276223168,0,0.0,0.0,0.0,0.5044998638835307,0.19978539301221349,0.30471447087131726,0.7042852568957443,0.19978539301221349,0.44831495281929773,0,4,5,7,3,1,nan,nan,nan,nan,nan,nan,nan,nan,nan,nan,nan,nan,0.0,nan,nan,nan,nan,nan,nan,nan,nan,nan,nan,nan,nan,nan,nan,nan,nan,nan,nan,700.3676529326476,1267.44808811252,nan,1267.8712974401424,nan,nan,nan,nan
1,263,1,1,1.0,1.0,0.4460556727135554,0,0.0,0.0,0.0,0.5040628179896532,0.1993362672881293,0.30472655070152393,0.7033990852777825,0.1993362672881293,0.4258715414907783,1,2,4,3,0,8,nan,nan,nan,nan,nan,nan,nan,nan,nan,nan,nan,nan,0.0,nan,nan,nan,nan,nan,nan,nan,nan,nan,nan,nan,nan,nan,nan,nan,nan,nan,nan,700.3676529326476,1268.473204666283,nan,1268.9192603389965,nan,nan,nan,nan
1,264,1,1,1.0,1.0,0.396850046236068,0,0.0,0.0,0.0,0.5037526193518131,0.19884757635079495,0.3049050430010182,0.7026001957026081,0.19884757635079495,0.4220383488573134,5,4,1,8,3,6,nan,nan,nan,nan,nan,nan,nan,nan,nan,nan,nan,nan,0.0,nan,nan,nan,nan,nan,nan,nan,nan,nan,nan,nan,nan,nan,nan,nan,nan,nan,nan,700.3676529326476,1269.4983540059766,nan,1269.8952040522126,nan,nan,nan,nan
1,265,1,1,1.0,1.0,0.3716853114310652,0,0.0,0.0,0.0,0.5031839886437507,0.19847040663296656,0.30471358201078413,0.7016543952767172,0.19847040663296656,0.4048636767935629,6,5,3,4,2,0,nan,nan,nan,nan,nan,nan,nan,nan,nan,nan,nan,nan,0.0,nan,nan,nan,nan,nan,nan,nan,nan,nan,nan,nan,nan,nan,nan,nan,nan,nan,nan,700.3676529326476,1270.5234936524648,nan,1270.895178963896,nan,nan,nan,nan
1,266,1,1,1.0,1.0,0.3946166146779433,0,0.0,0.0,0.0,0.5024882284468581,0.19817440403901698,0.30431382440784116,0.7006626324858751,0.19817440403901698,0.3877173241150255,2,4,1,8,6,5,nan,nan,nan,nan,nan,nan,nan,nan,nan,nan,nan,nan,0.0,nan,nan,nan,nan,nan,nan,nan,nan,nan,nan,nan,nan,nan,nan,nan,nan,nan,nan,700.3676529326476,1271.5485480556963,nan,1271.9431646703742,nan,nan,nan,nan
1,267,1,1,1.0,1.0,0.44145367480814457,0,0.0,0.0,0.0,0.5019204831112323,0.19780625670107024,0.30411422641016206,0.6997267398123025,0.19780625670107024,0.4025852003057177,1,6,3,0,5,4,nan,nan,nan,nan,nan,nan,nan,nan,nan,nan,nan,nan,0.0,nan,nan,nan,nan,nan,nan,nan,nan,nan,nan,nan,nan,nan,nan,nan,nan,nan,nan,700.3676529326476,1272.5736762983724,nan,1273.0151299731806,nan,nan,nan,nan
1,268,1,1,1.0,1.0,0.40829431579913944,0,0.0,0.0,0.0,0.5016039029630486,0.19733601421149916,0.3042678887515494,0.6989399171745477,0.19733601421149916,0.4147882017617424,4,0,2,6,7,3,nan,nan,nan,nan,nan,nan,nan,nan,nan,nan,nan,nan,0.0,nan,nan,nan,nan,nan,nan,nan,nan,nan,nan,nan,nan,nan,nan,nan,nan,nan,nan,700.3676529326476,1273.5987971286522,nan,1274.0070914444514,nan,nan,nan,nan
1,269,1,1,1.0,1.0,0.35117674246430397,0,0.0,0.0,0.0,0.5011179155299033,0.19693601316748346,0.3041819023624198,0.6980539286973867,0.19693601316748346,0.400308244357196,6,2,4,3,0,7,nan,nan,nan,nan,nan,nan,nan,nan,nan,nan,nan,nan,0.0,nan,nan,nan,nan,nan,nan,nan,nan,nan,nan,nan,nan,nan,nan,nan,nan,nan,nan,700.3676529326476,1274.6239151079208,nan,1274.975091850385,nan,nan,nan,nan
1,270,1,1,1.0,1.0,0.44597641634754837,0,0.0,0.0,0.0,0.5003410182601333,0.19671991842240252,0.3036210998377308,0.6970609366825359,0.19671991842240252,0.4018158248703306,1,5,2,4,7,3,nan,nan,nan,nan,nan,nan,nan,nan,nan,nan,nan,nan,0.0,nan,nan,nan,nan,nan,nan,nan,nan,nan,nan,nan,nan,nan,nan,nan,nan,nan,nan,700.3676529326476,1275.6490727154305,nan,1276.095049131778,nan,nan,nan,nan
1,271,1,1,1.0,1.0,0.39682666840963066,0,0.0,0.0,0.0,0.5000607883533674,0.1962508710604914,0.303809917292876,0.6963116594138589,0.1962508710604914,0.3979932757404943,7,4,3,6,0,8,nan,nan,nan,nan,nan,nan,nan,nan,nan,nan,nan,nan,0.0,nan,nan,nan,nan,nan,nan,nan,nan,nan,nan,nan,nan,nan,nan,nan,nan,nan,nan,700.3676529326476,1276.674196396605,nan,1277.0710230650147,nan,nan,nan,nan
1,272,1,1,1.0,1.0,0.7396820682333782,0,0.0,0.0,0.0,0.4995313826100662,0.19588585219829074,0.30364553041177544,0.6954172348083569,0.19588585219829074,0.5274950509968525,5,2,6,7,1,3,nan,nan,nan,nan,nan,nan,nan,nan,nan,nan,nan,nan,0.0,nan,nan,nan,nan,nan,nan,nan,nan,nan,nan,nan,nan,nan,nan,nan,nan,nan,nan,700.3676529326476,1277.699312665267,nan,1278.4389947335003,nan,nan,nan,nan
1,273,1,1,1.0,1.0,0.7785590005805716,0,0.0,0.0,0.0,0.5007566412101851,0.19613322195595298,0.3046234192542322,0.6968898631661381,0.19613322195595298,0.6383559124078602,6,5,7,3,2,8,nan,nan,nan,nan,nan,nan,nan,nan,nan,nan,nan,nan,0.0,nan,nan,nan,nan,nan,nan,nan,nan,nan,nan,nan,nan,nan,nan,nan,nan,nan,nan,700.3676529326476,1278.7244052711176,nan,1279.5029642716981,nan,nan,nan,nan
1,274,1,1,1.0,1.0,0.7134043237892911,1,0.0,1.0,1.0,0.5021668054709485,0.1966284030670085,0.30553840240394003,0.698795208537957,0.1966284030670085,0.7438817975344136,7,8,1,0,3,2,1.0,1.0,1.0,1.0,1.0,1.0,0.0,1.0,0.0,0.0,0.0,0.0,1.0,8.0,8.0,0.0,4.0,2.0,3.0,2.0,1.0,6.0,5.0,4.0,3.0,2.694945870549418,1.4564827245194465,15.733300509513356,13.453637194819748,9.174358187825419,6.1657947996864095,700.3676529326476,1279.7495226803003,1280.5579205424292,1280.4629270040896,1297.3432206059806,1298.3473111439962,1281.5747225957457,1297.3348841532134
1,275,0,0,0.0,1.0,0.7819419336738065,0,0.0,0.0,0.0,0.5032336616240715,0.19670201943366022,0.30653164219041124,0.6999356810577317,0.19670201943366022,0.7579684193478897,0,7,4,1,2,5,nan,nan,nan,nan,nan,nan,nan,nan,nan,nan,nan,nan,0.0,nan,nan,nan,nan,nan,nan,nan,nan,nan,nan,nan,nan,nan,nan,nan,nan,nan,nan,700.3676529326476,1298.5684239995899,nan,1299.3503659332637,nan,nan,nan,nan
1,276,1,1,nan,nan,nan,0,0.0,0.0,0.0,0.0,0.0,0.0,0.0,0.0,0.0,8,6,3,7,5,4,nan,nan,nan,nan,nan,nan,nan,nan,nan,nan,nan,nan,0.0,nan,nan,nan,nan,nan,nan,nan,nan,nan,nan,nan,nan,nan,nan,nan,nan,nan,nan,700.3676529326476,1299.593508622842,nan,nan,nan,nan,nan,nan
1,277,1,1,nan,nan,nan,0,0.0,0.0,0.0,0.0,0.0,0.0,0.0,0.0,0.0,6,2,8,4,7,1,nan,nan,nan,nan,nan,nan,nan,nan,nan,nan,nan,nan,0.0,nan,nan,nan,nan,nan,nan,nan,nan,nan,nan,nan,nan,nan,nan,nan,nan,nan,nan,700.3676529326476,1300.6186385761248,nan,nan,nan,nan,nan,nan
1,278,1,1,nan,nan,nan,0,0.0,0.0,0.0,0.0,0.0,0.0,0.0,0.0,0.0,4,1,7,8,5,3,nan,nan,nan,nan,nan,nan,nan,nan,nan,nan,nan,nan,0.0,nan,nan,nan,nan,nan,nan,nan,nan,nan,nan,nan,nan,nan,nan,nan,nan,nan,nan,700.3676529326476,1301.6510407237802,nan,nan,nan,nan,nan,nan
1,279,1,1,1.0,1.0,0.06515952327754349,1,1.0,0.0,1.0,0.5046342057047234,0.19719441059797857,0.3074397951067448,0.701828616302702,0.19719441059797857,0.06515952327754349,2,3,1,5,0,7,1.0,1.0,1.0,1.0,1.0,1.0,1.0,1.0,0.0,0.0,0.0,0.0,2.0,2.0,3.0,7.0,4.0,6.0,1.0,2.0,1.0,6.0,5.0,4.0,3.0,3.3497789233224466,2.4062279496574774,8.596963969990611,7.396690963301808,6.15018786303699,4.44672650040593,700.3676529326476,1302.6772004389204,1303.4856136961607,1302.742359962198,1313.136733676307,1314.1340745984344,1304.5024205961963,1313.1284063465428
1,280,1,1,nan,nan,nan,0,0.0,0.0,0.0,0.0,0.0,0.0,0.0,0.0,0.0,5,7,2,6,3,4,nan,nan,nan,nan,nan,nan,nan,nan,nan,nan,nan,nan,0.0,nan,nan,nan,nan,nan,nan,nan,nan,nan,nan,nan,nan,nan,nan,nan,nan,nan,nan,700.3676529326476,1314.3619034287985,nan,nan,nan,nan,nan,nan
1,281,1,1,nan,nan,nan,0,0.0,0.0,0.0,0.0,0.0,0.0,0.0,0.0,0.0,6,1,5,0,7,8,nan,nan,nan,nan,nan,nan,nan,nan,nan,nan,nan,nan,0.0,nan,nan,nan,nan,nan,nan,nan,nan,nan,nan,nan,nan,nan,nan,nan,nan,nan,nan,700.3676529326476,1315.387017701869,nan,nan,nan,nan,nan,nan
1,282,1,1,1.0,1.0,0.4497599075548351,0,0.0,0.0,0.0,0.5024368322925875,0.19912827254257176,0.30330855975001575,0.7015651048351592,0.19912827254257176,0.4497599075548351,5,0,7,8,2,4,nan,nan,nan,nan,nan,nan,nan,nan,nan,nan,nan,nan,0.0,nan,nan,nan,nan,nan,nan,nan,nan,nan,nan,nan,nan,nan,nan,nan,nan,nan,nan,700.3676529326476,1316.412118005217,nan,1316.861877912772,nan,nan,nan,nan
1,283,1,1,1.0,1.0,0.29625468305312097,0,0.0,0.0,0.0,0.5021747580401609,0.1986668858511417,0.3035078721890192,0.7008416438913025,0.1986668858511417,0.373007295303978,8,7,2,6,3,5,nan,nan,nan,nan,nan,nan,nan,nan,nan,nan,nan,nan,0.0,nan,nan,nan,nan,nan,nan,nan,nan,nan,nan,nan,nan,nan,nan,nan,nan,nan,nan,700.3676529326476,1317.4456077889772,nan,1317.7418624720303,nan,nan,nan,nan
1,284,1,1,1.0,1.0,0.28709060058463365,0,0.0,0.0,0.0,0.5011553517283438,0.19870082988947066,0.3024545218388731,0.6998561816178145,0.19870082988947066,0.3443683970641966,2,5,6,1,0,7,nan,nan,nan,nan,nan,nan,nan,nan,nan,nan,nan,nan,0.0,nan,nan,nan,nan,nan,nan,nan,nan,nan,nan,nan,nan,nan,nan,nan,nan,nan,nan,700.3676529326476,1318.4707271937514,nan,1318.757817794336,nan,nan,nan,nan
1,285,1,1,1.0,1.0,0.37394326098728925,0,0.0,0.0,0.0,0.5001008455650743,0.19877662766675436,0.3013242178983199,0.6988774732318286,0.19877662766675436,0.3190961815416813,8,6,7,0,3,4,nan,nan,nan,nan,nan,nan,nan,nan,nan,nan,nan,nan,0.0,nan,nan,nan,nan,nan,nan,nan,nan,nan,nan,nan,nan,nan,nan,nan,nan,nan,nan,700.3676529326476,1319.49584773893,nan,1319.8697909999173,nan,nan,nan,nan
1,286,1,1,1.0,1.0,0.3247926578624174,0,0.0,0.0,0.0,0.4994824260328303,0.19848449959564007,0.3009979264371902,0.6979669256284704,0.19848449959564007,0.3286088398114468,4,8,5,6,2,0,nan,nan,nan,nan,nan,nan,nan,nan,nan,nan,nan,nan,0.0,nan,nan,nan,nan,nan,nan,nan,nan,nan,nan,nan,nan,nan,nan,nan,nan,nan,nan,700.3676529326476,1320.520969994599,nan,1320.8457626524614,nan,nan,nan,nan
1,287,1,1,1.0,1.0,0.2996604237705469,0,0.0,0.0,0.0,0.4986302808222429,0.198373524938889,0.30025675588335393,0.6970038057611319,0.198373524938889,0.33279878087341785,5,1,2,7,3,4,nan,nan,nan,nan,nan,nan,nan,nan,nan,nan,nan,nan,0.0,nan,nan,nan,nan,nan,nan,nan,nan,nan,nan,nan,nan,nan,nan,nan,nan,nan,nan,700.3676529326476,1321.546085978276,nan,1321.8457464020466,nan,nan,nan,nan
1,288,1,1,1.0,1.0,0.3064984190277755,0,0.0,0.0,0.0,0.49766440772975895,0.19837407270573776,0.2992903350240212,0.6960384804354967,0.19837407270573776,0.3103171668869133,0,2,8,3,4,5,nan,nan,nan,nan,nan,nan,nan,nan,nan,nan,nan,nan,0.0,nan,nan,nan,nan,nan,nan,nan,nan,nan,nan,nan,nan,nan,nan,nan,nan,nan,nan,700.3676529326476,1322.571208233945,nan,1322.8777066529728,nan,nan,nan,nan
1,289,1,1,1.0,1.0,0.4012818426126614,0,0.0,0.0,0.0,0.49674090053796194,0.19833773071211425,0.2984031698258477,0.6950786312500762,0.19833773071211425,0.3358135618036613,7,0,6,1,2,3,nan,nan,nan,nan,nan,nan,nan,nan,nan,nan,nan,nan,0.0,nan,nan,nan,nan,nan,nan,nan,nan,nan,nan,nan,nan,nan,nan,nan,nan,nan,nan,700.3676529326476,1323.5963892191648,nan,1323.9976710617775,nan,nan,nan,nan
1,290,1,1,1.0,1.0,0.5041725029004738,0,0.0,0.0,0.0,0.4962819627594749,0.1979705287743711,0.2983114339851038,0.6942524915338459,0.1979705287743711,0.40398425484697026,4,6,5,3,1,7,nan,nan,nan,nan,nan,nan,nan,nan,nan,nan,nan,nan,0.0,nan,nan,nan,nan,nan,nan,nan,nan,nan,nan,nan,nan,nan,nan,nan,nan,nan,nan,700.3676529326476,1324.6214766933117,nan,1325.1256491962122,nan,nan,nan,nan
1,291,0,0,0.0,1.0,0.6149899348383769,0,0.0,0.0,0.0,0.49631971654005386,0.19749709776163824,0.29882261877841565,0.6938168143016921,0.19749709776163824,0.5068147601171707,0,4,6,2,7,5,nan,nan,nan,nan,nan,nan,nan,nan,nan,nan,nan,nan,0.0,nan,nan,nan,nan,nan,nan,nan,nan,nan,nan,nan,nan,nan,nan,nan,nan,nan,nan,700.3676529326476,1325.6465958129847,nan,1326.2615857478231,nan,nan,nan,nan
1,292,1,1,1.0,1.0,0.5818684932310134,0,0.0,0.0,0.0,0.4968848128176649,0.19719560289317759,0.29968920992448733,0.6940804157108424,0.19719560289317759,0.5670103103232881,1,2,5,3,4,6,nan,nan,nan,nan,nan,nan,nan,nan,nan,nan,nan,nan,0.0,nan,nan,nan,nan,nan,nan,nan,nan,nan,nan,nan,nan,nan,nan,nan,nan,nan,nan,700.3676529326476,1326.671717498568,nan,1327.253585991799,nan,nan,nan,nan
