block,trial,freq_trials,correct_response,actual_response,acc,rts,probe_trials,fast_rt_trigger,slow_rt_trigger,rt_triggered,rts_runningavg,rts_runningstd,rts_runningfastthresh,rts_runningslowthresh,rts_runningstd,rts_trailingavg,trials_colorind0,trials_colorind1,trials_colorind2,trials_colorind3,trials_colorind4,trials_colorind5,wholereport_resp0,wholereport_resp1,wholereport_resp2,wholereport_resp3,wholereport_resp4,wholereport_resp5,wholereport_respacc0,wholereport_respacc1,wholereport_respacc2,wholereport_respacc3,wholereport_respacc4,wholereport_respacc5,wholereport_respacc_total,wholereport_respcolorind0,wholereport_respcolorind1,wholereport_respcolorind2,wholereport_respcolorind3,wholereport_respcolorind4,wholereport_respcolorind5,wholereport_resporder0,wholereport_resporder1,wholereport_resporder2,wholereport_resporder3,wholereport_resporder4,wholereport_resporder5,wholereport_rts0,wholereport_rts1,wholereport_rts2,wholereport_rts3,wholereport_rts4,wholereport_rts5,time_blockstart,time_encarray_offset,time_encarray_onset,time_response,time_iti_offset,time_iti_onset,time_memprobe_offset,time_memprobe_onset
1,1,1,1,1.0,1.0,0.2849041235167533,0,nan,nan,nan,nan,nan,nan,nan,nan,nan,3,0,7,2,6,5,nan,nan,nan,nan,nan,nan,nan,nan,nan,nan,nan,nan,0.0,nan,nan,nan,nan,nan,nan,nan,nan,nan,nan,nan,nan,nan,nan,nan,nan,nan,nan,483.9729181344155,484.9840149367228,nan,485.26891906023957,nan,nan,nan,nan
1,2,1,1,1.0,1.0,0.3475759830325842,0,nan,nan,nan,nan,nan,nan,nan,nan,nan,7,3,6,5,0,8,nan,nan,nan,nan,nan,nan,nan,nan,nan,nan,nan,nan,0.0,nan,nan,nan,nan,nan,nan,nan,nan,nan,nan,nan,nan,nan,nan,nan,nan,nan,nan,483.9729181344155,486.00934003922157,nan,486.35691602225415,nan,nan,nan,nan
1,3,1,1,1.0,1.0,0.33093633875250816,0,nan,nan,nan,nan,nan,nan,nan,nan,nan,0,5,1,7,2,3,nan,nan,nan,nan,nan,nan,nan,nan,nan,nan,nan,nan,0.0,nan,nan,nan,nan,nan,nan,nan,nan,nan,nan,nan,nan,nan,nan,nan,nan,nan,nan,483.9729181344155,487.0259540248662,nan,487.35689036361873,nan,nan,nan,nan
1,4,1,1,1.0,1.0,0.314109671395272,0,nan,nan,nan,nan,nan,nan,nan,nan,nan,7,8,2,1,6,4,nan,nan,nan,nan,nan,nan,nan,nan,nan,nan,nan,nan,0.0,nan,nan,nan,nan,nan,nan,nan,nan,nan,nan,nan,nan,nan,nan,nan,nan,nan,nan,483.9729181344155,488.0427607356105,nan,488.3568704070058,nan,nan,nan,nan
1,5,0,0,0.0,1.0,0.3212767068762332,0,nan,nan,nan,nan,nan,nan,nan,nan,nan,4,6,3,8,0,5,nan,nan,nan,nan,nan,nan,nan,nan,nan,nan,nan,nan,0.0,nan,nan,nan,nan,nan,nan,nan,nan,nan,nan,nan,nan,nan,nan,nan,nan,nan,nan,483.9729181344155,489.0595540467184,nan,489.38083075359464,nan,nan,nan,nan
1,6,1,1,1.0,1.0,0.3524508443661034,0,nan,nan,nan,nan,nan,nan,nan,nan,nan,5,8,6,0,7,3,nan,nan,nan,nan,nan,nan,nan,nan,nan,nan,nan,nan,0.0,nan,nan,nan,nan,nan,nan,nan,nan,nan,nan,nan,nan,nan,nan,nan,nan,nan,nan,483.9729181344155,490.07636902527884,nan,490.42881986964494,nan,nan,nan,nan
1,7,1,1,1.0,1.0,0.6075997543521225,1,nan,nan,nan,nan,nan,nan,nan,nan,nan,4,3,8,7,1,2,1.0,1.0,1.0,1.0,1.0,1.0,1.0,1.0,1.0,0.0,0.0,1.0,4.0,4.0,3.0,8.0,2.0,2.0,2.0,3.0,2.0,1.0,6.0,5.0,4.0,3.125696098199114,2.045467724557966,0.9342590789310634,6.860160275362432,6.124101554509252,4.700695093022659,483.9729181344155,491.09315720479935,491.90157792251557,491.7007569591515,499.8109403986018,500.8095565412659,492.9100387247745,499.8026090301573
1,8,1,1,1.0,1.0,0.3207846307195723,0,nan,nan,nan,nan,nan,nan,nan,nan,nan,5,0,2,3,7,4,nan,nan,nan,nan,nan,nan,nan,nan,nan,nan,nan,nan,0.0,nan,nan,nan,nan,nan,nan,nan,nan,nan,nan,nan,nan,nan,nan,nan,nan,nan,nan,483.9729181344155,501.027788619278,nan,501.34857324999757,nan,nan,nan,nan
1,9,1,1,1.0,1.0,0.5359433707781136,0,nan,nan,nan,nan,nan,nan,nan,nan,nan,7,6,8,1,0,5,nan,nan,nan,nan,nan,nan,nan,nan,nan,nan,nan,nan,0.0,nan,nan,nan,nan,nan,nan,nan,nan,nan,nan,nan,nan,nan,nan,nan,nan,nan,nan,483.9729181344155,502.0445956152398,nan,502.5805389860179,nan,nan,nan,nan
1,10,1,1,1.0,1.0,0.5991249824874103,0,nan,nan,nan,nan,nan,nan,nan,nan,nan,0,3,7,6,8,1,nan,nan,nan,nan,nan,nan,nan,nan,nan,nan,nan,nan,0.0,nan,nan,nan,nan,nan,nan,nan,nan,nan,nan,nan,nan,nan,nan,nan,nan,nan,nan,483.9729181344155,503.0613823691383,nan,503.6605073516257,nan,nan,nan,nan
1,11,1,1,1.0,1.0,0.654289972037077,0,nan,nan,nan,nan,nan,nan,nan,nan,nan,3,1,4,5,2,0,nan,nan,nan,nan,nan,nan,nan,nan,nan,nan,nan,nan,0.0,nan,nan,nan,nan,nan,nan,nan,nan,nan,nan,nan,nan,nan,nan,nan,nan,nan,nan,483.9729181344155,504.07818736927584,nan,504.7324773413129,nan,nan,nan,nan
1,12,1,1,1.0,1.0,0.7095701403450221,0,nan,nan,nan,nan,nan,nan,nan,nan,nan,5,6,7,3,0,4,nan,nan,nan,nan,nan,nan,nan,nan,nan,nan,nan,nan,0.0,nan,nan,nan,nan,nan,nan,nan,nan,nan,nan,nan,nan,nan,nan,nan,nan,nan,nan,483.9729181344155,505.0949841015972,nan,505.80455424194224,nan,nan,nan,nan
1,13,1,1,1.0,1.0,0.7406373668927699,0,nan,nan,nan,nan,nan,nan,nan,nan,nan,0,7,6,2,8,1,nan,nan,nan,nan,nan,nan,nan,nan,nan,nan,nan,nan,0.0,nan,nan,nan,nan,nan,nan,nan,nan,nan,nan,nan,nan,nan,nan,nan,nan,nan,nan,483.9729181344155,506.11179793975316,nan,506.85243530664593,nan,nan,nan,nan
1,14,1,1,nan,nan,nan,0,nan,nan,nan,nan,nan,nan,nan,nan,nan,8,0,3,5,4,7,nan,nan,nan,nan,nan,nan,nan,nan,nan,nan,nan,nan,0.0,nan,nan,nan,nan,nan,nan,nan,nan,nan,nan,nan,nan,nan,nan,nan,nan,nan,nan,483.9729181344155,507.12858098745346,nan,nan,nan,nan,nan,nan
1,15,1,1,nan,nan,nan,0,nan,nan,nan,nan,nan,nan,nan,nan,nan,7,5,1,0,3,2,nan,nan,nan,nan,nan,nan,nan,nan,nan,nan,nan,nan,0.0,nan,nan,nan,nan,nan,nan,nan,nan,nan,nan,nan,nan,nan,nan,nan,nan,nan,nan,483.9729181344155,508.1453819961753,nan,nan,nan,nan,nan,nan
1,16,0,0,0.0,1.0,0.6981440517120063,0,nan,nan,nan,nan,nan,nan,nan,nan,nan,4,8,0,1,6,3,nan,nan,nan,nan,nan,nan,nan,nan,nan,nan,nan,nan,0.0,nan,nan,nan,nan,nan,nan,nan,nan,nan,nan,nan,nan,nan,nan,nan,nan,nan,nan,483.9729181344155,509.16221778676845,nan,509.86036183848046,nan,nan,nan,nan
1,17,1,1,1.0,1.0,0.6813863776624203,1,nan,nan,nan,nan,nan,nan,nan,nan,nan,2,6,7,8,3,0,1.0,1.0,1.0,1.0,1.0,1.0,1.0,1.0,1.0,1.0,0.0,0.0,4.0,2.0,6.0,7.0,8.0,1.0,1.0,3.0,2.0,1.0,4.0,5.0,6.0,2.5828836178407073,1.6864970135502517,0.7662926109042019,3.8225711865816265,4.741698210360482,5.3090800028294325,483.9729181344155,510.1789634868037,510.9874115737621,510.8603498644661,517.354907519184,518.3591833929531,512.0041974724736,517.346571303904
1,18,1,1,1.0,1.0,0.31203901721164584,0,nan,nan,nan,nan,nan,nan,nan,nan,nan,6,7,3,4,8,1,nan,nan,nan,nan,nan,nan,nan,nan,nan,nan,nan,nan,0.0,nan,nan,nan,nan,nan,nan,nan,nan,nan,nan,nan,nan,nan,nan,nan,nan,nan,nan,483.9729181344155,518.5800982271321,nan,518.8921372443438,nan,nan,nan,nan
1,19,1,1,1.0,1.0,0.5112531778868288,0,nan,nan,nan,nan,nan,nan,nan,nan,nan,5,3,1,7,2,8,nan,nan,nan,nan,nan,nan,nan,nan,nan,nan,nan,nan,0.0,nan,nan,nan,nan,nan,nan,nan,nan,nan,nan,nan,nan,nan,nan,nan,nan,nan,nan,483.9729181344155,519.5968898276333,nan,520.1081430055201,nan,nan,nan,nan
1,20,1,1,1.0,1.0,0.4784160736016929,0,nan,nan,nan,nan,nan,nan,nan,nan,nan,0,4,6,8,1,2,nan,nan,nan,nan,nan,nan,nan,nan,nan,nan,nan,nan,0.0,nan,nan,nan,nan,nan,nan,nan,nan,nan,nan,nan,nan,nan,nan,nan,nan,nan,nan,483.9729181344155,520.6136871301569,nan,521.0921032037586,nan,nan,nan,nan
1,21,1,1,1.0,1.0,0.5655734268948436,0,nan,nan,nan,nan,nan,nan,nan,nan,nan,3,7,1,6,0,5,nan,nan,nan,nan,nan,nan,nan,nan,nan,nan,nan,nan,0.0,nan,nan,nan,nan,nan,nan,nan,nan,nan,nan,nan,nan,nan,nan,nan,nan,nan,nan,483.9729181344155,521.6304827223066,nan,522.1960561492015,nan,nan,nan,nan
1,22,1,1,1.0,1.0,0.6204102707561105,0,nan,nan,nan,nan,nan,nan,nan,nan,nan,8,4,3,0,2,6,nan,nan,nan,nan,nan,nan,nan,nan,nan,nan,nan,nan,0.0,nan,nan,nan,nan,nan,nan,nan,nan,nan,nan,nan,nan,nan,nan,nan,nan,nan,nan,483.9729181344155,522.6556216566823,nan,523.2760319274385,nan,nan,nan,nan
1,23,1,1,1.0,1.0,0.5955820910166949,0,nan,nan,nan,nan,nan,nan,nan,nan,nan,0,2,6,7,5,8,nan,nan,nan,nan,nan,nan,nan,nan,nan,nan,nan,nan,0.0,nan,nan,nan,nan,nan,nan,nan,nan,nan,nan,nan,nan,nan,nan,nan,nan,nan,nan,483.9729181344155,523.6724306482356,nan,524.2680127392523,nan,nan,nan,nan
1,24,1,1,1.0,1.0,0.506443033227697,0,nan,nan,nan,nan,nan,nan,nan,nan,nan,4,8,1,2,6,0,nan,nan,nan,nan,nan,nan,nan,nan,nan,nan,nan,nan,0.0,nan,nan,nan,nan,nan,nan,nan,nan,nan,nan,nan,nan,nan,nan,nan,nan,nan,nan,483.9729181344155,524.6975701530464,nan,525.2040131862741,nan,nan,nan,nan
1,25,1,1,1.0,1.0,0.3856423234101385,0,nan,nan,nan,nan,nan,nan,nan,nan,nan,1,5,3,0,8,7,nan,nan,nan,nan,nan,nan,nan,nan,nan,nan,nan,nan,0.0,nan,nan,nan,nan,nan,nan,nan,nan,nan,nan,nan,nan,nan,nan,nan,nan,nan,nan,483.9729181344155,525.7143654597457,nan,526.1000077831559,nan,nan,nan,nan
1,26,0,0,0.0,1.0,0.5047889046836644,0,nan,nan,nan,nan,nan,nan,nan,nan,nan,4,3,0,2,7,6,nan,nan,nan,nan,nan,nan,nan,nan,nan,nan,nan,nan,0.0,nan,nan,nan,nan,nan,nan,nan,nan,nan,nan,nan,nan,nan,nan,nan,nan,nan,nan,483.9729181344155,526.7311727406923,nan,527.2359616453759,nan,nan,nan,nan
1,27,1,1,1.0,1.0,0.4879810537677258,0,nan,nan,nan,nan,nan,nan,nan,nan,nan,7,4,3,0,6,2,nan,nan,nan,nan,nan,nan,nan,nan,nan,nan,nan,nan,0.0,nan,nan,nan,nan,nan,nan,nan,nan,nan,nan,nan,nan,nan,nan,nan,nan,nan,nan,483.9729181344155,527.7479666220024,nan,528.2359476757701,nan,nan,nan,nan
1,28,1,1,1.0,1.0,0.5751304242294282,0,nan,nan,nan,nan,nan,nan,nan,nan,nan,1,3,5,2,0,6,nan,nan,nan,nan,nan,nan,nan,nan,nan,nan,nan,nan,0.0,nan,nan,nan,nan,nan,nan,nan,nan,nan,nan,nan,nan,nan,nan,nan,nan,nan,nan,483.9729181344155,528.764756227145,nan,529.3398866513744,nan,nan,nan,nan
1,29,1,1,1.0,1.0,0.5023513315245509,0,nan,nan,nan,nan,nan,nan,nan,nan,nan,2,5,1,0,4,8,nan,nan,nan,nan,nan,nan,nan,nan,nan,nan,nan,nan,0.0,nan,nan,nan,nan,nan,nan,nan,nan,nan,nan,nan,nan,nan,nan,nan,nan,nan,nan,483.9729181344155,529.7815532444511,nan,530.2839045759756,nan,nan,nan,nan
1,30,1,1,1.0,1.0,0.47750804177485406,0,nan,nan,nan,nan,nan,nan,nan,nan,nan,3,1,7,2,5,6,nan,nan,nan,nan,nan,nan,nan,nan,nan,nan,nan,nan,0.0,nan,nan,nan,nan,nan,nan,nan,nan,nan,nan,nan,nan,nan,nan,nan,nan,nan,nan,483.9729181344155,530.7983571041841,nan,531.275865145959,nan,nan,nan,nan
1,31,1,1,1.0,1.0,0.492668321589008,0,nan,nan,nan,nan,nan,nan,nan,nan,nan,7,6,2,8,0,3,nan,nan,nan,nan,nan,nan,nan,nan,nan,nan,nan,nan,0.0,nan,nan,nan,nan,nan,nan,nan,nan,nan,nan,nan,nan,nan,nan,nan,nan,nan,nan,483.9729181344155,531.8151723677292,nan,532.3078406893183,nan,nan,nan,nan
1,32,1,1,1.0,1.0,0.6358647695742548,0,nan,nan,nan,nan,nan,nan,nan,nan,nan,0,4,8,3,1,5,nan,nan,nan,nan,nan,nan,nan,nan,nan,nan,nan,nan,0.0,nan,nan,nan,nan,nan,nan,nan,nan,nan,nan,nan,nan,nan,nan,nan,nan,nan,nan,483.9729181344155,532.8319531348534,nan,533.4678179044276,nan,nan,nan,nan
1,33,1,1,1.0,1.0,0.6910229169297963,0,nan,nan,nan,nan,nan,nan,nan,nan,nan,5,6,4,8,7,1,nan,nan,nan,nan,nan,nan,nan,nan,nan,nan,nan,nan,0.0,nan,nan,nan,nan,nan,nan,nan,nan,nan,nan,nan,nan,nan,nan,nan,nan,nan,nan,483.9729181344155,533.8487547137775,nan,534.5397776307072,nan,nan,nan,nan
1,34,1,1,nan,nan,nan,0,nan,nan,nan,nan,nan,nan,nan,nan,nan,4,5,0,2,8,7,nan,nan,nan,nan,nan,nan,nan,nan,nan,nan,nan,nan,0.0,nan,nan,nan,nan,nan,nan,nan,nan,nan,nan,nan,nan,nan,nan,nan,nan,nan,nan,483.9729181344155,534.8655557224993,nan,nan,nan,nan,nan,nan
1,35,0,0,0.0,1.0,0.6093721981160343,0,nan,nan,nan,nan,nan,nan,nan,nan,nan,1,8,7,4,0,6,nan,nan,nan,nan,nan,nan,nan,nan,nan,nan,nan,nan,0.0,nan,nan,nan,nan,nan,nan,nan,nan,nan,nan,nan,nan,nan,nan,nan,nan,nan,nan,483.9729181344155,535.8823513144162,nan,536.4917235125322,nan,nan,nan,nan
1,36,1,1,1.0,1.0,0.6165466459933668,0,nan,nan,nan,nan,nan,nan,nan,nan,nan,3,2,8,1,4,0,nan,nan,nan,nan,nan,nan,nan,nan,nan,nan,nan,nan,0.0,nan,nan,nan,nan,nan,nan,nan,nan,nan,nan,nan,nan,nan,nan,nan,nan,nan,nan,483.9729181344155,536.8991865348071,nan,537.5157331808005,nan,nan,nan,nan
1,37,1,1,1.0,1.0,0.5277497037313879,0,nan,nan,nan,nan,nan,nan,nan,nan,nan,8,1,5,3,0,2,nan,nan,nan,nan,nan,nan,nan,nan,nan,nan,nan,nan,0.0,nan,nan,nan,nan,nan,nan,nan,nan,nan,nan,nan,nan,nan,nan,nan,nan,nan,nan,483.9729181344155,537.9159647359047,nan,538.4437144396361,nan,nan,nan,nan
1,38,1,1,1.0,1.0,0.702908010687679,0,nan,nan,nan,nan,nan,nan,nan,nan,nan,7,8,1,0,5,3,nan,nan,nan,nan,nan,nan,nan,nan,nan,nan,nan,nan,0.0,nan,nan,nan,nan,nan,nan,nan,nan,nan,nan,nan,nan,nan,nan,nan,nan,nan,nan,483.9729181344155,538.9327680254355,nan,539.6356760361232,nan,nan,nan,nan
1,39,1,1,1.0,1.0,0.6221074487548321,1,nan,nan,nan,nan,nan,nan,nan,nan,nan,5,7,0,3,4,1,1.0,1.0,1.0,1.0,1.0,1.0,1.0,1.0,1.0,1.0,1.0,0.0,5.0,5.0,7.0,0.0,3.0,4.0,4.0,3.0,2.0,1.0,4.0,5.0,6.0,2.8282046888489276,2.0110993683338165,1.1242204396985471,4.187305118888617,5.178059731610119,5.706010998459533,483.9729181344155,539.9495550645515,540.7579792034812,540.5716625133064,547.5171843208373,548.5133070114534,541.7747836334165,547.5088549479842
1,40,0,0,nan,nan,nan,0,nan,nan,nan,nan,nan,nan,nan,nan,nan,1,4,6,5,3,2,nan,nan,nan,nan,nan,nan,nan,nan,nan,nan,nan,nan,0.0,nan,nan,nan,nan,nan,nan,nan,nan,nan,nan,nan,nan,nan,nan,nan,nan,nan,nan,483.9729181344155,548.7340382435359,nan,nan,nan,nan,nan,nan
1,41,1,1,0.0,0.0,0.04428001353517175,0,nan,nan,nan,nan,nan,nan,nan,nan,nan,4,0,2,1,7,6,nan,nan,nan,nan,nan,nan,nan,nan,nan,nan,nan,nan,0.0,nan,nan,nan,nan,nan,nan,nan,nan,nan,nan,nan,nan,nan,nan,nan,nan,nan,nan,483.9729181344155,549.7591697655153,nan,549.8034497790504,nan,nan,nan,nan
1,42,1,1,nan,nan,nan,1,nan,nan,nan,nan,nan,nan,nan,nan,nan,6,8,4,0,2,3,1.0,1.0,1.0,1.0,1.0,1.0,0.0,1.0,1.0,0.0,0.0,0.0,2.0,7.0,8.0,4.0,7.0,7.0,7.0,3.0,2.0,1.0,6.0,5.0,4.0,3.0318221615161747,2.176290994277224,1.2099739792756736,5.607206891756505,4.775452469009906,3.896096661221236,483.9729181344155,550.7843084149063,551.5927314134315,nan,558.25192162022,559.261448397534,552.6095392645802,558.2435919621494
1,43,1,1,1.0,1.0,0.4057421812321991,0,nan,nan,nan,nan,nan,nan,nan,nan,nan,8,2,7,3,5,0,nan,nan,nan,nan,nan,nan,nan,nan,nan,nan,nan,nan,0.0,nan,nan,nan,nan,nan,nan,nan,nan,nan,nan,nan,nan,nan,nan,nan,nan,nan,nan,483.9729181344155,559.4854551006574,nan,559.8911972818896,nan,nan,nan,nan
1,44,1,1,1.0,1.0,0.372918191133067,0,nan,nan,nan,nan,nan,nan,nan,nan,nan,3,4,8,0,6,7,nan,nan,nan,nan,nan,nan,nan,nan,nan,nan,nan,nan,0.0,nan,nan,nan,nan,nan,nan,nan,nan,nan,nan,nan,nan,nan,nan,nan,nan,nan,nan,483.9729181344155,560.502259245608,nan,560.8751774367411,nan,nan,nan,nan
1,45,0,0,0.0,1.0,0.47579233231954277,0,nan,nan,nan,nan,nan,nan,nan,nan,nan,8,1,4,3,5,2,nan,nan,nan,nan,nan,nan,nan,nan,nan,nan,nan,nan,0.0,nan,nan,nan,nan,nan,nan,nan,nan,nan,nan,nan,nan,nan,nan,nan,nan,nan,nan,483.9729181344155,561.5273722363636,nan,562.0031645686831,nan,nan,nan,nan
1,46,1,1,1.0,1.0,0.43499106355011463,0,nan,nan,nan,nan,nan,nan,nan,nan,nan,5,3,0,8,7,1,nan,nan,nan,nan,nan,nan,nan,nan,nan,nan,nan,nan,0.0,nan,nan,nan,nan,nan,nan,nan,nan,nan,nan,nan,nan,nan,nan,nan,nan,nan,nan,483.9729181344155,562.5441558542661,nan,562.9791469178163,nan,nan,nan,nan
1,47,1,1,1.0,1.0,0.466152086853981,0,nan,nan,nan,nan,nan,nan,nan,nan,nan,2,1,7,4,3,6,nan,nan,nan,nan,nan,nan,nan,nan,nan,nan,nan,nan,0.0,nan,nan,nan,nan,nan,nan,nan,nan,nan,nan,nan,nan,nan,nan,nan,nan,nan,nan,483.9729181344155,563.5609822366387,nan,564.0271343234926,nan,nan,nan,nan
1,48,1,1,1.0,1.0,0.4893113127909601,0,nan,nan,nan,nan,nan,nan,nan,nan,nan,4,5,8,1,0,2,nan,nan,nan,nan,nan,nan,nan,nan,nan,nan,nan,nan,0.0,nan,nan,nan,nan,nan,nan,nan,nan,nan,nan,nan,nan,nan,nan,nan,nan,nan,nan,483.9729181344155,564.5777741223574,nan,565.0670854351483,nan,nan,nan,nan
1,49,1,1,1.0,1.0,0.49648034386336803,0,nan,nan,nan,nan,nan,nan,nan,nan,nan,2,1,7,3,6,5,nan,nan,nan,nan,nan,nan,nan,nan,nan,nan,nan,nan,0.0,nan,nan,nan,nan,nan,nan,nan,nan,nan,nan,nan,nan,nan,nan,nan,nan,nan,nan,483.9729181344155,565.5945845392998,nan,566.0910648831632,nan,nan,nan,nan
1,50,1,1,1.0,1.0,0.49532826989889145,0,nan,nan,nan,nan,nan,nan,nan,nan,nan,6,8,2,7,1,4,nan,nan,nan,nan,nan,nan,nan,nan,nan,nan,nan,nan,0.0,nan,nan,nan,nan,nan,nan,nan,nan,nan,nan,nan,nan,nan,nan,nan,nan,nan,nan,483.9729181344155,566.6197126400657,nan,567.1150409099646,nan,nan,nan,nan
1,51,1,1,1.0,1.0,0.4621464842930436,0,nan,nan,nan,nan,nan,nan,nan,nan,nan,4,0,7,2,8,3,nan,nan,nan,nan,nan,nan,nan,nan,nan,nan,nan,nan,0.0,nan,nan,nan,nan,nan,nan,nan,nan,nan,nan,nan,nan,nan,nan,nan,nan,nan,nan,483.9729181344155,567.6448481534608,nan,568.1069946377538,nan,nan,nan,nan
1,52,1,1,1.0,1.0,0.46905693295411766,0,nan,nan,nan,nan,nan,nan,nan,nan,nan,2,5,0,3,6,7,nan,nan,nan,nan,nan,nan,nan,nan,nan,nan,nan,nan,0.0,nan,nan,nan,nan,nan,nan,nan,nan,nan,nan,nan,nan,nan,nan,nan,nan,nan,nan,483.9729181344155,568.6699825264513,nan,569.1390394594055,nan,nan,nan,nan
1,53,1,1,1.0,1.0,0.5641841527540237,0,nan,nan,nan,nan,nan,nan,nan,nan,nan,7,0,1,6,8,3,nan,nan,nan,nan,nan,nan,nan,nan,nan,nan,nan,nan,0.0,nan,nan,nan,nan,nan,nan,nan,nan,nan,nan,nan,nan,nan,nan,nan,nan,nan,nan,483.9729181344155,569.6867869563866,nan,570.2509711091407,nan,nan,nan,nan
1,54,1,1,1.0,1.0,0.5313518953043967,0,nan,nan,nan,nan,nan,nan,nan,nan,nan,3,7,6,8,4,0,nan,nan,nan,nan,nan,nan,nan,nan,nan,nan,nan,nan,0.0,nan,nan,nan,nan,nan,nan,nan,nan,nan,nan,nan,nan,nan,nan,nan,nan,nan,nan,483.9729181344155,570.7035873949062,nan,571.2349392902106,nan,nan,nan,nan
1,55,1,1,1.0,1.0,0.4585559815168381,0,nan,nan,nan,nan,nan,nan,nan,nan,nan,5,1,3,2,6,8,nan,nan,nan,nan,nan,nan,nan,nan,nan,nan,nan,nan,0.0,nan,nan,nan,nan,nan,nan,nan,nan,nan,nan,nan,nan,nan,nan,nan,nan,nan,nan,483.9729181344155,571.7203770000488,nan,572.1789329815656,nan,nan,nan,nan
1,56,1,1,1.0,1.0,0.44940153998322785,0,nan,nan,nan,nan,nan,nan,nan,nan,nan,7,0,5,8,1,2,nan,nan,nan,nan,nan,nan,nan,nan,nan,nan,nan,nan,0.0,nan,nan,nan,nan,nan,nan,nan,nan,nan,nan,nan,nan,nan,nan,nan,nan,nan,nan,483.9729181344155,572.7455042456277,nan,573.1949057856109,nan,nan,nan,nan
1,57,1,1,1.0,1.0,0.504239239031449,0,nan,nan,nan,nan,nan,nan,nan,nan,nan,6,4,2,7,0,8,nan,nan,nan,nan,nan,nan,nan,nan,nan,nan,nan,nan,0.0,nan,nan,nan,nan,nan,nan,nan,nan,nan,nan,nan,nan,nan,nan,nan,nan,nan,nan,483.9729181344155,573.7706394738052,nan,574.2748787128367,nan,nan,nan,nan
1,58,1,1,1.0,1.0,0.4473753608763218,0,nan,nan,nan,nan,nan,nan,nan,nan,nan,5,3,8,4,1,2,nan,nan,nan,nan,nan,nan,nan,nan,nan,nan,nan,nan,0.0,nan,nan,nan,nan,nan,nan,nan,nan,nan,nan,nan,nan,nan,nan,nan,nan,nan,nan,483.9729181344155,574.7874724133871,nan,575.2348477742635,nan,nan,nan,nan
1,59,1,1,1.0,1.0,0.4065615478903055,0,nan,nan,nan,nan,nan,nan,nan,nan,nan,1,4,3,6,0,8,nan,nan,nan,nan,nan,nan,nan,nan,nan,nan,nan,nan,0.0,nan,nan,nan,nan,nan,nan,nan,nan,nan,nan,nan,nan,nan,nan,nan,nan,nan,nan,483.9729181344155,575.8042708563153,nan,576.2108324042056,nan,nan,nan,nan
1,60,1,1,1.0,1.0,0.4453956524375826,0,nan,nan,nan,nan,nan,nan,nan,nan,nan,0,7,1,8,4,5,nan,nan,nan,nan,nan,nan,nan,nan,nan,nan,nan,nan,0.0,nan,nan,nan,nan,nan,nan,nan,nan,nan,nan,nan,nan,nan,nan,nan,nan,nan,nan,483.9729181344155,576.8294106461108,nan,577.2748062985484,nan,nan,nan,nan
1,61,1,1,1.0,1.0,0.4125770793762058,0,nan,nan,nan,nan,nan,nan,nan,nan,nan,5,6,8,1,2,3,nan,nan,nan,nan,nan,nan,nan,nan,nan,nan,nan,nan,0.0,nan,nan,nan,nan,nan,nan,nan,nan,nan,nan,nan,nan,nan,nan,nan,nan,nan,nan,483.9729181344155,577.8462056678254,nan,578.2587827472016,nan,nan,nan,nan
1,62,1,1,1.0,1.0,0.49179678224027157,0,nan,nan,nan,nan,nan,nan,nan,nan,nan,6,3,4,0,7,8,nan,nan,nan,nan,nan,nan,nan,nan,nan,nan,nan,nan,0.0,nan,nan,nan,nan,nan,nan,nan,nan,nan,nan,nan,nan,nan,nan,nan,nan,nan,nan,483.9729181344155,578.8629633421078,nan,579.3547601243481,nan,nan,nan,nan
1,63,1,1,1.0,1.0,0.5309319482184947,0,nan,nan,nan,nan,nan,nan,nan,nan,nan,2,1,0,5,6,4,nan,nan,nan,nan,nan,nan,nan,nan,nan,nan,nan,nan,0.0,nan,nan,nan,nan,nan,nan,nan,nan,nan,nan,nan,nan,nan,nan,nan,nan,nan,nan,483.9729181344155,579.8797962816898,nan,580.4107282299083,nan,nan,nan,nan
1,64,1,1,1.0,1.0,0.5541117014363408,0,nan,nan,nan,nan,nan,nan,nan,nan,nan,8,3,6,0,5,1,nan,nan,nan,nan,nan,nan,nan,nan,nan,nan,nan,nan,0.0,nan,nan,nan,nan,nan,nan,nan,nan,nan,nan,nan,nan,nan,nan,nan,nan,nan,nan,483.9729181344155,580.8965927287936,nan,581.45070443023,nan,nan,nan,nan
1,65,1,1,1.0,1.0,0.6729726162739098,0,nan,nan,nan,nan,nan,nan,nan,nan,nan,0,5,4,2,6,8,nan,nan,nan,nan,nan,nan,nan,nan,nan,nan,nan,nan,0.0,nan,nan,nan,nan,nan,nan,nan,nan,nan,nan,nan,nan,nan,nan,nan,nan,nan,nan,483.9729181344155,581.9217082855757,nan,582.5946809018496,nan,nan,nan,nan
1,66,1,1,1.0,1.0,0.6718404989223927,0,nan,nan,nan,nan,nan,nan,nan,nan,nan,3,2,6,8,7,4,nan,nan,nan,nan,nan,nan,nan,nan,nan,nan,nan,nan,0.0,nan,nan,nan,nan,nan,nan,nan,nan,nan,nan,nan,nan,nan,nan,nan,nan,nan,nan,483.9729181344155,582.9468298291322,nan,583.6186703280546,nan,nan,nan,nan
1,67,1,1,1.0,1.0,0.6786454617977142,0,nan,nan,nan,nan,nan,nan,nan,nan,nan,5,6,0,7,3,8,nan,nan,nan,nan,nan,nan,nan,nan,nan,nan,nan,nan,0.0,nan,nan,nan,nan,nan,nan,nan,nan,nan,nan,nan,nan,nan,nan,nan,nan,nan,nan,483.9729181344155,583.9719864397775,nan,584.6506319015753,nan,nan,nan,nan
1,68,1,1,1.0,1.0,0.6614635644946247,0,nan,nan,nan,nan,nan,nan,nan,nan,nan,7,5,2,6,1,0,nan,nan,nan,nan,nan,nan,nan,nan,nan,nan,nan,nan,0.0,nan,nan,nan,nan,nan,nan,nan,nan,nan,nan,nan,nan,nan,nan,nan,nan,nan,nan,483.9729181344155,584.9971535988152,nan,585.6586171633098,nan,nan,nan,nan
1,69,1,1,nan,nan,nan,0,nan,nan,nan,nan,nan,nan,nan,nan,nan,8,3,1,7,6,2,nan,nan,nan,nan,nan,nan,nan,nan,nan,nan,nan,nan,0.0,nan,nan,nan,nan,nan,nan,nan,nan,nan,nan,nan,nan,nan,nan,nan,nan,nan,nan,483.9729181344155,586.0222252507228,nan,nan,nan,nan,nan,nan
1,70,1,1,nan,nan,nan,0,nan,nan,nan,nan,nan,nan,nan,nan,nan,4,7,0,1,3,8,nan,nan,nan,nan,nan,nan,nan,nan,nan,nan,nan,nan,0.0,nan,nan,nan,nan,nan,nan,nan,nan,nan,nan,nan,nan,nan,nan,nan,nan,nan,nan,483.9729181344155,587.0473815759178,nan,nan,nan,nan,nan,nan
1,71,1,1,nan,nan,nan,0,nan,nan,nan,nan,nan,nan,nan,nan,nan,3,4,5,8,2,1,nan,nan,nan,nan,nan,nan,nan,nan,nan,nan,nan,nan,0.0,nan,nan,nan,nan,nan,nan,nan,nan,nan,nan,nan,nan,nan,nan,nan,nan,nan,nan,483.9729181344155,588.0724985580891,nan,nan,nan,nan,nan,nan
1,72,1,1,nan,nan,nan,0,nan,nan,nan,nan,nan,nan,nan,nan,nan,4,1,2,7,3,0,nan,nan,nan,nan,nan,nan,nan,nan,nan,nan,nan,nan,0.0,nan,nan,nan,nan,nan,nan,nan,nan,nan,nan,nan,nan,nan,nan,nan,nan,nan,nan,483.9729181344155,589.0977546672802,nan,nan,nan,nan,nan,nan
1,73,0,0,0.0,1.0,0.46371764969080687,0,nan,nan,nan,nan,nan,nan,nan,nan,nan,0,2,6,3,8,5,nan,nan,nan,nan,nan,nan,nan,nan,nan,nan,nan,nan,0.0,nan,nan,nan,nan,nan,nan,nan,nan,nan,nan,nan,nan,nan,nan,nan,nan,nan,nan,483.9729181344155,590.1227906821296,nan,590.5865083318204,nan,nan,nan,nan
1,74,1,1,1.0,1.0,0.3505549542605877,0,nan,nan,nan,nan,nan,nan,nan,nan,nan,5,6,3,1,7,8,nan,nan,nan,nan,nan,nan,nan,nan,nan,nan,nan,nan,0.0,nan,nan,nan,nan,nan,nan,nan,nan,nan,nan,nan,nan,nan,nan,nan,nan,nan,nan,483.9729181344155,591.1479222041089,nan,591.4984771583695,nan,nan,nan,nan
1,75,1,1,1.0,1.0,0.40540519752539694,0,nan,nan,nan,nan,nan,nan,nan,nan,nan,8,5,2,6,4,7,nan,nan,nan,nan,nan,nan,nan,nan,nan,nan,nan,nan,0.0,nan,nan,nan,nan,nan,nan,nan,nan,nan,nan,nan,nan,nan,nan,nan,nan,nan,nan,483.9729181344155,592.1730639894959,nan,592.5784691870213,nan,nan,nan,nan
1,76,1,1,1.0,1.0,0.46790571394376457,0,nan,nan,nan,nan,nan,nan,nan,nan,nan,4,0,1,2,7,5,nan,nan,nan,nan,nan,nan,nan,nan,nan,nan,nan,nan,0.0,nan,nan,nan,nan,nan,nan,nan,nan,nan,nan,nan,nan,nan,nan,nan,nan,nan,nan,483.9729181344155,593.2065206081606,nan,593.6744263221044,nan,nan,nan,nan
1,77,1,1,1.0,1.0,0.370408488670364,0,nan,nan,nan,nan,nan,nan,nan,nan,nan,5,2,0,6,4,3,nan,nan,nan,nan,nan,nan,nan,nan,nan,nan,nan,nan,0.0,nan,nan,nan,nan,nan,nan,nan,nan,nan,nan,nan,nan,nan,nan,nan,nan,nan,nan,483.9729181344155,594.2399957578164,nan,594.6104042464867,nan,nan,nan,nan
1,78,1,1,1.0,1.0,0.36125832377001643,0,nan,nan,nan,nan,nan,nan,nan,nan,nan,7,8,4,5,2,0,nan,nan,nan,nan,nan,nan,nan,nan,nan,nan,nan,nan,0.0,nan,nan,nan,nan,nan,nan,nan,nan,nan,nan,nan,nan,nan,nan,nan,nan,nan,nan,483.9729181344155,595.2651258544065,nan,595.6263841781765,nan,nan,nan,nan
1,79,1,1,1.0,1.0,0.3989509027451277,0,nan,nan,nan,nan,nan,nan,nan,nan,nan,6,7,2,3,0,8,nan,nan,nan,nan,nan,nan,nan,nan,nan,nan,nan,nan,0.0,nan,nan,nan,nan,nan,nan,nan,nan,nan,nan,nan,nan,nan,nan,nan,nan,nan,nan,483.9729181344155,596.3154125614092,nan,596.7143634641543,nan,nan,nan,nan
1,80,1,1,1.0,1.0,0.5819276897236705,0,nan,nan,nan,nan,nan,nan,nan,nan,nan,5,3,7,0,6,1,nan,nan,nan,nan,nan,nan,nan,nan,nan,nan,nan,nan,0.0,nan,nan,nan,nan,nan,nan,nan,nan,nan,nan,nan,nan,nan,nan,nan,nan,nan,nan,483.9729181344155,597.3403966887854,nan,597.9223243785091,nan,nan,nan,nan
1,81,1,1,1.0,1.0,0.5647654640488327,0,0.0,0.0,0.0,0.4987862909238943,0.12672838621867832,0.372057904705216,0.6255146771425726,0.12672838621867832,0.5152146855058769,4,0,6,1,5,7,nan,nan,nan,nan,nan,nan,nan,nan,nan,nan,nan,nan,0.0,nan,nan,nan,nan,nan,nan,nan,nan,nan,nan,nan,nan,nan,nan,nan,nan,nan,nan,483.9729181344155,598.3655341977719,nan,598.9302996618208,nan,nan,nan,nan
1,82,1,1,1.0,1.0,0.49961896892637014,0,0.0,0.0,0.0,0.4997026683284073,0.12608191475781377,0.37362075357059354,0.6257845830862211,0.12608191475781377,0.5487707075662911,7,8,0,6,2,5,nan,nan,nan,nan,nan,nan,nan,nan,nan,nan,nan,nan,0.0,nan,nan,nan,nan,nan,nan,nan,nan,nan,nan,nan,nan,nan,nan,nan,nan,nan,nan,483.9729181344155,599.3906603029463,nan,599.8902792718727,nan,nan,nan,nan
1,83,1,1,1.0,1.0,0.4984708861447871,0,0.0,0.0,0.0,0.49970152176125615,0.12521536249775245,0.3744861592635037,0.6249168842590086,0.12521536249775245,0.5209517730399966,4,1,2,3,6,8,nan,nan,nan,nan,nan,nan,nan,nan,nan,nan,nan,nan,0.0,nan,nan,nan,nan,nan,nan,nan,nan,nan,nan,nan,nan,nan,nan,nan,nan,nan,nan,483.9729181344155,600.4157932505477,nan,600.9142641366925,nan,nan,nan,nan
1,84,1,1,1.0,1.0,0.4733470615465194,0,0.0,0.0,0.0,0.4996848915502228,0.12436651616566546,0.3753183753845573,0.6240514077158883,0.12436651616566546,0.4904789722058922,1,2,0,5,8,3,nan,nan,nan,nan,nan,nan,nan,nan,nan,nan,nan,nan,0.0,nan,nan,nan,nan,nan,nan,nan,nan,nan,nan,nan,nan,nan,nan,nan,nan,nan,nan,483.9729181344155,601.4408996840939,nan,601.9142467456404,nan,nan,nan,nan
1,85,0,0,0.0,1.0,0.4721567847300321,0,0.0,0.0,0.0,0.4993337204835067,0.12357155431037335,0.37576216617313335,0.62290527479388,0.12357155431037335,0.48132491080711287,4,5,2,6,1,7,nan,nan,nan,nan,nan,nan,nan,nan,nan,nan,nan,nan,0.0,nan,nan,nan,nan,nan,nan,nan,nan,nan,nan,nan,nan,nan,nan,nan,nan,nan,nan,483.9729181344155,602.4660682685208,nan,602.9382250532508,nan,nan,nan,nan
1,86,1,1,1.0,1.0,0.359028015518561,0,0.0,0.0,0.0,0.4989761292235926,0.12279494810044789,0.3761811811231447,0.6217710773240405,0.12279494810044789,0.43484395393170416,0,7,1,2,6,5,nan,nan,nan,nan,nan,nan,nan,nan,nan,nan,nan,nan,0.0,nan,nan,nan,nan,nan,nan,nan,nan,nan,nan,nan,nan,nan,nan,nan,nan,nan,nan,483.9729181344155,603.491176127689,nan,603.8502041432075,nan,nan,nan,nan
1,87,1,1,1.0,1.0,0.39784216322004795,0,0.0,0.0,0.0,0.4971586212533974,0.12301961953761853,0.37413900171577885,0.6201782407910159,0.12301961953761853,0.409675654489547,5,2,7,3,0,1,nan,nan,nan,nan,nan,nan,nan,nan,nan,nan,nan,nan,0.0,nan,nan,nan,nan,nan,nan,nan,nan,nan,nan,nan,nan,nan,nan,nan,nan,nan,nan,483.9729181344155,604.516335304128,nan,604.914177467348,nan,nan,nan,nan
1,88,0,0,0.0,1.0,0.580654164776206,0,0.0,0.0,0.0,0.4958853333298929,0.12273809740770639,0.37314723592218646,0.6186234307375993,0.12273809740770639,0.4458414478382717,6,3,1,5,8,4,nan,nan,nan,nan,nan,nan,nan,nan,nan,nan,nan,nan,0.0,nan,nan,nan,nan,nan,nan,nan,nan,nan,nan,nan,nan,nan,nan,nan,nan,nan,nan,483.9729181344155,605.5414793703239,nan,606.1221335351001,nan,nan,nan,nan
1,89,1,1,1.0,1.0,0.5394289579708129,0,0.0,0.0,0.0,0.4969583565127576,0.12232643395947022,0.37463192255328737,0.6192847904722278,0.12232643395947022,0.5059750953223556,8,0,7,2,5,3,nan,nan,nan,nan,nan,nan,nan,nan,nan,nan,nan,nan,0.0,nan,nan,nan,nan,nan,nan,nan,nan,nan,nan,nan,nan,nan,nan,nan,nan,nan,nan,483.9729181344155,606.5666947106365,nan,607.1061236686073,nan,nan,nan,nan
1,90,1,1,1.0,1.0,0.5303189915139228,0,0.0,0.0,0.0,0.4974892390309833,0.12165103597289904,0.37583820305808424,0.6191402750038824,0.12165103597289904,0.5501340380869806,4,1,8,0,2,7,nan,nan,nan,nan,nan,nan,nan,nan,nan,nan,nan,nan,0.0,nan,nan,nan,nan,nan,nan,nan,nan,nan,nan,nan,nan,nan,nan,nan,nan,nan,nan,483.9729181344155,607.5917797619477,nan,608.1220987534616,nan,nan,nan,nan
1,91,0,0,0.0,1.0,0.6171883975621313,0,0.0,0.0,0.0,0.4978945446171924,0.12095211024694817,0.3769424343702442,0.6188466548641406,0.12095211024694817,0.562312115682289,3,7,0,6,1,8,nan,nan,nan,nan,nan,nan,nan,nan,nan,nan,nan,nan,0.0,nan,nan,nan,nan,nan,nan,nan,nan,nan,nan,nan,nan,nan,nan,nan,nan,nan,nan,483.9729181344155,608.6168705152813,nan,609.2340589128435,nan,nan,nan,nan
1,92,1,1,1.0,1.0,0.44801369146443903,0,0.0,0.0,0.0,0.4993493477018868,0.12092327365375632,0.3784260740481305,0.6202726213556431,0.12092327365375632,0.5318403601801643,2,8,4,0,5,7,nan,nan,nan,nan,nan,nan,nan,nan,nan,nan,nan,nan,0.0,nan,nan,nan,nan,nan,nan,nan,nan,nan,nan,nan,nan,nan,nan,nan,nan,nan,nan,483.9729181344155,609.6420120156836,nan,610.090025707148,nan,nan,nan,nan
1,93,1,1,1.0,1.0,0.431208121124655,0,0.0,0.0,0.0,0.49873084581950794,0.12032303525689696,0.37840781056261097,0.6190538810764049,0.12032303525689696,0.4988034033837418,7,0,6,8,4,1,nan,nan,nan,nan,nan,nan,nan,nan,nan,nan,nan,nan,0.0,nan,nan,nan,nan,nan,nan,nan,nan,nan,nan,nan,nan,nan,nan,nan,nan,nan,nan,483.9729181344155,610.6588161606342,nan,611.0900242817588,nan,nan,nan,nan
1,94,1,1,1.0,1.0,0.6460521148983389,0,0.0,0.0,0.0,0.4979270038588549,0.11982867553033216,0.37809832832852275,0.6177556793891871,0.11982867553033216,0.508424642495811,6,2,5,3,8,7,nan,nan,nan,nan,nan,nan,nan,nan,nan,nan,nan,nan,0.0,nan,nan,nan,nan,nan,nan,nan,nan,nan,nan,nan,nan,nan,nan,nan,nan,nan,nan,483.9729181344155,611.6839345681947,nan,612.329986683093,nan,nan,nan,nan
1,95,1,1,1.0,1.0,0.684877666644752,0,0.0,0.0,0.0,0.4996696522240253,0.12018767103275317,0.37948198119127213,0.6198573232567784,0.12018767103275317,0.5873793008892486,5,7,6,4,1,8,nan,nan,nan,nan,nan,nan,nan,nan,nan,nan,nan,nan,0.0,nan,nan,nan,nan,nan,nan,nan,nan,nan,nan,nan,nan,nan,nan,nan,nan,nan,nan,483.9729181344155,612.70906922617,nan,613.3939468928147,nan,nan,nan,nan
1,96,1,1,1.0,1.0,0.7320542584639043,1,0.0,1.0,1.0,0.5018232337870571,0.12112527777797395,0.3806979560090831,0.6229485115650311,0.12112527777797395,0.6876613466689984,0,1,7,2,5,6,1.0,1.0,1.0,1.0,1.0,1.0,0.0,1.0,1.0,1.0,0.0,0.0,3.0,8.0,1.0,7.0,2.0,8.0,8.0,4.0,3.0,1.0,2.0,6.0,5.0,4.232045277953148,3.2970683265011758,1.0263634230941534,2.1538439388386905,5.85592231922783,5.023386447690427,483.9729181344155,613.7258862003218,614.5342889570165,614.4579404587857,621.45181259932,622.4556710924953,615.5594315978233,621.4434775246773
1,97,1,1,1.0,1.0,0.5806783980224282,0,0.0,0.0,0.0,0.5044695674040323,0.12290224540224719,0.38156732200178506,0.6273718128062794,0.12290224540224719,0.6658701077103615,7,2,0,5,4,1,nan,nan,nan,nan,nan,nan,nan,nan,nan,nan,nan,nan,0.0,nan,nan,nan,nan,nan,nan,nan,nan,nan,nan,nan,nan,nan,nan,nan,nan,nan,nan,483.9729181344155,622.6770463569555,nan,623.257724754978,nan,nan,nan,nan
1,98,1,1,1.0,1.0,0.49184866971336305,0,0.0,0.0,0.0,0.5053355768428777,0.12246861730502072,0.38286695953785693,0.6278041941478983,0.12246861730502072,0.6015271087332318,2,3,4,6,8,7,nan,nan,nan,nan,nan,nan,nan,nan,nan,nan,nan,nan,0.0,nan,nan,nan,nan,nan,nan,nan,nan,nan,nan,nan,nan,nan,nan,nan,nan,nan,nan,483.9729181344155,623.6938556334935,nan,624.1857043032069,nan,nan,nan,nan
1,99,1,1,1.0,1.0,0.5230413386598229,0,0.0,0.0,0.0,0.5051840385605236,0.12178694458943586,0.3833970939710878,0.6269709831499595,0.12178694458943586,0.5318561354652047,8,1,3,7,2,4,nan,nan,nan,nan,nan,nan,nan,nan,nan,nan,nan,nan,0.0,nan,nan,nan,nan,nan,nan,nan,nan,nan,nan,nan,nan,nan,nan,nan,nan,nan,nan,483.9729181344155,624.7106498000212,nan,625.233691138681,nan,nan,nan,nan
1,100,1,1,1.0,1.0,0.4262232128530741,0,0.0,0.0,0.0,0.5053824530060713,0.12112292510167955,0.3842595279043918,0.6265053781077509,0.12112292510167955,0.4803710737420867,6,3,2,0,8,7,nan,nan,nan,nan,nan,nan,nan,nan,nan,nan,nan,nan,0.0,nan,nan,nan,nan,nan,nan,nan,nan,nan,nan,nan,nan,nan,nan,nan,nan,nan,nan,483.9729181344155,625.7274479577318,nan,626.1536711705849,nan,nan,nan,nan
1,101,1,1,1.0,1.0,0.5853924651164562,0,0.0,0.0,0.0,0.5045125712461483,0.12073793229299518,0.38377463895315317,0.6252505035391436,0.12073793229299518,0.511552338876451,2,4,7,6,1,0,nan,nan,nan,nan,nan,nan,nan,nan,nan,nan,nan,nan,0.0,nan,nan,nan,nan,nan,nan,nan,nan,nan,nan,nan,nan,nan,nan,nan,nan,nan,nan,483.9729181344155,626.7442558088806,nan,627.329648273997,nan,nan,nan,nan
1,102,1,1,1.0,1.0,0.46455155638977885,0,0.0,0.0,0.0,0.5053917005273473,0.12037244954807741,0.38501925097926987,0.6257641500754247,0.12037244954807741,0.4920557447864364,8,1,6,2,3,7,nan,nan,nan,nan,nan,nan,nan,nan,nan,nan,nan,nan,0.0,nan,nan,nan,nan,nan,nan,nan,nan,nan,nan,nan,nan,nan,nan,nan,nan,nan,nan,483.9729181344155,627.761086752871,nan,628.2256383092608,nan,nan,nan,nan
1,103,1,1,1.0,1.0,0.4074062879662961,0,0.0,0.0,0.0,0.5049525591925348,0.11979760848657606,0.38515495070595873,0.6247501676791108,0.11979760848657606,0.4857834364908437,4,2,0,3,7,5,nan,nan,nan,nan,nan,nan,nan,nan,nan,nan,nan,nan,0.0,nan,nan,nan,nan,nan,nan,nan,nan,nan,nan,nan,nan,nan,nan,nan,nan,nan,nan,483.9729181344155,628.7861786466092,nan,629.1935849345755,nan,nan,nan,nan
1,104,1,1,1.0,1.0,0.29428835259750485,0,0.0,0.0,0.0,0.5039148329028938,0.11957818058708342,0.38433665231581043,0.6234930134899772,0.11957818058708342,0.38874873231785995,5,4,2,1,8,0,nan,nan,nan,nan,nan,nan,nan,nan,nan,nan,nan,nan,0.0,nan,nan,nan,nan,nan,nan,nan,nan,nan,nan,nan,nan,nan,nan,nan,nan,nan,nan,483.9729181344155,629.8113044665661,nan,630.1055928191636,nan,nan,nan,nan
1,105,1,1,1.0,1.0,0.37340627633966506,1,1.0,0.0,1.0,0.5017082383733635,0.1208557722514581,0.38085246612190543,0.6225640106248216,0.1208557722514581,0.35836697230115533,3,7,5,6,2,1,1.0,1.0,1.0,1.0,1.0,1.0,0.0,1.0,1.0,0.0,0.0,0.0,2.0,2.0,7.0,5.0,2.0,0.0,0.0,3.0,2.0,1.0,4.0,5.0,6.0,3.297759969951585,2.330964278196916,0.9613948278129101,4.362409542314708,5.897527844645083,6.881549623562023,483.9729181344155,630.8281208705157,631.6365105127916,631.2015271468554,639.5708938937169,640.5669031159487,632.6533360399771,639.5625622400548
1,106,1,1,1.0,1.0,0.33355494821444154,0,0.0,0.0,0.0,0.5003717596021792,0.12092831471708966,0.3794434448850895,0.6213000743192688,0.12092831471708966,0.33374985905053717,4,2,1,5,6,8,nan,nan,nan,nan,nan,nan,nan,nan,nan,nan,nan,nan,0.0,nan,nan,nan,nan,nan,nan,nan,nan,nan,nan,nan,nan,nan,nan,nan,nan,nan,nan,483.9729181344155,640.7877461058088,nan,641.1213010540232,nan,nan,nan,nan
1,107,1,1,1.0,1.0,0.5407361243851483,0,0.0,0.0,0.0,0.4986519986600375,0.1214776745156208,0.3771743241444167,0.6201296731756583,0.1214776745156208,0.41589911631308496,6,8,4,7,0,3,nan,nan,nan,nan,nan,nan,nan,nan,nan,nan,nan,nan,0.0,nan,nan,nan,nan,nan,nan,nan,nan,nan,nan,nan,nan,nan,nan,nan,nan,nan,nan,483.9729181344155,641.8045511059463,nan,642.3452872303315,nan,nan,nan,nan
1,108,1,1,1.0,1.0,0.5872567095793784,0,0.0,0.0,0.0,0.49908142851437537,0.12093028290971858,0.3781511456046568,0.620011711424094,0.12093028290971858,0.4871825940596561,5,7,8,2,1,4,nan,nan,nan,nan,nan,nan,nan,nan,nan,nan,nan,nan,0.0,nan,nan,nan,nan,nan,nan,nan,nan,nan,nan,nan,nan,nan,nan,nan,nan,nan,nan,483.9729181344155,642.8379786445294,nan,643.4252353541087,nan,nan,nan,nan
1,109,1,1,1.0,1.0,0.6823959036264569,0,0.0,0.0,0.0,0.4999720879190724,0.12064060541692087,0.37933148250215154,0.6206126933359932,0.12064060541692087,0.6034629125303278,6,5,7,1,2,8,nan,nan,nan,nan,nan,nan,nan,nan,nan,nan,nan,nan,0.0,nan,nan,nan,nan,nan,nan,nan,nan,nan,nan,nan,nan,nan,nan,nan,nan,nan,nan,483.9729181344155,643.8548215625342,nan,644.5372174661607,nan,nan,nan,nan
1,110,1,1,1.0,1.0,0.6816073271911591,1,0.0,1.0,1.0,0.5017963260761462,0.12140045617346862,0.3803958699026776,0.6231967822496148,0.12140045617346862,0.6504199801323315,2,8,4,0,6,5,1.0,1.0,1.0,1.0,1.0,1.0,0.0,1.0,0.0,0.0,0.0,0.0,1.0,4.0,8.0,0.0,6.0,3.0,3.0,3.0,2.0,1.0,4.0,5.0,6.0,2.9413152118213475,2.199913216754794,1.296304268296808,4.214713419787586,5.342271481873468,6.205810718238354,483.9729181344155,644.8715855088085,645.6800216217525,645.5531928359997,652.9392975855153,653.9357581152581,646.6968337493017,652.9309753400739
1,111,1,1,1.0,1.0,0.564835027558729,0,0.0,0.0,0.0,0.503576633017879,0.12210281957080214,0.38147381344707687,0.6256794525886812,0.12210281957080214,0.6429460861254483,1,4,6,5,8,7,nan,nan,nan,nan,nan,nan,nan,nan,nan,nan,nan,nan,0.0,nan,nan,nan,nan,nan,nan,nan,nan,nan,nan,nan,nan,nan,nan,nan,nan,nan,nan,483.9729181344155,654.1561657630373,nan,654.721000790596,nan,nan,nan,nan
1,112,1,1,1.0,1.0,0.6836796922143549,0,0.0,0.0,0.0,0.5041772055133775,0.12165262156600672,0.3825245839473708,0.6258298270793843,0.12165262156600672,0.6433740156547477,8,5,3,2,6,1,nan,nan,nan,nan,nan,nan,nan,nan,nan,nan,nan,nan,0.0,nan,nan,nan,nan,nan,nan,nan,nan,nan,nan,nan,nan,nan,nan,nan,nan,nan,nan,483.9729181344155,655.1812873065937,nan,655.8649669988081,nan,nan,nan,nan
1,113,1,1,1.0,1.0,0.7784944463055581,1,0.0,1.0,1.0,0.5059199481027075,0.12233342429841529,0.38358652380429215,0.6282533724011228,0.12233342429841529,0.675669722026214,0,4,1,7,2,5,1.0,1.0,1.0,1.0,1.0,1.0,1.0,1.0,0.0,0.0,0.0,1.0,3.0,0.0,4.0,3.0,3.0,4.0,5.0,1.0,4.0,3.0,5.0,6.0,2.0,1.0566748594865203,4.639624904608354,3.752500223228708,5.71111764293164,6.734441084554419,1.854675023118034,483.9729181344155,656.2064367898274,657.0148421123158,656.984931236133,664.8075129711069,665.807124955114,658.0316419806331,664.7991830280516
1,114,1,1,1.0,1.0,0.6160004015546292,0,0.0,0.0,0.0,0.5085408567392733,0.12461577619494078,0.3839250805443325,0.6331566329342141,0.12461577619494078,0.692724846691514,4,2,7,6,3,0,nan,nan,nan,nan,nan,nan,nan,nan,nan,nan,nan,nan,0.0,nan,nan,nan,nan,nan,nan,nan,nan,nan,nan,nan,nan,nan,nan,nan,nan,nan,nan,483.9729181344155,666.032721925294,nan,666.6487223268487,nan,nan,nan,nan
1,115,1,1,nan,nan,nan,0,0.0,0.0,0.0,0.0,0.0,0.0,0.0,0.0,0.0,3,4,6,1,0,2,nan,nan,nan,nan,nan,nan,nan,nan,nan,nan,nan,nan,0.0,nan,nan,nan,nan,nan,nan,nan,nan,nan,nan,nan,nan,nan,nan,nan,nan,nan,nan,483.9729181344155,667.0495009818114,nan,nan,nan,nan,nan,nan
1,116,1,1,nan,nan,nan,0,0.0,0.0,0.0,0.0,0.0,0.0,0.0,0.0,0.0,2,6,5,0,1,7,nan,nan,nan,nan,nan,nan,nan,nan,nan,nan,nan,nan,0.0,nan,nan,nan,nan,nan,nan,nan,nan,nan,nan,nan,nan,nan,nan,nan,nan,nan,nan,483.9729181344155,668.0662774723023,nan,nan,nan,nan,nan,nan
1,117,0,0,0.0,1.0,0.6935215005651116,0,0.0,0.0,0.0,0.50956428097561,0.12445933018815197,0.38510495078745804,0.634023611163762,0.12445933018815197,0.6935215005651116,8,1,3,6,2,5,nan,nan,nan,nan,nan,nan,nan,nan,nan,nan,nan,nan,0.0,nan,nan,nan,nan,nan,nan,nan,nan,nan,nan,nan,nan,nan,nan,nan,nan,nan,nan,483.9729181344155,669.0831015738659,nan,669.776623074431,nan,nan,nan,nan
1,118,1,1,1.0,1.0,0.6287333713844419,1,0.0,1.0,1.0,0.5112997264434355,0.125140830944273,0.3861588954991625,0.6364405573877084,0.125140830944273,0.6611274359747767,7,3,5,4,0,6,1.0,1.0,1.0,1.0,1.0,1.0,1.0,1.0,1.0,0.0,0.0,0.0,3.0,7.0,3.0,5.0,8.0,8.0,8.0,2.0,1.0,3.0,4.0,5.0,6.0,1.8658445251639932,0.9215774263720959,2.9219486217480153,4.32928306562826,5.161649589892477,5.841168586863205,483.9729181344155,670.0999074291904,670.9083247259259,670.7286408005748,677.8008839124814,678.8016357114539,671.9167918001767,677.7925573906396
1,119,1,1,1.0,1.0,0.31036094040609896,0,0.0,0.0,0.0,0.5123972371438188,0.12506618429691324,0.38733105284690555,0.637463421440732,0.12506618429691324,0.5442052707852175,8,6,0,1,4,2,nan,nan,nan,nan,nan,nan,nan,nan,nan,nan,nan,nan,0.0,nan,nan,nan,nan,nan,nan,nan,nan,nan,nan,nan,nan,nan,nan,nan,nan,nan,nan,483.9729181344155,679.0260746206623,nan,679.3364355610684,nan,nan,nan,nan
1,120,1,1,1.0,1.0,0.6055214025545865,0,0.0,0.0,0.0,0.5105265306925436,0.12598084118145028,0.38454568951109336,0.6365073718739939,0.12598084118145028,0.5148719047817091,2,5,3,7,6,4,nan,nan,nan,nan,nan,nan,nan,nan,nan,nan,nan,nan,0.0,nan,nan,nan,nan,nan,nan,nan,nan,nan,nan,nan,nan,nan,nan,nan,nan,nan,nan,483.9729181344155,680.0428781951778,nan,680.6483995977324,nan,nan,nan,nan
1,121,1,1,1.0,1.0,0.5804161094129086,0,0.0,0.0,0.0,0.5113980432784339,0.12572825836417706,0.3856697849142568,0.637126301642611,0.12572825836417706,0.498766150791198,1,3,2,6,4,0,nan,nan,nan,nan,nan,nan,nan,nan,nan,nan,nan,nan,0.0,nan,nan,nan,nan,nan,nan,nan,nan,nan,nan,nan,nan,nan,nan,nan,nan,nan,nan,483.9729181344155,681.0680071513634,nan,681.6484232607763,nan,nan,nan,nan
1,122,1,1,1.0,1.0,0.5395438515115529,0,0.0,0.0,0.0,0.5120254802432928,0.1253267742800083,0.3866987059632845,0.637352254523301,0.1253267742800083,0.575160454493016,6,1,4,0,3,7,nan,nan,nan,nan,nan,nan,nan,nan,nan,nan,nan,nan,0.0,nan,nan,nan,nan,nan,nan,nan,nan,nan,nan,nan,nan,nan,nan,nan,nan,nan,nan,483.9729181344155,682.0848024582956,nan,682.6243463098072,nan,nan,nan,nan
1,123,1,1,1.0,1.0,0.5144074829295278,0,0.0,0.0,0.0,0.5122733934979617,0.12478805372937689,0.38748533976858485,0.6370614472273386,0.12478805372937689,0.5447891479513297,4,3,7,6,8,0,nan,nan,nan,nan,nan,nan,nan,nan,nan,nan,nan,nan,0.0,nan,nan,nan,nan,nan,nan,nan,nan,nan,nan,nan,nan,nan,nan,nan,nan,nan,nan,483.9729181344155,683.1099356908817,nan,683.6243431738112,nan,nan,nan,nan
1,124,1,1,1.0,1.0,0.5852433594409376,0,0.0,0.0,0.0,0.5122924478678864,0.12422987731993712,0.3880625705479493,0.6365223251878236,0.12422987731993712,0.5463982312940061,6,5,3,0,1,4,nan,nan,nan,nan,nan,nan,nan,nan,nan,nan,nan,nan,0.0,nan,nan,nan,nan,nan,nan,nan,nan,nan,nan,nan,nan,nan,nan,nan,nan,nan,nan,483.9729181344155,684.135074055288,nan,684.7203174147289,nan,nan,nan,nan
1,125,1,1,1.0,1.0,0.7520882589742541,0,0.0,0.0,0.0,0.5129380311561436,0.12386753310250598,0.3890704980536376,0.6368055642586495,0.12386753310250598,0.6172463671149065,7,8,4,6,3,5,nan,nan,nan,nan,nan,nan,nan,nan,nan,nan,nan,nan,0.0,nan,nan,nan,nan,nan,nan,nan,nan,nan,nan,nan,nan,nan,nan,nan,nan,nan,nan,483.9729181344155,685.1601833398454,nan,685.9122715988196,nan,nan,nan,nan
1,126,1,1,1.0,1.0,0.7028293239418417,1,0.0,1.0,1.0,0.5150358401720918,0.12532305169046037,0.38971278848163143,0.6403588918625522,0.12532305169046037,0.6800536474523445,4,0,8,5,6,3,1.0,1.0,1.0,1.0,1.0,1.0,0.0,1.0,1.0,1.0,0.0,0.0,3.0,2.0,0.0,8.0,5.0,1.0,1.0,4.0,3.0,2.0,1.0,6.0,5.0,3.0194116355851293,2.3237162756267935,1.5809535160660744,0.9075655145570636,4.403038898250088,3.675352314952761,483.9729181344155,686.1854072329588,686.9937589573674,686.8882365569007,692.4444605365861,693.4496886320412,688.0022305932362,692.4361285979394
1,127,1,1,1.0,1.0,0.48207499901764095,0,0.0,0.0,0.0,0.516668826987481,0.12598925415717993,0.390679572830301,0.6426580811446609,0.12598925415717993,0.6456641939779123,2,3,6,0,4,8,nan,nan,nan,nan,nan,nan,nan,nan,nan,nan,nan,nan,0.0,nan,nan,nan,nan,nan,nan,nan,nan,nan,nan,nan,nan,nan,nan,nan,nan,nan,nan,483.9729181344155,693.6779891704209,nan,694.1600641694386,nan,nan,nan,nan
1,128,1,1,1.0,1.0,0.48164165299385786,0,0.0,0.0,0.0,0.5163706043325685,0.1254857807243813,0.3908848236081872,0.6418563850569499,0.1254857807243813,0.5555153253177801,8,0,3,2,6,7,nan,nan,nan,nan,nan,nan,nan,nan,nan,nan,nan,nan,0.0,nan,nan,nan,nan,nan,nan,nan,nan,nan,nan,nan,nan,nan,nan,nan,nan,nan,nan,483.9729181344155,694.718432643218,nan,695.2000742962118,nan,nan,nan,nan
1,129,1,1,1.0,1.0,0.5031339207198471,0,0.0,0.0,0.0,0.516073775688648,0.12498925788162166,0.39108451780702636,0.6410630335702696,0.12498925788162166,0.4889501909104486,4,6,1,5,8,2,nan,nan,nan,nan,nan,nan,nan,nan,nan,nan,nan,nan,0.0,nan,nan,nan,nan,nan,nan,nan,nan,nan,nan,nan,nan,nan,nan,nan,nan,nan,nan,483.9729181344155,695.7449158069212,nan,696.248049727641,nan,nan,nan,nan
1,130,1,1,1.0,1.0,0.32599020353518426,0,0.0,0.0,0.0,0.5159641159007767,0.1244641677182256,0.3914999481825511,0.6404282836190023,0.1244641677182256,0.43692192574962974,6,5,8,1,3,4,nan,nan,nan,nan,nan,nan,nan,nan,nan,nan,nan,nan,0.0,nan,nan,nan,nan,nan,nan,nan,nan,nan,nan,nan,nan,nan,nan,nan,nan,nan,nan,483.9729181344155,696.7700498946942,nan,697.0960400982294,nan,nan,nan,nan
1,131,1,1,1.0,1.0,0.30080337286926806,1,1.0,0.0,1.0,0.5143676964691332,0.12514743025853847,0.3892202662105947,0.6395151267276716,0.12514743025853847,0.37664249904143315,8,3,5,2,4,6,1.0,1.0,1.0,1.0,1.0,1.0,0.0,1.0,1.0,0.0,1.0,0.0,3.0,4.0,3.0,5.0,0.0,4.0,4.0,6.0,2.0,1.0,3.0,4.0,5.0,5.112947162706405,1.4966360062826425,0.819580526323989,2.929985770722851,3.769853748381138,4.409329832531512,483.9729181344155,697.7952099263202,698.6036106874235,698.0960132991895,704.7710662628524,705.7734488125425,699.6204262361862,704.7627428770065
1,132,1,1,1.0,1.0,0.30721832416020334,0,0.0,0.0,0.0,0.5125879937724676,0.12612801948977673,0.38645997428269085,0.6387160132622443,0.12612801948977673,0.31133730018821854,6,0,7,4,5,8,nan,nan,nan,nan,nan,nan,nan,nan,nan,nan,nan,nan,0.0,nan,nan,nan,nan,nan,nan,nan,nan,nan,nan,nan,nan,nan,nan,nan,nan,nan,nan,483.9729181344155,706.0045780760702,nan,706.3117964002304,nan,nan,nan,nan
1,133,1,1,1.0,1.0,0.5217333168257028,0,0.0,0.0,0.0,0.510890723775672,0.1269743713799642,0.3839163523957078,0.6378650951556362,0.1269743713799642,0.3765850046183914,5,8,1,0,3,2,nan,nan,nan,nan,nan,nan,nan,nan,nan,nan,nan,nan,0.0,nan,nan,nan,nan,nan,nan,nan,nan,nan,nan,nan,nan,nan,nan,nan,nan,nan,nan,483.9729181344155,707.0380569321569,nan,707.5597902489826,nan,nan,nan,nan
1,134,1,1,1.0,1.0,0.7442213122267276,0,0.0,0.0,0.0,0.5109795974891969,0.12645669276411878,0.3845229047250781,0.6374362902533156,0.12645669276411878,0.5243909844042113,4,6,2,7,0,1,nan,nan,nan,nan,nan,nan,nan,nan,nan,nan,nan,nan,0.0,nan,nan,nan,nan,nan,nan,nan,nan,nan,nan,nan,nan,nan,nan,nan,nan,nan,nan,483.9729181344155,708.0715332222171,nan,708.8157545344438,nan,nan,nan,nan
1,135,1,1,nan,nan,nan,0,0.0,0.0,0.0,0.0,0.0,0.0,0.0,0.0,0.0,8,4,7,5,1,6,nan,nan,nan,nan,nan,nan,nan,nan,nan,nan,nan,nan,0.0,nan,nan,nan,nan,nan,nan,nan,nan,nan,nan,nan,nan,nan,nan,nan,nan,nan,nan,483.9729181344155,709.0966302475426,nan,nan,nan,nan,nan,nan
1,136,0,0,0.0,1.0,0.6378806855063885,0,0.0,0.0,0.0,0.512875871592754,0.1276713710400892,0.38520450055266486,0.6405472426328432,0.1276713710400892,0.6910509988665581,0,5,2,6,7,4,nan,nan,nan,nan,nan,nan,nan,nan,nan,nan,nan,nan,0.0,nan,nan,nan,nan,nan,nan,nan,nan,nan,nan,nan,nan,nan,nan,nan,nan,nan,nan,483.9729181344155,710.1217899941839,nan,710.7596706796903,nan,nan,nan,nan
1,137,1,1,1.0,1.0,0.5167475531343371,0,0.0,0.0,0.0,0.5138839749307672,0.12764610858806744,0.38623786634269974,0.6415300835188347,0.12764610858806744,0.5773141193203628,3,4,8,5,6,7,nan,nan,nan,nan,nan,nan,nan,nan,nan,nan,nan,nan,0.0,nan,nan,nan,nan,nan,nan,nan,nan,nan,nan,nan,nan,nan,nan,nan,nan,nan,nan,483.9729181344155,711.146927788388,nan,711.6636753415223,nan,nan,nan,nan
1,138,1,1,1.0,1.0,0.42755632288753986,0,0.0,0.0,0.0,0.5139068835563958,0.12713475481240835,0.3867721287439875,0.6410416383688041,0.12713475481240835,0.5273948538427552,8,2,5,7,0,1,nan,nan,nan,nan,nan,nan,nan,nan,nan,nan,nan,nan,0.0,nan,nan,nan,nan,nan,nan,nan,nan,nan,nan,nan,nan,nan,nan,nan,nan,nan,nan,483.9729181344155,712.1720861094072,nan,712.5996424322948,nan,nan,nan,nan
1,139,1,1,1.0,1.0,0.5384422396309674,0,0.0,0.0,0.0,0.5132215616463255,0.12686084666692093,0.38636071497940455,0.6400824083132464,0.12686084666692093,0.49424870521761477,4,6,1,3,2,8,nan,nan,nan,nan,nan,nan,nan,nan,nan,nan,nan,nan,0.0,nan,nan,nan,nan,nan,nan,nan,nan,nan,nan,nan,nan,nan,nan,nan,nan,nan,nan,483.9729181344155,713.1972085083835,nan,713.7356507480145,nan,nan,nan,nan
1,140,0,0,0.0,1.0,0.6009285014588386,0,0.0,0.0,0.0,0.5134201496619526,0.12638006827992412,0.3870400813820285,0.6398002179418767,0.12638006827992412,0.5223090213257819,3,7,5,2,8,4,nan,nan,nan,nan,nan,nan,nan,nan,nan,nan,nan,nan,0.0,nan,nan,nan,nan,nan,nan,nan,nan,nan,nan,nan,nan,nan,nan,nan,nan,nan,nan,483.9729181344155,714.2306602802128,nan,714.8315887816716,nan,nan,nan,nan
1,141,1,1,1.0,1.0,0.47180668637156487,0,0.0,0.0,0.0,0.5141038086603658,0.12612097170176684,0.3879828369585989,0.6402247803621326,0.12612097170176684,0.5370591424871236,0,5,4,6,3,8,nan,nan,nan,nan,nan,nan,nan,nan,nan,nan,nan,nan,0.0,nan,nan,nan,nan,nan,nan,nan,nan,nan,nan,nan,nan,nan,nan,nan,nan,nan,nan,483.9729181344155,715.2557980744168,nan,715.7276047607884,nan,nan,nan,nan
1,142,1,1,1.0,1.0,0.49463976244442165,0,0.0,0.0,0.0,0.5137759239914603,0.1256859354696516,0.38808998852180876,0.6394618594611119,0.1256859354696516,0.522458316758275,8,3,1,2,7,4,nan,nan,nan,nan,nan,nan,nan,nan,nan,nan,nan,nan,0.0,nan,nan,nan,nan,nan,nan,nan,nan,nan,nan,nan,nan,nan,nan,nan,nan,nan,nan,483.9729181344155,716.2809327323921,nan,716.7755724948365,nan,nan,nan,nan
1,143,1,1,1.0,1.0,0.4774364826735109,0,0.0,0.0,0.0,0.5136287227487908,0.12521275709680021,0.38841596565199055,0.638841479845591,0.12521275709680021,0.4812943104964991,3,4,7,0,2,6,nan,nan,nan,nan,nan,nan,nan,nan,nan,nan,nan,nan,0.0,nan,nan,nan,nan,nan,nan,nan,nan,nan,nan,nan,nan,nan,nan,nan,nan,nan,nan,483.9729181344155,717.3060944746248,nan,717.7835309572984,nan,nan,nan,nan
1,144,1,1,1.0,1.0,0.6923149733338505,0,0.0,0.0,0.0,0.5133524461069948,0.12477369955985745,0.38857874654713737,0.6381261456668523,0.12477369955985745,0.554797072817261,5,6,3,8,4,2,nan,nan,nan,nan,nan,nan,nan,nan,nan,nan,nan,nan,0.0,nan,nan,nan,nan,nan,nan,nan,nan,nan,nan,nan,nan,nan,nan,nan,nan,nan,nan,483.9729181344155,718.3312020485755,nan,719.0235170219094,nan,nan,nan,nan
1,145,1,1,nan,nan,nan,0,0.0,0.0,0.0,0.0,0.0,0.0,0.0,0.0,0.0,3,2,7,1,0,8,nan,nan,nan,nan,nan,nan,nan,nan,nan,nan,nan,nan,0.0,nan,nan,nan,nan,nan,nan,nan,nan,nan,nan,nan,nan,nan,nan,nan,nan,nan,nan,483.9729181344155,719.356343263993,nan,nan,nan,nan,nan,nan
1,146,1,1,nan,nan,nan,0,0.0,0.0,0.0,0.0,0.0,0.0,0.0,0.0,0.0,6,4,0,3,1,7,nan,nan,nan,nan,nan,nan,nan,nan,nan,nan,nan,nan,0.0,nan,nan,nan,nan,nan,nan,nan,nan,nan,nan,nan,nan,nan,nan,nan,nan,nan,nan,483.9729181344155,720.3814776369836,nan,nan,nan,nan,nan,nan
1,147,1,1,1.0,1.0,0.7768120930995792,1,0.0,1.0,1.0,0.5147082228284103,0.1252650318284536,0.3894431909999567,0.6399732546568639,0.1252650318284536,0.7768120930995792,8,1,6,7,4,0,1.0,1.0,1.0,1.0,1.0,1.0,0.0,1.0,1.0,1.0,0.0,0.0,3.0,5.0,1.0,6.0,7.0,5.0,5.0,4.0,3.0,2.0,1.0,6.0,5.0,3.861752538010478,2.8548674630001187,1.6944449273869395,0.9349110941402614,5.35718800406903,4.653629689011723,483.9729181344155,721.4065963297617,722.215024744859,722.1834084228612,728.6158501557074,729.625314781908,723.2234875429422,728.6075202126522
1,148,0,0,0.0,1.0,0.5899676901753992,0,0.0,0.0,0.0,0.5166789286199229,0.12683057289753716,0.38984835572238574,0.6435095015174601,0.12683057289753716,0.6833898916374892,7,5,4,3,2,1,nan,nan,nan,nan,nan,nan,nan,nan,nan,nan,nan,nan,0.0,nan,nan,nan,nan,nan,nan,nan,nan,nan,nan,nan,nan,nan,nan,nan,nan,nan,nan,483.9729181344155,729.8493725173175,nan,730.4393402074929,nan,nan,nan,nan
1,149,1,1,1.0,1.0,0.47673486080020666,0,0.0,0.0,0.0,0.5172258596763071,0.12651377100821584,0.39071208866809126,0.6437396306845229,0.12651377100821584,0.614504881358395,3,0,5,7,1,2,nan,nan,nan,nan,nan,nan,nan,nan,nan,nan,nan,nan,0.0,nan,nan,nan,nan,nan,nan,nan,nan,nan,nan,nan,nan,nan,nan,nan,nan,nan,nan,483.9729181344155,730.8745137327351,nan,731.3512485935353,nan,nan,nan,nan
1,150,0,0,0.0,1.0,0.5239091718103737,0,0.0,0.0,0.0,0.5169259263512989,0.1260921405170292,0.39083378583426964,0.6430180668683281,0.1260921405170292,0.5302039075953265,8,2,3,0,6,7,nan,nan,nan,nan,nan,nan,nan,nan,nan,nan,nan,nan,0.0,nan,nan,nan,nan,nan,nan,nan,nan,nan,nan,nan,nan,nan,nan,nan,nan,nan,nan,483.9729181344155,731.8913021972403,nan,732.4152113690507,nan,nan,nan,nan
1,151,1,1,1.0,1.0,0.3551019548904151,0,0.0,0.0,0.0,0.5169772737443803,0.125629127783169,0.39134814596121126,0.6426064015275493,0.125629127783169,0.45191532916699845,1,6,5,3,8,0,nan,nan,nan,nan,nan,nan,nan,nan,nan,nan,nan,nan,0.0,nan,nan,nan,nan,nan,nan,nan,nan,nan,nan,nan,nan,nan,nan,nan,nan,nan,nan,483.9729181344155,732.9081026357599,nan,733.2632045906503,nan,nan,nan,nan
1,152,1,1,1.0,1.0,0.46623533498495817,0,0.0,0.0,0.0,0.5157957020739135,0.12592595800508544,0.389869744068828,0.6417216600789989,0.12592595800508544,0.4484154872285823,7,3,6,5,2,8,nan,nan,nan,nan,nan,nan,nan,nan,nan,nan,nan,nan,0.0,nan,nan,nan,nan,nan,nan,nan,nan,nan,nan,nan,nan,nan,nan,nan,nan,nan,nan,483.9729181344155,733.9249073509127,nan,734.3911426858976,nan,nan,nan,nan
1,153,1,1,1.0,1.0,0.6974335918202996,0,0.0,0.0,0.0,0.5154365689790659,0.12553927027057005,0.3898972987084958,0.6409758392496359,0.12553927027057005,0.5062569605652243,3,5,7,8,0,6,nan,nan,nan,nan,nan,nan,nan,nan,nan,nan,nan,nan,0.0,nan,nan,nan,nan,nan,nan,nan,nan,nan,nan,nan,nan,nan,nan,nan,nan,nan,nan,483.9729181344155,734.9417035130318,nan,735.6391371048521,nan,nan,nan,nan
1,154,1,1,nan,nan,nan,0,0.0,0.0,0.0,0.0,0.0,0.0,0.0,0.0,0.0,2,0,6,4,1,5,nan,nan,nan,nan,nan,nan,nan,nan,nan,nan,nan,nan,0.0,nan,nan,nan,nan,nan,nan,nan,nan,nan,nan,nan,nan,nan,nan,nan,nan,nan,nan,483.9729181344155,735.9585130747873,nan,nan,nan,nan,nan,nan
1,155,1,1,nan,nan,nan,0,0.0,0.0,0.0,0.0,0.0,0.0,0.0,0.0,0.0,6,7,4,8,5,1,nan,nan,nan,nan,nan,nan,nan,nan,nan,nan,nan,nan,0.0,nan,nan,nan,nan,nan,nan,nan,nan,nan,nan,nan,nan,nan,nan,nan,nan,nan,nan,483.9729181344155,736.9752978330944,nan,nan,nan,nan,nan,nan
1,156,1,1,1.0,1.0,0.014981809305027127,1,1.0,0.0,1.0,0.5167459000786432,0.12602898999634435,0.3907169100822988,0.6427748900749876,0.12602898999634435,0.014981809305027127,0,4,7,1,2,5,1.0,1.0,1.0,1.0,1.0,1.0,0.0,1.0,1.0,1.0,0.0,0.0,3.0,8.0,4.0,7.0,1.0,8.0,8.0,4.0,3.0,2.0,1.0,6.0,5.0,4.147589211817831,3.0050655908416957,1.9878702939022332,1.0047633887734264,5.763012863462791,5.027220992837101,483.9729181344155,737.9921042586211,738.8005278273486,738.0070860679261,745.6097371212672,746.6132763065398,739.8089931909926,745.6014080336317
1,157,1,1,1.0,1.0,0.6519231027923524,0,0.0,0.0,0.0,0.5131618708588316,0.1324965887441582,0.3806652821146734,0.6456584596029897,0.1324965887441582,0.3334524560486898,8,5,4,6,0,1,nan,nan,nan,nan,nan,nan,nan,nan,nan,nan,nan,nan,0.0,nan,nan,nan,nan,nan,nan,nan,nan,nan,nan,nan,nan,nan,nan,nan,nan,nan,nan,483.9729181344155,746.8349241230171,nan,747.4868472258095,nan,nan,nan,nan
1,158,0,0,0.0,1.0,0.5631521043833345,0,0.0,0.0,0.0,0.5141459930711261,0.13253840780187626,0.3816075852692498,0.6466844008730024,0.13253840780187626,0.41001900549357134,0,3,2,8,4,6,nan,nan,nan,nan,nan,nan,nan,nan,nan,nan,nan,nan,0.0,nan,nan,nan,nan,nan,nan,nan,nan,nan,nan,nan,nan,nan,nan,nan,nan,nan,nan,483.9729181344155,747.8516940562986,nan,748.4148461606819,nan,nan,nan,nan
1,159,1,1,1.0,1.0,0.5382791645824909,0,0.0,0.0,0.0,0.5144911065310712,0.13213446127974804,0.3823566452513232,0.6466255678108193,0.13213446127974804,0.584451457252726,4,7,5,2,6,8,nan,nan,nan,nan,nan,nan,nan,nan,nan,nan,nan,nan,0.0,nan,nan,nan,nan,nan,nan,nan,nan,nan,nan,nan,nan,nan,nan,nan,nan,nan,nan,483.9729181344155,748.8685138814617,nan,749.4067930460442,nan,nan,nan,nan
1,160,1,1,1.0,1.0,0.59342847391963,0,0.0,0.0,0.0,0.5146574565873748,0.13168656276802457,0.38297089381935023,0.6463440193553994,0.13168656276802457,0.5649532476284852,1,8,6,0,3,2,nan,nan,nan,nan,nan,nan,nan,nan,nan,nan,nan,nan,0.0,nan,nan,nan,nan,nan,nan,nan,nan,nan,nan,nan,nan,nan,nan,nan,nan,nan,nan,483.9729181344155,749.8853701988701,nan,750.4787986727897,nan,nan,nan,nan
1,161,1,1,1.0,1.0,0.7602998870424926,0,0.0,0.0,0.0,0.515204477541071,0.1313914568434369,0.3838130206976341,0.6465959343845079,0.1313914568434369,0.6306691751815379,3,5,8,4,7,6,nan,nan,nan,nan,nan,nan,nan,nan,nan,nan,nan,nan,0.0,nan,nan,nan,nan,nan,nan,nan,nan,nan,nan,nan,nan,nan,nan,nan,nan,nan,nan,483.9729181344155,750.9104441315867,nan,751.6707440186292,nan,nan,nan,nan
1,162,1,1,nan,nan,nan,0,0.0,0.0,0.0,0.0,0.0,0.0,0.0,0.0,0.0,4,8,1,6,2,3,nan,nan,nan,nan,nan,nan,nan,nan,nan,nan,nan,nan,0.0,nan,nan,nan,nan,nan,nan,nan,nan,nan,nan,nan,nan,nan,nan,nan,nan,nan,nan,483.9729181344155,751.9272468509153,nan,nan,nan,nan,nan,nan
1,163,1,1,nan,nan,nan,0,0.0,0.0,0.0,0.0,0.0,0.0,0.0,0.0,0.0,0,1,4,3,5,7,nan,nan,nan,nan,nan,nan,nan,nan,nan,nan,nan,nan,0.0,nan,nan,nan,nan,nan,nan,nan,nan,nan,nan,nan,nan,nan,nan,nan,nan,nan,nan,483.9729181344155,752.9440512808505,nan,nan,nan,nan,nan,nan
1,164,1,1,1.0,1.0,0.07788003538735211,1,1.0,0.0,1.0,0.5168947907100464,0.13249937987851765,0.3843954108315287,0.6493941705885641,0.13249937987851765,0.07788003538735211,6,4,5,7,3,1,1.0,1.0,1.0,1.0,1.0,1.0,1.0,1.0,0.0,1.0,0.0,0.0,3.0,6.0,4.0,2.0,7.0,6.0,6.0,4.0,3.0,2.0,1.0,6.0,5.0,7.018794117029756,3.5788982568774372,2.6441987042780966,1.4361046499107033,8.465943966759369,7.6177879550959915,483.9729181344155,753.9608477281872,754.7692667352967,754.0387277635746,764.2871763408184,765.2860898389481,755.7860500679817,764.2788444021717
1,165,1,1,1.0,1.0,0.3344276277348399,0,0.0,0.0,0.0,0.5138878403311238,0.1369192913375237,0.3769685489936001,0.6508071316686475,0.1369192913375237,0.206153831561096,3,1,7,0,8,5,nan,nan,nan,nan,nan,nan,nan,nan,nan,nan,nan,nan,0.0,nan,nan,nan,nan,nan,nan,nan,nan,nan,nan,nan,nan,nan,nan,nan,nan,nan,nan,483.9729181344155,765.5040162939113,nan,765.8384439216461,nan,nan,nan,nan
1,166,1,1,1.0,1.0,0.4455878073349595,0,0.0,0.0,0.0,0.5126670225583599,0.13724780610818688,0.37541921645017307,0.6499148286665468,0.13724780610818688,0.2859651568190505,1,0,2,8,6,7,nan,nan,nan,nan,nan,nan,nan,nan,nan,nan,nan,nan,0.0,nan,nan,nan,nan,nan,nan,nan,nan,nan,nan,nan,nan,nan,nan,nan,nan,nan,nan,483.9729181344155,766.520822719438,nan,766.966410526773,nan,nan,nan,nan
1,167,1,1,1.0,1.0,0.4367332870606333,0,0.0,0.0,0.0,0.5122137846176613,0.13689368481998085,0.37532009979768044,0.6491074694376422,0.13689368481998085,0.4055829073768109,2,6,3,5,4,8,nan,nan,nan,nan,nan,nan,nan,nan,nan,nan,nan,nan,0.0,nan,nan,nan,nan,nan,nan,nan,nan,nan,nan,nan,nan,nan,nan,nan,nan,nan,nan,483.9729181344155,767.5376585100312,nan,767.9743917970918,nan,nan,nan,nan
1,168,1,1,1.0,1.0,0.6679170038551092,0,0.0,0.0,0.0,0.5117072040971443,0.1365726555957142,0.37513454850143013,0.6482798596928585,0.1365726555957142,0.516746032750234,1,7,8,6,3,4,nan,nan,nan,nan,nan,nan,nan,nan,nan,nan,nan,nan,0.0,nan,nan,nan,nan,nan,nan,nan,nan,nan,nan,nan,nan,nan,nan,nan,nan,nan,nan,483.9729181344155,768.5544241669122,nan,769.2223411707673,nan,nan,nan,nan
1,169,1,1,nan,nan,nan,0,0.0,0.0,0.0,0.0,0.0,0.0,0.0,0.0,0.0,0,5,1,2,8,7,nan,nan,nan,nan,nan,nan,nan,nan,nan,nan,nan,nan,0.0,nan,nan,nan,nan,nan,nan,nan,nan,nan,nan,nan,nan,nan,nan,nan,nan,nan,nan,483.9729181344155,769.571227456443,nan,nan,nan,nan,nan,nan
1,170,0,0,0.0,1.0,0.6982444054447114,0,0.0,0.0,0.0,0.5127486027621975,0.13670894321091692,0.37603965955128055,0.6494575459731144,0.13670894321091692,0.6830807046499103,7,2,0,6,1,4,nan,nan,nan,nan,nan,nan,nan,nan,nan,nan,nan,nan,0.0,nan,nan,nan,nan,nan,nan,nan,nan,nan,nan,nan,nan,nan,nan,nan,nan,nan,nan,483.9729181344155,770.5880210527685,nan,771.2862654582132,nan,nan,nan,nan
1,171,1,1,1.0,1.0,0.6894449091050774,1,0.0,1.0,1.0,0.5139770517865849,0.13708365246516843,0.3768933993214165,0.6510607042517533,0.13708365246516843,0.6938446572748944,4,1,6,5,0,7,1.0,1.0,1.0,1.0,1.0,1.0,1.0,1.0,1.0,1.0,1.0,0.0,5.0,4.0,1.0,6.0,5.0,0.0,0.0,4.0,3.0,2.0,1.0,6.0,5.0,3.6773114965762943,2.597839768510312,1.78952254075557,1.0137918174732476,5.669694009004161,4.62161252158694,483.9729181344155,771.6048132234719,772.413239357993,772.2942581325769,779.1391058866866,780.1369582565967,773.4300400817301,779.1307765138336
1,172,1,1,1.0,1.0,0.354108109138906,0,0.0,0.0,0.0,0.5151314455847329,0.13736638253459854,0.37776506305013435,0.6524978281193314,0.13736638253459854,0.5805991412295649,1,5,7,2,3,8,nan,nan,nan,nan,nan,nan,nan,nan,nan,nan,nan,nan,0.0,nan,nan,nan,nan,nan,nan,nan,nan,nan,nan,nan,nan,nan,nan,nan,nan,nan,nan,483.9729181344155,780.3559697878081,nan,780.710077896947,nan,nan,nan,nan
1,173,0,0,0.0,1.0,0.5449666681233793,0,0.0,0.0,0.0,0.5140790054772438,0.13753018803870604,0.3765488174385378,0.6516091935159498,0.13753018803870604,0.5295065621224543,8,2,1,4,0,7,nan,nan,nan,nan,nan,nan,nan,nan,nan,nan,nan,nan,0.0,nan,nan,nan,nan,nan,nan,nan,nan,nan,nan,nan,nan,nan,nan,nan,nan,nan,nan,483.9729181344155,781.381100169383,nan,781.9260668375064,nan,nan,nan,nan
1,174,1,1,1.0,1.0,0.48011496220715344,0,0.0,0.0,0.0,0.5142795747152058,0.1371053818733222,0.3771741928418836,0.651384956588528,0.1371053818733222,0.4597299131564796,2,4,0,7,3,6,nan,nan,nan,nan,nan,nan,nan,nan,nan,nan,nan,nan,0.0,nan,nan,nan,nan,nan,nan,nan,nan,nan,nan,nan,nan,nan,nan,nan,nan,nan,nan,483.9729181344155,782.3978980421089,nan,782.878013004316,nan,nan,nan,nan
1,175,1,1,1.0,1.0,0.5433322109747678,0,0.0,0.0,0.0,0.5140591578603151,0.1366897616110748,0.37736939624924026,0.6507489194713899,0.1366897616110748,0.5228046137684336,3,2,6,8,0,5,nan,nan,nan,nan,nan,nan,nan,nan,nan,nan,nan,nan,0.0,nan,nan,nan,nan,nan,nan,nan,nan,nan,nan,nan,nan,nan,nan,nan,nan,nan,nan,483.9729181344155,783.414701046655,nan,783.9580332576297,nan,nan,nan,nan
1,176,1,1,1.0,1.0,0.48580348840914667,0,0.0,0.0,0.0,0.5142468056366898,0.13627097610012115,0.3779758295365686,0.650517781736811,0.13627097610012115,0.5030835538636893,8,5,0,1,3,6,nan,nan,nan,nan,nan,nan,nan,nan,nan,nan,nan,nan,0.0,nan,nan,nan,nan,nan,nan,nan,nan,nan,nan,nan,nan,nan,nan,nan,nan,nan,nan,483.9729181344155,784.4481673582923,nan,784.9339708467014,nan,nan,nan,nan
1,177,1,1,1.0,1.0,0.5246601153630763,0,0.0,0.0,0.0,0.5140656380110367,0.13585514442651206,0.37821049358452463,0.6499207824375487,0.13585514442651206,0.517931938248997,2,4,1,8,6,0,nan,nan,nan,nan,nan,nan,nan,nan,nan,nan,nan,nan,0.0,nan,nan,nan,nan,nan,nan,nan,nan,nan,nan,nan,nan,nan,nan,nan,nan,nan,nan,483.9729181344155,785.4732991654892,nan,785.9979592808522,nan,nan,nan,nan
1,178,1,1,nan,nan,nan,0,0.0,0.0,0.0,0.0,0.0,0.0,0.0,0.0,0.0,0,5,8,3,1,7,nan,nan,nan,nan,nan,nan,nan,nan,nan,nan,nan,nan,0.0,nan,nan,nan,nan,nan,nan,nan,nan,nan,nan,nan,nan,nan,nan,nan,nan,nan,nan,483.9729181344155,786.490106161451,nan,nan,nan,nan,nan,nan
1,179,1,1,nan,nan,nan,0,0.0,0.0,0.0,0.0,0.0,0.0,0.0,0.0,0.0,3,4,5,8,2,0,nan,nan,nan,nan,nan,nan,nan,nan,nan,nan,nan,nan,0.0,nan,nan,nan,nan,nan,nan,nan,nan,nan,nan,nan,nan,nan,nan,nan,nan,nan,nan,483.9729181344155,787.5068892091513,nan,nan,nan,nan,nan,nan
1,180,1,1,nan,nan,nan,0,0.0,0.0,0.0,0.0,0.0,0.0,0.0,0.0,0.0,8,5,6,0,1,7,nan,nan,nan,nan,nan,nan,nan,nan,nan,nan,nan,nan,0.0,nan,nan,nan,nan,nan,nan,nan,nan,nan,nan,nan,nan,nan,nan,nan,nan,nan,nan,483.9729181344155,788.5236893624533,nan,nan,nan,nan,nan,nan
1,181,1,1,1.0,1.0,0.06540222652256489,1,1.0,0.0,1.0,0.5141326916651635,0.1354271468984421,0.3787055447667214,0.6495598385636057,0.1354271468984421,0.06540222652256489,3,4,5,7,2,1,1.0,1.0,1.0,1.0,1.0,1.0,0.0,1.0,1.0,1.0,0.0,1.0,4.0,1.0,4.0,5.0,7.0,0.0,1.0,4.0,2.0,3.0,1.0,6.0,5.0,4.261062662117183,2.2391758209560066,3.1423280448652804,1.3503582377452403,6.1975147016346455,5.14167945086956,483.9729181344155,789.5405148896389,790.3489162207115,789.6059171161614,797.5998508376069,798.6069206551183,791.3657175146509,797.5915234605782
1,182,1,1,1.0,1.0,0.4366203888785094,0,0.0,0.0,0.0,0.5113104874818767,0.13958369225551412,0.37172679522636254,0.6508941797373908,0.13958369225551412,0.25101130770053715,5,7,4,6,0,2,nan,nan,nan,nan,nan,nan,nan,nan,nan,nan,nan,nan,0.0,nan,nan,nan,nan,nan,nan,nan,nan,nan,nan,nan,nan,nan,nan,nan,nan,nan,nan,483.9729181344155,798.8250401201658,nan,799.2616605090443,nan,nan,nan,nan
1,183,1,1,1.0,1.0,0.675770265981555,0,0.0,0.0,0.0,0.5108436743656057,0.13927125691337808,0.3715724174522277,0.6501149312789838,0.13927125691337808,0.3925976271275431,7,3,6,0,2,4,nan,nan,nan,nan,nan,nan,nan,nan,nan,nan,nan,nan,0.0,nan,nan,nan,nan,nan,nan,nan,nan,nan,nan,nan,nan,nan,nan,nan,nan,nan,nan,483.9729181344155,799.841839988716,nan,800.5176102546975,nan,nan,nan,nan
1,184,1,1,nan,nan,nan,0,0.0,0.0,0.0,0.0,0.0,0.0,0.0,0.0,0.0,4,2,1,6,0,7,nan,nan,nan,nan,nan,nan,nan,nan,nan,nan,nan,nan,0.0,nan,nan,nan,nan,nan,nan,nan,nan,nan,nan,nan,nan,nan,nan,nan,nan,nan,nan,483.9729181344155,800.8586358656175,nan,nan,nan,nan,nan,nan
1,185,0,0,1.0,0.0,0.08218071283772588,0,0.0,0.0,0.0,0.5118680631334066,0.1394414125292208,0.3724266506041858,0.6513094756626274,0.1394414125292208,0.37897548940964043,7,1,0,8,4,6,nan,nan,nan,nan,nan,nan,nan,nan,nan,nan,nan,nan,0.0,nan,nan,nan,nan,nan,nan,nan,nan,nan,nan,nan,nan,nan,nan,nan,nan,nan,nan,483.9729181344155,801.8754360191524,nan,801.9576167319901,nan,nan,nan,nan
1,186,1,1,1.0,1.0,0.44930717325769365,1,1.0,0.0,1.0,0.5092156720821988,0.14302638606933057,0.36618928601286815,0.6522420581515294,0.14302638606933057,0.26574394304770976,2,7,4,6,1,0,1.0,1.0,1.0,1.0,1.0,1.0,1.0,1.0,1.0,1.0,0.0,0.0,4.0,2.0,7.0,4.0,6.0,2.0,2.0,4.0,3.0,2.0,1.0,6.0,5.0,3.6380352075211704,2.87738379673101,1.8316529281437397,1.0234223697334528,5.173379020765424,4.3738242271356285,483.9729181344155,802.8922336068936,803.7006531842053,803.3415407801513,809.9264397432562,810.9306811206043,804.7174385127146,809.9181086600292
1,187,1,1,1.0,1.0,0.32570795831270516,0,0.0,0.0,0.0,0.5088481352795944,0.14266369656583175,0.3661844387137626,0.6515118318454262,0.14266369656583175,0.2857319481360416,8,6,3,7,5,1,nan,nan,nan,nan,nan,nan,nan,nan,nan,nan,nan,nan,0.0,nan,nan,nan,nan,nan,nan,nan,nan,nan,nan,nan,nan,nan,nan,nan,nan,nan,nan,483.9729181344155,811.1516532590613,nan,811.477361217374,nan,nan,nan,nan
1,188,1,1,1.0,1.0,0.4208893463946879,0,0.0,0.0,0.0,0.5077314268834549,0.14294087665825275,0.3647905502252021,0.6506723035417076,0.14294087665825275,0.39863482598836225,6,8,4,1,3,0,nan,nan,nan,nan,nan,nan,nan,nan,nan,nan,nan,nan,0.0,nan,nan,nan,nan,nan,nan,nan,nan,nan,nan,nan,nan,nan,nan,nan,nan,nan,nan,483.9729181344155,812.1684525574092,nan,812.5893419038039,nan,nan,nan,nan
1,189,1,1,1.0,1.0,0.5240599876269698,0,0.0,0.0,0.0,0.5072051112441289,0.14266636843605043,0.3645387428080785,0.6498714796801793,0.14266636843605043,0.42355243077812094,8,6,2,4,7,1,nan,nan,nan,nan,nan,nan,nan,nan,nan,nan,nan,nan,0.0,nan,nan,nan,nan,nan,nan,nan,nan,nan,nan,nan,nan,nan,nan,nan,nan,nan,nan,483.9729181344155,813.1852709569503,nan,813.7093309445772,nan,nan,nan,nan
1,190,1,1,1.0,1.0,0.7465576762333512,0,0.0,0.0,0.0,0.5073066466440256,0.1422419809106465,0.3650646657333791,0.649548627554672,0.1422419809106465,0.563835670085003,5,3,0,7,2,8,nan,nan,nan,nan,nan,nan,nan,nan,nan,nan,nan,nan,0.0,nan,nan,nan,nan,nan,nan,nan,nan,nan,nan,nan,nan,nan,nan,nan,nan,nan,nan,483.9729181344155,814.2187207331881,nan,814.9652784094214,nan,nan,nan,nan
1,191,1,1,nan,nan,nan,0,0.0,0.0,0.0,0.0,0.0,0.0,0.0,0.0,0.0,6,0,7,5,8,4,nan,nan,nan,nan,nan,nan,nan,nan,nan,nan,nan,nan,0.0,nan,nan,nan,nan,nan,nan,nan,nan,nan,nan,nan,nan,nan,nan,nan,nan,nan,nan,483.9729181344155,815.2355157549027,nan,nan,nan,nan,nan,nan
1,192,0,0,0.0,1.0,0.6729603570420295,0,0.0,0.0,0.0,0.50873928753977,0.14301166072996627,0.36572762680980375,0.6517509482697363,0.14301166072996627,0.7097590166376904,5,4,1,7,0,2,nan,nan,nan,nan,nan,nan,nan,nan,nan,nan,nan,nan,0.0,nan,nan,nan,nan,nan,nan,nan,nan,nan,nan,nan,nan,nan,nan,nan,nan,nan,nan,483.9729181344155,816.2523059300147,nan,816.9252662870567,nan,nan,nan,nan
1,193,1,1,1.0,1.0,0.6481407303363085,1,0.0,1.0,1.0,0.5097167939058549,0.1431438669207374,0.36657292698511745,0.6528606608265923,0.1431438669207374,0.660550543689169,2,5,3,0,8,7,1.0,1.0,1.0,1.0,1.0,1.0,1.0,1.0,1.0,1.0,1.0,0.0,5.0,2.0,5.0,3.0,0.0,8.0,2.0,5.0,4.0,3.0,2.0,1.0,6.0,5.364447980886325,4.140901138074696,3.117037724237889,2.164575247792527,1.0848075898829848,6.220628312323242,483.9729181344155,817.2690986709204,818.077530507464,817.9172394012567,825.3451412608847,826.3431239197962,819.0860149727669,825.3368141688406
1,194,1,1,1.0,1.0,0.4270020956173539,0,0.0,0.0,0.0,0.5105358704527807,0.14311405228323043,0.3674218181695503,0.6536499227360111,0.14311405228323043,0.582701060998564,7,8,0,1,4,5,nan,nan,nan,nan,nan,nan,nan,nan,nan,nan,nan,nan,0.0,nan,nan,nan,nan,nan,nan,nan,nan,nan,nan,nan,nan,nan,nan,nan,nan,nan,nan,483.9729181344155,826.5619986047968,nan,826.9890007004142,nan,nan,nan,nan
1,195,1,1,1.0,1.0,0.4341942195314914,0,0.0,0.0,0.0,0.5100444953066899,0.14283541838143937,0.36720907692525057,0.6528799136881294,0.14283541838143937,0.5031123484950513,4,5,7,2,0,6,nan,nan,nan,nan,nan,nan,nan,nan,nan,nan,nan,nan,0.0,nan,nan,nan,nan,nan,nan,nan,nan,nan,nan,nan,nan,nan,nan,nan,nan,nan,nan,483.9729181344155,827.5787913457025,nan,828.012985565234,nan,nan,nan,nan
1,196,1,1,1.0,1.0,0.47338840062730014,0,0.0,0.0,0.0,0.5096009264425075,0.14253454010510755,0.36706638633739996,0.6521354665476151,0.14253454010510755,0.44486157192538184,2,6,0,3,4,5,nan,nan,nan,nan,nan,nan,nan,nan,nan,nan,nan,nan,0.0,nan,nan,nan,nan,nan,nan,nan,nan,nan,nan,nan,nan,nan,nan,nan,nan,nan,nan,483.9729181344155,828.5955960608553,nan,829.0689844614826,nan,nan,nan,nan
1,197,1,1,1.0,1.0,0.5285445521585643,0,0.0,0.0,0.0,0.5093903885017214,0.14214625593119037,0.367244132570531,0.6515366444329117,0.14214625593119037,0.4787090574391186,4,8,5,7,2,6,nan,nan,nan,nan,nan,nan,nan,nan,nan,nan,nan,nan,0.0,nan,nan,nan,nan,nan,nan,nan,nan,nan,nan,nan,nan,nan,nan,nan,nan,nan,nan,483.9729181344155,829.612407048,nan,830.1409516001586,nan,nan,nan,nan
1,198,1,1,1.0,1.0,0.52772176428698,0,0.0,0.0,0.0,0.5095011062107205,0.1417422710012059,0.36775883520951463,0.6512433772119264,0.1417422710012059,0.5098849056909481,1,3,2,4,8,0,nan,nan,nan,nan,nan,nan,nan,nan,nan,nan,nan,nan,0.0,nan,nan,nan,nan,nan,nan,nan,nan,nan,nan,nan,nan,nan,nan,nan,nan,nan,nan,483.9729181344155,830.6291895254981,nan,831.1569112897851,nan,nan,nan,nan
1,199,1,1,1.0,1.0,0.7908890070393682,0,0.0,0.0,0.0,0.5096058226364462,0.14134108973381487,0.3682647329026313,0.650946912370261,0.14134108973381487,0.6157184411616375,4,5,7,2,0,1,nan,nan,nan,nan,nan,nan,nan,nan,nan,nan,nan,nan,0.0,nan,nan,nan,nan,nan,nan,nan,nan,nan,nan,nan,nan,nan,nan,nan,nan,nan,nan,483.9729181344155,831.6460022232495,nan,832.4368912302889,nan,nan,nan,nan
1,200,1,1,nan,nan,nan,0,0.0,0.0,0.0,0.0,0.0,0.0,0.0,0.0,0.0,5,3,4,7,2,6,nan,nan,nan,nan,nan,nan,nan,nan,nan,nan,nan,nan,0.0,nan,nan,nan,nan,nan,nan,nan,nan,nan,nan,nan,nan,nan,nan,nan,nan,nan,nan,483.9729181344155,832.6627955343574,nan,nan,nan,nan,nan,nan
1,201,1,1,1.0,1.0,0.02128329244442284,0,0.0,0.0,0.0,0.5112131551187485,0.1425225585919966,0.36869059652675196,0.6537357137107451,0.1425225585919966,0.4060861497418955,0,6,2,8,7,4,nan,nan,nan,nan,nan,nan,nan,nan,nan,nan,nan,nan,0.0,nan,nan,nan,nan,nan,nan,nan,nan,nan,nan,nan,nan,nan,nan,nan,nan,nan,nan,483.9729181344155,833.6795922666788,nan,833.7008755591232,nan,nan,nan,nan
1,202,1,1,1.0,1.0,0.6597267580218613,1,1.0,0.0,1.0,0.5084294627171899,0.1468105304375734,0.3616189322796165,0.6552399931547633,0.1468105304375734,0.3405050252331421,7,5,8,6,0,1,1.0,1.0,1.0,1.0,1.0,1.0,1.0,1.0,1.0,1.0,1.0,0.0,5.0,7.0,5.0,8.0,6.0,0.0,7.0,4.0,3.0,2.0,1.0,6.0,5.0,3.8010820543859154,2.85692357737571,2.1516566802747548,1.1868449735920876,5.799657143186778,4.712169933365658,483.9729181344155,834.7130808159709,835.5214715986513,835.3728075739928,842.3806867799722,843.377948430134,836.5382894279901,842.3723548410926
1,203,1,1,1.0,1.0,0.3350556951481849,0,0.0,0.0,0.0,0.5092842496963124,0.14683377645541607,0.3624504732408963,0.6561180261517284,0.14683377645541607,0.3386885818714897,8,3,1,4,6,2,nan,nan,nan,nan,nan,nan,nan,nan,nan,nan,nan,nan,0.0,nan,nan,nan,nan,nan,nan,nan,nan,nan,nan,nan,nan,nan,nan,nan,nan,nan,nan,483.9729181344155,843.5975489702541,nan,843.9326046654023,nan,nan,nan,nan
1,204,1,1,1.0,1.0,0.6702148797921836,0,0.0,0.0,0.0,0.5083054375921093,0.14699868152634277,0.36130675606576657,0.6553041191184521,0.14699868152634277,0.55499911098741,3,1,7,0,4,6,nan,nan,nan,nan,nan,nan,nan,nan,nan,nan,nan,nan,0.0,nan,nan,nan,nan,nan,nan,nan,nan,nan,nan,nan,nan,nan,nan,nan,nan,nan,nan,483.9729181344155,844.6143553960137,nan,845.2845702758059,nan,nan,nan,nan
1,205,1,1,nan,nan,nan,0,0.0,0.0,0.0,0.0,0.0,0.0,0.0,0.0,0.0,0,7,6,3,5,4,nan,nan,nan,nan,nan,nan,nan,nan,nan,nan,nan,nan,0.0,nan,nan,nan,nan,nan,nan,nan,nan,nan,nan,nan,nan,nan,nan,nan,nan,nan,nan,483.9729181344155,845.6311507027131,nan,nan,nan,nan,nan,nan
1,206,0,0,0.0,1.0,0.5885658715851605,0,0.0,0.0,0.0,0.5092099596155735,0.14708339934134623,0.36212656027422724,0.6562933589569198,0.14708339934134623,0.6293903756886721,5,2,0,6,8,1,nan,nan,nan,nan,nan,nan,nan,nan,nan,nan,nan,nan,0.0,nan,nan,nan,nan,nan,nan,nan,nan,nan,nan,nan,nan,nan,nan,nan,nan,nan,nan,483.9729181344155,846.6479437288363,nan,847.2365096004214,nan,nan,nan,nan
1,207,1,1,nan,nan,nan,0,0.0,0.0,0.0,0.0,0.0,0.0,0.0,0.0,0.0,8,6,5,0,2,4,nan,nan,nan,nan,nan,nan,nan,nan,nan,nan,nan,nan,0.0,nan,nan,nan,nan,nan,nan,nan,nan,nan,nan,nan,nan,nan,nan,nan,nan,nan,nan,483.9729181344155,847.6647615584079,nan,nan,nan,nan,nan,nan
1,208,1,1,nan,nan,nan,0,0.0,0.0,0.0,0.0,0.0,0.0,0.0,0.0,0.0,6,0,4,7,1,2,nan,nan,nan,nan,nan,nan,nan,nan,nan,nan,nan,nan,0.0,nan,nan,nan,nan,nan,nan,nan,nan,nan,nan,nan,nan,nan,nan,nan,nan,nan,nan,483.9729181344155,848.6815109646413,nan,nan,nan,nan,nan,nan
1,209,1,1,1.0,1.0,0.13016213150694966,1,1.0,0.0,1.0,0.5096508257931822,0.14679281685026171,0.36285800894292053,0.6564436426434439,0.14679281685026171,0.13016213150694966,5,8,6,2,4,3,1.0,1.0,1.0,1.0,1.0,1.0,0.0,1.0,1.0,1.0,0.0,0.0,3.0,0.0,8.0,6.0,2.0,8.0,0.0,6.0,3.0,2.0,1.0,4.0,5.0,6.502159461611882,3.4719238609541208,2.312324683647603,1.5375701300799847,4.799185879062861,5.654796873219311,483.9729181344155,849.69834561483,850.5067552137189,849.828507746337,858.0577334219124,859.0555718219839,851.5152239988092,858.0494071850553
1,210,1,1,1.0,1.0,0.4016174082644284,0,0.0,0.0,0.0,0.5075542031728163,0.14906484959602828,0.358489353576788,0.6566190527688446,0.14906484959602828,0.265889769885689,1,6,8,4,3,2,nan,nan,nan,nan,nan,nan,nan,nan,nan,nan,nan,nan,0.0,nan,nan,nan,nan,nan,nan,nan,nan,nan,nan,nan,nan,nan,nan,nan,nan,nan,nan,483.9729181344155,859.2746614695061,nan,859.6762788777705,nan,nan,nan,nan
1,211,1,1,1.0,1.0,0.5848071621730924,0,0.0,0.0,0.0,0.5069721328711219,0.14886088646628168,0.35811124640484016,0.6558330193374036,0.14886088646628168,0.37219556731482345,7,3,0,1,5,4,nan,nan,nan,nan,nan,nan,nan,nan,nan,nan,nan,nan,0.0,nan,nan,nan,nan,nan,nan,nan,nan,nan,nan,nan,nan,nan,nan,nan,nan,nan,nan,483.9729181344155,860.2914399558213,nan,860.8762471179944,nan,nan,nan,nan
1,212,1,1,1.0,1.0,0.5040413823444396,0,0.0,0.0,0.0,0.5073974609000944,0.14856445578992755,0.35883300511016686,0.6559619166900219,0.14856445578992755,0.49682198426065344,4,5,2,6,3,0,nan,nan,nan,nan,nan,nan,nan,nan,nan,nan,nan,nan,0.0,nan,nan,nan,nan,nan,nan,nan,nan,nan,nan,nan,nan,nan,nan,nan,nan,nan,nan,483.9729181344155,861.3081785284448,nan,861.8122199107893,nan,nan,nan,nan
1,213,1,1,1.0,1.0,0.6792145140934736,0,0.0,0.0,0.0,0.5073792213427267,0.14816040347356418,0.35921881786916254,0.6555396248162909,0.14816040347356418,0.5893543528703352,8,7,5,1,4,3,nan,nan,nan,nan,nan,nan,nan,nan,nan,nan,nan,nan,0.0,nan,nan,nan,nan,nan,nan,nan,nan,nan,nan,nan,nan,nan,nan,nan,nan,nan,nan,483.9729181344155,862.3249815329909,nan,863.0041960470844,nan,nan,nan,nan
1,214,1,1,1.0,1.0,0.6703805206343532,0,0.0,0.0,0.0,0.5083080607630011,0.14829562712314576,0.3600124336398553,0.6566036878861468,0.14829562712314576,0.6178788056907555,1,8,4,5,0,6,nan,nan,nan,nan,nan,nan,nan,nan,nan,nan,nan,nan,0.0,nan,nan,nan,nan,nan,nan,nan,nan,nan,nan,nan,nan,nan,nan,nan,nan,nan,nan,483.9729181344155,863.3417959413491,nan,864.0121764619835,nan,nan,nan,nan
1,215,1,1,1.0,1.0,0.7735360520891845,1,0.0,1.0,1.0,0.5091794180741374,0.1483705577667962,0.36080886030734116,0.6575499758409336,0.1483705577667962,0.7077103622723371,8,7,0,6,1,5,1.0,1.0,1.0,1.0,1.0,1.0,1.0,0.0,0.0,0.0,0.0,0.0,1.0,8.0,6.0,7.0,0.0,2.0,2.0,3.0,2.0,1.0,4.0,5.0,6.0,4.377382228849456,3.2188843784388155,2.162180154118687,5.538023148197681,6.457862057490274,7.0412936301436275,483.9729181344155,864.3585935288575,865.1670056937728,865.1321295809466,873.2596739581786,874.2652604198083,866.1838081278838,873.2513457257301
1,216,1,1,1.0,1.0,0.3590211730916053,0,0.0,0.0,0.0,0.51059308991379,0.14922404798700178,0.36136904192678826,0.6598171379007918,0.14922404798700178,0.6009792486050477,1,6,5,3,8,2,nan,nan,nan,nan,nan,nan,nan,nan,nan,nan,nan,nan,0.0,nan,nan,nan,nan,nan,nan,nan,nan,nan,nan,nan,nan,nan,nan,nan,nan,nan,nan,483.9729181344155,874.4849051500205,nan,874.8439263231121,nan,nan,nan,nan
1,217,1,1,1.0,1.0,0.5501933381892741,0,0.0,0.0,0.0,0.509786856313672,0.14923445655997547,0.3605523997536966,0.6590213128736475,0.14923445655997547,0.5609168544566879,3,4,0,6,1,8,nan,nan,nan,nan,nan,nan,nan,nan,nan,nan,nan,nan,0.0,nan,nan,nan,nan,nan,nan,nan,nan,nan,nan,nan,nan,nan,nan,nan,nan,nan,nan,483.9729181344155,875.5016956101172,nan,876.0518889483064,nan,nan,nan,nan
1,218,1,1,1.0,1.0,0.6053198396693915,0,0.0,0.0,0.0,0.5100006472230667,0.14886799617494811,0.3611326510481186,0.6588686433980149,0.14886799617494811,0.5048447836500903,5,0,7,2,8,6,nan,nan,nan,nan,nan,nan,nan,nan,nan,nan,nan,nan,0.0,nan,nan,nan,nan,nan,nan,nan,nan,nan,nan,nan,nan,nan,nan,nan,nan,nan,nan,483.9729181344155,876.5185465107206,nan,877.12386635039,nan,nan,nan,nan
1,219,1,1,1.0,1.0,0.7245433970820159,0,0.0,0.0,0.0,0.5105023271833106,0.14863582309956574,0.3618665040837448,0.6591381502828764,0.14863582309956574,0.6266855249802271,7,6,3,0,1,5,nan,nan,nan,nan,nan,nan,nan,nan,nan,nan,nan,nan,0.0,nan,nan,nan,nan,nan,nan,nan,nan,nan,nan,nan,nan,nan,nan,nan,nan,nan,nan,483.9729181344155,877.5353033295833,nan,878.2598467266653,nan,nan,nan,nan
1,220,1,1,1.0,1.0,0.4437298346310854,0,0.0,0.0,0.0,0.5116229610571258,0.14904880293812994,0.36257415811899585,0.6606717639952557,0.14904880293812994,0.5911976904608309,0,7,4,2,5,6,nan,nan,nan,nan,nan,nan,nan,nan,nan,nan,nan,nan,0.0,nan,nan,nan,nan,nan,nan,nan,nan,nan,nan,nan,nan,nan,nan,nan,nan,nan,nan,483.9729181344155,878.5521043385379,nan,878.995834173169,nan,nan,nan,nan
1,221,1,1,1.0,1.0,0.49890708341263235,0,0.0,0.0,0.0,0.5112693510236568,0.14874045294060556,0.3625288980830512,0.6600098039642623,0.14874045294060556,0.5557267717085779,1,6,7,5,8,3,nan,nan,nan,nan,nan,nan,nan,nan,nan,nan,nan,nan,0.0,nan,nan,nan,nan,nan,nan,nan,nan,nan,nan,nan,nan,nan,nan,nan,nan,nan,nan,483.9729181344155,879.568899075035,nan,880.0678061584476,nan,nan,nan,nan
1,222,1,1,1.0,1.0,0.3940902962349355,0,0.0,0.0,0.0,0.5112052978235997,0.1483572694385414,0.36284802838505825,0.6595625672621411,0.1483572694385414,0.4455757380928844,3,0,8,2,1,4,nan,nan,nan,nan,nan,nan,nan,nan,nan,nan,nan,nan,0.0,nan,nan,nan,nan,nan,nan,nan,nan,nan,nan,nan,nan,nan,nan,nan,nan,nan,nan,483.9729181344155,880.5856949521694,nan,880.9797852484044,nan,nan,nan,nan
1,223,1,1,1.0,1.0,0.3532608028035611,0,0.0,0.0,0.0,0.5106016122484004,0.14821188417097758,0.3623897280774228,0.6588134964193779,0.14821188417097758,0.4154193941503763,6,2,5,1,3,0,nan,nan,nan,nan,nan,nan,nan,nan,nan,nan,nan,nan,0.0,nan,nan,nan,nan,nan,nan,nan,nan,nan,nan,nan,nan,nan,nan,nan,nan,nan,nan,483.9729181344155,881.6025010927115,nan,881.955761895515,nan,nan,nan,nan
1,224,1,1,1.0,1.0,0.592046326957643,0,0.0,0.0,0.0,0.5097947363025294,0.1482579374283212,0.3615367988742082,0.6580526737308505,0.1482579374283212,0.4464658086653799,3,4,6,8,0,5,nan,nan,nan,nan,nan,nan,nan,nan,nan,nan,nan,nan,0.0,nan,nan,nan,nan,nan,nan,nan,nan,nan,nan,nan,nan,nan,nan,nan,nan,nan,nan,483.9729181344155,882.6277055994142,nan,883.2197519263718,nan,nan,nan,nan
1,225,1,1,1.0,1.0,0.7909203679300845,0,0.0,0.0,0.0,0.5102143872752596,0.1479953103444251,0.3622190769308345,0.6582096976196847,0.1479953103444251,0.5787424992304295,5,6,8,3,4,2,nan,nan,nan,nan,nan,nan,nan,nan,nan,nan,nan,nan,0.0,nan,nan,nan,nan,nan,nan,nan,nan,nan,nan,nan,nan,nan,nan,nan,nan,nan,nan,483.9729181344155,883.6527695534751,nan,884.4436899214052,nan,nan,nan,nan
1,226,1,1,nan,nan,nan,0,0.0,0.0,0.0,0.0,0.0,0.0,0.0,0.0,0.0,0,8,3,5,7,1,nan,nan,nan,nan,nan,nan,nan,nan,nan,nan,nan,nan,0.0,nan,nan,nan,nan,nan,nan,nan,nan,nan,nan,nan,nan,nan,nan,nan,nan,nan,nan,483.9729181344155,884.6778996500652,nan,nan,nan,nan,nan,nan
1,227,1,1,nan,nan,nan,0,0.0,0.0,0.0,0.0,0.0,0.0,0.0,0.0,0.0,6,3,5,2,8,4,nan,nan,nan,nan,nan,nan,nan,nan,nan,nan,nan,nan,0.0,nan,nan,nan,nan,nan,nan,nan,nan,nan,nan,nan,nan,nan,nan,nan,nan,nan,nan,483.9729181344155,885.6946923912037,nan,nan,nan,nan,nan,nan
1,228,1,1,nan,nan,nan,0,0.0,0.0,0.0,0.0,0.0,0.0,0.0,0.0,0.0,1,7,0,4,2,5,nan,nan,nan,nan,nan,nan,nan,nan,nan,nan,nan,nan,0.0,nan,nan,nan,nan,nan,nan,nan,nan,nan,nan,nan,nan,nan,nan,nan,nan,nan,nan,483.9729181344155,886.7114908341318,nan,nan,nan,nan,nan,nan
1,229,1,1,1.0,1.0,0.06737138656899333,1,1.0,0.0,1.0,0.5116392907303602,0.1489610005498229,0.3626782901805373,0.660600291280183,0.1489610005498229,0.06737138656899333,5,0,4,6,7,3,1.0,1.0,1.0,1.0,1.0,1.0,0.0,1.0,1.0,1.0,1.0,0.0,4.0,2.0,0.0,4.0,6.0,7.0,2.0,5.0,4.0,3.0,2.0,1.0,6.0,5.096079726703465,4.319543036399409,3.4330002362839878,2.552975307451561,1.4572807459626347,5.831257214769721,483.9729181344155,887.7282584866043,888.5367225389928,887.7956298731733,895.4209426594898,896.4167691350449,889.5535218371078,895.4126158524305
1,230,1,1,1.0,1.0,0.5255755593534559,0,0.0,0.0,0.0,0.5093955134366159,0.15188520602676012,0.3575103074098558,0.6612807194633761,0.15188520602676012,0.2964734729612246,3,5,6,7,1,4,nan,nan,nan,nan,nan,nan,nan,nan,nan,nan,nan,nan,0.0,nan,nan,nan,nan,nan,nan,nan,nan,nan,nan,nan,nan,nan,nan,nan,nan,nan,nan,483.9729181344155,896.6377960119862,nan,897.1633715713397,nan,nan,nan,nan
1,231,1,1,1.0,1.0,0.32478139526210725,0,0.0,0.0,0.0,0.5094768202000172,0.15150742404612538,0.3579693961538918,0.6609842442461425,0.15150742404612538,0.30590944706151885,7,3,4,1,6,0,nan,nan,nan,nan,nan,nan,nan,nan,nan,nan,nan,nan,0.0,nan,nan,nan,nan,nan,nan,nan,nan,nan,nan,nan,nan,nan,nan,nan,nan,nan,nan,483.9729181344155,897.6546007269062,nan,897.9793821221683,nan,nan,nan,nan
1,232,1,1,1.0,1.0,0.45995067269541323,0,0.0,0.0,0.0,0.5085533430753276,0.15168861603084174,0.3568647270444859,0.6602419591061693,0.15168861603084174,0.4367692091036588,4,6,8,3,5,7,nan,nan,nan,nan,nan,nan,nan,nan,nan,nan,nan,nan,0.0,nan,nan,nan,nan,nan,nan,nan,nan,nan,nan,nan,nan,nan,nan,nan,nan,nan,nan,483.9729181344155,898.6713920424227,nan,899.1313427151181,nan,nan,nan,nan
1,233,1,1,1.0,1.0,0.5230980727355927,0,0.0,0.0,0.0,0.5083115387450793,0.1513494476139454,0.35696209113113386,0.6596609863590247,0.1513494476139454,0.43594338023103774,0,4,5,7,8,1,nan,nan,nan,nan,nan,nan,nan,nan,nan,nan,nan,nan,0.0,nan,nan,nan,nan,nan,nan,nan,nan,nan,nan,nan,nan,nan,nan,nan,nan,nan,nan,483.9729181344155,899.6882104421966,nan,900.2113085149322,nan,nan,nan,nan
1,234,1,1,1.0,1.0,0.7222711795475334,0,0.0,0.0,0.0,0.5083847394083986,0.1509779223435554,0.3574068170648432,0.6593626617519539,0.1509779223435554,0.5684399749928465,3,5,8,1,2,7,nan,nan,nan,nan,nan,nan,nan,nan,nan,nan,nan,nan,0.0,nan,nan,nan,nan,nan,nan,nan,nan,nan,nan,nan,nan,nan,nan,nan,nan,nan,nan,483.9729181344155,900.7049966258928,nan,901.4272678054404,nan,nan,nan,nan
1,235,0,0,0.0,1.0,0.665495966328308,0,0.0,0.0,0.0,0.5094383671923353,0.15134824823814239,0.35809011895419285,0.6607866154304777,0.15134824823814239,0.636955072870478,4,2,0,6,7,5,nan,nan,nan,nan,nan,nan,nan,nan,nan,nan,nan,nan,0.0,nan,nan,nan,nan,nan,nan,nan,nan,nan,nan,nan,nan,nan,nan,nan,nan,nan,nan,483.9729181344155,901.7217839499936,nan,902.3872799163219,nan,nan,nan,nan
1,236,1,1,1.0,1.0,0.6246747407130897,1,0.0,1.0,1.0,0.5102033554233939,0.15136975760755247,0.35883359781584145,0.6615731130309463,0.15136975760755247,0.6708139621963104,6,5,4,0,2,7,1.0,1.0,1.0,1.0,1.0,1.0,0.0,1.0,1.0,1.0,1.0,0.0,4.0,1.0,5.0,4.0,0.0,2.0,0.0,5.0,4.0,2.0,1.0,3.0,6.0,4.685415358049795,3.78920351783745,2.023509894264862,1.2796643390320241,2.9021786202210933,5.396767350146547,483.9729181344155,902.7385855291504,903.5470048212446,903.3632602698635,909.9894999042153,910.9868422364816,904.5554818741512,909.9811713865492
1,237,1,1,1.0,1.0,0.32473207358270884,0,0.0,0.0,0.0,0.510761752424807,0.15121058962913944,0.35955116279566757,0.6619723420539465,0.15121058962913944,0.5383009268747022,3,0,7,2,4,6,nan,nan,nan,nan,nan,nan,nan,nan,nan,nan,nan,nan,0.0,nan,nan,nan,nan,nan,nan,nan,nan,nan,nan,nan,nan,nan,nan,nan,nan,nan,nan,483.9729181344155,911.2063150536269,nan,911.5310471272096,nan,nan,nan,nan
1,238,1,1,1.0,1.0,0.4054565147962421,0,0.0,0.0,0.0,0.5098586957313989,0.15139626429164318,0.35846243143975565,0.6612549600230421,0.15139626429164318,0.45162110969734687,5,8,0,3,1,2,nan,nan,nan,nan,nan,nan,nan,nan,nan,nan,nan,nan,0.0,nan,nan,nan,nan,nan,nan,nan,nan,nan,nan,nan,nan,nan,nan,nan,nan,nan,nan,483.9729181344155,912.2375892600976,nan,912.6430457748938,nan,nan,nan,nan
1,239,1,1,1.0,1.0,0.5063848737627268,0,0.0,0.0,0.0,0.5093543373693933,0.15120351165011944,0.3581508257192738,0.6605578490195128,0.15120351165011944,0.4121911540472259,8,3,1,6,4,5,nan,nan,nan,nan,nan,nan,nan,nan,nan,nan,nan,nan,0.0,nan,nan,nan,nan,nan,nan,nan,nan,nan,nan,nan,nan,nan,nan,nan,nan,nan,nan,483.9729181344155,913.256629700074,nan,913.7630145738367,nan,nan,nan,nan
1,240,1,1,1.0,1.0,0.649564215913415,0,0.0,0.0,0.0,0.5093400611020535,0.15083974360122476,0.3585003175008288,0.6601798047032783,0.15083974360122476,0.5204685348241279,2,4,6,7,8,3,nan,nan,nan,nan,nan,nan,nan,nan,nan,nan,nan,nan,0.0,nan,nan,nan,nan,nan,nan,nan,nan,nan,nan,nan,nan,nan,nan,nan,nan,nan,nan,483.9729181344155,914.2734318494331,nan,914.9229960653465,nan,nan,nan,nan
1,241,1,1,1.0,1.0,0.7847517395857722,0,0.0,0.0,0.0,0.5100109900724428,0.1507892380172164,0.3592217520552264,0.6608002280896592,0.1507892380172164,0.646900276420638,8,7,3,5,0,6,nan,nan,nan,nan,nan,nan,nan,nan,nan,nan,nan,nan,0.0,nan,nan,nan,nan,nan,nan,nan,nan,nan,nan,nan,nan,nan,nan,nan,nan,nan,nan,483.9729181344155,915.2902214543428,nan,916.0749731939286,nan,nan,nan,nan
1,242,1,1,nan,nan,nan,0,0.0,0.0,0.0,0.0,0.0,0.0,0.0,0.0,0.0,2,0,5,6,1,4,nan,nan,nan,nan,nan,nan,nan,nan,nan,nan,nan,nan,0.0,nan,nan,nan,nan,nan,nan,nan,nan,nan,nan,nan,nan,nan,nan,nan,nan,nan,nan,483.9729181344155,916.3153555421159,nan,nan,nan,nan,nan,nan
1,243,1,1,nan,nan,nan,0,0.0,0.0,0.0,0.0,0.0,0.0,0.0,0.0,0.0,4,3,8,1,7,2,nan,nan,nan,nan,nan,nan,nan,nan,nan,nan,nan,nan,0.0,nan,nan,nan,nan,nan,nan,nan,nan,nan,nan,nan,nan,nan,nan,nan,nan,nan,nan,483.9729181344155,917.3321747970767,nan,nan,nan,nan,nan,nan
1,244,0,0,1.0,0.0,0.03792208153754473,0,0.0,0.0,0.0,0.5113192793558397,0.151614147601948,0.3597051317538916,0.6629334269577877,0.151614147601948,0.03792208153754473,5,4,2,0,6,7,nan,nan,nan,nan,nan,nan,nan,nan,nan,nan,nan,nan,0.0,nan,nan,nan,nan,nan,nan,nan,nan,nan,nan,nan,nan,nan,nan,nan,nan,nan,nan,483.9729181344155,918.3489758057985,nan,918.3868978873361,nan,nan,nan,nan
1,245,1,1,1.0,1.0,0.4767978668678552,1,1.0,0.0,1.0,0.509075690740587,0.15470934752243343,0.3543663432181536,0.6637850382630204,0.15470934752243343,0.25735997420269996,4,6,7,2,0,1,1.0,1.0,1.0,1.0,1.0,1.0,1.0,1.0,1.0,1.0,1.0,0.0,5.0,4.0,6.0,7.0,2.0,0.0,4.0,6.0,1.0,2.0,3.0,4.0,5.0,4.832418696954846,0.7158260080032051,1.2894072192721069,1.9286338442470878,2.6324724089354277,3.9050110515672714,483.9729181344155,919.3740822395775,920.1825095145032,919.8508801064454,926.0666059032083,927.0700840777718,921.1993276290596,926.0582722539548
1,246,1,1,1.0,1.0,0.3891090939287096,0,0.0,0.0,0.0,0.5089234368543949,0.15435988013149232,0.3545635567229026,0.6632833169858872,0.15435988013149232,0.30127634744470316,7,3,2,0,1,5,nan,nan,nan,nan,nan,nan,nan,nan,nan,nan,nan,nan,0.0,nan,nan,nan,nan,nan,nan,nan,nan,nan,nan,nan,nan,nan,nan,nan,nan,nan,nan,483.9729181344155,927.3095495565794,nan,927.6986586505082,nan,nan,nan,nan
1,247,0,0,0.0,1.0,0.46905921353027225,0,0.0,0.0,0.0,0.5083609282021616,0.15421474981882444,0.3541461783833372,0.662575678020986,0.15421474981882444,0.44498872477561235,3,1,5,2,4,6,nan,nan,nan,nan,nan,nan,nan,nan,nan,nan,nan,nan,0.0,nan,nan,nan,nan,nan,nan,nan,nan,nan,nan,nan,nan,nan,nan,nan,nan,nan,nan,483.9729181344155,928.3336017041001,nan,928.8026609176304,nan,nan,nan,nan
1,248,1,1,1.0,1.0,0.5082516840193421,0,0.0,0.0,0.0,0.5081772753298631,0.1538773585733247,0.3542999167565384,0.6620546339031879,0.1538773585733247,0.45547333049277466,5,2,8,7,0,1,nan,nan,nan,nan,nan,nan,nan,nan,nan,nan,nan,nan,0.0,nan,nan,nan,nan,nan,nan,nan,nan,nan,nan,nan,nan,nan,nan,nan,nan,nan,nan,483.9729181344155,929.3503890282009,nan,929.8586407122202,nan,nan,nan,nan
1,249,1,1,1.0,1.0,0.6994432352948934,0,0.0,0.0,0.0,0.5081776214167909,0.15351908725434674,0.3546585341624442,0.6616967086711376,0.15351908725434674,0.5589180442815026,6,3,2,8,5,7,nan,nan,nan,nan,nan,nan,nan,nan,nan,nan,nan,nan,0.0,nan,nan,nan,nan,nan,nan,nan,nan,nan,nan,nan,nan,nan,nan,nan,nan,nan,nan,483.9729181344155,930.3671766375192,nan,931.066619872814,nan,nan,nan,nan
1,250,0,0,0.0,1.0,0.7626000437885523,0,0.0,0.0,0.0,0.5090631103699302,0.15371264758585984,0.3553504627840704,0.66277575795579,0.15371264758585984,0.6567649877009293,7,0,6,4,2,8,nan,nan,nan,nan,nan,nan,nan,nan,nan,nan,nan,nan,0.0,nan,nan,nan,nan,nan,nan,nan,nan,nan,nan,nan,nan,nan,nan,nan,nan,nan,nan,483.9729181344155,931.3839907606598,nan,932.1465908044484,nan,nan,nan,nan
1,251,1,1,1.0,1.0,0.7537703269626945,1,0.0,1.0,1.0,0.510231483334993,0.15431641449653327,0.35591506883845975,0.6645478978315262,0.15431641449653327,0.7386045353487134,2,8,4,1,6,5,1.0,1.0,1.0,1.0,1.0,1.0,1.0,1.0,1.0,0.0,0.0,0.0,3.0,2.0,8.0,4.0,5.0,3.0,3.0,3.0,2.0,1.0,4.0,5.0,6.0,2.574606132460758,1.8708442584611475,0.9593253140337765,3.4549945590551943,4.7576521979644895,5.365434984210879,483.9729181344155,932.4007969012018,933.2091936708894,933.1545672281645,939.6350602279417,940.6417793771252,934.226010930026,939.6267063368578
1,252,1,1,1.0,1.0,0.31812724797055125,0,0.0,0.0,0.0,0.5113486339938357,0.15483908047604147,0.35650955351779423,0.6661877144698771,0.15483908047604147,0.6114992062405994,0,4,8,5,1,7,nan,nan,nan,nan,nan,nan,nan,nan,nan,nan,nan,nan,0.0,nan,nan,nan,nan,nan,nan,nan,nan,nan,nan,nan,nan,nan,nan,nan,nan,nan,nan,483.9729181344155,940.8602335453033,nan,941.1783607932739,nan,nan,nan,nan
1,253,0,0,0.0,1.0,0.5653162701055408,0,0.0,0.0,0.0,0.5104663445599394,0.15503342886729324,0.35543291569264623,0.6654997734272327,0.15503342886729324,0.5457379483462622,2,1,6,8,7,5,nan,nan,nan,nan,nan,nan,nan,nan,nan,nan,nan,nan,0.0,nan,nan,nan,nan,nan,nan,nan,nan,nan,nan,nan,nan,nan,nan,nan,nan,nan,nan,483.9729181344155,941.8770345540252,nan,942.4423508241307,nan,nan,nan,nan
1,254,1,1,1.0,1.0,0.6761716816108674,0,0.0,0.0,0.0,0.5107156624033286,0.15472467585121344,0.35599098655211514,0.665440338254542,0.15472467585121344,0.5198717332289865,3,2,0,4,8,7,nan,nan,nan,nan,nan,nan,nan,nan,nan,nan,nan,nan,0.0,nan,nan,nan,nan,nan,nan,nan,nan,nan,nan,nan,nan,nan,nan,nan,nan,nan,nan,483.9729181344155,942.9021558125969,nan,943.5783274942078,nan,nan,nan,nan
1,255,1,1,1.0,1.0,0.7950382984708995,1,0.0,1.0,1.0,0.5114643321734984,0.15477309902487818,0.3566912331486202,0.6662374311983765,0.15477309902487818,0.6788420833957692,8,0,5,7,6,4,1.0,1.0,1.0,1.0,1.0,1.0,0.0,1.0,1.0,1.0,1.0,0.0,4.0,1.0,0.0,5.0,7.0,6.0,1.0,5.0,4.0,3.0,2.0,1.0,6.0,4.767128513194621,3.775169368600473,2.918804580112919,2.080928570125252,1.1038072614464909,5.4546564349438995,483.9729181344155,943.9272648119368,944.7357074820902,944.7223031104077,951.2448805973399,952.2479222896509,945.752508490812,951.2365489439107
1,256,1,1,1.0,1.0,0.3160426241811365,0,0.0,0.0,0.0,0.5127416923820453,0.15558728265659635,0.3571544097254489,0.6683289750386416,0.15558728265659635,0.5957508680876344,2,8,7,6,4,0,nan,nan,nan,nan,nan,nan,nan,nan,nan,nan,nan,nan,0.0,nan,nan,nan,nan,nan,nan,nan,nan,nan,nan,nan,nan,nan,nan,nan,nan,nan,nan,483.9729181344155,952.4700752967037,nan,952.7861179208849,nan,nan,nan,nan
1,257,1,1,1.0,1.0,0.7071875906549394,0,0.0,0.0,0.0,0.5118596337802475,0.1557933606660106,0.3560662731142369,0.667652994446258,0.1557933606660106,0.6060895044356585,6,7,8,3,1,4,nan,nan,nan,nan,nan,nan,nan,nan,nan,nan,nan,nan,0.0,nan,nan,nan,nan,nan,nan,nan,nan,nan,nan,nan,nan,nan,nan,nan,nan,nan,nan,483.9729181344155,953.4868740248494,nan,954.1940616155043,nan,nan,nan,nan
1,258,1,1,nan,nan,nan,0,0.0,0.0,0.0,0.0,0.0,0.0,0.0,0.0,0.0,5,8,2,0,4,1,nan,nan,nan,nan,nan,nan,nan,nan,nan,nan,nan,nan,0.0,nan,nan,nan,nan,nan,nan,nan,nan,nan,nan,nan,nan,nan,nan,nan,nan,nan,nan,483.9729181344155,954.5036775993649,nan,nan,nan,nan,nan,nan
1,259,1,1,nan,nan,nan,0,0.0,0.0,0.0,0.0,0.0,0.0,0.0,0.0,0.0,4,6,3,7,8,2,nan,nan,nan,nan,nan,nan,nan,nan,nan,nan,nan,nan,0.0,nan,nan,nan,nan,nan,nan,nan,nan,nan,nan,nan,nan,nan,nan,nan,nan,nan,nan,483.9729181344155,955.5204597918782,nan,nan,nan,nan,nan,nan
1,260,0,0,0.0,1.0,0.592705754796043,0,0.0,0.0,0.0,0.5127316335877238,0.15598968413340739,0.35674194945431636,0.6687213177211312,0.15598968413340739,0.592705754796043,3,2,8,4,7,6,nan,nan,nan,nan,nan,nan,nan,nan,nan,nan,nan,nan,0.0,nan,nan,nan,nan,nan,nan,nan,nan,nan,nan,nan,nan,nan,nan,nan,nan,nan,nan,483.9729181344155,956.5372613708023,nan,957.1299671255983,nan,nan,nan,nan
1,261,1,1,1.0,1.0,0.7918971076142043,1,0.0,1.0,1.0,0.5130870741264274,0.1557335402762798,0.35735353385014756,0.6688206144027072,0.1557335402762798,0.6923014312051237,1,4,0,5,2,8,1.0,1.0,1.0,1.0,1.0,1.0,1.0,1.0,1.0,0.0,0.0,0.0,3.0,1.0,4.0,0.0,6.0,5.0,5.0,3.0,2.0,1.0,4.0,5.0,6.0,3.7563054030761123,2.8223901502788067,1.6931634196080267,4.900418150704354,6.419967059977353,6.980069774435833,483.9729181344155,957.5540908894036,958.3624822420534,958.3459879970178,966.3885195150506,967.3953321757726,959.370949316537,966.3801941333804
1,262,1,1,1.0,1.0,0.4440200626850128,0,0.0,0.0,0.0,0.5143207468409751,0.15648661308649647,0.3578341337544786,0.6708073599274715,0.15648661308649647,0.6095409750317534,7,0,1,4,5,2,nan,nan,nan,nan,nan,nan,nan,nan,nan,nan,nan,nan,0.0,nan,nan,nan,nan,nan,nan,nan,nan,nan,nan,nan,nan,nan,nan,nan,nan,nan,nan,483.9729181344155,967.6137099380139,nan,968.0577300006989,nan,nan,nan,nan
1,263,1,1,1.0,1.0,0.5232397657819092,0,0.0,0.0,0.0,0.5140110521971162,0.1562109438970968,0.3578001083000194,0.670221996094213,0.1562109438970968,0.5863856453603754,3,4,8,2,7,5,nan,nan,nan,nan,nan,nan,nan,nan,nan,nan,nan,nan,0.0,nan,nan,nan,nan,nan,nan,nan,nan,nan,nan,nan,nan,nan,nan,nan,nan,nan,nan,483.9729181344155,968.6305032491218,nan,969.1537430149037,nan,nan,nan,nan
1,264,1,1,1.0,1.0,0.7223598444834352,0,0.0,0.0,0.0,0.5140515290110845,0.1558691926149414,0.35818233639614316,0.6699207216260259,0.1558691926149414,0.5632065576501191,8,2,1,5,4,0,nan,nan,nan,nan,nan,nan,nan,nan,nan,nan,nan,nan,0.0,nan,nan,nan,nan,nan,nan,nan,nan,nan,nan,nan,nan,nan,nan,nan,nan,nan,nan,483.9729181344155,969.6473159468733,nan,970.3696757913567,nan,nan,nan,nan
1,265,1,1,nan,nan,nan,0,0.0,0.0,0.0,0.0,0.0,0.0,0.0,0.0,0.0,6,1,5,4,3,8,nan,nan,nan,nan,nan,nan,nan,nan,nan,nan,nan,nan,0.0,nan,nan,nan,nan,nan,nan,nan,nan,nan,nan,nan,nan,nan,nan,nan,nan,nan,nan,483.9729181344155,970.6641029859893,nan,nan,nan,nan,nan,nan
1,266,1,1,1.0,1.0,0.016460318583995104,0,0.0,0.0,0.0,0.5149611723100905,0.1561338253539065,0.358827346956184,0.671094997663997,0.1561338253539065,0.36941008153371513,4,5,2,0,7,3,nan,nan,nan,nan,nan,nan,nan,nan,nan,nan,nan,nan,0.0,nan,nan,nan,nan,nan,nan,nan,nan,nan,nan,nan,nan,nan,nan,nan,nan,nan,nan,483.9729181344155,971.68921055994,nan,971.705670878524,nan,nan,nan,nan
1,267,1,1,1.0,1.0,0.1516099243890494,1,1.0,0.0,1.0,0.5127937772938901,0.15920908194542588,0.3535846953484642,0.6720028592393159,0.15920908194542588,0.08403512148652226,3,0,5,2,6,8,1.0,1.0,1.0,1.0,1.0,1.0,0.0,1.0,0.0,0.0,1.0,0.0,2.0,7.0,0.0,2.0,5.0,6.0,7.0,5.0,4.0,3.0,2.0,1.0,6.0,4.9710749867372215,3.828036766964942,3.0122460254933685,1.923328202450648,1.0603032796643674,5.843044235138223,483.9729181344155,972.7060352317058,973.5144730552565,972.8576451560948,980.4236827197019,981.4348755998071,974.5395931734238,980.4153519214597
1,268,1,1,1.0,1.0,0.41616530111059546,0,0.0,0.0,0.0,0.5112302108310985,0.16062407172758006,0.35060613910351845,0.6718542825586786,0.16062407172758006,0.19474518136121333,1,7,3,0,8,2,nan,nan,nan,nan,nan,nan,nan,nan,nan,nan,nan,nan,0.0,nan,nan,nan,nan,nan,nan,nan,nan,nan,nan,nan,nan,nan,nan,nan,nan,nan,nan,483.9729181344155,981.6572370121721,nan,982.0734023132827,nan,nan,nan,nan
1,269,1,1,nan,nan,nan,0,0.0,0.0,0.0,0.0,0.0,0.0,0.0,0.0,0.0,7,8,0,4,5,3,nan,nan,nan,nan,nan,nan,nan,nan,nan,nan,nan,nan,0.0,nan,nan,nan,nan,nan,nan,nan,nan,nan,nan,nan,nan,nan,nan,nan,nan,nan,nan,483.9729181344155,982.6740263320971,nan,nan,nan,nan,nan,nan
1,270,1,1,nan,nan,nan,0,0.0,0.0,0.0,0.0,0.0,0.0,0.0,0.0,0.0,0,1,3,5,8,6,nan,nan,nan,nan,nan,nan,nan,nan,nan,nan,nan,nan,0.0,nan,nan,nan,nan,nan,nan,nan,nan,nan,nan,nan,nan,nan,nan,nan,nan,nan,nan,483.9729181344155,983.690803677775,nan,nan,nan,nan,nan,nan
1,271,1,1,1.0,1.0,0.13343731733039021,1,1.0,0.0,1.0,0.5108204482891998,0.16039847648014557,0.3504219718090542,0.6712189247693454,0.16039847648014557,0.13343731733039021,2,3,8,1,0,7,1.0,1.0,1.0,1.0,1.0,1.0,0.0,1.0,1.0,1.0,0.0,0.0,3.0,5.0,3.0,8.0,1.0,5.0,5.0,4.0,3.0,2.0,1.0,6.0,5.0,4.897423214279115,2.595452372217551,1.8519150058273226,0.9856354240328074,6.689868847141042,5.714308440452442,483.9729181344155,984.7159380509984,985.5243465094827,984.8493753683288,993.2586955078878,994.257760677021,986.5328315449879,993.2503647094127
1,272,1,1,1.0,1.0,0.4295730940066278,0,0.0,0.0,0.0,0.5092007781992478,0.16194401781378984,0.34725676038545794,0.6711447960130377,0.16194401781378984,0.281505205668509,1,5,0,8,4,6,nan,nan,nan,nan,nan,nan,nan,nan,nan,nan,nan,nan,0.0,nan,nan,nan,nan,nan,nan,nan,nan,nan,nan,nan,nan,nan,nan,nan,nan,nan,nan,483.9729181344155,994.475539166946,nan,994.9051122609526,nan,nan,nan,nan
1,273,1,1,nan,nan,nan,0,0.0,0.0,0.0,0.0,0.0,0.0,0.0,0.0,0.0,3,6,8,5,7,1,nan,nan,nan,nan,nan,nan,nan,nan,nan,nan,nan,nan,0.0,nan,nan,nan,nan,nan,nan,nan,nan,nan,nan,nan,nan,nan,nan,nan,nan,nan,nan,483.9729181344155,995.4923373248894,nan,nan,nan,nan,nan,nan
1,274,1,1,nan,nan,nan,0,0.0,0.0,0.0,0.0,0.0,0.0,0.0,0.0,0.0,7,8,2,1,0,5,nan,nan,nan,nan,nan,nan,nan,nan,nan,nan,nan,nan,0.0,nan,nan,nan,nan,nan,nan,nan,nan,nan,nan,nan,nan,nan,nan,nan,nan,nan,nan,483.9729181344155,996.509132346604,nan,nan,nan,nan,nan,nan
1,275,1,1,1.0,1.0,0.155148254474625,1,1.0,0.0,1.0,0.5088604889505615,0.16168107250998218,0.34717941644057926,0.6705415614605437,0.16168107250998218,0.155148254474625,4,0,1,8,6,3,1.0,1.0,1.0,1.0,1.0,1.0,0.0,1.0,1.0,1.0,1.0,0.0,4.0,6.0,0.0,1.0,8.0,6.0,6.0,4.0,3.0,2.0,1.0,6.0,5.0,3.3744910673704,2.567486993037164,1.6872599311172962,0.8547959036659449,4.806810779031366,4.038794190855697,483.9729181344155,997.5259322149213,998.3343592048623,997.681080469396,1004.2018068262842,1005.2087201259565,999.3594898716547,1004.1934557859786
1,276,1,1,1.0,1.0,0.2379122741986066,0,0.0,0.0,0.0,0.507355330505983,0.1629713451712551,0.3443839853347279,0.6703266756772381,0.1629713451712551,0.1965302643366158,6,3,0,4,7,8,nan,nan,nan,nan,nan,nan,nan,nan,nan,nan,nan,nan,0.0,nan,nan,nan,nan,nan,nan,nan,nan,nan,nan,nan,nan,nan,nan,nan,nan,nan,nan,483.9729181344155,1005.4269744413905,nan,1005.6648867155891,nan,nan,nan,nan
1,277,1,1,1.0,1.0,0.4050690687727183,0,0.0,0.0,0.0,0.5062136226402738,0.16356478892900048,0.3426488337112733,0.6697784115692743,0.16356478892900048,0.26604319914865,5,6,1,2,4,7,nan,nan,nan,nan,nan,nan,nan,nan,nan,nan,nan,nan,0.0,nan,nan,nan,nan,nan,nan,nan,nan,nan,nan,nan,nan,nan,nan,nan,nan,nan,nan,483.9729181344155,1006.4437734545209,nan,1006.8488425232936,nan,nan,nan,nan
1,278,1,1,1.0,1.0,0.5162378009408712,0,0.0,0.0,0.0,0.5057868523707905,0.16335097128333137,0.3424358810874591,0.6691378236541219,0.16335097128333137,0.3864063813040654,0,1,8,6,5,3,nan,nan,nan,nan,nan,nan,nan,nan,nan,nan,nan,nan,0.0,nan,nan,nan,nan,nan,nan,nan,nan,nan,nan,nan,nan,nan,nan,nan,nan,nan,nan,483.9729181344155,1007.4605758888647,nan,1007.9768136898056,nan,nan,nan,nan
1,279,1,1,1.0,1.0,0.6274350429885089,0,0.0,0.0,0.0,0.5058307639194042,0.1630088374745178,0.3428219264448864,0.668839601393922,0.1630088374745178,0.5162473042340329,2,4,0,3,6,1,nan,nan,nan,nan,nan,nan,nan,nan,nan,nan,nan,nan,0.0,nan,nan,nan,nan,nan,nan,nan,nan,nan,nan,nan,nan,nan,nan,nan,nan,nan,nan,483.9729181344155,1008.4773717657663,nan,1009.1048068087548,nan,nan,nan,nan
