block,trial,freq_trials,correct_response,actual_response,acc,rts,probe_trials,trials_colorind0,trials_colorind1,trials_colorind2,trials_colorind3,trials_colorind4,trials_colorind5,wholereport_resp0,wholereport_resp1,wholereport_resp2,wholereport_resp3,wholereport_resp4,wholereport_resp5,wholereport_respacc0,wholereport_respacc1,wholereport_respacc2,wholereport_respacc3,wholereport_respacc4,wholereport_respacc5,wholereport_respacc_total,wholereport_respcolorind0,wholereport_respcolorind1,wholereport_respcolorind2,wholereport_respcolorind3,wholereport_respcolorind4,wholereport_respcolorind5,wholereport_resporder0,wholereport_resporder1,wholereport_resporder2,wholereport_resporder3,wholereport_resporder4,wholereport_resporder5,wholereport_rts0,wholereport_rts1,wholereport_rts2,wholereport_rts3,wholereport_rts4,wholereport_rts5,time_blockstart,time_encarray_offset,time_encarray_onset,time_response,time_iti_offset,time_iti_onset,time_memprobe_offset,time_memprobe_onset
1,1,1,1,1.0,1.0,0.6885956635233015,0,7,5,2,1,4,0,nan,nan,nan,nan,nan,nan,nan,nan,nan,nan,nan,nan,0.0,nan,nan,nan,nan,nan,nan,nan,nan,nan,nan,nan,nan,nan,nan,nan,nan,nan,nan,124.46032875101082,125.48368218750693,nan,126.17227785103023,nan,nan,nan,nan
1,2,1,1,1.0,1.0,0.4644612321862951,1,2,3,8,6,7,1,1.0,1.0,1.0,1.0,1.0,1.0,0.0,0.0,0.0,0.0,0.0,0.0,0.0,4.0,8.0,3.0,1.0,3.0,2.0,3.0,2.0,1.0,6.0,5.0,4.0,3.428604296175763,2.3171108382521197,1.302165197674185,7.107122350484133,5.787731021177024,4.43537677556742,124.46032875101082,126.48383072309662,127.29224866849836,126.94829195528291,135.45158938737586,136.4556813846575,128.3090252020629,135.44324402767234
1,3,1,1,1.0,1.0,0.34398180176503956,0,6,7,2,3,1,8,nan,nan,nan,nan,nan,nan,nan,nan,nan,nan,nan,nan,0.0,nan,nan,nan,nan,nan,nan,nan,nan,nan,nan,nan,nan,nan,nan,nan,nan,nan,nan,124.46032875101082,136.6600871027913,nan,137.00406890455633,nan,nan,nan,nan
1,4,1,1,1.0,1.0,0.367794529418461,0,8,2,4,6,0,5,nan,nan,nan,nan,nan,nan,nan,nan,nan,nan,nan,nan,0.0,nan,nan,nan,nan,nan,nan,nan,nan,nan,nan,nan,nan,nan,nan,nan,nan,nan,nan,124.46032875101082,137.6602219537599,nan,138.02801648317836,nan,nan,nan,nan
1,5,1,1,1.0,1.0,0.35968209395650774,0,4,3,6,5,7,2,nan,nan,nan,nan,nan,nan,nan,nan,nan,nan,nan,nan,0.0,nan,nan,nan,nan,nan,nan,nan,nan,nan,nan,nan,nan,nan,nan,nan,nan,nan,nan,124.46032875101082,138.6603342819726,nan,139.02001637592912,nan,nan,nan,nan
1,6,1,1,1.0,1.0,0.6071648299694061,0,6,4,7,2,3,1,nan,nan,nan,nan,nan,nan,nan,nan,nan,nan,nan,nan,0.0,nan,nan,nan,nan,nan,nan,nan,nan,nan,nan,nan,nan,nan,nan,nan,nan,nan,nan,124.46032875101082,139.66883501945995,nan,140.27599984942935,nan,nan,nan,nan
1,7,1,1,1.0,1.0,0.6150762720499188,0,5,2,3,0,7,4,nan,nan,nan,nan,nan,nan,nan,nan,nan,nan,nan,nan,0.0,nan,nan,nan,nan,nan,nan,nan,nan,nan,nan,nan,nan,nan,nan,nan,nan,nan,nan,124.46032875101082,140.6689176976215,nan,141.28399396967143,nan,nan,nan,nan
1,8,1,1,1.0,1.0,0.5829036446521059,0,1,4,8,3,5,7,nan,nan,nan,nan,nan,nan,nan,nan,nan,nan,nan,nan,0.0,nan,nan,nan,nan,nan,nan,nan,nan,nan,nan,nan,nan,nan,nan,nan,nan,nan,nan,124.46032875101082,141.66904599126428,nan,142.2519496359164,nan,nan,nan,nan
1,9,1,1,1.0,1.0,0.5587587788468227,0,7,0,5,4,1,3,nan,nan,nan,nan,nan,nan,nan,nan,nan,nan,nan,nan,0.0,nan,nan,nan,nan,nan,nan,nan,nan,nan,nan,nan,nan,nan,nan,nan,nan,nan,nan,124.46032875101082,142.66919509705622,nan,143.22795387590304,nan,nan,nan,nan
1,10,1,1,1.0,1.0,0.5186017245287076,0,2,3,0,8,6,4,nan,nan,nan,nan,nan,nan,nan,nan,nan,nan,nan,nan,0.0,nan,nan,nan,nan,nan,nan,nan,nan,nan,nan,nan,nan,nan,nan,nan,nan,nan,nan,124.46032875101082,143.6692908896366,nan,144.18789261416532,nan,nan,nan,nan
1,11,1,1,1.0,1.0,0.5744833044009283,0,0,8,6,7,2,5,nan,nan,nan,nan,nan,nan,nan,nan,nan,nan,nan,nan,0.0,nan,nan,nan,nan,nan,nan,nan,nan,nan,nan,nan,nan,nan,nan,nan,nan,nan,nan,124.46032875101082,144.66941975348163,nan,145.24390305788256,nan,nan,nan,nan
1,12,0,0,1.0,0.0,0.7743220536503941,0,6,1,5,8,4,0,nan,nan,nan,nan,nan,nan,nan,nan,nan,nan,nan,nan,0.0,nan,nan,nan,nan,nan,nan,nan,nan,nan,nan,nan,nan,nan,nan,nan,nan,nan,nan,124.46032875101082,145.66954405570868,nan,146.44386610935908,nan,nan,nan,nan
1,13,1,1,1.0,1.0,0.5340842028381303,0,7,4,6,3,2,8,nan,nan,nan,nan,nan,nan,nan,nan,nan,nan,nan,nan,0.0,nan,nan,nan,nan,nan,nan,nan,nan,nan,nan,nan,nan,nan,nan,nan,nan,nan,nan,124.46032875101082,146.66971539903898,nan,147.2037996018771,nan,nan,nan,nan
1,14,0,0,0.0,1.0,0.5100433974293992,0,0,5,3,4,8,1,nan,nan,nan,nan,nan,nan,nan,nan,nan,nan,nan,nan,0.0,nan,nan,nan,nan,nan,nan,nan,nan,nan,nan,nan,nan,nan,nan,nan,nan,nan,nan,124.46032875101082,147.66979294549674,nan,148.17983634292614,nan,nan,nan,nan
1,15,1,1,1.0,1.0,0.421868309029378,0,7,6,1,5,0,2,nan,nan,nan,nan,nan,nan,nan,nan,nan,nan,nan,nan,0.0,nan,nan,nan,nan,nan,nan,nan,nan,nan,nan,nan,nan,nan,nan,nan,nan,nan,nan,124.46032875101082,148.66994604258798,nan,149.09181435161736,nan,nan,nan,nan
1,16,1,1,0.0,0.0,0.42175427032634616,0,8,7,4,0,2,5,nan,nan,nan,nan,nan,nan,nan,nan,nan,nan,nan,nan,0.0,nan,nan,nan,nan,nan,nan,nan,nan,nan,nan,nan,nan,nan,nan,nan,nan,nan,nan,124.46032875101082,149.670040979865,nan,150.09179525019135,nan,nan,nan,nan
1,17,1,1,1.0,1.0,0.6775974760530517,0,6,2,0,5,1,8,nan,nan,nan,nan,nan,nan,nan,nan,nan,nan,nan,nan,0.0,nan,nan,nan,nan,nan,nan,nan,nan,nan,nan,nan,nan,nan,nan,nan,nan,nan,nan,124.46032875101082,150.67017041391227,nan,151.34776788996533,nan,nan,nan,nan
1,18,0,0,0.0,1.0,0.6774344005389139,0,4,8,1,7,6,3,nan,nan,nan,nan,nan,nan,nan,nan,nan,nan,nan,nan,0.0,nan,nan,nan,nan,nan,nan,nan,nan,nan,nan,nan,nan,nan,nan,nan,nan,nan,nan,124.46032875101082,151.67029956285842,nan,152.34773396339733,nan,nan,nan,nan
1,19,1,1,1.0,1.0,0.7972954557044432,0,6,0,7,2,3,1,nan,nan,nan,nan,nan,nan,nan,nan,nan,nan,nan,nan,0.0,nan,nan,nan,nan,nan,nan,nan,nan,nan,nan,nan,nan,nan,nan,nan,nan,nan,nan,124.46032875101082,152.67041844828054,nan,153.467713903985,nan,nan,nan,nan
1,20,0,0,0.0,1.0,0.748795892810449,0,1,7,8,0,5,3,nan,nan,nan,nan,nan,nan,nan,nan,nan,nan,nan,nan,0.0,nan,nan,nan,nan,nan,nan,nan,nan,nan,nan,nan,nan,nan,nan,nan,nan,nan,nan,124.46032875101082,153.67889210162684,nan,154.4276879944373,nan,nan,nan,nan
1,21,1,1,1.0,1.0,0.532665845239535,0,2,1,4,7,3,0,nan,nan,nan,nan,nan,nan,nan,nan,nan,nan,nan,nan,0.0,nan,nan,nan,nan,nan,nan,nan,nan,nan,nan,nan,nan,nan,nan,nan,nan,nan,nan,124.46032875101082,154.6790126976557,nan,155.21167854289524,nan,nan,nan,nan
1,22,1,1,1.0,1.0,0.7085156765533611,0,3,6,0,4,7,1,nan,nan,nan,nan,nan,nan,nan,nan,nan,nan,nan,nan,0.0,nan,nan,nan,nan,nan,nan,nan,nan,nan,nan,nan,nan,nan,nan,nan,nan,nan,nan,124.46032875101082,155.67912759177852,nan,156.38764326833189,nan,nan,nan,nan
1,23,1,1,1.0,1.0,0.5083981027128175,0,0,3,4,5,1,7,nan,nan,nan,nan,nan,nan,nan,nan,nan,nan,nan,nan,0.0,nan,nan,nan,nan,nan,nan,nan,nan,nan,nan,nan,nan,nan,nan,nan,nan,nan,nan,124.46032875101082,156.67925902141724,nan,157.18765712413006,nan,nan,nan,nan
1,24,1,1,1.0,1.0,0.5719063124852255,0,1,5,2,7,0,3,nan,nan,nan,nan,nan,nan,nan,nan,nan,nan,nan,nan,0.0,nan,nan,nan,nan,nan,nan,nan,nan,nan,nan,nan,nan,nan,nan,nan,nan,nan,nan,124.46032875101082,157.6877221262548,nan,158.25962843874004,nan,nan,nan,nan
1,25,1,1,1.0,1.0,0.5237366069341078,0,4,2,7,8,5,1,nan,nan,nan,nan,nan,nan,nan,nan,nan,nan,nan,nan,0.0,nan,nan,nan,nan,nan,nan,nan,nan,nan,nan,nan,nan,nan,nan,nan,nan,nan,nan,124.46032875101082,158.68786866602022,nan,159.21160527295433,nan,nan,nan,nan
1,26,1,1,1.0,1.0,0.5076266301330179,0,2,8,3,1,4,5,nan,nan,nan,nan,nan,nan,nan,nan,nan,nan,nan,nan,0.0,nan,nan,nan,nan,nan,nan,nan,nan,nan,nan,nan,nan,nan,nan,nan,nan,nan,nan,124.46032875101082,159.68796303321142,nan,160.19558966334444,nan,nan,nan,nan
1,27,1,1,1.0,1.0,0.3874513980699703,0,3,5,1,8,6,7,nan,nan,nan,nan,nan,nan,nan,nan,nan,nan,nan,nan,0.0,nan,nan,nan,nan,nan,nan,nan,nan,nan,nan,nan,nan,nan,nan,nan,nan,nan,nan,124.46032875101082,160.68811584520154,nan,161.0755672432715,nan,nan,nan,nan
1,28,1,1,1.0,1.0,0.37930018955376,0,1,0,6,7,8,2,nan,nan,nan,nan,nan,nan,nan,nan,nan,nan,nan,nan,0.0,nan,nan,nan,nan,nan,nan,nan,nan,nan,nan,nan,nan,nan,nan,nan,nan,nan,nan,124.46032875101082,161.68824071763083,nan,162.0675409071846,nan,nan,nan,nan
1,29,1,1,1.0,1.0,0.5871501645306125,0,3,6,4,5,0,1,nan,nan,nan,nan,nan,nan,nan,nan,nan,nan,nan,nan,0.0,nan,nan,nan,nan,nan,nan,nan,nan,nan,nan,nan,nan,nan,nan,nan,nan,nan,nan,124.46032875101082,162.68836559017655,nan,163.27551575470716,nan,nan,nan,nan
1,30,1,1,1.0,1.0,0.4430347663583234,0,8,0,3,1,6,5,nan,nan,nan,nan,nan,nan,nan,nan,nan,nan,nan,nan,0.0,nan,nan,nan,nan,nan,nan,nan,nan,nan,nan,nan,nan,nan,nan,nan,nan,nan,nan,124.46032875101082,163.68848019919824,nan,164.13151496555656,nan,nan,nan,nan
1,31,1,1,1.0,1.0,0.35486794589087367,0,0,7,1,2,5,3,nan,nan,nan,nan,nan,nan,nan,nan,nan,nan,nan,nan,0.0,nan,nan,nan,nan,nan,nan,nan,nan,nan,nan,nan,nan,nan,nan,nan,nan,nan,nan,124.46032875101082,164.68861276924144,nan,165.04348071513232,nan,nan,nan,nan
1,32,1,1,1.0,1.0,0.46674628474283963,0,5,8,0,6,1,2,nan,nan,nan,nan,nan,nan,nan,nan,nan,nan,nan,nan,0.0,nan,nan,nan,nan,nan,nan,nan,nan,nan,nan,nan,nan,nan,nan,nan,nan,nan,nan,124.46032875101082,165.6887419181876,nan,166.15548820293043,nan,nan,nan,nan
1,33,1,1,1.0,1.0,0.5385987140471116,0,0,4,6,7,2,5,nan,nan,nan,nan,nan,nan,nan,nan,nan,nan,nan,nan,0.0,nan,nan,nan,nan,nan,nan,nan,nan,nan,nan,nan,nan,nan,nan,nan,nan,nan,nan,124.46032875101082,166.68883942137472,nan,167.22743813542183,nan,nan,nan,nan
1,34,0,0,0.0,1.0,0.5704252335708588,0,2,6,8,1,0,3,nan,nan,nan,nan,nan,nan,nan,nan,nan,nan,nan,nan,0.0,nan,nan,nan,nan,nan,nan,nan,nan,nan,nan,nan,nan,nan,nan,nan,nan,nan,nan,124.46032875101082,167.68899223336484,nan,168.2594174669357,nan,nan,nan,nan
1,35,1,1,1.0,1.0,0.4502936213975772,0,5,4,3,2,7,6,nan,nan,nan,nan,nan,nan,nan,nan,nan,nan,nan,nan,0.0,nan,nan,nan,nan,nan,nan,nan,nan,nan,nan,nan,nan,nan,nan,nan,nan,nan,nan,124.46032875101082,168.6890888812486,nan,169.13938250264619,nan,nan,nan,nan
1,36,1,1,1.0,1.0,0.5381551029859111,0,7,1,2,8,0,4,nan,nan,nan,nan,nan,nan,nan,nan,nan,nan,nan,nan,0.0,nan,nan,nan,nan,nan,nan,nan,nan,nan,nan,nan,nan,nan,nan,nan,nan,nan,nan,124.46032875101082,169.68921204318758,nan,170.2273671461735,nan,nan,nan,nan
1,37,1,1,1.0,1.0,0.4420309398556128,0,5,3,7,2,6,1,nan,nan,nan,nan,nan,nan,nan,nan,nan,nan,nan,nan,0.0,nan,nan,nan,nan,nan,nan,nan,nan,nan,nan,nan,nan,nan,nan,nan,nan,nan,nan,124.46032875101082,170.68934033683036,nan,171.13137127668597,nan,nan,nan,nan
1,38,1,1,1.0,1.0,0.48185015411581844,0,4,1,8,0,3,6,nan,nan,nan,nan,nan,nan,nan,nan,nan,nan,nan,nan,0.0,nan,nan,nan,nan,nan,nan,nan,nan,nan,nan,nan,nan,nan,nan,nan,nan,nan,nan,124.46032875101082,171.68946150306147,nan,172.17131165717728,nan,nan,nan,nan
1,39,1,1,1.0,1.0,0.3777523977914825,0,6,0,1,7,4,5,nan,nan,nan,nan,nan,nan,nan,nan,nan,nan,nan,nan,0.0,nan,nan,nan,nan,nan,nan,nan,nan,nan,nan,nan,nan,nan,nan,nan,nan,nan,nan,124.46032875101082,172.68957240576856,nan,173.06732480356004,nan,nan,nan,nan
1,40,1,1,1.0,1.0,0.4975609950488433,0,8,5,7,2,0,6,nan,nan,nan,nan,nan,nan,nan,nan,nan,nan,nan,nan,0.0,nan,nan,nan,nan,nan,nan,nan,nan,nan,nan,nan,nan,nan,nan,nan,nan,nan,nan,124.46032875101082,173.68972721346654,nan,174.18728820851538,nan,nan,nan,nan
1,41,1,1,nan,nan,nan,0,6,7,3,0,1,8,nan,nan,nan,nan,nan,nan,nan,nan,nan,nan,nan,nan,0.0,nan,nan,nan,nan,nan,nan,nan,nan,nan,nan,nan,nan,nan,nan,nan,nan,nan,nan,124.46032875101082,174.68987118743826,nan,nan,nan,nan,nan,nan
1,42,1,1,1.0,1.0,0.553246998344548,0,5,8,6,7,2,4,nan,nan,nan,nan,nan,nan,nan,nan,nan,nan,nan,nan,0.0,nan,nan,nan,nan,nan,nan,nan,nan,nan,nan,nan,nan,nan,nan,nan,nan,nan,nan,124.46032875101082,175.6899900729768,nan,176.24323707132135,nan,nan,nan,nan
1,43,1,1,1.0,1.0,0.4650887306779623,0,3,0,7,1,4,8,nan,nan,nan,nan,nan,nan,nan,nan,nan,nan,nan,nan,0.0,nan,nan,nan,nan,nan,nan,nan,nan,nan,nan,nan,nan,nan,nan,nan,nan,nan,nan,124.46032875101082,176.69013461715076,nan,177.15522334782872,nan,nan,nan,nan
1,44,1,1,1.0,1.0,0.3689936475129798,0,5,6,8,0,2,4,nan,nan,nan,nan,nan,nan,nan,nan,nan,nan,nan,nan,0.0,nan,nan,nan,nan,nan,nan,nan,nan,nan,nan,nan,nan,nan,nan,nan,nan,nan,nan,124.46032875101082,177.6902033254737,nan,178.05919697298668,nan,nan,nan,nan
1,45,1,1,1.0,1.0,0.38482650998048484,0,0,7,1,8,6,3,nan,nan,nan,nan,nan,nan,nan,nan,nan,nan,nan,nan,0.0,nan,nan,nan,nan,nan,nan,nan,nan,nan,nan,nan,nan,nan,nan,nan,nan,nan,nan,124.46032875101082,178.6903698220849,nan,179.0751963320654,nan,nan,nan,nan
1,46,1,1,1.0,1.0,0.3127038087695837,0,1,4,3,7,0,5,nan,nan,nan,nan,nan,nan,nan,nan,nan,nan,nan,nan,0.0,nan,nan,nan,nan,nan,nan,nan,nan,nan,nan,nan,nan,nan,nan,nan,nan,nan,nan,124.46032875101082,179.69047644839156,nan,180.00318025716115,nan,nan,nan,nan
1,47,0,0,1.0,0.0,0.3685340710217133,0,0,7,5,2,6,8,nan,nan,nan,nan,nan,nan,nan,nan,nan,nan,nan,nan,0.0,nan,nan,nan,nan,nan,nan,nan,nan,nan,nan,nan,nan,nan,nan,nan,nan,nan,nan,124.46032875101082,180.69061956717633,nan,181.05915363819804,nan,nan,nan,nan
1,48,1,1,1.0,1.0,0.4723809420829639,1,5,4,1,3,0,6,1.0,1.0,1.0,1.0,1.0,1.0,0.0,0.0,1.0,1.0,0.0,0.0,2.0,4.0,2.0,1.0,3.0,8.0,4.0,3.0,2.0,1.0,6.0,5.0,4.0,3.6196637679822743,2.6444295750698075,1.4751854413188994,7.307633928605355,5.915805721189827,4.6842316834954545,124.46032875101082,181.69073816749733,182.49916124460287,182.1631191095803,190.8668366034981,191.86577433208004,183.51595916040242,190.85850378812756
1,49,1,1,1.0,1.0,0.6239094326738268,1,2,5,7,4,8,3,1.0,1.0,1.0,1.0,1.0,1.0,0.0,0.0,0.0,0.0,0.0,0.0,0.0,4.0,8.0,3.0,0.0,6.0,1.0,3.0,2.0,1.0,6.0,5.0,4.0,3.915145151433535,2.9399480210850015,2.0053404371719807,8.298555014305748,6.291037861490622,4.8602719597984105,124.46032875101082,192.06701547338162,192.8754616433289,192.69092490605544,202.22659652901348,203.22234858351294,193.8922692524502,202.21826200303622
1,50,1,1,1.0,1.0,0.4958931775763631,0,6,3,0,1,7,5,nan,nan,nan,nan,nan,nan,nan,nan,nan,nan,nan,nan,0.0,nan,nan,nan,nan,nan,nan,nan,nan,nan,nan,nan,nan,nan,nan,nan,nan,nan,nan,124.46032875101082,203.42681274656206,nan,203.92270592413843,nan,nan,nan,nan
1,51,1,1,1.0,1.0,0.5917407965753227,0,8,7,3,5,2,0,nan,nan,nan,nan,nan,nan,nan,nan,nan,nan,nan,nan,0.0,nan,nan,nan,nan,nan,nan,nan,nan,nan,nan,nan,nan,nan,nan,nan,nan,nan,nan,124.46032875101082,204.42692079837434,nan,205.01866159494966,nan,nan,nan,nan
1,52,1,1,1.0,1.0,0.6635969320777804,0,6,4,5,1,3,7,nan,nan,nan,nan,nan,nan,nan,nan,nan,nan,nan,nan,0.0,nan,nan,nan,nan,nan,nan,nan,nan,nan,nan,nan,nan,nan,nan,nan,nan,nan,nan,124.46032875101082,205.42705165792722,nan,206.090648590005,nan,nan,nan,nan
1,53,1,1,1.0,1.0,0.7514441588427871,0,1,7,4,5,6,8,nan,nan,nan,nan,nan,nan,nan,nan,nan,nan,nan,nan,0.0,nan,nan,nan,nan,nan,nan,nan,nan,nan,nan,nan,nan,nan,nan,nan,nan,nan,nan,124.46032875101082,206.4271711135516,nan,207.17861527239438,nan,nan,nan,nan
1,54,1,1,nan,nan,nan,0,5,1,6,4,8,2,nan,nan,nan,nan,nan,nan,nan,nan,nan,nan,nan,nan,0.0,nan,nan,nan,nan,nan,nan,nan,nan,nan,nan,nan,nan,nan,nan,nan,nan,nan,nan,124.46032875101082,207.42728629265912,nan,nan,nan,nan,nan,nan
1,55,1,1,1.0,1.0,0.7751094915438443,0,7,4,3,2,0,5,nan,nan,nan,nan,nan,nan,nan,nan,nan,nan,nan,nan,0.0,nan,nan,nan,nan,nan,nan,nan,nan,nan,nan,nan,nan,nan,nan,nan,nan,nan,nan,124.46032875101082,208.42742741573602,nan,209.20253690727986,nan,nan,nan,nan
1,56,1,1,1.0,1.0,0.6870102389948443,0,3,8,6,0,1,7,nan,nan,nan,nan,nan,nan,nan,nan,nan,nan,nan,nan,0.0,nan,nan,nan,nan,nan,nan,nan,nan,nan,nan,nan,nan,nan,nan,nan,nan,nan,nan,124.46032875101082,209.42755856039003,nan,210.11456879938487,nan,nan,nan,nan
1,57,1,1,1.0,1.0,0.6708797352621332,0,5,4,1,7,0,8,nan,nan,nan,nan,nan,nan,nan,nan,nan,nan,nan,nan,0.0,nan,nan,nan,nan,nan,nan,nan,nan,nan,nan,nan,nan,nan,nan,nan,nan,nan,nan,124.46032875101082,210.42765834426973,nan,211.09853807953186,nan,nan,nan,nan
1,58,1,1,1.0,1.0,0.7427680867258459,0,4,0,3,1,6,2,nan,nan,nan,nan,nan,nan,nan,nan,nan,nan,nan,nan,0.0,nan,nan,nan,nan,nan,nan,nan,nan,nan,nan,nan,nan,nan,nan,nan,nan,nan,nan,124.46032875101082,211.42777095758356,nan,212.1705390443094,nan,nan,nan,nan
1,59,1,1,1.0,1.0,0.7265779977897182,0,1,6,5,8,0,7,nan,nan,nan,nan,nan,nan,nan,nan,nan,nan,nan,nan,0.0,nan,nan,nan,nan,nan,nan,nan,nan,nan,nan,nan,nan,nan,nan,nan,nan,nan,nan,124.46032875101082,212.42790723394137,nan,213.1544852317311,nan,nan,nan,nan
1,60,1,1,1.0,1.0,0.6544347695307806,0,2,5,7,0,3,1,nan,nan,nan,nan,nan,nan,nan,nan,nan,nan,nan,nan,0.0,nan,nan,nan,nan,nan,nan,nan,nan,nan,nan,nan,nan,nan,nan,nan,nan,nan,nan,124.46032875101082,213.42805576953106,nan,214.08249053906184,nan,nan,nan,nan
1,61,1,1,1.0,1.0,0.7583095799200237,0,0,2,5,3,1,8,nan,nan,nan,nan,nan,nan,nan,nan,nan,nan,nan,nan,0.0,nan,nan,nan,nan,nan,nan,nan,nan,nan,nan,nan,nan,nan,nan,nan,nan,nan,nan,124.46032875101082,214.42814671550877,nan,215.1864562954288,nan,nan,nan,nan
1,62,1,1,1.0,1.0,0.5981640322133899,0,7,5,8,4,0,1,nan,nan,nan,nan,nan,nan,nan,nan,nan,nan,nan,nan,0.0,nan,nan,nan,nan,nan,nan,nan,nan,nan,nan,nan,nan,nan,nan,nan,nan,nan,nan,124.46032875101082,215.42826987744775,nan,216.02643390966114,nan,nan,nan,nan
1,63,1,1,1.0,1.0,0.5180129992077127,0,3,0,4,6,5,2,nan,nan,nan,nan,nan,nan,nan,nan,nan,nan,nan,nan,0.0,nan,nan,nan,nan,nan,nan,nan,nan,nan,nan,nan,nan,nan,nan,nan,nan,nan,nan,124.46032875101082,216.42840700910892,nan,216.94642000831664,nan,nan,nan,nan
1,64,1,1,1.0,1.0,0.549872875213623,0,8,5,7,2,3,1,nan,nan,nan,nan,nan,nan,nan,nan,nan,nan,nan,nan,0.0,nan,nan,nan,nan,nan,nan,nan,nan,nan,nan,nan,nan,nan,nan,nan,nan,nan,nan,124.46032875101082,217.4285190522205,nan,217.97839192743413,nan,nan,nan,nan
1,65,1,1,1.0,1.0,0.39772743463981897,0,7,2,0,3,6,4,nan,nan,nan,nan,nan,nan,nan,nan,nan,nan,nan,nan,0.0,nan,nan,nan,nan,nan,nan,nan,nan,nan,nan,nan,nan,nan,nan,nan,nan,nan,nan,124.46032875101082,218.42864734586328,nan,218.8263747805031,nan,nan,nan,nan
1,66,1,1,1.0,1.0,0.2855665647657588,0,6,8,4,0,2,3,nan,nan,nan,nan,nan,nan,nan,nan,nan,nan,nan,nan,0.0,nan,nan,nan,nan,nan,nan,nan,nan,nan,nan,nan,nan,nan,nan,nan,nan,nan,nan,124.46032875101082,219.42879816214554,nan,219.7143647269113,nan,nan,nan,nan
1,67,1,1,1.0,1.0,0.32542113098315895,0,5,0,3,4,1,7,nan,nan,nan,nan,nan,nan,nan,nan,nan,nan,nan,nan,0.0,nan,nan,nan,nan,nan,nan,nan,nan,nan,nan,nan,nan,nan,nan,nan,nan,nan,nan,124.46032875101082,220.4289236048935,nan,220.75434473587666,nan,nan,nan,nan
1,68,0,0,0.0,1.0,0.38127819262444973,0,1,4,7,3,8,2,nan,nan,nan,nan,nan,nan,nan,nan,nan,nan,nan,nan,0.0,nan,nan,nan,nan,nan,nan,nan,nan,nan,nan,nan,nan,nan,nan,nan,nan,nan,nan,124.46032875101082,221.4290208228631,nan,221.81029901548754,nan,nan,nan,nan
1,69,1,1,1.0,1.0,0.36513656994793564,0,4,3,6,0,5,7,nan,nan,nan,nan,nan,nan,nan,nan,nan,nan,nan,nan,0.0,nan,nan,nan,nan,nan,nan,nan,nan,nan,nan,nan,nan,nan,nan,nan,nan,nan,nan,124.46032875101082,222.42914911662228,nan,222.79428568657022,nan,nan,nan,nan
1,70,1,1,1.0,1.0,0.3650079913204536,0,0,1,5,4,8,3,nan,nan,nan,nan,nan,nan,nan,nan,nan,nan,nan,nan,0.0,nan,nan,nan,nan,nan,nan,nan,nan,nan,nan,nan,nan,nan,nan,nan,nan,nan,nan,124.46032875101082,223.42926686163992,nan,223.79427485296037,nan,nan,nan,nan
1,71,1,1,1.0,1.0,0.5088203313061967,0,6,7,2,5,0,4,nan,nan,nan,nan,nan,nan,nan,nan,nan,nan,nan,nan,0.0,nan,nan,nan,nan,nan,nan,nan,nan,nan,nan,nan,nan,nan,nan,nan,nan,nan,nan,124.46032875101082,224.429413971724,nan,224.93823430303019,nan,nan,nan,nan
1,72,1,1,1.0,1.0,0.5487253598403186,0,2,3,1,4,5,0,nan,nan,nan,nan,nan,nan,nan,nan,nan,nan,nan,nan,0.0,nan,nan,nan,nan,nan,nan,nan,nan,nan,nan,nan,nan,nan,nan,nan,nan,nan,nan,124.46032875101082,225.4295063430909,nan,225.97823170293123,nan,nan,nan,nan
1,73,1,1,1.0,1.0,0.45220263104420155,0,8,4,5,7,2,3,nan,nan,nan,nan,nan,nan,nan,nan,nan,nan,nan,nan,0.0,nan,nan,nan,nan,nan,nan,nan,nan,nan,nan,nan,nan,nan,nan,nan,nan,nan,nan,124.46032875101082,226.4380127826007,nan,226.8902154136449,nan,nan,nan,nan
1,74,1,1,1.0,1.0,0.3797318262513727,1,6,5,8,3,4,0,1.0,1.0,1.0,1.0,1.0,1.0,0.0,0.0,0.0,0.0,0.0,0.0,0.0,5.0,2.0,5.0,4.0,0.0,1.0,3.0,2.0,1.0,6.0,5.0,4.0,3.6868577119894326,2.5684044659137726,1.63982696889434,7.446628699311987,5.798998625250533,4.806516063166782,124.46032875101082,227.44646505371202,228.2548559148563,227.8261968799634,236.75591647566762,237.7601019849535,229.27166551968548,236.74758052418474
1,75,1,1,1.0,1.0,0.43755805294495076,1,2,4,6,1,7,5,1.0,1.0,1.0,1.0,1.0,1.0,0.0,1.0,0.0,0.0,0.0,0.0,1.0,5.0,4.0,4.0,6.0,8.0,2.0,3.0,2.0,1.0,6.0,5.0,4.0,3.2817531070904806,2.4673364355694503,1.810046989703551,6.256713036797009,5.305428132996894,4.608964647399262,124.46032875101082,237.9644384244457,238.772871194873,238.40199647739064,246.08208228019066,247.08868655236438,239.78134427801706,246.07374860940035
1,76,1,1,1.0,1.0,0.39119899831712246,0,5,2,3,7,1,4,nan,nan,nan,nan,nan,nan,nan,nan,nan,nan,nan,nan,0.0,nan,nan,nan,nan,nan,nan,nan,nan,nan,nan,nan,nan,nan,nan,nan,nan,nan,nan,124.46032875101082,247.29060736496467,nan,247.6818063632818,nan,nan,nan,nan
1,77,1,1,1.0,1.0,0.5990868912776932,0,4,7,2,1,0,8,nan,nan,nan,nan,nan,nan,nan,nan,nan,nan,nan,nan,0.0,nan,nan,nan,nan,nan,nan,nan,nan,nan,nan,nan,nan,nan,nan,nan,nan,nan,nan,124.46032875101082,248.29070401284844,nan,248.88979090412613,nan,nan,nan,nan
1,78,1,1,1.0,1.0,0.5988545372383669,0,8,2,4,3,5,0,nan,nan,nan,nan,nan,nan,nan,nan,nan,nan,nan,nan,0.0,nan,nan,nan,nan,nan,nan,nan,nan,nan,nan,nan,nan,nan,nan,nan,nan,nan,nan,124.46032875101082,249.2908662330592,nan,249.88972077029757,nan,nan,nan,nan
1,79,0,0,0.0,1.0,0.7507334119873121,0,1,5,3,2,7,6,nan,nan,nan,nan,nan,nan,nan,nan,nan,nan,nan,nan,0.0,nan,nan,nan,nan,nan,nan,nan,nan,nan,nan,nan,nan,nan,nan,nan,nan,nan,nan,124.46032875101082,250.2909819824854,nan,251.0417153944727,nan,nan,nan,nan
1,80,1,1,1.0,1.0,0.6626005180878565,0,0,6,7,4,8,5,nan,nan,nan,nan,nan,nan,nan,nan,nan,nan,nan,nan,0.0,nan,nan,nan,nan,nan,nan,nan,nan,nan,nan,nan,nan,nan,nan,nan,nan,nan,nan,124.46032875101082,251.2911005828064,nan,251.95370110089425,nan,nan,nan,nan
1,81,0,0,0.0,1.0,0.742460752138868,0,4,7,0,8,6,1,nan,nan,nan,nan,nan,nan,nan,nan,nan,nan,nan,nan,0.0,nan,nan,nan,nan,nan,nan,nan,nan,nan,nan,nan,nan,nan,nan,nan,nan,nan,nan,124.46032875101082,252.29121319612022,nan,253.0336739482591,nan,nan,nan,nan
1,82,1,1,1.0,1.0,0.47831894259434193,0,5,6,2,4,3,8,nan,nan,nan,nan,nan,nan,nan,nan,nan,nan,nan,nan,0.0,nan,nan,nan,nan,nan,nan,nan,nan,nan,nan,nan,nan,nan,nan,nan,nan,nan,nan,124.46032875101082,253.29134006425738,nan,253.76965900685173,nan,nan,nan,nan
1,83,1,1,1.0,1.0,0.6141756505239755,0,4,2,1,3,5,7,nan,nan,nan,nan,nan,nan,nan,nan,nan,nan,nan,nan,0.0,nan,nan,nan,nan,nan,nan,nan,nan,nan,nan,nan,nan,nan,nan,nan,nan,nan,nan,124.46032875101082,254.29147063870914,nan,254.90564628923312,nan,nan,nan,nan
1,84,1,1,1.0,1.0,0.5260470330249518,0,1,4,0,5,6,2,nan,nan,nan,nan,nan,nan,nan,nan,nan,nan,nan,nan,0.0,nan,nan,nan,nan,nan,nan,nan,nan,nan,nan,nan,nan,nan,nan,nan,nan,nan,nan,124.46032875101082,255.29159408574924,nan,255.8176411187742,nan,nan,nan,nan
1,85,1,1,1.0,1.0,0.5098851686343551,0,8,6,7,2,0,3,nan,nan,nan,nan,nan,nan,nan,nan,nan,nan,nan,nan,0.0,nan,nan,nan,nan,nan,nan,nan,nan,nan,nan,nan,nan,nan,nan,nan,nan,nan,nan,124.46032875101082,256.2917146817781,nan,256.80159985041246,nan,nan,nan,nan
1,86,1,1,1.0,1.0,0.5337463628966361,0,7,1,3,6,2,0,nan,nan,nan,nan,nan,nan,nan,nan,nan,nan,nan,nan,0.0,nan,nan,nan,nan,nan,nan,nan,nan,nan,nan,nan,nan,nan,nan,nan,nan,nan,nan,124.46032875101082,257.2918406946119,nan,257.8255870575085,nan,nan,nan,nan
1,87,1,1,1.0,1.0,0.46159144572447985,0,8,5,7,2,0,4,nan,nan,nan,nan,nan,nan,nan,nan,nan,nan,nan,nan,0.0,nan,nan,nan,nan,nan,nan,nan,nan,nan,nan,nan,nan,nan,nan,nan,nan,nan,nan,124.46032875101082,258.29197982198093,nan,258.7535712677054,nan,nan,nan,nan
1,88,1,1,1.0,1.0,0.4294148270273581,0,4,8,0,6,5,1,nan,nan,nan,nan,nan,nan,nan,nan,nan,nan,nan,nan,0.0,nan,nan,nan,nan,nan,nan,nan,nan,nan,nan,nan,nan,nan,nan,nan,nan,nan,nan,124.46032875101082,259.2921218002448,nan,259.72153662727214,nan,nan,nan,nan
1,89,1,1,1.0,1.0,0.5412695028353482,0,3,0,2,5,1,4,nan,nan,nan,nan,nan,nan,nan,nan,nan,nan,nan,nan,0.0,nan,nan,nan,nan,nan,nan,nan,nan,nan,nan,nan,nan,nan,nan,nan,nan,nan,nan,124.46032875101082,260.29224382177927,nan,260.8335133246146,nan,nan,nan,nan
1,90,1,1,1.0,1.0,0.5487915022531524,0,5,3,4,7,8,2,nan,nan,nan,nan,nan,nan,nan,nan,nan,nan,nan,nan,0.0,nan,nan,nan,nan,nan,nan,nan,nan,nan,nan,nan,nan,nan,nan,nan,nan,nan,nan,124.46032875101082,261.300678987056,nan,261.84947048930917,nan,nan,nan,nan
1,91,1,1,1.0,1.0,0.5166707625612617,0,1,6,2,4,7,5,nan,nan,nan,nan,nan,nan,nan,nan,nan,nan,nan,nan,0.0,nan,nan,nan,nan,nan,nan,nan,nan,nan,nan,nan,nan,nan,nan,nan,nan,nan,nan,124.46032875101082,262.30080328928307,nan,262.81747405184433,nan,nan,nan,nan
1,92,1,1,1.0,1.0,0.49249482119921595,0,6,4,3,7,1,0,nan,nan,nan,nan,nan,nan,nan,nan,nan,nan,nan,nan,0.0,nan,nan,nan,nan,nan,nan,nan,nan,nan,nan,nan,nan,nan,nan,nan,nan,nan,nan,124.46032875101082,263.3009558162885,nan,263.7934506374877,nan,nan,nan,nan
1,93,1,1,1.0,1.0,0.42837735905777663,0,3,6,0,1,2,7,nan,nan,nan,nan,nan,nan,nan,nan,nan,nan,nan,nan,0.0,nan,nan,nan,nan,nan,nan,nan,nan,nan,nan,nan,nan,nan,nan,nan,nan,nan,nan,124.46032875101082,264.3010459068464,nan,264.7294232659042,nan,nan,nan,nan
1,94,1,1,1.0,1.0,0.42023242241702974,0,7,4,8,5,0,1,nan,nan,nan,nan,nan,nan,nan,nan,nan,nan,nan,nan,0.0,nan,nan,nan,nan,nan,nan,nan,nan,nan,nan,nan,nan,nan,nan,nan,nan,nan,nan,124.46032875101082,265.30119615304284,nan,265.72142857545987,nan,nan,nan,nan
1,95,1,1,1.0,1.0,0.31606225145515054,0,0,8,5,3,6,7,nan,nan,nan,nan,nan,nan,nan,nan,nan,nan,nan,nan,0.0,nan,nan,nan,nan,nan,nan,nan,nan,nan,nan,nan,nan,nan,nan,nan,nan,nan,nan,124.46032875101082,266.3013258721912,nan,266.6173881236464,nan,nan,nan,nan
1,96,1,1,1.0,1.0,0.40394112397916615,0,4,0,3,6,2,1,nan,nan,nan,nan,nan,nan,nan,nan,nan,nan,nan,nan,0.0,nan,nan,nan,nan,nan,nan,nan,nan,nan,nan,nan,nan,nan,nan,nan,nan,nan,nan,124.46032875101082,267.3014236604795,nan,267.70536478445865,nan,nan,nan,nan
1,97,1,1,1.0,1.0,0.39577509043738246,0,7,2,5,4,1,6,nan,nan,nan,nan,nan,nan,nan,nan,nan,nan,nan,nan,0.0,nan,nan,nan,nan,nan,nan,nan,nan,nan,nan,nan,nan,nan,nan,nan,nan,nan,nan,124.46032875101082,268.3015539497137,nan,268.6973290401511,nan,nan,nan,nan
1,98,1,1,1.0,1.0,0.3476253414992243,0,3,5,0,8,4,2,nan,nan,nan,nan,nan,nan,nan,nan,nan,nan,nan,nan,0.0,nan,nan,nan,nan,nan,nan,nan,nan,nan,nan,nan,nan,nan,nan,nan,nan,nan,nan,124.46032875101082,269.3016836688621,nan,269.6493090103613,nan,nan,nan,nan
1,99,0,0,1.0,0.0,0.3314942675642669,0,5,3,6,7,8,1,nan,nan,nan,nan,nan,nan,nan,nan,nan,nan,nan,nan,0.0,nan,nan,nan,nan,nan,nan,nan,nan,nan,nan,nan,nan,nan,nan,nan,nan,nan,nan,124.46032875101082,270.30180426489096,nan,270.6332985324552,nan,nan,nan,nan
1,100,1,1,1.0,1.0,0.4753222878789529,0,7,6,8,3,2,0,nan,nan,nan,nan,nan,nan,nan,nan,nan,nan,nan,nan,0.0,nan,nan,nan,nan,nan,nan,nan,nan,nan,nan,nan,nan,nan,nan,nan,nan,nan,nan,124.46032875101082,271.3019359797472,nan,271.77725826762617,nan,nan,nan,nan
1,101,1,1,1.0,1.0,0.3952137343585491,0,3,7,1,4,8,5,nan,nan,nan,nan,nan,nan,nan,nan,nan,nan,nan,nan,0.0,nan,nan,nan,nan,nan,nan,nan,nan,nan,nan,nan,nan,nan,nan,nan,nan,nan,nan,124.46032875101082,272.30205771618057,nan,272.6972714505391,nan,nan,nan,nan
1,102,0,0,0.0,1.0,0.5710575786652043,0,7,0,6,8,1,4,nan,nan,nan,nan,nan,nan,nan,nan,nan,nan,nan,nan,0.0,nan,nan,nan,nan,nan,nan,nan,nan,nan,nan,nan,nan,nan,nan,nan,nan,nan,nan,124.46032875101082,273.3021902863402,nan,273.8732478650054,nan,nan,nan,nan
1,103,1,1,1.0,1.0,0.442933271988295,0,5,6,2,7,3,1,nan,nan,nan,nan,nan,nan,nan,nan,nan,nan,nan,nan,0.0,nan,nan,nan,nan,nan,nan,nan,nan,nan,nan,nan,nan,nan,nan,nan,nan,nan,nan,124.46032875101082,274.3022974827327,nan,274.745230754721,nan,nan,nan,nan
1,104,1,1,nan,nan,nan,0,3,1,6,4,5,0,nan,nan,nan,nan,nan,nan,nan,nan,nan,nan,nan,nan,0.0,nan,nan,nan,nan,nan,nan,nan,nan,nan,nan,nan,nan,nan,nan,nan,nan,nan,nan,124.46032875101082,275.30242064467166,nan,nan,nan,nan,nan,nan
1,105,1,1,1.0,1.0,0.6185795440105721,0,8,5,1,3,0,4,nan,nan,nan,nan,nan,nan,nan,nan,nan,nan,nan,nan,0.0,nan,nan,nan,nan,nan,nan,nan,nan,nan,nan,nan,nan,nan,nan,nan,nan,nan,nan,124.46032875101082,276.302574026864,nan,276.9211535708746,nan,nan,nan,nan
1,106,0,0,0.0,1.0,0.5304423737106845,0,1,0,4,2,7,8,nan,nan,nan,nan,nan,nan,nan,nan,nan,nan,nan,nan,0.0,nan,nan,nan,nan,nan,nan,nan,nan,nan,nan,nan,nan,nan,nan,nan,nan,nan,nan,124.46032875101082,277.3027174306335,nan,277.8331598043442,nan,nan,nan,nan
1,107,1,1,1.0,1.0,0.4503101570298895,0,0,8,3,7,5,2,nan,nan,nan,nan,nan,nan,nan,nan,nan,nan,nan,nan,0.0,nan,nan,nan,nan,nan,nan,nan,nan,nan,nan,nan,nan,nan,nan,nan,nan,nan,nan,124.46032875101082,278.30281151272357,nan,278.75312166975345,nan,nan,nan,nan
1,108,1,1,nan,nan,nan,0,4,6,7,3,2,5,nan,nan,nan,nan,nan,nan,nan,nan,nan,nan,nan,nan,0.0,nan,nan,nan,nan,nan,nan,nan,nan,nan,nan,nan,nan,nan,nan,nan,nan,nan,nan,124.46032875101082,279.3029292577412,nan,nan,nan,nan,nan,nan
1,109,1,1,1.0,1.0,0.5620060337241739,0,3,5,6,2,0,8,nan,nan,nan,nan,nan,nan,nan,nan,nan,nan,nan,nan,0.0,nan,nan,nan,nan,nan,nan,nan,nan,nan,nan,nan,nan,nan,nan,nan,nan,nan,nan,124.46032875101082,280.3030769380275,nan,280.8650829717517,nan,nan,nan,nan
1,110,1,1,1.0,1.0,0.5778614189475775,0,5,4,0,1,2,6,nan,nan,nan,nan,nan,nan,nan,nan,nan,nan,nan,nan,0.0,nan,nan,nan,nan,nan,nan,nan,nan,nan,nan,nan,nan,nan,nan,nan,nan,nan,nan,124.46032875101082,281.30322518839967,nan,281.88108660734724,nan,nan,nan,nan
1,111,1,1,1.0,1.0,0.5777174449758604,1,4,0,8,6,1,2,1.0,1.0,1.0,1.0,1.0,1.0,0.0,1.0,1.0,0.0,0.0,0.0,2.0,2.0,0.0,8.0,2.0,0.0,8.0,3.0,2.0,1.0,6.0,5.0,4.0,2.821933539235033,1.5414137617917731,0.7818611589027569,6.268145141657442,5.164249519119039,3.828270390513353,124.46032875101082,282.30333837191574,283.11175061541144,282.8810558168916,290.4459652786609,291.45420800335705,284.13687906588893,290.43761735304724
1,112,1,1,nan,nan,nan,0,7,8,2,1,0,4,nan,nan,nan,nan,nan,nan,nan,nan,nan,nan,nan,nan,0.0,nan,nan,nan,nan,nan,nan,nan,nan,nan,nan,nan,nan,nan,nan,nan,nan,nan,nan,124.46032875101082,291.65447211719584,nan,nan,nan,nan,nan,nan
1,113,1,1,1.0,1.0,0.4021738077281043,0,3,0,7,5,6,2,nan,nan,nan,nan,nan,nan,nan,nan,nan,nan,nan,nan,0.0,nan,nan,nan,nan,nan,nan,nan,nan,nan,nan,nan,nan,nan,nan,nan,nan,nan,nan,124.46032875101082,292.65461951238103,nan,293.05679332010914,nan,nan,nan,nan
1,114,1,1,1.0,1.0,0.546071391669102,0,5,4,1,0,2,6,nan,nan,nan,nan,nan,nan,nan,nan,nan,nan,nan,nan,0.0,nan,nan,nan,nan,nan,nan,nan,nan,nan,nan,nan,nan,nan,nan,nan,nan,nan,nan,124.46032875101082,293.65472784929443,nan,294.20079924096353,nan,nan,nan,nan
1,115,1,1,1.0,1.0,0.48195050831418484,0,8,2,6,7,5,3,nan,nan,nan,nan,nan,nan,nan,nan,nan,nan,nan,nan,0.0,nan,nan,nan,nan,nan,nan,nan,nan,nan,nan,nan,nan,nan,nan,nan,nan,nan,nan,124.46032875101082,294.6548689722549,nan,295.1368194805691,nan,nan,nan,nan
1,116,1,1,1.0,1.0,0.4658094560727477,0,6,3,5,0,2,1,nan,nan,nan,nan,nan,nan,nan,nan,nan,nan,nan,nan,0.0,nan,nan,nan,nan,nan,nan,nan,nan,nan,nan,nan,nan,nan,nan,nan,nan,nan,nan,124.46032875101082,295.6549721773481,nan,296.12078163342085,nan,nan,nan,nan
1,117,1,1,1.0,1.0,0.4576419967925176,0,4,1,6,3,7,5,nan,nan,nan,nan,nan,nan,nan,nan,nan,nan,nan,nan,0.0,nan,nan,nan,nan,nan,nan,nan,nan,nan,nan,nan,nan,nan,nan,nan,nan,nan,nan,124.46032875101082,296.65511387062725,nan,297.11275586741976,nan,nan,nan,nan
1,118,1,1,1.0,1.0,0.7054833848960698,1,5,2,7,0,3,6,1.0,1.0,1.0,1.0,1.0,1.0,0.0,1.0,1.0,1.0,1.0,0.0,4.0,8.0,2.0,7.0,0.0,3.0,1.0,3.0,2.0,1.0,6.0,5.0,4.0,4.188388968119398,3.1638863055268303,2.0690094417659566,7.459782790276222,6.588346146512777,5.620248501887545,124.46032875101082,297.655253282981,298.4636698028771,298.36073666787706,306.98970144067425,307.98989046004135,299.4888107976876,306.98137033591047
1,119,1,1,1.0,1.0,0.6266777246491984,0,8,4,1,7,6,3,nan,nan,nan,nan,nan,nan,nan,nan,nan,nan,nan,nan,0.0,nan,nan,nan,nan,nan,nan,nan,nan,nan,nan,nan,nan,nan,nan,nan,nan,nan,nan,124.46032875101082,308.18987888505217,nan,308.81655660970137,nan,nan,nan,nan
1,120,1,1,1.0,1.0,0.46648257004562765,0,1,2,8,0,4,6,nan,nan,nan,nan,nan,nan,nan,nan,nan,nan,nan,nan,0.0,nan,nan,nan,nan,nan,nan,nan,nan,nan,nan,nan,nan,nan,nan,nan,nan,nan,nan,124.46032875101082,309.19002884614747,nan,309.6565114161931,nan,nan,nan,nan
1,121,1,1,1.0,1.0,0.5703673588577658,0,0,1,5,4,7,2,nan,nan,nan,nan,nan,nan,nan,nan,nan,nan,nan,nan,0.0,nan,nan,nan,nan,nan,nan,nan,nan,nan,nan,nan,nan,nan,nan,nan,nan,nan,nan,124.46032875101082,310.1901260642335,nan,310.76049342309125,nan,nan,nan,nan
1,122,1,1,1.0,1.0,0.6902004744624719,0,5,3,8,1,2,4,nan,nan,nan,nan,nan,nan,nan,nan,nan,nan,nan,nan,0.0,nan,nan,nan,nan,nan,nan,nan,nan,nan,nan,nan,nan,nan,nan,nan,nan,nan,nan,124.46032875101082,311.1902646214003,nan,311.88046509586275,nan,nan,nan,nan
1,123,1,1,1.0,1.0,0.7780596753582358,0,8,7,6,2,5,1,nan,nan,nan,nan,nan,nan,nan,nan,nan,nan,nan,nan,0.0,nan,nan,nan,nan,nan,nan,nan,nan,nan,nan,nan,nan,nan,nan,nan,nan,nan,nan,124.46032875101082,312.1903758092085,nan,312.9684354845667,nan,nan,nan,nan
1,124,1,1,nan,nan,nan,0,2,1,7,3,4,6,nan,nan,nan,nan,nan,nan,nan,nan,nan,nan,nan,nan,0.0,nan,nan,nan,nan,nan,nan,nan,nan,nan,nan,nan,nan,nan,nan,nan,nan,nan,nan,124.46032875101082,313.1905018220423,nan,nan,nan,nan,nan,nan
1,125,1,1,1.0,1.0,0.6097569320118055,0,0,4,8,7,3,5,nan,nan,nan,nan,nan,nan,nan,nan,nan,nan,nan,nan,0.0,nan,nan,nan,nan,nan,nan,nan,nan,nan,nan,nan,nan,nan,nan,nan,nan,nan,nan,124.46032875101082,314.1906343922019,nan,314.8003913242137,nan,nan,nan,nan
1,126,1,1,1.0,1.0,0.6736408998258412,0,2,3,4,6,1,7,nan,nan,nan,nan,nan,nan,nan,nan,nan,nan,nan,nan,0.0,nan,nan,nan,nan,nan,nan,nan,nan,nan,nan,nan,nan,nan,nan,nan,nan,nan,nan,124.46032875101082,315.1907495713094,nan,315.86439047113527,nan,nan,nan,nan
1,127,1,1,1.0,1.0,0.4574689429719001,0,1,4,2,3,8,0,nan,nan,nan,nan,nan,nan,nan,nan,nan,nan,nan,nan,0.0,nan,nan,nan,nan,nan,nan,nan,nan,nan,nan,nan,nan,nan,nan,nan,nan,nan,nan,124.46032875101082,316.19090380880516,nan,316.64837275177706,nan,nan,nan,nan
1,128,0,0,1.0,0.0,0.6733441138640046,0,7,0,4,2,1,8,nan,nan,nan,nan,nan,nan,nan,nan,nan,nan,nan,nan,0.0,nan,nan,nan,nan,nan,nan,nan,nan,nan,nan,nan,nan,nan,nan,nan,nan,nan,nan,124.46032875101082,317.19100188219454,nan,317.86434599605855,nan,nan,nan,nan
1,129,1,1,1.0,1.0,0.5051223379559815,0,0,6,5,7,2,1,nan,nan,nan,nan,nan,nan,nan,nan,nan,nan,nan,nan,0.0,nan,nan,nan,nan,nan,nan,nan,nan,nan,nan,nan,nan,nan,nan,nan,nan,nan,nan,124.46032875101082,318.19115070288535,nan,318.69627304084133,nan,nan,nan,nan
1,130,1,1,1.0,1.0,0.6730535998940468,0,6,4,2,0,8,3,nan,nan,nan,nan,nan,nan,nan,nan,nan,nan,nan,nan,0.0,nan,nan,nan,nan,nan,nan,nan,nan,nan,nan,nan,nan,nan,nan,nan,nan,nan,nan,124.46032875101082,319.19125675898977,nan,319.8643103588838,nan,nan,nan,nan
1,131,1,1,nan,nan,nan,0,4,5,7,1,6,2,nan,nan,nan,nan,nan,nan,nan,nan,nan,nan,nan,nan,0.0,nan,nan,nan,nan,nan,nan,nan,nan,nan,nan,nan,nan,nan,nan,nan,nan,nan,nan,124.46032875101082,320.19140643486753,nan,nan,nan,nan,nan,nan
1,132,1,1,1.0,1.0,0.7127778769936413,0,2,4,6,8,3,7,nan,nan,nan,nan,nan,nan,nan,nan,nan,nan,nan,nan,0.0,nan,nan,nan,nan,nan,nan,nan,nan,nan,nan,nan,nan,nan,nan,nan,nan,nan,nan,124.46032875101082,321.19148512161337,nan,321.904262998607,nan,nan,nan,nan
1,133,1,1,1.0,1.0,0.5125967263011262,0,3,8,7,6,2,4,nan,nan,nan,nan,nan,nan,nan,nan,nan,nan,nan,nan,0.0,nan,nan,nan,nan,nan,nan,nan,nan,nan,nan,nan,nan,nan,nan,nan,nan,nan,nan,124.46032875101082,322.19165104813874,nan,322.70424777443986,nan,nan,nan,nan
1,134,1,1,1.0,1.0,0.49644084903411567,1,7,6,1,4,8,2,1.0,1.0,1.0,1.0,1.0,1.0,0.0,1.0,1.0,0.0,0.0,0.0,2.0,2.0,6.0,1.0,8.0,3.0,5.0,3.0,2.0,1.0,6.0,5.0,4.0,3.4430991982808337,2.475136689725332,1.4538182757096365,5.883105379180051,5.107146868831478,4.187467249459587,124.46032875101082,323.1917821926763,324.000196716981,323.68822304171044,330.9510277461959,331.9510100701591,325.0253317246679,330.9426952159265
1,135,1,1,1.0,1.0,0.4167975736781955,1,6,4,7,0,5,8,1.0,1.0,1.0,1.0,1.0,1.0,0.0,0.0,0.0,0.0,0.0,1.0,1.0,1.0,1.0,0.0,3.0,6.0,8.0,3.0,2.0,1.0,6.0,5.0,4.0,4.9888259078143165,3.446351870079525,2.492407011333853,8.211884382879362,7.411605671979487,6.3970312278252095,124.46032875101082,332.1512490955647,332.9596473692218,332.5680466692429,342.22747120668646,343.2295874817064,333.9764324557036,342.2191378209973
1,136,1,1,1.0,1.0,0.5878286955412477,0,7,5,3,1,8,0,nan,nan,nan,nan,nan,nan,nan,nan,nan,nan,nan,nan,0.0,nan,nan,nan,nan,nan,nan,nan,nan,nan,nan,nan,nan,nan,nan,nan,nan,nan,nan,124.46032875101082,343.435995151056,nan,344.0238238465972,nan,nan,nan,nan
1,137,1,1,1.0,1.0,0.6276715727290139,0,2,1,4,6,7,3,nan,nan,nan,nan,nan,nan,nan,nan,nan,nan,nan,nan,0.0,nan,nan,nan,nan,nan,nan,nan,nan,nan,nan,nan,nan,nan,nan,nan,nan,nan,nan,124.46032875101082,344.436102632666,nan,345.063774205395,nan,nan,nan,nan
1,138,1,1,1.0,1.0,0.5875504406867549,0,6,8,0,3,1,7,nan,nan,nan,nan,nan,nan,nan,nan,nan,nan,nan,nan,0.0,nan,nan,nan,nan,nan,nan,nan,nan,nan,nan,nan,nan,nan,nan,nan,nan,nan,nan,124.46032875101082,345.4362018464599,nan,346.02375228714664,nan,nan,nan,nan
1,139,1,1,1.0,1.0,0.4433899972354993,1,8,1,6,7,5,0,1.0,1.0,1.0,1.0,1.0,1.0,1.0,1.0,1.0,0.0,0.0,0.0,3.0,8.0,1.0,6.0,0.0,7.0,3.0,3.0,2.0,1.0,6.0,5.0,4.0,3.659299094695598,2.660132148186676,1.9473120769253,6.8583333001006395,5.538656303542666,4.570834062760696,124.46032875101082,346.43632985500153,347.2447440940887,346.87971985223703,355.1623904015869,356.1617438015528,348.2653027245542,355.15405473520514
1,140,1,1,1.0,1.0,0.5089819813147187,0,5,8,4,0,6,3,nan,nan,nan,nan,nan,nan,nan,nan,nan,nan,nan,nan,0.0,nan,nan,nan,nan,nan,nan,nan,nan,nan,nan,nan,nan,nan,nan,nan,nan,nan,nan,124.46032875101082,356.3625641396502,nan,356.8715461209649,nan,nan,nan,nan
1,141,1,1,1.0,1.0,0.5008327683899552,0,6,0,8,2,3,4,nan,nan,nan,nan,nan,nan,nan,nan,nan,nan,nan,nan,0.0,nan,nan,nan,nan,nan,nan,nan,nan,nan,nan,nan,nan,nan,nan,nan,nan,nan,nan,124.46032875101082,357.3626910079038,nan,357.86352377629373,nan,nan,nan,nan
1,142,1,1,1.0,1.0,0.4606859775958583,0,2,5,0,8,4,1,nan,nan,nan,nan,nan,nan,nan,nan,nan,nan,nan,nan,0.0,nan,nan,nan,nan,nan,nan,nan,nan,nan,nan,nan,nan,nan,nan,nan,nan,nan,nan,124.46032875101082,358.36281702073757,nan,358.8235029983334,nan,nan,nan,nan
1,143,0,0,0.0,1.0,0.6285168854519725,0,7,2,1,4,8,5,nan,nan,nan,nan,nan,nan,nan,nan,nan,nan,nan,nan,0.0,nan,nan,nan,nan,nan,nan,nan,nan,nan,nan,nan,nan,nan,nan,nan,nan,nan,nan,124.46032875101082,359.36293134465814,nan,359.9914482301101,nan,nan,nan,nan
1,144,1,1,1.0,1.0,0.5323818884789944,0,0,8,2,1,3,4,nan,nan,nan,nan,nan,nan,nan,nan,nan,nan,nan,nan,0.0,nan,nan,nan,nan,nan,nan,nan,nan,nan,nan,nan,nan,nan,nan,nan,nan,nan,nan,124.46032875101082,360.3630718975328,nan,360.8954537860118,nan,nan,nan,nan
1,145,1,1,1.0,1.0,0.46823990799020976,0,5,6,4,2,7,0,nan,nan,nan,nan,nan,nan,nan,nan,nan,nan,nan,nan,0.0,nan,nan,nan,nan,nan,nan,nan,nan,nan,nan,nan,nan,nan,nan,nan,nan,nan,nan,124.46032875101082,361.36318337044213,nan,361.83142327843234,nan,nan,nan,nan
1,146,1,1,1.0,1.0,0.5640752679901198,0,2,5,3,7,1,4,nan,nan,nan,nan,nan,nan,nan,nan,nan,nan,nan,nan,0.0,nan,nan,nan,nan,nan,nan,nan,nan,nan,nan,nan,nan,nan,nan,nan,nan,nan,nan,124.46032875101082,362.36332249769475,nan,362.9273977656849,nan,nan,nan,nan
1,147,1,1,1.0,1.0,0.6279389937408268,0,7,1,2,0,8,6,nan,nan,nan,nan,nan,nan,nan,nan,nan,nan,nan,nan,0.0,nan,nan,nan,nan,nan,nan,nan,nan,nan,nan,nan,nan,nan,nan,nan,nan,nan,nan,124.46032875101082,363.36344851064496,nan,363.9913875043858,nan,nan,nan,nan
1,148,1,1,1.0,1.0,0.6037961236434057,0,8,4,5,1,3,0,nan,nan,nan,nan,nan,nan,nan,nan,nan,nan,nan,nan,0.0,nan,nan,nan,nan,nan,nan,nan,nan,nan,nan,nan,nan,nan,nan,nan,nan,nan,nan,124.46032875101082,364.3635534263449,nan,364.9673495499883,nan,nan,nan,nan
1,149,1,1,1.0,1.0,0.7796419637743384,0,7,6,2,8,0,5,nan,nan,nan,nan,nan,nan,nan,nan,nan,nan,nan,nan,0.0,nan,nan,nan,nan,nan,nan,nan,nan,nan,nan,nan,nan,nan,nan,nan,nan,nan,nan,124.46032875101082,365.3636939791031,nan,366.14333594287746,nan,nan,nan,nan
1,150,1,1,1.0,1.0,0.571509457542561,0,4,3,0,6,7,8,nan,nan,nan,nan,nan,nan,nan,nan,nan,nan,nan,nan,0.0,nan,nan,nan,nan,nan,nan,nan,nan,nan,nan,nan,nan,nan,nan,nan,nan,nan,nan,124.46032875101082,366.3638308256632,nan,366.93534028320573,nan,nan,nan,nan
1,151,1,1,1.0,1.0,0.4273547158809379,0,1,8,4,2,0,6,nan,nan,nan,nan,nan,nan,nan,nan,nan,nan,nan,nan,0.0,nan,nan,nan,nan,nan,nan,nan,nan,nan,nan,nan,nan,nan,nan,nan,nan,nan,nan,124.46032875101082,367.3639594045235,nan,367.7913141204044,nan,nan,nan,nan
1,152,0,0,0.0,1.0,0.2911844013724476,0,7,4,1,5,2,3,nan,nan,nan,nan,nan,nan,nan,nan,nan,nan,nan,nan,0.0,nan,nan,nan,nan,nan,nan,nan,nan,nan,nan,nan,nan,nan,nan,nan,nan,nan,nan,124.46032875101082,368.36408997885883,nan,368.6552743802313,nan,nan,nan,nan
1,153,1,1,1.0,1.0,0.38708704407326877,0,3,7,5,2,0,8,nan,nan,nan,nan,nan,nan,nan,nan,nan,nan,nan,nan,0.0,nan,nan,nan,nan,nan,nan,nan,nan,nan,nan,nan,nan,nan,nan,nan,nan,nan,nan,124.46032875101082,369.36420715379063,nan,369.7512941978639,nan,nan,nan,nan
1,154,1,1,1.0,1.0,0.49891035922337323,0,7,8,2,6,5,0,nan,nan,nan,nan,nan,nan,nan,nan,nan,nan,nan,nan,0.0,nan,nan,nan,nan,nan,nan,nan,nan,nan,nan,nan,nan,nan,nan,nan,nan,nan,nan,124.46032875101082,370.3643494171556,nan,370.863259776379,nan,nan,nan,nan
1,155,1,1,1.0,1.0,0.40277906868141145,0,2,5,4,0,6,7,nan,nan,nan,nan,nan,nan,nan,nan,nan,nan,nan,nan,0.0,nan,nan,nan,nan,nan,nan,nan,nan,nan,nan,nan,nan,nan,nan,nan,nan,nan,nan,124.46032875101082,371.36444463953376,nan,371.76722370821517,nan,nan,nan,nan
1,156,1,1,1.0,1.0,0.5306316780624911,0,6,1,7,3,5,8,nan,nan,nan,nan,nan,nan,nan,nan,nan,nan,nan,nan,0.0,nan,nan,nan,nan,nan,nan,nan,nan,nan,nan,nan,nan,nan,nan,nan,nan,nan,nan,124.46032875101082,372.36458319670055,nan,372.89521487476304,nan,nan,nan,nan
1,157,1,1,1.0,1.0,0.490501708118245,0,7,6,0,5,1,2,nan,nan,nan,nan,nan,nan,nan,nan,nan,nan,nan,nan,0.0,nan,nan,nan,nan,nan,nan,nan,nan,nan,nan,nan,nan,nan,nan,nan,nan,nan,nan,124.46032875101082,373.3646946696099,nan,373.85519637772813,nan,nan,nan,nan
1,158,0,0,0.0,1.0,0.506296937703155,0,1,8,6,4,2,5,nan,nan,nan,nan,nan,nan,nan,nan,nan,nan,nan,nan,0.0,nan,nan,nan,nan,nan,nan,nan,nan,nan,nan,nan,nan,nan,nan,nan,nan,nan,nan,124.46032875101082,374.3648737105541,nan,374.87117064825725,nan,nan,nan,nan
1,159,1,1,1.0,1.0,0.498209020588547,0,0,2,8,6,4,7,nan,nan,nan,nan,nan,nan,nan,nan,nan,nan,nan,nan,0.0,nan,nan,nan,nan,nan,nan,nan,nan,nan,nan,nan,nan,nan,nan,nan,nan,nan,nan,124.46032875101082,375.3649327256717,nan,375.8631417462602,nan,nan,nan,nan
1,160,1,1,1.0,1.0,0.6580338341882452,0,6,0,1,5,3,2,nan,nan,nan,nan,nan,nan,nan,nan,nan,nan,nan,nan,0.0,nan,nan,nan,nan,nan,nan,nan,nan,nan,nan,nan,nan,nan,nan,nan,nan,nan,nan,124.46032875101082,376.3650718530407,nan,377.02310568722896,nan,nan,nan,nan
1,161,1,1,1.0,1.0,0.7138903255108744,0,3,1,5,0,2,8,nan,nan,nan,nan,nan,nan,nan,nan,nan,nan,nan,nan,0.0,nan,nan,nan,nan,nan,nan,nan,nan,nan,nan,nan,nan,nan,nan,nan,nan,nan,nan,124.46032875101082,377.3652052783873,nan,378.07909560389817,nan,nan,nan,nan
1,162,1,1,nan,nan,nan,0,6,3,0,1,7,2,nan,nan,nan,nan,nan,nan,nan,nan,nan,nan,nan,nan,0.0,nan,nan,nan,nan,nan,nan,nan,nan,nan,nan,nan,nan,nan,nan,nan,nan,nan,nan,124.46032875101082,378.36532188311685,nan,nan,nan,nan,nan,nan
1,163,1,1,1.0,1.0,0.6495955327991396,0,7,1,5,8,6,4,nan,nan,nan,nan,nan,nan,nan,nan,nan,nan,nan,nan,0.0,nan,nan,nan,nan,nan,nan,nan,nan,nan,nan,nan,nan,nan,nan,nan,nan,nan,nan,124.46032875101082,379.36545188736636,nan,380.0150474201655,nan,nan,nan,nan
1,164,1,1,1.0,1.0,0.6254669176414609,0,3,2,1,4,0,7,nan,nan,nan,nan,nan,nan,nan,nan,nan,nan,nan,nan,0.0,nan,nan,nan,nan,nan,nan,nan,nan,nan,nan,nan,nan,nan,nan,nan,nan,nan,nan,124.46032875101082,380.3655662111705,nan,380.991033128812,nan,nan,nan,nan
1,165,1,1,1.0,1.0,0.7132699544308707,0,0,4,6,3,8,5,nan,nan,nan,nan,nan,nan,nan,nan,nan,nan,nan,nan,0.0,nan,nan,nan,nan,nan,nan,nan,nan,nan,nan,nan,nan,nan,nan,nan,nan,nan,nan,124.46032875101082,381.3657364140963,nan,382.0790063685272,nan,nan,nan,nan
1,166,1,1,nan,nan,nan,0,2,5,7,4,3,8,nan,nan,nan,nan,nan,nan,nan,nan,nan,nan,nan,nan,0.0,nan,nan,nan,nan,nan,nan,nan,nan,nan,nan,nan,nan,nan,nan,nan,nan,nan,nan,124.46032875101082,382.36582251347136,nan,nan,nan,nan,nan,nan
1,167,1,1,1.0,1.0,0.656967286253348,0,3,4,2,5,0,1,nan,nan,nan,nan,nan,nan,nan,nan,nan,nan,nan,nan,0.0,nan,nan,nan,nan,nan,nan,nan,nan,nan,nan,nan,nan,nan,nan,nan,nan,nan,nan,124.46032875101082,383.36596876825206,nan,384.0229360545054,nan,nan,nan,nan
1,168,1,1,1.0,1.0,0.3928522758651525,0,2,8,5,4,3,0,nan,nan,nan,nan,nan,nan,nan,nan,nan,nan,nan,nan,0.0,nan,nan,nan,nan,nan,nan,nan,nan,nan,nan,nan,nan,nan,nan,nan,nan,nan,nan,124.46032875101082,384.3660839473596,nan,384.75893622322474,nan,nan,nan,nan
1,169,1,1,1.0,1.0,0.6807064589811489,0,6,4,7,2,8,5,nan,nan,nan,nan,nan,nan,nan,nan,nan,nan,nan,nan,0.0,nan,nan,nan,nan,nan,nan,nan,nan,nan,nan,nan,nan,nan,nan,nan,nan,nan,nan,124.46032875101082,385.36622193432413,nan,386.0469283933053,nan,nan,nan,nan
1,170,1,1,nan,nan,nan,0,8,2,6,1,0,3,nan,nan,nan,nan,nan,nan,nan,nan,nan,nan,nan,nan,0.0,nan,nan,nan,nan,nan,nan,nan,nan,nan,nan,nan,nan,nan,nan,nan,nan,nan,nan,124.46032875101082,386.3663499428658,nan,nan,nan,nan,nan,nan
1,171,1,1,1.0,1.0,0.6564318740274757,0,0,6,4,2,1,8,nan,nan,nan,nan,nan,nan,nan,nan,nan,nan,nan,nan,0.0,nan,nan,nan,nan,nan,nan,nan,nan,nan,nan,nan,nan,nan,nan,nan,nan,nan,nan,124.46032875101082,387.36645172256976,nan,388.02288359659724,nan,nan,nan,nan
1,172,0,0,0.0,1.0,0.608276708284393,0,5,8,6,4,7,2,nan,nan,nan,nan,nan,nan,nan,nan,nan,nan,nan,nan,0.0,nan,nan,nan,nan,nan,nan,nan,nan,nan,nan,nan,nan,nan,nan,nan,nan,nan,nan,124.46032875101082,388.36659797735047,nan,388.97487468563486,nan,nan,nan,nan
1,173,1,1,1.0,1.0,0.6881335211219266,0,4,6,8,1,2,0,nan,nan,nan,nan,nan,nan,nan,nan,nan,nan,nan,nan,0.0,nan,nan,nan,nan,nan,nan,nan,nan,nan,nan,nan,nan,nan,nan,nan,nan,nan,nan,124.46032875101082,389.3667245603865,nan,390.0548580815084,nan,nan,nan,nan
1,174,1,1,1.0,1.0,0.44003355014137924,0,8,7,1,2,5,4,nan,nan,nan,nan,nan,nan,nan,nan,nan,nan,nan,nan,0.0,nan,nan,nan,nan,nan,nan,nan,nan,nan,nan,nan,nan,nan,nan,nan,nan,nan,nan,124.46032875101082,390.3668152212631,nan,390.8068487714045,nan,nan,nan,nan
1,175,0,0,0.0,1.0,0.5918294618604705,0,2,8,4,1,6,7,nan,nan,nan,nan,nan,nan,nan,nan,nan,nan,nan,nan,0.0,nan,nan,nan,nan,nan,nan,nan,nan,nan,nan,nan,nan,nan,nan,nan,nan,nan,nan,124.46032875101082,391.3669728798559,nan,391.95880234171636,nan,nan,nan,nan
1,176,1,1,1.0,1.0,0.4797230453696102,0,6,4,7,5,3,8,nan,nan,nan,nan,nan,nan,nan,nan,nan,nan,nan,nan,0.0,nan,nan,nan,nan,nan,nan,nan,nan,nan,nan,nan,nan,nan,nan,nan,nan,nan,nan,124.46032875101082,392.3670760849491,nan,392.8467991303187,nan,nan,nan,nan
1,177,1,1,1.0,1.0,0.4155881921760738,0,5,3,2,7,1,0,nan,nan,nan,nan,nan,nan,nan,nan,nan,nan,nan,nan,0.0,nan,nan,nan,nan,nan,nan,nan,nan,nan,nan,nan,nan,nan,nan,nan,nan,nan,nan,124.46032875101082,393.3671975362813,nan,393.7827857284574,nan,nan,nan,nan
1,178,1,1,1.0,1.0,0.6234233422437683,0,2,0,4,5,3,6,nan,nan,nan,nan,nan,nan,nan,nan,nan,nan,nan,nan,0.0,nan,nan,nan,nan,nan,nan,nan,nan,nan,nan,nan,nan,nan,nan,nan,nan,nan,nan,124.46032875101082,394.3673218386248,nan,394.99074518086854,nan,nan,nan,nan
1,179,1,1,1.0,1.0,0.5272834986681119,0,5,1,3,0,8,2,nan,nan,nan,nan,nan,nan,nan,nan,nan,nan,nan,nan,0.0,nan,nan,nan,nan,nan,nan,nan,nan,nan,nan,nan,nan,nan,nan,nan,nan,nan,nan,124.46032875101082,395.3674447154626,nan,395.89472821413074,nan,nan,nan,nan
1,180,1,1,1.0,1.0,0.415147147141397,0,2,7,6,8,1,4,nan,nan,nan,nan,nan,nan,nan,nan,nan,nan,nan,nan,0.0,nan,nan,nan,nan,nan,nan,nan,nan,nan,nan,nan,nan,nan,nan,nan,nan,nan,nan,124.46032875101082,396.3675695878919,nan,396.7827167350333,nan,nan,nan,nan
1,181,1,1,1.0,1.0,0.45496322528924793,0,3,5,0,1,6,2,nan,nan,nan,nan,nan,nan,nan,nan,nan,nan,nan,nan,0.0,nan,nan,nan,nan,nan,nan,nan,nan,nan,nan,nan,nan,nan,nan,nan,nan,nan,nan,124.46032875101082,397.36772639129777,nan,397.822689616587,nan,nan,nan,nan
1,182,1,1,1.0,1.0,0.4148315447382629,0,5,4,3,0,1,8,nan,nan,nan,nan,nan,nan,nan,nan,nan,nan,nan,nan,0.0,nan,nan,nan,nan,nan,nan,nan,nan,nan,nan,nan,nan,nan,nan,nan,nan,nan,nan,124.46032875101082,398.36784983822145,nan,398.7826813829597,nan,nan,nan,nan
1,183,1,1,1.0,1.0,0.4146827240474522,0,0,1,7,5,2,4,nan,nan,nan,nan,nan,nan,nan,nan,nan,nan,nan,nan,0.0,nan,nan,nan,nan,nan,nan,nan,nan,nan,nan,nan,nan,nan,nan,nan,nan,nan,nan,124.46032875101082,399.36797471076716,nan,399.7826574348146,nan,nan,nan,nan
1,184,1,1,1.0,1.0,0.3185086689190939,0,3,7,5,0,4,2,nan,nan,nan,nan,nan,nan,nan,nan,nan,nan,nan,nan,0.0,nan,nan,nan,nan,nan,nan,nan,nan,nan,nan,nan,nan,nan,nan,nan,nan,nan,nan,124.46032875101082,400.36812210595235,nan,400.68663077487145,nan,nan,nan,nan
1,185,1,1,1.0,1.0,0.2463839720003307,0,6,2,3,7,0,1,nan,nan,nan,nan,nan,nan,nan,nan,nan,nan,nan,nan,0.0,nan,nan,nan,nan,nan,nan,nan,nan,nan,nan,nan,nan,nan,nan,nan,nan,nan,nan,124.46032875101082,401.3682022182038,nan,401.61458619020414,nan,nan,nan,nan
1,186,0,0,1.0,0.0,0.23024634085595608,0,7,6,8,0,5,3,nan,nan,nan,nan,nan,nan,nan,nan,nan,nan,nan,nan,0.0,nan,nan,nan,nan,nan,nan,nan,nan,nan,nan,nan,nan,nan,nan,nan,nan,nan,nan,124.46032875101082,402.36834904318675,nan,402.5985953840427,nan,nan,nan,nan
1,187,1,1,1.0,1.0,0.35010853642597795,0,1,0,4,2,7,8,nan,nan,nan,nan,nan,nan,nan,nan,nan,nan,nan,nan,0.0,nan,nan,nan,nan,nan,nan,nan,nan,nan,nan,nan,nan,nan,nan,nan,nan,nan,nan,124.46032875101082,403.3684710646048,nan,403.7185796010308,nan,nan,nan,nan
1,188,1,1,1.0,1.0,0.501972301164642,0,4,1,7,8,3,6,nan,nan,nan,nan,nan,nan,nan,nan,nan,nan,nan,nan,0.0,nan,nan,nan,nan,nan,nan,nan,nan,nan,nan,nan,nan,nan,nan,nan,nan,nan,nan,124.46032875101082,404.3686007837532,nan,404.87057308491785,nan,nan,nan,nan
1,189,1,1,1.0,1.0,0.4697996737668291,0,1,6,3,4,7,2,nan,nan,nan,nan,nan,nan,nan,nan,nan,nan,nan,nan,0.0,nan,nan,nan,nan,nan,nan,nan,nan,nan,nan,nan,nan,nan,nan,nan,nan,nan,nan,124.46032875101082,405.368729077396,nan,405.8385287511628,nan,nan,nan,nan
1,190,1,1,1.0,1.0,0.5576699933735654,0,8,7,5,0,2,3,nan,nan,nan,nan,nan,nan,nan,nan,nan,nan,nan,nan,0.0,nan,nan,nan,nan,nan,nan,nan,nan,nan,nan,nan,nan,nan,nan,nan,nan,nan,nan,124.46032875101082,406.36885109893046,nan,406.92652109230403,nan,nan,nan,nan
1,191,1,1,1.0,1.0,0.5655318285571411,0,3,6,1,2,8,7,nan,nan,nan,nan,nan,nan,nan,nan,nan,nan,nan,nan,0.0,nan,nan,nan,nan,nan,nan,nan,nan,nan,nan,nan,nan,nan,nan,nan,nan,nan,nan,124.46032875101082,407.36895915074274,nan,407.9344909792999,nan,nan,nan,nan
1,192,1,1,1.0,1.0,0.48539476527366787,0,7,0,3,6,1,4,nan,nan,nan,nan,nan,nan,nan,nan,nan,nan,nan,nan,0.0,nan,nan,nan,nan,nan,nan,nan,nan,nan,nan,nan,nan,nan,nan,nan,nan,nan,nan,124.46032875101082,408.3690720491577,nan,408.85446681443136,nan,nan,nan,nan
1,193,1,1,1.0,1.0,0.5492294112918898,0,0,7,5,8,6,2,nan,nan,nan,nan,nan,nan,nan,nan,nan,nan,nan,nan,0.0,nan,nan,nan,nan,nan,nan,nan,nan,nan,nan,nan,nan,nan,nan,nan,nan,nan,nan,124.46032875101082,409.3692057596054,nan,409.9184351708973,nan,nan,nan,nan
1,194,1,1,1.0,1.0,0.6210912487003952,1,2,3,0,6,7,8,1.0,1.0,1.0,1.0,1.0,1.0,0.0,1.0,1.0,0.0,0.0,0.0,2.0,1.0,3.0,0.0,4.0,8.0,2.0,3.0,2.0,1.0,6.0,5.0,4.0,3.8561337766004726,2.8099665922345594,1.7305257359985262,7.824325503199361,6.480247053666972,5.240007777349092,124.46032875101082,410.36932892154437,411.1777391693322,410.99042017024476,420.06220246560406,421.0720636860933,412.1945405063452,420.0538693651324
1,195,1,1,1.0,1.0,0.5831562405219302,0,3,7,2,5,6,1,nan,nan,nan,nan,nan,nan,nan,nan,nan,nan,nan,nan,0.0,nan,nan,nan,nan,nan,nan,nan,nan,nan,nan,nan,nan,nan,nan,nan,nan,nan,nan,124.46032875101082,421.27906065096613,nan,421.86221689148806,nan,nan,nan,nan
1,196,1,1,1.0,1.0,0.4630086630349979,0,2,6,4,8,7,0,nan,nan,nan,nan,nan,nan,nan,nan,nan,nan,nan,nan,0.0,nan,nan,nan,nan,nan,nan,nan,nan,nan,nan,nan,nan,nan,nan,nan,nan,nan,nan,124.46032875101082,422.2791715536732,nan,422.7421802167082,nan,nan,nan,nan
1,197,1,1,1.0,1.0,0.7028536500874907,0,1,3,0,4,2,5,nan,nan,nan,nan,nan,nan,nan,nan,nan,nan,nan,nan,0.0,nan,nan,nan,nan,nan,nan,nan,nan,nan,nan,nan,nan,nan,nan,nan,nan,nan,nan,124.46032875101082,423.279299847316,nan,423.9821534974035,nan,nan,nan,nan
1,198,1,1,1.0,1.0,0.5267395336413756,0,2,5,1,7,3,8,nan,nan,nan,nan,nan,nan,nan,nan,nan,nan,nan,nan,0.0,nan,nan,nan,nan,nan,nan,nan,nan,nan,nan,nan,nan,nan,nan,nan,nan,nan,nan,124.46032875101082,424.27939506981056,nan,424.80613460345194,nan,nan,nan,nan
1,199,0,0,0.0,1.0,0.5505699374480173,0,7,0,5,8,4,1,nan,nan,nan,nan,nan,nan,nan,nan,nan,nan,nan,nan,0.0,nan,nan,nan,nan,nan,nan,nan,nan,nan,nan,nan,nan,nan,nan,nan,nan,nan,nan,124.46032875101082,425.2795205124421,nan,425.8300904498901,nan,nan,nan,nan
1,200,1,1,1.0,1.0,0.5264604237163439,0,6,8,7,3,2,4,nan,nan,nan,nan,nan,nan,nan,nan,nan,nan,nan,nan,0.0,nan,nan,nan,nan,nan,nan,nan,nan,nan,nan,nan,nan,nan,nan,nan,nan,nan,nan,124.46032875101082,426.2796299896436,nan,426.8060904133599,nan,nan,nan,nan
1,201,1,1,1.0,1.0,0.6062758974730968,0,0,6,5,8,4,2,nan,nan,nan,nan,nan,nan,nan,nan,nan,nan,nan,nan,0.0,nan,nan,nan,nan,nan,nan,nan,nan,nan,nan,nan,nan,nan,nan,nan,nan,nan,nan,124.46032875101082,427.2797950608656,nan,427.8860709583387,nan,nan,nan,nan
1,202,1,1,1.0,1.0,0.5821184874512255,0,8,4,0,7,1,5,nan,nan,nan,nan,nan,nan,nan,nan,nan,nan,nan,nan,0.0,nan,nan,nan,nan,nan,nan,nan,nan,nan,nan,nan,nan,nan,nan,nan,nan,nan,nan,124.46032875101082,428.27993703912944,nan,428.86205552658066,nan,nan,nan,nan
1,203,1,1,1.0,1.0,0.5980112203396857,0,1,0,6,2,5,3,nan,nan,nan,nan,nan,nan,nan,nan,nan,nan,nan,nan,0.0,nan,nan,nan,nan,nan,nan,nan,nan,nan,nan,nan,nan,nan,nan,nan,nan,nan,nan,124.46032875101082,429.28001914708875,nan,429.87803036742844,nan,nan,nan,nan
1,204,1,1,1.0,1.0,0.5738569463137537,0,3,8,2,4,0,1,nan,nan,nan,nan,nan,nan,nan,nan,nan,nan,nan,nan,0.0,nan,nan,nan,nan,nan,nan,nan,nan,nan,nan,nan,nan,nan,nan,nan,nan,nan,nan,124.46032875101082,430.28015285765287,nan,430.8540098039666,nan,nan,nan,nan
1,205,1,1,1.0,1.0,0.5333574905525893,0,6,7,5,1,4,2,nan,nan,nan,nan,nan,nan,nan,nan,nan,nan,nan,nan,0.0,nan,nan,nan,nan,nan,nan,nan,nan,nan,nan,nan,nan,nan,nan,nan,nan,nan,nan,124.46032875101082,431.28864048072137,nan,431.82199797127396,nan,nan,nan,nan
1,206,1,1,1.0,1.0,0.6132399621419609,0,3,8,1,0,2,5,nan,nan,nan,nan,nan,nan,nan,nan,nan,nan,nan,nan,0.0,nan,nan,nan,nan,nan,nan,nan,nan,nan,nan,nan,nan,nan,nan,nan,nan,nan,nan,124.46032875101082,432.2887354179984,nan,432.90197538014036,nan,nan,nan,nan
1,207,1,1,1.0,1.0,0.5650796646950766,0,5,2,0,3,8,4,nan,nan,nan,nan,nan,nan,nan,nan,nan,nan,nan,nan,0.0,nan,nan,nan,nan,nan,nan,nan,nan,nan,nan,nan,nan,nan,nan,nan,nan,nan,nan,124.46032875101082,433.2888580097351,nan,433.8539376744302,nan,nan,nan,nan
1,208,1,1,1.0,1.0,0.5489902148256078,0,8,4,1,6,3,7,nan,nan,nan,nan,nan,nan,nan,nan,nan,nan,nan,nan,0.0,nan,nan,nan,nan,nan,nan,nan,nan,nan,nan,nan,nan,nan,nan,nan,nan,nan,nan,124.46032875101082,434.28894895571284,nan,434.83793917053845,nan,nan,nan,nan
1,209,1,1,1.0,1.0,0.5567853373941034,0,0,6,3,4,2,5,nan,nan,nan,nan,nan,nan,nan,nan,nan,nan,nan,nan,0.0,nan,nan,nan,nan,nan,nan,nan,nan,nan,nan,nan,nan,nan,nan,nan,nan,nan,nan,124.46032875101082,435.28910575900227,nan,435.8458910963964,nan,nan,nan,nan
1,210,1,1,1.0,1.0,0.43663205788470805,0,2,5,4,8,7,3,nan,nan,nan,nan,nan,nan,nan,nan,nan,nan,nan,nan,0.0,nan,nan,nan,nan,nan,nan,nan,nan,nan,nan,nan,nan,nan,nan,nan,nan,nan,nan,124.46032875101082,436.28923291224055,nan,436.72586497012526,nan,nan,nan,nan
1,211,1,1,1.0,1.0,0.3725237186299637,0,7,4,2,5,8,6,nan,nan,nan,nan,nan,nan,nan,nan,nan,nan,nan,nan,0.0,nan,nan,nan,nan,nan,nan,nan,nan,nan,nan,nan,nan,nan,nan,nan,nan,nan,nan,124.46032875101082,437.28935635928065,nan,437.6618800779106,nan,nan,nan,nan
1,212,1,1,1.0,1.0,0.38839250325690955,0,8,2,0,4,1,3,nan,nan,nan,nan,nan,nan,nan,nan,nan,nan,nan,nan,0.0,nan,nan,nan,nan,nan,nan,nan,nan,nan,nan,nan,nan,nan,nan,nan,nan,nan,nan,124.46032875101082,438.2895108818775,nan,438.6779033851344,nan,nan,nan,nan
1,213,1,1,1.0,1.0,0.36420173686929047,0,4,8,2,0,6,1,nan,nan,nan,nan,nan,nan,nan,nan,nan,nan,nan,nan,0.0,nan,nan,nan,nan,nan,nan,nan,nan,nan,nan,nan,nan,nan,nan,nan,nan,nan,nan,124.46032875101082,439.2896346140187,nan,439.653836350888,nan,nan,nan,nan
1,214,0,0,0.0,1.0,0.4520597973605618,0,5,0,1,8,3,2,nan,nan,nan,nan,nan,nan,nan,nan,nan,nan,nan,nan,0.0,nan,nan,nan,nan,nan,nan,nan,nan,nan,nan,nan,nan,nan,nan,nan,nan,nan,nan,124.46032875101082,440.2897603417514,nan,440.74182013911195,nan,nan,nan,nan
1,215,1,1,1.0,1.0,0.5079256969038397,0,7,8,0,1,2,3,nan,nan,nan,nan,nan,nan,nan,nan,nan,nan,nan,nan,0.0,nan,nan,nan,nan,nan,nan,nan,nan,nan,nan,nan,nan,nan,nan,nan,nan,nan,nan,124.46032875101082,441.2898718146607,nan,441.79779751156457,nan,nan,nan,nan
1,216,1,1,1.0,1.0,0.7157545748632401,1,0,7,1,3,6,5,1.0,1.0,1.0,1.0,1.0,1.0,0.0,1.0,1.0,0.0,0.0,0.0,2.0,3.0,7.0,1.0,0.0,1.0,8.0,3.0,2.0,1.0,6.0,5.0,4.0,3.655468246084638,2.656757454853505,1.5377665157429874,6.606875171302818,5.831246518180706,4.631516105961055,124.46032875101082,442.2900189247448,443.0984211898176,443.00577349960804,450.74934812565334,451.75664774957113,444.10688686044887,450.74101074878126
1,217,1,1,1.0,1.0,0.631716814241372,0,2,4,3,0,5,8,nan,nan,nan,nan,nan,nan,nan,nan,nan,nan,nan,nan,0.0,nan,nan,nan,nan,nan,nan,nan,nan,nan,nan,nan,nan,nan,nan,nan,nan,nan,nan,124.46032875101082,451.9578734956449,nan,452.58959030988626,nan,nan,nan,nan
1,218,1,1,1.0,1.0,0.5275774337351322,0,3,5,7,4,0,1,nan,nan,nan,nan,nan,nan,nan,nan,nan,nan,nan,nan,0.0,nan,nan,nan,nan,nan,nan,nan,nan,nan,nan,nan,nan,nan,nan,nan,nan,nan,nan,124.46032875101082,452.9579804070527,nan,453.4855578407878,nan,nan,nan,nan
1,219,1,1,1.0,1.0,0.45540170453023165,0,0,4,1,7,8,5,nan,nan,nan,nan,nan,nan,nan,nan,nan,nan,nan,nan,0.0,nan,nan,nan,nan,nan,nan,nan,nan,nan,nan,nan,nan,nan,nan,nan,nan,nan,nan,124.46032875101082,453.9581135472981,nan,454.41351525182836,nan,nan,nan,nan
1,220,0,0,0.0,1.0,0.6232904870994389,0,6,3,2,0,1,8,nan,nan,nan,nan,nan,nan,nan,nan,nan,nan,nan,nan,0.0,nan,nan,nan,nan,nan,nan,nan,nan,nan,nan,nan,nan,nan,nan,nan,nan,nan,nan,124.46032875101082,454.9582355688326,nan,455.58152605593204,nan,nan,nan,nan
1,221,1,1,1.0,1.0,0.6071163634769619,0,5,6,4,1,0,3,nan,nan,nan,nan,nan,nan,nan,nan,nan,nan,nan,nan,0.0,nan,nan,nan,nan,nan,nan,nan,nan,nan,nan,nan,nan,nan,nan,nan,nan,nan,nan,124.46032875101082,455.9583587307716,nan,456.56547509424854,nan,nan,nan,nan
1,222,1,1,1.0,1.0,0.5989423471037298,0,2,5,1,0,4,8,nan,nan,nan,nan,nan,nan,nan,nan,nan,nan,nan,nan,0.0,nan,nan,nan,nan,nan,nan,nan,nan,nan,nan,nan,nan,nan,nan,nan,nan,nan,nan,124.46032875101082,456.9585092619527,nan,457.55745160905644,nan,nan,nan,nan
1,223,1,1,1.0,1.0,0.5828092774609104,0,6,8,7,2,0,3,nan,nan,nan,nan,nan,nan,nan,nan,nan,nan,nan,nan,0.0,nan,nan,nan,nan,nan,nan,nan,nan,nan,nan,nan,nan,nan,nan,nan,nan,nan,nan,124.46032875101082,457.9586136074504,nan,458.5414228849113,nan,nan,nan,nan
1,224,1,1,1.0,1.0,0.7586958864703774,0,3,5,8,6,4,7,nan,nan,nan,nan,nan,nan,nan,nan,nan,nan,nan,nan,0.0,nan,nan,nan,nan,nan,nan,nan,nan,nan,nan,nan,nan,nan,nan,nan,nan,nan,nan,124.46032875101082,458.9587495987071,nan,459.71744548517745,nan,nan,nan,nan
1,225,1,1,1.0,1.0,0.4625185811892152,1,6,1,0,4,3,5,1.0,1.0,1.0,1.0,1.0,1.0,0.0,1.0,1.0,0.0,0.0,0.0,2.0,3.0,1.0,0.0,2.0,4.0,8.0,3.0,2.0,1.0,6.0,5.0,4.0,3.267506239237264,2.1311312249163166,1.2432367861038074,6.145382939372212,5.169561731745489,3.906364733702503,124.46032875101082,459.958888440975,460.76730439066887,460.4214070221642,467.9681945776101,468.97873746498954,461.7840997406747,467.95986119192094
1,226,1,1,1.0,1.0,0.34819040377624333,0,5,8,6,7,4,2,nan,nan,nan,nan,nan,nan,nan,nan,nan,nan,nan,nan,0.0,nan,nan,nan,nan,nan,nan,nan,nan,nan,nan,nan,nan,nan,nan,nan,nan,nan,nan,124.46032875101082,469.1850365123246,nan,469.53322691610083,nan,nan,nan,nan
1,227,1,1,1.0,1.0,0.5160364217590541,0,6,4,7,3,0,5,nan,nan,nan,nan,nan,nan,nan,nan,nan,nan,nan,nan,0.0,nan,nan,nan,nan,nan,nan,nan,nan,nan,nan,nan,nan,nan,nan,nan,nan,nan,nan,124.46032875101082,470.1851377218263,nan,470.7011741435854,nan,nan,nan,nan
1,228,1,1,1.0,1.0,0.45992761955130845,0,4,1,0,2,3,6,nan,nan,nan,nan,nan,nan,nan,nan,nan,nan,nan,nan,0.0,nan,nan,nan,nan,nan,nan,nan,nan,nan,nan,nan,nan,nan,nan,nan,nan,nan,nan,124.46032875101082,471.1852594582597,nan,471.645187077811,nan,nan,nan,nan
1,229,1,1,1.0,1.0,0.45975998253561556,0,1,4,5,6,0,3,nan,nan,nan,nan,nan,nan,nan,nan,nan,nan,nan,nan,0.0,nan,nan,nan,nan,nan,nan,nan,nan,nan,nan,nan,nan,nan,nan,nan,nan,nan,nan,124.46032875101082,472.1853937389096,nan,472.64515372144524,nan,nan,nan,nan
1,230,1,1,1.0,1.0,0.3476070952601731,0,3,8,6,0,7,5,nan,nan,nan,nan,nan,nan,nan,nan,nan,nan,nan,nan,0.0,nan,nan,nan,nan,nan,nan,nan,nan,nan,nan,nan,nan,nan,nan,nan,nan,nan,nan,124.46032875101082,473.18551005853806,nan,473.53311715379823,nan,nan,nan,nan
1,231,1,1,1.0,1.0,0.31548721087165177,0,0,7,8,6,3,1,nan,nan,nan,nan,nan,nan,nan,nan,nan,nan,nan,nan,0.0,nan,nan,nan,nan,nan,nan,nan,nan,nan,nan,nan,nan,nan,nan,nan,nan,nan,nan,124.46032875101082,474.18563635647297,nan,474.5011235673446,nan,nan,nan,nan
1,232,1,1,1.0,1.0,0.322960743913427,0,2,1,0,4,6,5,nan,nan,nan,nan,nan,nan,nan,nan,nan,nan,nan,nan,0.0,nan,nan,nan,nan,nan,nan,nan,nan,nan,nan,nan,nan,nan,nan,nan,nan,nan,nan,124.46032875101082,475.19413994497154,nan,475.51710068888497,nan,nan,nan,nan
1,233,0,0,0.0,1.0,0.44249621825292706,0,7,5,4,2,8,1,nan,nan,nan,nan,nan,nan,nan,nan,nan,nan,nan,nan,0.0,nan,nan,nan,nan,nan,nan,nan,nan,nan,nan,nan,nan,nan,nan,nan,nan,nan,nan,124.46032875101082,476.2025725443382,nan,476.6450687625911,nan,nan,nan,nan
1,234,1,1,1.0,1.0,0.35433909099083394,0,6,1,0,7,2,4,nan,nan,nan,nan,nan,nan,nan,nan,nan,nan,nan,nan,0.0,nan,nan,nan,nan,nan,nan,nan,nan,nan,nan,nan,nan,nan,nan,nan,nan,nan,nan,124.46032875101082,477.202711101505,nan,477.5570501924958,nan,nan,nan,nan
1,235,1,1,1.0,1.0,0.4421962961787358,0,4,7,3,6,8,1,nan,nan,nan,nan,nan,nan,nan,nan,nan,nan,nan,nan,0.0,nan,nan,nan,nan,nan,nan,nan,nan,nan,nan,nan,nan,nan,nan,nan,nan,nan,nan,124.46032875101082,478.20283312303945,nan,478.6450294192182,nan,nan,nan,nan
1,236,1,1,1.0,1.0,0.4977628437336534,0,3,5,0,4,1,2,nan,nan,nan,nan,nan,nan,nan,nan,nan,nan,nan,nan,0.0,nan,nan,nan,nan,nan,nan,nan,nan,nan,nan,nan,nan,nan,nan,nan,nan,nan,nan,124.46032875101082,479.2112583098933,nan,479.70902115362696,nan,nan,nan,nan
1,237,1,1,1.0,1.0,0.5135623498354107,0,8,6,4,7,0,5,nan,nan,nan,nan,nan,nan,nan,nan,nan,nan,nan,nan,0.0,nan,nan,nan,nan,nan,nan,nan,nan,nan,nan,nan,nan,nan,nan,nan,nan,nan,nan,124.46032875101082,480.21141995990183,nan,480.72498230973724,nan,nan,nan,nan
1,238,1,1,1.0,1.0,0.5454293532529846,1,2,5,8,4,1,0,1.0,1.0,1.0,1.0,1.0,1.0,1.0,1.0,1.0,0.0,1.0,0.0,4.0,2.0,5.0,8.0,8.0,1.0,3.0,3.0,2.0,1.0,6.0,5.0,4.0,3.325676007778384,2.3968430638778955,1.4780432538827881,6.284565018955618,5.397258165059611,4.444681201712228,124.46032875101082,481.211554810754,482.01995508011896,481.756984164007,489.35418171738274,490.35029242397286,483.02842360164504,489.34584576589987
1,239,1,1,1.0,1.0,0.5144179259659722,0,3,6,5,2,4,8,nan,nan,nan,nan,nan,nan,nan,nan,nan,nan,nan,nan,0.0,nan,nan,nan,nan,nan,nan,nan,nan,nan,nan,nan,nan,nan,nan,nan,nan,nan,nan,124.46032875101082,490.55436885508243,nan,491.0687867810484,nan,nan,nan,nan
1,240,0,0,0.0,1.0,0.5702875317074358,0,2,4,0,8,3,5,nan,nan,nan,nan,nan,nan,nan,nan,nan,nan,nan,nan,0.0,nan,nan,nan,nan,nan,nan,nan,nan,nan,nan,nan,nan,nan,nan,nan,nan,nan,nan,124.46032875101082,491.55448374920525,nan,492.1247712809127,nan,nan,nan,nan
1,241,1,1,1.0,1.0,0.4181369594298303,1,8,0,4,5,6,7,1.0,1.0,1.0,1.0,1.0,1.0,0.0,1.0,0.0,0.0,0.0,0.0,1.0,4.0,0.0,5.0,8.0,1.0,3.0,3.0,2.0,1.0,6.0,5.0,4.0,2.7749968781135976,1.8144027017988265,1.0794955949531868,4.901282879523933,4.10953826259356,3.582543281954713,124.46032875101082,492.5546032048296,493.3630228608381,492.97274016425945,499.31378261581995,500.31849298859015,494.3714953737799,499.3054469494382
1,242,1,1,1.0,1.0,0.570275557693094,0,3,7,8,0,4,5,nan,nan,nan,nan,nan,nan,nan,nan,nan,nan,nan,nan,0.0,nan,nan,nan,nan,nan,nan,nan,nan,nan,nan,nan,nan,nan,nan,nan,nan,nan,nan,124.46032875101082,500.52230513480026,nan,501.09258069249336,nan,nan,nan,nan
1,243,1,1,1.0,1.0,0.4821392424637452,1,4,6,5,8,2,7,1.0,1.0,1.0,1.0,1.0,1.0,0.0,1.0,1.0,0.0,0.0,0.0,2.0,3.0,6.0,5.0,0.0,1.0,8.0,3.0,2.0,1.0,6.0,5.0,4.0,2.839312197873369,1.975216231890954,1.1427700254134834,7.133542575640604,5.670043830876239,3.9267916494281963,124.46032875101082,501.52241090580355,502.33083455311134,502.0045501482673,510.5151825561188,511.51906985393725,503.3392685778672,510.5068511662539
1,244,1,1,1.0,1.0,0.4246705275727436,0,2,8,3,1,7,5,nan,nan,nan,nan,nan,nan,nan,nan,nan,nan,nan,nan,0.0,nan,nan,nan,nan,nan,nan,nan,nan,nan,nan,nan,nan,nan,nan,nan,nan,nan,nan,124.46032875101082,511.72366858273745,nan,512.1483391103102,nan,nan,nan,nan
1,245,1,1,1.0,1.0,0.5445073494920507,0,1,3,7,2,8,0,nan,nan,nan,nan,nan,nan,nan,nan,nan,nan,nan,nan,0.0,nan,nan,nan,nan,nan,nan,nan,nan,nan,nan,nan,nan,nan,nan,nan,nan,nan,nan,124.46032875101082,512.7238031484885,nan,513.2683104979806,nan,nan,nan,nan
1,246,1,1,1.0,1.0,0.4883711781585589,0,3,4,5,6,7,8,nan,nan,nan,nan,nan,nan,nan,nan,nan,nan,nan,nan,0.0,nan,nan,nan,nan,nan,nan,nan,nan,nan,nan,nan,nan,nan,nan,nan,nan,nan,nan,124.46032875101082,513.7239214637084,nan,514.212292641867,nan,nan,nan,nan
1,247,1,1,1.0,1.0,0.49623472383245826,1,6,2,7,5,8,0,1.0,1.0,1.0,1.0,1.0,1.0,0.0,1.0,1.0,0.0,1.0,0.0,3.0,1.0,2.0,7.0,6.0,8.0,4.0,3.0,2.0,1.0,6.0,5.0,4.0,3.72313374071382,2.6372801973484457,1.5661291067954153,6.554976967046969,5.3867446426302195,4.667241042130627,124.46032875101082,514.7240423448384,515.5324628561502,515.2202770686708,523.1500998694682,524.1548253524816,516.5576340710977,523.1417758921161
1,248,1,1,1.0,1.0,0.33348509995266795,0,0,7,6,2,1,3,nan,nan,nan,nan,nan,nan,nan,nan,nan,nan,nan,nan,0.0,nan,nan,nan,nan,nan,nan,nan,nan,nan,nan,nan,nan,nan,nan,nan,nan,nan,nan,124.46032875101082,524.3586164014414,nan,524.6921015013941,nan,nan,nan,nan
1,249,0,0,0.0,1.0,0.7413417462958023,0,2,6,7,8,3,5,nan,nan,nan,nan,nan,nan,nan,nan,nan,nan,nan,nan,0.0,nan,nan,nan,nan,nan,nan,nan,nan,nan,nan,nan,nan,nan,nan,nan,nan,nan,nan,124.46032875101082,525.358704781509,nan,526.1000465278048,nan,nan,nan,nan
1,250,1,1,1.0,1.0,0.6611513699172065,0,6,4,1,5,7,8,nan,nan,nan,nan,nan,nan,nan,nan,nan,nan,nan,nan,0.0,nan,nan,nan,nan,nan,nan,nan,nan,nan,nan,nan,nan,nan,nan,nan,nan,nan,nan,124.46032875101082,526.3588584488025,nan,527.0200098187197,nan,nan,nan,nan
1,251,0,0,0.0,1.0,0.7650355886435136,0,4,8,7,3,5,1,nan,nan,nan,nan,nan,nan,nan,nan,nan,nan,nan,nan,0.0,nan,nan,nan,nan,nan,nan,nan,nan,nan,nan,nan,nan,nan,nan,nan,nan,nan,nan,124.46032875101082,527.3589565221919,nan,528.1239921108354,nan,nan,nan,nan
1,252,1,1,1.0,1.0,0.4769453451735899,0,6,0,5,1,4,7,nan,nan,nan,nan,nan,nan,nan,nan,nan,nan,nan,nan,0.0,nan,nan,nan,nan,nan,nan,nan,nan,nan,nan,nan,nan,nan,nan,nan,nan,nan,nan,124.46032875101082,528.3590642887866,nan,528.8360096339602,nan,nan,nan,nan
1,253,1,1,1.0,1.0,0.5647366929333657,0,8,2,4,7,3,1,nan,nan,nan,nan,nan,nan,nan,nan,nan,nan,nan,nan,0.0,nan,nan,nan,nan,nan,nan,nan,nan,nan,nan,nan,nan,nan,nan,nan,nan,nan,nan,124.46032875101082,529.359212254174,nan,529.9239489471074,nan,nan,nan,nan
1,254,1,1,1.0,1.0,0.7246108283288777,0,5,7,3,8,2,4,nan,nan,nan,nan,nan,nan,nan,nan,nan,nan,nan,nan,0.0,nan,nan,nan,nan,nan,nan,nan,nan,nan,nan,nan,nan,nan,nan,nan,nan,nan,nan,124.46032875101082,530.3593319948995,nan,531.0839428232284,nan,nan,nan,nan
1,255,1,1,nan,nan,nan,0,7,5,1,0,3,2,nan,nan,nan,nan,nan,nan,nan,nan,nan,nan,nan,nan,0.0,nan,nan,nan,nan,nan,nan,nan,nan,nan,nan,nan,nan,nan,nan,nan,nan,nan,nan,124.46032875101082,531.3594554419396,nan,nan,nan,nan,nan,nan
1,256,1,1,nan,nan,nan,0,0,2,5,4,1,7,nan,nan,nan,nan,nan,nan,nan,nan,nan,nan,nan,nan,0.0,nan,nan,nan,nan,nan,nan,nan,nan,nan,nan,nan,nan,nan,nan,nan,nan,nan,nan,124.46032875101082,532.3595843057847,nan,nan,nan,nan,nan,nan
1,257,1,1,nan,nan,nan,0,2,1,8,3,6,5,nan,nan,nan,nan,nan,nan,nan,nan,nan,nan,nan,nan,0.0,nan,nan,nan,nan,nan,nan,nan,nan,nan,nan,nan,nan,nan,nan,nan,nan,nan,nan,124.46032875101082,533.359682379174,nan,nan,nan,nan,nan,nan
1,258,1,1,1.0,1.0,0.03606904821936041,0,8,2,3,4,0,1,nan,nan,nan,nan,nan,nan,nan,nan,nan,nan,nan,nan,0.0,nan,nan,nan,nan,nan,nan,nan,nan,nan,nan,nan,nan,nan,nan,nan,nan,nan,nan,124.46032875101082,534.3598314848496,nan,534.3959005330689,nan,nan,nan,nan
1,259,1,1,1.0,1.0,0.6598824032116681,0,1,3,0,7,2,6,nan,nan,nan,nan,nan,nan,nan,nan,nan,nan,nan,nan,0.0,nan,nan,nan,nan,nan,nan,nan,nan,nan,nan,nan,nan,nan,nan,nan,nan,nan,nan,124.46032875101082,535.359958923189,nan,536.0198413264006,nan,nan,nan,nan
1,260,0,0,0.0,1.0,0.6117303734645247,0,6,5,7,0,8,2,nan,nan,nan,nan,nan,nan,nan,nan,nan,nan,nan,nan,0.0,nan,nan,nan,nan,nan,nan,nan,nan,nan,nan,nan,nan,nan,nan,nan,nan,nan,nan,124.46032875101082,536.3600943443598,nan,536.9718247178243,nan,nan,nan,nan
1,261,1,1,1.0,1.0,0.48358069302048534,0,2,1,6,5,3,7,nan,nan,nan,nan,nan,nan,nan,nan,nan,nan,nan,nan,0.0,nan,nan,nan,nan,nan,nan,nan,nan,nan,nan,nan,nan,nan,nan,nan,nan,nan,nan,124.46032875101082,537.3602143701864,nan,537.8437950632069,nan,nan,nan,nan
1,262,1,1,1.0,1.0,0.44345157826319337,0,6,5,3,7,0,4,nan,nan,nan,nan,nan,nan,nan,nan,nan,nan,nan,nan,0.0,nan,nan,nan,nan,nan,nan,nan,nan,nan,nan,nan,nan,nan,nan,nan,nan,nan,nan,124.46032875101082,538.3603244175902,nan,538.8037759958534,nan,nan,nan,nan
1,263,1,1,1.0,1.0,0.6753081470960751,0,5,6,1,4,8,3,nan,nan,nan,nan,nan,nan,nan,nan,nan,nan,nan,nan,0.0,nan,nan,nan,nan,nan,nan,nan,nan,nan,nan,nan,nan,nan,nan,nan,nan,nan,nan,124.46032875101082,539.3604572728509,nan,540.035765419947,nan,nan,nan,nan
1,264,0,0,0.0,1.0,0.49114004021976143,0,8,3,7,5,4,2,nan,nan,nan,nan,nan,nan,nan,nan,nan,nan,nan,nan,0.0,nan,nan,nan,nan,nan,nan,nan,nan,nan,nan,nan,nan,nan,nan,nan,nan,nan,nan,124.46032875101082,540.3606092295377,nan,540.8517492697574,nan,nan,nan,nan
1,265,1,1,1.0,1.0,0.4670065783429891,0,6,5,3,2,8,1,nan,nan,nan,nan,nan,nan,nan,nan,nan,nan,nan,nan,0.0,nan,nan,nan,nan,nan,nan,nan,nan,nan,nan,nan,nan,nan,nan,nan,nan,nan,nan,124.46032875101082,541.3607090134174,nan,541.8277155917604,nan,nan,nan,nan
1,266,1,1,1.0,1.0,0.5468850586330518,0,0,6,5,8,3,2,nan,nan,nan,nan,nan,nan,nan,nan,nan,nan,nan,nan,0.0,nan,nan,nan,nan,nan,nan,nan,nan,nan,nan,nan,nan,nan,nan,nan,nan,nan,nan,124.46032875101082,542.3608330306597,nan,542.9077180892928,nan,nan,nan,nan
1,267,0,0,0.0,1.0,0.5227173850871623,0,3,5,4,2,7,1,nan,nan,nan,nan,nan,nan,nan,nan,nan,nan,nan,nan,0.0,nan,nan,nan,nan,nan,nan,nan,nan,nan,nan,nan,nan,nan,nan,nan,nan,nan,nan,124.46032875101082,543.360968166613,nan,543.8836855517002,nan,nan,nan,nan
1,268,1,1,1.0,1.0,0.4185617540497333,0,0,4,1,3,8,7,nan,nan,nan,nan,nan,nan,nan,nan,nan,nan,nan,nan,0.0,nan,nan,nan,nan,nan,nan,nan,nan,nan,nan,nan,nan,nan,nan,nan,nan,nan,nan,124.46032875101082,544.361112710787,nan,544.7796744648367,nan,nan,nan,nan
1,269,1,1,1.0,1.0,0.49041389813646674,0,6,7,4,1,3,8,nan,nan,nan,nan,nan,nan,nan,nan,nan,nan,nan,nan,0.0,nan,nan,nan,nan,nan,nan,nan,nan,nan,nan,nan,nan,nan,nan,nan,nan,nan,nan,124.46032875101082,545.3612330217147,nan,545.8516469198512,nan,nan,nan,nan
1,270,1,1,1.0,1.0,0.4582714909920469,0,7,5,2,6,4,1,nan,nan,nan,nan,nan,nan,nan,nan,nan,nan,nan,nan,0.0,nan,nan,nan,nan,nan,nan,nan,nan,nan,nan,nan,nan,nan,nan,nan,nan,nan,nan,124.46032875101082,546.3613587495638,nan,546.8196302405559,nan,nan,nan,nan
1,271,1,1,1.0,1.0,0.6661214662017301,0,2,4,5,3,8,6,nan,nan,nan,nan,nan,nan,nan,nan,nan,nan,nan,nan,0.0,nan,nan,nan,nan,nan,nan,nan,nan,nan,nan,nan,nan,nan,nan,nan,nan,nan,nan,124.46032875101082,547.3614867581055,nan,548.0276082243072,nan,nan,nan,nan
1,272,1,1,1.0,1.0,0.5300081708701327,0,3,1,0,4,6,7,nan,nan,nan,nan,nan,nan,nan,nan,nan,nan,nan,nan,0.0,nan,nan,nan,nan,nan,nan,nan,nan,nan,nan,nan,nan,nan,nan,nan,nan,nan,nan,124.46032875101082,548.3615836910903,nan,548.8915918619605,nan,nan,nan,nan
1,273,1,1,1.0,1.0,0.441873851348646,0,7,0,1,8,4,6,nan,nan,nan,nan,nan,nan,nan,nan,nan,nan,nan,nan,0.0,nan,nan,nan,nan,nan,nan,nan,nan,nan,nan,nan,nan,nan,nan,nan,nan,nan,nan,124.46032875101082,549.3617071381304,nan,549.8035809894791,nan,nan,nan,nan
1,274,1,1,1.0,1.0,0.4336932778824121,0,1,7,0,2,6,5,nan,nan,nan,nan,nan,nan,nan,nan,nan,nan,nan,nan,0.0,nan,nan,nan,nan,nan,nan,nan,nan,nan,nan,nan,nan,nan,nan,nan,nan,nan,nan,124.46032875101082,550.3618388528703,nan,550.7955321307527,nan,nan,nan,nan
1,275,1,1,1.0,1.0,0.3696322647156194,0,7,4,1,0,3,2,nan,nan,nan,nan,nan,nan,nan,nan,nan,nan,nan,nan,0.0,nan,nan,nan,nan,nan,nan,nan,nan,nan,nan,nan,nan,nan,nan,nan,nan,nan,nan,124.46032875101082,551.3619705677265,nan,551.7316028324421,nan,nan,nan,nan
1,276,1,1,1.0,1.0,0.43341131682973355,0,2,6,7,3,5,0,nan,nan,nan,nan,nan,nan,nan,nan,nan,nan,nan,nan,0.0,nan,nan,nan,nan,nan,nan,nan,nan,nan,nan,nan,nan,nan,nan,nan,nan,nan,nan,124.46032875101082,552.3620840363437,nan,552.7954953531735,nan,nan,nan,nan
1,277,1,1,1.0,1.0,0.4092650256352499,1,0,7,5,2,8,6,1.0,1.0,1.0,1.0,1.0,1.0,1.0,1.0,1.0,1.0,1.0,0.0,5.0,0.0,7.0,5.0,2.0,8.0,3.0,6.0,2.0,1.0,3.0,4.0,5.0,6.076307355193421,2.6849766420200467,1.8844647218938917,3.628964772913605,4.508493039989844,5.284815619233996,124.46032875101082,553.362208908773,554.1706525129266,553.7714739344083,561.2965097284177,562.2960735299857,555.1790987969143,561.2881780533353
1,278,1,1,1.0,1.0,0.498624691972509,0,1,2,8,4,0,5,nan,nan,nan,nan,nan,nan,nan,nan,nan,nan,nan,nan,0.0,nan,nan,nan,nan,nan,nan,nan,nan,nan,nan,nan,nan,nan,nan,nan,nan,nan,nan,124.46032875101082,562.4966837515822,nan,562.9953084435547,nan,nan,nan,nan
1,279,1,1,1.0,1.0,0.6184318637242541,0,2,5,0,8,3,1,nan,nan,nan,nan,nan,nan,nan,nan,nan,nan,nan,nan,0.0,nan,nan,nan,nan,nan,nan,nan,nan,nan,nan,nan,nan,nan,nan,nan,nan,nan,nan,124.46032875101082,563.4968086241279,nan,564.1152404878521,nan,nan,nan,nan
1,280,1,1,1.0,1.0,0.5543178226798773,1,7,0,1,6,8,2,1.0,1.0,1.0,1.0,1.0,1.0,1.0,1.0,1.0,0.0,0.0,1.0,4.0,7.0,0.0,1.0,3.0,5.0,2.0,3.0,2.0,1.0,6.0,5.0,4.0,4.462246598675847,3.0133605011506006,2.351973641081713,6.917573892860673,6.23829035309609,5.254939448204823,124.46032875101082,564.4969374879729,565.3053748199018,565.0512553106528,573.2730031948304,574.2766396071529,566.3138544602552,573.2646709495457
1,281,1,1,1.0,1.0,0.385538112022914,0,4,3,0,8,1,5,nan,nan,nan,nan,nan,nan,nan,nan,nan,nan,nan,nan,0.0,nan,nan,nan,nan,nan,nan,nan,nan,nan,nan,nan,nan,nan,nan,nan,nan,nan,nan,124.46032875101082,574.4815302753123,nan,574.8670683873352,nan,nan,nan,nan
1,282,0,0,0.0,1.0,0.6413821731694043,0,3,2,5,7,0,4,nan,nan,nan,nan,nan,nan,nan,nan,nan,nan,nan,nan,0.0,nan,nan,nan,nan,nan,nan,nan,nan,nan,nan,nan,nan,nan,nan,nan,nan,nan,nan,124.46032875101082,575.4816420333227,nan,576.1230242064921,nan,nan,nan,nan
1,283,1,1,0.0,0.0,0.6172384476521984,0,2,0,7,3,6,5,nan,nan,nan,nan,nan,nan,nan,nan,nan,nan,nan,nan,0.0,nan,nan,nan,nan,nan,nan,nan,nan,nan,nan,nan,nan,nan,nan,nan,nan,nan,nan,124.46032875101082,576.481766050565,nan,577.0990044982173,nan,nan,nan,nan
1,284,1,1,1.0,1.0,0.6170899121789262,1,0,3,4,8,1,2,1.0,1.0,1.0,1.0,1.0,1.0,0.0,0.0,1.0,0.0,0.0,0.0,1.0,3.0,8.0,4.0,2.0,5.0,0.0,3.0,2.0,1.0,6.0,5.0,4.0,3.052968743722886,1.9716043377993628,1.2284653399838135,6.3558218805119395,5.30836007068865,3.9646533876657486,124.46032875101082,577.4818923485,578.2903644623002,578.0989822606789,585.7079198239371,586.7095950539224,579.3154424505774,585.699594420963
1,285,1,1,1.0,1.0,0.3423701482824981,0,2,7,8,4,6,0,nan,nan,nan,nan,nan,nan,nan,nan,nan,nan,nan,nan,0.0,nan,nan,nan,nan,nan,nan,nan,nan,nan,nan,nan,nan,nan,nan,nan,nan,nan,nan,124.46032875101082,586.916442342801,nan,587.2588124910835,nan,nan,nan,nan
1,286,1,1,1.0,1.0,0.358218691078946,0,3,8,0,7,4,2,nan,nan,nan,nan,nan,nan,nan,nan,nan,nan,nan,nan,0.0,nan,nan,nan,nan,nan,nan,nan,nan,nan,nan,nan,nan,nan,nan,nan,nan,nan,nan,124.46032875101082,587.9165347142844,nan,588.2747534053633,nan,nan,nan,nan
1,287,1,1,1.0,1.0,0.310085192671977,1,6,2,4,8,3,5,1.0,1.0,1.0,1.0,1.0,1.0,0.0,0.0,1.0,0.0,0.0,0.0,1.0,2.0,5.0,4.0,0.0,1.0,8.0,3.0,2.0,1.0,6.0,5.0,4.0,3.440859761321917,2.59290712850634,1.5869340610224754,6.208817024133168,5.4254069331800565,4.305437826318666,124.46032875101082,588.9166801137617,589.7251046163728,589.2267653064337,597.0009730360471,598.0037695526844,590.7502450408647,596.9926367995795
1,288,1,1,1.0,1.0,0.3930723707890138,0,5,4,6,7,8,0,nan,nan,nan,nan,nan,nan,nan,nan,nan,nan,nan,nan,0.0,nan,nan,nan,nan,nan,nan,nan,nan,nan,nan,nan,nan,nan,nan,nan,nan,nan,nan,124.46032875101082,598.2095043930458,nan,598.6025767638348,nan,nan,nan,nan
1,289,1,1,1.0,1.0,0.4489274366060272,0,8,0,2,3,5,1,nan,nan,nan,nan,nan,nan,nan,nan,nan,nan,nan,nan,0.0,nan,nan,nan,nan,nan,nan,nan,nan,nan,nan,nan,nan,nan,nan,nan,nan,nan,nan,124.46032875101082,599.2096073130378,nan,599.6585347496439,nan,nan,nan,nan
1,290,1,1,1.0,1.0,0.38478060928173363,0,4,8,1,0,6,5,nan,nan,nan,nan,nan,nan,nan,nan,nan,nan,nan,nan,0.0,nan,nan,nan,nan,nan,nan,nan,nan,nan,nan,nan,nan,nan,nan,nan,nan,nan,nan,124.46032875101082,600.2097324706847,nan,600.5945130799664,nan,nan,nan,nan
1,291,1,1,1.0,1.0,0.40066507435403764,0,8,3,4,1,5,2,nan,nan,nan,nan,nan,nan,nan,nan,nan,nan,nan,nan,0.0,nan,nan,nan,nan,nan,nan,nan,nan,nan,nan,nan,nan,nan,nan,nan,nan,nan,nan,124.46032875101082,601.2098687470425,nan,601.6105338213965,nan,nan,nan,nan
1,292,1,1,1.0,1.0,0.49651554436422884,0,0,7,6,4,2,3,nan,nan,nan,nan,nan,nan,nan,nan,nan,nan,nan,nan,0.0,nan,nan,nan,nan,nan,nan,nan,nan,nan,nan,nan,nan,nan,nan,nan,nan,nan,nan,124.46032875101082,602.2099830709631,nan,602.7064986153273,nan,nan,nan,nan
1,293,1,1,1.0,1.0,0.43235731322783977,0,4,3,5,7,6,8,nan,nan,nan,nan,nan,nan,nan,nan,nan,nan,nan,nan,0.0,nan,nan,nan,nan,nan,nan,nan,nan,nan,nan,nan,nan,nan,nan,nan,nan,nan,nan,124.46032875101082,603.210117351613,nan,603.6424746648408,nan,nan,nan,nan
1,294,1,1,1.0,1.0,0.43216544296592474,0,6,4,1,8,2,5,nan,nan,nan,nan,nan,nan,nan,nan,nan,nan,nan,nan,0.0,nan,nan,nan,nan,nan,nan,nan,nan,nan,nan,nan,nan,nan,nan,nan,nan,nan,nan,124.46032875101082,604.2102613255847,nan,604.6424267685506,nan,nan,nan,nan
1,295,1,1,1.0,1.0,0.48806669446639717,0,1,5,6,7,8,0,nan,nan,nan,nan,nan,nan,nan,nan,nan,nan,nan,nan,0.0,nan,nan,nan,nan,nan,nan,nan,nan,nan,nan,nan,nan,nan,nan,nan,nan,nan,nan,124.46032875101082,605.2103588287719,nan,605.6984255232383,nan,nan,nan,nan
1,296,1,1,1.0,1.0,0.35156623739749193,0,8,3,0,4,1,2,nan,nan,nan,nan,nan,nan,nan,nan,nan,nan,nan,nan,0.0,nan,nan,nan,nan,nan,nan,nan,nan,nan,nan,nan,nan,nan,nan,nan,nan,nan,nan,124.46032875101082,606.218813095591,nan,606.5703793329885,nan,nan,nan,nan
1,297,1,1,1.0,1.0,0.35941524314694107,0,4,5,8,7,6,0,nan,nan,nan,nan,nan,nan,nan,nan,nan,nan,nan,nan,0.0,nan,nan,nan,nan,nan,nan,nan,nan,nan,nan,nan,nan,nan,nan,nan,nan,nan,nan,124.46032875101082,607.2189493719488,nan,607.5783646150958,nan,nan,nan,nan
1,298,1,1,1.0,1.0,0.33526096923742443,0,3,2,0,6,7,4,nan,nan,nan,nan,nan,nan,nan,nan,nan,nan,nan,nan,0.0,nan,nan,nan,nan,nan,nan,nan,nan,nan,nan,nan,nan,nan,nan,nan,nan,nan,nan,124.46032875101082,608.2190731039736,nan,608.5543340732111,nan,nan,nan,nan
1,299,1,1,1.0,1.0,0.4071279384661466,0,8,6,1,4,2,7,nan,nan,nan,nan,nan,nan,nan,nan,nan,nan,nan,nan,0.0,nan,nan,nan,nan,nan,nan,nan,nan,nan,nan,nan,nan,nan,nan,nan,nan,nan,nan,124.46032875101082,609.2192196438555,nan,609.6263475823216,nan,nan,nan,nan
1,300,1,1,1.0,1.0,0.3589764789212495,0,5,8,6,1,3,4,nan,nan,nan,nan,nan,nan,nan,nan,nan,nan,nan,nan,0.0,nan,nan,nan,nan,nan,nan,nan,nan,nan,nan,nan,nan,nan,nan,nan,nan,nan,nan,124.46032875101082,610.2193445164012,nan,610.5783209953224,nan,nan,nan,nan
1,301,1,1,1.0,1.0,0.32682437857147306,0,6,4,8,5,1,3,nan,nan,nan,nan,nan,nan,nan,nan,nan,nan,nan,nan,0.0,nan,nan,nan,nan,nan,nan,nan,nan,nan,nan,nan,nan,nan,nan,nan,nan,nan,nan,124.46032875101082,611.2194867797662,nan,611.5463111583376,nan,nan,nan,nan
1,302,1,1,1.0,1.0,0.5106771681457758,0,1,7,3,4,6,0,nan,nan,nan,nan,nan,nan,nan,nan,nan,nan,nan,nan,0.0,nan,nan,nan,nan,nan,nan,nan,nan,nan,nan,nan,nan,nan,nan,nan,nan,nan,nan,124.46032875101082,612.2195686026243,nan,612.7302457707701,nan,nan,nan,nan
1,303,1,1,1.0,1.0,0.5505211858544499,0,0,2,6,8,1,5,nan,nan,nan,nan,nan,nan,nan,nan,nan,nan,nan,nan,0.0,nan,nan,nan,nan,nan,nan,nan,nan,nan,nan,nan,nan,nan,nan,nan,nan,nan,nan,124.46032875101082,613.2197556262836,nan,613.770276812138,nan,nan,nan,nan
1,304,1,1,1.0,1.0,0.5900858085369691,0,3,4,8,7,0,2,nan,nan,nan,nan,nan,nan,nan,nan,nan,nan,nan,nan,0.0,nan,nan,nan,nan,nan,nan,nan,nan,nan,nan,nan,nan,nan,nan,nan,nan,nan,nan,124.46032875101082,614.2281371932477,nan,614.8182230017846,nan,nan,nan,nan
1,305,1,1,1.0,1.0,0.5819428677204996,0,5,0,2,4,8,6,nan,nan,nan,nan,nan,nan,nan,nan,nan,nan,nan,nan,0.0,nan,nan,nan,nan,nan,nan,nan,nan,nan,nan,nan,nan,nan,nan,nan,nan,nan,nan,124.46032875101082,615.2282763206167,nan,615.8102191883372,nan,nan,nan,nan
1,306,1,1,1.0,1.0,0.49376236251555383,0,6,2,5,7,4,1,nan,nan,nan,nan,nan,nan,nan,nan,nan,nan,nan,nan,0.0,nan,nan,nan,nan,nan,nan,nan,nan,nan,nan,nan,nan,nan,nan,nan,nan,nan,nan,124.46032875101082,616.2284128820756,nan,616.7221752445912,nan,nan,nan,nan
1,307,1,1,1.0,1.0,0.48563595733139664,0,0,1,8,3,2,5,nan,nan,nan,nan,nan,nan,nan,nan,nan,nan,nan,nan,0.0,nan,nan,nan,nan,nan,nan,nan,nan,nan,nan,nan,nan,nan,nan,nan,nan,nan,nan,124.46032875101082,617.2285314823966,nan,617.714167439728,nan,nan,nan,nan
1,308,0,0,0.0,1.0,0.5651506538270041,0,5,8,2,0,1,3,nan,nan,nan,nan,nan,nan,nan,nan,nan,nan,nan,nan,0.0,nan,nan,nan,nan,nan,nan,nan,nan,nan,nan,nan,nan,nan,nan,nan,nan,nan,nan,124.46032875101082,618.2369883150095,nan,618.8021389688365,nan,nan,nan,nan
1,309,1,1,1.0,1.0,0.49302652722690254,0,4,7,8,6,3,2,nan,nan,nan,nan,nan,nan,nan,nan,nan,nan,nan,nan,0.0,nan,nan,nan,nan,nan,nan,nan,nan,nan,nan,nan,nan,nan,nan,nan,nan,nan,nan,124.46032875101082,619.2371140427422,nan,619.7301405699691,nan,nan,nan,nan
1,310,1,1,1.0,1.0,0.6208320956211537,0,2,4,0,1,5,8,nan,nan,nan,nan,nan,nan,nan,nan,nan,nan,nan,nan,0.0,nan,nan,nan,nan,nan,nan,nan,nan,nan,nan,nan,nan,nan,nan,nan,nan,nan,nan,124.46032875101082,620.2372677100357,nan,620.8580998056568,nan,nan,nan,nan
1,311,1,1,1.0,1.0,0.6603935821913183,0,1,2,7,6,4,0,nan,nan,nan,nan,nan,nan,nan,nan,nan,nan,nan,nan,0.0,nan,nan,nan,nan,nan,nan,nan,nan,nan,nan,nan,nan,nan,nan,nan,nan,nan,nan,124.46032875101082,621.245709717623,nan,621.9061032998143,nan,nan,nan,nan
1,312,1,1,1.0,1.0,0.5321982861496508,0,2,0,3,8,6,1,nan,nan,nan,nan,nan,nan,nan,nan,nan,nan,nan,nan,0.0,nan,nan,nan,nan,nan,nan,nan,nan,nan,nan,nan,nan,nan,nan,nan,nan,nan,nan,124.46032875101082,622.2458559724037,nan,622.7780542585533,nan,nan,nan,nan
1,313,1,1,1.0,1.0,0.44408534897956997,0,3,1,4,5,7,0,nan,nan,nan,nan,nan,nan,nan,nan,nan,nan,nan,nan,0.0,nan,nan,nan,nan,nan,nan,nan,nan,nan,nan,nan,nan,nan,nan,nan,nan,nan,nan,124.46032875101082,623.2459771386348,nan,623.6900624876143,nan,nan,nan,nan
1,314,1,1,1.0,1.0,0.40392088214866817,0,5,0,2,6,8,1,nan,nan,nan,nan,nan,nan,nan,nan,nan,nan,nan,nan,0.0,nan,nan,nan,nan,nan,nan,nan,nan,nan,nan,nan,nan,nan,nan,nan,nan,nan,nan,124.46032875101082,624.2461022962816,nan,624.6500231784303,nan,nan,nan,nan
1,315,1,1,1.0,1.0,0.3478032420389354,0,4,1,8,3,7,6,nan,nan,nan,nan,nan,nan,nan,nan,nan,nan,nan,nan,0.0,nan,nan,nan,nan,nan,nan,nan,nan,nan,nan,nan,nan,nan,nan,nan,nan,nan,nan,124.46032875101082,625.2461963782553,nan,625.5939996202942,nan,nan,nan,nan
1,316,0,0,0.0,1.0,0.7236189758405089,0,1,4,2,7,0,8,nan,nan,nan,nan,nan,nan,nan,nan,nan,nan,nan,nan,0.0,nan,nan,nan,nan,nan,nan,nan,nan,nan,nan,nan,nan,nan,nan,nan,nan,nan,nan,124.46032875101082,626.2463429181371,nan,626.9699618939776,nan,nan,nan,nan
1,317,1,1,1.0,1.0,0.5791480616899207,0,5,3,0,8,2,4,nan,nan,nan,nan,nan,nan,nan,nan,nan,nan,nan,nan,0.0,nan,nan,nan,nan,nan,nan,nan,nan,nan,nan,nan,nan,nan,nan,nan,nan,nan,nan,124.46032875101082,627.2548191372771,nan,627.833967198967,nan,nan,nan,nan
1,318,1,1,1.0,1.0,0.5789872669847682,0,3,8,6,0,1,7,nan,nan,nan,nan,nan,nan,nan,nan,nan,nan,nan,nan,0.0,nan,nan,nan,nan,nan,nan,nan,nan,nan,nan,nan,nan,nan,nan,nan,nan,nan,nan,124.46032875101082,628.2549414439127,nan,628.8339287108975,nan,nan,nan,nan
1,319,1,1,1.0,1.0,0.5385605109622702,1,1,5,4,8,3,0,1.0,1.0,1.0,1.0,1.0,1.0,0.0,0.0,1.0,0.0,0.0,0.0,1.0,3.0,2.0,4.0,1.0,0.0,8.0,4.0,2.0,1.0,6.0,5.0,3.0,4.846595285926014,2.350236830068752,1.1674879360944033,6.749262026394717,5.565844009746797,3.478478596895002,124.46032875101082,629.2633729028748,630.071786286775,629.8019334138371,637.881109700189,638.8905729252147,631.0885938958963,637.8727563577704
1,320,1,1,1.0,1.0,0.32777375157456845,0,5,7,8,2,0,1,nan,nan,nan,nan,nan,nan,nan,nan,nan,nan,nan,nan,0.0,nan,nan,nan,nan,nan,nan,nan,nan,nan,nan,nan,nan,nan,nan,nan,nan,nan,nan,124.46032875101082,639.0979750129627,nan,639.4257487645373,nan,nan,nan,nan
1,321,1,1,1.0,1.0,0.3596495930105448,0,2,8,4,5,1,7,nan,nan,nan,nan,nan,nan,nan,nan,nan,nan,nan,nan,0.0,nan,nan,nan,nan,nan,nan,nan,nan,nan,nan,nan,nan,nan,nan,nan,nan,nan,nan,124.46032875101082,640.0980554103153,nan,640.4577050033258,nan,nan,nan,nan
1,322,1,1,1.0,1.0,0.4555071904323995,0,1,2,3,0,6,8,nan,nan,nan,nan,nan,nan,nan,nan,nan,nan,nan,nan,0.0,nan,nan,nan,nan,nan,nan,nan,nan,nan,nan,nan,nan,nan,nan,nan,nan,nan,nan,124.46032875101082,641.0981777169509,nan,641.5536849073833,nan,nan,nan,nan
1,323,1,1,1.0,1.0,0.45532957499381155,0,4,5,1,7,3,6,nan,nan,nan,nan,nan,nan,nan,nan,nan,nan,nan,nan,0.0,nan,nan,nan,nan,nan,nan,nan,nan,nan,nan,nan,nan,nan,nan,nan,nan,nan,nan,124.46032875101082,642.0983330948511,nan,642.5536626698449,nan,nan,nan,nan
1,324,1,1,1.0,1.0,0.4071878087706864,0,5,0,2,3,8,4,nan,nan,nan,nan,nan,nan,nan,nan,nan,nan,nan,nan,0.0,nan,nan,nan,nan,nan,nan,nan,nan,nan,nan,nan,nan,nan,nan,nan,nan,nan,nan,124.46032875101082,643.0984613884939,nan,643.5056491972646,nan,nan,nan,nan
1,325,1,1,1.0,1.0,0.25503780669532716,0,4,6,5,1,0,7,nan,nan,nan,nan,nan,nan,nan,nan,nan,nan,nan,nan,0.0,nan,nan,nan,nan,nan,nan,nan,nan,nan,nan,nan,nan,nan,nan,nan,nan,nan,nan,124.46032875101082,644.0985839802306,nan,644.3536217869259,nan,nan,nan,nan
1,326,1,1,1.0,1.0,0.31886304449290037,0,6,8,1,7,4,5,nan,nan,nan,nan,nan,nan,nan,nan,nan,nan,nan,nan,0.0,nan,nan,nan,nan,nan,nan,nan,nan,nan,nan,nan,nan,nan,nan,nan,nan,nan,nan,124.46032875101082,645.0987111334689,nan,645.4175741779618,nan,nan,nan,nan
1,327,1,1,1.0,1.0,0.25478036410640925,0,3,5,8,0,1,4,nan,nan,nan,nan,nan,nan,nan,nan,nan,nan,nan,nan,0.0,nan,nan,nan,nan,nan,nan,nan,nan,nan,nan,nan,nan,nan,nan,nan,nan,nan,nan,124.46032875101082,646.098790390417,nan,646.3535707545234,nan,nan,nan,nan
1,328,0,0,1.0,0.0,0.31058582302648574,0,8,6,4,2,3,5,nan,nan,nan,nan,nan,nan,nan,nan,nan,nan,nan,nan,0.0,nan,nan,nan,nan,nan,nan,nan,nan,nan,nan,nan,nan,nan,nan,nan,nan,nan,nan,124.46032875101082,647.0989583125338,nan,647.4095441355603,nan,nan,nan,nan
1,329,1,1,1.0,1.0,0.23047014197800308,1,1,4,3,6,2,8,1.0,1.0,1.0,1.0,1.0,1.0,0.0,0.0,0.0,0.0,0.0,1.0,1.0,5.0,2.0,1.0,3.0,0.0,8.0,3.0,2.0,1.0,6.0,5.0,4.0,3.4817897136090323,2.8751850991975516,1.6432324526831508,6.673904899624176,5.866426634020172,4.427020582254045,124.46032875101082,648.0990592369344,648.907480033231,648.3295293789124,656.6251236607786,657.6258224336198,649.9159534014761,656.6167817222886
1,330,1,1,1.0,1.0,0.7437271530507132,0,5,2,8,4,0,1,nan,nan,nan,nan,nan,nan,nan,nan,nan,nan,nan,nan,0.0,nan,nan,nan,nan,nan,nan,nan,nan,nan,nan,nan,nan,nan,nan,nan,nan,nan,nan,124.46032875101082,657.8336156744044,nan,658.5773428274551,nan,nan,nan,nan
1,331,0,0,nan,nan,nan,0,6,7,4,3,2,8,nan,nan,nan,nan,nan,nan,nan,nan,nan,nan,nan,nan,0.0,nan,nan,nan,nan,nan,nan,nan,nan,nan,nan,nan,nan,nan,nan,nan,nan,nan,nan,124.46032875101082,658.8337337045232,nan,nan,nan,nan,nan,nan
1,332,1,1,1.0,1.0,0.6234418735839427,0,3,0,8,6,7,5,nan,nan,nan,nan,nan,nan,nan,nan,nan,nan,nan,nan,0.0,nan,nan,nan,nan,nan,nan,nan,nan,nan,nan,nan,nan,nan,nan,nan,nan,nan,nan,124.46032875101082,659.8338386202231,nan,660.457280493807,nan,nan,nan,nan
1,333,1,1,1.0,1.0,0.6152704230044037,0,8,1,6,2,4,7,nan,nan,nan,nan,nan,nan,nan,nan,nan,nan,nan,nan,0.0,nan,nan,nan,nan,nan,nan,nan,nan,nan,nan,nan,nan,nan,nan,nan,nan,nan,nan,124.46032875101082,660.8339823092101,nan,661.4492527322145,nan,nan,nan,nan
1,334,1,1,1.0,1.0,0.7111434157704934,0,0,7,1,8,3,2,nan,nan,nan,nan,nan,nan,nan,nan,nan,nan,nan,nan,0.0,nan,nan,nan,nan,nan,nan,nan,nan,nan,nan,nan,nan,nan,nan,nan,nan,nan,nan,124.46032875101082,661.8341106028529,nan,662.5452540186234,nan,nan,nan,nan
1,335,1,1,1.0,1.0,0.6709550007944927,0,4,3,5,7,6,1,nan,nan,nan,nan,nan,nan,nan,nan,nan,nan,nan,nan,0.0,nan,nan,nan,nan,nan,nan,nan,nan,nan,nan,nan,nan,nan,nan,nan,nan,nan,nan,124.46032875101082,662.8342631297419,nan,663.5052181305364,nan,nan,nan,nan
1,336,1,1,1.0,1.0,0.5108302652370185,0,5,2,7,4,8,3,nan,nan,nan,nan,nan,nan,nan,nan,nan,nan,nan,nan,0.0,nan,nan,nan,nan,nan,nan,nan,nan,nan,nan,nan,nan,nan,nan,nan,nan,nan,nan,124.46032875101082,663.8343825853663,nan,664.3452128506033,nan,nan,nan,nan
1,337,1,1,1.0,1.0,0.5266822292469442,0,3,6,4,5,7,8,nan,nan,nan,nan,nan,nan,nan,nan,nan,nan,nan,nan,0.0,nan,nan,nan,nan,nan,nan,nan,nan,nan,nan,nan,nan,nan,nan,nan,nan,nan,nan,124.46032875101082,664.8345085982,nan,665.361190827447,nan,nan,nan,nan
1,338,1,1,1.0,1.0,0.47052096924744546,0,6,0,2,7,3,5,nan,nan,nan,nan,nan,nan,nan,nan,nan,nan,nan,nan,0.0,nan,nan,nan,nan,nan,nan,nan,nan,nan,nan,nan,nan,nan,nan,nan,nan,nan,nan,124.46032875101082,665.8346380322473,nan,666.3051590014948,nan,nan,nan,nan
1,339,0,0,0.0,1.0,0.5743866565171629,0,3,7,1,2,6,4,nan,nan,nan,nan,nan,nan,nan,nan,nan,nan,nan,nan,0.0,nan,nan,nan,nan,nan,nan,nan,nan,nan,nan,nan,nan,nan,nan,nan,nan,nan,nan,124.46032875101082,666.8347620494897,nan,667.4091487060068,nan,nan,nan,nan
1,340,1,1,1.0,1.0,0.5342358744237572,0,0,1,4,7,2,8,nan,nan,nan,nan,nan,nan,nan,nan,nan,nan,nan,nan,0.0,nan,nan,nan,nan,nan,nan,nan,nan,nan,nan,nan,nan,nan,nan,nan,nan,nan,nan,124.46032875101082,667.8348946196493,nan,668.369130494073,nan,nan,nan,nan
1,341,1,1,1.0,1.0,0.606098567135632,0,7,8,6,2,3,5,nan,nan,nan,nan,nan,nan,nan,nan,nan,nan,nan,nan,0.0,nan,nan,nan,nan,nan,nan,nan,nan,nan,nan,nan,nan,nan,nan,nan,nan,nan,nan,124.46032875101082,668.8349898420274,nan,669.4410884091631,nan,nan,nan,nan
1,342,1,1,1.0,1.0,0.5979368099942803,0,1,5,4,3,0,7,nan,nan,nan,nan,nan,nan,nan,nan,nan,nan,nan,nan,0.0,nan,nan,nan,nan,nan,nan,nan,nan,nan,nan,nan,nan,nan,nan,nan,nan,nan,nan,124.46032875101082,669.8351392328041,nan,670.4330760427983,nan,nan,nan,nan
1,343,1,1,1.0,1.0,0.6697949410881847,0,4,0,8,1,7,2,nan,nan,nan,nan,nan,nan,nan,nan,nan,nan,nan,nan,0.0,nan,nan,nan,nan,nan,nan,nan,nan,nan,nan,nan,nan,nan,nan,nan,nan,nan,nan,124.46032875101082,670.8352475697175,nan,671.5050425108057,nan,nan,nan,nan
1,344,1,1,1.0,1.0,0.6136841432889923,0,0,7,3,5,1,8,nan,nan,nan,nan,nan,nan,nan,nan,nan,nan,nan,nan,0.0,nan,nan,nan,nan,nan,nan,nan,nan,nan,nan,nan,nan,nan,nan,nan,nan,nan,nan,124.46032875101082,671.8353610383347,nan,672.4490451816237,nan,nan,nan,nan
1,345,1,1,1.0,1.0,0.6135338972089812,0,2,1,5,4,6,7,nan,nan,nan,nan,nan,nan,nan,nan,nan,nan,nan,nan,0.0,nan,nan,nan,nan,nan,nan,nan,nan,nan,nan,nan,nan,nan,nan,nan,nan,nan,nan,124.46032875101082,672.8354853405617,nan,673.4490192377707,nan,nan,nan,nan
1,346,1,1,1.0,1.0,0.5014043878763914,0,1,7,6,2,5,4,nan,nan,nan,nan,nan,nan,nan,nan,nan,nan,nan,nan,0.0,nan,nan,nan,nan,nan,nan,nan,nan,nan,nan,nan,nan,nan,nan,nan,nan,nan,nan,124.46032875101082,673.8356042261003,nan,674.3370086139766,nan,nan,nan,nan
1,347,1,1,1.0,1.0,0.6372248884290457,0,7,1,4,5,6,2,nan,nan,nan,nan,nan,nan,nan,nan,nan,nan,nan,nan,0.0,nan,nan,nan,nan,nan,nan,nan,nan,nan,nan,nan,nan,nan,nan,nan,nan,nan,nan,124.46032875101082,674.8357405024581,nan,675.4729653908871,nan,nan,nan,nan
1,348,1,1,1.0,1.0,0.5731034348718822,0,0,2,8,3,7,6,nan,nan,nan,nan,nan,nan,nan,nan,nan,nan,nan,nan,0.0,nan,nan,nan,nan,nan,nan,nan,nan,nan,nan,nan,nan,nan,nan,nan,nan,nan,nan,124.46032875101082,675.8358596729813,nan,676.4089631078532,nan,nan,nan,nan
1,349,1,1,1.0,1.0,0.5649579282617196,0,8,1,0,6,2,7,nan,nan,nan,nan,nan,nan,nan,nan,nan,nan,nan,nan,0.0,nan,nan,nan,nan,nan,nan,nan,nan,nan,nan,nan,nan,nan,nan,nan,nan,nan,nan,124.46032875101082,676.8359811243135,nan,677.4009390525753,nan,nan,nan,nan
1,350,1,1,1.0,1.0,0.5567839118884876,0,4,0,1,3,6,2,nan,nan,nan,nan,nan,nan,nan,nan,nan,nan,nan,nan,0.0,nan,nan,nan,nan,nan,nan,nan,nan,nan,nan,nan,nan,nan,nan,nan,nan,nan,nan,124.46032875101082,677.8361353618093,nan,678.3929192736978,nan,nan,nan,nan
1,351,1,1,1.0,1.0,0.5566330956062302,0,6,7,3,4,8,1,nan,nan,nan,nan,nan,nan,nan,nan,nan,nan,nan,nan,0.0,nan,nan,nan,nan,nan,nan,nan,nan,nan,nan,nan,nan,nan,nan,nan,nan,nan,nan,124.46032875101082,678.8362608044408,nan,679.392893900047,nan,nan,nan,nan
1,352,1,1,1.0,1.0,0.5725155648542568,0,3,8,7,6,2,0,nan,nan,nan,nan,nan,nan,nan,nan,nan,nan,nan,nan,0.0,nan,nan,nan,nan,nan,nan,nan,nan,nan,nan,nan,nan,nan,nan,nan,nan,nan,nan,124.46032875101082,679.836363154347,nan,680.4088787192013,nan,nan,nan,nan
1,353,1,1,1.0,1.0,0.5563699509948492,0,1,7,4,5,8,2,nan,nan,nan,nan,nan,nan,nan,nan,nan,nan,nan,nan,0.0,nan,nan,nan,nan,nan,nan,nan,nan,nan,nan,nan,nan,nan,nan,nan,nan,nan,nan,124.46032875101082,680.8364888820797,nan,681.3928588330746,nan,nan,nan,nan
1,354,1,1,1.0,1.0,0.5401983932824805,0,4,6,7,8,5,1,nan,nan,nan,nan,nan,nan,nan,nan,nan,nan,nan,nan,0.0,nan,nan,nan,nan,nan,nan,nan,nan,nan,nan,nan,nan,nan,nan,nan,nan,nan,nan,124.46032875101082,681.836639698362,nan,682.3768380916445,nan,nan,nan,nan
1,355,1,1,1.0,1.0,0.7000508613418788,1,1,4,3,7,0,5,1.0,1.0,1.0,1.0,1.0,1.0,1.0,0.0,1.0,1.0,1.0,0.0,4.0,1.0,5.0,3.0,7.0,0.0,8.0,5.0,6.0,1.0,2.0,3.0,4.0,6.1036370396614075,6.815631755045615,1.5355957872234285,2.248035539058037,3.519585879519582,4.983764010365121,124.46032875101082,682.8367602943908,683.6451742484933,683.5368111557327,691.504464904312,692.5067063369788,684.6536410594126,691.496128667728
1,356,1,1,1.0,1.0,0.4796087214490399,0,8,5,0,6,1,7,nan,nan,nan,nan,nan,nan,nan,nan,nan,nan,nan,nan,0.0,nan,nan,nan,nan,nan,nan,nan,nan,nan,nan,nan,nan,nan,nan,nan,nan,nan,nan,124.46032875101082,692.7130127968267,nan,693.1926215182757,nan,nan,nan,nan
1,357,1,1,1.0,1.0,0.6074487866135314,0,2,0,7,4,3,6,nan,nan,nan,nan,nan,nan,nan,nan,nan,nan,nan,nan,0.0,nan,nan,nan,nan,nan,nan,nan,nan,nan,nan,nan,nan,nan,nan,nan,nan,nan,nan,124.46032875101082,693.7131148616318,nan,694.3205636482453,nan,nan,nan,nan
1,358,1,1,1.0,1.0,0.727336355834268,0,3,2,6,5,8,4,nan,nan,nan,nan,nan,nan,nan,nan,nan,nan,nan,nan,0.0,nan,nan,nan,nan,nan,nan,nan,nan,nan,nan,nan,nan,nan,nan,nan,nan,nan,nan,124.46032875101082,694.713221487822,nan,695.4405578436563,nan,nan,nan,nan
1,359,1,1,nan,nan,nan,0,0,6,3,4,1,5,nan,nan,nan,nan,nan,nan,nan,nan,nan,nan,nan,nan,0.0,nan,nan,nan,nan,nan,nan,nan,nan,nan,nan,nan,nan,nan,nan,nan,nan,nan,nan,124.46032875101082,695.7133509218693,nan,nan,nan,nan,nan,nan
1,360,1,1,1.0,1.0,0.3910459012258798,0,1,5,6,2,3,4,nan,nan,nan,nan,nan,nan,nan,nan,nan,nan,nan,nan,0.0,nan,nan,nan,nan,nan,nan,nan,nan,nan,nan,nan,nan,nan,nan,nan,nan,nan,nan,124.46032875101082,696.7134669563966,nan,697.1045128576225,nan,nan,nan,nan
1,361,1,1,1.0,1.0,0.2869681016309187,0,2,8,0,7,5,1,nan,nan,nan,nan,nan,nan,nan,nan,nan,nan,nan,nan,0.0,nan,nan,nan,nan,nan,nan,nan,nan,nan,nan,nan,nan,nan,nan,nan,nan,nan,nan,124.46032875101082,697.7135929692304,nan,698.0005610708613,nan,nan,nan,nan
1,362,1,1,1.0,1.0,0.41474316467065364,0,0,4,5,2,3,7,nan,nan,nan,nan,nan,nan,nan,nan,nan,nan,nan,nan,0.0,nan,nan,nan,nan,nan,nan,nan,nan,nan,nan,nan,nan,nan,nan,nan,nan,nan,nan,124.46032875101082,698.7137483471306,nan,699.1284915118013,nan,nan,nan,nan
1,363,0,0,0.0,1.0,0.5825823402265087,0,6,8,0,3,5,4,nan,nan,nan,nan,nan,nan,nan,nan,nan,nan,nan,nan,0.0,nan,nan,nan,nan,nan,nan,nan,nan,nan,nan,nan,nan,nan,nan,nan,nan,nan,nan,124.46032875101082,699.7138735047774,nan,700.296455845004,nan,nan,nan,nan
1,364,1,1,1.0,1.0,0.46245158347301185,0,7,6,3,8,4,5,nan,nan,nan,nan,nan,nan,nan,nan,nan,nan,nan,nan,0.0,nan,nan,nan,nan,nan,nan,nan,nan,nan,nan,nan,nan,nan,nan,nan,nan,nan,nan,124.46032875101082,700.7140057897195,nan,701.1764573731925,nan,nan,nan,nan
1,365,1,1,1.0,1.0,0.646305798436515,0,3,4,0,6,2,7,nan,nan,nan,nan,nan,nan,nan,nan,nan,nan,nan,nan,0.0,nan,nan,nan,nan,nan,nan,nan,nan,nan,nan,nan,nan,nan,nan,nan,nan,nan,nan,124.46032875101082,701.7141223944491,nan,702.3604281928856,nan,nan,nan,nan
1,366,1,1,1.0,1.0,0.4542011610465124,0,4,0,8,1,3,2,nan,nan,nan,nan,nan,nan,nan,nan,nan,nan,nan,nan,0.0,nan,nan,nan,nan,nan,nan,nan,nan,nan,nan,nan,nan,nan,nan,nan,nan,nan,nan,124.46032875101082,702.714219327434,nan,703.1684204884805,nan,nan,nan,nan
1,367,1,1,1.0,1.0,0.43002949620131403,0,2,7,1,0,6,5,nan,nan,nan,nan,nan,nan,nan,nan,nan,nan,nan,nan,0.0,nan,nan,nan,nan,nan,nan,nan,nan,nan,nan,nan,nan,nan,nan,nan,nan,nan,nan,124.46032875101082,703.7143461955711,nan,704.1443756917724,nan,nan,nan,nan
1,368,1,1,1.0,1.0,0.4458643542602658,0,6,4,3,7,2,8,nan,nan,nan,nan,nan,nan,nan,nan,nan,nan,nan,nan,0.0,nan,nan,nan,nan,nan,nan,nan,nan,nan,nan,nan,nan,nan,nan,nan,nan,nan,nan,124.46032875101082,704.7144972969545,nan,705.1603616512148,nan,nan,nan,nan
1,369,1,1,1.0,1.0,0.42971246829256415,1,5,3,8,2,0,4,1.0,1.0,1.0,1.0,1.0,1.0,0.0,1.0,1.0,1.0,1.0,0.0,4.0,4.0,3.0,8.0,2.0,0.0,1.0,3.0,2.0,1.0,6.0,5.0,4.0,4.146499379305169,3.2326673846691847,1.4661843585781753,7.056444076239131,6.105212200549431,5.20161034190096,124.46032875101082,705.7146287267096,706.523043535999,706.1443411950022,714.6323331940221,715.6410551668378,707.5398388860049,714.6240072209621
1,370,0,0,1.0,0.0,0.5991969387978315,0,0,5,2,1,4,6,nan,nan,nan,nan,nan,nan,nan,nan,nan,nan,nan,nan,0.0,nan,nan,nan,nan,nan,nan,nan,nan,nan,nan,nan,nan,nan,nan,nan,nan,nan,nan,124.46032875101082,715.8409557819832,nan,716.440152720781,nan,nan,nan,nan
1,371,1,1,1.0,1.0,0.37512123747728765,0,1,2,0,7,8,5,nan,nan,nan,nan,nan,nan,nan,nan,nan,nan,nan,nan,0.0,nan,nan,nan,nan,nan,nan,nan,nan,nan,nan,nan,nan,nan,nan,nan,nan,nan,nan,124.46032875101082,716.8409737431211,nan,717.2160949805984,nan,nan,nan,nan
1,372,1,1,1.0,1.0,0.4629827191820368,0,2,4,7,8,6,1,nan,nan,nan,nan,nan,nan,nan,nan,nan,nan,nan,nan,0.0,nan,nan,nan,nan,nan,nan,nan,nan,nan,nan,nan,nan,nan,nan,nan,nan,nan,nan,124.46032875101082,717.8411177170929,nan,718.3041004362749,nan,nan,nan,nan
1,373,1,1,1.0,1.0,0.40683885000180453,0,5,3,2,4,7,8,nan,nan,nan,nan,nan,nan,nan,nan,nan,nan,nan,nan,0.0,nan,nan,nan,nan,nan,nan,nan,nan,nan,nan,nan,nan,nan,nan,nan,nan,nan,nan,124.46032875101082,718.8412371728336,nan,719.2480760228354,nan,nan,nan,nan
1,374,1,1,1.0,1.0,0.4066441288450733,0,6,8,7,0,2,1,nan,nan,nan,nan,nan,nan,nan,nan,nan,nan,nan,nan,0.0,nan,nan,nan,nan,nan,nan,nan,nan,nan,nan,nan,nan,nan,nan,nan,nan,nan,nan,124.46032875101082,719.8413868487114,nan,720.2480309775565,nan,nan,nan,nan
1,375,1,1,1.0,1.0,0.6305142750497907,0,8,3,0,4,1,5,nan,nan,nan,nan,nan,nan,nan,nan,nan,nan,nan,nan,0.0,nan,nan,nan,nan,nan,nan,nan,nan,nan,nan,nan,nan,nan,nan,nan,nan,nan,nan,124.46032875101082,720.8415182784665,nan,721.4720325535163,nan,nan,nan,nan
1,376,0,0,0.0,1.0,0.5983664512168616,0,0,5,7,8,2,3,nan,nan,nan,nan,nan,nan,nan,nan,nan,nan,nan,nan,0.0,nan,nan,nan,nan,nan,nan,nan,nan,nan,nan,nan,nan,nan,nan,nan,nan,nan,nan,124.46032875101082,721.8416172070429,nan,722.4399836582597,nan,nan,nan,nan
1,377,1,1,1.0,1.0,0.4622505900915712,0,3,8,2,5,6,1,nan,nan,nan,nan,nan,nan,nan,nan,nan,nan,nan,nan,0.0,nan,nan,nan,nan,nan,nan,nan,nan,nan,nan,nan,nan,nan,nan,nan,nan,nan,nan,124.46032875101082,722.8417457857868,nan,723.3039963758783,nan,nan,nan,nan
1,378,1,1,1.0,1.0,0.3820485246833414,0,1,7,3,6,8,2,nan,nan,nan,nan,nan,nan,nan,nan,nan,nan,nan,nan,0.0,nan,nan,nan,nan,nan,nan,nan,nan,nan,nan,nan,nan,nan,nan,nan,nan,nan,nan,124.46032875101082,723.8419045849005,nan,724.2239531095838,nan,nan,nan,nan
1,379,1,1,1.0,1.0,0.3579179138178006,0,2,8,7,0,5,3,nan,nan,nan,nan,nan,nan,nan,nan,nan,nan,nan,nan,0.0,nan,nan,nan,nan,nan,nan,nan,nan,nan,nan,nan,nan,nan,nan,nan,nan,nan,nan,124.46032875101082,724.8420297424309,nan,725.1999476562487,nan,nan,nan,nan
1,380,0,0,0.0,1.0,0.49379144236445427,0,8,5,0,3,2,7,nan,nan,nan,nan,nan,nan,nan,nan,nan,nan,nan,nan,0.0,nan,nan,nan,nan,nan,nan,nan,nan,nan,nan,nan,nan,nan,nan,nan,nan,nan,nan,124.46032875101082,725.8421369389398,nan,726.3359283813043,nan,nan,nan,nan
