block,trial,freq_trials,correct_response,actual_response,acc,rts,probe_trials,trials_colorind0,trials_colorind1,trials_colorind2,trials_colorind3,trials_colorind4,trials_colorind5,wholereport_resp0,wholereport_resp1,wholereport_resp2,wholereport_resp3,wholereport_resp4,wholereport_resp5,wholereport_respacc0,wholereport_respacc1,wholereport_respacc2,wholereport_respacc3,wholereport_respacc4,wholereport_respacc5,wholereport_respacc_total,wholereport_respcolorind0,wholereport_respcolorind1,wholereport_respcolorind2,wholereport_respcolorind3,wholereport_respcolorind4,wholereport_respcolorind5,wholereport_resporder0,wholereport_resporder1,wholereport_resporder2,wholereport_resporder3,wholereport_resporder4,wholereport_resporder5,wholereport_rts0,wholereport_rts1,wholereport_rts2,wholereport_rts3,wholereport_rts4,wholereport_rts5,time_blockstart,time_encarray_offset,time_encarray_onset,time_response,time_iti_offset,time_iti_onset,time_memprobe_offset,time_memprobe_onset
1,1,1,1,1.0,1.0,0.5545975053682923,0.0,2,1,5,7,6,3,nan,nan,nan,nan,nan,nan,nan,nan,nan,nan,nan,nan,0.0,nan,nan,nan,nan,nan,nan,nan,nan,nan,nan,nan,nan,nan,nan,nan,nan,nan,nan,248.18925318168476,249.2026190655306,nan,249.7572165708989,nan,nan,nan,nan
1,2,0,0,0.0,1.0,0.45809184527024627,1.0,2,5,8,1,4,3,1.0,1.0,1.0,1.0,1.0,1.0,0.0,1.0,1.0,1.0,0.0,1.0,4.0,0.0,5.0,8.0,1.0,7.0,3.0,6.0,1.0,2.0,3.0,4.0,5.0,6.700664302799851,1.3586086388677359,2.4137850324623287,3.094771704636514,5.037673192564398,5.821275708731264,248.18925318168476,250.21114429924637,251.01951341470703,250.66923614451662,258.78712060442194,259.7983571039513,252.0446463623084,258.7787909465842
1,3,1,1,1.0,1.0,0.4170319936238229,0.0,1,3,7,5,8,2,nan,nan,nan,nan,nan,nan,nan,nan,nan,nan,nan,nan,0.0,nan,nan,nan,nan,nan,nan,nan,nan,nan,nan,nan,nan,nan,nan,nan,nan,nan,nan,248.18925318168476,260.003965689335,nan,260.42099768295884,nan,nan,nan,nan
1,4,1,1,1.0,1.0,0.44851831207051873,0.0,8,2,1,6,4,5,nan,nan,nan,nan,nan,nan,nan,nan,nan,nan,nan,nan,0.0,nan,nan,nan,nan,nan,nan,nan,nan,nan,nan,nan,nan,nan,nan,nan,nan,nan,nan,248.18925318168476,261.0124262063764,nan,261.4609445184469,nan,nan,nan,nan
1,5,0,0,0.0,1.0,0.6320575941354036,0.0,0,7,2,3,1,6,nan,nan,nan,nan,nan,nan,nan,nan,nan,nan,nan,nan,0.0,nan,nan,nan,nan,nan,nan,nan,nan,nan,nan,nan,nan,nan,nan,nan,nan,nan,nan,248.18925318168476,262.0209021186456,nan,262.652959712781,nan,nan,nan,nan
1,6,1,1,1.0,1.0,0.6875390401110053,0.0,6,5,4,1,2,8,nan,nan,nan,nan,nan,nan,nan,nan,nan,nan,nan,nan,0.0,nan,nan,nan,nan,nan,nan,nan,nan,nan,nan,nan,nan,nan,nan,nan,nan,nan,nan,248.18925318168476,263.02934895129874,nan,263.71688799140975,nan,nan,nan,nan
1,7,1,1,1.0,1.0,0.7110728826373816,0.0,4,0,8,5,6,3,nan,nan,nan,nan,nan,nan,nan,nan,nan,nan,nan,nan,0.0,nan,nan,nan,nan,nan,nan,nan,nan,nan,nan,nan,nan,nan,nan,nan,nan,nan,nan,248.18925318168476,264.0378074729815,nan,264.7488803556189,nan,nan,nan,nan
1,8,1,1,1.0,1.0,0.49459728319197893,0.0,1,5,2,6,0,4,nan,nan,nan,nan,nan,nan,nan,nan,nan,nan,nan,nan,0.0,nan,nan,nan,nan,nan,nan,nan,nan,nan,nan,nan,nan,nan,nan,nan,nan,nan,nan,248.18925318168476,265.0462648537941,nan,265.5408621369861,nan,nan,nan,nan
1,9,1,1,1.0,1.0,0.43011249601840973,0.0,4,6,1,3,7,2,nan,nan,nan,nan,nan,nan,nan,nan,nan,nan,nan,nan,0.0,nan,nan,nan,nan,nan,nan,nan,nan,nan,nan,nan,nan,nan,nan,nan,nan,nan,nan,248.18925318168476,266.05471767345443,nan,266.48483016947284,nan,nan,nan,nan
1,10,1,1,1.0,1.0,0.3496235446073115,0.0,6,0,4,8,2,5,nan,nan,nan,nan,nan,nan,nan,nan,nan,nan,nan,nan,0.0,nan,nan,nan,nan,nan,nan,nan,nan,nan,nan,nan,nan,nan,nan,nan,nan,nan,nan,248.18925318168476,267.06318731373176,nan,267.41281085833907,nan,nan,nan,nan
1,11,1,1,1.0,1.0,0.3331543877720833,0.0,5,8,3,6,0,1,nan,nan,nan,nan,nan,nan,nan,nan,nan,nan,nan,nan,0.0,nan,nan,nan,nan,nan,nan,nan,nan,nan,nan,nan,nan,nan,nan,nan,nan,nan,nan,248.18925318168476,268.0716355717741,nan,268.4047899595462,nan,nan,nan,nan
1,12,1,1,1.0,1.0,0.3646495440043509,0.0,3,0,7,2,8,6,nan,nan,nan,nan,nan,nan,nan,nan,nan,nan,nan,nan,0.0,nan,nan,nan,nan,nan,nan,nan,nan,nan,nan,nan,nan,nan,nan,nan,nan,nan,nan,248.18925318168476,269.0800912422128,nan,269.44474078621715,nan,nan,nan,nan
1,13,1,1,1.0,1.0,0.348196922801435,0.0,2,7,0,6,3,4,nan,nan,nan,nan,nan,nan,nan,nan,nan,nan,nan,nan,0.0,nan,nan,nan,nan,nan,nan,nan,nan,nan,nan,nan,nan,nan,nan,nan,nan,nan,nan,248.18925318168476,270.0885486234911,nan,270.4367455462925,nan,nan,nan,nan
1,14,1,1,1.0,1.0,0.3396953516639769,0.0,8,2,5,1,6,3,nan,nan,nan,nan,nan,nan,nan,nan,nan,nan,nan,nan,0.0,nan,nan,nan,nan,nan,nan,nan,nan,nan,nan,nan,nan,nan,nan,nan,nan,nan,nan,248.18925318168476,271.0970245357603,nan,271.43671988742426,nan,nan,nan,nan
1,15,1,1,1.0,1.0,0.33923178538680077,0.0,6,4,7,5,1,0,nan,nan,nan,nan,nan,nan,nan,nan,nan,nan,nan,nan,0.0,nan,nan,nan,nan,nan,nan,nan,nan,nan,nan,nan,nan,nan,nan,nan,nan,nan,nan,248.18925318168476,272.10546965757385,nan,272.44470144296065,nan,nan,nan,nan
1,16,1,1,1.0,1.0,0.39476397866383195,0.0,0,3,2,8,6,1,nan,nan,nan,nan,nan,nan,nan,nan,nan,nan,nan,nan,0.0,nan,nan,nan,nan,nan,nan,nan,nan,nan,nan,nan,nan,nan,nan,nan,nan,nan,nan,248.18925318168476,273.1139182006009,nan,273.5086821792647,nan,nan,nan,nan
1,17,1,1,1.0,1.0,0.5382765987887979,0.0,8,0,7,6,4,5,nan,nan,nan,nan,nan,nan,nan,nan,nan,nan,nan,nan,0.0,nan,nan,nan,nan,nan,nan,nan,nan,nan,nan,nan,nan,nan,nan,nan,nan,nan,nan,248.18925318168476,274.12237900309265,nan,274.66065560188144,nan,nan,nan,nan
1,18,1,1,1.0,1.0,0.6018365332856774,0.0,5,1,8,4,3,2,nan,nan,nan,nan,nan,nan,nan,nan,nan,nan,nan,nan,0.0,nan,nan,nan,nan,nan,nan,nan,nan,nan,nan,nan,nan,nan,nan,nan,nan,nan,nan,248.18925318168476,275.1308098700829,nan,275.73264640336856,nan,nan,nan,nan
1,19,1,1,1.0,1.0,0.5053191836923361,0.0,0,4,3,6,7,5,nan,nan,nan,nan,nan,nan,nan,nan,nan,nan,nan,nan,0.0,nan,nan,nan,nan,nan,nan,nan,nan,nan,nan,nan,nan,nan,nan,nan,nan,nan,nan,248.18925318168476,276.13929262477905,nan,276.6446118084714,nan,nan,nan,nan
1,20,1,1,1.0,1.0,0.4408229934051633,0.0,5,6,1,7,0,3,nan,nan,nan,nan,nan,nan,nan,nan,nan,nan,nan,nan,0.0,nan,nan,nan,nan,nan,nan,nan,nan,nan,nan,nan,nan,nan,nan,nan,nan,nan,nan,248.18925318168476,277.14775456720963,nan,277.5885775606148,nan,nan,nan,nan
1,21,0,0,nan,nan,nan,0.0,0,8,7,2,4,1,nan,nan,nan,nan,nan,nan,nan,nan,nan,nan,nan,nan,0.0,nan,nan,nan,nan,nan,nan,nan,nan,nan,nan,nan,nan,nan,nan,nan,nan,nan,nan,248.18925318168476,278.15620738686994,nan,nan,nan,nan,nan,nan
1,22,1,1,1.0,1.0,0.4718896495178342,0.0,1,0,6,7,2,8,nan,nan,nan,nan,nan,nan,nan,nan,nan,nan,nan,nan,0.0,nan,nan,nan,nan,nan,nan,nan,nan,nan,nan,nan,nan,nan,nan,nan,nan,nan,nan,248.18925318168476,279.16466191690415,nan,279.636551566422,nan,nan,nan,nan
1,23,1,1,1.0,1.0,0.5193929616361856,0.0,6,2,7,5,8,0,nan,nan,nan,nan,nan,nan,nan,nan,nan,nan,nan,nan,0.0,nan,nan,nan,nan,nan,nan,nan,nan,nan,nan,nan,nan,nan,nan,nan,nan,nan,nan,248.18925318168476,280.1731190131977,nan,280.6925119748339,nan,nan,nan,nan
1,24,1,1,1.0,1.0,0.49522107373923063,0.0,1,8,5,4,3,2,nan,nan,nan,nan,nan,nan,nan,nan,nan,nan,nan,nan,0.0,nan,nan,nan,nan,nan,nan,nan,nan,nan,nan,nan,nan,nan,nan,nan,nan,nan,nan,248.18925318168476,281.17325386358425,nan,281.6684749373235,nan,nan,nan,nan
1,25,1,1,1.0,1.0,0.42276157392188907,0.0,3,5,1,7,2,4,nan,nan,nan,nan,nan,nan,nan,nan,nan,nan,nan,nan,0.0,nan,nan,nan,nan,nan,nan,nan,nan,nan,nan,nan,nan,nan,nan,nan,nan,nan,nan,248.18925318168476,282.181707253214,nan,282.60446882713586,nan,nan,nan,nan
1,26,0,0,0.0,1.0,0.7022360386326909,1.0,0,7,3,8,6,5,1.0,1.0,1.0,1.0,1.0,1.0,1.0,1.0,1.0,0.0,0.0,0.0,3.0,0.0,7.0,3.0,4.0,8.0,7.0,4.0,2.0,1.0,3.0,6.0,5.0,4.666063307784498,1.9936779900453985,1.1302465195767581,3.1299580023624003,7.033126762136817,5.977505333255976,248.18925318168476,283.1901711919345,283.9985759439878,283.8924072305672,292.0995559054427,293.10359571967274,285.02369777299464,292.09121883520856
1,27,1,1,1.0,1.0,0.4401230816729367,0.0,7,3,1,2,0,4,nan,nan,nan,nan,nan,nan,nan,nan,nan,nan,nan,nan,0.0,nan,nan,nan,nan,nan,nan,nan,nan,nan,nan,nan,nan,nan,nan,nan,nan,nan,nan,248.18925318168476,293.30806848127395,nan,293.7481915629469,nan,nan,nan,nan
1,28,1,1,1.0,1.0,0.4796448387205601,0.0,6,1,3,4,2,0,nan,nan,nan,nan,nan,nan,nan,nan,nan,nan,nan,nan,0.0,nan,nan,nan,nan,nan,nan,nan,nan,nan,nan,nan,nan,nan,nan,nan,nan,nan,nan,248.18925318168476,294.3165352703072,nan,294.7961801090278,nan,nan,nan,nan
1,29,1,1,1.0,1.0,0.3431960488669574,0.0,4,3,8,0,1,6,nan,nan,nan,nan,nan,nan,nan,nan,nan,nan,nan,nan,0.0,nan,nan,nan,nan,nan,nan,nan,nan,nan,nan,nan,nan,nan,nan,nan,nan,nan,nan,248.18925318168476,295.32497725635767,nan,295.6681733052246,nan,nan,nan,nan
1,30,1,1,1.0,1.0,0.3267080755904317,0.0,7,8,3,2,5,4,nan,nan,nan,nan,nan,nan,nan,nan,nan,nan,nan,nan,0.0,nan,nan,nan,nan,nan,nan,nan,nan,nan,nan,nan,nan,nan,nan,nan,nan,nan,nan,248.18925318168476,296.3334391992539,nan,296.66014727484435,nan,nan,nan,nan
1,31,1,1,1.0,1.0,0.35022053634747863,0.0,5,0,2,6,4,1,nan,nan,nan,nan,nan,nan,nan,nan,nan,nan,nan,nan,0.0,nan,nan,nan,nan,nan,nan,nan,nan,nan,nan,nan,nan,nan,nan,nan,nan,nan,nan,248.18925318168476,297.341904562898,nan,297.69212509924546,nan,nan,nan,nan
1,32,1,1,1.0,1.0,0.373750957660377,0.0,7,5,4,1,8,3,nan,nan,nan,nan,nan,nan,nan,nan,nan,nan,nan,nan,0.0,nan,nan,nan,nan,nan,nan,nan,nan,nan,nan,nan,nan,nan,nan,nan,nan,nan,nan,248.18925318168476,298.3503556717187,nan,298.7241066293791,nan,nan,nan,nan
1,33,1,1,1.0,1.0,0.4452471169643104,0.0,0,3,1,7,6,8,nan,nan,nan,nan,nan,nan,nan,nan,nan,nan,nan,nan,0.0,nan,nan,nan,nan,nan,nan,nan,nan,nan,nan,nan,nan,nan,nan,nan,nan,nan,nan,248.18925318168476,299.3588156187907,nan,299.804062735755,nan,nan,nan,nan
1,34,1,1,1.0,1.0,0.3167653433047235,0.0,7,1,6,2,0,3,nan,nan,nan,nan,nan,nan,nan,nan,nan,nan,nan,nan,0.0,nan,nan,nan,nan,nan,nan,nan,nan,nan,nan,nan,nan,nan,nan,nan,nan,nan,nan,248.18925318168476,300.3672715742141,nan,300.6840369175188,nan,nan,nan,nan
1,35,1,1,1.0,1.0,0.3322765766642988,0.0,4,0,8,6,5,7,nan,nan,nan,nan,nan,nan,nan,nan,nan,nan,nan,nan,0.0,nan,nan,nan,nan,nan,nan,nan,nan,nan,nan,nan,nan,nan,nan,nan,nan,nan,nan,248.18925318168476,301.37573494249955,nan,301.70801151916385,nan,nan,nan,nan
1,36,1,1,1.0,1.0,0.2998126628808677,0.0,5,4,7,1,6,0,nan,nan,nan,nan,nan,nan,nan,nan,nan,nan,nan,nan,0.0,nan,nan,nan,nan,nan,nan,nan,nan,nan,nan,nan,nan,nan,nan,nan,nan,nan,nan,248.18925318168476,302.3841777839698,nan,302.68399044685066,nan,nan,nan,nan
1,37,1,1,1.0,1.0,0.33130496833473444,0.0,1,5,0,6,8,3,nan,nan,nan,nan,nan,nan,nan,nan,nan,nan,nan,nan,0.0,nan,nan,nan,nan,nan,nan,nan,nan,nan,nan,nan,nan,nan,nan,nan,nan,nan,nan,248.18925318168476,303.39266681065783,nan,303.72397177899256,nan,nan,nan,nan
1,38,1,1,1.0,1.0,0.2908381172455847,0.0,6,4,2,1,3,8,nan,nan,nan,nan,nan,nan,nan,nan,nan,nan,nan,nan,0.0,nan,nan,nan,nan,nan,nan,nan,nan,nan,nan,nan,nan,nan,nan,nan,nan,nan,nan,248.18925318168476,304.4011070858687,nan,304.6919452031143,nan,nan,nan,nan
1,39,1,1,1.0,1.0,0.2746794307604432,0.0,7,8,1,3,2,6,nan,nan,nan,nan,nan,nan,nan,nan,nan,nan,nan,nan,0.0,nan,nan,nan,nan,nan,nan,nan,nan,nan,nan,nan,nan,nan,nan,nan,nan,nan,nan,248.18925318168476,305.40124165127054,nan,305.675921082031,nan,nan,nan,nan
1,40,1,1,1.0,1.0,0.3062125048600137,0.0,1,3,2,6,0,4,nan,nan,nan,nan,nan,nan,nan,nan,nan,nan,nan,nan,0.0,nan,nan,nan,nan,nan,nan,nan,nan,nan,nan,nan,nan,nan,nan,nan,nan,nan,nan,248.18925318168476,306.4096904792823,nan,306.7159029841423,nan,nan,nan,nan
1,41,1,1,1.0,1.0,0.31373533979058266,0.0,4,8,7,0,6,1,nan,nan,nan,nan,nan,nan,nan,nan,nan,nan,nan,nan,0.0,nan,nan,nan,nan,nan,nan,nan,nan,nan,nan,nan,nan,nan,nan,nan,nan,nan,nan,248.18925318168476,307.41814900096506,nan,307.73188434075564,nan,nan,nan,nan
1,42,1,1,1.0,1.0,0.32925655134022236,0.0,6,2,0,1,5,8,nan,nan,nan,nan,nan,nan,nan,nan,nan,nan,nan,nan,0.0,nan,nan,nan,nan,nan,nan,nan,nan,nan,nan,nan,nan,nan,nan,nan,nan,nan,nan,248.18925318168476,308.42659212742,nan,308.75584867876023,nan,nan,nan,nan
1,43,1,1,1.0,1.0,0.313094443641603,0.0,5,7,3,2,6,0,nan,nan,nan,nan,nan,nan,nan,nan,nan,nan,nan,nan,0.0,nan,nan,nan,nan,nan,nan,nan,nan,nan,nan,nan,nan,nan,nan,nan,nan,nan,nan,248.18925318168476,309.4267369559966,nan,309.7398313996382,nan,nan,nan,nan
1,44,1,1,1.0,1.0,0.3526104986667633,0.0,8,5,7,3,0,4,nan,nan,nan,nan,nan,nan,nan,nan,nan,nan,nan,nan,0.0,nan,nan,nan,nan,nan,nan,nan,nan,nan,nan,nan,nan,nan,nan,nan,nan,nan,nan,248.18925318168476,310.4351912010461,nan,310.7878016997129,nan,nan,nan,nan
1,45,1,1,1.0,1.0,0.27247478114441037,0.0,5,4,2,7,1,0,nan,nan,nan,nan,nan,nan,nan,nan,nan,nan,nan,nan,0.0,nan,nan,nan,nan,nan,nan,nan,nan,nan,nan,nan,nan,nan,nan,nan,nan,nan,nan,248.18925318168476,311.43532034987584,nan,311.70779513102025,nan,nan,nan,nan
1,46,1,1,1.0,1.0,0.2963188081048429,0.0,2,6,7,3,0,1,nan,nan,nan,nan,nan,nan,nan,nan,nan,nan,nan,nan,0.0,nan,nan,nan,nan,nan,nan,nan,nan,nan,nan,nan,nan,nan,nan,nan,nan,nan,nan,248.18925318168476,312.43543581385165,nan,312.7317546219565,nan,nan,nan,nan
1,47,0,0,0.0,1.0,0.4481853195466101,0.0,4,1,6,8,3,5,nan,nan,nan,nan,nan,nan,nan,nan,nan,nan,nan,nan,0.0,nan,nan,nan,nan,nan,nan,nan,nan,nan,nan,nan,nan,nan,nan,nan,nan,nan,nan,248.18925318168476,313.4355529882014,nan,313.883738307748,nan,nan,nan,nan
1,48,1,1,1.0,1.0,0.6879991861060262,0.0,5,7,8,0,2,3,nan,nan,nan,nan,nan,nan,nan,nan,nan,nan,nan,nan,0.0,nan,nan,nan,nan,nan,nan,nan,nan,nan,nan,nan,nan,nan,nan,nan,nan,nan,nan,248.18925318168476,314.4356909748167,nan,315.1236901609227,nan,nan,nan,nan
1,49,0,0,0.0,1.0,0.6395345288328826,0.0,8,3,5,6,7,0,nan,nan,nan,nan,nan,nan,nan,nan,nan,nan,nan,nan,0.0,nan,nan,nan,nan,nan,nan,nan,nan,nan,nan,nan,nan,nan,nan,nan,nan,nan,nan,248.18925318168476,315.4441338162869,nan,316.0836683451198,nan,nan,nan,nan
1,50,1,1,1.0,1.0,0.5430468297563493,0.0,4,1,0,5,3,7,nan,nan,nan,nan,nan,nan,nan,nan,nan,nan,nan,nan,0.0,nan,nan,nan,nan,nan,nan,nan,nan,nan,nan,nan,nan,nan,nan,nan,nan,nan,nan,248.18925318168476,316.4526083031669,nan,316.9956551329233,nan,nan,nan,nan
1,51,1,1,1.0,1.0,0.49458103254437447,0.0,0,5,3,8,6,1,nan,nan,nan,nan,nan,nan,nan,nan,nan,nan,nan,nan,0.0,nan,nan,nan,nan,nan,nan,nan,nan,nan,nan,nan,nan,nan,nan,nan,nan,nan,nan,248.18925318168476,317.461050003767,nan,317.9556310363114,nan,nan,nan,nan
1,52,1,1,1.0,1.0,0.5101367402821779,0.0,7,4,0,5,8,2,nan,nan,nan,nan,nan,nan,nan,nan,nan,nan,nan,nan,0.0,nan,nan,nan,nan,nan,nan,nan,nan,nan,nan,nan,nan,nan,nan,nan,nan,nan,nan,248.18925318168476,318.4695022534579,nan,318.9796389937401,nan,nan,nan,nan
1,53,1,1,1.0,1.0,0.42193907080218196,0.0,1,6,5,0,3,8,nan,nan,nan,nan,nan,nan,nan,nan,nan,nan,nan,nan,0.0,nan,nan,nan,nan,nan,nan,nan,nan,nan,nan,nan,nan,nan,nan,nan,nan,nan,nan,248.18925318168476,319.46964879287407,nan,319.89158786367625,nan,nan,nan,nan
1,54,1,1,1.0,1.0,0.3818248840980232,0.0,2,3,0,5,6,7,nan,nan,nan,nan,nan,nan,nan,nan,nan,nan,nan,nan,0.0,nan,nan,nan,nan,nan,nan,nan,nan,nan,nan,nan,nan,nan,nan,nan,nan,nan,nan,248.18925318168476,320.46975114243105,nan,320.8515760265291,nan,nan,nan,nan
1,55,1,1,1.0,1.0,0.3736833897419274,0.0,7,6,1,8,4,2,nan,nan,nan,nan,nan,nan,nan,nan,nan,nan,nan,nan,0.0,nan,nan,nan,nan,nan,nan,nan,nan,nan,nan,nan,nan,nan,nan,nan,nan,nan,nan,248.18925318168476,321.46987515920773,nan,321.84355854894966,nan,nan,nan,nan
1,56,1,1,1.0,1.0,0.3011865424923599,0.0,0,3,6,4,2,7,nan,nan,nan,nan,nan,nan,nan,nan,nan,nan,nan,nan,0.0,nan,nan,nan,nan,nan,nan,nan,nan,nan,nan,nan,nan,nan,nan,nan,nan,nan,nan,248.18925318168476,322.4783428036608,nan,322.77952934615314,nan,nan,nan,nan
1,57,1,1,1.0,1.0,0.3007340943440795,0.0,5,2,8,7,1,6,nan,nan,nan,nan,nan,nan,nan,nan,nan,nan,nan,nan,0.0,nan,nan,nan,nan,nan,nan,nan,nan,nan,nan,nan,nan,nan,nan,nan,nan,nan,nan,248.18925318168476,323.48677851771936,nan,323.78751261206344,nan,nan,nan,nan
1,58,1,1,1.0,1.0,0.3405760144814849,0.0,3,8,6,0,7,4,nan,nan,nan,nan,nan,nan,nan,nan,nan,nan,nan,nan,0.0,nan,nan,nan,nan,nan,nan,nan,nan,nan,nan,nan,nan,nan,nan,nan,nan,nan,nan,248.18925318168476,324.4869116572663,nan,324.8274876717478,nan,nan,nan,nan
1,59,1,1,1.0,1.0,0.324411625508219,0.0,5,1,0,3,2,7,nan,nan,nan,nan,nan,nan,nan,nan,nan,nan,nan,nan,0.0,nan,nan,nan,nan,nan,nan,nan,nan,nan,nan,nan,nan,nan,nan,nan,nan,nan,nan,248.18925318168476,325.48704166151583,nan,325.81145328702405,nan,nan,nan,nan
1,60,1,1,1.0,1.0,0.3242833320982754,0.0,2,6,7,1,4,8,nan,nan,nan,nan,nan,nan,nan,nan,nan,nan,nan,nan,0.0,nan,nan,nan,nan,nan,nan,nan,nan,nan,nan,nan,nan,nan,nan,nan,nan,nan,nan,248.18925318168476,326.4871671036817,nan,326.81145043578,nan,nan,nan,nan
1,61,1,1,1.0,1.0,0.33215854689478874,0.0,1,4,3,8,0,2,nan,nan,nan,nan,nan,nan,nan,nan,nan,nan,nan,nan,0.0,nan,nan,nan,nan,nan,nan,nan,nan,nan,nan,nan,nan,nan,nan,nan,nan,nan,nan,248.18925318168476,327.4872685978189,nan,327.8194271447137,nan,nan,nan,nan
1,62,1,1,1.0,1.0,0.34798338590189815,0.0,5,7,1,6,3,0,nan,nan,nan,nan,nan,nan,nan,nan,nan,nan,nan,nan,0.0,nan,nan,nan,nan,nan,nan,nan,nan,nan,nan,nan,nan,nan,nan,nan,nan,nan,nan,248.18925318168476,328.4874077248387,nan,328.8353911107406,nan,nan,nan,nan
1,63,1,1,1.0,1.0,0.39582681795582175,0.0,8,3,2,5,4,7,nan,nan,nan,nan,nan,nan,nan,nan,nan,nan,nan,nan,0.0,nan,nan,nan,nan,nan,nan,nan,nan,nan,nan,nan,nan,nan,nan,nan,nan,nan,nan,248.18925318168476,329.4875442860648,nan,329.8833711040206,nan,nan,nan,nan
1,64,1,1,1.0,1.0,0.3716951282694936,0.0,0,4,6,2,8,1,nan,nan,nan,nan,nan,nan,nan,nan,nan,nan,nan,nan,0.0,nan,nan,nan,nan,nan,nan,nan,nan,nan,nan,nan,nan,nan,nan,nan,nan,nan,nan,248.18925318168476,330.48765632882714,nan,330.85935145709664,nan,nan,nan,nan
1,65,1,1,1.0,1.0,0.3792327889241278,0.0,6,3,7,4,2,8,nan,nan,nan,nan,nan,nan,nan,nan,nan,nan,nan,nan,0.0,nan,nan,nan,nan,nan,nan,nan,nan,nan,nan,nan,nan,nan,nan,nan,nan,nan,nan,248.18925318168476,331.49610800808296,nan,331.8753407970071,nan,nan,nan,nan
1,66,1,1,1.0,1.0,0.36306184250861406,0.0,5,8,2,1,6,3,nan,nan,nan,nan,nan,nan,nan,nan,nan,nan,nan,nan,0.0,nan,nan,nan,nan,nan,nan,nan,nan,nan,nan,nan,nan,nan,nan,nan,nan,nan,nan,248.18925318168476,332.4962382973172,nan,332.8593001398258,nan,nan,nan,nan
1,67,1,1,1.0,1.0,0.386602527461946,0.0,6,5,0,3,4,8,nan,nan,nan,nan,nan,nan,nan,nan,nan,nan,nan,nan,0.0,nan,nan,nan,nan,nan,nan,nan,nan,nan,nan,nan,nan,nan,nan,nan,nan,nan,nan,248.18925318168476,333.5046725855209,nan,333.89127511298284,nan,nan,nan,nan
1,68,1,1,1.0,1.0,0.33808826422318816,0.0,0,3,8,7,1,5,nan,nan,nan,nan,nan,nan,nan,nan,nan,nan,nan,nan,0.0,nan,nan,nan,nan,nan,nan,nan,nan,nan,nan,nan,nan,nan,nan,nan,nan,nan,nan,248.18925318168476,334.51316018681973,nan,334.8512484510429,nan,nan,nan,nan
1,69,1,1,1.0,1.0,0.3299521869048476,0.0,1,6,3,8,5,4,nan,nan,nan,nan,nan,nan,nan,nan,nan,nan,nan,nan,0.0,nan,nan,nan,nan,nan,nan,nan,nan,nan,nan,nan,nan,nan,nan,nan,nan,nan,nan,248.18925318168476,335.51328220777214,nan,335.843234394677,nan,nan,nan,nan
1,70,1,1,1.0,1.0,0.3534863139502704,0.0,0,3,4,7,2,5,nan,nan,nan,nan,nan,nan,nan,nan,nan,nan,nan,nan,0.0,nan,nan,nan,nan,nan,nan,nan,nan,nan,nan,nan,nan,nan,nan,nan,nan,nan,nan,248.18925318168476,336.5217219130136,nan,336.8752082269639,nan,nan,nan,nan
1,71,1,1,1.0,1.0,0.3853207346983254,0.0,4,2,6,3,7,8,nan,nan,nan,nan,nan,nan,nan,nan,nan,nan,nan,nan,0.0,nan,nan,nan,nan,nan,nan,nan,nan,nan,nan,nan,nan,nan,nan,nan,nan,nan,nan,248.18925318168476,337.5218598996289,nan,337.90718063432723,nan,nan,nan,nan
1,72,1,1,1.0,1.0,0.3848526068031788,0.0,1,7,3,4,5,2,nan,nan,nan,nan,nan,nan,nan,nan,nan,nan,nan,nan,0.0,nan,nan,nan,nan,nan,nan,nan,nan,nan,nan,nan,nan,nan,nan,nan,nan,nan,nan,248.18925318168476,338.53031186386943,nan,338.9151644706726,nan,nan,nan,nan
1,73,1,1,1.0,1.0,0.33670526184141636,0.0,4,2,0,1,3,5,nan,nan,nan,nan,nan,nan,nan,nan,nan,nan,nan,nan,0.0,nan,nan,nan,nan,nan,nan,nan,nan,nan,nan,nan,nan,nan,nan,nan,nan,nan,nan,248.18925318168476,339.5304390168749,nan,339.8671442787163,nan,nan,nan,nan
1,74,1,1,1.0,1.0,0.34456280060112476,0.0,0,3,8,2,7,6,nan,nan,nan,nan,nan,nan,nan,nan,nan,nan,nan,nan,0.0,nan,nan,nan,nan,nan,nan,nan,nan,nan,nan,nan,nan,nan,nan,nan,nan,nan,nan,248.18925318168476,340.5305593274534,nan,340.8751221280545,nan,nan,nan,nan
1,75,1,1,1.0,1.0,0.3201169352978468,0.0,2,1,3,8,4,7,nan,nan,nan,nan,nan,nan,nan,nan,nan,nan,nan,nan,0.0,nan,nan,nan,nan,nan,nan,nan,nan,nan,nan,nan,nan,nan,nan,nan,nan,nan,nan,248.18925318168476,341.5389850628562,nan,341.8591019981541,nan,nan,nan,nan
1,76,1,1,1.0,1.0,0.31994730280712247,0.0,7,2,4,0,3,5,nan,nan,nan,nan,nan,nan,nan,nan,nan,nan,nan,nan,0.0,nan,nan,nan,nan,nan,nan,nan,nan,nan,nan,nan,nan,nan,nan,nan,nan,nan,nan,248.18925318168476,342.5391298918985,nan,342.8590771947056,nan,nan,nan,nan
1,77,0,0,0.0,1.0,0.631459747441113,1.0,4,3,7,1,6,2,1.0,1.0,1.0,1.0,1.0,1.0,0.0,1.0,1.0,1.0,0.0,0.0,3.0,5.0,3.0,7.0,1.0,0.0,8.0,6.0,3.0,2.0,1.0,4.0,5.0,6.9545853030867875,3.210149598773569,2.4845382310450077,1.5787397432141006,5.250720509793609,6.298240642528981,248.18925318168476,343.5476015275344,344.35600314382464,344.17906127497554,352.3653186648153,353.3650369900279,345.3728195480071,352.35698929196224
1,78,1,1,1.0,1.0,0.4129901840351522,0.0,8,6,5,2,7,0,nan,nan,nan,nan,nan,nan,nan,nan,nan,nan,nan,nan,0.0,nan,nan,nan,nan,nan,nan,nan,nan,nan,nan,nan,nan,nan,nan,nan,nan,nan,nan,248.18925318168476,353.5738172708079,nan,353.9868074548431,nan,nan,nan,nan
1,79,1,1,1.0,1.0,0.380497760605067,0.0,7,4,6,1,5,3,nan,nan,nan,nan,nan,nan,nan,nan,nan,nan,nan,nan,0.0,nan,nan,nan,nan,nan,nan,nan,nan,nan,nan,nan,nan,nan,nan,nan,nan,nan,nan,248.18925318168476,354.5822920431383,nan,354.96278980374336,nan,nan,nan,nan
1,80,1,1,1.0,1.0,0.43603166472166777,0.0,6,0,2,5,4,1,nan,nan,nan,nan,nan,nan,nan,nan,nan,nan,nan,nan,0.0,nan,nan,nan,nan,nan,nan,nan,nan,nan,nan,nan,nan,nan,nan,nan,nan,nan,nan,248.18925318168476,355.5907320333645,nan,356.02676369808614,nan,nan,nan,nan
1,81,1,1,1.0,1.0,0.40352470241487026,0.0,4,7,8,3,2,6,nan,nan,nan,nan,nan,nan,nan,nan,nan,nan,nan,nan,0.0,nan,nan,nan,nan,nan,nan,nan,nan,nan,nan,nan,nan,nan,nan,nan,nan,nan,nan,248.18925318168476,356.5992082306184,nan,357.00273293303326,nan,nan,nan,nan
1,82,1,1,1.0,1.0,0.3950465088710189,0.0,8,3,7,0,1,2,nan,nan,nan,nan,nan,nan,nan,nan,nan,nan,nan,nan,0.0,nan,nan,nan,nan,nan,nan,nan,nan,nan,nan,nan,nan,nan,nan,nan,nan,nan,nan,248.18925318168476,357.60766703728586,nan,358.0027135461569,nan,nan,nan,nan
1,83,1,1,1.0,1.0,0.37857051007449627,0.0,6,5,2,3,7,8,nan,nan,nan,nan,nan,nan,nan,nan,nan,nan,nan,nan,0.0,nan,nan,nan,nan,nan,nan,nan,nan,nan,nan,nan,nan,nan,nan,nan,nan,nan,nan,248.18925318168476,358.6161141549237,nan,358.9946846649982,nan,nan,nan,nan
1,84,0,0,0.0,1.0,0.722089858725667,0.0,3,8,7,5,4,6,nan,nan,nan,nan,nan,nan,nan,nan,nan,nan,nan,nan,0.0,nan,nan,nan,nan,nan,nan,nan,nan,nan,nan,nan,nan,nan,nan,nan,nan,nan,nan,248.18925318168476,359.6245726761408,nan,360.3466625348665,nan,nan,nan,nan
1,85,1,1,1.0,1.0,0.5616074525751173,0.0,5,0,8,2,3,1,nan,nan,nan,nan,nan,nan,nan,nan,nan,nan,nan,nan,0.0,nan,nan,nan,nan,nan,nan,nan,nan,nan,nan,nan,nan,nan,nan,nan,nan,nan,nan,248.18925318168476,360.6330289170146,nan,361.1946363695897,nan,nan,nan,nan
1,86,1,1,1.0,1.0,0.3931318027898669,0.0,1,4,0,6,5,2,nan,nan,nan,nan,nan,nan,nan,nan,nan,nan,nan,nan,0.0,nan,nan,nan,nan,nan,nan,nan,nan,nan,nan,nan,nan,nan,nan,nan,nan,nan,nan,248.18925318168476,361.641482591629,nan,362.0346143944189,nan,nan,nan,nan
1,87,1,1,1.0,1.0,0.39265996823087335,0.0,5,3,6,1,7,8,nan,nan,nan,nan,nan,nan,nan,nan,nan,nan,nan,nan,0.0,nan,nan,nan,nan,nan,nan,nan,nan,nan,nan,nan,nan,nan,nan,nan,nan,nan,nan,248.18925318168476,362.64994481951,nan,363.04260478774086,nan,nan,nan,nan
1,88,1,1,1.0,1.0,0.3361977906897664,0.0,4,5,3,0,1,6,nan,nan,nan,nan,nan,nan,nan,nan,nan,nan,nan,nan,0.0,nan,nan,nan,nan,nan,nan,nan,nan,nan,nan,nan,nan,nan,nan,nan,nan,nan,nan,248.18925318168476,363.6583970687352,nan,363.994594859425,nan,nan,nan,nan
1,89,1,1,1.0,1.0,0.3760103457607329,0.0,7,3,6,1,8,2,nan,nan,nan,nan,nan,nan,nan,nan,nan,nan,nan,nan,0.0,nan,nan,nan,nan,nan,nan,nan,nan,nan,nan,nan,nan,nan,nan,nan,nan,nan,nan,248.18925318168476,364.6585370511748,nan,365.0345473969355,nan,nan,nan,nan
1,90,0,0,0.0,1.0,0.5515503962524235,0.0,1,2,5,8,3,4,nan,nan,nan,nan,nan,nan,nan,nan,nan,nan,nan,nan,0.0,nan,nan,nan,nan,nan,nan,nan,nan,nan,nan,nan,nan,nan,nan,nan,nan,nan,nan,248.18925318168476,365.6669744756073,nan,366.2185248718597,nan,nan,nan,nan
1,91,1,1,1.0,1.0,0.5110556059516966,0.0,8,5,1,6,4,2,nan,nan,nan,nan,nan,nan,nan,nan,nan,nan,nan,nan,0.0,nan,nan,nan,nan,nan,nan,nan,nan,nan,nan,nan,nan,nan,nan,nan,nan,nan,nan,248.18925318168476,366.6754378438927,nan,367.1864934498444,nan,nan,nan,nan
1,92,1,1,1.0,1.0,0.39858084777370095,0.0,3,7,4,0,5,8,nan,nan,nan,nan,nan,nan,nan,nan,nan,nan,nan,nan,0.0,nan,nan,nan,nan,nan,nan,nan,nan,nan,nan,nan,nan,nan,nan,nan,nan,nan,nan,248.18925318168476,367.68389351433143,nan,368.08247436210513,nan,nan,nan,nan
1,93,0,0,0.0,1.0,0.5584061061963439,0.0,8,3,7,1,4,5,nan,nan,nan,nan,nan,nan,nan,nan,nan,nan,nan,nan,0.0,nan,nan,nan,nan,nan,nan,nan,nan,nan,nan,nan,nan,nan,nan,nan,nan,nan,nan,248.18925318168476,368.68404917698354,nan,369.2424552831799,nan,nan,nan,nan
1,94,1,1,1.0,1.0,0.47793568624183536,0.0,1,7,8,2,0,6,nan,nan,nan,nan,nan,nan,nan,nan,nan,nan,nan,nan,0.0,nan,nan,nan,nan,nan,nan,nan,nan,nan,nan,nan,nan,nan,nan,nan,nan,nan,nan,248.18925318168476,369.69248745637015,nan,370.170423142612,nan,nan,nan,nan
1,95,1,1,1.0,1.0,0.44543242966756225,0.0,4,8,3,7,6,5,nan,nan,nan,nan,nan,nan,nan,nan,nan,nan,nan,nan,0.0,nan,nan,nan,nan,nan,nan,nan,nan,nan,nan,nan,nan,nan,nan,nan,nan,nan,nan,248.18925318168476,370.7009838959202,nan,371.1464163255878,nan,nan,nan,nan
1,96,1,1,1.0,1.0,0.508960148319602,0.0,2,1,5,4,7,0,nan,nan,nan,nan,nan,nan,nan,nan,nan,nan,nan,nan,0.0,nan,nan,nan,nan,nan,nan,nan,nan,nan,nan,nan,nan,nan,nan,nan,nan,nan,nan,248.18925318168476,371.7094458383508,nan,372.2184059866704,nan,nan,nan,nan
1,97,1,1,1.0,1.0,0.4044991610571742,0.0,6,7,2,5,1,8,nan,nan,nan,nan,nan,nan,nan,nan,nan,nan,nan,nan,0.0,nan,nan,nan,nan,nan,nan,nan,nan,nan,nan,nan,nan,nan,nan,nan,nan,nan,nan,248.18925318168476,372.7178601701744,nan,373.12235933123156,nan,nan,nan,nan
1,98,1,1,1.0,1.0,0.3640100727789104,0.0,2,4,5,1,3,6,nan,nan,nan,nan,nan,nan,nan,nan,nan,nan,nan,nan,0.0,nan,nan,nan,nan,nan,nan,nan,nan,nan,nan,nan,nan,nan,nan,nan,nan,nan,nan,248.18925318168476,373.7263206872158,nan,374.0903307599947,nan,nan,nan,nan
1,99,1,1,1.0,1.0,0.3555524065159261,0.0,1,2,6,7,8,4,nan,nan,nan,nan,nan,nan,nan,nan,nan,nan,nan,nan,0.0,nan,nan,nan,nan,nan,nan,nan,nan,nan,nan,nan,nan,nan,nan,nan,nan,nan,nan,248.18925318168476,374.7347678048536,nan,375.09032021136954,nan,nan,nan,nan
1,100,1,1,1.0,1.0,0.35507572581991553,0.0,7,1,4,5,0,2,nan,nan,nan,nan,nan,nan,nan,nan,nan,nan,nan,nan,0.0,nan,nan,nan,nan,nan,nan,nan,nan,nan,nan,nan,nan,nan,nan,nan,nan,nan,nan,248.18925318168476,375.743228321895,nan,376.0983040477149,nan,nan,nan,nan
1,101,1,1,1.0,1.0,0.3705772659741342,0.0,4,0,1,6,7,8,nan,nan,nan,nan,nan,nan,nan,nan,nan,nan,nan,nan,0.0,nan,nan,nan,nan,nan,nan,nan,nan,nan,nan,nan,nan,nan,nan,nan,nan,nan,nan,248.18925318168476,376.7516911197454,nan,377.1222683857195,nan,nan,nan,nan
1,102,1,1,1.0,1.0,0.4581075250171125,0.0,1,8,4,5,6,3,nan,nan,nan,nan,nan,nan,nan,nan,nan,nan,nan,nan,0.0,nan,nan,nan,nan,nan,nan,nan,nan,nan,nan,nan,nan,nan,nan,nan,nan,nan,nan,248.18925318168476,377.76014622021466,nan,378.2182537452318,nan,nan,nan,nan
1,103,1,1,1.0,1.0,0.3536334238015115,0.0,0,4,7,6,2,5,nan,nan,nan,nan,nan,nan,nan,nan,nan,nan,nan,nan,0.0,nan,nan,nan,nan,nan,nan,nan,nan,nan,nan,nan,nan,nan,nan,nan,nan,nan,nan,248.18925318168476,378.7685907720588,nan,379.1222241958603,nan,nan,nan,nan
1,104,0,0,1.0,0.0,0.48115014657378197,1.0,7,0,8,3,5,2,1.0,1.0,1.0,1.0,1.0,1.0,0.0,1.0,0.0,0.0,0.0,0.0,1.0,2.0,0.0,7.0,4.0,3.0,5.0,6.0,5.0,4.0,3.0,2.0,1.0,7.748179018497467,6.980411319527775,6.061640951316804,4.9723157258704305,3.8855041940696537,2.181983796879649,248.18925318168476,379.7770450171083,380.58546516438946,380.2581951636821,389.3782161353156,390.3831711085513,381.5939308134839,389.36988248629496
1,105,1,1,1.0,1.0,0.4392552487552166,0.0,6,3,7,5,1,4,nan,nan,nan,nan,nan,nan,nan,nan,nan,nan,nan,nan,0.0,nan,nan,nan,nan,nan,nan,nan,nan,nan,nan,nan,nan,nan,nan,nan,nan,nan,nan,248.18925318168476,390.5867181625217,nan,391.02597341127694,nan,nan,nan,nan
1,106,0,0,1.0,0.0,0.39910913119092584,1.0,5,8,0,4,2,3,1.0,1.0,1.0,1.0,1.0,1.0,0.0,0.0,0.0,0.0,0.0,0.0,0.0,2.0,4.0,6.0,0.0,1.0,6.0,1.0,2.0,3.0,4.0,5.0,6.0,1.1072198636829853,2.1561030419543386,3.4512415514327586,4.507278080563992,5.530783412978053,6.242244882509112,248.18925318168476,391.5868356223218,392.395258620847,391.98594475351274,399.6878135879524,400.6944084353745,393.40370944468305,399.6794765177183
1,107,1,1,1.0,1.0,0.4574418254196644,0.0,7,5,6,0,3,1,nan,nan,nan,nan,nan,nan,nan,nan,nan,nan,nan,nan,0.0,nan,nan,nan,nan,nan,nan,nan,nan,nan,nan,nan,nan,nan,nan,nan,nan,nan,nan,248.18925318168476,400.89629394793883,nan,401.3537357733585,nan,nan,nan,nan
1,108,1,1,1.0,1.0,0.4012362346984446,0.0,2,4,1,8,6,5,nan,nan,nan,nan,nan,nan,nan,nan,nan,nan,nan,nan,0.0,nan,nan,nan,nan,nan,nan,nan,nan,nan,nan,nan,nan,nan,nan,nan,nan,nan,nan,248.18925318168476,401.8964561675675,nan,402.29769240226597,nan,nan,nan,nan
1,109,0,0,0.0,1.0,0.5850731572136283,0.0,4,6,2,7,5,3,nan,nan,nan,nan,nan,nan,nan,nan,nan,nan,nan,nan,0.0,nan,nan,nan,nan,nan,nan,nan,nan,nan,nan,nan,nan,nan,nan,nan,nan,nan,nan,248.18925318168476,402.89658531639725,nan,403.4816584736109,nan,nan,nan,nan
1,110,1,1,1.0,1.0,0.5288960756734014,0.0,3,2,6,0,7,1,nan,nan,nan,nan,nan,nan,nan,nan,nan,nan,nan,nan,0.0,nan,nan,nan,nan,nan,nan,nan,nan,nan,nan,nan,nan,nan,nan,nan,nan,nan,nan,248.18925318168476,403.89672301802784,nan,404.42561909370124,nan,nan,nan,nan
1,111,0,0,0.0,1.0,0.5047937510535121,1.0,2,0,7,1,5,8,1.0,1.0,1.0,1.0,1.0,1.0,0.0,0.0,1.0,1.0,1.0,0.0,3.0,0.0,6.0,7.0,1.0,5.0,2.0,5.0,4.0,3.0,2.0,1.0,6.0,5.115665555931628,4.156618780922145,2.8758400003425777,1.966010821517557,0.8699242528527975,6.787700490094721,248.18925318168476,404.8968302141875,405.70522926421836,405.401623965241,413.55619375919923,414.56247414508834,406.73037589667365,413.547858399339
1,112,1,1,nan,nan,nan,0.0,1,2,3,8,6,0,nan,nan,nan,nan,nan,nan,nan,nan,nan,nan,nan,nan,0.0,nan,nan,nan,nan,nan,nan,nan,nan,nan,nan,nan,nan,nan,nan,nan,nan,nan,nan,248.18925318168476,414.7647054796107,nan,nan,nan,nan,nan,nan
1,113,1,1,1.0,1.0,0.5562034524045885,0.0,8,7,1,5,4,2,nan,nan,nan,nan,nan,nan,nan,nan,nan,nan,nan,nan,0.0,nan,nan,nan,nan,nan,nan,nan,nan,nan,nan,nan,nan,nan,nan,nan,nan,nan,nan,248.18925318168476,415.77314803609625,nan,416.32935148850083,nan,nan,nan,nan
1,114,1,1,1.0,1.0,0.5480391504243016,0.0,6,5,4,8,7,3,nan,nan,nan,nan,nan,nan,nan,nan,nan,nan,nan,nan,0.0,nan,nan,nan,nan,nan,nan,nan,nan,nan,nan,nan,nan,nan,nan,nan,nan,nan,nan,248.18925318168476,416.7732960009016,nan,417.3213351513259,nan,nan,nan,nan
1,115,1,1,1.0,1.0,0.4198966412805021,0.0,0,3,5,1,4,6,nan,nan,nan,nan,nan,nan,nan,nan,nan,nan,nan,nan,0.0,nan,nan,nan,nan,nan,nan,nan,nan,nan,nan,nan,nan,nan,nan,nan,nan,nan,nan,248.18925318168476,417.7734140306711,nan,418.1933106719516,nan,nan,nan,nan
1,116,1,1,1.0,1.0,0.39575383299961686,0.0,5,7,8,0,1,3,nan,nan,nan,nan,nan,nan,nan,nan,nan,nan,nan,nan,0.0,nan,nan,nan,nan,nan,nan,nan,nan,nan,nan,nan,nan,nan,nan,nan,nan,nan,nan,248.18925318168476,418.77354574529454,nan,419.16929957829416,nan,nan,nan,nan
1,117,1,1,1.0,1.0,0.475600462872535,0.0,1,2,7,8,4,5,nan,nan,nan,nan,nan,nan,nan,nan,nan,nan,nan,nan,0.0,nan,nan,nan,nan,nan,nan,nan,nan,nan,nan,nan,nan,nan,nan,nan,nan,nan,nan,248.18925318168476,419.77366149425507,nan,420.2492619571276,nan,nan,nan,nan
1,118,1,1,1.0,1.0,0.3551515615545213,0.0,7,5,2,3,8,6,nan,nan,nan,nan,nan,nan,nan,nan,nan,nan,nan,nan,0.0,nan,nan,nan,nan,nan,nan,nan,nan,nan,nan,nan,nan,nan,nan,nan,nan,nan,nan,248.18925318168476,420.78210233990103,nan,421.13725390145555,nan,nan,nan,nan
1,119,1,1,1.0,1.0,0.33899344503879547,0.0,3,7,1,0,6,2,nan,nan,nan,nan,nan,nan,nan,nan,nan,nan,nan,nan,0.0,nan,nan,nan,nan,nan,nan,nan,nan,nan,nan,nan,nan,nan,nan,nan,nan,nan,nan,248.18925318168476,421.78223947109655,nan,422.12123291613534,nan,nan,nan,nan
1,120,1,1,1.0,1.0,0.35483453422784805,0.0,4,3,6,1,5,7,nan,nan,nan,nan,nan,nan,nan,nan,nan,nan,nan,nan,0.0,nan,nan,nan,nan,nan,nan,nan,nan,nan,nan,nan,nan,nan,nan,nan,nan,nan,nan,248.18925318168476,422.78237118571997,nan,423.1372057199478,nan,nan,nan,nan
1,121,1,1,1.0,1.0,0.3543746741488576,0.0,6,1,2,5,3,8,nan,nan,nan,nan,nan,nan,nan,nan,nan,nan,nan,nan,0.0,nan,nan,nan,nan,nan,nan,nan,nan,nan,nan,nan,nan,nan,nan,nan,nan,nan,nan,248.18925318168476,423.7908071842976,nan,424.14518185844645,nan,nan,nan,nan
1,122,1,1,1.0,1.0,0.33021019864827394,0.0,3,4,0,8,6,2,nan,nan,nan,nan,nan,nan,nan,nan,nan,nan,nan,nan,0.0,nan,nan,nan,nan,nan,nan,nan,nan,nan,nan,nan,nan,nan,nan,nan,nan,nan,nan,248.18925318168476,424.79094431595877,nan,425.12115451460704,nan,nan,nan,nan
1,123,1,1,1.0,1.0,0.35407076170668006,0.0,1,6,8,5,0,3,nan,nan,nan,nan,nan,nan,nan,nan,nan,nan,nan,nan,0.0,nan,nan,nan,nan,nan,nan,nan,nan,nan,nan,nan,nan,nan,nan,nan,nan,nan,nan,248.18925318168476,425.79107203893363,nan,426.1451428006403,nan,nan,nan,nan
1,124,1,1,1.0,1.0,0.36991584254428744,0.0,7,1,2,6,4,0,nan,nan,nan,nan,nan,nan,nan,nan,nan,nan,nan,nan,0.0,nan,nan,nan,nan,nan,nan,nan,nan,nan,nan,nan,nan,nan,nan,nan,nan,nan,nan,248.18925318168476,426.791198621504,nan,427.1611144640483,nan,nan,nan,nan
1,125,0,0,0.0,1.0,0.6657719393260777,0.0,5,6,1,2,7,8,nan,nan,nan,nan,nan,nan,nan,nan,nan,nan,nan,nan,0.0,nan,nan,nan,nan,nan,nan,nan,nan,nan,nan,nan,nan,nan,nan,nan,nan,nan,nan,248.18925318168476,427.7913143709302,nan,428.4570863102563,nan,nan,nan,nan
1,126,1,1,1.0,1.0,0.6255839127115905,0.0,6,8,7,0,3,1,nan,nan,nan,nan,nan,nan,nan,nan,nan,nan,nan,nan,0.0,nan,nan,nan,nan,nan,nan,nan,nan,nan,nan,nan,nan,nan,nan,nan,nan,nan,nan,248.18925318168476,428.7914497917518,nan,429.4170337044634,nan,nan,nan,nan
1,127,1,1,1.0,1.0,0.6571243992075324,0.0,2,0,8,4,1,3,nan,nan,nan,nan,nan,nan,nan,nan,nan,nan,nan,nan,0.0,nan,nan,nan,nan,nan,nan,nan,nan,nan,nan,nan,nan,nan,nan,nan,nan,nan,nan,248.18925318168476,429.79990147054195,nan,430.4570258697495,nan,nan,nan,nan
1,128,1,1,1.0,1.0,0.440999467857182,0.0,6,3,2,5,8,4,nan,nan,nan,nan,nan,nan,nan,nan,nan,nan,nan,nan,0.0,nan,nan,nan,nan,nan,nan,nan,nan,nan,nan,nan,nan,nan,nan,nan,nan,nan,nan,248.18925318168476,430.8000283385627,nan,431.2410278064199,nan,nan,nan,nan
1,129,1,1,1.0,1.0,0.34486158145591617,0.0,4,8,6,1,5,3,nan,nan,nan,nan,nan,nan,nan,nan,nan,nan,nan,nan,0.0,nan,nan,nan,nan,nan,nan,nan,nan,nan,nan,nan,nan,nan,nan,nan,nan,nan,nan,248.18925318168476,431.8001446579583,nan,432.1450062394142,nan,nan,nan,nan
1,130,1,1,1.0,1.0,0.3527025845833123,0.0,8,6,4,2,1,7,nan,nan,nan,nan,nan,nan,nan,nan,nan,nan,nan,nan,0.0,nan,nan,nan,nan,nan,nan,nan,nan,nan,nan,nan,nan,nan,nan,nan,nan,nan,nan,248.18925318168476,432.80027523171157,nan,433.1529778162949,nan,nan,nan,nan
1,131,1,1,1.0,1.0,0.4482335005886853,0.0,6,0,1,4,2,8,nan,nan,nan,nan,nan,nan,nan,nan,nan,nan,nan,nan,0.0,nan,nan,nan,nan,nan,nan,nan,nan,nan,nan,nan,nan,nan,nan,nan,nan,nan,nan,248.18925318168476,433.80871066078544,nan,434.2569441613741,nan,nan,nan,nan
1,132,1,1,1.0,1.0,0.3277495326474309,0.0,5,7,4,8,1,2,nan,nan,nan,nan,nan,nan,nan,nan,nan,nan,nan,nan,0.0,nan,nan,nan,nan,nan,nan,nan,nan,nan,nan,nan,nan,nan,nan,nan,nan,nan,nan,248.18925318168476,434.817179445643,nan,435.1449289782904,nan,nan,nan,nan
1,133,1,1,1.0,1.0,0.3752716612070799,0.0,4,0,7,6,8,3,nan,nan,nan,nan,nan,nan,nan,nan,nan,nan,nan,nan,0.0,nan,nan,nan,nan,nan,nan,nan,nan,nan,nan,nan,nan,nan,nan,nan,nan,nan,nan,248.18925318168476,435.8256319798529,nan,436.20090364106,nan,nan,nan,nan
1,134,1,1,1.0,1.0,0.37511172192171216,0.0,0,6,8,2,5,7,nan,nan,nan,nan,nan,nan,nan,nan,nan,nan,nan,nan,0.0,nan,nan,nan,nan,nan,nan,nan,nan,nan,nan,nan,nan,nan,nan,nan,nan,nan,nan,248.18925318168476,436.8257642649114,nan,437.2008759868331,nan,nan,nan,nan
1,135,1,1,1.0,1.0,0.3269652328453958,0.0,3,2,6,7,8,1,nan,nan,nan,nan,nan,nan,nan,nan,nan,nan,nan,nan,0.0,nan,nan,nan,nan,nan,nan,nan,nan,nan,nan,nan,nan,nan,nan,nan,nan,nan,nan,248.18925318168476,437.8258860008791,nan,438.1528512337245,nan,nan,nan,nan
1,136,0,0,0.0,1.0,0.7188192340545356,0.0,1,6,4,0,3,5,nan,nan,nan,nan,nan,nan,nan,nan,nan,nan,nan,nan,0.0,nan,nan,nan,nan,nan,nan,nan,nan,nan,nan,nan,nan,nan,nan,nan,nan,nan,nan,248.18925318168476,438.8260111580603,nan,439.5448303921148,nan,nan,nan,nan
1,137,1,1,1.0,1.0,0.5103636775165796,0.0,0,7,5,4,1,3,nan,nan,nan,nan,nan,nan,nan,nan,nan,nan,nan,nan,0.0,nan,nan,nan,nan,nan,nan,nan,nan,nan,nan,nan,nan,nan,nan,nan,nan,nan,nan,248.18925318168476,439.8344272002578,nan,440.34479087777436,nan,nan,nan,nan
1,138,1,1,1.0,1.0,0.5258318609558046,0.0,7,1,0,2,4,8,nan,nan,nan,nan,nan,nan,nan,nan,nan,nan,nan,nan,0.0,nan,nan,nan,nan,nan,nan,nan,nan,nan,nan,nan,nan,nan,nan,nan,nan,nan,nan,248.18925318168476,440.842943596188,nan,441.3687754571438,nan,nan,nan,nan
1,139,1,1,1.0,1.0,0.43738815328106284,0.0,5,0,7,6,8,4,nan,nan,nan,nan,nan,nan,nan,nan,nan,nan,nan,nan,0.0,nan,nan,nan,nan,nan,nan,nan,nan,nan,nan,nan,nan,nan,nan,nan,nan,nan,nan,248.18925318168476,441.85138615220785,nan,442.2887743054889,nan,nan,nan,nan
1,140,1,1,1.0,1.0,0.34893304156139493,0.0,8,6,4,3,0,5,nan,nan,nan,nan,nan,nan,nan,nan,nan,nan,nan,nan,0.0,nan,nan,nan,nan,nan,nan,nan,nan,nan,nan,nan,nan,nan,nan,nan,nan,nan,nan,248.18925318168476,442.85982158081606,nan,443.20875462237746,nan,nan,nan,nan
1,141,0,0,0.0,1.0,0.500776459928602,0.0,4,1,3,6,5,7,nan,nan,nan,nan,nan,nan,nan,nan,nan,nan,nan,nan,0.0,nan,nan,nan,nan,nan,nan,nan,nan,nan,nan,nan,nan,nan,nan,nan,nan,nan,nan,248.18925318168476,443.85996412904933,nan,444.36074058897793,nan,nan,nan,nan
1,142,1,1,1.0,1.0,0.5322502334602177,0.0,7,0,6,2,3,8,nan,nan,nan,nan,nan,nan,nan,nan,nan,nan,nan,nan,0.0,nan,nan,nan,nan,nan,nan,nan,nan,nan,nan,nan,nan,nan,nan,nan,nan,nan,nan,248.18925318168476,444.8684223657474,nan,445.4006725992076,nan,nan,nan,nan
1,143,1,1,1.0,1.0,0.49977263575419784,0.0,5,1,2,3,8,6,nan,nan,nan,nan,nan,nan,nan,nan,nan,nan,nan,nan,0.0,nan,nan,nan,nan,nan,nan,nan,nan,nan,nan,nan,nan,nan,nan,nan,nan,nan,nan,248.18925318168476,445.8768760403618,nan,446.376648676116,nan,nan,nan,nan
1,144,1,1,1.0,1.0,0.44366141175851226,0.0,4,6,3,2,7,1,nan,nan,nan,nan,nan,nan,nan,nan,nan,nan,nan,nan,0.0,nan,nan,nan,nan,nan,nan,nan,nan,nan,nan,nan,nan,nan,nan,nan,nan,nan,nan,248.18925318168476,446.87699292972684,nan,447.32065434148535,nan,nan,nan,nan
1,145,1,1,1.0,1.0,0.38750799372792244,0.0,3,7,6,0,5,4,nan,nan,nan,nan,nan,nan,nan,nan,nan,nan,nan,nan,0.0,nan,nan,nan,nan,nan,nan,nan,nan,nan,nan,nan,nan,nan,nan,nan,nan,nan,nan,248.18925318168476,447.8771252143197,nan,448.2646332080476,nan,nan,nan,nan
1,146,1,1,1.0,1.0,0.347046559676528,0.0,0,4,2,5,3,6,nan,nan,nan,nan,nan,nan,nan,nan,nan,nan,nan,nan,0.0,nan,nan,nan,nan,nan,nan,nan,nan,nan,nan,nan,nan,nan,nan,nan,nan,nan,nan,248.18925318168476,448.8855746127665,nan,449.23262117244303,nan,nan,nan,nan
1,147,1,1,1.0,1.0,0.32257075840607285,0.0,6,2,3,0,7,5,nan,nan,nan,nan,nan,nan,nan,nan,nan,nan,nan,nan,0.0,nan,nan,nan,nan,nan,nan,nan,nan,nan,nan,nan,nan,nan,nan,nan,nan,nan,nan,248.18925318168476,449.89403741108254,nan,450.2166081694886,nan,nan,nan,nan
1,148,1,1,1.0,1.0,0.33840044448152184,0.0,8,1,7,4,0,2,nan,nan,nan,nan,nan,nan,nan,nan,nan,nan,nan,nan,0.0,nan,nan,nan,nan,nan,nan,nan,nan,nan,nan,nan,nan,nan,nan,nan,nan,nan,nan,248.18925318168476,450.8941611428745,nan,451.23256158735603,nan,nan,nan,nan
1,149,1,1,1.0,1.0,0.3059408077970147,0.0,2,5,6,0,3,8,nan,nan,nan,nan,nan,nan,nan,nan,nan,nan,nan,nan,0.0,nan,nan,nan,nan,nan,nan,nan,nan,nan,nan,nan,nan,nan,nan,nan,nan,nan,nan,248.18925318168476,451.9026054092683,nan,452.2085462170653,nan,nan,nan,nan
1,150,1,1,1.0,1.0,0.3134391251951456,0.0,5,6,7,2,4,3,nan,nan,nan,nan,nan,nan,nan,nan,nan,nan,nan,nan,0.0,nan,nan,nan,nan,nan,nan,nan,nan,nan,nan,nan,nan,nan,nan,nan,nan,nan,nan,248.18925318168476,452.9110753345303,nan,453.22451445972547,nan,nan,nan,nan
1,151,1,1,1.0,1.0,0.3369575724937022,0.0,3,2,1,5,8,0,nan,nan,nan,nan,nan,nan,nan,nan,nan,nan,nan,nan,0.0,nan,nan,nan,nan,nan,nan,nan,nan,nan,nan,nan,nan,nan,nan,nan,nan,nan,nan,248.18925318168476,453.9195352816023,nan,454.256492854096,nan,nan,nan,nan
1,152,1,1,1.0,1.0,0.312793951947242,0.0,1,0,2,8,5,7,nan,nan,nan,nan,nan,nan,nan,nan,nan,nan,nan,nan,0.0,nan,nan,nan,nan,nan,nan,nan,nan,nan,nan,nan,nan,nan,nan,nan,nan,nan,nan,248.18925318168476,454.91965872840956,nan,455.2324526803568,nan,nan,nan,nan
1,153,1,1,1.0,1.0,0.3523145685903728,0.0,8,3,0,4,7,1,nan,nan,nan,nan,nan,nan,nan,nan,nan,nan,nan,nan,0.0,nan,nan,nan,nan,nan,nan,nan,nan,nan,nan,nan,nan,nan,nan,nan,nan,nan,nan,248.18925318168476,455.9281135434285,nan,456.28042811201885,nan,nan,nan,nan
1,154,1,1,1.0,1.0,0.3358345776796341,0.0,0,1,4,3,2,8,nan,nan,nan,nan,nan,nan,nan,nan,nan,nan,nan,nan,0.0,nan,nan,nan,nan,nan,nan,nan,nan,nan,nan,nan,nan,nan,nan,nan,nan,nan,nan,248.18925318168476,456.9365789075382,nan,457.27241348521784,nan,nan,nan,nan
1,155,1,1,1.0,1.0,0.33537785382941365,0.0,8,4,7,0,6,5,nan,nan,nan,nan,nan,nan,nan,nan,nan,nan,nan,nan,0.0,nan,nan,nan,nan,nan,nan,nan,nan,nan,nan,nan,nan,nan,nan,nan,nan,nan,nan,248.18925318168476,457.9450245993212,nan,458.2804024531506,nan,nan,nan,nan
1,156,1,1,1.0,1.0,0.3191835302859545,0.0,6,5,2,1,3,4,nan,nan,nan,nan,nan,nan,nan,nan,nan,nan,nan,nan,0.0,nan,nan,nan,nan,nan,nan,nan,nan,nan,nan,nan,nan,nan,nan,nan,nan,nan,nan,248.18925318168476,458.9451816873625,nan,459.26436521764845,nan,nan,nan,nan
1,157,1,1,1.0,1.0,0.25505853444337845,0.0,2,1,7,6,4,0,nan,nan,nan,nan,nan,nan,nan,nan,nan,nan,nan,nan,0.0,nan,nan,nan,nan,nan,nan,nan,nan,nan,nan,nan,nan,nan,nan,nan,nan,nan,nan,248.18925318168476,459.94528432236984,nan,460.2003428568132,nan,nan,nan,nan
1,158,1,1,1.0,1.0,0.32692959578707814,0.0,8,3,1,7,5,2,nan,nan,nan,nan,nan,nan,nan,nan,nan,nan,nan,nan,0.0,nan,nan,nan,nan,nan,nan,nan,nan,nan,nan,nan,nan,nan,nan,nan,nan,nan,nan,248.18925318168476,460.9453915185295,nan,461.2723211143166,nan,nan,nan,nan
1,159,1,1,1.0,1.0,0.34277895325794816,0.0,4,1,5,0,3,6,nan,nan,nan,nan,nan,nan,nan,nan,nan,nan,nan,nan,0.0,nan,nan,nan,nan,nan,nan,nan,nan,nan,nan,nan,nan,nan,nan,nan,nan,nan,nan,248.18925318168476,461.9455121140927,nan,462.28829106735066,nan,nan,nan,nan
1,160,1,1,1.0,1.0,0.3186116265133023,0.0,6,5,1,7,2,4,nan,nan,nan,nan,nan,nan,nan,nan,nan,nan,nan,nan,0.0,nan,nan,nan,nan,nan,nan,nan,nan,nan,nan,nan,nan,nan,nan,nan,nan,nan,nan,248.18925318168476,462.9456495307386,nan,463.2642611572519,nan,nan,nan,nan
1,161,1,1,1.0,1.0,0.36647444497793913,0.0,1,0,8,3,7,6,nan,nan,nan,nan,nan,nan,nan,nan,nan,nan,nan,nan,0.0,nan,nan,nan,nan,nan,nan,nan,nan,nan,nan,nan,nan,nan,nan,nan,nan,nan,nan,248.18925318168476,463.9457709817216,nan,464.3122454266995,nan,nan,nan,nan
1,162,1,1,1.0,1.0,0.35037534357979894,0.0,8,3,7,0,4,2,nan,nan,nan,nan,nan,nan,nan,nan,nan,nan,nan,nan,0.0,nan,nan,nan,nan,nan,nan,nan,nan,nan,nan,nan,nan,nan,nan,nan,nan,nan,nan,248.18925318168476,464.94589756429195,nan,465.29627290787175,nan,nan,nan,nan
1,163,1,1,1.0,1.0,0.39819140639156103,0.0,3,5,0,7,2,6,nan,nan,nan,nan,nan,nan,nan,nan,nan,nan,nan,nan,0.0,nan,nan,nan,nan,nan,nan,nan,nan,nan,nan,nan,nan,nan,nan,nan,nan,nan,nan,248.18925318168476,465.94601815985516,nan,466.3442095662467,nan,nan,nan,nan
1,164,1,1,1.0,1.0,0.4380350364372134,0.0,8,7,5,2,6,3,nan,nan,nan,nan,nan,nan,nan,nan,nan,nan,nan,nan,0.0,nan,nan,nan,nan,nan,nan,nan,nan,nan,nan,nan,nan,nan,nan,nan,nan,nan,nan,248.18925318168476,466.9461450278759,nan,467.3841800643131,nan,nan,nan,nan
1,165,1,1,1.0,1.0,0.46989312022924423,0.0,4,0,6,1,3,5,nan,nan,nan,nan,nan,nan,nan,nan,nan,nan,nan,nan,0.0,nan,nan,nan,nan,nan,nan,nan,nan,nan,nan,nan,nan,nan,nan,nan,nan,nan,nan,248.18925318168476,467.9462650534697,nan,468.41615817369893,nan,nan,nan,nan
1,166,1,1,1.0,1.0,0.36575742810964584,0.0,5,3,1,6,8,2,nan,nan,nan,nan,nan,nan,nan,nan,nan,nan,nan,nan,0.0,nan,nan,nan,nan,nan,nan,nan,nan,nan,nan,nan,nan,nan,nan,nan,nan,nan,nan,248.18925318168476,468.94639106607065,nan,469.3121484941803,nan,nan,nan,nan
1,167,1,1,1.0,1.0,0.453591029625386,0.0,3,7,0,4,2,1,nan,nan,nan,nan,nan,nan,nan,nan,nan,nan,nan,nan,0.0,nan,nan,nan,nan,nan,nan,nan,nan,nan,nan,nan,nan,nan,nan,nan,nan,nan,nan,248.18925318168476,469.9465204998851,nan,470.40011152951047,nan,nan,nan,nan
1,168,1,1,1.0,1.0,0.37345645343884826,0.0,2,0,5,6,8,7,nan,nan,nan,nan,nan,nan,nan,nan,nan,nan,nan,nan,0.0,nan,nan,nan,nan,nan,nan,nan,nan,nan,nan,nan,nan,nan,nan,nan,nan,nan,nan,248.18925318168476,470.9466379592195,nan,471.32009441265836,nan,nan,nan,nan
1,169,1,1,1.0,1.0,0.43729293113574386,0.0,5,7,3,1,0,4,nan,nan,nan,nan,nan,nan,nan,nan,nan,nan,nan,nan,0.0,nan,nan,nan,nan,nan,nan,nan,nan,nan,nan,nan,nan,nan,nan,nan,nan,nan,nan,248.18925318168476,471.9467625464313,nan,472.384055477567,nan,nan,nan,nan
1,170,1,1,1.0,1.0,0.5088281487114727,0.0,6,8,2,4,3,7,nan,nan,nan,nan,nan,nan,nan,nan,nan,nan,nan,nan,0.0,nan,nan,nan,nan,nan,nan,nan,nan,nan,nan,nan,nan,nan,nan,nan,nan,nan,nan,248.18925318168476,472.95521992770955,nan,473.464048076421,nan,nan,nan,nan
1,171,1,1,1.0,1.0,0.5323691186495125,0.0,0,3,5,6,8,4,nan,nan,nan,nan,nan,nan,nan,nan,nan,nan,nan,nan,0.0,nan,nan,nan,nan,nan,nan,nan,nan,nan,nan,nan,nan,nan,nan,nan,nan,nan,nan,248.18925318168476,473.96366191329435,nan,474.49603103194386,nan,nan,nan,nan
1,172,0,0,0.0,1.0,0.6041860119439662,1.0,2,8,7,3,5,0,1.0,1.0,1.0,1.0,1.0,1.0,0.0,0.0,1.0,1.0,0.0,0.0,2.0,6.0,7.0,7.0,3.0,2.0,4.0,6.0,3.0,2.0,1.0,5.0,4.0,5.6710986783728,2.80829156935215,1.776765622664243,1.0951044126413763,4.598911160603166,3.7916533504612744,248.18925318168476,474.96380018489435,475.7721898271702,475.5679861968383,482.49802185967565,483.49733762815595,476.78899853350595,482.48969476716593
1,173,1,1,1.0,1.0,0.6052554077468812,0.0,3,6,4,7,0,5,nan,nan,nan,nan,nan,nan,nan,nan,nan,nan,nan,nan,0.0,nan,nan,nan,nan,nan,nan,nan,nan,nan,nan,nan,nan,nan,nan,nan,nan,nan,nan,248.18925318168476,483.70653329463676,nan,484.31178870238364,nan,nan,nan,nan
1,174,1,1,1.0,1.0,0.7170966821722686,0.0,0,1,8,2,3,6,nan,nan,nan,nan,nan,nan,nan,nan,nan,nan,nan,nan,0.0,nan,nan,nan,nan,nan,nan,nan,nan,nan,nan,nan,nan,nan,nan,nan,nan,nan,nan,248.18925318168476,484.70667612785473,nan,485.423772810027,nan,nan,nan,nan
1,175,1,1,1.0,1.0,0.47699059173464775,0.0,6,7,2,0,1,3,nan,nan,nan,nan,nan,nan,nan,nan,nan,nan,nan,nan,0.0,nan,nan,nan,nan,nan,nan,nan,nan,nan,nan,nan,nan,nan,nan,nan,nan,nan,nan,248.18925318168476,485.7068121191114,nan,486.18380271084607,nan,nan,nan,nan
1,176,1,1,1.0,1.0,0.6928053391166031,0.0,4,1,7,3,6,8,nan,nan,nan,nan,nan,nan,nan,nan,nan,nan,nan,nan,0.0,nan,nan,nan,nan,nan,nan,nan,nan,nan,nan,nan,nan,nan,nan,nan,nan,nan,nan,248.18925318168476,486.706916464027,nan,487.3997218031436,nan,nan,nan,nan
1,177,1,1,1.0,1.0,0.6526549444533885,0.0,1,8,0,5,4,3,nan,nan,nan,nan,nan,nan,nan,nan,nan,nan,nan,nan,0.0,nan,nan,nan,nan,nan,nan,nan,nan,nan,nan,nan,nan,nan,nan,nan,nan,nan,nan,248.18925318168476,487.70704162167385,nan,488.35969656612724,nan,nan,nan,nan
1,178,1,1,1.0,1.0,0.5005147415213287,0.0,7,4,5,0,2,8,nan,nan,nan,nan,nan,nan,nan,nan,nan,nan,nan,nan,0.0,nan,nan,nan,nan,nan,nan,nan,nan,nan,nan,nan,nan,nan,nan,nan,nan,nan,nan,248.18925318168476,488.70716592343524,nan,489.20768066495657,nan,nan,nan,nan
1,179,1,1,1.0,1.0,0.5083640119992197,0.0,8,7,0,3,5,1,nan,nan,nan,nan,nan,nan,nan,nan,nan,nan,nan,nan,0.0,nan,nan,nan,nan,nan,nan,nan,nan,nan,nan,nan,nan,nan,nan,nan,nan,nan,nan,248.18925318168476,489.707290510647,nan,490.2156545226462,nan,nan,nan,nan
1,180,1,1,1.0,1.0,0.37223082408308983,0.0,6,8,5,7,3,2,nan,nan,nan,nan,nan,nan,nan,nan,nan,nan,nan,nan,0.0,nan,nan,nan,nan,nan,nan,nan,nan,nan,nan,nan,nan,nan,nan,nan,nan,nan,nan,248.18925318168476,490.7074048342183,nan,491.0796356583014,nan,nan,nan,nan
1,181,1,1,1.0,1.0,0.372068889439106,0.0,3,0,2,4,5,8,nan,nan,nan,nan,nan,nan,nan,nan,nan,nan,nan,nan,0.0,nan,nan,nan,nan,nan,nan,nan,nan,nan,nan,nan,nan,nan,nan,nan,nan,nan,nan,248.18925318168476,491.70756106683984,nan,492.07962995627895,nan,nan,nan,nan
1,182,1,1,1.0,1.0,0.3396212267689407,0.0,0,8,6,5,3,7,nan,nan,nan,nan,nan,nan,nan,nan,nan,nan,nan,nan,0.0,nan,nan,nan,nan,nan,nan,nan,nan,nan,nan,nan,nan,nan,nan,nan,nan,nan,nan,248.18925318168476,492.7159805302508,nan,493.05560175701976,nan,nan,nan,nan
1,183,1,1,1.0,1.0,0.3634353191591799,0.0,8,7,4,1,0,6,nan,nan,nan,nan,nan,nan,nan,nan,nan,nan,nan,nan,0.0,nan,nan,nan,nan,nan,nan,nan,nan,nan,nan,nan,nan,nan,nan,nan,nan,nan,nan,248.18925318168476,493.71611195942387,nan,494.07954727858305,nan,nan,nan,nan
1,184,1,1,1.0,1.0,0.2909607090987265,0.0,7,3,0,8,2,4,nan,nan,nan,nan,nan,nan,nan,nan,nan,nan,nan,nan,0.0,nan,nan,nan,nan,nan,nan,nan,nan,nan,nan,nan,nan,nan,nan,nan,nan,nan,nan,248.18925318168476,494.72456734487787,nan,495.0155280539766,nan,nan,nan,nan
1,185,1,1,1.0,1.0,0.2744992496445775,0.0,0,2,7,6,1,3,nan,nan,nan,nan,nan,nan,nan,nan,nan,nan,nan,nan,0.0,nan,nan,nan,nan,nan,nan,nan,nan,nan,nan,nan,nan,nan,nan,nan,nan,nan,nan,248.18925318168476,495.73300419934094,nan,496.0075034489855,nan,nan,nan,nan
1,186,1,1,1.0,1.0,0.3543455940671265,0.0,1,8,2,5,7,6,nan,nan,nan,nan,nan,nan,nan,nan,nan,nan,nan,nan,0.0,nan,nan,nan,nan,nan,nan,nan,nan,nan,nan,nan,nan,nan,nan,nan,nan,nan,nan,248.18925318168476,496.7331507387571,nan,497.08749633282423,nan,nan,nan,nan
1,187,1,1,1.0,1.0,0.40218731574714184,0.0,8,7,1,6,3,4,nan,nan,nan,nan,nan,nan,nan,nan,nan,nan,nan,nan,0.0,nan,nan,nan,nan,nan,nan,nan,nan,nan,nan,nan,nan,nan,nan,nan,nan,nan,nan,248.18925318168476,497.7332750405185,nan,498.13546235626563,nan,nan,nan,nan
1,188,0,0,0.0,1.0,0.6340316003188491,1.0,1,3,6,0,8,7,1.0,1.0,1.0,1.0,1.0,1.0,0.0,0.0,0.0,1.0,0.0,0.0,1.0,6.0,1.0,3.0,0.0,7.0,5.0,4.0,3.0,2.0,1.0,6.0,5.0,5.51695424830541,4.359004352707416,3.646111130248755,2.1494594435207546,7.292708063963801,6.42078785225749,248.18925318168476,498.7334016235545,499.54179981863126,499.3674332238734,507.89281748374924,508.8935724189505,500.55859712092206,507.8844872559421
1,189,1,1,1.0,1.0,0.5938569735735655,0.0,6,4,8,7,3,1,nan,nan,nan,nan,nan,nan,nan,nan,nan,nan,nan,nan,0.0,nan,nan,nan,nan,nan,nan,nan,nan,nan,nan,nan,nan,nan,nan,nan,nan,nan,nan,248.18925318168476,509.10134174861014,nan,509.6951987221837,nan,nan,nan,nan
1,190,1,1,1.0,1.0,0.4337166831828654,0.0,1,0,2,5,7,3,nan,nan,nan,nan,nan,nan,nan,nan,nan,nan,nan,nan,0.0,nan,nan,nan,nan,nan,nan,nan,nan,nan,nan,nan,nan,nan,nan,nan,nan,nan,nan,248.18925318168476,510.1014472343959,nan,510.53516391757876,nan,nan,nan,nan
1,191,1,1,1.0,1.0,0.39357085060328245,0.0,3,2,0,4,5,8,nan,nan,nan,nan,nan,nan,nan,nan,nan,nan,nan,nan,0.0,nan,nan,nan,nan,nan,nan,nan,nan,nan,nan,nan,nan,nan,nan,nan,nan,nan,nan,248.18925318168476,511.1015866464004,nan,511.4951574970037,nan,nan,nan,nan
1,192,1,1,1.0,1.0,0.3613943145610392,0.0,2,0,6,5,1,3,nan,nan,nan,nan,nan,nan,nan,nan,nan,nan,nan,nan,0.0,nan,nan,nan,nan,nan,nan,nan,nan,nan,nan,nan,nan,nan,nan,nan,nan,nan,nan,248.18925318168476,512.1017520022579,nan,512.4631463168189,nan,nan,nan,nan
1,193,1,1,1.0,1.0,0.37691980274394155,0.0,6,8,2,3,5,7,nan,nan,nan,nan,nan,nan,nan,nan,nan,nan,nan,nan,0.0,nan,nan,nan,nan,nan,nan,nan,nan,nan,nan,nan,nan,nan,nan,nan,nan,nan,nan,248.18925318168476,513.1101717506535,nan,513.4870915533975,nan,nan,nan,nan
1,194,1,1,1.0,1.0,0.3527866876684129,0.0,8,5,3,2,4,6,nan,nan,nan,nan,nan,nan,nan,nan,nan,nan,nan,nan,0.0,nan,nan,nan,nan,nan,nan,nan,nan,nan,nan,nan,nan,nan,nan,nan,nan,nan,nan,248.18925318168476,514.110294342041,nan,514.4630810297094,nan,nan,nan,nan
1,195,0,0,0.0,1.0,0.6486638821661472,1.0,4,0,6,5,1,3,1.0,1.0,1.0,1.0,1.0,1.0,1.0,1.0,1.0,1.0,0.0,1.0,5.0,4.0,0.0,6.0,5.0,2.0,3.0,4.0,3.0,2.0,1.0,6.0,5.0,3.5243724533356726,2.6839625076390803,1.7873253035359085,1.092837041709572,6.81111744325608,5.659366111271083,248.18925318168476,515.1103992573917,515.9188179792836,515.7590631395578,523.7947819968686,524.8052179459482,516.9439520672895,523.7864551898092
1,196,1,1,1.0,1.0,0.5072153592482209,0.0,5,7,4,0,3,8,nan,nan,nan,nan,nan,nan,nan,nan,nan,nan,nan,nan,0.0,nan,nan,nan,nan,nan,nan,nan,nan,nan,nan,nan,nan,nan,nan,nan,nan,nan,nan,248.18925318168476,525.0116353491321,nan,525.5188507083803,nan,nan,nan,nan
1,197,1,1,1.0,1.0,0.3950644703581929,0.0,7,1,0,6,4,2,nan,nan,nan,nan,nan,nan,nan,nan,nan,nan,nan,nan,0.0,nan,nan,nan,nan,nan,nan,nan,nan,nan,nan,nan,nan,nan,nan,nan,nan,nan,nan,248.18925318168476,526.0117505281232,nan,526.4068149984814,nan,nan,nan,nan
1,198,1,1,1.0,1.0,0.48259415943175554,0.0,6,7,4,1,3,5,nan,nan,nan,nan,nan,nan,nan,nan,nan,nan,nan,nan,0.0,nan,nan,nan,nan,nan,nan,nan,nan,nan,nan,nan,nan,nan,nan,nan,nan,nan,nan,248.18925318168476,527.0201985011809,nan,527.5027926606126,nan,nan,nan,nan
1,199,1,1,1.0,1.0,0.40242993272840977,0.0,0,4,2,5,7,3,nan,nan,nan,nan,nan,nan,nan,nan,nan,nan,nan,nan,0.0,nan,nan,nan,nan,nan,nan,nan,nan,nan,nan,nan,nan,nan,nan,nan,nan,nan,nan,248.18925318168476,528.0203381981701,nan,528.4227681308985,nan,nan,nan,nan
1,200,1,1,1.0,1.0,0.6019497164525092,0.0,8,0,3,7,6,5,nan,nan,nan,nan,nan,nan,nan,nan,nan,nan,nan,nan,0.0,nan,nan,nan,nan,nan,nan,nan,nan,nan,nan,nan,nan,nan,nan,nan,nan,nan,nan,248.18925318168476,529.0287941540591,nan,529.6307438705117,nan,nan,nan,nan
1,201,1,1,1.0,1.0,0.42580241058021784,0.0,5,6,2,0,1,4,nan,nan,nan,nan,nan,nan,nan,nan,nan,nan,nan,nan,0.0,nan,nan,nan,nan,nan,nan,nan,nan,nan,nan,nan,nan,nan,nan,nan,nan,nan,nan,248.18925318168476,530.0289267236367,nan,530.4547291342169,nan,nan,nan,nan
1,202,1,1,1.0,1.0,0.3696641023270786,0.0,0,7,3,6,2,5,nan,nan,nan,nan,nan,nan,nan,nan,nan,nan,nan,nan,0.0,nan,nan,nan,nan,nan,nan,nan,nan,nan,nan,nan,nan,nan,nan,nan,nan,nan,nan,248.18925318168476,531.0290453238413,nan,531.3987094261684,nan,nan,nan,nan
1,203,1,1,1.0,1.0,0.32120429212227464,0.0,2,0,1,4,3,6,nan,nan,nan,nan,nan,nan,nan,nan,nan,nan,nan,nan,0.0,nan,nan,nan,nan,nan,nan,nan,nan,nan,nan,nan,nan,nan,nan,nan,nan,nan,nan,248.18925318168476,532.037484173663,nan,532.3586884657852,nan,nan,nan,nan
1,204,0,0,0.0,1.0,0.49703713692724705,1.0,7,4,8,2,0,3,1.0,1.0,1.0,1.0,1.0,1.0,1.0,1.0,0.0,1.0,0.0,1.0,4.0,7.0,4.0,0.0,2.0,6.0,3.0,2.0,3.0,4.0,1.0,5.0,6.0,1.9814319643191993,3.5877382368780673,5.156614219304174,0.9558517006225884,6.900704672560096,8.091852318961173,248.18925318168476,533.0376210198738,533.8460240615532,533.534658156801,542.9971456159838,544.0083881025203,534.8628418911248,542.9888216601685
1,205,1,1,1.0,1.0,0.31241192296147346,0.0,8,5,3,4,7,0,nan,nan,nan,nan,nan,nan,nan,nan,nan,nan,nan,nan,0.0,nan,nan,nan,nan,nan,nan,nan,nan,nan,nan,nan,nan,nan,nan,nan,nan,nan,nan,248.18925318168476,544.2140032448806,nan,544.5264151678421,nan,nan,nan,nan
1,206,0,0,0.0,1.0,0.6642432529479265,0.0,7,3,4,6,8,2,nan,nan,nan,nan,nan,nan,nan,nan,nan,nan,nan,nan,0.0,nan,nan,nan,nan,nan,nan,nan,nan,nan,nan,nan,nan,nan,nan,nan,nan,nan,nan,248.18925318168476,545.2141289724968,nan,545.8783722254448,nan,nan,nan,nan
1,207,1,1,1.0,1.0,0.5517856008373201,0.0,6,2,0,8,3,1,nan,nan,nan,nan,nan,nan,nan,nan,nan,nan,nan,nan,0.0,nan,nan,nan,nan,nan,nan,nan,nan,nan,nan,nan,nan,nan,nan,nan,nan,nan,nan,248.18925318168476,546.2225364614278,nan,546.7743220622651,nan,nan,nan,nan
1,208,1,1,1.0,1.0,0.3516237800940871,0.0,8,1,6,3,7,2,nan,nan,nan,nan,nan,nan,nan,nan,nan,nan,nan,nan,0.0,nan,nan,nan,nan,nan,nan,nan,nan,nan,nan,nan,nan,nan,nan,nan,nan,nan,nan,248.18925318168476,547.2227106555365,nan,547.5743344356306,nan,nan,nan,nan
1,209,1,1,1.0,1.0,0.34312620060518384,0.0,5,4,8,2,0,6,nan,nan,nan,nan,nan,nan,nan,nan,nan,nan,nan,nan,0.0,nan,nan,nan,nan,nan,nan,nan,nan,nan,nan,nan,nan,nan,nan,nan,nan,nan,nan,248.18925318168476,548.2311534965411,nan,548.5742796971463,nan,nan,nan,nan
1,210,1,1,1.0,1.0,0.35868361918255687,0.0,4,6,2,0,1,8,nan,nan,nan,nan,nan,nan,nan,nan,nan,nan,nan,nan,0.0,nan,nan,nan,nan,nan,nan,nan,nan,nan,nan,nan,nan,nan,nan,nan,nan,nan,nan,248.18925318168476,549.2396120182239,nan,549.5982956374064,nan,nan,nan,nan
1,211,1,1,1.0,1.0,0.43019061209633946,0.0,0,7,6,3,8,5,nan,nan,nan,nan,nan,nan,nan,nan,nan,nan,nan,nan,0.0,nan,nan,nan,nan,nan,nan,nan,nan,nan,nan,nan,nan,nan,nan,nan,nan,nan,nan,248.18925318168476,550.248061131686,nan,550.6782517437823,nan,nan,nan,nan
1,212,1,1,1.0,1.0,0.35001526679843664,0.0,1,3,0,8,7,6,nan,nan,nan,nan,nan,nan,nan,nan,nan,nan,nan,nan,0.0,nan,nan,nan,nan,nan,nan,nan,nan,nan,nan,nan,nan,nan,nan,nan,nan,nan,nan,248.18925318168476,551.2482042498887,nan,551.5982195166871,nan,nan,nan,nan
1,213,1,1,1.0,1.0,0.4135358580388129,0.0,3,5,8,6,2,1,nan,nan,nan,nan,nan,nan,nan,nan,nan,nan,nan,nan,0.0,nan,nan,nan,nan,nan,nan,nan,nan,nan,nan,nan,nan,nan,nan,nan,nan,nan,nan,248.18925318168476,552.256652507931,nan,552.6701883659698,nan,nan,nan,nan
1,214,1,1,1.0,1.0,0.3493980332277715,0.0,2,6,3,4,0,7,nan,nan,nan,nan,nan,nan,nan,nan,nan,nan,nan,nan,0.0,nan,nan,nan,nan,nan,nan,nan,nan,nan,nan,nan,nan,nan,nan,nan,nan,nan,nan,248.18925318168476,553.2567856479436,nan,553.6061836811714,nan,nan,nan,nan
1,215,0,0,0.0,1.0,0.5732239857316017,1.0,7,4,0,3,2,5,1.0,1.0,1.0,1.0,1.0,1.0,0.0,1.0,1.0,0.0,0.0,0.0,2.0,6.0,4.0,0.0,6.0,8.0,2.0,4.0,1.0,2.0,3.0,6.0,5.0,5.664690284058452,2.962594797834754,3.8016890245489776,4.745513368397951,7.480162858497351,6.599965446162969,248.18925318168476,554.2569108051248,555.0653024427593,554.8301347908564,563.5996977407485,564.5999104226939,556.0821080133319,563.5913638062775
1,216,1,1,1.0,1.0,0.3577370992861688,0.0,0,7,6,5,8,1,nan,nan,nan,nan,nan,nan,nan,nan,nan,nan,nan,nan,0.0,nan,nan,nan,nan,nan,nan,nan,nan,nan,nan,nan,nan,nan,nan,nan,nan,nan,nan,248.18925318168476,564.8082026191987,nan,565.1659397184849,nan,nan,nan,nan
1,217,1,1,1.0,1.0,0.35724103217944503,0.0,7,0,2,8,5,3,nan,nan,nan,nan,nan,nan,nan,nan,nan,nan,nan,nan,0.0,nan,nan,nan,nan,nan,nan,nan,nan,nan,nan,nan,nan,nan,nan,nan,nan,nan,nan,248.18925318168476,565.8166585746221,nan,566.1738996068016,nan,nan,nan,nan
1,218,0,0,nan,nan,nan,1.0,4,7,6,5,8,1,1.0,1.0,1.0,1.0,1.0,1.0,0.0,0.0,0.0,0.0,0.0,1.0,1.0,3.0,5.0,4.0,6.0,0.0,1.0,4.0,2.0,3.0,1.0,6.0,5.0,5.665207733865827,2.5306491325609386,3.3459902773611248,1.6405095579102635,7.432053431402892,6.688144014682621,248.18925318168476,566.8167971316725,567.6251973221079,nan,576.1012382586487,577.1108613982797,568.6336578396149,576.0928986221552
1,219,1,1,1.0,1.0,0.3994911601766944,0.0,1,0,8,4,6,2,nan,nan,nan,nan,nan,nan,nan,nan,nan,nan,nan,nan,0.0,nan,nan,nan,nan,nan,nan,nan,nan,nan,nan,nan,nan,nan,nan,nan,nan,nan,nan,248.18925318168476,577.318135230802,nan,577.7176263909787,nan,nan,nan,nan
1,220,1,1,1.0,1.0,0.767387380823493,0.0,2,1,0,8,3,6,nan,nan,nan,nan,nan,nan,nan,nan,nan,nan,nan,nan,0.0,nan,nan,nan,nan,nan,nan,nan,nan,nan,nan,nan,nan,nan,nan,nan,nan,nan,nan,248.18925318168476,578.318209355697,nan,579.0855967365205,nan,nan,nan,nan
1,221,1,1,1.0,1.0,0.455253426451236,0.0,1,3,6,0,7,5,nan,nan,nan,nan,nan,nan,nan,nan,nan,nan,nan,nan,0.0,nan,nan,nan,nan,nan,nan,nan,nan,nan,nan,nan,nan,nan,nan,nan,nan,nan,nan,248.18925318168476,579.3183302367106,nan,579.7735836631618,nan,nan,nan,nan
1,222,1,1,1.0,1.0,0.5107725053094327,0.0,0,5,3,7,4,8,nan,nan,nan,nan,nan,nan,nan,nan,nan,nan,nan,nan,0.0,nan,nan,nan,nan,nan,nan,nan,nan,nan,nan,nan,nan,nan,nan,nan,nan,nan,nan,248.18925318168476,580.3267662357539,nan,580.8375387410633,nan,nan,nan,nan
1,223,1,1,1.0,1.0,0.5266181565821171,0.0,7,3,4,8,6,2,nan,nan,nan,nan,nan,nan,nan,nan,nan,nan,nan,nan,0.0,nan,nan,nan,nan,nan,nan,nan,nan,nan,nan,nan,nan,nan,nan,nan,nan,nan,nan,248.18925318168476,581.3269013711251,nan,581.8535195277072,nan,nan,nan,nan
1,224,1,1,1.0,1.0,0.486147029325366,0.0,0,2,3,1,8,5,nan,nan,nan,nan,nan,nan,nan,nan,nan,nan,nan,nan,0.0,nan,nan,nan,nan,nan,nan,nan,nan,nan,nan,nan,nan,nan,nan,nan,nan,nan,nan,248.18925318168476,582.3353550462052,nan,582.8215020755306,nan,nan,nan,nan
1,225,1,1,1.0,1.0,0.46168263256549835,0.0,8,6,0,4,3,1,nan,nan,nan,nan,nan,nan,nan,nan,nan,nan,nan,nan,0.0,nan,nan,nan,nan,nan,nan,nan,nan,nan,nan,nan,nan,nan,nan,nan,nan,nan,nan,248.18925318168476,583.3438152782619,nan,583.8054979108274,nan,nan,nan,nan
1,226,1,1,1.0,1.0,0.3975197193212807,0.0,4,7,3,6,5,0,nan,nan,nan,nan,nan,nan,nan,nan,nan,nan,nan,nan,0.0,nan,nan,nan,nan,nan,nan,nan,nan,nan,nan,nan,nan,nan,nan,nan,nan,nan,nan,248.18925318168476,584.3439509840682,nan,584.7414707033895,nan,nan,nan,nan
1,227,1,1,1.0,1.0,0.3814077884890139,0.0,3,0,8,2,1,7,nan,nan,nan,nan,nan,nan,nan,nan,nan,nan,nan,nan,0.0,nan,nan,nan,nan,nan,nan,nan,nan,nan,nan,nan,nan,nan,nan,nan,nan,nan,nan,248.18925318168476,585.3440464911982,nan,585.7254542796873,nan,nan,nan,nan
1,228,1,1,1.0,1.0,0.4052347098477185,0.0,4,2,7,0,5,6,nan,nan,nan,nan,nan,nan,nan,nan,nan,nan,nan,nan,0.0,nan,nan,nan,nan,nan,nan,nan,nan,nan,nan,nan,nan,nan,nan,nan,nan,nan,nan,248.18925318168476,586.3441904648207,nan,586.7494251746684,nan,nan,nan,nan
1,229,1,1,1.0,1.0,0.3170818001963198,0.0,1,0,3,6,4,5,nan,nan,nan,nan,nan,nan,nan,nan,nan,nan,nan,nan,0.0,nan,nan,nan,nan,nan,nan,nan,nan,nan,nan,nan,nan,nan,nan,nan,nan,nan,nan,248.18925318168476,587.3443221794441,nan,587.6614039796405,nan,nan,nan,nan
1,230,0,0,0.0,1.0,0.6129310550168157,0.0,2,3,1,4,6,8,nan,nan,nan,nan,nan,nan,nan,nan,nan,nan,nan,nan,0.0,nan,nan,nan,nan,nan,nan,nan,nan,nan,nan,nan,nan,nan,nan,nan,nan,nan,nan,248.18925318168476,588.3444393537939,nan,588.9573704088107,nan,nan,nan,nan
1,231,1,1,1.0,1.0,0.5724371201358736,0.0,6,0,3,5,2,1,nan,nan,nan,nan,nan,nan,nan,nan,nan,nan,nan,nan,0.0,nan,nan,nan,nan,nan,nan,nan,nan,nan,nan,nan,nan,nan,nan,nan,nan,nan,nan,248.18925318168476,589.3528804844245,nan,589.9253176045604,nan,nan,nan,nan
1,232,1,1,1.0,1.0,0.34799421951174736,0.0,7,6,1,2,5,8,nan,nan,nan,nan,nan,nan,nan,nan,nan,nan,nan,nan,0.0,nan,nan,nan,nan,nan,nan,nan,nan,nan,nan,nan,nan,nan,nan,nan,nan,nan,nan,248.18925318168476,590.3613586775027,nan,590.7093528970145,nan,nan,nan,nan
1,233,1,1,1.0,1.0,0.35550422547385097,0.0,8,7,2,3,6,0,nan,nan,nan,nan,nan,nan,nan,nan,nan,nan,nan,nan,0.0,nan,nan,nan,nan,nan,nan,nan,nan,nan,nan,nan,nan,nan,nan,nan,nan,nan,nan,248.18925318168476,591.3698157737963,nan,591.7253199992701,nan,nan,nan,nan
1,234,1,1,1.0,1.0,0.35501642571762204,0.0,3,2,5,1,8,7,nan,nan,nan,nan,nan,nan,nan,nan,nan,nan,nan,nan,0.0,nan,nan,nan,nan,nan,nan,nan,nan,nan,nan,nan,nan,nan,nan,nan,nan,nan,nan,248.18925318168476,592.3782825628296,nan,592.7332989885472,nan,nan,nan,nan
1,235,1,1,1.0,1.0,0.3305346383713186,0.0,1,8,6,4,2,0,nan,nan,nan,nan,nan,nan,nan,nan,nan,nan,nan,nan,0.0,nan,nan,nan,nan,nan,nan,nan,nan,nan,nan,nan,nan,nan,nan,nan,nan,nan,nan,248.18925318168476,593.3867288250476,nan,593.7172634634189,nan,nan,nan,nan
1,236,1,1,1.0,1.0,0.37039679987356067,0.0,4,5,7,0,1,2,nan,nan,nan,nan,nan,nan,nan,nan,nan,nan,nan,nan,0.0,nan,nan,nan,nan,nan,nan,nan,nan,nan,nan,nan,nan,nan,nan,nan,nan,nan,nan,248.18925318168476,594.3868542676792,nan,594.7572510675527,nan,nan,nan,nan
1,237,1,1,1.0,1.0,0.3542133094742894,0.0,1,2,6,5,3,7,nan,nan,nan,nan,nan,nan,nan,nan,nan,nan,nan,nan,0.0,nan,nan,nan,nan,nan,nan,nan,nan,nan,nan,nan,nan,nan,nan,nan,nan,nan,nan,248.18925318168476,595.386993394699,nan,595.7412067041732,nan,nan,nan,nan
1,238,1,1,1.0,1.0,0.32211916614323854,0.0,3,6,0,4,8,2,nan,nan,nan,nan,nan,nan,nan,nan,nan,nan,nan,nan,0.0,nan,nan,nan,nan,nan,nan,nan,nan,nan,nan,nan,nan,nan,nan,nan,nan,nan,nan,248.18925318168476,596.3870723661967,nan,596.7091915323399,nan,nan,nan,nan
1,239,1,1,1.0,1.0,0.3139371881261468,0.0,4,1,5,2,6,3,nan,nan,nan,nan,nan,nan,nan,nan,nan,nan,nan,nan,0.0,nan,nan,nan,nan,nan,nan,nan,nan,nan,nan,nan,nan,nan,nan,nan,nan,nan,nan,248.18925318168476,597.3872246076353,nan,597.7011617957614,nan,nan,nan,nan
1,240,1,1,1.0,1.0,0.30584558565169573,0.0,0,7,6,3,5,4,nan,nan,nan,nan,nan,nan,nan,nan,nan,nan,nan,nan,0.0,nan,nan,nan,nan,nan,nan,nan,nan,nan,nan,nan,nan,nan,nan,nan,nan,nan,nan,248.18925318168476,598.3873166935518,nan,598.6931622792035,nan,nan,nan,nan
1,241,1,1,1.0,1.0,0.2893370855599642,0.0,7,2,8,5,6,1,nan,nan,nan,nan,nan,nan,nan,nan,nan,nan,nan,nan,0.0,nan,nan,nan,nan,nan,nan,nan,nan,nan,nan,nan,nan,nan,nan,nan,nan,nan,nan,248.18925318168476,599.3957957420498,nan,599.6851328276098,nan,nan,nan,nan
1,242,1,1,1.0,1.0,0.29717780370265245,0.0,6,4,5,3,1,0,nan,nan,nan,nan,nan,nan,nan,nan,nan,nan,nan,nan,0.0,nan,nan,nan,nan,nan,nan,nan,nan,nan,nan,nan,nan,nan,nan,nan,nan,nan,nan,248.18925318168476,600.3959325882606,nan,600.6931103919633,nan,nan,nan,nan
1,243,1,1,1.0,1.0,0.24901335313916206,0.0,7,8,2,4,0,6,nan,nan,nan,nan,nan,nan,nan,nan,nan,nan,nan,nan,0.0,nan,nan,nan,nan,nan,nan,nan,nan,nan,nan,nan,nan,nan,nan,nan,nan,nan,nan,248.18925318168476,601.3960611666553,nan,601.6450745197944,nan,nan,nan,nan
1,244,1,1,0.0,0.0,0.4808576377108693,0.0,8,3,0,1,5,7,nan,nan,nan,nan,nan,nan,nan,nan,nan,nan,nan,nan,0.0,nan,nan,nan,nan,nan,nan,nan,nan,nan,nan,nan,nan,nan,nan,nan,nan,nan,nan,248.18925318168476,602.396175775677,nan,602.8770334133878,nan,nan,nan,nan
1,245,1,1,1.0,1.0,0.5447135027498007,0.0,2,8,4,3,6,5,nan,nan,nan,nan,nan,nan,nan,nan,nan,nan,nan,nan,0.0,nan,nan,nan,nan,nan,nan,nan,nan,nan,nan,nan,nan,nan,nan,nan,nan,nan,nan,248.18925318168476,603.396304924041,nan,603.9410184267908,nan,nan,nan,nan
1,246,1,1,1.0,1.0,0.5045645339414477,0.0,1,3,2,0,4,8,nan,nan,nan,nan,nan,nan,nan,nan,nan,nan,nan,nan,0.0,nan,nan,nan,nan,nan,nan,nan,nan,nan,nan,nan,nan,nan,nan,nan,nan,nan,nan,248.18925318168476,604.3964246646501,nan,604.9009891985916,nan,nan,nan,nan
1,247,1,1,1.0,1.0,0.3764014979824424,0.0,8,1,6,5,3,7,nan,nan,nan,nan,nan,nan,nan,nan,nan,nan,nan,nan,0.0,nan,nan,nan,nan,nan,nan,nan,nan,nan,nan,nan,nan,nan,nan,nan,nan,nan,nan,248.18925318168476,605.396550106816,nan,605.7729516047984,nan,nan,nan,nan
1,248,1,1,1.0,1.0,0.5759495059028268,0.0,2,7,0,8,4,5,nan,nan,nan,nan,nan,nan,nan,nan,nan,nan,nan,nan,0.0,nan,nan,nan,nan,nan,nan,nan,nan,nan,nan,nan,nan,nan,nan,nan,nan,nan,nan,248.18925318168476,606.4050049223006,nan,606.9809544282034,nan,nan,nan,nan
1,249,1,1,1.0,1.0,0.4477907461114228,0.0,0,2,1,3,6,4,nan,nan,nan,nan,nan,nan,nan,nan,nan,nan,nan,nan,0.0,nan,nan,nan,nan,nan,nan,nan,nan,nan,nan,nan,nan,nan,nan,nan,nan,nan,nan,248.18925318168476,607.4051349260844,nan,607.8529256721959,nan,nan,nan,nan
1,250,0,0,1.0,0.0,0.3356595286168158,0.0,1,8,7,0,4,2,nan,nan,nan,nan,nan,nan,nan,nan,nan,nan,nan,nan,0.0,nan,nan,nan,nan,nan,nan,nan,nan,nan,nan,nan,nan,nan,nan,nan,nan,nan,nan,248.18925318168476,608.4052546666935,nan,608.7409141953103,nan,nan,nan,nan
1,251,1,1,0.0,0.0,0.20718431239947677,0.0,4,2,5,1,8,7,nan,nan,nan,nan,nan,nan,nan,nan,nan,nan,nan,nan,0.0,nan,nan,nan,nan,nan,nan,nan,nan,nan,nan,nan,nan,nan,nan,nan,nan,nan,nan,248.18925318168476,609.4137052050792,nan,609.6208895174786,nan,nan,nan,nan
1,252,1,1,1.0,1.0,0.6470165960490704,0.0,7,0,4,5,3,2,nan,nan,nan,nan,nan,nan,nan,nan,nan,nan,nan,nan,0.0,nan,nan,nan,nan,nan,nan,nan,nan,nan,nan,nan,nan,nan,nan,nan,nan,nan,nan,248.18925318168476,610.4138417663053,nan,611.0608583623543,nan,nan,nan,nan
1,253,1,1,1.0,1.0,0.3348894836381078,0.0,1,4,0,6,5,8,nan,nan,nan,nan,nan,nan,nan,nan,nan,nan,nan,nan,0.0,nan,nan,nan,nan,nan,nan,nan,nan,nan,nan,nan,nan,nan,nan,nan,nan,nan,nan,248.18925318168476,611.4139555199072,nan,611.7488450035453,nan,nan,nan,nan
1,254,1,1,1.0,1.0,0.32672432623803616,0.0,5,0,6,8,2,3,nan,nan,nan,nan,nan,nan,nan,nan,nan,nan,nan,nan,0.0,nan,nan,nan,nan,nan,nan,nan,nan,nan,nan,nan,nan,nan,nan,nan,nan,nan,nan,248.18925318168476,612.4140920811333,nan,612.7408164073713,nan,nan,nan,nan
1,255,1,1,1.0,1.0,0.35057091945782304,0.0,3,8,2,0,7,4,nan,nan,nan,nan,nan,nan,nan,nan,nan,nan,nan,nan,0.0,nan,nan,nan,nan,nan,nan,nan,nan,nan,nan,nan,nan,nan,nan,nan,nan,nan,nan,248.18925318168476,613.4142075451091,nan,613.7647784645669,nan,nan,nan,nan
1,256,0,0,1.0,0.0,0.3340761042200029,1.0,0,4,7,6,8,5,1.0,1.0,1.0,1.0,1.0,1.0,0.0,1.0,1.0,1.0,0.0,0.0,3.0,8.0,4.0,7.0,6.0,0.0,2.0,4.0,3.0,1.0,2.0,6.0,5.0,3.8411081465892494,2.914198849350214,1.0261062663048506,1.7383548859506845,5.408917868509889,4.7452904232777655,248.18925318168476,614.4226991375908,615.2310705338605,614.7567752418108,621.6985255107284,622.7086484241299,616.2478664107621,621.6901924312115
1,257,1,1,1.0,1.0,0.5292102522216737,0.0,4,0,6,8,7,1,nan,nan,nan,nan,nan,nan,nan,nan,nan,nan,nan,nan,0.0,nan,nan,nan,nan,nan,nan,nan,nan,nan,nan,nan,nan,nan,nan,nan,nan,nan,nan,248.18925318168476,622.915376582183,nan,623.4445868344046,nan,nan,nan,nan
1,258,1,1,1.0,1.0,0.369053996168077,0.0,2,6,8,1,4,5,nan,nan,nan,nan,nan,nan,nan,nan,nan,nan,nan,nan,0.0,nan,nan,nan,nan,nan,nan,nan,nan,nan,nan,nan,nan,nan,nan,nan,nan,nan,nan,248.18925318168476,623.9154926165938,nan,624.2845466127619,nan,nan,nan,nan
1,259,1,1,1.0,1.0,0.36061742762103677,0.0,7,1,5,2,6,8,nan,nan,nan,nan,nan,nan,nan,nan,nan,nan,nan,nan,0.0,nan,nan,nan,nan,nan,nan,nan,nan,nan,nan,nan,nan,nan,nan,nan,nan,nan,nan,248.18925318168476,624.9239166411571,nan,625.2845340687782,nan,nan,nan,nan
1,260,1,1,1.0,1.0,0.3524343087337911,0.0,3,5,8,6,0,7,nan,nan,nan,nan,nan,nan,nan,nan,nan,nan,nan,nan,0.0,nan,nan,nan,nan,nan,nan,nan,nan,nan,nan,nan,nan,nan,nan,nan,nan,nan,nan,248.18925318168476,625.9240711634047,nan,626.2765054721385,nan,nan,nan,nan
1,261,1,1,1.0,1.0,0.3602778776548803,0.0,6,1,2,3,5,4,nan,nan,nan,nan,nan,nan,nan,nan,nan,nan,nan,nan,0.0,nan,nan,nan,nan,nan,nan,nan,nan,nan,nan,nan,nan,nan,nan,nan,nan,nan,nan,248.18925318168476,626.9241983164102,nan,627.2844761940651,nan,nan,nan,nan
1,262,1,1,1.0,1.0,0.35978523129597306,0.0,5,6,3,8,7,0,nan,nan,nan,nan,nan,nan,nan,nan,nan,nan,nan,nan,0.0,nan,nan,nan,nan,nan,nan,nan,nan,nan,nan,nan,nan,nan,nan,nan,nan,nan,nan,248.18925318168476,627.9326588334516,nan,628.2924440647475,nan,nan,nan,nan
1,263,1,1,1.0,1.0,0.2876410479657352,0.0,0,8,7,2,4,1,nan,nan,nan,nan,nan,nan,nan,nan,nan,nan,nan,nan,0.0,nan,nan,nan,nan,nan,nan,nan,nan,nan,nan,nan,nan,nan,nan,nan,nan,nan,nan,248.18925318168476,628.9327811398543,nan,629.2204221878201,nan,nan,nan,nan
1,264,0,0,0.0,1.0,0.44750650506466627,0.0,1,5,2,7,0,4,nan,nan,nan,nan,nan,nan,nan,nan,nan,nan,nan,nan,0.0,nan,nan,nan,nan,nan,nan,nan,nan,nan,nan,nan,nan,nan,nan,nan,nan,nan,nan,248.18925318168476,629.9329048716463,nan,630.380411376711,nan,nan,nan,nan
1,265,1,1,1.0,1.0,0.5113344304263592,0.0,8,0,6,2,3,5,nan,nan,nan,nan,nan,nan,nan,nan,nan,nan,nan,nan,0.0,nan,nan,nan,nan,nan,nan,nan,nan,nan,nan,nan,nan,nan,nan,nan,nan,nan,nan,248.18925318168476,630.9330394370481,nan,631.4443738674745,nan,nan,nan,nan
1,266,1,1,1.0,1.0,0.4228619271889329,0.0,0,4,8,5,2,3,nan,nan,nan,nan,nan,nan,nan,nan,nan,nan,nan,nan,0.0,nan,nan,nan,nan,nan,nan,nan,nan,nan,nan,nan,nan,nan,nan,nan,nan,nan,nan,248.18925318168476,631.9414848443121,nan,632.364346771501,nan,nan,nan,nan
1,267,1,1,1.0,1.0,0.35870756721124053,0.0,4,2,3,1,7,5,nan,nan,nan,nan,nan,nan,nan,nan,nan,nan,nan,nan,0.0,nan,nan,nan,nan,nan,nan,nan,nan,nan,nan,nan,nan,nan,nan,nan,nan,nan,nan,248.18925318168476,632.9416171289049,nan,633.3003246961161,nan,nan,nan,nan
1,268,1,1,1.0,1.0,0.40656382823362947,0.0,1,5,6,2,3,4,nan,nan,nan,nan,nan,nan,nan,nan,nan,nan,nan,nan,0.0,nan,nan,nan,nan,nan,nan,nan,nan,nan,nan,nan,nan,nan,nan,nan,nan,nan,nan,248.18925318168476,633.9417311674915,nan,634.3482949957252,nan,nan,nan,nan
1,269,1,1,1.0,1.0,0.3504312224686146,0.0,6,7,1,0,2,8,nan,nan,nan,nan,nan,nan,nan,nan,nan,nan,nan,nan,0.0,nan,nan,nan,nan,nan,nan,nan,nan,nan,nan,nan,nan,nan,nan,nan,nan,nan,nan,248.18925318168476,634.9418517630547,nan,635.2922829855233,nan,nan,nan,nan
1,270,1,1,1.0,1.0,0.33429078152403235,0.0,5,2,3,8,1,4,nan,nan,nan,nan,nan,nan,nan,nan,nan,nan,nan,nan,0.0,nan,nan,nan,nan,nan,nan,nan,nan,nan,nan,nan,nan,nan,nan,nan,nan,nan,nan,248.18925318168476,635.941975209862,nan,636.276265991386,nan,nan,nan,nan
1,271,1,1,1.0,1.0,0.3101419862359762,0.0,8,0,4,3,5,7,nan,nan,nan,nan,nan,nan,nan,nan,nan,nan,nan,nan,0.0,nan,nan,nan,nan,nan,nan,nan,nan,nan,nan,nan,nan,nan,nan,nan,nan,nan,nan,248.18925318168476,636.9420992266387,nan,637.2522412128747,nan,nan,nan,nan
1,272,1,1,1.0,1.0,0.32599333953112364,0.0,3,4,5,7,0,2,nan,nan,nan,nan,nan,nan,nan,nan,nan,nan,nan,nan,0.0,nan,nan,nan,nan,nan,nan,nan,nan,nan,nan,nan,nan,nan,nan,nan,nan,nan,nan,248.18925318168476,637.9422221030109,nan,638.268215442542,nan,nan,nan,nan
1,273,1,1,1.0,1.0,0.3418529601767659,0.0,8,0,2,1,5,7,nan,nan,nan,nan,nan,nan,nan,nan,nan,nan,nan,nan,0.0,nan,nan,nan,nan,nan,nan,nan,nan,nan,nan,nan,nan,nan,nan,nan,nan,nan,nan,248.18925318168476,638.9423498264514,nan,639.2842027866282,nan,nan,nan,nan
1,274,1,1,1.0,1.0,0.3417018596082926,0.0,1,7,4,6,2,8,nan,nan,nan,nan,nan,nan,nan,nan,nan,nan,nan,nan,0.0,nan,nan,nan,nan,nan,nan,nan,nan,nan,nan,nan,nan,nan,nan,nan,nan,nan,nan,248.18925318168476,639.9424838214181,nan,640.2841856810264,nan,nan,nan,nan
1,275,1,1,1.0,1.0,0.3335486762225628,0.0,2,1,6,8,5,3,nan,nan,nan,nan,nan,nan,nan,nan,nan,nan,nan,nan,0.0,nan,nan,nan,nan,nan,nan,nan,nan,nan,nan,nan,nan,nan,nan,nan,nan,nan,nan,248.18925318168476,640.9426072682254,nan,641.276155944448,nan,nan,nan,nan
1,276,1,1,1.0,1.0,0.37340684654191136,0.0,7,2,8,1,0,4,nan,nan,nan,nan,nan,nan,nan,nan,nan,nan,nan,nan,0.0,nan,nan,nan,nan,nan,nan,nan,nan,nan,nan,nan,nan,nan,nan,nan,nan,nan,nan,248.18925318168476,641.9427221617661,nan,642.316129008308,nan,nan,nan,nan
1,277,1,1,1.0,1.0,0.3572592781856656,0.0,6,0,2,7,5,8,nan,nan,nan,nan,nan,nan,nan,nan,nan,nan,nan,nan,0.0,nan,nan,nan,nan,nan,nan,nan,nan,nan,nan,nan,nan,nan,nan,nan,nan,nan,nan,248.18925318168476,642.9428481743671,nan,643.3001074525528,nan,nan,nan,nan
1,278,1,1,1.0,1.0,0.3808025289326906,0.0,2,5,8,0,3,1,nan,nan,nan,nan,nan,nan,nan,nan,nan,nan,nan,nan,0.0,nan,nan,nan,nan,nan,nan,nan,nan,nan,nan,nan,nan,nan,nan,nan,nan,nan,nan,248.18925318168476,643.9512964324094,nan,644.3320989613421,nan,nan,nan,nan
1,279,1,1,1.0,1.0,0.3486604895442724,0.0,7,8,3,5,1,2,nan,nan,nan,nan,nan,nan,nan,nan,nan,nan,nan,nan,0.0,nan,nan,nan,nan,nan,nan,nan,nan,nan,nan,nan,nan,nan,nan,nan,nan,nan,nan,248.18925318168476,644.9514235854149,nan,645.3000840749592,nan,nan,nan,nan
1,280,0,0,0.0,1.0,0.45249768579378724,1.0,6,5,2,8,3,7,1.0,1.0,1.0,1.0,1.0,1.0,0.0,1.0,1.0,1.0,1.0,0.0,4.0,0.0,5.0,2.0,8.0,3.0,6.0,5.0,4.0,3.0,2.0,1.0,6.0,6.511809970717877,4.608863016124815,3.6319224582985044,2.265552073251456,1.4481673585250974,7.375638294965029,248.18925318168476,645.9515538746491,646.7599660390988,646.4040515604429,655.1943487073295,656.2010909495875,647.7767584952526,655.1859988076612
1,281,1,1,1.0,1.0,0.3529577455483377,0.0,5,8,3,7,0,2,nan,nan,nan,nan,nan,nan,nan,nan,nan,nan,nan,nan,0.0,nan,nan,nan,nan,nan,nan,nan,nan,nan,nan,nan,nan,nan,nan,nan,nan,nan,nan,248.18925318168476,656.4028350543231,nan,656.7557927998714,nan,nan,nan,nan
1,282,1,1,1.0,1.0,0.46480272617191076,0.0,1,3,5,2,6,0,nan,nan,nan,nan,nan,nan,nan,nan,nan,nan,nan,nan,0.0,nan,nan,nan,nan,nan,nan,nan,nan,nan,nan,nan,nan,nan,nan,nan,nan,nan,nan,248.18925318168476,657.4029619223438,nan,657.8677646485157,nan,nan,nan,nan
1,283,1,1,1.0,1.0,0.44833556516095996,0.0,4,0,8,5,7,1,nan,nan,nan,nan,nan,nan,nan,nan,nan,nan,nan,nan,0.0,nan,nan,nan,nan,nan,nan,nan,nan,nan,nan,nan,nan,nan,nan,nan,nan,nan,nan,248.18925318168476,658.411421013996,nan,658.859756579157,nan,nan,nan,nan
1,284,1,1,1.0,1.0,0.352187130600214,0.0,7,4,1,6,3,0,nan,nan,nan,nan,nan,nan,nan,nan,nan,nan,nan,nan,0.0,nan,nan,nan,nan,nan,nan,nan,nan,nan,nan,nan,nan,nan,nan,nan,nan,nan,nan,248.18925318168476,659.4115396137349,nan,659.7637267443351,nan,nan,nan,nan
1,285,1,1,1.0,1.0,0.4160293098539114,0.0,5,8,6,3,7,2,nan,nan,nan,nan,nan,nan,nan,nan,nan,nan,nan,nan,0.0,nan,nan,nan,nan,nan,nan,nan,nan,nan,nan,nan,nan,nan,nan,nan,nan,nan,nan,248.18925318168476,660.4116681925952,nan,660.8276975024492,nan,nan,nan,nan
1,286,1,1,1.0,1.0,0.40788239892572165,0.0,6,3,0,1,5,8,nan,nan,nan,nan,nan,nan,nan,nan,nan,nan,nan,nan,0.0,nan,nan,nan,nan,nan,nan,nan,nan,nan,nan,nan,nan,nan,nan,nan,nan,nan,nan,248.18925318168476,661.4117959155701,nan,661.8196783144958,nan,nan,nan,nan
1,287,1,1,1.0,1.0,0.44773287139832973,0.0,1,8,5,2,0,3,nan,nan,nan,nan,nan,nan,nan,nan,nan,nan,nan,nan,0.0,nan,nan,nan,nan,nan,nan,nan,nan,nan,nan,nan,nan,nan,nan,nan,nan,nan,nan,248.18925318168476,662.4119145157747,nan,662.859647387173,nan,nan,nan,nan
1,288,1,1,1.0,1.0,0.4635904971510172,0.0,5,7,3,4,2,6,nan,nan,nan,nan,nan,nan,nan,nan,nan,nan,nan,nan,0.0,nan,nan,nan,nan,nan,nan,nan,nan,nan,nan,nan,nan,nan,nan,nan,nan,nan,nan,248.18925318168476,663.412045089528,nan,663.875635586679,nan,nan,nan,nan
1,289,1,1,1.0,1.0,0.4714394826442003,0.0,4,6,8,2,1,5,nan,nan,nan,nan,nan,nan,nan,nan,nan,nan,nan,nan,0.0,nan,nan,nan,nan,nan,nan,nan,nan,nan,nan,nan,nan,nan,nan,nan,nan,nan,nan,248.18925318168476,664.4121696767397,nan,664.8836091593839,nan,nan,nan,nan
1,290,1,1,1.0,1.0,0.46331651974469423,0.0,3,2,6,0,4,8,nan,nan,nan,nan,nan,nan,nan,nan,nan,nan,nan,nan,0.0,nan,nan,nan,nan,nan,nan,nan,nan,nan,nan,nan,nan,nan,nan,nan,nan,nan,nan,248.18925318168476,665.4122939785011,nan,665.8756104982458,nan,nan,nan,nan
1,291,1,1,1.0,1.0,0.4468225589953363,0.0,7,5,1,8,2,4,nan,nan,nan,nan,nan,nan,nan,nan,nan,nan,nan,nan,0.0,nan,nan,nan,nan,nan,nan,nan,nan,nan,nan,nan,nan,nan,nan,nan,nan,nan,nan,248.18925318168476,666.4207448028028,nan,666.8675673617981,nan,nan,nan,nan
1,292,1,1,1.0,1.0,0.3906725621782243,0.0,1,8,3,5,7,6,nan,nan,nan,nan,nan,nan,nan,nan,nan,nan,nan,nan,0.0,nan,nan,nan,nan,nan,nan,nan,nan,nan,nan,nan,nan,nan,nan,nan,nan,nan,nan,248.18925318168476,667.4208802231587,nan,667.811552785337,nan,nan,nan,nan
1,293,1,1,1.0,1.0,0.4622311578132212,0.0,8,0,2,3,5,4,nan,nan,nan,nan,nan,nan,nan,nan,nan,nan,nan,nan,0.0,nan,nan,nan,nan,nan,nan,nan,nan,nan,nan,nan,nan,nan,nan,nan,nan,nan,nan,248.18925318168476,668.4293065289967,nan,668.8915376868099,nan,nan,nan,nan
1,294,1,1,1.0,1.0,0.41369323153048754,0.0,4,2,5,1,8,6,nan,nan,nan,nan,nan,nan,nan,nan,nan,nan,nan,nan,0.0,nan,nan,nan,nan,nan,nan,nan,nan,nan,nan,nan,nan,nan,nan,nan,nan,nan,nan,248.18925318168476,669.4377778796479,nan,669.8514711111784,nan,nan,nan,nan
1,295,1,1,1.0,1.0,0.3655741112306714,0.0,8,4,3,2,6,1,nan,nan,nan,nan,nan,nan,nan,nan,nan,nan,nan,nan,0.0,nan,nan,nan,nan,nan,nan,nan,nan,nan,nan,nan,nan,nan,nan,nan,nan,nan,nan,248.18925318168476,670.4378990456462,nan,670.8034731568769,nan,nan,nan,nan
1,296,1,1,1.0,1.0,0.4930457887239754,0.0,0,7,8,4,5,6,nan,nan,nan,nan,nan,nan,nan,nan,nan,nan,nan,nan,0.0,nan,nan,nan,nan,nan,nan,nan,nan,nan,nan,nan,nan,nan,nan,nan,nan,nan,nan,248.18925318168476,671.4464085996151,nan,671.9394543883391,nan,nan,nan,nan
1,297,1,1,1.0,1.0,0.4529313175007701,0.0,5,8,6,3,0,7,nan,nan,nan,nan,nan,nan,nan,nan,nan,nan,nan,nan,0.0,nan,nan,nan,nan,nan,nan,nan,nan,nan,nan,nan,nan,nan,nan,nan,nan,nan,nan,248.18925318168476,672.4464832944795,nan,672.8994146119803,nan,nan,nan,nan
1,298,1,1,1.0,1.0,0.42080524330958724,0.0,7,2,0,5,1,4,nan,nan,nan,nan,nan,nan,nan,nan,nan,nan,nan,nan,0.0,nan,nan,nan,nan,nan,nan,nan,nan,nan,nan,nan,nan,nan,nan,nan,nan,nan,nan,248.18925318168476,673.4466070262715,nan,673.8674122695811,nan,nan,nan,nan
1,299,0,0,0.0,1.0,0.5166320893913507,0.0,6,3,1,8,5,2,nan,nan,nan,nan,nan,nan,nan,nan,nan,nan,nan,nan,0.0,nan,nan,nan,nan,nan,nan,nan,nan,nan,nan,nan,nan,nan,nan,nan,nan,nan,nan,248.18925318168476,674.4467413066886,nan,674.96337339608,nan,nan,nan,nan
1,300,1,1,1.0,1.0,0.5644880654290318,0.0,8,6,0,3,2,1,nan,nan,nan,nan,nan,nan,nan,nan,nan,nan,nan,nan,0.0,nan,nan,nan,nan,nan,nan,nan,nan,nan,nan,nan,nan,nan,nan,nan,nan,nan,nan,248.18925318168476,675.4468827145174,nan,676.0113707799464,nan,nan,nan,nan
1,301,1,1,1.0,1.0,0.32401220547035336,0.0,3,1,7,4,0,5,nan,nan,nan,nan,nan,nan,nan,nan,nan,nan,nan,nan,0.0,nan,nan,nan,nan,nan,nan,nan,nan,nan,nan,nan,nan,nan,nan,nan,nan,nan,nan,248.18925318168476,676.4553187135607,nan,676.779330919031,nan,nan,nan,nan
1,302,1,1,1.0,1.0,0.3958613141439855,0.0,4,0,8,3,6,2,nan,nan,nan,nan,nan,nan,nan,nan,nan,nan,nan,nan,0.0,nan,nan,nan,nan,nan,nan,nan,nan,nan,nan,nan,nan,nan,nan,nan,nan,nan,nan,248.18925318168476,677.4554401645437,nan,677.8513014786877,nan,nan,nan,nan
1,303,1,1,1.0,1.0,0.37970205768942833,0.0,2,8,0,1,5,4,nan,nan,nan,nan,nan,nan,nan,nan,nan,nan,nan,nan,0.0,nan,nan,nan,nan,nan,nan,nan,nan,nan,nan,nan,nan,nan,nan,nan,nan,nan,nan,248.18925318168476,678.4555790061131,nan,678.8352810638025,nan,nan,nan,nan
1,304,1,1,1.0,1.0,0.47558934381231666,0.0,6,0,5,2,8,1,nan,nan,nan,nan,nan,nan,nan,nan,nan,nan,nan,nan,0.0,nan,nan,nan,nan,nan,nan,nan,nan,nan,nan,nan,nan,nan,nan,nan,nan,nan,nan,248.18925318168476,679.4556887685321,nan,679.9312781123444,nan,nan,nan,nan
1,305,0,0,0.0,1.0,0.5554450964555144,1.0,8,2,0,1,3,6,1.0,1.0,1.0,1.0,1.0,1.0,1.0,1.0,1.0,1.0,1.0,1.0,6.0,8.0,2.0,0.0,1.0,3.0,6.0,4.0,3.0,2.0,1.0,6.0,5.0,3.6787797422148287,2.951958996243775,2.1981949415057898,1.4305455572903156,5.8461794392205775,4.96673268545419,248.18925318168476,680.4558030921035,681.2642206735909,681.011248188559,688.1650696047582,689.163145205006,682.2810139846988,688.1567402319051
1,306,1,1,1.0,1.0,0.4218082115985453,0.0,1,7,8,6,2,5,nan,nan,nan,nan,nan,nan,nan,nan,nan,nan,nan,nan,0.0,nan,nan,nan,nan,nan,nan,nan,nan,nan,nan,nan,nan,nan,nan,nan,nan,nan,nan,248.18925318168476,689.3652339912951,nan,689.7870422028936,nan,nan,nan,nan
1,307,1,1,1.0,1.0,0.3576504304073751,0.0,2,5,4,7,8,1,nan,nan,nan,nan,nan,nan,nan,nan,nan,nan,nan,nan,0.0,nan,nan,nan,nan,nan,nan,nan,nan,nan,nan,nan,nan,nan,nan,nan,nan,nan,nan,248.18925318168476,690.3653637100942,nan,690.7230141405016,nan,nan,nan,nan
1,308,1,1,1.0,1.0,0.41348282992839813,0.0,1,0,2,5,7,8,nan,nan,nan,nan,nan,nan,nan,nan,nan,nan,nan,nan,0.0,nan,nan,nan,nan,nan,nan,nan,nan,nan,nan,nan,nan,nan,nan,nan,nan,nan,nan,248.18925318168476,691.3654954247177,nan,691.7789782546461,nan,nan,nan,nan
1,309,1,1,1.0,1.0,0.4693243531510234,0.0,7,5,6,2,0,4,nan,nan,nan,nan,nan,nan,nan,nan,nan,nan,nan,nan,0.0,nan,nan,nan,nan,nan,nan,nan,nan,nan,nan,nan,nan,nan,nan,nan,nan,nan,nan,248.18925318168476,692.3656325559132,nan,692.8349569090642,nan,nan,nan,nan
1,310,1,1,1.0,1.0,0.4291742444038391,0.0,5,4,2,7,8,3,nan,nan,nan,nan,nan,nan,nan,nan,nan,nan,nan,nan,0.0,nan,nan,nan,nan,nan,nan,nan,nan,nan,nan,nan,nan,nan,nan,nan,nan,nan,nan,248.18925318168476,693.3657514411025,nan,693.7949256855063,nan,nan,nan,nan
1,311,1,1,1.0,1.0,0.3407641779631376,0.0,1,5,7,0,4,8,nan,nan,nan,nan,nan,nan,nan,nan,nan,nan,nan,nan,0.0,nan,nan,nan,nan,nan,nan,nan,nan,nan,nan,nan,nan,nan,nan,nan,nan,nan,nan,248.18925318168476,694.3741595004685,nan,694.7149236784317,nan,nan,nan,nan
1,312,1,1,1.0,1.0,0.3645708574913442,0.0,5,6,4,8,1,0,nan,nan,nan,nan,nan,nan,nan,nan,nan,nan,nan,nan,0.0,nan,nan,nan,nan,nan,nan,nan,nan,nan,nan,nan,nan,nan,nan,nan,nan,nan,nan,248.18925318168476,695.3743214351125,nan,695.7388922926039,nan,nan,nan,nan
1,313,1,1,1.0,1.0,0.35641681868582964,0.0,1,3,2,5,0,8,nan,nan,nan,nan,nan,nan,nan,nan,nan,nan,nan,nan,0.0,nan,nan,nan,nan,nan,nan,nan,nan,nan,nan,nan,nan,nan,nan,nan,nan,nan,nan,248.18925318168476,696.3744565709494,nan,696.7308733896352,nan,nan,nan,nan
1,314,1,1,1.0,1.0,0.34797568852081895,0.0,0,7,4,8,5,3,nan,nan,nan,nan,nan,nan,nan,nan,nan,nan,nan,nan,0.0,nan,nan,nan,nan,nan,nan,nan,nan,nan,nan,nan,nan,nan,nan,nan,nan,nan,nan,248.18925318168476,697.3828974161297,nan,697.7308731046505,nan,nan,nan,nan
1,315,1,1,1.0,1.0,0.32347023766487837,0.0,7,4,0,6,1,8,nan,nan,nan,nan,nan,nan,nan,nan,nan,nan,nan,nan,0.0,nan,nan,nan,nan,nan,nan,nan,nan,nan,nan,nan,nan,nan,nan,nan,nan,nan,nan,248.18925318168476,698.39135023579,nan,698.7148204734549,nan,nan,nan,nan
1,316,1,1,1.0,1.0,0.3792898082174361,0.0,8,6,1,4,2,3,nan,nan,nan,nan,nan,nan,nan,nan,nan,nan,nan,nan,0.0,nan,nan,nan,nan,nan,nan,nan,nan,nan,nan,nan,nan,nan,nan,nan,nan,nan,nan,248.18925318168476,699.3914967752062,nan,699.7707865834236,nan,nan,nan,nan
1,317,1,1,1.0,1.0,0.32317601842805743,0.0,3,4,7,6,1,2,nan,nan,nan,nan,nan,nan,nan,nan,nan,nan,nan,nan,0.0,nan,nan,nan,nan,nan,nan,nan,nan,nan,nan,nan,nan,nan,nan,nan,nan,nan,nan,248.18925318168476,700.3916119541973,nan,700.7147879726253,nan,nan,nan,nan
1,318,1,1,1.0,1.0,0.3230226361192763,0.0,1,2,6,7,5,3,nan,nan,nan,nan,nan,nan,nan,nan,nan,nan,nan,nan,0.0,nan,nan,nan,nan,nan,nan,nan,nan,nan,nan,nan,nan,nan,nan,nan,nan,nan,nan,248.18925318168476,701.3917305544019,nan,701.7147531905212,nan,nan,nan,nan
1,319,1,1,1.0,1.0,0.37053364608436823,0.0,8,5,7,4,6,2,nan,nan,nan,nan,nan,nan,nan,nan,nan,nan,nan,nan,0.0,nan,nan,nan,nan,nan,nan,nan,nan,nan,nan,nan,nan,nan,nan,nan,nan,nan,nan,248.18925318168476,702.4001950626262,nan,702.7707287087105,nan,nan,nan,nan
1,320,1,1,1.0,1.0,0.34640680346637964,0.0,3,7,4,0,2,6,nan,nan,nan,nan,nan,nan,nan,nan,nan,nan,nan,nan,0.0,nan,nan,nan,nan,nan,nan,nan,nan,nan,nan,nan,nan,nan,nan,nan,nan,nan,nan,248.18925318168476,703.4003091012128,nan,703.7467159046791,nan,nan,nan,nan
1,321,1,1,1.0,1.0,0.34625484701246023,0.0,4,8,6,3,7,5,nan,nan,nan,nan,nan,nan,nan,nan,nan,nan,nan,nan,0.0,nan,nan,nan,nan,nan,nan,nan,nan,nan,nan,nan,nan,nan,nan,nan,nan,nan,nan,248.18925318168476,704.4004396754317,nan,704.7466945224442,nan,nan,nan,nan
1,322,0,0,0.0,1.0,0.4900998892262578,1.0,8,2,5,6,1,0,1.0,1.0,1.0,1.0,1.0,1.0,1.0,1.0,1.0,1.0,0.0,0.0,4.0,8.0,2.0,5.0,6.0,7.0,1.0,4.0,3.0,2.0,1.0,6.0,5.0,3.9489506599493325,3.0615810812450945,2.214377861469984,1.1173179736360908,6.189251185860485,5.348989490419626,248.18925318168476,705.4005488674156,706.2089644535445,705.8906487566419,713.4515252225101,714.4501764317974,707.2257825681008,713.4431875818409
1,323,1,1,1.0,1.0,0.4144353368319571,0.0,6,7,8,4,0,3,nan,nan,nan,nan,nan,nan,nan,nan,nan,nan,nan,nan,0.0,nan,nan,nan,nan,nan,nan,nan,nan,nan,nan,nan,nan,nan,nan,nan,nan,nan,nan,248.18925318168476,714.6600360875018,nan,715.0744714243338,nan,nan,nan,nan
1,324,0,0,0.0,1.0,0.5982560086995363,0.0,5,6,1,0,3,8,nan,nan,nan,nan,nan,nan,nan,nan,nan,nan,nan,nan,0.0,nan,nan,nan,nan,nan,nan,nan,nan,nan,nan,nan,nan,nan,nan,nan,nan,nan,nan,248.18925318168476,715.6601546877064,nan,716.2584106964059,nan,nan,nan,nan
1,325,1,1,1.0,1.0,0.6780718481168151,0.0,2,4,5,1,8,6,nan,nan,nan,nan,nan,nan,nan,nan,nan,nan,nan,nan,0.0,nan,nan,nan,nan,nan,nan,nan,nan,nan,nan,nan,nan,nan,nan,nan,nan,nan,nan,248.18925318168476,716.6602958100848,nan,717.3383676582016,nan,nan,nan,nan
1,326,1,1,1.0,1.0,0.6219611945562065,0.0,1,5,2,7,0,8,nan,nan,nan,nan,nan,nan,nan,nan,nan,nan,nan,nan,0.0,nan,nan,nan,nan,nan,nan,nan,nan,nan,nan,nan,nan,nan,nan,nan,nan,nan,nan,248.18925318168476,717.6603993000463,nan,718.2823604946025,nan,nan,nan,nan
1,327,1,1,1.0,1.0,0.5338099952787161,0.0,4,6,3,1,5,2,nan,nan,nan,nan,nan,nan,nan,nan,nan,nan,nan,nan,0.0,nan,nan,nan,nan,nan,nan,nan,nan,nan,nan,nan,nan,nan,nan,nan,nan,nan,nan,248.18925318168476,718.6605310146697,nan,719.1943410099484,nan,nan,nan,nan
1,328,1,1,1.0,1.0,0.42966803116723895,0.0,7,0,8,6,3,1,nan,nan,nan,nan,nan,nan,nan,nan,nan,nan,nan,nan,0.0,nan,nan,nan,nan,nan,nan,nan,nan,nan,nan,nan,nan,nan,nan,nan,nan,nan,nan,248.18925318168476,719.6606575972401,nan,720.0903256284073,nan,nan,nan,nan
1,329,1,1,1.0,1.0,0.38919348269701004,0.0,3,4,0,1,2,8,nan,nan,nan,nan,nan,nan,nan,nan,nan,nan,nan,nan,0.0,nan,nan,nan,nan,nan,nan,nan,nan,nan,nan,nan,nan,nan,nan,nan,nan,nan,nan,248.18925318168476,720.6691021490842,nan,721.0582956317812,nan,nan,nan,nan
1,330,1,1,1.0,1.0,0.31703532906249166,0.0,5,8,4,2,7,3,nan,nan,nan,nan,nan,nan,nan,nan,nan,nan,nan,nan,0.0,nan,nan,nan,nan,nan,nan,nan,nan,nan,nan,nan,nan,nan,nan,nan,nan,nan,nan,248.18925318168476,721.6692241705023,nan,721.9862594995648,nan,nan,nan,nan
1,331,0,0,1.0,0.0,0.316908176522702,0.0,2,6,1,3,4,7,nan,nan,nan,nan,nan,nan,nan,nan,nan,nan,nan,nan,0.0,nan,nan,nan,nan,nan,nan,nan,nan,nan,nan,nan,nan,nan,nan,nan,nan,nan,nan,248.18925318168476,722.6693538893014,nan,722.9862620658241,nan,nan,nan,nan
1,332,1,1,1.0,1.0,0.5244326088577509,0.0,6,8,3,4,5,2,nan,nan,nan,nan,nan,nan,nan,nan,nan,nan,nan,nan,0.0,nan,nan,nan,nan,nan,nan,nan,nan,nan,nan,nan,nan,nan,nan,nan,nan,nan,nan,248.18925318168476,723.6778138359077,nan,724.2022464447655,nan,nan,nan,nan
1,333,1,1,1.0,1.0,0.46826807130128145,0.0,5,0,6,7,3,4,nan,nan,nan,nan,nan,nan,nan,nan,nan,nan,nan,nan,0.0,nan,nan,nan,nan,nan,nan,nan,nan,nan,nan,nan,nan,nan,nan,nan,nan,nan,nan,248.18925318168476,724.6779461209662,nan,725.1462141922675,nan,nan,nan,nan
1,334,1,1,1.0,1.0,0.5641091726720333,0.0,4,8,2,1,7,6,nan,nan,nan,nan,nan,nan,nan,nan,nan,nan,nan,nan,0.0,nan,nan,nan,nan,nan,nan,nan,nan,nan,nan,nan,nan,nan,nan,nan,nan,nan,nan,248.18925318168476,725.6780707077123,nan,726.2421798803844,nan,nan,nan,nan
1,335,1,1,1.0,1.0,0.4036244861781597,0.0,6,2,7,3,8,4,nan,nan,nan,nan,nan,nan,nan,nan,nan,nan,nan,nan,0.0,nan,nan,nan,nan,nan,nan,nan,nan,nan,nan,nan,nan,nan,nan,nan,nan,nan,nan,248.18925318168476,726.6865192507394,nan,727.0901437369175,nan,nan,nan,nan
1,336,0,0,0.0,1.0,0.45114404847845435,1.0,0,6,2,7,5,3,1.0,1.0,1.0,1.0,1.0,1.0,0.0,0.0,1.0,1.0,1.0,0.0,3.0,8.0,0.0,2.0,7.0,5.0,6.0,6.0,5.0,3.0,2.0,1.0,4.0,8.181795633397996,7.294093346688896,2.7676744726486504,1.9924392467364669,1.2701977170072496,3.558478806167841,248.18925318168476,727.6949766320176,728.503384235315,728.1461206804961,737.7378553976305,738.7388694849797,729.5201775464229,737.7295186119154
1,337,1,1,1.0,1.0,0.29550656909123063,0.0,7,4,3,8,6,2,nan,nan,nan,nan,nan,nan,nan,nan,nan,nan,nan,nan,0.0,nan,nan,nan,nan,nan,nan,nan,nan,nan,nan,nan,nan,nan,nan,nan,nan,nan,nan,248.18925318168476,738.9463796620257,nan,739.241886231117,nan,nan,nan,nan
1,338,1,1,0.0,0.0,0.5113965813070536,0.0,6,8,7,4,3,1,nan,nan,nan,nan,nan,nan,nan,nan,nan,nan,nan,nan,0.0,nan,nan,nan,nan,nan,nan,nan,nan,nan,nan,nan,nan,nan,nan,nan,nan,nan,nan,248.18925318168476,739.9464914198034,nan,740.4578880011104,nan,nan,nan,nan
1,339,1,1,1.0,1.0,0.5432170322164893,0.0,4,2,3,8,1,0,nan,nan,nan,nan,nan,nan,nan,nan,nan,nan,nan,nan,0.0,nan,nan,nan,nan,nan,nan,nan,nan,nan,nan,nan,nan,nan,nan,nan,nan,nan,nan,248.18925318168476,740.9466117303818,nan,741.4898287625983,nan,nan,nan,nan
1,340,1,1,1.0,1.0,0.6950712837278843,0.0,1,8,5,7,6,3,nan,nan,nan,nan,nan,nan,nan,nan,nan,nan,nan,nan,0.0,nan,nan,nan,nan,nan,nan,nan,nan,nan,nan,nan,nan,nan,nan,nan,nan,nan,nan,248.18925318168476,741.9467346072197,nan,742.6418058909476,nan,nan,nan,nan
1,341,0,0,0.0,1.0,0.6789009082131088,0.0,4,7,1,0,3,2,nan,nan,nan,nan,nan,nan,nan,nan,nan,nan,nan,nan,0.0,nan,nan,nan,nan,nan,nan,nan,nan,nan,nan,nan,nan,nan,nan,nan,nan,nan,nan,248.18925318168476,742.9468774404377,nan,743.6257783486508,nan,nan,nan,nan
1,342,1,1,1.0,1.0,0.5667882221750915,0.0,2,5,6,1,8,4,nan,nan,nan,nan,nan,nan,nan,nan,nan,nan,nan,nan,0.0,nan,nan,nan,nan,nan,nan,nan,nan,nan,nan,nan,nan,nan,nan,nan,nan,nan,nan,248.18925318168476,743.9469834961928,nan,744.5137717183679,nan,nan,nan,nan
1,343,1,1,1.0,1.0,0.4866353990510106,0.0,4,0,1,8,3,2,nan,nan,nan,nan,nan,nan,nan,nan,nan,nan,nan,nan,0.0,nan,nan,nan,nan,nan,nan,nan,nan,nan,nan,nan,nan,nan,nan,nan,nan,nan,nan,248.18925318168476,744.9471089383587,nan,745.4337443374097,nan,nan,nan,nan
1,344,1,1,1.0,1.0,0.3744890717789531,0.0,3,8,2,7,4,6,nan,nan,nan,nan,nan,nan,nan,nan,nan,nan,nan,nan,0.0,nan,nan,nan,nan,nan,nan,nan,nan,nan,nan,nan,nan,nan,nan,nan,nan,nan,nan,248.18925318168476,745.9472340955399,nan,746.3217231673189,nan,nan,nan,nan
1,345,1,1,1.0,1.0,0.37436020839959383,0.0,0,5,3,8,1,2,nan,nan,nan,nan,nan,nan,nan,nan,nan,nan,nan,nan,0.0,nan,nan,nan,nan,nan,nan,nan,nan,nan,nan,nan,nan,nan,nan,nan,nan,nan,nan,248.18925318168476,746.947344712913,nan,747.3217049213126,nan,nan,nan,nan
1,346,1,1,1.0,1.0,0.3742150943726301,0.0,2,6,1,3,8,7,nan,nan,nan,nan,nan,nan,nan,nan,nan,nan,nan,nan,0.0,nan,nan,nan,nan,nan,nan,nan,nan,nan,nan,nan,nan,nan,nan,nan,nan,nan,nan,248.18925318168476,747.947470725514,nan,748.3216858198866,nan,nan,nan,nan
1,347,1,1,1.0,1.0,0.37406370835378766,0.0,3,2,7,5,1,8,nan,nan,nan,nan,nan,nan,nan,nan,nan,nan,nan,nan,0.0,nan,nan,nan,nan,nan,nan,nan,nan,nan,nan,nan,nan,nan,nan,nan,nan,nan,nan,248.18925318168476,748.947592176497,nan,749.3216558848508,nan,nan,nan,nan
1,348,1,1,1.0,1.0,0.3819126938469708,0.0,5,7,3,1,4,2,nan,nan,nan,nan,nan,nan,nan,nan,nan,nan,nan,nan,0.0,nan,nan,nan,nan,nan,nan,nan,nan,nan,nan,nan,nan,nan,nan,nan,nan,nan,nan,248.18925318168476,749.9477147678845,nan,750.3296274617314,nan,nan,nan,nan
1,349,1,1,1.0,1.0,0.30976594472303987,0.0,7,2,8,6,3,1,nan,nan,nan,nan,nan,nan,nan,nan,nan,nan,nan,nan,0.0,nan,nan,nan,nan,nan,nan,nan,nan,nan,nan,nan,nan,nan,nan,nan,nan,nan,nan,248.18925318168476,750.9478370742872,nan,751.2576030190103,nan,nan,nan,nan
1,350,1,1,1.0,1.0,0.24562669452279806,0.0,6,7,1,0,4,8,nan,nan,nan,nan,nan,nan,nan,nan,nan,nan,nan,nan,0.0,nan,nan,nan,nan,nan,nan,nan,nan,nan,nan,nan,nan,nan,nan,nan,nan,nan,nan,248.18925318168476,751.9479619464837,nan,752.1935886410065,nan,nan,nan,nan
1,351,1,1,1.0,1.0,0.26947214687243104,0.0,0,2,4,1,8,3,nan,nan,nan,nan,nan,nan,nan,nan,nan,nan,nan,nan,0.0,nan,nan,nan,nan,nan,nan,nan,nan,nan,nan,nan,nan,nan,nan,nan,nan,nan,nan,248.18925318168476,752.9480905248784,nan,753.2175626717508,nan,nan,nan,nan
1,352,1,1,1.0,1.0,0.3493130747228861,0.0,7,3,8,6,2,5,nan,nan,nan,nan,nan,nan,nan,nan,nan,nan,nan,nan,0.0,nan,nan,nan,nan,nan,nan,nan,nan,nan,nan,nan,nan,nan,nan,nan,nan,nan,nan,248.18925318168476,753.9482153970748,nan,754.2975284717977,nan,nan,nan,nan
1,353,1,1,1.0,1.0,0.3651515985839069,0.0,4,1,3,5,8,0,nan,nan,nan,nan,nan,nan,nan,nan,nan,nan,nan,nan,0.0,nan,nan,nan,nan,nan,nan,nan,nan,nan,nan,nan,nan,nan,nan,nan,nan,nan,nan,248.18925318168476,754.9483662131242,nan,755.3135178117082,nan,nan,nan,nan
1,354,1,1,1.0,1.0,0.32502230163663626,0.0,3,4,6,7,2,1,nan,nan,nan,nan,nan,nan,nan,nan,nan,nan,nan,nan,0.0,nan,nan,nan,nan,nan,nan,nan,nan,nan,nan,nan,nan,nan,nan,nan,nan,nan,nan,248.18925318168476,755.948462005239,nan,756.2734843068756,nan,nan,nan,nan
1,355,1,1,1.0,1.0,0.35687553882598877,0.0,7,0,1,6,4,8,nan,nan,nan,nan,nan,nan,nan,nan,nan,nan,nan,nan,0.0,nan,nan,nan,nan,nan,nan,nan,nan,nan,nan,nan,nan,nan,nan,nan,nan,nan,nan,248.18925318168476,756.9485823158175,nan,757.3054578546435,nan,nan,nan,nan
1,356,1,1,1.0,1.0,0.30040395306423306,0.0,5,4,6,0,7,2,nan,nan,nan,nan,nan,nan,nan,nan,nan,nan,nan,nan,0.0,nan,nan,nan,nan,nan,nan,nan,nan,nan,nan,nan,nan,nan,nan,nan,nan,nan,nan,248.18925318168476,757.9570362758823,nan,758.2574402289465,nan,nan,nan,nan
1,357,1,1,1.0,1.0,0.3479166734032333,0.0,7,8,4,5,3,6,nan,nan,nan,nan,nan,nan,nan,nan,nan,nan,nan,nan,0.0,nan,nan,nan,nan,nan,nan,nan,nan,nan,nan,nan,nan,nan,nan,nan,nan,nan,nan,248.18925318168476,758.9655050607398,nan,759.313421734143,nan,nan,nan,nan
1,358,1,1,1.0,1.0,0.33176140720024705,0.0,1,5,6,8,2,0,nan,nan,nan,nan,nan,nan,nan,nan,nan,nan,nan,nan,0.0,nan,nan,nan,nan,nan,nan,nan,nan,nan,nan,nan,nan,nan,nan,nan,nan,nan,nan,248.18925318168476,759.9656327841803,nan,760.2973941913806,nan,nan,nan,nan
1,359,0,0,0.0,1.0,0.4916111845523119,0.0,8,6,2,3,7,5,nan,nan,nan,nan,nan,nan,nan,nan,nan,nan,nan,nan,0.0,nan,nan,nan,nan,nan,nan,nan,nan,nan,nan,nan,nan,nan,nan,nan,nan,nan,nan,248.18925318168476,760.9657570859417,nan,761.457368270494,nan,nan,nan,nan
1,360,1,1,1.0,1.0,0.555452223867178,0.0,0,1,5,6,2,8,nan,nan,nan,nan,nan,nan,nan,nan,nan,nan,nan,nan,0.0,nan,nan,nan,nan,nan,nan,nan,nan,nan,nan,nan,nan,nan,nan,nan,nan,nan,nan,248.18925318168476,761.9658722649328,nan,762.5213244888,nan,nan,nan,nan
1,361,1,1,1.0,1.0,0.44330874737352133,0.0,4,5,7,0,6,1,nan,nan,nan,nan,nan,nan,nan,nan,nan,nan,nan,nan,0.0,nan,nan,nan,nan,nan,nan,nan,nan,nan,nan,nan,nan,nan,nan,nan,nan,nan,nan,248.18925318168476,762.9660076857544,nan,763.409316433128,nan,nan,nan,nan
1,362,0,0,0.0,1.0,0.5151912127621472,1.0,5,1,6,3,0,2,1.0,1.0,1.0,1.0,1.0,1.0,1.0,0.0,0.0,1.0,1.0,1.0,4.0,5.0,7.0,4.0,3.0,0.0,2.0,1.0,6.0,5.0,4.0,3.0,2.0,1.0157418763265014,4.9106895993463695,4.255180555861443,3.270923287142068,2.4474457795731723,1.566279610618949,248.18925318168476,763.966114311479,764.7745296126232,764.4813055242412,770.7335946336389,771.7321241069585,765.7829904146492,770.725262124557
1,363,1,1,1.0,1.0,0.37932858150452375,0.0,6,0,8,2,5,1,nan,nan,nan,nan,nan,nan,nan,nan,nan,nan,nan,nan,0.0,nan,nan,nan,nan,nan,nan,nan,nan,nan,nan,nan,nan,nan,nan,nan,nan,nan,nan,248.18925318168476,771.9337846785784,nan,772.3131132600829,nan,nan,nan,nan
1,364,1,1,1.0,1.0,0.39518250012770295,0.0,8,2,6,7,0,4,nan,nan,nan,nan,nan,nan,nan,nan,nan,nan,nan,nan,0.0,nan,nan,nan,nan,nan,nan,nan,nan,nan,nan,nan,nan,nan,nan,nan,nan,nan,nan,248.18925318168476,772.9339069849811,nan,773.3290894851089,nan,nan,nan,nan
1,365,1,1,1.0,1.0,0.3950416622683406,0.0,7,1,4,2,3,8,nan,nan,nan,nan,nan,nan,nan,nan,nan,nan,nan,nan,0.0,nan,nan,nan,nan,nan,nan,nan,nan,nan,nan,nan,nan,nan,nan,nan,nan,nan,nan,248.18925318168476,773.9340136111714,nan,774.3290552734397,nan,nan,nan,nan
1,366,1,1,1.0,1.0,0.33091866318136454,0.0,3,4,0,7,2,5,nan,nan,nan,nan,nan,nan,nan,nan,nan,nan,nan,nan,0.0,nan,nan,nan,nan,nan,nan,nan,nan,nan,nan,nan,nan,nan,nan,nan,nan,nan,nan,248.18925318168476,774.9341453253292,nan,775.2650639885105,nan,nan,nan,nan
1,367,1,1,1.0,1.0,0.3224133853800595,0.0,2,8,1,0,4,6,nan,nan,nan,nan,nan,nan,nan,nan,nan,nan,nan,nan,0.0,nan,nan,nan,nan,nan,nan,nan,nan,nan,nan,nan,nan,nan,nan,nan,nan,nan,nan,248.18925318168476,775.9425964346156,nan,776.2650098199956,nan,nan,nan,nan
1,368,1,1,1.0,1.0,0.35426120553165674,0.0,1,5,3,6,0,7,nan,nan,nan,nan,nan,nan,nan,nan,nan,nan,nan,nan,0.0,nan,nan,nan,nan,nan,nan,nan,nan,nan,nan,nan,nan,nan,nan,nan,nan,nan,nan,248.18925318168476,776.9427270088345,nan,777.2969882143661,nan,nan,nan,nan
1,369,1,1,1.0,1.0,0.3861229959875345,0.0,0,4,5,8,2,6,nan,nan,nan,nan,nan,nan,nan,nan,nan,nan,nan,nan,0.0,nan,nan,nan,nan,nan,nan,nan,nan,nan,nan,nan,nan,nan,nan,nan,nan,nan,nan,248.18925318168476,777.9428601483814,nan,778.328983144369,nan,nan,nan,nan
1,370,1,1,1.0,1.0,0.36197790689766407,0.0,6,1,7,4,5,8,nan,nan,nan,nan,nan,nan,nan,nan,nan,nan,nan,nan,0.0,nan,nan,nan,nan,nan,nan,nan,nan,nan,nan,nan,nan,nan,nan,nan,nan,nan,nan,248.18925318168476,778.9429844506085,nan,779.3049623575062,nan,nan,nan,nan
1,371,1,1,1.0,1.0,0.369839436840266,0.0,8,3,5,1,4,2,nan,nan,nan,nan,nan,nan,nan,nan,nan,nan,nan,nan,0.0,nan,nan,nan,nan,nan,nan,nan,nan,nan,nan,nan,nan,nan,nan,nan,nan,nan,nan,248.18925318168476,779.9430933571421,nan,780.3129327939823,nan,nan,nan,nan
1,372,1,1,1.0,1.0,0.32169294729828835,0.0,2,5,7,8,3,4,nan,nan,nan,nan,nan,nan,nan,nan,nan,nan,nan,nan,0.0,nan,nan,nan,nan,nan,nan,nan,nan,nan,nan,nan,nan,nan,nan,nan,nan,nan,nan,248.18925318168476,780.943223931361,nan,781.2649168786593,nan,nan,nan,nan
1,373,1,1,1.0,1.0,0.2815394173376262,0.0,1,4,8,3,6,2,nan,nan,nan,nan,nan,nan,nan,nan,nan,nan,nan,nan,0.0,nan,nan,nan,nan,nan,nan,nan,nan,nan,nan,nan,nan,nan,nan,nan,nan,nan,nan,248.18925318168476,781.9433530801907,nan,782.2248924975283,nan,nan,nan,nan
1,374,1,1,1.0,1.0,0.24939253088086843,0.0,0,2,4,8,5,3,nan,nan,nan,nan,nan,nan,nan,nan,nan,nan,nan,nan,0.0,nan,nan,nan,nan,nan,nan,nan,nan,nan,nan,nan,nan,nan,nan,nan,nan,nan,nan,248.18925318168476,782.9434614167549,nan,783.1928539476357,nan,nan,nan,nan
1,375,1,1,1.0,1.0,0.26523704174906015,0.0,4,1,5,7,8,6,nan,nan,nan,nan,nan,nan,nan,nan,nan,nan,nan,nan,0.0,nan,nan,nan,nan,nan,nan,nan,nan,nan,nan,nan,nan,nan,nan,nan,nan,nan,nan,248.18925318168476,783.9435922759585,nan,784.2088293177076,nan,nan,nan,nan
1,376,1,1,1.0,1.0,0.43311484484001994,0.0,6,2,4,1,0,3,nan,nan,nan,nan,nan,nan,nan,nan,nan,nan,nan,nan,0.0,nan,nan,nan,nan,nan,nan,nan,nan,nan,nan,nan,nan,nan,nan,nan,nan,nan,nan,248.18925318168476,784.943708024919,nan,785.376822869759,nan,nan,nan,nan
1,377,1,1,1.0,1.0,0.3289495026692748,0.0,3,0,8,2,7,5,nan,nan,nan,nan,nan,nan,nan,nan,nan,nan,nan,nan,0.0,nan,nan,nan,nan,nan,nan,nan,nan,nan,nan,nan,nan,nan,nan,nan,nan,nan,nan,248.18925318168476,785.9438306163065,nan,786.2727801189758,nan,nan,nan,nan
1,378,1,1,1.0,1.0,0.28881706995889544,0.0,5,3,0,8,2,4,nan,nan,nan,nan,nan,nan,nan,nan,nan,nan,nan,nan,0.0,nan,nan,nan,nan,nan,nan,nan,nan,nan,nan,nan,nan,nan,nan,nan,nan,nan,nan,248.18925318168476,786.9439512118697,nan,787.2327682818286,nan,nan,nan,nan
1,379,0,0,0.0,1.0,0.5206576487980783,0.0,3,0,4,6,8,1,nan,nan,nan,nan,nan,nan,nan,nan,nan,nan,nan,nan,0.0,nan,nan,nan,nan,nan,nan,nan,nan,nan,nan,nan,nan,nan,nan,nan,nan,nan,nan,248.18925318168476,787.944091479294,nan,788.4647491280921,nan,nan,nan,nan
1,380,1,1,1.0,1.0,0.5285245953127742,0.0,6,4,1,5,7,3,nan,nan,nan,nan,nan,nan,nan,nan,nan,nan,nan,nan,0.0,nan,nan,nan,nan,nan,nan,nan,nan,nan,nan,nan,nan,nan,nan,nan,nan,nan,nan,248.18925318168476,788.9442066582851,nan,789.4727312535979,nan,nan,nan,nan
