block,trial,time,setsize,freqtrials,trials_colorind,trials_colordeg,colorrgb0,colorrgb1,colorrgb2,correct_response,actual_response,acc,rts,probe_trials,rt_triggered_fast,rt_triggered_slow,rt_strailingavg,rts_runningavg,rts_runningstd,rts_runningslowthresh,rts_runningfastthresh,wm_respdeg,wm_respind,wm_resprgb0,wm_resprgb1,wm_resprgb2,wm_respcolorminusorigcolor,wm_rts,time_blockstart,time_encarray_onset,time_response,time_encarray_offest,time_memprobe_onset,time_memprobe_offset
0,0,4158,6,1,511,359,0.838703193994,0.216284169582,-1.0,1,1.0,1.0,0.361424212344,0,nan,nan,nan,nan,nan,nan,nan,nan,nan,0.0,0.0,0.0,nan,nan,409.43159819,410.454147432,410.815571644,410.954191907,nan,nan
0,1,4159,6,1,266,187,0.373577590308,0.295207490188,0.648113769863,1,1.0,1.0,0.334911825135,0,nan,nan,nan,nan,nan,nan,nan,nan,nan,0.0,0.0,0.0,nan,nan,409.43159819,411.512636391,411.847548217,412.012668607,nan,nan
0,2,4200,6,1,117,82,1.0,-0.307587969795,-0.271886539361,1,1.0,1.0,0.366801727563,0,nan,nan,nan,nan,nan,nan,nan,nan,nan,0.0,0.0,0.0,nan,nan,409.43159819,412.512746153,412.879547881,413.012776945,nan,nan
0,3,4201,6,1,431,303,0.191957257768,0.43918128748,-0.982298765802,1,1.0,1.0,0.374649044126,0,nan,nan,nan,nan,nan,nan,nan,nan,nan,0.0,0.0,0.0,nan,nan,409.43159819,413.512878439,413.887527484,414.012915217,nan,nan
0,4,4202,6,1,0,0,0.846831709088,0.212097570855,-1.0,1,1.0,1.0,0.334464221261,0,nan,nan,nan,nan,nan,nan,nan,nan,nan,0.0,0.0,0.0,nan,nan,409.43159819,414.513020133,414.847484354,415.013088271,nan,nan
0,5,4203,6,0,437,307,0.23613482661,0.429770237144,-1.0,0,0.0,1.0,0.366386909038,0,nan,nan,nan,nan,nan,nan,nan,nan,nan,0.0,0.0,0.0,nan,nan,409.43159819,415.513131321,415.87951823,416.013221982,nan,nan
0,6,4204,6,1,55,38,1.0,-0.0599996532909,-1.0,1,1.0,1.0,0.358209448867,0,nan,nan,nan,nan,nan,nan,nan,nan,nan,0.0,0.0,0.0,nan,nan,409.43159819,416.513261326,416.871470775,417.013320911,nan,nan
0,7,4205,6,1,226,158,0.801265930663,0.120208988367,0.60458276857,1,1.0,1.0,0.294044477865,0,nan,nan,nan,nan,nan,nan,nan,nan,nan,0.0,0.0,0.0,nan,nan,409.43159819,417.513409006,417.807453484,418.013447779,nan,nan
0,8,4206,6,0,402,282,0.000724920831492,0.470139955471,-0.437811562499,0,0.0,1.0,0.637872451916,0,nan,nan,nan,nan,nan,nan,nan,nan,nan,0.0,0.0,0.0,nan,nan,409.43159819,418.513541006,419.151413458,419.013592039,nan,nan
0,9,4207,6,1,123,86,1.0,-0.311441137266,-0.208672863777,1,1.0,1.0,0.3817596687,0,nan,nan,nan,nan,nan,nan,nan,nan,nan,0.0,0.0,0.0,nan,nan,409.43159819,419.513645638,419.895405306,420.013685836,nan,nan
0,10,4208,6,1,346,243,-0.174317561957,0.466431294057,0.176670174816,1,1.0,1.0,0.32564785704,0,nan,nan,nan,nan,nan,nan,nan,nan,nan,0.0,0.0,0.0,nan,nan,409.43159819,420.513762527,420.839410384,421.013804722,nan,nan
0,11,4209,6,0,251,176,0.535576518695,0.236509187076,0.655284151108,0,0.0,1.0,0.389432792552,0,nan,nan,nan,nan,nan,nan,nan,nan,nan,0.0,0.0,0.0,nan,nan,409.43159819,421.513933586,421.903366379,422.013968368,nan,nan
0,12,4215,6,1,507,356,0.805995650865,0.232688349973,-1.0,1,1.0,1.0,0.373320203274,1,nan,nan,nan,nan,nan,nan,nan,96.0352823966,503.0,0.773020196022,0.248538461814,-1.0,-2.51965739661,2.81730988529,409.43159819,422.514042209,422.887362412,423.014053898,424.339247023,427.164599803
0,13,4216,6,1,373,262,-0.135407706169,0.478559568072,-0.0996974893599,1,1.0,1.0,0.577804621309,0,nan,nan,nan,nan,nan,nan,nan,nan,nan,0.0,0.0,0.0,nan,nan,409.43159819,428.381444352,428.959248973,428.881505933,nan,nan
0,14,4222,6,1,130,91,1.0,-0.309333154106,-0.136071487739,1,1.0,1.0,0.553655125201,1,nan,nan,nan,nan,nan,nan,nan,63.8905716602,37.0,1.0,0.0358565504353,-1.0,-65.2968216602,3.02565908898,409.43159819,429.381579488,429.935234613,429.881633656,431.206778886,434.240478303
0,15,4223,6,1,178,125,1.0,-0.139919655122,0.315097826042,1,1.0,1.0,0.414152198471,0,nan,nan,nan,nan,nan,nan,nan,nan,nan,0.0,0.0,0.0,nan,nan,409.43159819,435.448993149,435.863145348,435.94904076,nan,nan
0,16,4224,6,1,323,227,-0.11001989341,0.43965344528,0.375855360355,1,1.0,1.0,0.509961318225,0,nan,nan,nan,nan,nan,nan,nan,nan,nan,0.0,0.0,0.0,nan,nan,409.43159819,436.449140259,436.959101577,436.949204407,nan,nan
0,17,4225,6,1,456,320,0.383612429175,0.392633185378,-1.0,1,1.0,1.0,0.559350524098,0,nan,nan,nan,nan,nan,nan,nan,nan,nan,0.0,0.0,0.0,nan,nan,409.43159819,437.463725579,438.023076103,437.965996098,nan,nan
0,18,4226,6,1,244,171,0.611372359265,0.206163547436,0.648880721676,1,1.0,1.0,0.437027878128,0,nan,nan,nan,nan,nan,nan,nan,nan,nan,0.0,0.0,0.0,nan,nan,409.43159819,438.466042569,438.903070447,438.96607564,nan,nan
0,19,4231,6,1,287,201,0.159501648714,0.36255249221,0.590751920292,1,1.0,1.0,0.364859355614,1,nan,nan,nan,nan,nan,nan,nan,-114.904768808,291.0,0.122027637739,0.373441943191,0.573791926984,3.1078938081,1.73385262955,409.43159819,439.46620764,439.831066996,439.966205359,441.299709942,443.041613448
0,20,4232,6,1,160,112,1.0,-0.227501418013,0.158297521075,1,1.0,1.0,0.348524676636,0,nan,nan,nan,nan,nan,nan,nan,nan,nan,0.0,0.0,0.0,nan,nan,409.43159819,444.258448019,444.606972695,444.758484797,nan,nan
0,21,4233,6,1,107,75,1.0,-0.290089771429,-0.379592780214,1,1.0,1.0,0.372341462411,0,nan,nan,nan,nan,nan,nan,nan,nan,nan,0.0,0.0,0.0,nan,nan,409.43159819,445.258622499,445.630963962,445.758609954,nan,nan
0,22,4234,6,1,333,234,-0.149813480994,0.453275949072,0.294183738108,1,1.0,1.0,0.292177942581,0,nan,nan,nan,nan,nan,nan,nan,nan,nan,0.0,0.0,0.0,nan,nan,409.43159819,446.258747657,446.550925599,446.758739959,nan,nan
0,23,4235,6,1,4,2,0.879126049628,0.195014037372,-1.0,1,1.0,1.0,0.276085880585,0,nan,nan,nan,nan,nan,nan,nan,nan,nan,0.0,0.0,0.0,nan,nan,409.43159819,447.258827484,447.534913365,447.758867113,nan,nan
0,24,4236,6,1,230,161,0.760023132926,0.140224214653,0.61781109556,1,1.0,1.0,0.283929207362,0,nan,nan,nan,nan,nan,nan,nan,nan,nan,0.0,0.0,0.0,nan,nan,409.43159819,448.258971173,448.542900381,448.758998258,nan,nan
0,25,4237,6,0,471,331,0.506014005179,0.354993781952,-1.0,0,0.0,1.0,0.475754425861,0,nan,nan,nan,nan,nan,nan,nan,nan,nan,0.0,0.0,0.0,nan,nan,409.43159819,449.259123416,449.734877842,449.759153636,nan,nan
0,26,4238,6,1,149,104,1.0,-0.269478519393,0.0541436597792,1,1.0,1.0,0.467641682364,0,nan,nan,nan,nan,nan,nan,nan,nan,nan,0.0,0.0,0.0,nan,nan,409.43159819,450.259234034,450.726875716,450.759246008,nan,nan
0,27,4239,6,1,321,225,-0.0999433513493,0.43654647086,0.391174984052,1,0.0,0.0,0.491487263702,0,0.0,0.0,nan,nan,nan,nan,nan,nan,nan,0.0,0.0,0.0,nan,nan,409.43159819,451.259364324,451.750851587,451.767714269,nan,nan
0,28,4240,6,1,404,284,0.0124894593597,0.468746268022,-0.463349101315,1,1.0,1.0,0.531333391555,0,nan,nan,nan,nan,nan,nan,nan,nan,nan,0.0,0.0,0.0,nan,nan,409.43159819,452.259477792,452.790811184,452.759549637,nan,nan
0,29,4241,6,1,498,350,0.731507943485,0.267561876527,-1.0,1,1.0,1.0,0.355230461806,0,nan,nan,nan,nan,nan,nan,nan,nan,nan,0.0,0.0,0.0,nan,nan,409.43159819,453.259594398,453.614824859,453.759631175,nan,nan
0,30,4242,6,0,234,164,0.71814774995,0.15974031316,0.62913160129,0,1.0,0.0,0.315046207979,0,0.0,0.0,nan,nan,nan,nan,nan,nan,nan,0.0,0.0,0.0,nan,nan,409.43159819,454.259758044,454.574804252,454.759793681,nan,nan
0,31,4243,6,1,482,338,0.597655625539,0.322480811492,-1.0,1,1.0,1.0,0.338951661251,0,nan,nan,nan,nan,nan,nan,nan,nan,nan,0.0,0.0,0.0,nan,nan,409.43159819,455.25986524,455.598816901,455.759911426,nan,nan
0,32,4244,6,1,84,59,1.0,-0.20765784414,-0.652191087791,1,1.0,1.0,0.506741993129,0,nan,nan,nan,nan,nan,nan,nan,nan,nan,0.0,0.0,0.0,nan,nan,409.43159819,456.25999553,456.766737523,456.760063384,nan,nan
0,33,4245,6,1,438,307,0.243622561222,0.428096439079,-1.0,1,1.0,1.0,0.434618230909,0,nan,nan,nan,nan,nan,nan,nan,nan,nan,0.0,0.0,0.0,nan,nan,409.43159819,457.260129811,457.694748042,457.760164878,nan,nan
0,34,4246,6,0,212,149,0.93926288676,0.0467731277665,0.543851001166,0,0.0,1.0,0.410468735732,0,nan,nan,nan,nan,nan,nan,nan,nan,nan,0.0,0.0,0.0,nan,nan,409.43159819,458.260269509,458.670738244,458.760304576,nan,nan
0,35,4247,6,1,108,75,1.0,-0.292426609412,-0.368663285579,1,1.0,1.0,0.434331708588,0,nan,nan,nan,nan,nan,nan,nan,nan,nan,0.0,0.0,0.0,nan,nan,409.43159819,459.260384403,459.694716112,459.760396377,nan,nan
0,36,4248,6,0,199,139,1.0,-0.0246761787097,0.468786302982,0,0.0,1.0,0.562147904187,0,nan,nan,nan,nan,nan,nan,nan,nan,nan,0.0,0.0,0.0,nan,nan,409.43159819,460.260520966,460.82266887,460.760566581,nan,nan
0,37,4249,6,1,348,244,-0.175384772129,0.468017843042,0.157582163916,1,1.0,1.0,0.392684048042,0,nan,nan,nan,nan,nan,nan,nan,nan,nan,0.0,0.0,0.0,nan,nan,409.43159819,461.293992305,461.686676353,461.793985178,nan,nan
0,38,4250,6,1,25,17,1.0,0.0970682892709,-1.0,1,1.0,1.0,0.448581467383,0,nan,nan,nan,nan,nan,nan,nan,nan,nan,0.0,0.0,0.0,nan,nan,409.43159819,462.29407983,462.742661297,462.79410834,nan,nan
0,39,4251,6,1,177,124,1.0,-0.145192147526,0.306921212481,1,1.0,1.0,0.376423493028,0,nan,nan,nan,nan,nan,nan,nan,nan,nan,0.0,0.0,0.0,nan,nan,409.43159819,463.294207554,463.670631047,463.794244046,nan,nan
0,40,4252,6,1,441,310,0.266287261384,0.422891888867,-1.0,1,1.0,1.0,0.320279464126,0,nan,nan,nan,nan,nan,nan,nan,nan,nan,0.0,0.0,0.0,nan,nan,409.43159819,464.294333282,464.614612746,464.794372911,nan,nan
0,41,4253,6,1,224,157,0.821619416966,0.11002478857,0.597264883709,1,1.0,1.0,0.336142877117,0,nan,nan,nan,nan,nan,nan,nan,nan,nan,0.0,0.0,0.0,nan,nan,409.43159819,465.29445958,465.630602458,465.794500349,nan,nan
0,42,4254,6,1,177,124,1.0,-0.145192147526,0.306921212481,1,1.0,1.0,0.327972829342,0,nan,nan,nan,nan,nan,nan,nan,nan,nan,0.0,0.0,0.0,nan,nan,409.43159819,466.294595857,466.622568686,466.794628928,nan,nan
0,43,4255,6,1,44,30,1.0,-0.00106984144607,-1.0,1,1.0,1.0,0.343838807195,0,nan,nan,nan,nan,nan,nan,nan,nan,nan,0.0,0.0,0.0,nan,nan,409.43159819,467.294721871,467.638560678,467.794750665,nan,nan
0,44,4256,6,0,407,286,0.0305886347219,0.46645515455,-0.502577406972,0,0.0,1.0,0.439670735039,0,nan,nan,nan,nan,nan,nan,nan,nan,nan,0.0,0.0,0.0,nan,nan,409.43159819,468.294884091,468.734554826,468.794907754,nan,nan
0,45,4257,6,1,270,189,0.331159066004,0.309369715406,0.641393874915,1,1.0,1.0,0.399554335512,0,nan,nan,nan,nan,nan,nan,nan,nan,nan,0.0,0.0,0.0,nan,nan,409.43159819,469.294969335,469.694523671,469.795003262,nan,nan
0,46,4258,6,1,345,242,-0.173519535469,0.465595146217,0.186119282857,1,1.0,1.0,0.319427591749,0,nan,nan,nan,nan,nan,nan,nan,nan,nan,0.0,0.0,0.0,nan,nan,409.43159819,470.295097915,470.614525506,470.795131271,nan,nan
0,47,4259,6,1,33,23,1.0,0.0565990290419,-1.0,1,1.0,1.0,0.351272163913,0,nan,nan,nan,nan,nan,nan,nan,nan,nan,0.0,0.0,0.0,nan,nan,409.43159819,471.295227919,471.646500083,471.795262131,nan,nan
0,48,4300,6,1,234,164,0.71814774995,0.15974031316,0.62913160129,1,1.0,1.0,0.43911450915,0,nan,nan,nan,nan,nan,nan,nan,nan,nan,0.0,0.0,0.0,nan,nan,409.43159819,472.295374745,472.734489254,472.795386719,nan,nan
0,49,4301,6,1,138,97,1.0,-0.29832987918,-0.0546508148191,1,1.0,1.0,0.430287309922,0,nan,nan,nan,nan,nan,nan,nan,nan,nan,0.0,0.0,0.0,nan,nan,409.43159819,473.312184967,473.742472277,473.812216043,nan,nan
0,50,4302,6,1,261,183,0.427225806086,0.276617811781,0.653674462902,1,1.0,1.0,0.422168008983,0,nan,nan,nan,nan,nan,nan,nan,nan,nan,0.0,0.0,0.0,nan,nan,409.43159819,474.312289598,474.734457607,474.81232267,nan,nan
0,51,4303,6,1,458,322,0.399688045963,0.388050214986,-1.0,1,1.0,1.0,0.294030223042,0,nan,nan,nan,nan,nan,nan,nan,nan,nan,0.0,0.0,0.0,nan,nan,409.43159819,475.312401071,475.606431294,475.812441841,nan,nan
0,52,4304,6,1,135,94,1.0,-0.303502321856,-0.0849788702499,1,1.0,1.0,0.47785958834,0,nan,nan,nan,nan,nan,nan,nan,nan,nan,0.0,0.0,0.0,nan,nan,409.43159819,476.312540485,476.790400073,476.812561867,nan,nan
0,53,4305,6,1,503,353,0.773020196022,0.248538461814,-1.0,1,1.0,1.0,0.357359001413,0,nan,nan,nan,nan,nan,nan,nan,nan,nan,0.0,0.0,0.0,nan,nan,409.43159819,477.321047233,477.678406235,477.82103754,nan,nan
0,54,4306,6,1,210,147,0.958022500947,0.0359304984579,0.533421856807,1,1.0,1.0,0.349241126329,0,nan,nan,nan,nan,nan,nan,nan,nan,nan,0.0,0.0,0.0,nan,nan,409.43159819,478.321140746,478.670381872,478.821162698,nan,nan
0,55,4307,6,1,470,330,0.497741612616,0.357740777197,-1.0,1,1.0,1.0,0.413077665493,0,nan,nan,nan,nan,nan,nan,nan,nan,nan,0.0,0.0,0.0,nan,nan,409.43159819,479.321283009,479.734360674,479.821289851,nan,nan
0,56,4308,6,1,402,282,0.000724920831492,0.470139955471,-0.437811562499,1,1.0,1.0,0.492959794588,0,nan,nan,nan,nan,nan,nan,nan,nan,nan,0.0,0.0,0.0,nan,nan,409.43159819,480.321372245,480.814332039,480.829740151,nan,nan
0,57,4309,6,1,93,65,1.0,-0.245614297951,-0.538619881923,1,1.0,1.0,0.388837222941,0,nan,nan,nan,nan,nan,nan,nan,nan,nan,0.0,0.0,0.0,nan,nan,409.43159819,481.321494551,481.710331774,481.821541592,nan,nan
0,58,4310,6,1,164,115,1.0,-0.209685835145,0.194761549991,1,1.0,1.0,0.380698249675,0,nan,nan,nan,nan,nan,nan,nan,nan,nan,0.0,0.0,0.0,nan,nan,409.43159819,482.321627122,482.702325372,482.821663044,nan,nan
0,59,4311,6,1,439,308,0.251144291643,0.426392204401,-1.0,1,1.0,1.0,0.428486347198,0,nan,nan,nan,nan,nan,nan,nan,nan,nan,0.0,0.0,0.0,nan,nan,409.43159819,483.321803598,483.750289945,483.821792194,nan,nan
0,60,4312,6,1,233,163,0.728670395113,0.154909781369,0.626482233315,1,1.0,1.0,0.420356497169,0,nan,nan,nan,nan,nan,nan,nan,nan,nan,0.0,0.0,0.0,nan,nan,409.43159819,484.321901957,484.742258454,484.821927615,nan,nan
0,61,4313,6,1,363,255,-0.162287729338,0.476365729747,0.00704812682028,1,1.0,1.0,0.556197342463,0,nan,nan,nan,nan,nan,nan,nan,nan,nan,0.0,0.0,0.0,nan,nan,409.43159819,485.322031391,485.878228733,485.822103236,nan,nan
0,62,4314,6,1,126,88,1.0,-0.311411754845,-0.177408431044,1,1.0,1.0,0.620051557198,0,nan,nan,nan,nan,nan,nan,nan,nan,nan,0.0,0.0,0.0,nan,nan,409.43159819,486.322159114,486.942210671,486.822226398,nan,nan
0,63,4315,6,1,59,41,1.0,-0.0814409933332,-1.0,1,1.0,1.0,0.57191877719,0,nan,nan,nan,nan,nan,nan,nan,nan,nan,0.0,0.0,0.0,nan,nan,409.43159819,487.322282562,487.894201339,487.822342147,nan,nan
0,64,4316,6,1,471,331,0.506014005179,0.354993781952,-1.0,1,1.0,1.0,0.571792193688,0,nan,nan,nan,nan,nan,nan,nan,nan,nan,0.0,0.0,0.0,nan,nan,409.43159819,488.322398311,488.894190505,488.822477284,nan,nan
0,65,4325,6,1,61,42,1.0,-0.0921163965413,-1.0,1,1.0,1.0,0.643620023504,1,nan,nan,nan,nan,nan,nan,nan,64.4400348282,36.0,1.0,0.0410699577143,-1.0,-17.3306598282,5.79270993453,409.43159819,489.322544567,489.966164591,489.822612706,491.156059412,496.956794566
0,66,4326,6,1,505,355,0.789537956352,0.240683140511,-1.0,1,1.0,1.0,0.448354244232,0,nan,nan,nan,nan,nan,nan,nan,nan,nan,0.0,0.0,0.0,nan,nan,409.43159819,498.17367076,498.622025005,498.673710389,nan,nan
0,67,4327,6,1,125,87,1.0,-0.311567427947,-0.187805059354,1,1.0,1.0,0.31221718248,0,nan,nan,nan,nan,nan,nan,nan,nan,nan,0.0,0.0,0.0,nan,nan,409.43159819,499.173778812,499.485995995,499.673813595,nan,nan
0,68,4328,6,1,353,248,-0.175041255135,0.471490071959,0.108799216003,1,1.0,1.0,0.248135460541,0,nan,nan,nan,nan,nan,nan,nan,nan,nan,0.0,0.0,0.0,nan,nan,409.43159819,500.173906251,500.422041711,500.67394759,nan,nan
0,69,4329,6,1,405,284,0.018463324075,0.468009379796,-0.476293327428,1,1.0,1.0,0.255916350521,0,nan,nan,nan,nan,nan,nan,nan,nan,nan,0.0,0.0,0.0,nan,nan,409.43159819,501.174049655,501.429966005,501.67407617,nan,nan
0,70,4330,6,1,163,114,1.0,-0.214247802105,0.185723682048,1,1.0,1.0,0.239795208909,0,nan,nan,nan,nan,nan,nan,nan,nan,nan,0.0,0.0,0.0,nan,nan,409.43159819,502.174182796,502.413978005,502.674233829,nan,nan
0,71,4331,6,1,97,68,1.0,-0.260369742894,-0.491718830742,1,1.0,1.0,0.279632212594,0,nan,nan,nan,nan,nan,nan,nan,nan,nan,0.0,0.0,0.0,nan,nan,409.43159819,503.174314226,503.453946439,503.674351574,nan,nan
0,72,4332,6,1,304,213,0.0113092810281,0.404708921832,0.506160370659,1,1.0,1.0,0.365448367782,0,nan,nan,nan,nan,nan,nan,nan,nan,nan,0.0,0.0,0.0,nan,nan,409.43159819,504.224462648,504.589911016,504.724460367,nan,nan
0,73,4333,6,1,21,14,1.0,0.116713997928,-1.0,1,1.0,1.0,0.405313881114,0,nan,nan,nan,nan,nan,nan,nan,nan,nan,0.0,0.0,0.0,nan,nan,409.43159819,505.224593793,505.629907674,505.724583815,nan,nan
0,74,4334,6,1,387,272,-0.0787219327085,0.477231755363,-0.256974454483,1,1.0,1.0,0.333241152577,0,nan,nan,nan,nan,nan,nan,nan,nan,nan,0.0,0.0,0.0,nan,nan,409.43159819,506.22467248,506.557913632,506.724718666,nan,nan
0,75,4335,6,1,76,53,1.0,-0.169674511773,-0.773365826749,1,1.0,1.0,0.477052476257,0,nan,nan,nan,nan,nan,nan,nan,nan,nan,0.0,0.0,0.0,nan,nan,409.43159819,507.22480277,507.701855246,507.724846104,nan,nan
0,76,4336,6,1,269,189,0.34171296506,0.305888347675,0.643262349404,1,1.0,1.0,0.452906400897,0,nan,nan,nan,nan,nan,nan,nan,nan,nan,0.0,0.0,0.0,nan,nan,409.43159819,508.224945889,508.67785229,508.724971548,nan,nan
0,77,4337,6,1,385,270,-0.0879796604702,0.477733444059,-0.233926720364,1,1.0,1.0,0.460623429157,0,nan,nan,nan,nan,nan,nan,nan,nan,nan,0.0,0.0,0.0,nan,nan,409.43159819,509.22521103,509.685834459,509.725091574,nan,nan
0,78,4338,6,1,203,142,1.0,-0.00249325098487,0.493674673203,1,1.0,1.0,0.420599116012,0,nan,nan,nan,nan,nan,nan,nan,nan,nan,0.0,0.0,0.0,nan,nan,409.43159819,510.225206183,510.645805299,510.725244101,nan,nan
0,79,4339,6,0,402,282,0.000724920831492,0.470139955471,-0.437811562499,0,0.0,1.0,0.500419664197,0,nan,nan,nan,nan,nan,nan,nan,nan,nan,0.0,0.0,0.0,nan,nan,409.43159819,511.225355289,511.725774953,511.725397198,nan,nan
0,80,4340,6,1,451,317,0.343830962376,0.403518361206,-1.0,1,1.0,1.0,0.404339986853,0,0.0,0.0,0.441786255687,0.409076338692,0.0930177842553,0.502094122947,0.316058554437,nan,nan,0.0,0.0,0.0,nan,nan,409.43159819,512.225440534,512.629780521,512.725471609,nan,nan
0,81,4341,6,1,350,246,-0.175756816429,0.469490941964,0.138247479403,1,1.0,1.0,0.388188909739,0,0.0,0.0,0.430982853596,0.409017865213,0.0924432966742,0.501461161887,0.316574568538,nan,nan,0.0,0.0,0.0,nan,nan,409.43159819,513.225564837,513.613753746,513.725603324,nan,nan
0,82,4342,6,1,419,294,0.107894673663,0.454841969249,-0.678098861371,1,1.0,1.0,0.364037133753,0,0.0,0.0,0.385522010115,0.40876385356,0.0919063259645,0.500670179525,0.316857527596,nan,nan,0.0,0.0,0.0,nan,nan,409.43159819,514.225697407,514.58973454,514.725737035,nan,nan
0,83,4343,6,1,6,4,0.895129075663,0.186272780825,-1.0,1,1.0,1.0,0.307913061231,0,0.0,0.0,0.353379701575,0.408224977418,0.0914812340352,0.499706211453,0.316743743383,nan,nan,0.0,0.0,0.0,nan,nan,409.43159819,515.225821424,515.533734486,515.725860768,nan,nan
0,84,4344,6,1,284,199,0.188465149253,0.353984098999,0.602236276499,1,1.0,1.0,0.347706444561,0,0.0,0.0,0.339885546515,0.40703078794,0.0915835834793,0.498614371419,0.315447204461,nan,nan,0.0,0.0,0.0,nan,nan,409.43159819,516.226001321,516.573707766,516.725988206,nan,nan
0,85,4345,6,1,469,329,0.489482198204,0.360453357602,-1.0,1,1.0,1.0,0.387552857399,0,0.0,0.0,0.347724121064,0.406332854488,0.0912676996764,0.497600554165,0.315065154812,nan,nan,0.0,0.0,0.0,nan,nan,409.43159819,517.226120776,517.613673634,517.726113364,nan,nan
0,86,4346,6,1,386,271,-0.0833946583454,0.477495592553,-0.245424736514,1,1.0,1.0,0.443421767093,0,0.0,0.0,0.392893689685,0.406114482429,0.090757855232,0.496872337661,0.315356627197,nan,nan,0.0,0.0,0.0,nan,nan,409.43159819,518.226239378,518.669661145,518.726239663,nan,nan
0,87,4347,6,1,476,334,0.547545041103,0.340739382997,-1.0,1,1.0,1.0,0.427322577685,0,0.0,0.0,0.419432400726,0.406543301793,0.0903223364404,0.496865638234,0.316220965353,nan,nan,0.0,0.0,0.0,nan,nan,409.43159819,519.226333745,519.653656323,519.726365676,nan,nan
0,88,4348,6,0,315,221,-0.0657111424032,0.426434809442,0.434956515233,0,0.0,1.0,0.515107618645,0,0.0,0.0,0.461950654474,0.406779429928,0.0898346776888,0.496614107617,0.316944752239,nan,nan,0.0,0.0,0.0,nan,nan,409.43159819,520.226516208,520.741623826,520.726544432,nan,nan
0,89,4349,6,1,378,265,-0.117450136118,0.478670924818,-0.154810124165,1,1.0,1.0,0.459009489976,0,0.0,0.0,0.467146562102,0.407996600588,0.0900553414332,0.498051942021,0.317941259155,nan,nan,0.0,0.0,0.0,nan,nan,409.43159819,521.226607154,521.685616644,521.726621124,nan,nan
0,90,4350,6,1,511,359,0.838703193994,0.216284169582,-1.0,1,1.0,1.0,0.378876759671,0,0.0,0.0,0.450997956097,0.40856341047,0.0897131380575,0.498276548528,0.318850272413,nan,nan,0.0,0.0,0.0,nan,nan,409.43159819,522.226715491,522.605592251,522.726778213,nan,nan
0,91,4351,6,1,1,0,0.854939129564,0.207877072944,-1.0,1,1.0,1.0,0.386714099906,0,0.0,0.0,0.408200116518,0.408237183538,0.0892725087978,0.497509692336,0.31896467474,nan,nan,0.0,0.0,0.0,nan,nan,409.43159819,523.226866593,523.613580693,523.726905366,nan,nan
0,92,4352,6,1,175,123,1.0,-0.155629953633,0.290361762956,1,1.0,1.0,0.410558541305,0,0.0,0.0,0.392049800294,0.408003236977,0.0888140499522,0.496817286929,0.319189187025,nan,nan,0.0,0.0,0.0,nan,nan,409.43159819,524.226995457,524.637553998,524.727028243,nan,nan
0,93,4353,6,1,418,293,0.101175887384,0.455961754156,-0.661679309199,1,1.0,1.0,0.330443771556,0,0.0,0.0,0.375905470923,0.408030713368,0.0883356576592,0.496366371027,0.319695055708,nan,nan,0.0,0.0,0.0,nan,nan,409.43159819,525.227114628,525.5575584,525.727137721,nan,nan
0,94,4354,6,1,23,16,1.0,0.106943944166,-1.0,1,1.0,1.0,0.3808519179,0,0.0,0.0,0.373951410254,0.40720532037,0.0882243402712,0.495429660641,0.318980980098,nan,nan,0.0,0.0,0.0,nan,nan,409.43159819,526.288657269,526.669509187,526.793943553,nan,nan
0,95,4355,6,1,303,213,0.0191349273956,0.402522842081,0.512018356663,1,1.0,1.0,0.37582507357,0,0.0,0.0,0.362373587675,0.406927916133,0.0877999764781,0.494727892611,0.319127939655,nan,nan,0.0,0.0,0.0,nan,nan,409.43159819,527.285709928,527.661535001,527.785744425,nan,nan
0,96,4356,6,1,243,170,0.622151010882,0.20168048164,0.647463484622,1,1.0,1.0,0.351651058532,0,0.0,0.0,0.369442683334,0.40660392819,0.0873985553297,0.494002483519,0.31920537286,nan,nan,0.0,0.0,0.0,nan,nan,409.43159819,528.28583138,528.637482438,528.785857609,nan,nan
0,97,4357,6,1,3,2,0.871087178923,0.199335109687,-1.0,1,1.0,1.0,0.495462668128,0,0.0,0.0,0.407646266744,0.40603740376,0.0871238840226,0.493161287783,0.318913519738,nan,nan,0.0,0.0,0.0,nan,nan,409.43159819,529.2859936,529.781456268,529.802659564,nan,nan
0,98,4358,6,1,193,135,1.0,-0.0580453890011,0.428658791268,1,1.0,1.0,0.390670116991,0,0.0,0.0,0.41259461455,0.406949906458,0.0871428969748,0.494092803433,0.319807009483,nan,nan,0.0,0.0,0.0,nan,nan,409.43159819,530.302790424,530.693460541,530.802778165,nan,nan
0,99,4359,6,1,136,95,1.0,-0.301914900238,-0.074841205769,1,1.0,1.0,0.382554806769,0,0.0,0.0,0.422895863963,0.40678546414,0.0867169454848,0.493502409625,0.320068518655,nan,nan,0.0,0.0,0.0,nan,nan,409.43159819,531.302872532,531.685427339,531.802922139,nan,nan
0,100,4400,6,1,345,242,-0.173519535469,0.465595146217,0.186119282857,1,1.0,1.0,0.502366311848,0,0.0,0.0,0.425197078536,0.406543157566,0.0863159480222,0.492859105589,0.320227209544,nan,nan,0.0,0.0,0.0,nan,nan,409.43159819,532.303025344,532.805391656,532.803082649,nan,nan
0,101,4401,6,1,425,298,0.149162615564,0.447529597292,-0.791715667876,1,1.0,1.0,0.557893674821,0,0.0,0.0,0.480938264479,0.407491901668,0.0864099974472,0.493901899115,0.321081904221,nan,nan,0.0,0.0,0.0,nan,nan,409.43159819,533.311493034,533.869386709,533.811548059,nan,nan
0,102,4402,6,1,353,248,-0.175041255135,0.471490071959,0.108799216003,1,1.0,1.0,0.573805838823,0,0.0,1.0,0.544688608497,0.408966428856,0.0872529776673,0.496219406523,0.321713451189,nan,nan,0.0,0.0,0.0,nan,nan,409.43159819,534.311599662,534.8854055,534.811673217,nan,nan
0,103,4408,6,1,75,52,1.0,-0.164714458691,-0.791355921409,1,1.0,1.0,0.517633300275,1,0.0,0.0,0.54977760464,0.410566811477,0.0883199501568,0.498886761634,0.32224686132,43.3529713387,66.0,1.0,-0.118568705386,-1.0,-6.08734633874,2.48393787351,409.43159819,535.311712845,535.829346146,535.811800941,537.145279009,539.637238394
0,104,4409,6,1,152,106,1.0,-0.259184487343,0.0830625546756,1,1.0,1.0,0.335186089389,0,0.0,0.0,0.475541742829,0.411596296946,0.0885131242977,0.500109421244,0.323083172648,nan,nan,0.0,0.0,0.0,nan,nan,409.43159819,540.85408665,541.189272739,541.354127703,nan,nan
0,105,4410,6,0,371,260,-0.14179360683,0.478331938097,-0.0779732583494,0,0.0,1.0,0.550979766995,0,0.0,0.0,0.467933052219,0.410868580684,0.088402678523,0.499271259207,0.322465902161,nan,nan,0.0,0.0,0.0,nan,nan,409.43159819,541.854260274,542.405240041,542.354306175,nan,nan
0,106,4411,6,1,229,161,0.770397026975,0.135265939772,0.614681466938,1,1.0,1.0,0.262910939753,0,0.0,0.0,0.383025598712,0.412190384328,0.0890211163155,0.501211500644,0.323169268013,nan,nan,0.0,0.0,0.0,nan,nan,409.43159819,542.854342382,543.117253322,543.354389708,nan,nan
0,107,4412,6,1,463,325,0.440238315199,0.376011795327,-1.0,1,1.0,1.0,0.406727395952,0,0.0,0.0,0.4068727009,0.410795249332,0.0897608743055,0.500556123638,0.321034375027,nan,nan,0.0,0.0,0.0,nan,nan,409.43159819,543.854481225,544.261208621,544.354519713,nan,nan
0,108,4413,6,1,305,214,0.00361192545304,0.406859252708,0.500196907155,1,1.0,1.0,0.310543944128,0,0.0,0.0,0.326727426611,0.410757584023,0.0893451977878,0.500102781811,0.321412386235,nan,nan,0.0,0.0,0.0,nan,nan,409.43159819,544.854617502,545.165161446,545.354637174,nan,nan
0,109,4414,6,1,415,291,0.0813077335083,0.459153678902,-0.614968023274,1,1.0,1.0,0.286402716301,0,0.0,0.0,0.334558018794,0.409838192831,0.0894461854407,0.499284378272,0.320392007391,nan,nan,0.0,0.0,0.0,nan,nan,409.43159819,545.85475891,546.141161626,546.354761191,nan,nan
0,110,4415,6,1,16,11,0.973419431522,0.140652110383,-1.0,1,1.0,1.0,0.294289091602,0,1.0,0.0,0.29707858401,0.408716052136,0.0898061242442,0.49852217638,0.318909927891,nan,nan,0.0,0.0,0.0,nan,nan,409.43159819,546.85485841,547.149147501,547.354892051,nan,nan
0,111,4421,6,1,95,66,1.0,-0.253175017597,-0.514975443931,1,1.0,1.0,0.316138989292,1,0.0,0.0,0.298943599065,0.407685178617,0.0900520852422,0.497737263859,0.317633093375,25.5191997717,92.0,1.0,-0.241703663401,-0.55060883727,-2.31607477172,2.98413601611,409.43159819,547.905007971,548.221146961,548.405025078,549.730195966,552.722240595
0,112,4422,6,1,256,180,0.481312611765,0.257047908656,0.656065722404,1,1.0,1.0,0.361940808594,0,0.0,0.0,0.324122963163,0.406867801927,0.0900618260521,0.496929627979,0.316805975875,nan,nan,0.0,0.0,0.0,nan,nan,409.43159819,553.939090276,554.301031085,554.439127054,nan,nan
0,113,4423,6,1,408,286,0.036737934283,0.465637664749,-0.515938449969,1,1.0,1.0,0.353767624125,0,0.0,0.0,0.34394914067,0.406470217915,0.0897611093921,0.496231327307,0.316709108523,nan,nan,0.0,0.0,0.0,nan,nan,409.43159819,554.939223417,555.292991041,555.439255347,nan,nan
0,114,4424,6,1,142,99,1.0,-0.289568116499,-0.0146273521697,1,1.0,1.0,0.449659137055,0,0.0,0.0,0.388455856591,0.406007914461,0.0895015736705,0.495509488131,0.31650634079,nan,nan,0.0,0.0,0.0,nan,nan,409.43159819,555.93934829,556.389007427,556.439377369,nan,nan
0,115,4425,6,1,254,178,0.503011129055,0.248947817922,0.65613358125,1,1.0,1.0,0.48948559165,0,0.0,0.0,0.430970784277,0.406387490309,0.0892036981534,0.495591188463,0.317183792156,nan,nan,0.0,0.0,0.0,nan,nan,409.43159819,556.93949369,557.428979281,557.447853898,nan,nan
0,116,4426,6,1,440,309,0.258699398066,0.424657399123,-1.0,1,1.0,1.0,0.425357113592,0,0.0,0.0,0.454833947433,0.407103853252,0.0891499723893,0.496253825641,0.317953880863,nan,nan,0.0,0.0,0.0,nan,nan,409.43159819,557.93959775,558.364954864,558.439637664,nan,nan
0,117,4427,6,1,202,142,1.0,-0.00802826454356,0.487596984314,1,1.0,1.0,0.441191446967,0,0.0,0.0,0.45201138407,0.407259864024,0.088784073644,0.496043937668,0.31847579038,nan,nan,0.0,0.0,0.0,nan,nan,409.43159819,558.939755694,559.380947141,559.439767954,nan,nan
0,118,4428,6,1,267,187,0.362924526182,0.298807232282,0.646622522267,1,1.0,1.0,0.449052733369,0,0.0,0.0,0.438533764643,0.407547419812,0.0884617684269,0.496009188239,0.319085651385,nan,nan,0.0,0.0,0.0,nan,nan,409.43159819,559.93985947,560.388912204,560.439896532,nan,nan
0,119,4429,6,1,126,88,1.0,-0.311411754845,-0.177408431044,1,1.0,1.0,0.352924875915,0,0.0,0.0,0.414389685417,0.407896203959,0.0881707368945,0.496066940854,0.319725467065,nan,nan,0.0,0.0,0.0,nan,nan,409.43159819,560.939981206,561.292906082,561.440027392,nan,nan
0,120,4430,6,1,497,349,0.723174939644,0.271260599794,-1.0,1,1.0,1.0,0.360765065067,0,0.0,0.0,0.38758089145,0.407438109559,0.0879446818245,0.495382791384,0.319493427734,nan,nan,0.0,0.0,0.0,nan,nan,409.43159819,561.940126892,562.300891957,562.440145423,nan,nan
0,121,4431,6,1,100,70,1.0,-0.270427092546,-0.457439896749,1,1.0,1.0,0.34464420937,0,0.0,0.0,0.352778050117,0.407052381919,0.0876823915974,0.494734773516,0.319369990321,nan,nan,0.0,0.0,0.0,nan,nan,409.43159819,562.94023808,563.284882289,563.440272577,nan,nan
0,122,4432,6,1,149,104,1.0,-0.269478519393,0.0541436597792,1,1.0,1.0,0.352473851293,0,0.0,0.0,0.352627708577,0.406540839521,0.0875034085013,0.494044248022,0.319037431019,nan,nan,0.0,0.0,0.0,nan,nan,409.43159819,563.940386331,564.292860182,564.44042767,nan,nan
0,123,4433,6,1,375,263,-0.128556699755,0.478682433309,-0.121605159467,1,1.0,1.0,0.368323864415,0,0.0,0.0,0.35514730836,0.406101270511,0.0872821211152,0.493383391626,0.318819149395,nan,nan,0.0,0.0,0.0,nan,nan,409.43159819,564.940514625,565.308838489,565.440553113,nan,nan
0,124,4434,6,1,17,11,0.981069150956,0.135921910835,-1.0,1,1.0,1.0,0.320168276317,0,0.0,0.0,0.346988664009,0.40579661401,0.0869951041097,0.49279171812,0.3188015099,nan,nan,0.0,0.0,0.0,nan,nan,409.43159819,565.940640068,566.260808344,566.440681122,nan,nan
0,125,4435,6,0,233,163,0.728670395113,0.154909781369,0.626482233315,0,0.0,1.0,0.464014382102,0,0.0,0.0,0.384168840945,0.405111587308,0.0869815577584,0.492093145067,0.31813002955,nan,nan,0.0,0.0,0.0,nan,nan,409.43159819,566.940784613,567.404798995,567.440807706,nan,nan
0,126,4436,6,1,96,67,1.0,-0.25681952169,-0.503302481145,1,1.0,1.0,0.479879505932,0,0.0,0.0,0.421354054784,0.405579069807,0.0867932192769,0.492372289084,0.31878585053,nan,nan,0.0,0.0,0.0,nan,nan,409.43159819,567.940902643,568.420782149,568.440912051,nan,nan
0,127,4437,6,1,303,213,0.0191349273956,0.402522842081,0.512018356663,1,1.0,1.0,0.519752431661,0,0.0,0.0,0.487882106565,0.406164112611,0.0866999084017,0.492864021013,0.319464204209,nan,nan,0.0,0.0,0.0,nan,nan,409.43159819,568.941004993,569.460757425,569.441081969,nan,nan
0,128,4438,6,1,138,97,1.0,-0.29832987918,-0.0546508148191,1,1.0,1.0,0.543591172434,0,0.0,1.0,0.514407703343,0.407051521353,0.0869376806162,0.49398920197,0.320113840737,nan,nan,0.0,0.0,0.0,nan,nan,409.43159819,569.941136138,570.48472731,570.441206272,nan,nan
0,129,4448,6,1,407,286,0.0305886347219,0.46645515455,-0.502577406972,1,1.0,1.0,0.471444316208,1,0.0,0.0,0.511595973435,0.408109968261,0.087424078963,0.495534047224,0.320685889298,165.101304566,405.0,0.018463324075,0.468009379796,-0.476293327428,-1.2731795656,7.43459998537,409.43159819,570.941279543,571.412723859,571.441314895,572.774798949,580.217440118
0,130,4449,6,0,483,339,0.606025706087,0.319314454546,-1.0,0,0.0,1.0,0.506581483409,0,0.0,0.0,0.507205657351,0.408597155553,0.0872627976105,0.495859953163,0.321334357942,nan,nan,0.0,0.0,0.0,nan,nan,409.43159819,581.425959811,581.932541294,581.926017686,nan,nan
0,131,4450,6,1,365,256,-0.157962026257,0.477016591838,-0.0139196855225,1,1.0,1.0,0.338468420319,0,0.0,0.0,0.438831406645,0.409345127521,0.0873464235258,0.496691551047,0.321998703995,nan,nan,0.0,0.0,0.0,nan,nan,409.43159819,582.426055604,582.764524024,582.926102075,nan,nan
0,132,4451,6,1,60,42,1.0,-0.0867837676833,-1.0,1,1.0,1.0,0.410297391005,0,0.0,0.0,0.418449098244,0.40880818277,0.0872316903515,0.496039873121,0.321576492418,nan,nan,0.0,0.0,0.0,nan,nan,409.43159819,583.426196442,583.836493833,583.926217539,nan,nan
0,133,4452,6,1,223,156,0.83172397378,0.104890589731,0.593432239612,1,1.0,1.0,0.346162925474,0,0.0,0.0,0.364976245599,0.408819379824,0.0869032281288,0.495722607953,0.321916151695,nan,nan,0.0,0.0,0.0,nan,nan,409.43159819,584.426335,584.772497925,584.926377479,nan,nan
0,134,4453,6,0,28,19,1.0,0.082066132397,-1.0,0,1.0,0.0,0.314001895487,0,0.0,0.0,0.356820737322,0.408351794344,0.0867461249037,0.495097919248,0.32160566944,nan,nan,0.0,0.0,0.0,nan,nan,409.43159819,585.426471846,585.740473742,585.92651005,nan,nan
0,135,4454,6,1,135,94,1.0,-0.303502321856,-0.0849788702499,1,1.0,1.0,0.473853963427,0,0.0,0.0,0.378006261463,0.407652906204,0.086802084302,0.494454990506,0.320850821902,nan,nan,0.0,0.0,0.0,nan,nan,409.43159819,586.426597575,586.900451538,586.926651173,nan,nan
0,136,4455,6,1,367,258,-0.15309091083,0.477560897992,-0.0350816338538,1,1.0,1.0,0.577690866776,0,0.0,0.0,0.455182241897,0.408139678684,0.0866671117575,0.494806790441,0.321472566926,nan,nan,0.0,0.0,0.0,nan,nan,409.43159819,587.426716746,588.004407613,587.926778327,nan,nan
0,137,4456,6,1,424,298,0.142174562463,0.448819569244,-0.770229420881,1,1.0,1.0,0.513566949405,0,0.0,1.0,0.521703926536,0.409377278597,0.0875480836501,0.496925362247,0.321829194947,nan,nan,0.0,0.0,0.0,nan,nan,409.43159819,588.426836487,588.940403436,588.926900349,nan,nan
0,138,4508,6,1,249,175,0.557275547736,0.228026269286,0.654084877906,1,1.0,1.0,0.393416463397,1,0.0,0.0,0.494891426526,0.410132276211,0.0876767860808,0.497809062292,0.322455490131,-76.6428772857,237.0,0.686387300223,0.174031846447,0.636349816437,-8.4352477143,8.51813649759,409.43159819,589.426970483,589.820386946,589.926980746,591.260488749,599.786571208
0,139,4509,6,1,104,73,1.0,-0.282351481576,-0.412644567278,1,1.0,1.0,0.56075434573,0,0.0,0.0,0.489245919511,0.410012018565,0.0873722543338,0.497384272899,0.322639764232,nan,nan,0.0,0.0,0.0,nan,nan,409.43159819,601.003431153,601.564185498,601.503511836,nan,nan
0,140,4510,6,0,508,357,0.814199817736,0.228638933499,-1.0,0,0.0,1.0,0.448576334864,0,0.0,0.0,0.46758238133,0.411088749474,0.0879802958979,0.499069045372,0.323108453576,nan,nan,0.0,0.0,0.0,nan,nan,409.43159819,602.003593944,602.452170279,602.503614185,nan,nan
0,141,4511,6,1,183,128,1.0,-0.113108999915,0.354902835149,1,1.0,1.0,0.312537062913,0,0.0,0.0,0.440622581169,0.411354618874,0.0877241767599,0.499078795633,0.323630442114,nan,nan,0.0,0.0,0.0,nan,nan,409.43159819,603.003679188,603.316216251,603.503722237,nan,nan
0,142,4512,6,0,339,238,-0.164955840019,0.45996923152,0.241423096872,0,0.0,1.0,0.59228245914,0,0.0,0.0,0.451131952306,0.410658720592,0.0878044417985,0.498463162391,0.322854278794,nan,nan,0.0,0.0,0.0,nan,nan,409.43159819,604.003849106,604.596131565,604.503894437,nan,nan
0,143,4513,6,1,125,87,1.0,-0.311567427947,-0.187805059354,1,1.0,1.0,0.288175453432,0,0.0,0.0,0.397664991828,0.411928816666,0.0887962444373,0.500725061103,0.323132572229,nan,nan,0.0,0.0,0.0,nan,nan,409.43159819,605.003958869,605.292134322,605.503983958,nan,nan
0,144,4514,6,0,205,144,1.0,0.00854800403903,0.505535240796,0,0.0,1.0,0.519998471253,0,0.0,0.0,0.466818794608,0.41106941831,0.0890821672911,0.500151585601,0.321987251019,nan,nan,0.0,0.0,0.0,nan,nan,409.43159819,606.004103414,606.524101885,606.504142472,nan,nan
0,145,4515,6,1,328,230,-0.132159558243,0.44685796506,0.336046158271,1,1.0,1.0,0.351868588477,0,0.0,0.0,0.386680837721,0.411820653158,0.0892309978416,0.501051651,0.322589655316,nan,nan,0.0,0.0,0.0,nan,nan,409.43159819,607.004215457,607.356084045,607.504251665,nan,nan
0,146,4516,6,1,176,123,1.0,-0.150429669724,0.298675466069,1,1.0,1.0,0.39971826598,0,0.0,0.0,0.423861775237,0.411410022578,0.0890622540237,0.500472276602,0.322347768554,nan,nan,0.0,0.0,0.0,nan,nan,409.43159819,608.004341755,608.404060021,608.504380814,nan,nan
0,147,4517,6,1,33,23,1.0,0.0565990290419,-1.0,1,1.0,1.0,0.334225594066,0,0.0,0.0,0.361937482841,0.411330486819,0.0887640068724,0.500094493691,0.322566479946,nan,nan,0.0,0.0,0.0,nan,nan,409.43159819,609.03781452,609.372040114,609.537823359,nan,nan
0,148,4518,6,1,321,225,-0.0999433513493,0.43654647086,0.391174984052,1,1.0,1.0,0.45413574297,0,0.0,0.0,0.396026534339,0.410809507814,0.0886888420842,0.499498349898,0.32212066573,nan,nan,0.0,0.0,0.0,nan,nan,409.43159819,610.037908887,610.49204463,610.537937682,nan,nan
0,149,4519,6,1,379,266,-0.113535935895,0.478614986251,-0.165970515924,1,1.0,1.0,0.421941070817,0,0.0,0.0,0.403434135951,0.411100287915,0.088461486306,0.499561774221,0.322638801609,nan,nan,0.0,0.0,0.0,nan,nan,409.43159819,611.038083653,611.460024724,611.538068827,nan,nan
0,150,4520,6,1,166,116,1.0,-0.20036215083,0.21267421211,1,1.0,1.0,0.509500314482,0,0.0,0.0,0.461859042756,0.411172559801,0.0881705350803,0.499343094882,0.323002024721,nan,nan,0.0,0.0,0.0,nan,nan,409.43159819,612.046494324,612.555994638,612.546579283,nan,nan
0,151,4521,6,1,390,274,-0.0641960347588,0.476284203309,-0.291947553613,1,1.0,1.0,0.571288995445,0,0.0,1.0,0.500910126915,0.411823736985,0.0882392445841,0.500062981569,0.323584492401,nan,nan,0.0,0.0,0.0,nan,nan,409.43159819,613.096664413,613.667953408,613.59671288,nan,nan
0,152,4531,6,1,8,5,0.91102658764,0.177400941622,-1.0,1,1.0,1.0,0.483172100969,1,0.0,0.0,0.521320470298,0.412872850527,0.0888883346831,0.50176118521,0.323984515844,79.1435866519,15.0,0.965734432428,0.145352784795,-1.0,5.23141334806,6.72615014203,409.43159819,614.096771325,614.579943426,614.596797269,615.921990964,622.656165184
0,153,4532,6,1,317,222,-0.077772836126,0.429938605076,0.420733606481,1,1.0,1.0,0.466787529178,0,0.0,0.0,0.507082875197,0.413332322752,0.0887782860219,0.502110608774,0.324554036731,nan,nan,0.0,0.0,0.0,nan,nan,409.43159819,623.87300232,624.339789849,624.37304537,nan,nan
0,154,4533,6,1,363,255,-0.162287729338,0.476365729747,0.00704812682028,1,1.0,1.0,0.338600705378,0,0.0,0.0,0.429520111841,0.413679434482,0.0885936758142,0.502273110297,0.325085758668,nan,nan,0.0,0.0,0.0,nan,nan,409.43159819,624.873161404,625.21176211,625.373171953,nan,nan
0,155,4534,6,1,123,86,1.0,-0.311441137266,-0.208672863777,1,1.0,1.0,0.338472696953,0,0.0,0.0,0.381286977169,0.413195055585,0.0885117712504,0.501706826835,0.324683284335,nan,nan,0.0,0.0,0.0,nan,nan,409.43159819,625.873277154,626.211749851,626.373301388,nan,nan
0,156,4535,6,1,194,136,1.0,-0.0524864644427,0.435571704399,1,1.0,1.0,0.330342276953,0,0.0,0.0,0.335805226428,0.412716066107,0.0884289282704,0.501144994377,0.324287137836,nan,nan,0.0,0.0,0.0,nan,nan,409.43159819,626.873390053,627.20373233,627.373436239,nan,nan
0,157,4536,6,1,107,75,1.0,-0.290089771429,-0.379592780214,1,1.0,1.0,0.306200193241,0,0.0,0.0,0.325005055716,0.41219139229,0.0883901159256,0.500581508216,0.323801276365,nan,nan,0.0,0.0,0.0,nan,nan,409.43159819,627.873514926,628.179715119,628.373555695,nan,nan
0,158,4537,6,1,0,0,0.846831709088,0.212097570855,-1.0,1,1.0,1.0,0.37004699558,0,0.0,0.0,0.335529821925,0.411520561917,0.0885099797461,0.500030541663,0.32301058217,nan,nan,0.0,0.0,0.0,nan,nan,409.43159819,628.873647781,629.243694777,629.373680567,nan,nan
0,159,4538,6,1,191,134,1.0,-0.0691479807067,0.414571651978,1,1.0,1.0,0.32991577033,0,0.0,0.0,0.33538765305,0.411259721877,0.0882921055345,0.499551827411,0.322967616342,nan,nan,0.0,0.0,0.0,nan,nan,409.43159819,629.873772655,630.203688425,630.373827678,nan,nan
0,160,4539,6,1,131,92,1.0,-0.308451667147,-0.125800503078,1,1.0,1.0,0.29778382089,0,0.0,0.0,0.3325821956,0.41075132218,0.08824891399,0.49900023617,0.32250240819,nan,nan,0.0,0.0,0.0,nan,nan,409.43159819,630.873919195,631.171703015,631.373964525,nan,nan
0,161,4540,6,1,57,40,1.0,-0.0707313323512,-1.0,1,1.0,1.0,0.281615638174,0,1.0,0.0,0.303105076465,0.410049660681,0.0884209905473,0.498470651228,0.321628670134,nan,nan,0.0,0.0,0.0,nan,nan,409.43159819,631.874048914,632.155664552,632.374091108,nan,nan
0,162,4548,6,1,285,200,0.178734351563,0.356878681702,0.598527012995,1,1.0,1.0,0.37746181991,1,0.0,0.0,0.318953759658,0.409256858073,0.0887198113489,0.497976669422,0.320537046724,-109.482434263,284.0,0.188465149253,0.353984098999,0.602236276499,-0.908190737398,5.50937259104,409.43159819,632.874176923,633.251638743,633.374215696,634.70769519,640.225087297
0,163,4549,6,1,402,282,0.000724920831492,0.470139955471,-0.437811562499,1,1.0,1.0,0.4175562663,0,0.0,0.0,0.358877908128,0.409061796489,0.088482084438,0.497543880927,0.320579712051,nan,nan,0.0,0.0,0.0,nan,nan,409.43159819,641.44192757,641.859483836,641.941948952,nan,nan
0,164,4550,6,1,120,84,1.0,-0.310161497659,-0.240162905937,1,1.0,1.0,0.425404724665,0,0.0,0.0,0.406807603625,0.409113592037,0.0882143881191,0.497327980156,0.320899203918,nan,nan,0.0,0.0,0.0,nan,nan,409.43159819,642.442041324,642.867446048,642.942094067,nan,nan
0,165,4551,6,1,408,286,0.036737934283,0.465637664749,-0.515938449969,1,1.0,1.0,0.361251442693,0,0.0,0.0,0.401404144553,0.409212326174,0.087955754338,0.497168080512,0.321256571836,nan,nan,0.0,0.0,0.0,nan,nan,409.43159819,643.442198982,643.803450425,643.942202689,nan,nan
0,166,4552,6,1,492,345,0.681403316433,0.289222019555,-1.0,1,1.0,1.0,0.385108998045,0,0.0,0.0,0.390588388468,0.408923405189,0.0877689264397,0.496692331629,0.321154478749,nan,nan,0.0,0.0,0.0,nan,nan,409.43159819,644.442313022,644.82742202,644.942340962,nan,nan
0,167,4553,6,1,103,72,1.0,-0.279537473278,-0.423758835275,1,1.0,1.0,0.360977178439,0,0.0,0.0,0.369112539726,0.408780803949,0.0875250365705,0.496305840519,0.321255767378,nan,nan,0.0,0.0,0.0,nan,nan,409.43159819,645.442439036,645.803416214,645.942463554,nan,nan
0,168,4554,6,1,304,213,0.0113092810281,0.404708921832,0.506160370659,1,1.0,1.0,0.408805474639,0,0.0,0.0,0.384963883708,0.408496258559,0.0873415958275,0.495837854386,0.321154662731,nan,nan,0.0,0.0,0.0,nan,nan,409.43159819,646.442579018,646.851384493,646.942588711,nan,nan
0,169,4555,6,1,484,340,0.614398947124,0.316112737715,-1.0,1,1.0,1.0,0.432649916038,0,0.0,0.0,0.400810856372,0.40849808824,0.0870828085743,0.495580896814,0.321415279665,nan,nan,0.0,0.0,0.0,nan,nan,409.43159819,647.442727269,647.875377185,647.942714155,nan,nan
0,170,4556,6,1,253,177,0.513865899396,0.244839928328,0.655977188727,1,1.0,1.0,0.432539868169,0,0.0,0.0,0.424665086282,0.408640157815,0.0868459456658,0.495486103481,0.321794212149,nan,nan,0.0,0.0,0.0,nan,nan,409.43159819,648.442806811,648.875346679,648.942847295,nan,nan
0,171,4557,6,1,444,312,0.289241202529,0.417409780569,-1.0,1,1.0,1.0,0.320366703905,0,0.0,0.0,0.395185496037,0.408779922203,0.0866108107181,0.495390732921,0.322169111485,nan,nan,0.0,0.0,0.0,nan,nan,409.43159819,649.442955633,649.763322337,649.942975304,nan,nan
0,172,4558,6,1,42,29,1.0,0.00954878589686,-1.0,1,1.0,1.0,0.320271766745,0,0.0,0.0,0.357726112939,0.408265891864,0.0866198730245,0.494885764888,0.321646018839,nan,nan,0.0,0.0,0.0,nan,nan,409.43159819,650.443062259,650.763334026,650.943105879,nan,nan
0,173,4559,6,1,431,303,0.191957257768,0.43918128748,-0.982298765802,1,1.0,1.0,0.360091094859,0,0.0,0.0,0.333576521836,0.407757255303,0.0866263860771,0.49438364138,0.321130869225,nan,nan,0.0,0.0,0.0,nan,nan,409.43159819,651.443215356,651.803306451,651.9432547,nan,nan
0,174,4600,6,1,124,87,1.0,-0.311577186586,-0.198226518473,1,1.0,1.0,0.295917855576,0,0.0,0.0,0.325426905726,0.407483311852,0.0864522201215,0.493935531973,0.32103109173,nan,nan,0.0,0.0,0.0,nan,nan,409.43159819,652.443367029,652.739284884,652.943355625,nan,nan
0,175,4601,6,1,432,303,0.199227897075,0.437687328843,-1.0,1,1.0,1.0,0.287827349268,0,1.0,0.0,0.314612099901,0.406845794959,0.0866140652879,0.493459860247,0.320231729671,nan,nan,0.0,0.0,0.0,nan,nan,409.43159819,653.44344543,653.731272779,653.943482493,nan,nan
0,176,4608,6,1,8,5,0.91102658764,0.177400941622,-1.0,1,1.0,1.0,0.263608859852,1,0.0,0.0,0.282451354899,0.40616955379,0.086829713793,0.492999267583,0.319339839997,78.9964591483,16.0,0.973419431522,0.140652110383,-1.0,5.37854085175,3.56743703876,409.43159819,654.443695746,654.707304606,654.94361934,656.277120216,659.852566794
0,177,4609,6,1,156,109,1.0,-0.244060613314,0.121041471254,1,1.0,1.0,0.5900273351,0,0.0,0.0,0.380487848073,0.405364126141,0.0872409154732,0.492605041614,0.318123210668,nan,nan,0.0,0.0,0.0,nan,nan,409.43159819,661.061095323,661.651122659,661.561168593,nan,nan
0,178,4610,6,1,81,56,1.0,-0.193804253699,-0.694219169772,1,1.0,1.0,0.357885862701,0,0.0,0.0,0.403840685884,0.406401559899,0.0880835887725,0.494485148671,0.318317971126,nan,nan,0.0,0.0,0.0,nan,nan,409.43159819,662.061224758,662.41911062,662.561250417,nan,nan
0,179,4611,6,1,474,333,0.530901762182,0.346545376391,-1.0,1,1.0,1.0,0.309673825279,0,0.0,0.0,0.41919567436,0.406130522484,0.0879116028871,0.494042125371,0.318218919597,nan,nan,0.0,0.0,0.0,nan,nan,409.43159819,663.061414918,663.371088743,663.561396957,nan,nan
0,180,4612,6,1,300,210,0.0433537089178,0.395748422077,0.528951029102,1,1.0,1.0,0.317583293654,0,0.0,0.0,0.328380993878,0.405594651944,0.0879597364393,0.493554388384,0.317634915505,nan,nan,0.0,0.0,0.0,nan,nan,409.43159819,664.061512137,664.37909543,664.561503869,nan,nan
0,181,4613,6,0,367,258,-0.15309091083,0.477560897992,-0.0350816338538,0,1.0,0.0,0.277463472448,0,0.0,0.0,0.30157353046,0.405108401346,0.0879586776982,0.493067079044,0.317149723648,nan,nan,0.0,0.0,0.0,nan,nan,409.43159819,665.061631878,665.33909535,665.561662383,nan,nan
0,182,4614,6,1,216,151,0.900975005756,0.0682271079607,0.563426584804,1,1.0,1.0,0.293299231678,0,0.0,0.0,0.296115332594,0.404407055583,0.0882227341829,0.492629789766,0.3161843214,nan,nan,0.0,0.0,0.0,nan,nan,409.43159819,666.061744777,666.355044008,666.561785545,nan,nan
0,183,4615,6,0,131,92,1.0,-0.308451667147,-0.125800503078,0,0.0,1.0,0.421150780283,0,0.0,0.0,0.330637828136,0.403799909004,0.088361810244,0.492161719248,0.31543809876,nan,nan,0.0,0.0,0.0,nan,nan,409.43159819,667.06188533,667.48303611,667.561921822,nan,nan
0,184,4616,6,1,224,157,0.821619416966,0.11002478857,0.597264883709,1,1.0,1.0,0.253078200854,0,0.0,0.0,0.322509404272,0.403894207218,0.0881306020987,0.492024809316,0.315763605119,nan,nan,0.0,0.0,0.0,nan,nan,409.43159819,668.062001649,668.31507985,668.562012198,nan,nan
0,185,4617,6,1,307,215,-0.0113868739462,0.411053355611,0.487957006857,1,1.0,1.0,0.332853989676,0,0.0,0.0,0.335694323604,0.403078985562,0.0885850050192,0.491663990581,0.314493980542,nan,nan,0.0,0.0,0.0,nan,nan,409.43159819,669.062143343,669.394997332,669.562166721,nan,nan
0,186,4618,6,1,383,269,-0.0968787136249,0.478131214543,-0.211081409456,1,1.0,1.0,0.332739665173,0,1.0,0.0,0.306223951901,0.40270143182,0.0884956748981,0.491197106718,0.314205756922,nan,nan,0.0,0.0,0.0,nan,nan,409.43159819,670.062250825,670.39499049,670.562299007,nan,nan
0,187,4626,6,1,492,345,0.681403316433,0.289222019555,-1.0,1,1.0,1.0,0.276592784561,1,0.0,0.0,0.31406214647,0.402327304726,0.0884061055636,0.49073341029,0.313921199162,102.331139466,494.0,0.698129958021,0.282143999684,-1.0,1.73136053401,4.84268387686,409.43159819,671.062385106,671.33897789,671.56242559,672.895902517,677.746523517
0,188,4627,6,1,228,160,0.780729811514,0.1302769546,0.611433142569,1,1.0,1.0,0.39177686628,0,0.0,0.0,0.333703105338,0.401658504087,0.08864373065,0.490302234737,0.313014773437,nan,nan,0.0,0.0,0.0,nan,nan,409.43159819,678.955040359,679.346817225,679.455091392,nan,nan
0,189,4628,6,0,373,262,-0.135407706169,0.478559568072,-0.0996974893599,0,0.0,1.0,0.479589846916,0,0.0,0.0,0.382653165919,0.401606220289,0.0884118188316,0.49001803912,0.313194401457,nan,nan,0.0,0.0,0.0,nan,nan,409.43159819,679.955202579,680.434792426,680.455230804,nan,nan
0,190,4629,6,1,46,32,1.0,-0.0117313672748,-1.0,1,1.0,1.0,0.295480799861,0,0.0,0.0,0.388949171019,0.402016660429,0.0883592021072,0.490375862536,0.313657458322,nan,nan,0.0,0.0,0.0,nan,nan,409.43159819,680.955302649,681.250783449,681.455330018,nan,nan
0,191,4630,6,1,232,163,0.739158239773,0.150046616059,0.623712016981,1,1.0,1.0,0.407336935401,0,0.0,0.0,0.394135860726,0.401458881054,0.0884623355684,0.489921216623,0.312996545486,nan,nan,0.0,0.0,0.0,nan,nan,409.43159819,681.955425811,682.362762746,682.455475988,nan,nan
0,192,4631,6,1,299,210,0.0516645560415,0.393417669654,0.534378752182,1,1.0,1.0,0.351174375042,0,0.0,0.0,0.351330703435,0.401489495921,0.0882326786319,0.489722174553,0.313256817289,nan,nan,0.0,0.0,0.0,nan,nan,409.43159819,682.955567219,683.306741594,683.455602857,nan,nan
0,193,4632,6,1,255,179,0.492159363509,0.253017189294,0.656163111527,1,1.0,1.0,0.359048491344,0,0.0,0.0,0.372519933929,0.401228795812,0.0880779084391,0.489306704252,0.313150887373,nan,nan,0.0,0.0,0.0,nan,nan,409.43159819,683.955682685,684.314731176,684.455715185,nan,nan
0,194,4633,6,1,187,131,1.0,-0.0912463489427,0.385383214542,1,1.0,1.0,0.438900685869,0,0.0,0.0,0.383041184085,0.401011371563,0.0879025225228,0.488913894085,0.31310884904,nan,nan,0.0,0.0,0.0,nan,nan,409.43159819,684.95580214,685.394702826,685.455831505,nan,nan
0,195,4634,6,1,36,25,1.0,0.0410699577143,-1.0,1,1.0,1.0,0.342735479586,0,0.0,0.0,0.380228218933,0.401205675739,0.0877186005029,0.488924276241,0.313487075236,nan,nan,0.0,0.0,0.0,nan,nan,409.43159819,685.955932145,686.298667625,686.455967212,nan,nan
0,196,4635,6,1,370,260,-0.144805996584,0.478178727438,-0.0671803333712,1,1.0,1.0,0.406558617949,0,0.0,0.0,0.396064927801,0.400907358411,0.0875936563386,0.48850101475,0.313313702073,nan,nan,0.0,0.0,0.0,nan,nan,409.43159819,686.956103204,687.362661822,687.456094936,nan,nan
0,197,4636,6,1,25,17,1.0,0.0970682892709,-1.0,1,1.0,1.0,0.31843801681,0,0.0,0.0,0.355910704782,0.400936045008,0.0873719775916,0.4883080226,0.313564067416,nan,nan,0.0,0.0,0.0,nan,nan,409.43159819,687.95620869,688.274646707,688.456232068,nan,nan
0,198,4637,6,1,305,214,0.00361192545304,0.406859252708,0.500196907155,1,1.0,1.0,0.366346426308,0,0.0,0.0,0.363781020356,0.4005193883,0.0873470512459,0.487866439546,0.313172337054,nan,nan,0.0,0.0,0.0,nan,nan,409.43159819,688.956309329,689.322655755,689.456345822,nan,nan
0,199,4638,6,1,418,293,0.101175887384,0.455961754156,-0.661679309199,1,1.0,1.0,0.43017412629,0,0.0,0.0,0.371652856469,0.400347664873,0.0871608107902,0.487508475663,0.313186854083,nan,nan,0.0,0.0,0.0,nan,nan,409.43159819,689.956437623,690.386611749,690.456474116,nan,nan
0,200,4639,6,1,101,71,1.0,-0.273572672894,-0.446152610616,1,1.0,1.0,0.549984776415,0,0.0,0.0,0.448835109671,0.40049679718,0.0869680846717,0.487464881852,0.313528712508,nan,nan,0.0,0.0,0.0,nan,nan,409.43159819,690.956616664,691.506601441,691.456652016,nan,nan
0,201,4640,6,1,373,262,-0.135407706169,0.478559568072,-0.0996974893599,1,1.0,1.0,0.405876664445,0,0.0,0.0,0.462011855717,0.40124051847,0.0873867434428,0.488627261912,0.313853775027,nan,nan,0.0,0.0,0.0,nan,nan,409.43159819,691.956692501,692.362569165,692.456736405,nan,nan
0,202,4641,6,1,266,187,0.373577590308,0.295207490188,0.648113769863,1,1.0,1.0,0.389729863964,0,0.0,0.0,0.448530434941,0.401263469687,0.0871707785617,0.488434248249,0.314092691126,nan,nan,0.0,0.0,0.0,nan,nan,409.43159819,692.956833054,693.346562918,693.456855576,nan,nan
0,203,4642,6,1,132,92,1.0,-0.307426825298,-0.115555361894,1,1.0,1.0,0.509542508982,0,0.0,0.0,0.43504967913,0.401206653895,0.0869595564523,0.488166210348,0.314247097443,nan,nan,0.0,0.0,0.0,nan,nan,409.43159819,693.956976743,694.466519252,694.457030342,nan,nan
0,204,4643,6,1,234,164,0.71814774995,0.15974031316,0.62913160129,1,1.0,1.0,0.381436083466,0,0.0,0.0,0.426902818804,0.401737712009,0.0870755224918,0.4888132345,0.314662189517,nan,nan,0.0,0.0,0.0,nan,nan,409.43159819,694.957092778,695.338528861,695.457109313,nan,nan
0,205,4644,6,1,404,284,0.0124894593597,0.468746268022,-0.463349101315,1,1.0,1.0,0.373288842849,0,0.0,0.0,0.421422478432,0.401638679674,0.0868743992579,0.488513078932,0.314764280416,nan,nan,0.0,0.0,0.0,nan,nan,409.43159819,695.957222212,696.330511055,696.457237038,nan,nan
0,206,4645,6,1,199,139,1.0,-0.0246761787097,0.468786302982,1,1.0,1.0,0.357166560367,0,0.0,0.0,0.370630495561,0.401501059107,0.0866856800317,0.488186739139,0.314815379076,nan,nan,0.0,0.0,0.0,nan,nan,409.43159819,696.957333116,697.314499676,697.457370178,nan,nan
0,207,4646,6,1,487,342,0.639529740128,0.306295026098,-1.0,1,1.0,1.0,0.397002709098,0,0.0,0.0,0.375819370771,0.401286882785,0.0865306602729,0.487817543058,0.314756222512,nan,nan,0.0,0.0,0.0,nan,nan,409.43159819,697.957460554,698.354463263,698.457494196,nan,nan
0,208,4647,6,1,124,87,1.0,-0.311577186586,-0.198226518473,1,1.0,1.0,0.380821127445,0,0.0,0.0,0.378330132303,0.401266285796,0.0863229119222,0.487589197718,0.314943373874,nan,nan,0.0,0.0,0.0,nan,nan,409.43159819,698.95763646,699.338457587,699.457621064,nan,nan
0,209,4648,6,1,456,320,0.383612429175,0.392633185378,-1.0,1,1.0,1.0,0.356726370752,0,0.0,0.0,0.378183402432,0.401168462072,0.0861277061715,0.487296168243,0.3150407559,nan,nan,0.0,0.0,0.0,nan,nan,409.43159819,699.957717427,700.314443798,700.457751354,nan,nan
0,210,4649,6,1,140,98,1.0,-0.294209249228,-0.0345777392028,1,1.0,1.0,0.388593464158,0,0.0,0.0,0.375380320785,0.400956833065,0.0859768486072,0.486933681673,0.314979984458,nan,nan,0.0,0.0,0.0,nan,nan,409.43159819,700.957837454,701.346430918,701.457876797,nan,nan
0,211,4650,6,1,434,305,0.213881816697,0.43461034373,-1.0,1,1.0,1.0,0.492428372614,0,0.0,0.0,0.412582735841,0.4008982389,0.0857770728192,0.486675311719,0.315121166081,nan,nan,0.0,0.0,0.0,nan,nan,409.43159819,701.957972875,702.450401247,702.466337075,nan,nan
0,212,4651,6,1,282,198,0.208142307666,0.34807905204,0.609295500931,1,1.0,1.0,0.516253426671,0,0.0,0.0,0.465758421148,0.401329984814,0.0858040291401,0.487134013954,0.315525955674,nan,nan,0.0,0.0,0.0,nan,nan,409.43159819,702.958106301,703.474359727,703.458185558,nan,nan
0,213,4652,6,0,194,136,1.0,-0.0524864644427,0.435571704399,0,1.0,0.0,0.540084184147,0,0.0,0.0,0.516255327811,0.401869531489,0.0859620958959,0.487831627385,0.315907435593,nan,nan,0.0,0.0,0.0,nan,nan,409.43159819,703.958261679,704.498345863,704.458310431,nan,nan
0,214,4653,6,1,301,211,0.0351599448551,0.39804275895,0.523414514543,1,1.0,1.0,0.675989746116,0,0.0,0.0,0.577442452312,0.402515394352,0.0862774722268,0.488792866579,0.316237922125,nan,nan,0.0,0.0,0.0,nan,nan,409.43159819,704.958353195,705.634342941,705.458448133,nan,nan
0,215,4654,6,1,216,151,0.900975005756,0.0682271079607,0.563426584804,1,1.0,1.0,0.443859107792,0,0.0,0.0,0.553311012685,0.403787368081,0.0880648292557,0.491852197337,0.315722538825,nan,nan,0.0,0.0,0.0,nan,nan,409.43159819,705.958485195,706.402344303,706.458525395,nan,nan
0,216,4655,6,1,361,253,-0.166047812515,0.475607712818,0.0278173107143,1,1.0,1.0,0.363678765483,0,0.0,1.0,0.494509206464,0.403972885395,0.0879028386431,0.491875724038,0.316070046752,nan,nan,0.0,0.0,0.0,nan,nan,409.43159819,706.958634302,707.322313068,707.458667943,nan,nan
0,217,4702,6,1,99,69,1.0,-0.267176270739,-0.468793303331,1,1.0,1.0,0.419538266957,1,0.0,0.0,0.409025380077,0.403787198206,0.0877425141414,0.491529712347,0.316044684065,25.7613554831,91.0,1.0,-0.237709898716,-0.562722318432,-5.37073048309,4.28427189402,409.43159819,707.958764021,708.378302288,708.458793957,709.783944032,714.076156756
0,218,4703,6,1,406,285,0.0244967455079,0.467245700284,-0.489366101921,1,1.0,1.0,0.35749812983,0,0.0,0.0,0.380238387423,0.403859450815,0.0875475085985,0.491406959414,0.316311942217,nan,nan,0.0,0.0,0.0,nan,nan,409.43159819,715.28468044,715.64217857,715.784716077,nan,nan
0,219,4704,6,1,203,142,1.0,-0.00249325098487,0.493674673203,1,1.0,1.0,0.301363793202,0,0.0,0.0,0.359466729996,0.403647755285,0.0874033060688,0.491051061354,0.316244449217,nan,nan,0.0,0.0,0.0,nan,nan,409.43159819,716.28479733,716.586161124,716.784863188,nan,nan
0,220,4705,6,1,263,184,0.405698801511,0.284171736334,0.651829885785,1,1.0,1.0,0.405190148391,0,0.0,0.0,0.354684023807,0.403182828185,0.0874754369936,0.490658265179,0.315707391191,nan,nan,0.0,0.0,0.0,nan,nan,409.43159819,717.284950143,717.690140291,717.785008017,nan,nan
0,221,4706,6,0,402,282,0.000724920831492,0.470139955471,-0.437811562499,0,0.0,1.0,0.461032259278,0,0.0,0.0,0.38919540029,0.403191911082,0.0872774083567,0.490469319439,0.315914502725,nan,nan,0.0,0.0,0.0,nan,nan,409.43159819,718.285091836,718.746124095,718.785122626,nan,nan
0,222,4707,6,1,289,203,0.140592130943,0.368073254824,0.582505265782,1,1.0,1.0,0.452882167883,0,0.0,0.0,0.439701525184,0.403452453191,0.0871667115598,0.490619164751,0.316285741631,nan,nan,0.0,0.0,0.0,nan,nan,409.43159819,719.285204735,719.738086903,719.785242368,nan,nan
0,223,4708,6,1,139,97,1.0,-0.296335611021,-0.0445992895203,1,1.0,1.0,0.508769039065,0,0.0,0.0,0.474227822075,0.403674111104,0.0870337351307,0.490707846235,0.316640375974,nan,nan,0.0,0.0,0.0,nan,nan,409.43159819,720.285305374,720.794074413,720.785396036,nan,nan
0,224,4709,6,1,429,301,0.177531820842,0.442080780324,-0.901885199234,1,1.0,1.0,0.444622884504,0,0.0,0.0,0.468758030484,0.40414328489,0.0871214228726,0.491264707762,0.317021862017,nan,nan,0.0,0.0,0.0,nan,nan,409.43159819,721.285432243,721.730055127,721.785490403,nan,nan
0,225,4710,6,1,224,157,0.821619416966,0.11002478857,0.597264883709,1,1.0,1.0,0.428480075672,0,0.0,0.0,0.460623999747,0.404323194221,0.0869692971559,0.491292491377,0.317353897066,nan,nan,0.0,0.0,0.0,nan,nan,409.43159819,722.285566809,722.714046884,722.785610999,nan,nan
0,226,4711,6,1,126,88,1.0,-0.311411754845,-0.177408431044,1,1.0,1.0,0.604291063733,0,0.0,1.0,0.492464674637,0.404430083077,0.0867914846506,0.491221567728,0.317638598427,nan,nan,0.0,0.0,0.0,nan,nan,409.43159819,723.285719907,723.890010971,723.785775785,nan,nan
0,227,4725,6,1,474,333,0.530901762182,0.346545376391,-1.0,1,1.0,1.0,0.420168332756,1,0.0,0.0,0.484313157387,0.405310527926,0.0876057602152,0.492916288141,0.317704767711,109.895431335,484.0,0.614398947124,0.316112737715,-1.0,6.82331866523,10.8933979329,409.43159819,724.285841929,724.706010262,724.785858179,726.119359055,737.020758258
0,228,4726,6,1,413,290,0.0683106243366,0.461143133648,-0.585495598612,1,1.0,1.0,0.348158895969,0,0.0,0.0,0.457539430819,0.405375693737,0.0874189449071,0.492794638644,0.31795674883,nan,nan,0.0,0.0,0.0,nan,nan,409.43159819,738.237598815,738.585757711,738.73763987,nan,nan
0,229,4727,6,1,139,97,1.0,-0.296335611021,-0.0445992895203,1,1.0,1.0,0.32399942074,0,0.0,0.0,0.364108883155,0.405125838725,0.0873094147942,0.492435253519,0.317816423931,nan,nan,0.0,0.0,0.0,nan,nan,409.43159819,739.237737658,739.561737078,739.737771015,nan,nan
0,230,4728,6,1,271,190,0.320642857732,0.312811632898,0.639400143054,1,1.0,1.0,0.33985456638,0,0.0,0.0,0.337337627696,0.404773115168,0.0872827675177,0.492055882686,0.317490347651,nan,nan,0.0,0.0,0.0,nan,nan,409.43159819,740.237858824,740.577713391,740.737894177,nan,nan
0,231,4729,6,1,0,0,0.846831709088,0.212097570855,-1.0,1,1.0,1.0,0.299722486176,0,0.0,0.0,0.321192157765,0.40449208249,0.0871978622802,0.49168994477,0.317294220209,nan,nan,0.0,0.0,0.0,nan,nan,409.43159819,741.237987974,741.53771046,741.738024467,nan,nan
0,232,4730,6,0,506,355,0.797774742377,0.236703125255,-1.0,0,0.0,1.0,0.459542623721,0,0.0,0.0,0.366373225426,0.404040489402,0.087280025836,0.491320515238,0.316760463566,nan,nan,0.0,0.0,0.0,nan,nan,409.43159819,742.238148198,742.697690822,742.738177279,nan,nan
0,233,4731,6,1,171,120,1.0,-0.176011872558,0.256450910142,1,1.0,1.0,0.49141741544,0,0.0,0.0,0.416894175112,0.404278695987,0.0871680716108,0.491446767598,0.317110624376,nan,nan,0.0,0.0,0.0,nan,nan,409.43159819,743.238260527,743.729677943,743.746632995,nan,nan
0,234,4732,6,1,39,27,1.0,0.0253789930673,-1.0,1,1.0,1.0,0.34727480635,0,0.0,0.0,0.432744948504,0.404651083677,0.0871671507582,0.491818234435,0.317483932919,nan,nan,0.0,0.0,0.0,nan,nan,409.43159819,744.238402506,744.585677313,744.738406497,nan,nan
0,235,4733,6,1,239,168,0.665069831863,0.183388857662,0.640549267122,1,1.0,1.0,0.339155221358,0,0.0,0.0,0.392615814383,0.404406929305,0.087061638146,0.491468567451,0.317345291159,nan,nan,0.0,0.0,0.0,nan,nan,409.43159819,745.238493167,745.577648388,745.738531656,nan,nan
0,236,4734,6,1,63,44,1.0,-0.102744642793,-1.0,1,1.0,1.0,0.45098284632,0,0.0,0.0,0.379137624676,0.404130439018,0.0869803216724,0.49111076069,0.317150117345,nan,nan,0.0,0.0,0.0,nan,nan,409.43159819,746.238624882,746.689607728,746.738653963,nan,nan
0,237,4735,6,1,225,158,0.81146624694,0.115131125244,0.600981946568,1,1.0,1.0,0.362842003815,0,0.0,0.0,0.384326690497,0.4043281285,0.0868497394477,0.491177867948,0.317478389052,nan,nan,0.0,0.0,0.0,nan,nan,409.43159819,747.238748615,747.601590618,747.738787103,nan,nan
0,238,4736,6,1,428,300,0.170378320166,0.443486568519,-0.86866140055,1,1.0,1.0,0.314737732522,0,0.0,0.0,0.376187527552,0.404153817052,0.0867086247302,0.490862441782,0.317445192321,nan,nan,0.0,0.0,0.0,nan,nan,409.43159819,748.238880901,748.553618633,748.738909695,nan,nan
0,239,4737,6,1,201,141,1.0,-0.0135712615467,0.48142235136,1,1.0,1.0,0.338530286215,0,0.0,0.0,0.338703340851,0.403779691175,0.0867193220863,0.490499013261,0.317060369089,nan,nan,0.0,0.0,0.0,nan,nan,409.43159819,749.239022309,749.577552595,749.739047397,nan,nan
0,240,4738,6,1,138,97,1.0,-0.29832987918,-0.0546508148191,1,1.0,1.0,0.362408654764,0,0.0,0.0,0.338558891167,0.403507818654,0.0866404760598,0.490148294714,0.316867342594,nan,nan,0.0,0.0,0.0,nan,nan,409.43159819,750.239143475,750.60155213,750.739202491,nan,nan
0,241,4739,6,1,511,359,0.838703193994,0.216284169582,-1.0,1,1.0,1.0,0.338213828392,0,0.0,0.0,0.346384256457,0.403337282704,0.0865008918582,0.489838174563,0.316836390846,nan,nan,0.0,0.0,0.0,nan,nan,409.43159819,751.239309972,751.577523801,751.739310257,nan,nan
0,242,4740,6,1,246,172,0.589768841079,0.215019897151,0.651339528662,1,1.0,1.0,0.386118530296,0,0.0,0.0,0.362247004484,0.403068177521,0.0864230172336,0.489491194755,0.316645160288,nan,nan,0.0,0.0,0.0,nan,nan,409.43159819,752.23939151,752.625510041,752.739455372,nan,nan
0,243,4741,6,0,434,305,0.213881816697,0.43461034373,-1.0,0,0.0,1.0,0.401947731152,0,0.0,0.0,0.375426696613,0.402998425887,0.0862518344042,0.489250260291,0.316746591482,nan,nan,0.0,0.0,0.0,nan,nan,409.43159819,753.239555442,753.641503173,753.739584806,nan,nan
0,244,4742,6,1,270,189,0.331159066004,0.309369715406,0.641393874915,1,1.0,1.0,0.336464182474,0,0.0,0.0,0.374843481307,0.402994119761,0.0860749335523,0.489069053313,0.316919186208,nan,nan,0.0,0.0,0.0,nan,nan,409.43159819,754.27300654,754.609470722,754.773047023,nan,nan
0,245,4743,6,1,415,291,0.0813077335083,0.459153678902,-0.614968023274,1,1.0,1.0,0.272398710251,0,0.0,0.0,0.336936874626,0.402722568996,0.0860037575755,0.488726326572,0.316718811421,nan,nan,0.0,0.0,0.0,nan,nan,409.43159819,755.273130272,755.545528982,755.773173892,nan,nan
0,246,4744,6,0,289,203,0.140592130943,0.368073254824,0.582505265782,0,1.0,0.0,0.288174313493,0,0.0,0.0,0.299012402073,0.402192797213,0.0862284169754,0.488421214188,0.315964380237,nan,nan,0.0,0.0,0.0,nan,nan,409.43159819,756.273270825,756.561445138,756.773303611,nan,nan
0,247,4745,6,1,238,167,0.675741828754,0.178727669763,0.638511091232,1,1.0,1.0,0.296031609178,0,0.0,0.0,0.285534877641,0.401731183918,0.0863577249844,0.488088908903,0.315373458934,nan,nan,0.0,0.0,0.0,nan,nan,409.43159819,757.273383439,757.569415048,757.773428769,nan,nan
0,248,4746,6,1,116,81,1.0,-0.306446923025,-0.282515442494,1,1.0,1.0,0.359905495308,0,0.0,0.0,0.314703805993,0.401304975956,0.0864433561093,0.487748332065,0.314861619846,nan,nan,0.0,0.0,0.0,nan,nan,409.43159819,758.273514299,758.633419794,758.773555067,nan,nan
0,249,4747,6,1,23,16,1.0,0.106943944166,-1.0,1,1.0,1.0,0.335749441758,0,0.0,0.0,0.330562182081,0.401138712981,0.0863093246305,0.487448037612,0.314829388351,nan,nan,0.0,0.0,0.0,nan,nan,409.43159819,759.273640882,759.609390324,759.773687638,nan,nan
0,250,4748,6,1,496,348,0.714833717156,0.274923884212,-1.0,1,1.0,1.0,0.463602131233,0,0.0,0.0,0.386419022766,0.400877155896,0.0862353578015,0.487112513698,0.314641798095,nan,nan,0.0,0.0,0.0,nan,nan,409.43159819,760.273774308,760.737376439,760.773805669,nan,nan
0,251,4749,6,1,109,76,1.0,-0.294638327523,-0.357773695079,1,1.0,1.0,0.519439109601,0,0.0,0.0,0.439596894197,0.401127056196,0.0861540587434,0.48728111494,0.314972997453,nan,nan,0.0,0.0,0.0,nan,nan,409.43159819,761.273896045,761.793335155,761.773958196,nan,nan
0,252,4750,6,1,364,255,-0.160194321586,0.476704516321,-0.00341124574885,1,1.0,1.0,0.335324646905,0,0.0,0.0,0.439455295913,0.401596548472,0.0863040761401,0.487900624612,0.315292472332,nan,nan,0.0,0.0,0.0,nan,nan,409.43159819,762.274027189,762.609351836,762.7740423,nan,nan
0,253,4751,6,1,45,31,1.0,-0.0063957592436,-1.0,1,1.0,1.0,0.335157293826,0,0.0,0.0,0.396640350111,0.401334604197,0.08623366047,0.487568264667,0.315100943727,nan,nan,0.0,0.0,0.0,nan,nan,409.43159819,763.274150637,763.609307931,763.774189696,nan,nan
0,254,4752,6,1,233,163,0.728670395113,0.154909781369,0.626482233315,1,1.0,1.0,0.359026825055,0,0.0,0.0,0.343169588596,0.401074063605,0.086163458846,0.487237522451,0.314910604759,nan,nan,0.0,0.0,0.0,nan,nan,409.43159819,764.274280641,764.633307466,764.774300314,nan,nan
0,255,4753,6,1,128,90,1.0,-0.310663006781,-0.156689791083,1,1.0,1.0,0.390901901759,0,0.0,0.0,0.361695340214,0.400909172473,0.0860344895204,0.486943661994,0.314874682953,nan,nan,0.0,0.0,0.0,nan,nan,409.43159819,765.274381851,765.665283753,765.77442148,nan,nan
0,256,4754,6,1,212,149,0.93926288676,0.0467731277665,0.543851001166,1,1.0,1.0,0.422742767259,0,0.0,0.0,0.390890498025,0.400870081572,0.0858685579818,0.486738639554,0.31500152359,nan,nan,0.0,0.0,0.0,nan,nan,409.43159819,766.274513281,766.697256048,766.774551485,nan,nan
0,257,4755,6,1,377,265,-0.121259861678,0.478700828387,-0.143695900877,1,1.0,1.0,0.286649324931,0,0.0,0.0,0.36676466465,0.400955189298,0.0857121533549,0.486667342653,0.315243035944,nan,nan,0.0,0.0,0.0,nan,nan,409.43159819,767.27463844,767.561287764,767.77468434,nan,nan
0,258,4756,6,1,294,206,0.0948761993654,0.381212130724,0.559858230992,1,1.0,1.0,0.30243348144,0,0.0,0.0,0.33727519121,0.400512143313,0.0858402272091,0.486352370522,0.314671916103,nan,nan,0.0,0.0,0.0,nan,nan,409.43159819,768.274791822,768.577225303,768.774826319,nan,nan
0,259,4757,6,1,231,162,0.749609680972,0.145151270079,0.620821461523,1,1.0,1.0,0.326311849058,0,1.0,0.0,0.30513155181,0.40013346122,0.085889998608,0.486023459828,0.314243462612,nan,nan,0.0,0.0,0.0,nan,nan,409.43159819,769.274891322,769.601203171,769.77493209,nan,nan
0,260,4808,6,0,435,305,0.221263830514,0.433027056876,-1.0,0,0.0,1.0,0.470131441951,1,0.0,0.0,0.366292257483,0.399849531943,0.085846362368,0.485695894311,0.314003169575,144.286927512,435.0,0.221263830514,0.433027056876,-1.0,-0.146302512497,7.45970569924,409.43159819,770.275061524,770.745192966,770.77509146,772.108564966,779.576186121
0,261,4809,6,1,37,26,1.0,0.0358565504353,-1.0,1,1.0,1.0,0.343932605349,0,0.0,0.0,0.380125298786,0.400118811292,0.0857916947029,0.485910505994,0.314327116589,nan,nan,0.0,0.0,0.0,nan,nan,409.43159819,780.793063171,781.136995777,781.29307429,nan,nan
0,262,4810,6,1,477,335,0.555879874869,0.337784025865,-1.0,1,1.0,1.0,0.455795582384,0,0.0,0.0,0.423286543228,0.399904360124,0.0856978743316,0.485602234455,0.314206485792,nan,nan,0.0,0.0,0.0,nan,nan,409.43159819,781.793198593,782.248994175,782.293219975,nan,nan
0,263,4811,6,0,227,159,0.791019951953,0.125257787881,0.608066708266,0,0.0,1.0,0.447644065134,0,0.0,0.0,0.415790750956,0.400116874277,0.0856039353434,0.48572080962,0.314512938933,nan,nan,0.0,0.0,0.0,nan,nan,409.43159819,782.793325176,783.240969242,783.293356537,nan,nan
0,264,4812,6,1,472,331,0.51429864939,0.352212277195,-1.0,1,1.0,1.0,0.367533002049,0,0.0,0.0,0.423657549856,0.400296901515,0.085491519005,0.48578842052,0.31480538251,nan,nan,0.0,0.0,0.0,nan,nan,409.43159819,783.793414127,784.160947129,784.293475708,nan,nan
0,265,4813,6,1,247,173,0.578947625354,0.219392674348,0.6523805853,1,0.0,0.0,0.383393850178,0,0.0,0.0,0.39952363912,0.400173264159,0.0853537052554,0.485526969414,0.314819558903,nan,nan,0.0,0.0,0.0,nan,nan,409.43159819,784.793548693,785.176942543,785.293578628,nan,nan
0,266,4814,6,1,480,337,0.580928072941,0.32870764083,-1.0,1,1.0,1.0,0.343174815178,0,0.0,0.0,0.364700555801,0.400110183655,0.0851993033942,0.485309487049,0.314910880261,nan,nan,0.0,0.0,0.0,nan,nan,409.43159819,785.793747691,786.136922507,786.293708918,nan,nan
0,267,4815,6,1,119,83,1.0,-0.309446327048,-0.250710895617,1,1.0,1.0,0.519081027247,0,0.0,0.0,0.415216564201,0.399896942574,0.085110691546,0.48500763412,0.314786251028,nan,nan,0.0,0.0,0.0,nan,nan,409.43159819,786.793804711,787.312885738,787.293882542,nan,nan
0,268,4816,6,1,305,214,0.00361192545304,0.406859252708,0.500196907155,1,1.0,1.0,0.486928549595,0,0.0,0.0,0.449728130673,0.400341659308,0.0852619843987,0.485603643707,0.31507967491,nan,nan,0.0,0.0,0.0,nan,nan,409.43159819,787.7939484,788.280876949,788.293974629,nan,nan
0,269,4817,6,1,497,349,0.723174939644,0.271260599794,-1.0,1,1.0,1.0,0.606793652289,0,0.0,1.0,0.537601076377,0.400663543659,0.0852663402607,0.485929883919,0.315397203398,nan,nan,0.0,0.0,0.0,nan,nan,409.43159819,788.794055027,789.400848679,789.294146828,nan,nan
0,270,4818,6,0,418,293,0.101175887384,0.455961754156,-0.661679309199,0,1.0,0.0,0.478631918319,0,0.0,0.0,0.524118040067,0.401426988506,0.0860244598059,0.487451448311,0.3154025287,nan,nan,0.0,0.0,0.0,nan,nan,409.43159819,789.794222664,790.272854582,790.294250889,nan,nan
0,271,4819,6,1,230,161,0.760023132926,0.140224214653,0.61781109556,1,1.0,1.0,0.246500424109,0,0.0,0.0,0.443975331572,0.401711877545,0.0859931062472,0.487704983793,0.315718771298,nan,nan,0.0,0.0,0.0,nan,nan,409.43159819,790.794336133,791.040836557,791.29435723,nan,nan
0,272,4820,6,1,28,19,1.0,0.082066132397,-1.0,1,1.0,1.0,0.278368088417,0,0.0,0.0,0.334500143615,0.401141247202,0.0863473812613,0.487488628463,0.314793865941,nan,nan,0.0,0.0,0.0,nan,nan,409.43159819,791.79444276,792.072810848,792.294481818,nan,nan
0,273,4821,6,1,270,189,0.331159066004,0.309369715406,0.641393874915,1,1.0,1.0,0.310254284181,0,1.0,0.0,0.278374265569,0.400691528672,0.0865076325443,0.487199161216,0.314183896127,nan,nan,0.0,0.0,0.0,nan,nan,409.43159819,792.794564497,793.104818781,793.294610967,nan,nan
0,274,4827,6,1,476,334,0.547545041103,0.340739382997,-1.0,1,1.0,1.0,0.326081775129,1,0.0,0.0,0.304901382575,0.400361465735,0.0865216691256,0.486883134861,0.31383979661,109.895431335,484.0,0.614398947124,0.316112737715,-1.0,5.41706866523,3.38408977445,409.43159819,793.794709897,794.120791672,794.29473356,795.611568186,799.003662937
0,275,4828,6,1,42,29,1.0,0.00954878589686,-1.0,1,1.0,1.0,0.340143654495,0,0.0,0.0,0.325493237935,0.40009135777,0.0864798704365,0.486571228206,0.313611487333,nan,nan,0.0,0.0,0.0,nan,nan,409.43159819,800.220534855,800.56067851,800.720563935,nan,nan
0,276,4829,6,1,258,181,0.459642287315,0.26499291187,0.655490062901,1,1.0,1.0,0.403982189484,0,0.0,0.0,0.356735873036,0.399874155946,0.0863981746282,0.486272330574,0.313475981318,nan,nan,0.0,0.0,0.0,nan,nan,409.43159819,801.22066372,801.624645909,801.720680255,nan,nan
0,277,4830,6,1,156,109,1.0,-0.244060613314,0.121041471254,1,1.0,1.0,0.45188290067,0,0.0,0.0,0.39866958155,0.399888986392,0.0862424321766,0.486131418569,0.313646554216,nan,nan,0.0,0.0,0.0,nan,nan,409.43159819,802.220786882,802.672669782,802.720831642,nan,nan
0,278,4831,6,1,279,196,0.238157575771,0.338930353633,0.618978422254,1,1.0,1.0,0.395673298277,0,0.0,0.0,0.41717946281,0.400076014861,0.0861434382195,0.48621945308,0.313932576641,nan,nan,0.0,0.0,0.0,nan,nan,409.43159819,803.220930001,803.616603299,803.72094112,nan,nan
0,279,4832,6,1,158,111,1.0,-0.235949227405,0.139764106,1,1.0,1.0,0.315543419681,0,0.0,0.0,0.387699872876,0.400060234515,0.0859893232528,0.486049557767,0.314070911262,nan,nan,0.0,0.0,0.0,nan,nan,409.43159819,804.221050027,804.536593447,804.721090511,nan,nan
0,280,4833,6,1,315,221,-0.0657111424032,0.426434809442,0.434956515233,1,1.0,1.0,0.339361632243,0,0.0,0.0,0.3501927834,0.399758388747,0.0859835793502,0.485741968098,0.313774809397,nan,nan,0.0,0.0,0.0,nan,nan,409.43159819,805.221211962,805.560573595,805.72119058,nan,nan
0,281,4834,6,1,29,20,1.0,0.0770173926463,-1.0,1,1.0,1.0,0.339271825738,0,0.0,0.0,0.331392292554,0.399543453671,0.0859057673715,0.485449221042,0.313637686299,nan,nan,0.0,0.0,0.0,nan,nan,409.43159819,806.221298347,806.560570173,806.721325432,nan,nan
0,282,4835,6,1,506,355,0.797774742377,0.236703125255,-1.0,1,1.0,1.0,0.307181499898,0,0.0,0.0,0.32860498596,0.399329724494,0.0858281275943,0.485157852088,0.313501596899,nan,nan,0.0,0.0,0.0,nan,nan,409.43159819,807.221406399,807.528587899,807.7214523,nan,nan
0,283,4836,6,0,146,102,1.0,-0.278792578557,0.0248813210997,0,0.0,1.0,0.426946818829,0,0.0,0.0,0.357800048155,0.399004112393,0.0858506617311,0.484854774124,0.313153450662,nan,nan,0.0,0.0,0.0,nan,nan,409.43159819,808.221571757,808.648518575,808.721601976,nan,nan
0,284,4837,6,1,225,158,0.81146624694,0.115131125244,0.600981946568,1,1.0,1.0,0.338819090277,0,0.0,0.0,0.357649136335,0.399102502204,0.0857153651861,0.48481786739,0.313387137018,nan,nan,0.0,0.0,0.0,nan,nan,409.43159819,809.221675817,809.560494907,809.721713165,nan,nan
0,285,4838,6,1,379,266,-0.113535935895,0.478614986251,-0.165970515924,1,1.0,1.0,0.386673045345,0,0.0,0.0,0.38414631815,0.39889098146,0.0856390734316,0.484530054892,0.313251908029,nan,nan,0.0,0.0,0.0,nan,nan,409.43159819,810.221827774,810.60850082,810.721856854,nan,nan
0,286,4839,6,1,25,17,1.0,0.0970682892709,-1.0,1,1.0,1.0,0.490483149886,0,0.0,0.0,0.405325095169,0.398848261404,0.0854922656708,0.484340527075,0.313355995733,nan,nan,0.0,0.0,0.0,nan,nan,409.43159819,811.221968327,811.712451477,811.730300596,nan,nan
0,287,4840,6,1,387,272,-0.0787219327085,0.477231755363,-0.256974454483,1,1.0,1.0,0.610357375816,0,0.0,1.0,0.495837857015,0.39916754673,0.0855138385019,0.484681385232,0.313653708228,nan,nan,0.0,0.0,0.0,nan,nan,409.43159819,812.222091489,812.832448865,812.72213511,nan,nan
0,288,4845,6,1,177,124,1.0,-0.145192147526,0.306921212481,1,1.0,1.0,0.362232464366,1,0.0,0.0,0.487690996689,0.399900844748,0.0862644359083,0.486165280656,0.313636408839,-25.3221424788,164.0,1.0,-0.209685835145,0.194761549991,-9.1309825212,2.10054060258,409.43159819,813.222196976,813.58442944,813.7222386,815.055740616,817.164322117
0,289,4846,6,1,48,33,1.0,-0.0224273256894,-1.0,1,1.0,1.0,0.403498663567,0,0.0,0.0,0.458696167916,0.399770504331,0.0861434635265,0.485913967857,0.313627040804,nan,nan,0.0,0.0,0.0,nan,nan,409.43159819,818.372846371,818.776345035,818.872870035,nan,nan
0,290,4847,6,1,121,85,1.0,-0.310732805591,-0.229640808446,1,1.0,1.0,0.339330840856,0,0.0,0.0,0.368353989596,0.399783360052,0.0859950897627,0.485778449815,0.31378827029,nan,nan,0.0,0.0,0.0,nan,nan,409.43159819,819.372991201,819.712322042,819.873003175,nan,nan
0,291,4848,6,1,200,140,1.0,-0.0191209939188,0.47515178387,1,1.0,1.0,0.31519616954,0,0.0,0.0,0.352675224654,0.399575619437,0.0859200666045,0.485495686041,0.313655552832,nan,nan,0.0,0.0,0.0,nan,nan,409.43159819,820.373091841,820.688288011,820.873130899,nan,nan
0,292,4849,6,1,410,288,0.0492046846968,0.463921527344,-0.54316189137,1,1.0,1.0,0.291120514274,0,0.0,0.0,0.315215841557,0.399286648718,0.0859143516916,0.485201000409,0.313372297026,nan,nan,0.0,0.0,0.0,nan,nan,409.43159819,821.373224126,821.66434464,821.873262329,nan,nan
0,293,4850,6,1,496,348,0.714833717156,0.274923884212,-1.0,1,1.0,1.0,0.317051016726,0,1.0,0.0,0.307789233513,0.398917481024,0.0859992960238,0.484916777047,0.312918185,nan,nan,0.0,0.0,0.0,nan,nan,409.43159819,822.387202757,822.704253774,822.890083671,nan,nan
0,294,4906,6,1,266,187,0.373577590308,0.295207490188,0.648113769863,1,1.0,1.0,0.354065267369,1,0.0,0.0,0.320745599456,0.398639023662,0.0859851245682,0.48462414823,0.312653899094,-62.2891859847,217.0,0.891250405156,0.0735373331823,0.568048345461,-34.7420640153,12.6520335451,409.43159819,823.390174617,823.744239884,823.890177183,825.223689178,837.883666974
0,295,4907,6,1,137,96,1.0,-0.300190217086,-0.0647316600203,1,1.0,1.0,0.396150552668,0,0.0,0.0,0.355755612254,0.398487926183,0.085878351665,0.484366277848,0.312609574518,nan,nan,0.0,0.0,0.0,nan,nan,409.43159819,839.083843564,839.479994116,839.583845844,nan,nan
0,296,4908,6,0,369,259,-0.147694689129,0.477999187239,-0.0564338676883,0,0.0,1.0,0.491989321075,0,0.0,0.0,0.414068380371,0.398480029651,0.0857332714327,0.484213301084,0.312746758218,nan,nan,0.0,0.0,0.0,nan,nan,409.43159819,840.083972143,840.575961464,840.592338338,nan,nan
0,297,4909,6,1,292,205,0.112881669716,0.376069582356,0.569261850688,1,1.0,1.0,0.267905568704,0,0.0,0.0,0.385348480816,0.39879487575,0.0857600583649,0.484554934115,0.313034817385,nan,nan,0.0,0.0,0.0,nan,nan,409.43159819,841.084077914,841.351983483,841.584104428,nan,nan
0,298,4910,6,1,97,68,1.0,-0.260369742894,-0.491718830742,1,1.0,1.0,0.371707404964,0,0.0,0.0,0.377200764914,0.398355649887,0.0859500096849,0.484305659572,0.312405640202,nan,nan,0.0,0.0,0.0,nan,nan,409.43159819,842.084206494,842.455913899,842.584235288,nan,nan
0,299,4911,6,1,347,243,-0.174938837379,0.46723881498,0.167157479366,1,1.0,1.0,0.307596887462,0,0.0,0.0,0.315736620377,0.398266525322,0.0858199522113,0.484086477534,0.312446573111,nan,nan,0.0,0.0,0.0,nan,nan,409.43159819,843.084349898,843.391946785,843.584374701,nan,nan
0,300,4912,6,1,73,51,1.0,-0.1546788618,-0.830916872461,1,1.0,1.0,0.307410718873,0,0.0,0.0,0.328905003766,0.397964293196,0.0858360408962,0.483800334092,0.3121282523,nan,nan,0.0,0.0,0.0,nan,nan,409.43159819,844.0844742,844.391884919,844.584493302,nan,nan
0,301,4913,6,1,218,153,0.881467392804,0.0788246127756,0.572559633417,1,1.0,1.0,0.395266748965,0,0.0,0.0,0.336758118433,0.397663450757,0.0858516158369,0.483515066593,0.31181183492,nan,nan,0.0,0.0,0.0,nan,nan,409.43159819,845.084600784,845.479867533,845.584612188,nan,nan
0,302,4914,6,1,376,264,-0.124962824795,0.478704673615,-0.132627625282,1,1.0,1.0,0.50710691791,0,0.0,0.0,0.403261461916,0.397655514658,0.0857094701322,0.48336498479,0.311946044526,nan,nan,0.0,0.0,0.0,nan,nan,409.43159819,846.084717959,846.591824877,846.584786667,nan,nan
0,303,4915,6,1,146,102,1.0,-0.278792578557,0.0248813210997,1,1.0,1.0,0.602954240516,0,0.0,1.0,0.50177596913,0.398016740411,0.085797872081,0.483814612492,0.31221886833,nan,nan,0.0,0.0,0.0,nan,nan,409.43159819,847.084854521,847.687808761,847.584917813,nan,nan
0,304,4923,6,1,25,17,1.0,0.0970682892709,-1.0,1,1.0,1.0,0.38683327008,1,0.0,0.0,0.498964809502,0.398690876925,0.0864567031842,0.485147580109,0.312234173741,74.517518286,22.0,1.0,0.111842423158,-1.0,-2.09564328595,4.56761208922,409.43159819,848.084983955,848.471817225,848.585024154,849.918526455,854.494088212
0,305,4924,6,1,430,302,0.184725017221,0.440645728776,-0.941904167281,1,1.0,1.0,0.417065327987,0,0.0,0.0,0.468950946194,0.398651999525,0.0863175161373,0.484969515663,0.312334483388,nan,nan,0.0,0.0,0.0,nan,nan,409.43159819,855.702605624,856.119670952,856.202647247,nan,nan
0,306,4925,6,1,285,200,0.178734351563,0.356878681702,0.598527012995,1,1.0,1.0,0.336924901232,0,0.0,0.0,0.380274499767,0.398712173801,0.0861827665061,0.484894940307,0.312529407295,nan,nan,0.0,0.0,0.0,nan,nan,409.43159819,856.702740475,857.039665376,857.202764423,nan,nan
0,307,4926,6,1,148,104,1.0,-0.272695592461,0.0444264621409,1,1.0,1.0,0.352765221149,0,0.0,0.0,0.368918483456,0.398510912327,0.0861142869862,0.484625199313,0.312396625341,nan,nan,0.0,0.0,0.0,nan,nan,409.43159819,857.702864492,858.055629713,858.202897564,nan,nan
0,308,4927,6,1,10,7,0.926811495151,0.168400576072,-1.0,1,1.0,1.0,0.328607171774,0,0.0,0.0,0.339432431385,0.398362387356,0.0860137540683,0.484376141424,0.312348633287,nan,nan,0.0,0.0,0.0,nan,nan,409.43159819,858.703010747,859.031617919,859.203025002,nan,nan
0,309,4928,6,1,147,103,1.0,-0.275801134503,0.0346720467303,1,1.0,1.0,0.424481293187,0,0.0,0.0,0.36861789537,0.398136642321,0.0859658006998,0.484102443021,0.312170841622,nan,nan,0.0,0.0,0.0,nan,nan,409.43159819,859.703122506,860.127603799,860.203145028,nan,nan
0,310,4929,6,1,436,306,0.228681708805,0.431413732101,-1.0,1,1.0,1.0,0.30431911815,0,0.0,0.0,0.35246919437,0.398221625066,0.0858400338737,0.48406165894,0.312381591193,nan,nan,0.0,0.0,0.0,nan,nan,409.43159819,860.703273037,861.007592156,861.203300692,nan,nan
0,311,4930,6,1,243,170,0.622151010882,0.20168048164,0.647463484622,1,1.0,1.0,0.32020419836,0,0.0,0.0,0.349668203232,0.397919687745,0.0858666405418,0.483786328287,0.312053047203,nan,nan,0.0,0.0,0.0,nan,nan,409.43159819,861.703388217,862.023592415,862.203429841,nan,nan
0,312,4931,6,1,174,122,1.0,-0.160790688716,0.281981279739,1,1.0,1.0,0.328050659969,0,0.0,0.0,0.317524658826,0.397670599638,0.0858413900788,0.483511989717,0.311829209559,nan,nan,0.0,0.0,0.0,nan,nan,409.43159819,862.703511665,863.031562325,863.20355785,nan,nan
0,313,4932,6,1,447,314,0.312467642152,0.411646472288,-1.0,1,1.0,1.0,0.263934725896,0,1.0,0.0,0.304063194742,0.397448171716,0.0857941599475,0.483242331663,0.311654011768,nan,nan,0.0,0.0,0.0,nan,nan,409.43159819,863.703622282,863.967557008,864.203681298,nan,nan
0,314,4940,6,1,496,348,0.714833717156,0.274923884212,-1.0,1,1.0,1.0,0.303769734688,1,0.0,0.0,0.298585040184,0.397022969659,0.085987125514,0.483010095173,0.311035844145,91.5343414997,510.0,0.830554458933,0.220436700166,-1.0,9.7156585003,5.6427986566,409.43159819,864.703767112,865.007536846,865.203787069,866.528962233,872.179681192
0,315,4941,6,1,99,69,1.0,-0.267176270739,-0.468793303331,1,1.0,1.0,0.442830189131,0,0.0,0.0,0.336844883238,0.396726927643,0.0860106543006,0.482737581944,0.310716273343,nan,nan,0.0,0.0,0.0,nan,nan,409.43159819,873.396543417,873.839373606,873.896586468,nan,nan
0,316,4942,6,1,186,130,1.0,-0.0967386681424,0.377881386018,1,1.0,1.0,0.298653939739,0,0.0,0.0,0.348417954519,0.39687282404,0.0859134844153,0.482786308456,0.310959339625,nan,nan,0.0,0.0,0.0,nan,nan,409.43159819,874.396686821,874.695340761,874.896719323,nan,nan
0,317,4943,6,0,486,341,0.631151757674,0.309603058574,-1.0,0,0.0,1.0,0.450497895479,0,0.0,0.0,0.39732734145,0.396562985289,0.0859545141872,0.482517499476,0.310608471101,nan,nan,0.0,0.0,0.0,nan,nan,409.43159819,875.396822813,875.847320708,875.896852748,nan,nan
0,318,4944,6,1,417,293,0.0945046041228,0.457053563907,-0.645720198395,1,1.0,1.0,0.266407664865,0,0.0,0.0,0.338519833361,0.396732591924,0.0858723715502,0.482604963475,0.310860220374,nan,nan,0.0,0.0,0.0,nan,nan,409.43159819,876.396936283,876.663343947,876.896974485,nan,nan
0,319,4945,6,1,251,176,0.535576518695,0.236509187076,0.655284151108,1,1.0,1.0,0.266227768734,0,0.0,0.0,0.327711109693,0.396324049833,0.0860466403676,0.482370690201,0.310277409466,nan,nan,0.0,0.0,0.0,nan,nan,409.43159819,877.397060299,877.663288068,877.897075695,nan,nan
0,320,4946,6,1,447,314,0.312467642152,0.411646472288,-1.0,1,1.0,1.0,0.314088280313,0,1.0,0.0,0.282241237971,0.395917498955,0.0862183983631,0.482135897318,0.309699100592,nan,nan,0.0,0.0,0.0,nan,nan,409.43159819,878.39719401,878.711282291,878.897205985,nan,nan
0,321,4953,6,0,113,79,1.0,-0.302191989669,-0.314576349441,0,0.0,1.0,0.4499182906,1,0.0,0.0,0.343411446549,0.395662579271,0.0862046950019,0.481867274272,0.309457884269,14.5790293515,107.0,1.0,-0.290089771429,-0.379592780214,-4.03215435155,3.82579040527,409.43159819,879.397328862,879.847247153,879.897357657,881.230845418,885.064657335
0,322,4954,6,1,274,192,0.289344050657,0.322900892411,0.632670269059,1,1.0,1.0,0.349616886117,0,0.0,0.0,0.37120781901,0.395831075268,0.0861236582205,0.481954733489,0.309707417048,nan,nan,0.0,0.0,0.0,nan,nan,409.43159819,886.281508156,886.631125042,886.781542938,nan,nan
0,323,4955,6,1,410,288,0.0492046846968,0.463921527344,-0.54316189137,1,1.0,1.0,0.34943385236,0,0.0,0.0,0.382989676359,0.395687997283,0.0860285565258,0.481716553809,0.309659440758,nan,nan,0.0,0.0,0.0,nan,nan,409.43159819,887.281668097,887.631101949,887.781672087,nan,nan
0,324,4956,6,0,457,321,0.391639248186,0.390358177281,-1.0,0,1.0,0.0,0.309318593703,0,0.0,0.0,0.336123110726,0.395545237577,0.0859340041141,0.481479241691,0.309611233463,nan,nan,0.0,0.0,0.0,nan,nan,409.43159819,888.281801237,888.59111983,888.781834308,nan,nan
0,325,4957,6,1,309,217,-0.0258396312562,0.415106541901,0.475305697888,1,1.0,1.0,0.261182961985,0,0.0,0.0,0.306645136016,0.395279924827,0.0859344965125,0.481214421339,0.309345428314,nan,nan,0.0,0.0,0.0,nan,nan,409.43159819,889.281899311,889.543082273,889.781952624,nan,nan
0,326,4958,6,1,223,156,0.83172397378,0.104890589731,0.593432239612,1,1.0,1.0,0.341025177389,0,0.0,0.0,0.303842244359,0.39486858445,0.0861224443195,0.480991028769,0.30874614013,nan,nan,0.0,0.0,0.0,nan,nan,409.43159819,890.282046136,890.623071314,890.782080918,nan,nan
0,327,4959,6,1,472,331,0.51429864939,0.352212277195,-1.0,1,1.0,1.0,0.426853591576,0,0.0,0.0,0.343020576984,0.394703925713,0.0860420356725,0.480745961385,0.30866189004,nan,nan,0.0,0.0,0.0,nan,nan,409.43159819,891.332199975,891.759053566,891.832212234,nan,nan
0,328,5000,6,1,317,222,-0.077772836126,0.429938605076,0.420733606481,1,1.0,1.0,0.410734731704,0,0.0,0.0,0.39287116689,0.394801942987,0.0859290561388,0.480730999125,0.308872886848,nan,nan,0.0,0.0,0.0,nan,nan,409.43159819,892.332304035,892.743038767,892.832323423,nan,nan
0,329,5001,6,1,24,16,1.0,0.102019060141,-1.0,1,1.0,1.0,0.418561236933,0,0.0,0.0,0.418716520071,0.394850370916,0.0858028482415,0.480653219157,0.309047522674,nan,nan,0.0,0.0,0.0,nan,nan,409.43159819,893.332456278,893.751017515,893.832440027,nan,nan
0,330,5002,6,1,439,308,0.251144291643,0.426392204401,-1.0,1,1.0,1.0,0.514422243461,0,0.0,0.0,0.447906070699,0.394922222025,0.085682657374,0.480604879399,0.309239564651,nan,nan,0.0,0.0,0.0,nan,nan,409.43159819,894.332553782,894.846976025,894.832617358,nan,nan
0,331,5003,6,1,121,85,1.0,-0.310732805591,-0.229640808446,1,1.0,1.0,0.482315951958,0,0.0,0.0,0.471766477451,0.39528324928,0.0858041396828,0.481087388963,0.309479109597,nan,nan,0.0,0.0,0.0,nan,nan,409.43159819,895.332669816,895.814985768,895.832744512,nan,nan
0,332,5004,6,1,282,198,0.208142307666,0.34807905204,0.609295500931,1,1.0,1.0,0.450121565722,0,0.0,1.0,0.482286587047,0.395545395975,0.0858074661495,0.481352862124,0.309737929825,nan,nan,0.0,0.0,0.0,nan,nan,409.43159819,896.332842015,896.78296358,896.832822913,nan,nan
0,333,5011,6,0,476,334,0.547545041103,0.340739382997,-1.0,0,0.0,1.0,0.465992391109,1,0.0,0.0,0.46614330293,0.395709288376,0.0857305554117,0.481439843788,0.309978732965,106.448608127,489.0,0.656284860842,0.299572439858,-1.0,8.86389187296,3.30905687343,409.43159819,897.33294351,897.798935901,897.83298599,899.166482304,902.48357409
0,334,5012,6,1,399,280,-0.0164460389312,0.472031251936,-0.400274523968,1,1.0,1.0,0.434394429438,0,0.0,0.0,0.45016946209,0.395919716828,0.0856882036308,0.481607920459,0.310231513197,nan,nan,0.0,0.0,0.0,nan,nan,409.43159819,903.700433178,904.134827607,904.20044002,nan,nan
0,335,5013,6,1,347,243,-0.174938837379,0.46723881498,0.167157479366,1,1.0,1.0,0.282236010768,0,0.0,0.0,0.394207610438,0.396034566716,0.0855859570945,0.481620523811,0.310448609622,nan,nan,0.0,0.0,0.0,nan,nan,409.43159819,904.70056917,904.98280518,905.200593118,nan,nan
0,336,5014,6,1,146,102,1.0,-0.278792578557,0.0248813210997,1,1.0,1.0,0.330126172863,0,0.0,0.0,0.348918871023,0.395695880538,0.0856830372771,0.481378917815,0.310012843261,nan,nan,0.0,0.0,0.0,nan,nan,409.43159819,905.700676652,906.030802825,906.200721697,nan,nan
0,337,5015,6,1,236,165,0.697004556276,0.169301754335,0.634065852989,1,1.0,1.0,0.337995158508,0,0.0,0.0,0.316785780713,0.395501311672,0.085630121635,0.481131433307,0.309871190037,nan,nan,0.0,0.0,0.0,nan,nan,409.43159819,906.700785844,907.038781002,907.200848565,nan,nan
0,338,5016,6,0,84,59,1.0,-0.20765784414,-0.652191087791,0,0.0,1.0,0.441820942797,0,0.0,0.0,0.369980758056,0.395331175124,0.0855603812738,0.480891556398,0.309770793851,nan,nan,0.0,0.0,0.0,nan,nan,409.43159819,907.700946924,908.142767867,908.200979426,nan,nan
0,339,5017,6,1,180,126,1.0,-0.129278616986,0.331238955499,1,1.0,1.0,0.297684037127,0,0.0,0.0,0.359166712811,0.395468313082,0.0854712871135,0.480939600196,0.309997025969,nan,nan,0.0,0.0,0.0,nan,nan,409.43159819,908.701060678,908.998744715,909.201102017,nan,nan
0,340,5018,6,1,326,229,-0.12383419111,0.444071765824,0.352223541474,1,1.0,1.0,0.321531899273,0,0.0,0.0,0.353678959732,0.39518071227,0.0855096178621,0.480690330133,0.309671094408,nan,nan,0.0,0.0,0.0,nan,nan,409.43159819,909.701188687,910.022720587,910.201247417,nan,nan
0,341,5019,6,1,40,28,1.0,0.0201165467467,-1.0,1,1.0,1.0,0.38541547861,0,0.0,0.0,0.334877138336,0.394964733347,0.0854769687389,0.480441702086,0.309487764608,nan,nan,0.0,0.0,0.0,nan,nan,409.43159819,910.701295884,911.086711363,911.201331806,nan,nan
0,342,5020,6,1,111,78,1.0,-0.298677811705,-0.336106236365,1,1.0,1.0,0.473241288215,0,0.0,0.0,0.393396222033,0.394936811549,0.0853534683045,0.480290279854,0.309583343245,nan,nan,0.0,0.0,0.0,nan,nan,409.43159819,911.701439573,912.174680862,912.201451832,nan,nan
0,343,5021,6,0,217,152,0.891250405156,0.0735373331823,0.568048345461,0,0.0,1.0,0.40109614376,0,0.0,0.0,0.419917636861,0.395165104484,0.0853334582691,0.480498562753,0.309831646215,nan,nan,0.0,0.0,0.0,nan,nan,409.43159819,912.701580127,913.102676271,913.201614623,nan,nan
0,344,5022,6,1,377,265,-0.121259861678,0.478700828387,-0.143695900877,1,1.0,1.0,0.296956466511,0,0.0,0.0,0.390431299495,0.395182345877,0.0852099351111,0.480392280989,0.309972410766,nan,nan,0.0,0.0,0.0,nan,nan,409.43159819,913.701687609,913.998644075,914.201716118,nan,nan
0,345,5023,6,1,160,112,1.0,-0.227501418013,0.158297521075,1,1.0,1.0,0.264842192642,0,0.0,0.0,0.320964934304,0.394897633184,0.0852500588388,0.480147692022,0.309647574345,nan,nan,0.0,0.0,0.0,nan,nan,409.43159819,914.701810201,914.966652393,915.201844127,nan,nan
0,346,5024,6,1,251,176,0.535576518695,0.236509187076,0.655284151108,1,1.0,1.0,0.312682462856,0,1.0,0.0,0.291493707336,0.394521750407,0.0854126003545,0.479934350762,0.309109150053,nan,nan,0.0,0.0,0.0,nan,nan,409.43159819,915.701944482,916.014626944,916.201972421,nan,nan
0,347,5030,6,1,31,21,1.0,0.0668515730764,-1.0,1,1.0,1.0,0.264519177377,1,0.0,0.0,0.280681277625,0.394285902317,0.085402191775,0.479688094091,0.308883710542,70.0802270332,28.0,1.0,0.082066132397,-1.0,-1.8771020332,2.89246908389,409.43159819,916.702060231,916.966579408,917.202099575,918.527268467,921.427668402
0,348,5031,6,1,213,149,0.929785093221,0.0521668813814,0.548906519778,1,1.0,1.0,0.346012393944,0,0.0,0.0,0.307738011392,0.393913009429,0.0855618254106,0.479474834839,0.308351184018,nan,nan,0.0,0.0,0.0,nan,nan,409.43159819,922.644484156,922.99049655,923.144525495,nan,nan
0,349,5032,6,1,487,342,0.639529740128,0.306295026098,-1.0,1,1.0,1.0,0.353832341731,0,0.0,0.0,0.321454637684,0.393775758382,0.0854775114324,0.479253269814,0.308298246949,nan,nan,0.0,0.0,0.0,nan,nan,409.43159819,923.644629556,923.998461897,924.144655215,nan,nan
0,350,5033,6,1,32,22,1.0,0.061735800531,-1.0,1,1.0,1.0,0.289668226615,0,0.0,0.0,0.329837654096,0.393661634334,0.085381936017,0.479043570351,0.308279698317,nan,nan,0.0,0.0,0.0,nan,nan,409.43159819,924.644776096,924.934444322,925.144787215,nan,nan
0,351,5034,6,1,494,347,0.698129958021,0.282143999684,-1.0,1,1.0,1.0,0.27360610012,0,1.0,0.0,0.305702222822,0.393365356819,0.0854402052994,0.478805562119,0.30792515152,nan,nan,0.0,0.0,0.0,nan,nan,409.43159819,925.644873885,925.918479985,926.144921496,nan,nan
0,352,5040,6,1,245,172,0.600577697281,0.210610106048,0.650172825369,1,1.0,1.0,0.289409072138,1,0.0,0.0,0.284227799624,0.393025131658,0.0855565270626,0.478581658721,0.307468604595,-66.9384804677,223.0,0.83172397378,0.104890589731,0.593432239612,-15.3271445323,3.86744547822,409.43159819,926.645002749,926.934411821,927.145037816,928.478542968,932.354035047
0,353,5041,6,1,500,351,0.748145934353,0.260058294274,-1.0,1,1.0,1.0,0.363752035424,0,0.0,0.0,0.308922402561,0.392731601744,0.0856125648537,0.478344166598,0.307119036891,nan,nan,0.0,0.0,0.0,nan,nan,409.43159819,933.562550178,933.926302213,934.062582964,nan,nan
0,354,5042,6,1,65,45,1.0,-0.113312155659,-1.0,1,1.0,1.0,0.323561795987,0,0.0,0.0,0.325574301183,0.392649738563,0.0855053921381,0.478155130701,0.307144346425,nan,nan,0.0,0.0,0.0,nan,nan,409.43159819,934.562717815,934.886279611,935.062717815,nan,nan
0,355,5043,6,1,474,333,0.530901762182,0.346545376391,-1.0,1,1.0,1.0,0.283430000767,0,0.0,0.0,0.323581277393,0.39245512464,0.0854633537529,0.477918478393,0.306991770887,nan,nan,0.0,0.0,0.0,nan,nan,409.43159819,935.56282102,935.846251021,936.062868917,nan,nan
0,356,5044,6,1,380,267,-0.109519508899,0.478533032186,-0.177177385375,1,1.0,1.0,0.291411599144,0,1.0,0.0,0.299467798633,0.392148874292,0.0855380805034,0.477686954795,0.306610793789,nan,nan,0.0,0.0,0.0,nan,nan,409.43159819,936.562957012,936.854368611,937.063005479,nan,nan
0,357,5050,6,1,200,140,1.0,-0.0191209939188,0.47515178387,1,1.0,1.0,0.267162033357,1,0.0,0.0,0.280667877756,0.391866697051,0.0855839600833,0.477450657134,0.306282736967,-38.6196288922,183.0,1.0,-0.113108999915,0.354902835149,-12.0053711078,2.71733463183,409.43159819,937.56308046,937.830242493,938.063124079,939.39662524,942.12195373
0,358,5051,6,1,42,29,1.0,0.00954878589686,-1.0,1,1.0,1.0,0.387662904337,0,0.0,0.0,0.315412178946,0.391518360001,0.0857173980192,0.47723575802,0.305800961982,nan,nan,0.0,0.0,0.0,nan,nan,409.43159819,943.330460308,943.718123212,943.830545552,nan,nan
0,359,5052,6,0,259,182,0.44882283482,0.268906983076,0.655011783756,0,0.0,1.0,0.443488764577,0,0.0,0.0,0.366104567423,0.39150762057,0.0855981723901,0.47710579296,0.30590944818,nan,nan,0.0,0.0,0.0,nan,nan,409.43159819,944.33062652,944.774115285,944.830648758,nan,nan
0,360,5053,6,1,357,251,-0.1717918326,0.473767524415,0.068739031695,1,1.0,1.0,0.267345066182,0,0.0,0.0,0.366165578365,0.391652012637,0.0855229736597,0.477174986297,0.306129038977,nan,nan,0.0,0.0,0.0,nan,nan,409.43159819,945.330741985,945.598087051,945.830760516,nan,nan
0,361,5054,6,0,14,9,0.95801504718,0.150023555696,-1.0,0,0.0,1.0,0.47521445062,0,0.0,0.0,0.395349427126,0.391307672065,0.0856539753572,0.476961647422,0.305653696708,nan,nan,0.0,0.0,0.0,nan,nan,409.43159819,946.330852318,946.806066768,946.830914753,nan,nan
0,362,5055,6,1,226,158,0.801265930663,0.120208988367,0.60458276857,1,1.0,1.0,0.283128936775,0,0.0,0.0,0.341896151192,0.391539458746,0.0856488843048,0.477188343051,0.305890574441,nan,nan,0.0,0.0,0.0,nan,nan,409.43159819,947.330999998,947.614128935,947.831043333,nan,nan
0,363,5056,6,1,395,277,-0.0383984177995,0.474183508328,-0.351427224487,1,1.0,1.0,0.43490931578,0,0.0,0.0,0.397750901058,0.391240807171,0.0857193708371,0.476960178008,0.305521436334,nan,nan,0.0,0.0,0.0,nan,nan,409.43159819,948.331122305,948.766031621,948.831161649,nan,nan
0,364,5057,6,1,214,150,0.920243657418,0.0575410437433,0.553854850604,1,1.0,1.0,0.266815925017,0,0.0,0.0,0.328284725857,0.391360775601,0.0856320541271,0.476992829728,0.305728721474,nan,nan,0.0,0.0,0.0,nan,nan,409.43159819,949.331242901,949.598058826,949.831280249,nan,nan
0,365,5058,6,1,341,239,-0.168535884224,0.46196150489,0.223260112086,1,1.0,1.0,0.266624339856,0,0.0,0.0,0.322783193551,0.391019556832,0.0857621088122,0.476781665644,0.30525744802,nan,nan,0.0,0.0,0.0,nan,nan,409.43159819,950.331358081,950.597982421,950.83139999,nan,nan
0,366,5059,6,1,187,131,1.0,-0.0912463489427,0.385383214542,1,1.0,1.0,0.290487882681,0,1.0,0.0,0.274642715851,0.39067967919,0.0858906684984,0.476570347688,0.304789010692,nan,nan,0.0,0.0,0.0,nan,nan,409.43159819,951.331491792,951.621979674,951.831543394,nan,nan
0,367,5107,6,1,408,286,0.036737934283,0.465637664749,-0.515938449969,1,1.0,1.0,0.330326596275,1,0.0,0.0,0.295812939604,0.39040667702,0.0859324362596,0.476339113279,0.30447424076,161.807486033,410.0,0.0492046846968,0.463921527344,-0.54316189137,1.31751396717,4.3841946898,409.43159819,952.331641468,952.661968064,952.831650306,954.1568249,958.549068756
0,368,5108,6,0,306,215,-0.00395437407881,0.408974006242,0.494128827808,0,0.0,1.0,0.447908636183,0,0.0,0.0,0.35624103838,0.390243415931,0.0858725766875,0.476115992618,0.304370839243,nan,nan,0.0,0.0,0.0,nan,nan,409.43159819,959.765930126,960.213838763,960.265965763,nan,nan
0,369,5109,6,1,187,131,1.0,-0.0912463489427,0.385383214542,1,1.0,1.0,0.303763462231,0,0.0,0.0,0.360666231563,0.39039969024,0.0858085228196,0.47620821306,0.304591167421,nan,nan,0.0,0.0,0.0,nan,nan,409.43159819,960.766050437,961.0698139,961.266088355,nan,nan
0,370,5110,6,1,10,7,0.926811495151,0.168400576072,-1.0,1,1.0,1.0,0.303595255129,0,0.0,0.0,0.351755784514,0.390165538273,0.0858104511545,0.475975989427,0.304355087118,nan,nan,0.0,0.0,0.0,nan,nan,409.43159819,961.766198403,962.069793658,962.266192987,nan,nan
0,371,5111,6,1,477,335,0.555879874869,0.337784025865,-1.0,1,1.0,1.0,0.255475304089,0,1.0,0.0,0.287611340483,0.389932195192,0.0858121910059,0.475744386197,0.304120004186,nan,nan,0.0,0.0,0.0,nan,nan,409.43159819,962.766284788,963.021760092,963.266326413,nan,nan
0,372,5118,6,1,142,99,1.0,-0.289568116499,-0.0146273521697,1,1.0,1.0,0.423328356817,1,0.0,0.0,0.327466305345,0.389570751936,0.0859790965388,0.475549848475,0.303591655397,-34.5625246489,177.0,1.0,-0.145192147526,0.306921212481,24.7187746489,4.75093169976,409.43159819,963.766424771,964.189753128,964.26645043,965.5916159,970.350578806
0,373,5119,6,1,9,6,0.918933560847,0.172916688009,-1.0,1,1.0,1.0,0.358556983061,0,0.0,0.0,0.345786881323,0.389661254898,0.0858815069373,0.475542761835,0.303779747961,nan,nan,0.0,0.0,0.0,nan,nan,409.43159819,971.559076261,971.917633244,972.059125013,nan,nan
0,374,5120,6,1,422,296,0.128328379107,0.451313674078,-0.730894888444,1,1.0,1.0,0.262446515262,0,0.0,0.0,0.34811061838,0.389578088396,0.0857816542517,0.475359742648,0.303796434144,nan,nan,0.0,0.0,0.0,nan,nan,409.43159819,972.559219095,972.82166561,973.059239621,nan,nan
0,375,5121,6,1,52,36,1.0,-0.0438860552364,-1.0,1,1.0,1.0,0.270237098448,0,1.0,0.0,0.297080198924,0.389239070867,0.0859177191218,0.475156789989,0.303321351746,nan,nan,0.0,0.0,0.0,nan,nan,409.43159819,973.559357652,973.829594751,974.059363354,nan,nan
0,376,5122,6,0,511,359,0.838703193994,0.216284169582,-1.0,0,1.0,0.0,0.262078739703,0,0.0,0.0,0.264920784471,0.38892257626,0.0860220040523,0.474944580312,0.302900572208,nan,nan,0.0,0.0,0.0,nan,nan,409.43159819,974.559492503,974.821571243,975.059521298,nan,nan
0,377,5123,6,1,199,139,1.0,-0.0246761787097,0.468786302982,1,1.0,1.0,0.270006739534,0,0.0,0.0,0.267440859228,0.38858612046,0.0861552160101,0.47474133647,0.30243090445,nan,nan,0.0,0.0,0.0,nan,nan,409.43159819,975.559582595,975.829589334,976.059616521,nan,nan
0,378,5124,6,1,38,26,1.0,0.0306259494545,-1.0,1,1.0,1.0,0.357774674892,0,0.0,0.0,0.296620051377,0.388272418394,0.0862565047103,0.474528923104,0.302015913684,nan,nan,0.0,0.0,0.0,nan,nan,409.43159819,976.559741964,976.917516639,977.059743959,nan,nan
0,379,5125,6,1,143,100,1.0,-0.287057525782,-0.00469998909502,1,1.0,1.0,0.445651802234,0,0.0,0.0,0.35781107222,0.388191949414,0.0861568404595,0.474348789873,0.302035108954,nan,nan,0.0,0.0,0.0,nan,nan,409.43159819,977.55986085,978.005512652,978.059867977,nan,nan
0,380,5126,6,1,351,246,-0.175686286722,0.4701852659,0.128489978773,1,1.0,1.0,0.589501329698,0,0.0,0.0,0.464309268941,0.388343159553,0.0860937430491,0.474436902602,0.302249416504,nan,nan,0.0,0.0,0.0,nan,nan,409.43159819,978.559982587,979.149483916,979.060051295,nan,nan
0,381,5127,6,1,494,347,0.698129958021,0.282143999684,-1.0,1,1.0,1.0,0.413381864317,0,0.0,1.0,0.48284499875,0.388871133753,0.0865944902585,0.475465624011,0.302276643494,nan,nan,0.0,0.0,0.0,nan,nan,409.43159819,979.560116868,979.973498732,980.060155356,nan,nan
0,382,5133,6,1,420,295,0.1146601879,0.45369410126,-0.695047497311,1,1.0,1.0,0.453194065019,1,0.0,0.0,0.485359086345,0.388935297969,0.0864901409406,0.47542543891,0.302445157028,157.772431417,416.0,0.087881616042,0.458117504295,-0.630165317015,-3.08493141743,2.45060081501,409.43159819,980.56026854,981.013462605,981.060261698,982.393762003,984.852406283
0,383,5134,6,1,0,0,0.846831709088,0.212097570855,-1.0,1,1.0,1.0,0.351996881887,0,0.0,0.0,0.406190937075,0.389103075429,0.0864393779225,0.475542453351,0.302663697506,nan,nan,0.0,0.0,0.0,nan,nan,409.43159819,986.069364586,986.421361468,986.569322106,nan,nan
0,384,5135,6,1,433,304,0.206536295144,0.436163724167,-1.0,1,1.0,1.0,0.319995221682,0,0.0,0.0,0.375062056196,0.389006444716,0.0863474643052,0.475353909021,0.302658980411,nan,nan,0.0,0.0,0.0,nan,nan,409.43159819,987.069429873,987.389425095,987.569431298,nan,nan
0,385,5136,6,1,158,111,1.0,-0.235949227405,0.139764106,1,1.0,1.0,0.319814184681,0,0.0,0.0,0.330602096083,0.388827194786,0.0863067597833,0.47513395457,0.302520435003,nan,nan,0.0,0.0,0.0,nan,nan,409.43159819,988.069515117,988.389329302,988.569553605,nan,nan
