block,trial,freq_trials,correct_response,actual_response,acc,rts,probe_trials,trials_colorind0,trials_colorind1,trials_colorind2,trials_colorind3,trials_colorind4,trials_colorind5,wholereport_resp0,wholereport_resp1,wholereport_resp2,wholereport_resp3,wholereport_resp4,wholereport_resp5,wholereport_respacc0,wholereport_respacc1,wholereport_respacc2,wholereport_respacc3,wholereport_respacc4,wholereport_respacc5,wholereport_respacc_total,wholereport_respcolorind0,wholereport_respcolorind1,wholereport_respcolorind2,wholereport_respcolorind3,wholereport_respcolorind4,wholereport_respcolorind5,wholereport_resporder0,wholereport_resporder1,wholereport_resporder2,wholereport_resporder3,wholereport_resporder4,wholereport_resporder5,wholereport_rts0,wholereport_rts1,wholereport_rts2,wholereport_rts3,wholereport_rts4,wholereport_rts5,time_blockstart,time_encarray_offset,time_encarray_onset,time_response,time_iti_offset,time_iti_onset,time_memprobe_offset,time_memprobe_onset
1,1,1,1,1.0,1.0,0.5358661096543074,0,3,4,0,6,8,5,nan,nan,nan,nan,nan,nan,nan,nan,nan,nan,nan,nan,0.0,nan,nan,nan,nan,nan,nan,nan,nan,nan,nan,nan,nan,nan,nan,nan,nan,nan,nan,96.10582203662489,97.12188749702182,nan,97.65775360667612,nan,nan,nan,nan
1,2,1,1,1.0,1.0,0.031393946846947074,0,1,3,6,7,4,2,nan,nan,nan,nan,nan,nan,nan,nan,nan,nan,nan,nan,0.0,nan,nan,nan,nan,nan,nan,nan,nan,nan,nan,nan,nan,nan,nan,nan,nan,nan,nan,96.10582203662489,98.13040047191316,nan,98.16179441876011,nan,nan,nan,nan
1,3,0,0,0.0,1.0,0.5108643064741045,0,0,1,5,2,3,8,nan,nan,nan,nan,nan,nan,nan,nan,nan,nan,nan,nan,0.0,nan,nan,nan,nan,nan,nan,nan,nan,nan,nan,nan,nan,nan,nan,nan,nan,nan,nan,96.10582203662489,99.13885500200558,nan,99.64971930847969,nan,nan,nan,nan
1,4,1,1,1.0,1.0,0.5024277373449877,0,1,4,8,7,5,6,nan,nan,nan,nan,nan,nan,nan,nan,nan,nan,nan,nan,0.0,nan,nan,nan,nan,nan,nan,nan,nan,nan,nan,nan,nan,nan,nan,nan,nan,nan,nan,96.10582203662489,100.1472636316903,nan,100.64969136903528,nan,nan,nan,nan
1,5,0,0,0.0,1.0,0.429948280681856,0,4,6,5,8,0,2,nan,nan,nan,nan,nan,nan,nan,nan,nan,nan,nan,nan,0.0,nan,nan,nan,nan,nan,nan,nan,nan,nan,nan,nan,nan,nan,nan,nan,nan,nan,nan,96.10582203662489,101.1557395440177,nan,101.58568782469956,nan,nan,nan,nan
1,6,1,1,1.0,1.0,0.2854429555009119,0,6,5,7,2,8,0,nan,nan,nan,nan,nan,nan,nan,nan,nan,nan,nan,nan,0.0,nan,nan,nan,nan,nan,nan,nan,nan,nan,nan,nan,nan,nan,nan,nan,nan,nan,nan,96.10582203662489,102.16420348233078,nan,102.44964643783169,nan,nan,nan,nan
1,7,1,1,1.0,1.0,0.27693938883021474,0,0,3,4,6,5,1,nan,nan,nan,nan,nan,nan,nan,nan,nan,nan,nan,nan,0.0,nan,nan,nan,nan,nan,nan,nan,nan,nan,nan,nan,nan,nan,nan,nan,nan,nan,nan,96.10582203662489,103.1726808201638,nan,103.44962020899402,nan,nan,nan,nan
1,8,1,1,1.0,1.0,0.28446193918352947,0,5,4,2,0,1,8,nan,nan,nan,nan,nan,nan,nan,nan,nan,nan,nan,nan,0.0,nan,nan,nan,nan,nan,nan,nan,nan,nan,nan,nan,nan,nan,nan,nan,nan,nan,nan,96.10582203662489,104.18112936330726,nan,104.4655913024908,nan,nan,nan,nan
1,9,1,1,1.0,1.0,0.316006131877657,0,7,6,4,3,8,0,nan,nan,nan,nan,nan,nan,nan,nan,nan,nan,nan,nan,0.0,nan,nan,nan,nan,nan,nan,nan,nan,nan,nan,nan,nan,nan,nan,nan,nan,nan,nan,96.10582203662489,105.1895878847572,nan,105.50559401663486,nan,nan,nan,nan
1,10,1,1,1.0,1.0,0.2355129038915038,0,0,3,6,5,1,2,nan,nan,nan,nan,nan,nan,nan,nan,nan,nan,nan,nan,0.0,nan,nan,nan,nan,nan,nan,nan,nan,nan,nan,nan,nan,nan,nan,nan,nan,nan,nan,96.10582203662489,106.19804384041345,nan,106.43355674430495,nan,nan,nan,nan
1,11,1,1,1.0,1.0,0.2750141336582601,0,5,1,0,2,6,8,nan,nan,nan,nan,nan,nan,nan,nan,nan,nan,nan,nan,0.0,nan,nan,nan,nan,nan,nan,nan,nan,nan,nan,nan,nan,nan,nan,nan,nan,nan,nan,96.10582203662489,107.20651291043032,nan,107.48152704408858,nan,nan,nan,nan
1,12,1,1,1.0,1.0,0.25858631590381265,0,3,8,2,1,5,0,nan,nan,nan,nan,nan,nan,nan,nan,nan,nan,nan,nan,0.0,nan,nan,nan,nan,nan,nan,nan,nan,nan,nan,nan,nan,nan,nan,nan,nan,nan,nan,96.10582203662489,108.21493322902825,nan,108.47351954493206,nan,nan,nan,nan
1,13,1,1,1.0,1.0,0.24205443798564374,0,4,2,6,5,1,3,nan,nan,nan,nan,nan,nan,nan,nan,nan,nan,nan,nan,0.0,nan,nan,nan,nan,nan,nan,nan,nan,nan,nan,nan,nan,nan,nan,nan,nan,nan,nan,96.10582203662489,109.22343736590119,nan,109.46549180388683,nan,nan,nan,nan
1,14,1,1,1.0,1.0,0.2815699225757271,0,1,7,5,8,3,0,nan,nan,nan,nan,nan,nan,nan,nan,nan,nan,nan,nan,0.0,nan,nan,nan,nan,nan,nan,nan,nan,nan,nan,nan,nan,nan,nan,nan,nan,nan,nan,96.10582203662489,110.23189759795787,nan,110.5134675205336,nan,nan,nan,nan
1,15,0,0,1.0,0.0,0.28921506437473,0,6,0,4,3,2,7,nan,nan,nan,nan,nan,nan,nan,nan,nan,nan,nan,nan,0.0,nan,nan,nan,nan,nan,nan,nan,nan,nan,nan,nan,nan,nan,nan,nan,nan,nan,nan,96.10582203662489,111.24035668966826,nan,111.52957175404299,nan,nan,nan,nan
1,16,1,1,1.0,1.0,0.42463123507332057,0,4,3,0,5,7,1,nan,nan,nan,nan,nan,nan,nan,nan,nan,nan,nan,nan,0.0,nan,nan,nan,nan,nan,nan,nan,nan,nan,nan,nan,nan,nan,nan,nan,nan,nan,nan,96.10582203662489,112.24882718519075,nan,112.67345842026407,nan,nan,nan,nan
1,17,1,1,1.0,1.0,0.39212370215682313,0,7,1,2,8,0,6,nan,nan,nan,nan,nan,nan,nan,nan,nan,nan,nan,nan,0.0,nan,nan,nan,nan,nan,nan,nan,nan,nan,nan,nan,nan,nan,nan,nan,nan,nan,nan,96.10582203662489,113.25728057493689,nan,113.64940427709371,nan,nan,nan,nan
1,18,1,1,1.0,1.0,0.3436473564361222,0,1,6,4,3,5,2,nan,nan,nan,nan,nan,nan,nan,nan,nan,nan,nan,nan,0.0,nan,nan,nan,nan,nan,nan,nan,nan,nan,nan,nan,nan,nan,nan,nan,nan,nan,nan,96.10582203662489,114.2657197098597,nan,114.60936706629582,nan,nan,nan,nan
1,19,1,1,1.0,1.0,0.32714398816460744,0,2,5,7,1,3,0,nan,nan,nan,nan,nan,nan,nan,nan,nan,nan,nan,nan,0.0,nan,nan,nan,nan,nan,nan,nan,nan,nan,nan,nan,nan,nan,nan,nan,nan,nan,nan,96.10582203662489,115.27420189435361,nan,115.60134588251822,nan,nan,nan,nan
1,20,1,1,1.0,1.0,0.26267345616361126,0,5,7,3,2,4,6,nan,nan,nan,nan,nan,nan,nan,nan,nan,nan,nan,nan,0.0,nan,nan,nan,nan,nan,nan,nan,nan,nan,nan,nan,nan,nan,nan,nan,nan,nan,nan,96.10582203662489,116.28266896872083,nan,116.54534242488444,nan,nan,nan,nan
1,21,1,1,1.0,1.0,0.27813650807365775,0,2,8,4,1,0,3,nan,nan,nan,nan,nan,nan,nan,nan,nan,nan,nan,nan,0.0,nan,nan,nan,nan,nan,nan,nan,nan,nan,nan,nan,nan,nan,nan,nan,nan,nan,nan,96.10582203662489,117.29115428926889,nan,117.56929079734255,nan,nan,nan,nan
1,22,1,1,1.0,1.0,0.2536584266927093,0,3,2,8,6,1,0,nan,nan,nan,nan,nan,nan,nan,nan,nan,nan,nan,nan,0.0,nan,nan,nan,nan,nan,nan,nan,nan,nan,nan,nan,nan,nan,nan,nan,nan,nan,nan,96.10582203662489,118.29962564009475,nan,118.55328406678746,nan,nan,nan,nan
1,23,1,1,1.0,1.0,0.22919659584295005,0,2,8,0,1,5,6,nan,nan,nan,nan,nan,nan,nan,nan,nan,nan,nan,nan,0.0,nan,nan,nan,nan,nan,nan,nan,nan,nan,nan,nan,nan,nan,nan,nan,nan,nan,nan,96.10582203662489,119.30805109039648,nan,119.53724768623943,nan,nan,nan,nan
1,24,1,1,1.0,1.0,0.1726984961424023,0,5,0,7,8,6,4,nan,nan,nan,nan,nan,nan,nan,nan,nan,nan,nan,nan,0.0,nan,nan,nan,nan,nan,nan,nan,nan,nan,nan,nan,nan,nan,nan,nan,nan,nan,nan,96.10582203662489,120.31651502870955,nan,120.48921352485195,nan,nan,nan,nan
1,25,1,1,1.0,1.0,0.3002377417869866,0,6,5,0,3,8,7,nan,nan,nan,nan,nan,nan,nan,nan,nan,nan,nan,nan,0.0,nan,nan,nan,nan,nan,nan,nan,nan,nan,nan,nan,nan,nan,nan,nan,nan,nan,nan,96.10582203662489,121.32497982232599,nan,121.62521756411297,nan,nan,nan,nan
1,26,1,1,1.0,1.0,0.2997704689623788,1,8,0,1,5,3,4,1.0,1.0,1.0,1.0,1.0,1.0,1.0,0.0,0.0,0.0,0.0,0.0,1.0,8.0,1.0,0.0,4.0,7.0,3.0,3.0,2.0,1.0,6.0,5.0,4.0,2.4062006159801967,1.7668414211366326,1.0377587212715298,4.740601159690414,3.869549351162277,3.25391900469549,96.10582203662489,122.33344376063906,123.14186248264741,122.63321422960144,128.9425870263367,129.9420755636529,124.15866320638452,128.93425651307916
1,27,1,1,1.0,1.0,0.4579453053884208,0,1,2,6,3,4,5,nan,nan,nan,nan,nan,nan,nan,nan,nan,nan,nan,nan,0.0,nan,nan,nan,nan,nan,nan,nan,nan,nan,nan,nan,nan,nan,nan,nan,nan,nan,nan,96.10582203662489,130.1511130016297,nan,130.60905830701813,nan,nan,nan,nan
1,28,1,1,1.0,1.0,0.3373587027308531,0,2,6,1,0,3,7,nan,nan,nan,nan,nan,nan,nan,nan,nan,nan,nan,nan,0.0,nan,nan,nan,nan,nan,nan,nan,nan,nan,nan,nan,nan,nan,nan,nan,nan,nan,nan,96.10582203662489,131.1596140024485,nan,131.49697270517936,nan,nan,nan,nan
1,29,1,1,1.0,1.0,0.2648929306305945,0,1,2,6,3,5,4,nan,nan,nan,nan,nan,nan,nan,nan,nan,nan,nan,nan,0.0,nan,nan,nan,nan,nan,nan,nan,nan,nan,nan,nan,nan,nan,nan,nan,nan,nan,nan,96.10582203662489,132.1680554181803,nan,132.4329483488109,nan,nan,nan,nan
1,30,1,1,1.0,1.0,0.2564284221152775,0,7,0,3,8,4,2,nan,nan,nan,nan,nan,nan,nan,nan,nan,nan,nan,nan,0.0,nan,nan,nan,nan,nan,nan,nan,nan,nan,nan,nan,nan,nan,nan,nan,nan,nan,nan,96.10582203662489,133.17649911466287,nan,133.43292753677815,nan,nan,nan,nan
1,31,1,1,1.0,1.0,0.2879395436611958,0,8,6,2,4,5,0,nan,nan,nan,nan,nan,nan,nan,nan,nan,nan,nan,nan,0.0,nan,nan,nan,nan,nan,nan,nan,nan,nan,nan,nan,nan,nan,nan,nan,nan,nan,nan,96.10582203662489,134.1849573510117,nan,134.47289689467289,nan,nan,nan,nan
1,32,1,1,1.0,1.0,0.33546366775408387,0,6,4,8,2,1,3,nan,nan,nan,nan,nan,nan,nan,nan,nan,nan,nan,nan,0.0,nan,nan,nan,nan,nan,nan,nan,nan,nan,nan,nan,nan,nan,nan,nan,nan,nan,nan,96.10582203662489,135.1934244253789,nan,135.528888093133,nan,nan,nan,nan
1,33,1,1,1.0,1.0,0.31893435574602336,0,8,2,4,6,5,0,nan,nan,nan,nan,nan,nan,nan,nan,nan,nan,nan,nan,0.0,nan,nan,nan,nan,nan,nan,nan,nan,nan,nan,nan,nan,nan,nan,nan,nan,nan,nan,96.10582203662489,136.20192941755522,nan,136.52086377330124,nan,nan,nan,nan
1,34,1,1,1.0,1.0,0.2624793055583723,0,2,8,3,0,1,4,nan,nan,nan,nan,nan,nan,nan,nan,nan,nan,nan,nan,0.0,nan,nan,nan,nan,nan,nan,nan,nan,nan,nan,nan,nan,nan,nan,nan,nan,nan,nan,96.10582203662489,137.21034973615315,nan,137.47282904171152,nan,nan,nan,nan
1,35,1,1,1.0,1.0,0.2779751436319202,0,0,3,4,1,6,8,nan,nan,nan,nan,nan,nan,nan,nan,nan,nan,nan,nan,0.0,nan,nan,nan,nan,nan,nan,nan,nan,nan,nan,nan,nan,nan,nan,nan,nan,nan,nan,96.10582203662489,138.21883306099335,nan,138.49680820462527,nan,nan,nan,nan
1,36,1,1,1.0,1.0,0.22950250410940498,0,8,1,2,7,3,5,nan,nan,nan,nan,nan,nan,nan,nan,nan,nan,nan,nan,0.0,nan,nan,nan,nan,nan,nan,nan,nan,nan,nan,nan,nan,nan,nan,nan,nan,nan,nan,96.10582203662489,139.22728873154847,nan,139.45679123565787,nan,nan,nan,nan
1,37,1,1,1.0,1.0,0.22904606501106173,0,4,0,6,3,5,2,nan,nan,nan,nan,nan,nan,nan,nan,nan,nan,nan,nan,0.0,nan,nan,nan,nan,nan,nan,nan,nan,nan,nan,nan,nan,nan,nan,nan,nan,nan,nan,96.10582203662489,140.23573043232318,nan,140.46477649733424,nan,nan,nan,nan
1,38,1,1,1.0,1.0,0.2045505927526392,0,7,8,0,5,1,6,nan,nan,nan,nan,nan,nan,nan,nan,nan,nan,nan,nan,0.0,nan,nan,nan,nan,nan,nan,nan,nan,nan,nan,nan,nan,nan,nan,nan,nan,nan,nan,96.10582203662489,141.2441986470949,nan,141.44874923984753,nan,nan,nan,nan
1,39,1,1,1.0,1.0,0.2680971277295612,0,2,0,5,1,8,3,nan,nan,nan,nan,nan,nan,nan,nan,nan,nan,nan,nan,0.0,nan,nan,nan,nan,nan,nan,nan,nan,nan,nan,nan,nan,nan,nan,nan,nan,nan,nan,96.10582203662489,142.25265460275114,nan,142.5207517304807,nan,nan,nan,nan
1,40,1,1,1.0,1.0,0.23558987985597923,0,6,3,2,4,0,8,nan,nan,nan,nan,nan,nan,nan,nan,nan,nan,nan,nan,0.0,nan,nan,nan,nan,nan,nan,nan,nan,nan,nan,nan,nan,nan,nan,nan,nan,nan,nan,96.10582203662489,143.2611171155586,nan,143.49670699541457,nan,nan,nan,nan
1,41,1,1,1.0,1.0,0.34710044256644323,1,0,5,6,8,4,2,1.0,1.0,1.0,1.0,1.0,1.0,0.0,0.0,0.0,0.0,0.0,0.0,0.0,1.0,3.0,4.0,3.0,1.0,4.0,3.0,2.0,1.0,6.0,5.0,4.0,2.924370229477063,2.2846213080338202,1.4446307390462607,5.708324269624427,4.9891526568098925,3.8535965037881397,96.10582203662489,144.26958704087883,145.07801060954807,144.61668748344528,151.8371903533698,152.8368371190736,146.0864828156773,151.82885869970778
1,42,1,1,1.0,1.0,0.4347304856637493,0,5,3,0,6,2,8,nan,nan,nan,nan,nan,nan,nan,nan,nan,nan,nan,nan,0.0,nan,nan,nan,nan,nan,nan,nan,nan,nan,nan,nan,nan,nan,nan,nan,nan,nan,nan,96.10582203662489,153.04574198729824,nan,153.480472472962,nan,nan,nan,nan
1,43,0,0,1.0,0.0,0.3462671061279252,0,8,2,3,5,4,7,nan,nan,nan,nan,nan,nan,nan,nan,nan,nan,nan,nan,0.0,nan,nan,nan,nan,nan,nan,nan,nan,nan,nan,nan,nan,nan,nan,nan,nan,nan,nan,96.10582203662489,154.05417256936198,nan,154.4004396754899,nan,nan,nan,nan
1,44,1,1,1.0,1.0,0.42578616010723636,0,5,6,2,7,0,4,nan,nan,nan,nan,nan,nan,nan,nan,nan,nan,nan,nan,0.0,nan,nan,nan,nan,nan,nan,nan,nan,nan,nan,nan,nan,nan,nan,nan,nan,nan,nan,96.10582203662489,155.06262881006114,nan,155.48841497016838,nan,nan,nan,nan
1,45,1,1,1.0,1.0,0.41724325012182817,0,4,1,5,6,7,3,nan,nan,nan,nan,nan,nan,nan,nan,nan,nan,nan,nan,0.0,nan,nan,nan,nan,nan,nan,nan,nan,nan,nan,nan,nan,nan,nan,nan,nan,nan,nan,96.10582203662489,156.0711509080138,nan,156.48839415813563,nan,nan,nan,nan
1,46,1,1,1.0,1.0,0.4488170928088948,0,5,8,7,3,2,4,nan,nan,nan,nan,nan,nan,nan,nan,nan,nan,nan,nan,0.0,nan,nan,nan,nan,nan,nan,nan,nan,nan,nan,nan,nan,nan,nan,nan,nan,nan,nan,96.10582203662489,157.0795558313839,nan,157.5283729241928,nan,nan,nan,nan
1,47,1,1,1.0,1.0,0.35233053378760815,0,6,5,3,0,4,8,nan,nan,nan,nan,nan,nan,nan,nan,nan,nan,nan,nan,0.0,nan,nan,nan,nan,nan,nan,nan,nan,nan,nan,nan,nan,nan,nan,nan,nan,nan,nan,96.10582203662489,158.08802689710865,nan,158.44035743089626,nan,nan,nan,nan
1,48,1,1,1.0,1.0,0.4078008614014834,0,8,6,7,5,1,0,nan,nan,nan,nan,nan,nan,nan,nan,nan,nan,nan,nan,0.0,nan,nan,nan,nan,nan,nan,nan,nan,nan,nan,nan,nan,nan,nan,nan,nan,nan,nan,96.10582203662489,159.0965159239131,nan,159.5043167853146,nan,nan,nan,nan
1,49,1,1,nan,nan,nan,0,2,3,6,8,5,1,nan,nan,nan,nan,nan,nan,nan,nan,nan,nan,nan,nan,0.0,nan,nan,nan,nan,nan,nan,nan,nan,nan,nan,nan,nan,nan,nan,nan,nan,nan,nan,96.10582203662489,160.104947361222,nan,nan,nan,nan,nan,nan
1,50,1,1,1.0,1.0,0.46289144072216004,1,3,7,2,4,1,8,1.0,1.0,1.0,1.0,1.0,1.0,0.0,0.0,0.0,0.0,0.0,0.0,0.0,4.0,4.0,3.0,7.0,5.0,0.0,3.0,2.0,1.0,6.0,5.0,4.0,3.1612413320108317,2.6506433055037633,1.9455423344043083,5.496343212609645,4.680901713902131,3.9217131321202032,96.10582203662489,161.1134104442899,161.921830876905,161.57630188501207,168.46432376443408,169.4643973193015,162.93030108732637,168.45599296613364
1,51,1,1,1.0,1.0,0.511247475806158,0,5,8,1,0,2,6,nan,nan,nan,nan,nan,nan,nan,nan,nan,nan,nan,nan,0.0,nan,nan,nan,nan,nan,nan,nan,nan,nan,nan,nan,nan,nan,nan,nan,nan,nan,nan,96.10582203662489,169.67285686713876,nan,170.18410434294492,nan,nan,nan,nan
1,52,1,1,1.0,1.0,0.31879807967925444,0,0,2,7,5,4,8,nan,nan,nan,nan,nan,nan,nan,nan,nan,nan,nan,nan,0.0,nan,nan,nan,nan,nan,nan,nan,nan,nan,nan,nan,nan,nan,nan,nan,nan,nan,nan,96.10582203662489,170.6812723390758,nan,171.00007041875506,nan,nan,nan,nan
1,53,0,0,0.0,1.0,0.4943267265916802,0,4,0,5,6,3,2,nan,nan,nan,nan,nan,nan,nan,nan,nan,nan,nan,nan,0.0,nan,nan,nan,nan,nan,nan,nan,nan,nan,nan,nan,nan,nan,nan,nan,nan,nan,nan,96.10582203662489,171.68972088221926,nan,172.18404760881094,nan,nan,nan,nan
1,54,1,1,1.0,1.0,0.4537863209261559,0,7,4,3,1,5,0,nan,nan,nan,nan,nan,nan,nan,nan,nan,nan,nan,nan,0.0,nan,nan,nan,nan,nan,nan,nan,nan,nan,nan,nan,nan,nan,nan,nan,nan,nan,nan,96.10582203662489,172.6982250190922,nan,173.15201134001836,nan,nan,nan,nan
1,55,0,0,0.0,1.0,0.4372801016434096,0,0,8,7,3,4,2,nan,nan,nan,nan,nan,nan,nan,nan,nan,nan,nan,nan,0.0,nan,nan,nan,nan,nan,nan,nan,nan,nan,nan,nan,nan,nan,nan,nan,nan,nan,nan,96.10582203662489,173.706706918485,nan,174.1439870201284,nan,nan,nan,nan
1,56,1,1,1.0,1.0,0.3648231676197611,0,6,3,4,8,0,7,nan,nan,nan,nan,nan,nan,nan,nan,nan,nan,nan,nan,0.0,nan,nan,nan,nan,nan,nan,nan,nan,nan,nan,nan,nan,nan,nan,nan,nan,nan,nan,96.10582203662489,174.71515090001049,nan,175.07997406763025,nan,nan,nan,nan
1,57,1,1,1.0,1.0,0.3323281789198518,0,8,6,1,4,7,0,nan,nan,nan,nan,nan,nan,nan,nan,nan,nan,nan,nan,0.0,nan,nan,nan,nan,nan,nan,nan,nan,nan,nan,nan,nan,nan,nan,nan,nan,nan,nan,96.10582203662489,175.72361255757278,nan,176.05594073649263,nan,nan,nan,nan
1,58,1,1,1.0,1.0,0.3158410611213185,0,6,5,8,7,3,1,nan,nan,nan,nan,nan,nan,nan,nan,nan,nan,nan,nan,0.0,nan,nan,nan,nan,nan,nan,nan,nan,nan,nan,nan,nan,nan,nan,nan,nan,nan,nan,96.10582203662489,176.73208276799414,nan,177.04792382911546,nan,nan,nan,nan
1,59,1,1,1.0,1.0,0.33143155107973143,0,7,1,6,5,2,0,nan,nan,nan,nan,nan,nan,nan,nan,nan,nan,nan,nan,0.0,nan,nan,nan,nan,nan,nan,nan,nan,nan,nan,nan,nan,nan,nan,nan,nan,nan,nan,96.10582203662489,177.7405415746034,nan,178.07197312568314,nan,nan,nan,nan
1,60,0,0,0.0,1.0,0.410873343993444,0,0,2,1,6,8,7,nan,nan,nan,nan,nan,nan,nan,nan,nan,nan,nan,nan,0.0,nan,nan,nan,nan,nan,nan,nan,nan,nan,nan,nan,nan,nan,nan,nan,nan,nan,nan,96.10582203662489,178.74900123645784,nan,179.1598745804513,nan,nan,nan,nan
1,61,1,1,1.0,1.0,0.4343903657863848,0,2,7,3,4,6,5,nan,nan,nan,nan,nan,nan,nan,nan,nan,nan,nan,nan,0.0,nan,nan,nan,nan,nan,nan,nan,nan,nan,nan,nan,nan,nan,nan,nan,nan,nan,nan,96.10582203662489,179.75746317912126,nan,180.19185354490764,nan,nan,nan,nan
1,62,1,1,1.0,1.0,0.30623331654351205,0,3,2,7,0,5,8,nan,nan,nan,nan,nan,nan,nan,nan,nan,nan,nan,nan,0.0,nan,nan,nan,nan,nan,nan,nan,nan,nan,nan,nan,nan,nan,nan,nan,nan,nan,nan,96.10582203662489,180.76592996838735,nan,181.07216328493087,nan,nan,nan,nan
1,63,1,1,1.0,1.0,0.297529041999951,0,4,7,2,1,0,5,nan,nan,nan,nan,nan,nan,nan,nan,nan,nan,nan,nan,0.0,nan,nan,nan,nan,nan,nan,nan,nan,nan,nan,nan,nan,nan,nan,nan,nan,nan,nan,96.10582203662489,181.7743947620038,nan,182.07192380400375,nan,nan,nan,nan
1,64,1,1,1.0,1.0,0.32092575321439654,0,0,6,1,7,2,3,nan,nan,nan,nan,nan,nan,nan,nan,nan,nan,nan,nan,0.0,nan,nan,nan,nan,nan,nan,nan,nan,nan,nan,nan,nan,nan,nan,nan,nan,nan,nan,96.10582203662489,182.78289006091654,nan,183.10381581413094,nan,nan,nan,nan
1,65,1,1,1.0,1.0,0.25641587789868936,0,8,1,4,6,5,7,nan,nan,nan,nan,nan,nan,nan,nan,nan,nan,nan,nan,0.0,nan,nan,nan,nan,nan,nan,nan,nan,nan,nan,nan,nan,nan,nan,nan,nan,nan,nan,96.10582203662489,183.79134573141346,nan,184.04776160931215,nan,nan,nan,nan
1,66,1,1,1.0,1.0,0.27997366851195693,0,7,4,1,3,2,0,nan,nan,nan,nan,nan,nan,nan,nan,nan,nan,nan,nan,0.0,nan,nan,nan,nan,nan,nan,nan,nan,nan,nan,nan,nan,nan,nan,nan,nan,nan,nan,96.10582203662489,184.79977032641182,nan,185.07974399492377,nan,nan,nan,nan
1,67,1,1,1.0,1.0,0.23148620408028364,1,4,6,7,1,3,8,1.0,1.0,1.0,1.0,1.0,1.0,0.0,0.0,0.0,0.0,0.0,1.0,1.0,5.0,7.0,1.0,3.0,0.0,8.0,3.0,2.0,1.0,6.0,5.0,4.0,3.3371850790572353,2.4588983822613955,1.6013849406735972,5.4884166807169095,4.77626727434108,3.889466462249402,96.10582203662489,185.80824139213655,186.61665184638696,186.03972759621684,193.15916839696,194.1592137272819,187.63344202155713,193.15081963752164
1,68,1,1,1.0,1.0,0.6398800656897947,0,3,8,6,5,0,1,nan,nan,nan,nan,nan,nan,nan,nan,nan,nan,nan,nan,0.0,nan,nan,nan,nan,nan,nan,nan,nan,nan,nan,nan,nan,nan,nan,nan,nan,nan,nan,96.10582203662489,194.36765702464618,nan,195.00753709033597,nan,nan,nan,nan
1,69,1,1,1.0,1.0,0.39935231825802475,0,6,7,2,8,3,0,nan,nan,nan,nan,nan,nan,nan,nan,nan,nan,nan,nan,0.0,nan,nan,nan,nan,nan,nan,nan,nan,nan,nan,nan,nan,nan,nan,nan,nan,nan,nan,96.10582203662489,195.37613350717584,nan,195.77548582543386,nan,nan,nan,nan
1,70,0,0,1.0,0.0,0.27888944739243016,0,0,5,1,4,7,6,nan,nan,nan,nan,nan,nan,nan,nan,nan,nan,nan,nan,0.0,nan,nan,nan,nan,nan,nan,nan,nan,nan,nan,nan,nan,nan,nan,nan,nan,nan,nan,96.10582203662489,196.38458917767275,nan,196.66347862506518,nan,nan,nan,nan
1,71,1,1,1.0,1.0,0.7664374397136271,0,6,0,4,8,2,1,nan,nan,nan,nan,nan,nan,nan,nan,nan,nan,nan,nan,0.0,nan,nan,nan,nan,nan,nan,nan,nan,nan,nan,nan,nan,nan,nan,nan,nan,nan,nan,96.10582203662489,197.3930516905384,nan,198.15948913025204,nan,nan,nan,nan
1,72,1,1,1.0,1.0,0.5738953873515129,0,1,2,6,7,5,4,nan,nan,nan,nan,nan,nan,nan,nan,nan,nan,nan,nan,0.0,nan,nan,nan,nan,nan,nan,nan,nan,nan,nan,nan,nan,nan,nan,nan,nan,nan,nan,96.10582203662489,198.40151819470339,nan,198.9754135820549,nan,nan,nan,nan
1,73,1,1,1.0,1.0,0.42946960404515266,0,8,6,7,0,4,3,nan,nan,nan,nan,nan,nan,nan,nan,nan,nan,nan,nan,0.0,nan,nan,nan,nan,nan,nan,nan,nan,nan,nan,nan,nan,nan,nan,nan,nan,nan,nan,96.10582203662489,199.40997728635557,nan,199.83944689040072,nan,nan,nan,nan
1,74,1,1,1.0,1.0,0.6049768686643802,0,0,3,5,2,1,8,nan,nan,nan,nan,nan,nan,nan,nan,nan,nan,nan,nan,0.0,nan,nan,nan,nan,nan,nan,nan,nan,nan,nan,nan,nan,nan,nan,nan,nan,nan,nan,96.10582203662489,200.41844093962573,nan,201.0234178082901,nan,nan,nan,nan
1,75,1,1,1.0,1.0,0.31643862288910896,0,6,4,8,5,3,2,nan,nan,nan,nan,nan,nan,nan,nan,nan,nan,nan,nan,0.0,nan,nan,nan,nan,nan,nan,nan,nan,nan,nan,nan,nan,nan,nan,nan,nan,nan,nan,96.10582203662489,201.426913715899,nan,201.7433523387881,nan,nan,nan,nan
1,76,1,1,1.0,1.0,0.29962421458913013,0,1,8,2,7,4,3,nan,nan,nan,nan,nan,nan,nan,nan,nan,nan,nan,nan,0.0,nan,nan,nan,nan,nan,nan,nan,nan,nan,nan,nan,nan,nan,nan,nan,nan,nan,nan,96.10582203662489,202.4437007549568,nan,202.74332496954594,nan,nan,nan,nan
1,77,1,1,1.0,1.0,0.2671594460844062,1,0,2,5,4,3,8,1.0,1.0,1.0,1.0,1.0,1.0,0.0,0.0,0.0,0.0,0.0,0.0,0.0,4.0,3.0,7.0,2.0,1.0,5.0,3.0,2.0,1.0,6.0,5.0,4.0,2.317843862459995,1.6144491925952025,0.8628769578645006,4.451942033076193,3.8367088257800788,3.0774615141563118,96.10582203662489,203.45216212741798,204.26062247349182,203.71932157350238,209.7696467685746,210.76977677247487,205.27737302024616,209.76127006969182
1,78,1,1,1.0,1.0,0.6370268221362494,0,8,1,3,7,6,4,nan,nan,nan,nan,nan,nan,nan,nan,nan,nan,nan,nan,0.0,nan,nan,nan,nan,nan,nan,nan,nan,nan,nan,nan,nan,nan,nan,nan,nan,nan,nan,96.10582203662489,210.9781194308307,nan,211.61514625296695,nan,nan,nan,nan
1,79,0,0,0.0,1.0,0.34851765615167096,0,2,4,1,3,8,6,nan,nan,nan,nan,nan,nan,nan,nan,nan,nan,nan,nan,0.0,nan,nan,nan,nan,nan,nan,nan,nan,nan,nan,nan,nan,nan,nan,nan,nan,nan,nan,96.10582203662489,211.98658422444714,nan,212.3351018805988,nan,nan,nan,nan
1,80,1,1,1.0,1.0,0.36400921776657924,0,6,0,3,8,5,7,nan,nan,nan,nan,nan,nan,nan,nan,nan,nan,nan,nan,0.0,nan,nan,nan,nan,nan,nan,nan,nan,nan,nan,nan,nan,nan,nan,nan,nan,nan,nan,96.10582203662489,212.99505243916065,nan,213.35906165692722,nan,nan,nan,nan
1,81,1,1,1.0,1.0,0.3715682604815811,0,0,8,4,3,2,6,nan,nan,nan,nan,nan,nan,nan,nan,nan,nan,nan,nan,0.0,nan,nan,nan,nan,nan,nan,nan,nan,nan,nan,nan,nan,nan,nan,nan,nan,nan,nan,96.10582203662489,214.00350297795376,nan,214.37507123843534,nan,nan,nan,nan
1,82,1,1,1.0,1.0,0.34705539734568447,0,1,6,5,4,3,0,nan,nan,nan,nan,nan,nan,nan,nan,nan,nan,nan,nan,0.0,nan,nan,nan,nan,nan,nan,nan,nan,nan,nan,nan,nan,nan,nan,nan,nan,nan,nan,96.10582203662489,215.01197318843333,nan,215.35902858577901,nan,nan,nan,nan
1,83,1,1,1.0,1.0,0.37056757253594697,0,7,3,6,8,2,5,nan,nan,nan,nan,nan,nan,nan,nan,nan,nan,nan,nan,0.0,nan,nan,nan,nan,nan,nan,nan,nan,nan,nan,nan,nan,nan,nan,nan,nan,nan,nan,96.10582203662489,216.020449670963,nan,216.39101724349894,nan,nan,nan,nan
1,84,1,1,1.0,1.0,0.3060522803571075,0,1,6,4,7,8,2,nan,nan,nan,nan,nan,nan,nan,nan,nan,nan,nan,nan,0.0,nan,nan,nan,nan,nan,nan,nan,nan,nan,nan,nan,nan,nan,nan,nan,nan,nan,nan,96.10582203662489,217.0289418338216,nan,217.3349941141787,nan,nan,nan,nan
1,85,1,1,1.0,1.0,0.3056366100208834,0,3,8,5,1,4,7,nan,nan,nan,nan,nan,nan,nan,nan,nan,nan,nan,nan,0.0,nan,nan,nan,nan,nan,nan,nan,nan,nan,nan,nan,nan,nan,nan,nan,nan,nan,nan,96.10582203662489,218.03736357786693,nan,218.3430001878878,nan,nan,nan,nan
1,86,1,1,1.0,1.0,0.3290706687839702,0,4,6,2,8,5,1,nan,nan,nan,nan,nan,nan,nan,nan,nan,nan,nan,nan,0.0,nan,nan,nan,nan,nan,nan,nan,nan,nan,nan,nan,nan,nan,nan,nan,nan,nan,nan,96.10582203662489,219.0458691402455,nan,219.37493980902946,nan,nan,nan,nan
1,87,1,1,1.0,1.0,0.32059532665880397,0,0,3,1,6,2,7,nan,nan,nan,nan,nan,nan,nan,nan,nan,nan,nan,nan,0.0,nan,nan,nan,nan,nan,nan,nan,nan,nan,nan,nan,nan,nan,nan,nan,nan,nan,nan,96.10582203662489,220.05434590787627,nan,220.37494123453507,nan,nan,nan,nan
1,88,1,1,1.0,1.0,0.21615600696532056,1,6,7,0,1,5,2,1.0,1.0,1.0,1.0,1.0,1.0,0.0,0.0,1.0,0.0,0.0,0.0,1.0,7.0,5.0,0.0,4.0,2.0,1.0,3.0,2.0,1.0,6.0,5.0,4.0,2.3786922462750226,1.7211242372286506,1.011076275492087,4.577154037775472,4.113084009033628,3.5065322684822604,96.10582203662489,221.06274940579897,221.8711729744682,221.2789054127643,227.50520486023743,228.50536565453513,222.88793720584363,227.49687406187877
1,89,0,0,nan,nan,nan,0,4,3,1,5,7,8,nan,nan,nan,nan,nan,nan,nan,nan,nan,nan,nan,nan,0.0,nan,nan,nan,nan,nan,nan,nan,nan,nan,nan,nan,nan,nan,nan,nan,nan,nan,nan,96.10582203662489,228.7137276994181,nan,nan,nan,nan,nan,nan
1,90,1,1,1.0,1.0,0.5084834673907608,0,0,2,3,8,6,7,nan,nan,nan,nan,nan,nan,nan,nan,nan,nan,nan,nan,0.0,nan,nan,nan,nan,nan,nan,nan,nan,nan,nan,nan,nan,nan,nan,nan,nan,nan,nan,96.10582203662489,229.72218536562286,nan,230.23066883301362,nan,nan,nan,nan
1,91,1,1,1.0,1.0,0.6599981696926989,0,7,6,1,2,3,4,nan,nan,nan,nan,nan,nan,nan,nan,nan,nan,nan,nan,0.0,nan,nan,nan,nan,nan,nan,nan,nan,nan,nan,nan,nan,nan,nan,nan,nan,nan,nan,96.10582203662489,230.73065243999008,nan,231.39065060968278,nan,nan,nan,nan
1,92,1,1,1.0,1.0,0.6835408501792699,0,4,0,3,1,6,5,nan,nan,nan,nan,nan,nan,nan,nan,nan,nan,nan,nan,0.0,nan,nan,nan,nan,nan,nan,nan,nan,nan,nan,nan,nan,nan,nan,nan,nan,nan,nan,96.10582203662489,231.7391118167434,nan,232.42265266692266,nan,nan,nan,nan
1,93,1,1,1.0,1.0,0.5070537095889449,0,6,7,5,2,1,0,nan,nan,nan,nan,nan,nan,nan,nan,nan,nan,nan,nan,0.0,nan,nan,nan,nan,nan,nan,nan,nan,nan,nan,nan,nan,nan,nan,nan,nan,nan,nan,96.10582203662489,232.7475726190023,nan,233.25462632859126,nan,nan,nan,nan
1,94,1,1,nan,nan,nan,0,2,1,7,3,6,4,nan,nan,nan,nan,nan,nan,nan,nan,nan,nan,nan,nan,0.0,nan,nan,nan,nan,nan,nan,nan,nan,nan,nan,nan,nan,nan,nan,nan,nan,nan,nan,96.10582203662489,233.7560607905034,nan,nan,nan,nan,nan,nan
1,95,1,1,1.0,1.0,0.7220679059391841,0,7,5,0,2,1,6,nan,nan,nan,nan,nan,nan,nan,nan,nan,nan,nan,nan,0.0,nan,nan,nan,nan,nan,nan,nan,nan,nan,nan,nan,nan,nan,nan,nan,nan,nan,nan,96.10582203662489,234.7645110441954,nan,235.48657895013457,nan,nan,nan,nan
1,96,1,1,1.0,1.0,0.39360477728769183,0,2,7,5,3,4,8,nan,nan,nan,nan,nan,nan,nan,nan,nan,nan,nan,nan,0.0,nan,nan,nan,nan,nan,nan,nan,nan,nan,nan,nan,nan,nan,nan,nan,nan,nan,nan,96.10582203662489,235.7729689955013,nan,236.16657377278898,nan,nan,nan,nan
1,97,1,1,1.0,1.0,0.36113031551940367,0,0,1,4,7,5,3,nan,nan,nan,nan,nan,nan,nan,nan,nan,nan,nan,nan,0.0,nan,nan,nan,nan,nan,nan,nan,nan,nan,nan,nan,nan,nan,nan,nan,nan,nan,nan,96.10582203662489,236.7813878885936,nan,237.142518204113,nan,nan,nan,nan
1,98,1,1,1.0,1.0,0.2806088629877195,0,7,3,0,4,6,2,nan,nan,nan,nan,nan,nan,nan,nan,nan,nan,nan,nan,0.0,nan,nan,nan,nan,nan,nan,nan,nan,nan,nan,nan,nan,nan,nan,nan,nan,nan,nan,96.10582203662489,237.7898877490661,nan,238.07049661205383,nan,nan,nan,nan
1,99,1,1,1.0,1.0,0.2801492877770215,0,8,5,3,6,1,0,nan,nan,nan,nan,nan,nan,nan,nan,nan,nan,nan,nan,0.0,nan,nan,nan,nan,nan,nan,nan,nan,nan,nan,nan,nan,nan,nan,nan,nan,nan,nan,96.10582203662489,238.79833486670395,nan,239.07848415448098,nan,nan,nan,nan
1,100,1,1,1.0,1.0,0.2556424117065035,0,5,3,4,1,8,2,nan,nan,nan,nan,nan,nan,nan,nan,nan,nan,nan,nan,0.0,nan,nan,nan,nan,nan,nan,nan,nan,nan,nan,nan,nan,nan,nan,nan,nan,nan,nan,96.10582203662489,239.80681477038888,nan,240.0624571820954,nan,nan,nan,nan
1,101,1,1,1.0,1.0,0.23915415356168523,0,2,0,3,7,5,6,nan,nan,nan,nan,nan,nan,nan,nan,nan,nan,nan,nan,0.0,nan,nan,nan,nan,nan,nan,nan,nan,nan,nan,nan,nan,nan,nan,nan,nan,nan,nan,96.10582203662489,240.81527899380308,nan,241.05443314736476,nan,nan,nan,nan
1,102,1,1,1.0,1.0,0.23858424607897177,0,0,6,1,3,8,4,nan,nan,nan,nan,nan,nan,nan,nan,nan,nan,nan,nan,0.0,nan,nan,nan,nan,nan,nan,nan,nan,nan,nan,nan,nan,nan,nan,nan,nan,nan,nan,96.10582203662489,241.82380365760764,nan,242.0623879036866,nan,nan,nan,nan
1,103,0,0,1.0,0.0,0.24620943114859983,0,7,3,4,1,5,6,nan,nan,nan,nan,nan,nan,nan,nan,nan,nan,nan,nan,0.0,nan,nan,nan,nan,nan,nan,nan,nan,nan,nan,nan,nan,nan,nan,nan,nan,nan,nan,96.10582203662489,242.8321852030931,nan,243.0783946342417,nan,nan,nan,nan
1,104,1,1,1.0,1.0,0.6936994007555768,0,3,2,0,5,6,8,nan,nan,nan,nan,nan,nan,nan,nan,nan,nan,nan,nan,0.0,nan,nan,nan,nan,nan,nan,nan,nan,nan,nan,nan,nan,nan,nan,nan,nan,nan,nan,96.10582203662489,243.8406619707821,nan,244.53436137153767,nan,nan,nan,nan
1,105,1,1,1.0,1.0,0.44525709556182846,0,4,7,6,2,3,5,nan,nan,nan,nan,nan,nan,nan,nan,nan,nan,nan,nan,0.0,nan,nan,nan,nan,nan,nan,nan,nan,nan,nan,nan,nan,nan,nan,nan,nan,nan,nan,96.10582203662489,244.84909312298987,nan,245.2943502185517,nan,nan,nan,nan
1,106,1,1,1.0,1.0,0.37271805375348777,0,7,2,5,4,0,1,nan,nan,nan,nan,nan,nan,nan,nan,nan,nan,nan,nan,0.0,nan,nan,nan,nan,nan,nan,nan,nan,nan,nan,nan,nan,nan,nan,nan,nan,nan,nan,96.10582203662489,245.85759241326014,nan,246.23031046701362,nan,nan,nan,nan
1,107,1,1,1.0,1.0,0.2762477452051826,0,0,8,7,2,1,3,nan,nan,nan,nan,nan,nan,nan,nan,nan,nan,nan,nan,0.0,nan,nan,nan,nan,nan,nan,nan,nan,nan,nan,nan,nan,nan,nan,nan,nan,nan,nan,96.10582203662489,246.86604665830964,nan,247.14229440351482,nan,nan,nan,nan
1,108,1,1,1.0,1.0,0.28375803650124,0,2,0,1,3,8,7,nan,nan,nan,nan,nan,nan,nan,nan,nan,nan,nan,nan,0.0,nan,nan,nan,nan,nan,nan,nan,nan,nan,nan,nan,nan,nan,nan,nan,nan,nan,nan,96.10582203662489,247.87455136538483,nan,248.15830940188607,nan,nan,nan,nan
1,109,1,1,1.0,1.0,0.2592628493439406,0,6,4,8,1,5,2,nan,nan,nan,nan,nan,nan,nan,nan,nan,nan,nan,nan,0.0,nan,nan,nan,nan,nan,nan,nan,nan,nan,nan,nan,nan,nan,nan,nan,nan,nan,nan,96.10582203662489,248.8829910705099,nan,249.14225391985383,nan,nan,nan,nan
1,110,1,1,1.0,1.0,0.2907930722576566,0,4,7,0,6,3,8,nan,nan,nan,nan,nan,nan,nan,nan,nan,nan,nan,nan,0.0,nan,nan,nan,nan,nan,nan,nan,nan,nan,nan,nan,nan,nan,nan,nan,nan,nan,nan,96.10582203662489,249.89143476699246,nan,250.18222783925012,nan,nan,nan,nan
1,111,1,1,1.0,1.0,0.2343326053232886,0,5,0,2,8,7,1,nan,nan,nan,nan,nan,nan,nan,nan,nan,nan,nan,nan,0.0,nan,nan,nan,nan,nan,nan,nan,nan,nan,nan,nan,nan,nan,nan,nan,nan,nan,nan,96.10582203662489,250.89989414374577,nan,251.13422674906906,nan,nan,nan,nan
1,112,1,1,1.0,1.0,0.3138399703311734,0,0,1,3,2,4,5,nan,nan,nan,nan,nan,nan,nan,nan,nan,nan,nan,nan,0.0,nan,nan,nan,nan,nan,nan,nan,nan,nan,nan,nan,nan,nan,nan,nan,nan,nan,nan,96.10582203662489,251.90835922246333,nan,252.2221991927945,nan,nan,nan,nan
1,113,1,1,1.0,1.0,0.2653433827799745,0,8,6,1,4,7,2,nan,nan,nan,nan,nan,nan,nan,nan,nan,nan,nan,nan,0.0,nan,nan,nan,nan,nan,nan,nan,nan,nan,nan,nan,nan,nan,nan,nan,nan,nan,nan,96.10582203662489,252.91682629683055,nan,253.18216967961052,nan,nan,nan,nan
1,114,1,1,1.0,1.0,0.25687032140558586,0,4,2,7,3,6,0,nan,nan,nan,nan,nan,nan,nan,nan,nan,nan,nan,nan,0.0,nan,nan,nan,nan,nan,nan,nan,nan,nan,nan,nan,nan,nan,nan,nan,nan,nan,nan,96.10582203662489,253.92529964330606,nan,254.18216996471165,nan,nan,nan,nan
1,115,1,1,1.0,1.0,0.24036210647318512,0,7,8,5,6,4,3,nan,nan,nan,nan,nan,nan,nan,nan,nan,nan,nan,nan,0.0,nan,nan,nan,nan,nan,nan,nan,nan,nan,nan,nan,nan,nan,nan,nan,nan,nan,nan,96.10582203662489,254.93375075230142,nan,255.1741128587746,nan,nan,nan,nan
1,116,1,1,1.0,1.0,0.3198765989509411,0,4,1,3,8,0,2,nan,nan,nan,nan,nan,nan,nan,nan,nan,nan,nan,nan,0.0,nan,nan,nan,nan,nan,nan,nan,nan,nan,nan,nan,nan,nan,nan,nan,nan,nan,nan,96.10582203662489,255.94221326510888,nan,256.2620898640598,nan,nan,nan,nan
1,117,1,1,1.0,1.0,0.27140738058369607,0,7,0,4,6,3,8,nan,nan,nan,nan,nan,nan,nan,nan,nan,nan,nan,nan,0.0,nan,nan,nan,nan,nan,nan,nan,nan,nan,nan,nan,nan,nan,nan,nan,nan,nan,nan,96.10582203662489,256.9506729270215,nan,257.2220803076052,nan,nan,nan,nan
1,118,1,1,1.0,1.0,0.2869114864151925,0,8,3,2,5,0,1,nan,nan,nan,nan,nan,nan,nan,nan,nan,nan,nan,nan,0.0,nan,nan,nan,nan,nan,nan,nan,nan,nan,nan,nan,nan,nan,nan,nan,nan,nan,nan,96.10582203662489,257.95914000138873,nan,258.2460514878039,nan,nan,nan,nan
1,119,0,0,0.0,1.0,0.5744077053386718,0,1,6,7,3,8,0,nan,nan,nan,nan,nan,nan,nan,nan,nan,nan,nan,nan,0.0,nan,nan,nan,nan,nan,nan,nan,nan,nan,nan,nan,nan,nan,nan,nan,nan,nan,nan,96.10582203662489,258.96760080364766,nan,259.5420085089863,nan,nan,nan,nan
1,120,1,1,1.0,1.0,0.5018763612024486,0,2,7,1,6,4,3,nan,nan,nan,nan,nan,nan,nan,nan,nan,nan,nan,nan,0.0,nan,nan,nan,nan,nan,nan,nan,nan,nan,nan,nan,nan,nan,nan,nan,nan,nan,nan,96.10582203662489,259.97611719963606,nan,260.4779935608385,nan,nan,nan,nan
1,121,1,1,1.0,1.0,0.5414748087641783,0,5,4,7,0,2,8,nan,nan,nan,nan,nan,nan,nan,nan,nan,nan,nan,nan,0.0,nan,nan,nan,nan,nan,nan,nan,nan,nan,nan,nan,nan,nan,nan,nan,nan,nan,nan,96.10582203662489,260.98449646437075,nan,261.5259712731349,nan,nan,nan,nan
1,122,0,0,0.0,1.0,0.3969455354963429,0,1,5,0,4,6,7,nan,nan,nan,nan,nan,nan,nan,nan,nan,nan,nan,nan,0.0,nan,nan,nan,nan,nan,nan,nan,nan,nan,nan,nan,nan,nan,nan,nan,nan,nan,nan,96.10582203662489,261.9929954695399,nan,262.38994100503623,nan,nan,nan,nan
1,123,1,1,1.0,1.0,0.30043616879265755,0,7,3,8,5,0,4,nan,nan,nan,nan,nan,nan,nan,nan,nan,nan,nan,nan,0.0,nan,nan,nan,nan,nan,nan,nan,nan,nan,nan,nan,nan,nan,nan,nan,nan,nan,nan,96.10582203662489,263.001483641041,nan,263.30191980983363,nan,nan,nan,nan
1,124,1,1,1.0,1.0,0.34797226695809513,0,2,0,5,6,8,3,nan,nan,nan,nan,nan,nan,nan,nan,nan,nan,nan,nan,0.0,nan,nan,nan,nan,nan,nan,nan,nan,nan,nan,nan,nan,nan,nan,nan,nan,nan,nan,96.10582203662489,264.00991963990964,nan,264.35789190686774,nan,nan,nan,nan
1,125,1,1,1.0,1.0,0.4914960056776181,0,6,3,0,7,4,8,nan,nan,nan,nan,nan,nan,nan,nan,nan,nan,nan,nan,0.0,nan,nan,nan,nan,nan,nan,nan,nan,nan,nan,nan,nan,nan,nan,nan,nan,nan,nan,96.10582203662489,265.01837759121554,nan,265.50987359689316,nan,nan,nan,nan
1,126,1,1,1.0,1.0,0.5230359218548983,0,1,4,2,0,8,5,nan,nan,nan,nan,nan,nan,nan,nan,nan,nan,nan,nan,0.0,nan,nan,nan,nan,nan,nan,nan,nan,nan,nan,nan,nan,nan,nan,nan,nan,nan,nan,96.10582203662489,266.02683953382075,nan,266.54987545567565,nan,nan,nan,nan
1,127,0,0,0.0,1.0,0.4025342778186314,0,3,1,0,6,7,4,nan,nan,nan,nan,nan,nan,nan,nan,nan,nan,nan,nan,0.0,nan,nan,nan,nan,nan,nan,nan,nan,nan,nan,nan,nan,nan,nan,nan,nan,nan,nan,96.10582203662489,267.0352991957334,nan,267.437833473552,nan,nan,nan,nan
1,128,1,1,1.0,1.0,0.5140408491715789,0,6,3,7,0,5,2,nan,nan,nan,nan,nan,nan,nan,nan,nan,nan,nan,nan,0.0,nan,nan,nan,nan,nan,nan,nan,nan,nan,nan,nan,nan,nan,nan,nan,nan,nan,nan,96.10582203662489,268.04376170854084,nan,268.5578025577124,nan,nan,nan,nan
1,129,1,1,1.0,1.0,0.5775634360616095,0,3,1,5,6,7,4,nan,nan,nan,nan,nan,nan,nan,nan,nan,nan,nan,nan,0.0,nan,nan,nan,nan,nan,nan,nan,nan,nan,nan,nan,nan,nan,nan,nan,nan,nan,nan,96.10582203662489,269.05221794924,nan,269.6297813853016,nan,nan,nan,nan
1,130,0,0,0.0,1.0,0.4890977757750079,0,5,7,3,1,6,8,nan,nan,nan,nan,nan,nan,nan,nan,nan,nan,nan,nan,0.0,nan,nan,nan,nan,nan,nan,nan,nan,nan,nan,nan,nan,nan,nan,nan,nan,nan,nan,96.10582203662489,270.0606798919034,nan,270.5497776676784,nan,nan,nan,nan
1,131,1,1,1.0,1.0,0.456609629385639,0,8,2,5,3,7,1,nan,nan,nan,nan,nan,nan,nan,nan,nan,nan,nan,nan,0.0,nan,nan,nan,nan,nan,nan,nan,nan,nan,nan,nan,nan,nan,nan,nan,nan,nan,nan,96.10582203662489,271.06914696627064,nan,271.5257565956563,nan,nan,nan,nan
1,132,1,1,1.0,1.0,0.2961195260286331,0,2,6,3,5,4,0,nan,nan,nan,nan,nan,nan,nan,nan,nan,nan,nan,nan,0.0,nan,nan,nan,nan,nan,nan,nan,nan,nan,nan,nan,nan,nan,nan,nan,nan,nan,nan,96.10582203662489,272.0776057728799,nan,272.37372529890854,nan,nan,nan,nan
1,133,1,1,1.0,1.0,0.6636003612075001,0,4,8,7,2,1,3,nan,nan,nan,nan,nan,nan,nan,nan,nan,nan,nan,nan,0.0,nan,nan,nan,nan,nan,nan,nan,nan,nan,nan,nan,nan,nan,nan,nan,nan,nan,nan,96.10582203662489,273.08607427269453,nan,273.74967463390203,nan,nan,nan,nan
1,134,1,1,1.0,1.0,0.5271261981106363,0,5,1,4,6,8,2,nan,nan,nan,nan,nan,nan,nan,nan,nan,nan,nan,nan,0.0,nan,nan,nan,nan,nan,nan,nan,nan,nan,nan,nan,nan,nan,nan,nan,nan,nan,nan,96.10582203662489,274.0945370706613,nan,274.62166326877195,nan,nan,nan,nan
1,135,1,1,1.0,1.0,0.4466660413891077,0,8,2,0,1,6,4,nan,nan,nan,nan,nan,nan,nan,nan,nan,nan,nan,nan,0.0,nan,nan,nan,nan,nan,nan,nan,nan,nan,nan,nan,nan,nan,nan,nan,nan,nan,nan,96.10582203662489,275.102995021909,nan,275.5496610632981,nan,nan,nan,nan
1,136,1,1,1.0,1.0,0.374158360180445,0,7,1,4,2,0,3,nan,nan,nan,nan,nan,nan,nan,nan,nan,nan,nan,nan,0.0,nan,nan,nan,nan,nan,nan,nan,nan,nan,nan,nan,nan,nan,nan,nan,nan,nan,nan,96.10582203662489,276.11146637273487,nan,276.4856247329153,nan,nan,nan,nan
1,137,1,1,1.0,1.0,0.2536658392637037,0,0,3,5,6,7,2,nan,nan,nan,nan,nan,nan,nan,nan,nan,nan,nan,nan,0.0,nan,nan,nan,nan,nan,nan,nan,nan,nan,nan,nan,nan,nan,nan,nan,nan,nan,nan,96.10582203662489,277.1199337322032,nan,277.3735995714669,nan,nan,nan,nan
1,138,1,1,1.0,1.0,0.2931818939978257,0,7,6,1,0,8,3,nan,nan,nan,nan,nan,nan,nan,nan,nan,nan,nan,nan,0.0,nan,nan,nan,nan,nan,nan,nan,nan,nan,nan,nan,nan,nan,nan,nan,nan,nan,nan,96.10582203662489,278.12838569650194,nan,278.42156759049976,nan,nan,nan,nan
1,139,1,1,1.0,1.0,0.3247058448032476,0,0,1,3,6,2,4,nan,nan,nan,nan,nan,nan,nan,nan,nan,nan,nan,nan,0.0,nan,nan,nan,nan,nan,nan,nan,nan,nan,nan,nan,nan,nan,nan,nan,nan,nan,nan,96.10582203662489,279.1368422223022,nan,279.46154806710547,nan,nan,nan,nan
1,140,1,1,1.0,1.0,0.35619415855035186,0,2,7,6,1,4,3,nan,nan,nan,nan,nan,nan,nan,nan,nan,nan,nan,nan,0.0,nan,nan,nan,nan,nan,nan,nan,nan,nan,nan,nan,nan,nan,nan,nan,nan,nan,nan,96.10582203662489,280.1453252620413,nan,280.50151942059165,nan,nan,nan,nan
1,141,1,1,1.0,1.0,0.2677421828266233,0,0,2,8,5,1,7,nan,nan,nan,nan,nan,nan,nan,nan,nan,nan,nan,nan,0.0,nan,nan,nan,nan,nan,nan,nan,nan,nan,nan,nan,nan,nan,nan,nan,nan,nan,nan,96.10582203662489,281.1537652523257,nan,281.4215074351523,nan,nan,nan,nan
1,142,1,1,1.0,1.0,0.17126275127520785,0,2,6,1,4,0,8,nan,nan,nan,nan,nan,nan,nan,nan,nan,nan,nan,nan,0.0,nan,nan,nan,nan,nan,nan,nan,nan,nan,nan,nan,nan,nan,nan,nan,nan,nan,nan,96.10582203662489,282.16222690982977,nan,282.333489661105,nan,nan,nan,nan
1,143,1,1,1.0,1.0,0.2507655547815375,1,7,1,3,0,2,5,1.0,1.0,1.0,1.0,1.0,1.0,0.0,1.0,1.0,0.0,0.0,0.0,2.0,2.0,1.0,3.0,8.0,5.0,7.0,3.0,2.0,1.0,6.0,5.0,4.0,3.43782520579407,2.4929722342058085,1.3647695695399307,5.787528292275965,4.916035154659767,4.165219565504231,96.10582203662489,283.1706888524932,283.97912182932487,283.4214544072747,290.82160699076485,291.82145902584307,284.9958886265522,290.8133081232081
1,144,1,1,nan,nan,nan,1,4,0,2,3,8,6,1.0,1.0,1.0,1.0,1.0,1.0,0.0,0.0,0.0,0.0,0.0,0.0,0.0,5.0,5.0,5.0,5.0,5.0,5.0,3.0,2.0,1.0,6.0,5.0,4.0,3.442078272055369,2.721647674043197,2.162121709319763,5.943778158572968,4.792897510458715,4.0335757887223735,96.10582203662489,292.03020623582415,292.83859530783957,nan,299.8394645663793,300.8387908838922,293.8553760747891,299.83114374638535
1,145,1,1,1.0,1.0,0.36508260521804914,0,5,4,0,1,3,2,nan,nan,nan,nan,nan,nan,nan,nan,nan,nan,nan,nan,0.0,nan,nan,nan,nan,nan,nan,nan,nan,nan,nan,nan,nan,nan,nan,nan,nan,nan,nan,96.10582203662489,301.0479797080043,nan,301.4130623132223,nan,nan,nan,nan
1,146,1,1,nan,nan,nan,0,0,3,4,8,1,5,nan,nan,nan,nan,nan,nan,nan,nan,nan,nan,nan,nan,0.0,nan,nan,nan,nan,nan,nan,nan,nan,nan,nan,nan,nan,nan,nan,nan,nan,nan,nan,96.10582203662489,302.05644393141847,nan,nan,nan,nan,nan,nan
1,147,1,1,1.0,1.0,0.5321119618602097,0,8,6,0,1,3,4,nan,nan,nan,nan,nan,nan,nan,nan,nan,nan,nan,nan,0.0,nan,nan,nan,nan,nan,nan,nan,nan,nan,nan,nan,nan,nan,nan,nan,nan,nan,nan,96.10582203662489,303.06490416347515,nan,303.59701612533536,nan,nan,nan,nan
1,148,1,1,1.0,1.0,0.4275859729386866,0,4,5,8,3,0,6,nan,nan,nan,nan,nan,nan,nan,nan,nan,nan,nan,nan,0.0,nan,nan,nan,nan,nan,nan,nan,nan,nan,nan,nan,nan,nan,nan,nan,nan,nan,nan,96.10582203662489,304.07338492246345,nan,304.50097089540213,nan,nan,nan,nan
1,149,1,1,1.0,1.0,0.339116606337484,0,3,6,0,1,2,8,nan,nan,nan,nan,nan,nan,nan,nan,nan,nan,nan,nan,0.0,nan,nan,nan,nan,nan,nan,nan,nan,nan,nan,nan,nan,nan,nan,nan,nan,nan,nan,96.10582203662489,305.0818571285927,nan,305.42097373493016,nan,nan,nan,nan
1,150,1,1,1.0,1.0,0.250647239794489,0,5,3,2,7,4,6,nan,nan,nan,nan,nan,nan,nan,nan,nan,nan,nan,nan,0.0,nan,nan,nan,nan,nan,nan,nan,nan,nan,nan,nan,nan,nan,nan,nan,nan,nan,nan,96.10582203662489,306.0902902765083,nan,306.3409375163028,nan,nan,nan,nan
1,151,1,1,1.0,1.0,0.2742278380901553,0,3,5,6,4,7,2,nan,nan,nan,nan,nan,nan,nan,nan,nan,nan,nan,nan,0.0,nan,nan,nan,nan,nan,nan,nan,nan,nan,nan,nan,nan,nan,nan,nan,nan,nan,nan,96.10582203662489,307.0987214287161,nan,307.37294926680624,nan,nan,nan,nan
1,152,1,1,1.0,1.0,0.31366891256766394,0,0,4,7,8,6,1,nan,nan,nan,nan,nan,nan,nan,nan,nan,nan,nan,nan,0.0,nan,nan,nan,nan,nan,nan,nan,nan,nan,nan,nan,nan,nan,nan,nan,nan,nan,nan,96.10582203662489,308.1072190083796,nan,308.4208879209473,nan,nan,nan,nan
1,153,1,1,1.0,1.0,0.2251978354761377,0,6,8,1,4,7,2,nan,nan,nan,nan,nan,nan,nan,nan,nan,nan,nan,nan,0.0,nan,nan,nan,nan,nan,nan,nan,nan,nan,nan,nan,nan,nan,nan,nan,nan,nan,nan,96.10582203662489,309.1156555774505,nan,309.34085341292666,nan,nan,nan,nan
1,154,1,1,1.0,1.0,0.2486983216367662,0,7,2,3,5,0,6,nan,nan,nan,nan,nan,nan,nan,nan,nan,nan,nan,nan,0.0,nan,nan,nan,nan,nan,nan,nan,nan,nan,nan,nan,nan,nan,nan,nan,nan,nan,nan,96.10582203662489,310.1241394725512,nan,310.37283779418794,nan,nan,nan,nan
1,155,1,1,1.0,1.0,0.2882069639163092,0,3,1,8,2,5,7,nan,nan,nan,nan,nan,nan,nan,nan,nan,nan,nan,nan,0.0,nan,nan,nan,nan,nan,nan,nan,nan,nan,nan,nan,nan,nan,nan,nan,nan,nan,nan,96.10582203662489,311.13260455121053,nan,311.42081151512684,nan,nan,nan,nan
1,156,1,1,1.0,1.0,0.15969496977049857,0,5,0,4,6,1,3,nan,nan,nan,nan,nan,nan,nan,nan,nan,nan,nan,nan,0.0,nan,nan,nan,nan,nan,nan,nan,nan,nan,nan,nan,nan,nan,nan,nan,nan,nan,nan,96.10582203662489,312.1410873059067,nan,312.3007822756772,nan,nan,nan,nan
1,157,1,1,nan,nan,nan,0,2,6,0,5,7,8,nan,nan,nan,nan,nan,nan,nan,nan,nan,nan,nan,nan,0.0,nan,nan,nan,nan,nan,nan,nan,nan,nan,nan,nan,nan,nan,nan,nan,nan,nan,nan,96.10582203662489,313.1495073394035,nan,nan,nan,nan,nan,nan
1,158,0,0,0.0,1.0,0.3507724825758487,0,0,5,2,8,6,3,nan,nan,nan,nan,nan,nan,nan,nan,nan,nan,nan,nan,0.0,nan,nan,nan,nan,nan,nan,nan,nan,nan,nan,nan,nan,nan,nan,nan,nan,nan,nan,96.10582203662489,314.1579920897493,nan,314.50876457232516,nan,nan,nan,nan
1,159,1,1,1.0,1.0,0.3582579704816453,0,7,0,5,6,3,2,nan,nan,nan,nan,nan,nan,nan,nan,nan,nan,nan,nan,0.0,nan,nan,nan,nan,nan,nan,nan,nan,nan,nan,nan,nan,nan,nan,nan,nan,nan,nan,96.10582203662489,315.1664548876579,nan,315.52471285813954,nan,nan,nan,nan
1,160,1,1,1.0,1.0,0.47776890493696555,0,2,8,0,4,1,5,nan,nan,nan,nan,nan,nan,nan,nan,nan,nan,nan,nan,0.0,nan,nan,nan,nan,nan,nan,nan,nan,nan,nan,nan,nan,nan,nan,nan,nan,nan,nan,96.10582203662489,316.17491740046535,nan,316.6526863054023,nan,nan,nan,nan
1,161,0,0,0.0,1.0,0.46932178729912266,0,0,1,8,5,6,2,nan,nan,nan,nan,nan,nan,nan,nan,nan,nan,nan,nan,0.0,nan,nan,nan,nan,nan,nan,nan,nan,nan,nan,nan,nan,nan,nan,nan,nan,nan,nan,96.10582203662489,317.183374781569,nan,317.6526965688681,nan,nan,nan,nan
1,162,1,1,1.0,1.0,0.3248064837534912,0,2,4,6,7,5,8,nan,nan,nan,nan,nan,nan,nan,nan,nan,nan,nan,nan,0.0,nan,nan,nan,nan,nan,nan,nan,nan,nan,nan,nan,nan,nan,nan,nan,nan,nan,nan,96.10582203662489,318.1918392900843,nan,318.5166457738378,nan,nan,nan,nan
1,163,1,1,1.0,1.0,0.26830809901002795,0,3,6,0,2,4,1,nan,nan,nan,nan,nan,nan,nan,nan,nan,nan,nan,nan,0.0,nan,nan,nan,nan,nan,nan,nan,nan,nan,nan,nan,nan,nan,nan,nan,nan,nan,nan,96.10582203662489,319.20031292166095,nan,319.468621020671,nan,nan,nan,nan
1,164,1,1,1.0,1.0,0.25982962077250704,0,0,4,7,8,3,5,nan,nan,nan,nan,nan,nan,nan,nan,nan,nan,nan,nan,0.0,nan,nan,nan,nan,nan,nan,nan,nan,nan,nan,nan,nan,nan,nan,nan,nan,nan,nan,96.10582203662489,320.2087762897718,nan,320.4686059105443,nan,nan,nan,nan
1,165,1,1,1.0,1.0,0.20335746480850503,0,4,1,5,7,0,2,nan,nan,nan,nan,nan,nan,nan,nan,nan,nan,nan,nan,0.0,nan,nan,nan,nan,nan,nan,nan,nan,nan,nan,nan,nan,nan,nan,nan,nan,nan,nan,96.10582203662489,321.21722483291524,nan,321.42058229772374,nan,nan,nan,nan
1,166,1,1,1.0,1.0,0.24288150225766003,0,7,8,6,2,1,4,nan,nan,nan,nan,nan,nan,nan,nan,nan,nan,nan,nan,0.0,nan,nan,nan,nan,nan,nan,nan,nan,nan,nan,nan,nan,nan,nan,nan,nan,nan,nan,96.10582203662489,322.2256896265317,nan,322.46857112878934,nan,nan,nan,nan
1,167,1,1,1.0,1.0,0.27439091313863173,0,0,3,1,4,8,6,nan,nan,nan,nan,nan,nan,nan,nan,nan,nan,nan,nan,0.0,nan,nan,nan,nan,nan,nan,nan,nan,nan,nan,nan,nan,nan,nan,nan,nan,nan,nan,96.10582203662489,323.23415727110114,nan,323.50854818423977,nan,nan,nan,nan
1,168,1,1,1.0,1.0,0.2899101290968247,0,2,8,0,7,4,5,nan,nan,nan,nan,nan,nan,nan,nan,nan,nan,nan,nan,0.0,nan,nan,nan,nan,nan,nan,nan,nan,nan,nan,nan,nan,nan,nan,nan,nan,nan,nan,96.10582203662489,324.2426137969014,nan,324.53252392599825,nan,nan,nan,nan
1,169,1,1,1.0,1.0,0.28941092552850023,0,0,7,6,8,5,3,nan,nan,nan,nan,nan,nan,nan,nan,nan,nan,nan,nan,0.0,nan,nan,nan,nan,nan,nan,nan,nan,nan,nan,nan,nan,nan,nan,nan,nan,nan,nan,96.10582203662489,325.25109084963333,nan,325.54050177516183,nan,nan,nan,nan
1,170,1,1,1.0,1.0,0.37694375083083287,0,3,8,1,4,2,0,nan,nan,nan,nan,nan,nan,nan,nan,nan,nan,nan,nan,0.0,nan,nan,nan,nan,nan,nan,nan,nan,nan,nan,nan,nan,nan,nan,nan,nan,nan,nan,96.10582203662489,326.2595536475419,nan,326.63649739837274,nan,nan,nan,nan
1,171,1,1,1.0,1.0,0.3124333053128794,0,4,5,7,2,6,8,nan,nan,nan,nan,nan,nan,nan,nan,nan,nan,nan,nan,0.0,nan,nan,nan,nan,nan,nan,nan,nan,nan,nan,nan,nan,nan,nan,nan,nan,nan,nan,96.10582203662489,327.2680016204831,nan,327.580434925796,nan,nan,nan,nan
1,172,1,1,1.0,1.0,0.2799497204250656,0,8,1,3,6,7,0,nan,nan,nan,nan,nan,nan,nan,nan,nan,nan,nan,nan,0.0,nan,nan,nan,nan,nan,nan,nan,nan,nan,nan,nan,nan,nan,nan,nan,nan,nan,nan,96.10582203662489,328.27645985689014,nan,328.5564095773152,nan,nan,nan,nan
1,173,1,1,1.0,1.0,0.28754354489501566,0,1,6,7,8,3,5,nan,nan,nan,nan,nan,nan,nan,nan,nan,nan,nan,nan,0.0,nan,nan,nan,nan,nan,nan,nan,nan,nan,nan,nan,nan,nan,nan,nan,nan,nan,nan,96.10582203662489,329.2848833115422,nan,329.57242685643723,nan,nan,nan,nan
1,174,1,1,1.0,1.0,0.30298892088467255,0,2,5,3,1,0,4,nan,nan,nan,nan,nan,nan,nan,nan,nan,nan,nan,nan,0.0,nan,nan,nan,nan,nan,nan,nan,nan,nan,nan,nan,nan,nan,nan,nan,nan,nan,nan,96.10582203662489,330.2933826017543,nan,330.59637152263895,nan,nan,nan,nan
1,175,1,1,1.0,1.0,0.2305003411602229,0,5,8,0,3,2,7,nan,nan,nan,nan,nan,nan,nan,nan,nan,nan,nan,nan,0.0,nan,nan,nan,nan,nan,nan,nan,nan,nan,nan,nan,nan,nan,nan,nan,nan,nan,nan,96.10582203662489,331.3018462549662,nan,331.53234659612644,nan,nan,nan,nan
1,176,1,1,1.0,1.0,0.26202087075216696,0,0,4,3,7,5,6,nan,nan,nan,nan,nan,nan,nan,nan,nan,nan,nan,nan,0.0,nan,nan,nan,nan,nan,nan,nan,nan,nan,nan,nan,nan,nan,nan,nan,nan,nan,nan,96.10582203662489,332.3103193163988,nan,332.572340187151,nan,nan,nan,nan
1,177,0,0,1.0,0.0,0.23750772251514718,0,7,0,1,8,2,5,nan,nan,nan,nan,nan,nan,nan,nan,nan,nan,nan,nan,0.0,nan,nan,nan,nan,nan,nan,nan,nan,nan,nan,nan,nan,nan,nan,nan,nan,nan,nan,96.10582203662489,333.3187869609683,nan,333.55629468348343,nan,nan,nan,nan
1,178,1,1,1.0,1.0,0.7810221100226045,0,3,7,6,1,5,2,nan,nan,nan,nan,nan,nan,nan,nan,nan,nan,nan,nan,0.0,nan,nan,nan,nan,nan,nan,nan,nan,nan,nan,nan,nan,nan,nan,nan,nan,nan,nan,96.10582203662489,334.327230942552,nan,335.1082530525746,nan,nan,nan,nan
1,179,1,1,1.0,1.0,0.5805623637861572,1,6,5,2,4,0,1,1.0,1.0,1.0,1.0,1.0,1.0,0.0,0.0,0.0,0.0,0.0,1.0,1.0,1.0,1.0,5.0,3.0,8.0,1.0,5.0,6.0,1.0,2.0,3.0,4.0,5.014805049751885,5.606027733592782,1.382043838093523,2.2940502972342074,3.293596709088888,4.118415309407283,96.10582203662489,335.33570143807447,336.144112177426,335.9162638018606,342.79495162912644,343.7941912773531,337.1525929364143,342.78663907694863
1,180,1,1,1.0,1.0,0.5525798790040426,0,4,0,6,3,5,2,nan,nan,nan,nan,nan,nan,nan,nan,nan,nan,nan,nan,0.0,nan,nan,nan,nan,nan,nan,nan,nan,nan,nan,nan,nan,nan,nan,nan,nan,nan,nan,96.10582203662489,344.0034924293868,nan,344.55607230839087,nan,nan,nan,nan
1,181,1,1,1.0,1.0,0.36013561458094046,0,7,8,5,1,4,3,nan,nan,nan,nan,nan,nan,nan,nan,nan,nan,nan,nan,0.0,nan,nan,nan,nan,nan,nan,nan,nan,nan,nan,nan,nan,nan,nan,nan,nan,nan,nan,96.10582203662489,345.0119195902953,nan,345.37205520487623,nan,nan,nan,nan
1,182,1,1,1.0,1.0,0.23959776340052485,1,3,1,0,5,2,8,1.0,1.0,1.0,1.0,1.0,1.0,1.0,0.0,1.0,0.0,0.0,0.0,2.0,3.0,5.0,0.0,7.0,7.0,6.0,3.0,2.0,1.0,6.0,5.0,4.0,2.410196525393985,1.656957617844455,0.7467985826078802,4.768690840690397,4.0736546235275455,3.376896424801089,96.10582203662489,346.02040377043886,346.8288313304656,346.2600015338394,352.64621775597334,353.64551755948924,347.83729099237826,352.63789551053196
1,183,1,1,1.0,1.0,0.4771357061108574,0,0,5,8,6,3,7,nan,nan,nan,nan,nan,nan,nan,nan,nan,nan,nan,nan,0.0,nan,nan,nan,nan,nan,nan,nan,nan,nan,nan,nan,nan,nan,nan,nan,nan,nan,nan,96.10582203662489,353.8546961201355,nan,354.33183182624634,nan,nan,nan,nan
1,184,0,0,0.0,1.0,0.5406098266248591,0,7,6,2,3,8,5,nan,nan,nan,nan,nan,nan,nan,nan,nan,nan,nan,nan,0.0,nan,nan,nan,nan,nan,nan,nan,nan,nan,nan,nan,nan,nan,nan,nan,nan,nan,nan,96.10582203662489,354.8631919892505,nan,355.40380181587534,nan,nan,nan,nan
1,185,1,1,nan,nan,nan,0,2,5,1,0,3,7,nan,nan,nan,nan,nan,nan,nan,nan,nan,nan,nan,nan,0.0,nan,nan,nan,nan,nan,nan,nan,nan,nan,nan,nan,nan,nan,nan,nan,nan,nan,nan,96.10582203662489,355.8716550722602,nan,nan,nan,nan,nan,nan
1,186,1,1,1.0,1.0,0.35563651024131104,0,3,2,0,7,4,1,nan,nan,nan,nan,nan,nan,nan,nan,nan,nan,nan,nan,0.0,nan,nan,nan,nan,nan,nan,nan,nan,nan,nan,nan,nan,nan,nan,nan,nan,nan,nan,96.10582203662489,356.88013298029546,nan,357.23576949053677,nan,nan,nan,nan
1,187,1,1,1.0,1.0,0.4831213024444878,0,0,7,5,4,1,6,nan,nan,nan,nan,nan,nan,nan,nan,nan,nan,nan,nan,0.0,nan,nan,nan,nan,nan,nan,nan,nan,nan,nan,nan,nan,nan,nan,nan,nan,nan,nan,96.10582203662489,357.88859948451864,nan,358.3717207869631,nan,nan,nan,nan
1,188,1,1,1.0,1.0,0.2746740137808956,0,5,3,4,1,2,7,nan,nan,nan,nan,nan,nan,nan,nan,nan,nan,nan,nan,0.0,nan,nan,nan,nan,nan,nan,nan,nan,nan,nan,nan,nan,nan,nan,nan,nan,nan,nan,96.10582203662489,358.8970528742648,nan,359.17172688804567,nan,nan,nan,nan
1,189,1,1,1.0,1.0,0.2502178848371841,0,8,7,6,5,1,2,nan,nan,nan,nan,nan,nan,nan,nan,nan,nan,nan,nan,0.0,nan,nan,nan,nan,nan,nan,nan,nan,nan,nan,nan,nan,nan,nan,nan,nan,nan,nan,96.10582203662489,359.90549514524173,nan,360.1557130300789,nan,nan,nan,nan
1,190,1,1,1.0,1.0,0.16170831973431632,0,4,5,8,2,0,3,nan,nan,nan,nan,nan,nan,nan,nan,nan,nan,nan,nan,0.0,nan,nan,nan,nan,nan,nan,nan,nan,nan,nan,nan,nan,nan,nan,nan,nan,nan,nan,96.10582203662489,360.91396507056197,nan,361.0756733902963,nan,nan,nan,nan
1,191,1,1,1.0,1.0,0.27321916742948815,0,3,0,6,8,5,2,nan,nan,nan,nan,nan,nan,nan,nan,nan,nan,nan,nan,0.0,nan,nan,nan,nan,nan,nan,nan,nan,nan,nan,nan,nan,nan,nan,nan,nan,nan,nan,96.10582203662489,361.9224210262182,nan,362.1956401936477,nan,nan,nan,nan
1,192,1,1,1.0,1.0,0.3047186000039801,0,4,5,1,0,3,8,nan,nan,nan,nan,nan,nan,nan,nan,nan,nan,nan,nan,0.0,nan,nan,nan,nan,nan,nan,nan,nan,nan,nan,nan,nan,nan,nan,nan,nan,nan,nan,96.10582203662489,362.9308929471881,nan,363.2356115471921,nan,nan,nan,nan
1,193,1,1,1.0,1.0,0.5442265580059029,0,7,4,0,2,8,6,nan,nan,nan,nan,nan,nan,nan,nan,nan,nan,nan,nan,0.0,nan,nan,nan,nan,nan,nan,nan,nan,nan,nan,nan,nan,nan,nan,nan,nan,nan,nan,96.10582203662489,363.93936173216207,nan,364.483588290168,nan,nan,nan,nan
1,194,1,1,1.0,1.0,0.5277357340091839,0,2,5,6,3,0,1,nan,nan,nan,nan,nan,nan,nan,nan,nan,nan,nan,nan,0.0,nan,nan,nan,nan,nan,nan,nan,nan,nan,nan,nan,nan,nan,nan,nan,nan,nan,nan,96.10582203662489,364.94783194258343,nan,365.4755676765926,nan,nan,nan,nan
1,195,1,1,1.0,1.0,0.3272700007073581,0,4,0,7,1,3,6,nan,nan,nan,nan,nan,nan,nan,nan,nan,nan,nan,nan,0.0,nan,nan,nan,nan,nan,nan,nan,nan,nan,nan,nan,nan,nan,nan,nan,nan,nan,nan,96.10582203662489,365.9562790602213,nan,366.28354906092864,nan,nan,nan,nan
1,196,1,1,1.0,1.0,0.3027716774959117,0,0,1,2,5,4,8,nan,nan,nan,nan,nan,nan,nan,nan,nan,nan,nan,nan,0.0,nan,nan,nan,nan,nan,nan,nan,nan,nan,nan,nan,nan,nan,nan,nan,nan,nan,nan,96.10582203662489,366.9647464196896,nan,367.26751809718553,nan,nan,nan,nan
1,197,1,1,1.0,1.0,0.3183000165154226,0,2,3,0,4,6,7,nan,nan,nan,nan,nan,nan,nan,nan,nan,nan,nan,nan,0.0,nan,nan,nan,nan,nan,nan,nan,nan,nan,nan,nan,nan,nan,nan,nan,nan,nan,nan,96.10582203662489,367.97319952433463,nan,368.29149954085005,nan,nan,nan,nan
1,198,1,1,1.0,1.0,0.24581457284511998,0,7,5,3,1,8,2,nan,nan,nan,nan,nan,nan,nan,nan,nan,nan,nan,nan,0.0,nan,nan,nan,nan,nan,nan,nan,nan,nan,nan,nan,nan,nan,nan,nan,nan,nan,nan,96.10582203662489,368.98166032659356,nan,369.2274748994387,nan,nan,nan,nan
1,199,0,0,1.0,0.0,0.26131810841616243,0,8,2,6,4,5,3,nan,nan,nan,nan,nan,nan,nan,nan,nan,nan,nan,nan,0.0,nan,nan,nan,nan,nan,nan,nan,nan,nan,nan,nan,nan,nan,nan,nan,nan,nan,nan,96.10582203662489,369.99012455000775,nan,370.2514426584239,nan,nan,nan,nan
1,200,1,1,1.0,1.0,0.42081921274075285,0,6,7,0,5,2,8,nan,nan,nan,nan,nan,nan,nan,nan,nan,nan,nan,nan,0.0,nan,nan,nan,nan,nan,nan,nan,nan,nan,nan,nan,nan,nan,nan,nan,nan,nan,nan,96.10582203662489,370.9985790801584,nan,371.41939829289913,nan,nan,nan,nan
1,201,1,1,1.0,1.0,0.26033766235923395,0,7,5,8,3,1,2,nan,nan,nan,nan,nan,nan,nan,nan,nan,nan,nan,nan,0.0,nan,nan,nan,nan,nan,nan,nan,nan,nan,nan,nan,nan,nan,nan,nan,nan,nan,nan,96.10582203662489,372.0070629752008,nan,372.26740063756006,nan,nan,nan,nan
1,202,1,1,1.0,1.0,0.3078592206002213,1,4,7,6,0,8,3,1.0,1.0,1.0,1.0,1.0,1.0,1.0,0.0,1.0,0.0,0.0,0.0,2.0,4.0,0.0,6.0,2.0,5.0,1.0,3.0,2.0,1.0,6.0,5.0,4.0,2.869283926556818,1.9195099081262015,1.0800211085588671,5.533260614785831,4.77388358436292,3.6782163921161555,96.10582203662489,373.0155083822319,373.82392767450074,373.32336760283215,380.4080722730723,381.40745076315943,374.83238990220707,380.3997480319231
1,203,0,0,0.0,1.0,0.5066132358042523,0,8,2,3,4,6,5,nan,nan,nan,nan,nan,nan,nan,nan,nan,nan,nan,nan,0.0,nan,nan,nan,nan,nan,nan,nan,nan,nan,nan,nan,nan,nan,nan,nan,nan,nan,nan,96.10582203662489,381.6165865593939,nan,382.12319979519816,nan,nan,nan,nan
1,204,1,1,1.0,1.0,0.5380986985983327,0,1,3,4,7,0,6,nan,nan,nan,nan,nan,nan,nan,nan,nan,nan,nan,nan,0.0,nan,nan,nan,nan,nan,nan,nan,nan,nan,nan,nan,nan,nan,nan,nan,nan,nan,nan,96.10582203662489,382.62505391886225,nan,383.1631526174606,nan,nan,nan,nan
1,205,1,1,1.0,1.0,0.5775845331372693,0,5,6,0,2,3,4,nan,nan,nan,nan,nan,nan,nan,nan,nan,nan,nan,nan,0.0,nan,nan,nan,nan,nan,nan,nan,nan,nan,nan,nan,nan,nan,nan,nan,nan,nan,nan,96.10582203662489,383.6335315417964,nan,384.21111607493367,nan,nan,nan,nan
1,206,1,1,1.0,1.0,0.4970596595085226,0,4,8,2,3,0,6,nan,nan,nan,nan,nan,nan,nan,nan,nan,nan,nan,nan,0.0,nan,nan,nan,nan,nan,nan,nan,nan,nan,nan,nan,nan,nan,nan,nan,nan,nan,nan,96.10582203662489,384.6420388147235,nan,385.139098474232,nan,nan,nan,nan
1,207,1,1,1.0,1.0,0.42462524806614965,0,6,3,0,1,8,5,nan,nan,nan,nan,nan,nan,nan,nan,nan,nan,nan,nan,0.0,nan,nan,nan,nan,nan,nan,nan,nan,nan,nan,nan,nan,nan,nan,nan,nan,nan,nan,96.10582203662489,385.65045457176166,nan,386.0750798198278,nan,nan,nan,nan
1,208,1,1,1.0,1.0,0.42412861034972593,0,3,1,7,8,5,4,nan,nan,nan,nan,nan,nan,nan,nan,nan,nan,nan,nan,0.0,nan,nan,nan,nan,nan,nan,nan,nan,nan,nan,nan,nan,nan,nan,nan,nan,nan,nan,96.10582203662489,386.6589256374864,nan,387.0830542478361,nan,nan,nan,nan
1,209,1,1,1.0,1.0,0.33566152455750853,0,4,0,1,6,3,2,nan,nan,nan,nan,nan,nan,nan,nan,nan,nan,nan,nan,0.0,nan,nan,nan,nan,nan,nan,nan,nan,nan,nan,nan,nan,nan,nan,nan,nan,nan,nan,96.10582203662489,387.6673827334889,nan,388.00304425804643,nan,nan,nan,nan
1,210,1,1,1.0,1.0,0.6151739072520286,0,5,1,4,3,8,7,nan,nan,nan,nan,nan,nan,nan,nan,nan,nan,nan,nan,0.0,nan,nan,nan,nan,nan,nan,nan,nan,nan,nan,nan,nan,nan,nan,nan,nan,nan,nan,96.10582203662489,388.6758381189429,nan,389.29101202619495,nan,nan,nan,nan
1,211,1,1,1.0,1.0,0.5906864177668467,0,2,5,7,8,1,4,nan,nan,nan,nan,nan,nan,nan,nan,nan,nan,nan,nan,0.0,nan,nan,nan,nan,nan,nan,nan,nan,nan,nan,nan,nan,nan,nan,nan,nan,nan,nan,96.10582203662489,389.6843060485553,nan,390.27499246632215,nan,nan,nan,nan
1,212,1,1,1.0,1.0,0.36618849367368966,0,7,0,6,5,3,1,nan,nan,nan,nan,nan,nan,nan,nan,nan,nan,nan,nan,0.0,nan,nan,nan,nan,nan,nan,nan,nan,nan,nan,nan,nan,nan,nan,nan,nan,nan,nan,96.10582203662489,390.69277454842813,nan,391.0589630421018,nan,nan,nan,nan
1,213,1,1,1.0,1.0,0.6777705014683306,0,2,4,3,0,1,8,nan,nan,nan,nan,nan,nan,nan,nan,nan,nan,nan,nan,0.0,nan,nan,nan,nan,nan,nan,nan,nan,nan,nan,nan,nan,nan,nan,nan,nan,nan,nan,96.10582203662489,391.70124532905174,nan,392.3790158305201,nan,nan,nan,nan
1,214,1,1,1.0,1.0,0.7252284833230078,0,1,3,4,7,5,2,nan,nan,nan,nan,nan,nan,nan,nan,nan,nan,nan,nan,0.0,nan,nan,nan,nan,nan,nan,nan,nan,nan,nan,nan,nan,nan,nan,nan,nan,nan,nan,96.10582203662489,392.7096915913862,nan,393.4349200747092,nan,nan,nan,nan
1,215,1,1,1.0,1.0,0.6127483081654646,0,3,4,8,5,2,7,nan,nan,nan,nan,nan,nan,nan,nan,nan,nan,nan,nan,0.0,nan,nan,nan,nan,nan,nan,nan,nan,nan,nan,nan,nan,nan,nan,nan,nan,nan,nan,96.10582203662489,393.71815524459817,nan,394.33090355276363,nan,nan,nan,nan
1,216,1,1,1.0,1.0,0.32428304699715227,0,5,0,7,3,8,4,nan,nan,nan,nan,nan,nan,nan,nan,nan,nan,nan,nan,0.0,nan,nan,nan,nan,nan,nan,nan,nan,nan,nan,nan,nan,nan,nan,nan,nan,nan,nan,96.10582203662489,394.72659266897244,nan,395.0508757159696,nan,nan,nan,nan
1,217,1,1,1.0,1.0,0.307794788852334,0,4,8,1,2,3,5,nan,nan,nan,nan,nan,nan,nan,nan,nan,nan,nan,nan,0.0,nan,nan,nan,nan,nan,nan,nan,nan,nan,nan,nan,nan,nan,nan,nan,nan,nan,nan,96.10582203662489,395.73507342796074,nan,396.0428682168131,nan,nan,nan,nan
1,218,0,0,0.0,1.0,0.5312692172592506,0,2,7,6,3,5,4,nan,nan,nan,nan,nan,nan,nan,nan,nan,nan,nan,nan,0.0,nan,nan,nan,nan,nan,nan,nan,nan,nan,nan,nan,nan,nan,nan,nan,nan,nan,nan,96.10582203662489,396.743553616805,nan,397.27482283406425,nan,nan,nan,nan
1,219,1,1,1.0,1.0,0.5068045354564674,0,8,3,0,6,2,7,nan,nan,nan,nan,nan,nan,nan,nan,nan,nan,nan,nan,0.0,nan,nan,nan,nan,nan,nan,nan,nan,nan,nan,nan,nan,nan,nan,nan,nan,nan,nan,96.10582203662489,397.75199731322937,nan,398.25880184868583,nan,nan,nan,nan
1,220,1,1,1.0,1.0,0.43426748929778114,0,4,0,8,3,7,1,nan,nan,nan,nan,nan,nan,nan,nan,nan,nan,nan,nan,0.0,nan,nan,nan,nan,nan,nan,nan,nan,nan,nan,nan,nan,nan,nan,nan,nan,nan,nan,96.10582203662489,398.7605162751279,nan,399.19478376442567,nan,nan,nan,nan
1,221,0,0,0.0,1.0,0.4178302633808926,0,1,6,7,8,2,0,nan,nan,nan,nan,nan,nan,nan,nan,nan,nan,nan,nan,0.0,nan,nan,nan,nan,nan,nan,nan,nan,nan,nan,nan,nan,nan,nan,nan,nan,nan,nan,96.10582203662489,399.76893060671864,nan,400.18676087009953,nan,nan,nan,nan
1,222,1,1,1.0,1.0,0.40137821243843064,0,7,1,4,5,6,3,nan,nan,nan,nan,nan,nan,nan,nan,nan,nan,nan,nan,0.0,nan,nan,nan,nan,nan,nan,nan,nan,nan,nan,nan,nan,nan,nan,nan,nan,nan,nan,96.10582203662489,400.77736318443203,nan,401.17874139687046,nan,nan,nan,nan
1,223,1,1,1.0,1.0,0.4968823296367191,0,1,4,5,3,0,8,nan,nan,nan,nan,nan,nan,nan,nan,nan,nan,nan,nan,0.0,nan,nan,nan,nan,nan,nan,nan,nan,nan,nan,nan,nan,nan,nan,nan,nan,nan,nan,96.10582203662489,401.7858222761424,nan,402.28270460577914,nan,nan,nan,nan
1,224,1,1,1.0,1.0,0.3843973078764975,0,5,1,0,2,8,6,nan,nan,nan,nan,nan,nan,nan,nan,nan,nan,nan,nan,0.0,nan,nan,nan,nan,nan,nan,nan,nan,nan,nan,nan,nan,nan,nan,nan,nan,nan,nan,96.10582203662489,402.79430959234014,nan,403.17870690021664,nan,nan,nan,nan
1,225,1,1,1.0,1.0,0.4879026521812193,0,6,2,4,5,1,8,nan,nan,nan,nan,nan,nan,nan,nan,nan,nan,nan,nan,0.0,nan,nan,nan,nan,nan,nan,nan,nan,nan,nan,nan,nan,nan,nan,nan,nan,nan,nan,96.10582203662489,403.80276782868896,nan,404.2906704808702,nan,nan,nan,nan
1,226,1,1,1.0,1.0,0.37541135831270367,0,3,5,6,0,4,1,nan,nan,nan,nan,nan,nan,nan,nan,nan,nan,nan,nan,0.0,nan,nan,nan,nan,nan,nan,nan,nan,nan,nan,nan,nan,nan,nan,nan,nan,nan,nan,96.10582203662489,404.8112366136629,nan,405.1866479719756,nan,nan,nan,nan
1,227,1,1,1.0,1.0,0.33490830019582063,0,8,1,4,6,2,7,nan,nan,nan,nan,nan,nan,nan,nan,nan,nan,nan,nan,0.0,nan,nan,nan,nan,nan,nan,nan,nan,nan,nan,nan,nan,nan,nan,nan,nan,nan,nan,96.10582203662489,405.8197185130557,nan,406.1546268132515,nan,nan,nan,nan
1,228,1,1,1.0,1.0,0.28641826985403895,0,4,6,0,5,7,3,nan,nan,nan,nan,nan,nan,nan,nan,nan,nan,nan,nan,0.0,nan,nan,nan,nan,nan,nan,nan,nan,nan,nan,nan,nan,nan,nan,nan,nan,nan,nan,96.10582203662489,406.8281650604913,nan,407.11458333034534,nan,nan,nan,nan
1,229,0,0,0.0,1.0,0.3259443030692637,0,5,1,2,4,3,8,nan,nan,nan,nan,nan,nan,nan,nan,nan,nan,nan,nan,0.0,nan,nan,nan,nan,nan,nan,nan,nan,nan,nan,nan,nan,nan,nan,nan,nan,nan,nan,96.10582203662489,407.8366270030965,nan,408.1625713061658,nan,nan,nan,nan
1,230,1,1,1.0,1.0,0.26146578829502687,0,6,2,7,3,1,0,nan,nan,nan,nan,nan,nan,nan,nan,nan,nan,nan,nan,0.0,nan,nan,nan,nan,nan,nan,nan,nan,nan,nan,nan,nan,nan,nan,nan,nan,nan,nan,96.10582203662489,408.84508039290085,nan,409.1065461811959,nan,nan,nan,nan
1,231,1,1,1.0,1.0,0.35697874351171777,0,0,7,2,6,3,1,nan,nan,nan,nan,nan,nan,nan,nan,nan,nan,nan,nan,0.0,nan,nan,nan,nan,nan,nan,nan,nan,nan,nan,nan,nan,nan,nan,nan,nan,nan,nan,96.10582203662489,409.85354604176246,nan,410.2105247852742,nan,nan,nan,nan
1,232,0,0,0.0,1.0,0.5645065967109986,0,2,6,5,0,8,7,nan,nan,nan,nan,nan,nan,nan,nan,nan,nan,nan,nan,0.0,nan,nan,nan,nan,nan,nan,nan,nan,nan,nan,nan,nan,nan,nan,nan,nan,nan,nan,96.10582203662489,410.86200769932475,nan,411.42651429603575,nan,nan,nan,nan
1,233,1,1,1.0,1.0,0.7560368424165063,0,5,1,6,3,4,2,nan,nan,nan,nan,nan,nan,nan,nan,nan,nan,nan,nan,0.0,nan,nan,nan,nan,nan,nan,nan,nan,nan,nan,nan,nan,nan,nan,nan,nan,nan,nan,96.10582203662489,411.8704713525367,nan,412.6265081949532,nan,nan,nan,nan
1,234,1,1,1.0,1.0,0.4194943703478202,0,6,4,2,0,3,8,nan,nan,nan,nan,nan,nan,nan,nan,nan,nan,nan,nan,0.0,nan,nan,nan,nan,nan,nan,nan,nan,nan,nan,nan,nan,nan,nan,nan,nan,nan,nan,96.10582203662489,412.878971212951,nan,413.2984655832988,nan,nan,nan,nan
1,235,1,1,1.0,1.0,0.2910274214227684,0,8,2,1,6,5,3,nan,nan,nan,nan,nan,nan,nan,nan,nan,nan,nan,nan,0.0,nan,nan,nan,nan,nan,nan,nan,nan,nan,nan,nan,nan,nan,nan,nan,nan,nan,nan,96.10582203662489,413.8873946676031,nan,414.17842208902584,nan,nan,nan,nan
1,236,1,1,1.0,1.0,0.29055102553684264,0,4,5,2,3,1,8,nan,nan,nan,nan,nan,nan,nan,nan,nan,nan,nan,nan,0.0,nan,nan,nan,nan,nan,nan,nan,nan,nan,nan,nan,nan,nan,nan,nan,nan,nan,nan,96.10582203662489,414.8958517636056,nan,415.18640278914245,nan,nan,nan,nan
1,237,1,1,1.0,1.0,0.3060745178954676,0,5,0,4,2,8,6,nan,nan,nan,nan,nan,nan,nan,nan,nan,nan,nan,nan,0.0,nan,nan,nan,nan,nan,nan,nan,nan,nan,nan,nan,nan,nan,nan,nan,nan,nan,nan,96.10582203662489,415.9043148466735,nan,416.210389364569,nan,nan,nan,nan
1,238,1,1,1.0,1.0,0.2655783020891249,0,0,8,2,6,7,1,nan,nan,nan,nan,nan,nan,nan,nan,nan,nan,nan,nan,0.0,nan,nan,nan,nan,nan,nan,nan,nan,nan,nan,nan,nan,nan,nan,nan,nan,nan,nan,96.10582203662489,416.9127856272971,nan,417.17836392938625,nan,nan,nan,nan
1,239,1,1,1.0,1.0,0.24108140438329428,0,1,7,8,5,4,2,nan,nan,nan,nan,nan,nan,nan,nan,nan,nan,nan,nan,0.0,nan,nan,nan,nan,nan,nan,nan,nan,nan,nan,nan,nan,nan,nan,nan,nan,nan,nan,96.10582203662489,417.92124414874706,nan,418.16232555313036,nan,nan,nan,nan
1,240,1,1,1.0,1.0,0.2084390209056437,0,6,1,7,4,8,3,nan,nan,nan,nan,nan,nan,nan,nan,nan,nan,nan,nan,0.0,nan,nan,nan,nan,nan,nan,nan,nan,nan,nan,nan,nan,nan,nan,nan,nan,nan,nan,96.10582203662489,418.9298700217623,nan,419.13830904266797,nan,nan,nan,nan
1,241,1,1,1.0,1.0,0.23208946775412187,0,5,3,8,0,6,2,nan,nan,nan,nan,nan,nan,nan,nan,nan,nan,nan,nan,0.0,nan,nan,nan,nan,nan,nan,nan,nan,nan,nan,nan,nan,nan,nan,nan,nan,nan,nan,96.10582203662489,419.93820024991874,nan,420.17028971767286,nan,nan,nan,nan
1,242,1,1,1.0,1.0,0.2716351725975983,0,1,7,5,4,8,6,nan,nan,nan,nan,nan,nan,nan,nan,nan,nan,nan,nan,0.0,nan,nan,nan,nan,nan,nan,nan,nan,nan,nan,nan,nan,nan,nan,nan,nan,nan,nan,96.10582203662489,420.94663168722764,nan,421.21826685982523,nan,nan,nan,nan
1,243,1,1,1.0,1.0,0.23114209284540266,0,6,8,2,1,0,4,nan,nan,nan,nan,nan,nan,nan,nan,nan,nan,nan,nan,0.0,nan,nan,nan,nan,nan,nan,nan,nan,nan,nan,nan,nan,nan,nan,nan,nan,nan,nan,96.10582203662489,421.9550944851944,nan,422.1862365780398,nan,nan,nan,nan
1,244,1,1,1.0,1.0,0.1427020911942236,0,5,6,1,7,2,0,nan,nan,nan,nan,nan,nan,nan,nan,nan,nan,nan,nan,0.0,nan,nan,nan,nan,nan,nan,nan,nan,nan,nan,nan,nan,nan,nan,nan,nan,nan,nan,96.10582203662489,422.96352848841343,nan,423.10623057960765,nan,nan,nan,nan
1,245,1,1,1.0,1.0,0.2541698894929141,0,4,0,2,6,1,3,nan,nan,nan,nan,nan,nan,nan,nan,nan,nan,nan,nan,0.0,nan,nan,nan,nan,nan,nan,nan,nan,nan,nan,nan,nan,nan,nan,nan,nan,nan,nan,96.10582203662489,423.9720203661127,nan,424.2261902556056,nan,nan,nan,nan
1,246,1,1,1.0,1.0,0.22973286197520792,1,5,8,1,4,7,6,1.0,1.0,1.0,1.0,1.0,1.0,0.0,0.0,0.0,0.0,0.0,0.0,0.0,1.0,4.0,3.0,3.0,4.0,5.0,2.0,1.0,6.0,5.0,4.0,3.0,1.7840207527042367,1.0226662945351563,4.102851618488785,3.598854426119942,3.1110980283701792,2.5272832862101495,96.10582203662489,424.98045379912946,425.78890046064043,425.2101866611047,430.9478784133098,431.94712918024743,426.8056883550016,430.93956928222906
1,247,1,1,1.0,1.0,0.4216377241536975,0,7,3,8,1,0,2,nan,nan,nan,nan,nan,nan,nan,nan,nan,nan,nan,nan,0.0,nan,nan,nan,nan,nan,nan,nan,nan,nan,nan,nan,nan,nan,nan,nan,nan,nan,nan,96.10582203662489,432.1563875678694,nan,432.5780252920231,nan,nan,nan,nan
1,248,1,1,1.0,1.0,0.3171291261096485,0,0,4,2,5,3,8,nan,nan,nan,nan,nan,nan,nan,nan,nan,nan,nan,nan,0.0,nan,nan,nan,nan,nan,nan,nan,nan,nan,nan,nan,nan,nan,nan,nan,nan,nan,nan,96.10582203662489,433.16485036577797,nan,433.4819794918876,nan,nan,nan,nan
1,249,1,1,1.0,1.0,0.28465266863349825,0,3,5,0,8,2,4,nan,nan,nan,nan,nan,nan,nan,nan,nan,nan,nan,nan,0.0,nan,nan,nan,nan,nan,nan,nan,nan,nan,nan,nan,nan,nan,nan,nan,nan,nan,nan,96.10582203662489,434.17331202334026,nan,434.45796469197376,nan,nan,nan,nan
1,250,1,1,1.0,1.0,0.27613142592599615,0,0,7,1,3,5,8,nan,nan,nan,nan,nan,nan,nan,nan,nan,nan,nan,nan,0.0,nan,nan,nan,nan,nan,nan,nan,nan,nan,nan,nan,nan,nan,nan,nan,nan,nan,nan,96.10582203662489,435.18180390109774,nan,435.45793532702373,nan,nan,nan,nan
1,251,1,1,1.0,1.0,0.21967951190890744,0,5,3,0,7,4,2,nan,nan,nan,nan,nan,nan,nan,nan,nan,nan,nan,nan,0.0,nan,nan,nan,nan,nan,nan,nan,nan,nan,nan,nan,nan,nan,nan,nan,nan,nan,nan,96.10582203662489,436.1902427509194,nan,436.40992226282833,nan,nan,nan,nan
1,252,1,1,1.0,1.0,0.09117378981318325,1,1,7,5,6,0,3,1.0,1.0,1.0,1.0,1.0,1.0,0.0,0.0,0.0,0.0,0.0,0.0,0.0,5.0,1.0,0.0,4.0,8.0,2.0,3.0,2.0,1.0,6.0,5.0,4.0,2.884321329765953,2.116913992445916,1.1421749481814913,5.212203717266675,4.572383806866128,3.845345247304067,96.10582203662489,437.1987146719475,438.00713396415813,437.2898884617607,444.26625312503893,445.26557345548645,439.0155816519982,444.257913773763
1,253,0,0,1.0,0.0,0.32695696502923965,0,8,0,1,3,2,7,nan,nan,nan,nan,nan,nan,nan,nan,nan,nan,nan,nan,0.0,nan,nan,nan,nan,nan,nan,nan,nan,nan,nan,nan,nan,nan,nan,nan,nan,nan,nan,96.10582203662489,445.474758288241,nan,445.80171525327023,nan,nan,nan,nan
1,254,1,1,1.0,1.0,0.38246492529287934,0,5,2,3,1,6,8,nan,nan,nan,nan,nan,nan,nan,nan,nan,nan,nan,nan,0.0,nan,nan,nan,nan,nan,nan,nan,nan,nan,nan,nan,nan,nan,nan,nan,nan,nan,nan,96.10582203662489,446.4832199458033,nan,446.86568487109616,nan,nan,nan,nan
1,255,1,1,1.0,1.0,0.3260121559142135,0,6,1,7,4,0,3,nan,nan,nan,nan,nan,nan,nan,nan,nan,nan,nan,nan,0.0,nan,nan,nan,nan,nan,nan,nan,nan,nan,nan,nan,nan,nan,nan,nan,nan,nan,nan,96.10582203662489,447.4916593658272,nan,447.81767152174143,nan,nan,nan,nan
1,256,1,1,1.0,1.0,0.27748078666627407,0,3,6,4,0,8,2,nan,nan,nan,nan,nan,nan,nan,nan,nan,nan,nan,nan,0.0,nan,nan,nan,nan,nan,nan,nan,nan,nan,nan,nan,nan,nan,nan,nan,nan,nan,nan,96.10582203662489,448.50018089357764,nan,448.7776616802439,nan,nan,nan,nan
1,257,1,1,1.0,1.0,0.2611168304574676,1,7,1,8,3,0,5,1.0,1.0,1.0,1.0,1.0,1.0,0.0,0.0,0.0,1.0,0.0,0.0,1.0,8.0,8.0,1.0,3.0,6.0,8.0,5.0,6.0,1.0,2.0,3.0,4.0,4.33523273980245,5.070146228768863,1.6331600613193586,2.454814948316198,3.270194866170641,3.783620192494709,96.10582203662489,449.5085772640887,450.3170333337621,449.76969409454614,456.4344719033106,457.4339738401468,451.32550496963086,456.4261376838549
1,258,0,0,0.0,1.0,0.7664197637932375,0,3,8,5,1,7,6,nan,nan,nan,nan,nan,nan,nan,nan,nan,nan,nan,nan,0.0,nan,nan,nan,nan,nan,nan,nan,nan,nan,nan,nan,nan,nan,nan,nan,nan,nan,nan,96.10582203662489,457.64297678146977,nan,458.409396545263,nan,nan,nan,nan
1,259,1,1,1.0,1.0,0.4939022182370536,0,6,7,4,5,8,2,nan,nan,nan,nan,nan,nan,nan,nan,nan,nan,nan,nan,0.0,nan,nan,nan,nan,nan,nan,nan,nan,nan,nan,nan,nan,nan,nan,nan,nan,nan,nan,96.10582203662489,458.6514780673897,nan,459.14538028562674,nan,nan,nan,nan
1,260,0,0,0.0,1.0,0.5654556822264567,0,8,3,5,2,4,7,nan,nan,nan,nan,nan,nan,nan,nan,nan,nan,nan,nan,0.0,nan,nan,nan,nan,nan,nan,nan,nan,nan,nan,nan,nan,nan,nan,nan,nan,nan,nan,96.10582203662489,459.659902092244,nan,460.22535777447047,nan,nan,nan,nan
1,261,1,1,0.0,0.0,0.6049560566898435,0,2,0,1,7,5,6,nan,nan,nan,nan,nan,nan,nan,nan,nan,nan,nan,nan,0.0,nan,nan,nan,nan,nan,nan,nan,nan,nan,nan,nan,nan,nan,nan,nan,nan,nan,nan,96.10582203662489,460.66837344306987,nan,461.2733294997597,nan,nan,nan,nan
1,262,1,1,1.0,1.0,0.620458451914601,0,1,5,2,4,7,0,nan,nan,nan,nan,nan,nan,nan,nan,nan,nan,nan,nan,0.0,nan,nan,nan,nan,nan,nan,nan,nan,nan,nan,nan,nan,nan,nan,nan,nan,nan,nan,96.10582203662489,461.67683481553104,nan,462.29729326744564,nan,nan,nan,nan
1,263,1,1,1.0,1.0,0.4119974786299281,0,3,2,5,6,0,7,nan,nan,nan,nan,nan,nan,nan,nan,nan,nan,nan,nan,0.0,nan,nan,nan,nan,nan,nan,nan,nan,nan,nan,nan,nan,nan,nan,nan,nan,nan,nan,96.10582203662489,462.68529276677873,nan,463.09729024540866,nan,nan,nan,nan
1,264,1,1,1.0,1.0,0.3155305912368931,0,4,0,8,1,5,6,nan,nan,nan,nan,nan,nan,nan,nan,nan,nan,nan,nan,0.0,nan,nan,nan,nan,nan,nan,nan,nan,nan,nan,nan,nan,nan,nan,nan,nan,nan,nan,96.10582203662489,463.6937683940632,nan,464.0092989853001,nan,nan,nan,nan
1,265,1,1,1.0,1.0,0.29106248827883974,0,2,8,5,6,7,4,nan,nan,nan,nan,nan,nan,nan,nan,nan,nan,nan,nan,0.0,nan,nan,nan,nan,nan,nan,nan,nan,nan,nan,nan,nan,nan,nan,nan,nan,nan,nan,96.10582203662489,464.7022183626541,nan,464.99328085093293,nan,nan,nan,nan
1,266,1,1,1.0,1.0,0.2585672144195996,0,5,3,7,1,2,8,nan,nan,nan,nan,nan,nan,nan,nan,nan,nan,nan,nan,0.0,nan,nan,nan,nan,nan,nan,nan,nan,nan,nan,nan,nan,nan,nan,nan,nan,nan,nan,96.10582203662489,465.71072363993153,nan,465.96929085435113,nan,nan,nan,nan
1,267,1,1,1.0,1.0,0.27407189045334235,0,4,5,6,0,1,2,nan,nan,nan,nan,nan,nan,nan,nan,nan,nan,nan,nan,0.0,nan,nan,nan,nan,nan,nan,nan,nan,nan,nan,nan,nan,nan,nan,nan,nan,nan,nan,96.10582203662489,466.71918586763786,nan,466.9932577580912,nan,nan,nan,nan
1,268,1,1,1.0,1.0,0.21758091816445813,0,1,4,8,2,0,3,nan,nan,nan,nan,nan,nan,nan,nan,nan,nan,nan,nan,0.0,nan,nan,nan,nan,nan,nan,nan,nan,nan,nan,nan,nan,nan,nan,nan,nan,nan,nan,96.10582203662489,467.7276013396331,nan,467.94518225779757,nan,nan,nan,nan
1,269,1,1,1.0,1.0,0.36909362475853413,0,2,6,4,3,8,7,nan,nan,nan,nan,nan,nan,nan,nan,nan,nan,nan,nan,0.0,nan,nan,nan,nan,nan,nan,nan,nan,nan,nan,nan,nan,nan,nan,nan,nan,nan,nan,96.10582203662489,468.7360741159064,nan,469.1051677406649,nan,nan,nan,nan
1,270,1,1,1.0,1.0,0.14461850840598345,0,3,5,6,2,1,4,nan,nan,nan,nan,nan,nan,nan,nan,nan,nan,nan,nan,0.0,nan,nan,nan,nan,nan,nan,nan,nan,nan,nan,nan,nan,nan,nan,nan,nan,nan,nan,96.10582203662489,469.74452807585476,nan,469.88914658426074,nan,nan,nan,nan
1,271,1,1,1.0,1.0,0.11213748942827806,0,8,3,2,1,5,7,nan,nan,nan,nan,nan,nan,nan,nan,nan,nan,nan,nan,0.0,nan,nan,nan,nan,nan,nan,nan,nan,nan,nan,nan,nan,nan,nan,nan,nan,nan,nan,96.10582203662489,470.7529880228103,nan,470.8651255122386,nan,nan,nan,nan
1,272,1,1,1.0,1.0,0.07164925633696839,0,4,1,0,6,8,2,nan,nan,nan,nan,nan,nan,nan,nan,nan,nan,nan,nan,0.0,nan,nan,nan,nan,nan,nan,nan,nan,nan,nan,nan,nan,nan,nan,nan,nan,nan,nan,96.10582203662489,471.76145281642675,nan,471.8331020727637,nan,nan,nan,nan
1,273,1,1,1.0,1.0,0.3191527394228615,0,3,5,7,0,6,1,nan,nan,nan,nan,nan,nan,nan,nan,nan,nan,nan,nan,0.0,nan,nan,nan,nan,nan,nan,nan,nan,nan,nan,nan,nan,nan,nan,nan,nan,nan,nan,96.10582203662489,472.76992188650183,nan,473.0890746259247,nan,nan,nan,nan
1,274,1,1,1.0,1.0,0.5986594202695414,0,6,0,2,3,1,4,nan,nan,nan,nan,nan,nan,nan,nan,nan,nan,nan,nan,0.0,nan,nan,nan,nan,nan,nan,nan,nan,nan,nan,nan,nan,nan,nan,nan,nan,nan,nan,96.10582203662489,473.77837641659426,nan,474.3770358368638,nan,nan,nan,nan
1,275,0,0,0.0,1.0,0.6541833459632471,0,5,4,0,7,2,3,nan,nan,nan,nan,nan,nan,nan,nan,nan,nan,nan,nan,0.0,nan,nan,nan,nan,nan,nan,nan,nan,nan,nan,nan,nan,nan,nan,nan,nan,nan,nan,96.10582203662489,474.78683151694713,nan,475.4410148629104,nan,nan,nan,nan
1,276,1,1,1.0,1.0,0.6296961415209807,1,2,6,4,8,7,0,1.0,1.0,1.0,1.0,1.0,1.0,1.0,0.0,1.0,0.0,0.0,0.0,2.0,2.0,5.0,4.0,1.0,6.0,8.0,3.0,2.0,1.0,6.0,5.0,4.0,4.6245846503879875,3.832855749584269,3.007736657746136,7.662598532857373,6.93539547274122,5.655496214341838,96.10582203662489,475.7952928894083,476.6037118965178,476.4249890309293,485.32148995879106,486.32093630178133,477.6205194625072,485.3131486118655
1,277,1,1,nan,nan,nan,0,8,3,2,1,5,6,nan,nan,nan,nan,nan,nan,nan,nan,nan,nan,nan,nan,0.0,nan,nan,nan,nan,nan,nan,nan,nan,nan,nan,nan,nan,nan,nan,nan,nan,nan,nan,96.10582203662489,486.53000538545894,nan,nan,nan,nan,nan,nan
1,278,1,1,nan,nan,nan,0,4,7,3,5,1,8,nan,nan,nan,nan,nan,nan,nan,nan,nan,nan,nan,nan,0.0,nan,nan,nan,nan,nan,nan,nan,nan,nan,nan,nan,nan,nan,nan,nan,nan,nan,nan,96.10582203662489,487.5384465160896,nan,nan,nan,nan,nan,nan
1,279,1,1,1.0,1.0,0.4537121958564967,0,0,1,2,8,3,7,nan,nan,nan,nan,nan,nan,nan,nan,nan,nan,nan,nan,0.0,nan,nan,nan,nan,nan,nan,nan,nan,nan,nan,nan,nan,nan,nan,nan,nan,nan,nan,96.10582203662489,488.5469614866306,nan,489.0006736824871,nan,nan,nan,nan
1,280,1,1,1.0,1.0,0.5012867820332758,0,8,5,4,1,6,0,nan,nan,nan,nan,nan,nan,nan,nan,nan,nan,nan,nan,0.0,nan,nan,nan,nan,nan,nan,nan,nan,nan,nan,nan,nan,nan,nan,nan,nan,nan,nan,96.10582203662489,489.55539577495074,nan,490.056682556984,nan,nan,nan,nan
1,281,1,1,1.0,1.0,0.3808059500879608,0,4,1,8,0,7,5,nan,nan,nan,nan,nan,nan,nan,nan,nan,nan,nan,nan,0.0,nan,nan,nan,nan,nan,nan,nan,nan,nan,nan,nan,nan,nan,nan,nan,nan,nan,nan,96.10582203662489,490.56385543680517,nan,490.94466138689313,nan,nan,nan,nan
1,282,1,1,nan,nan,nan,0,1,5,6,3,8,0,nan,nan,nan,nan,nan,nan,nan,nan,nan,nan,nan,nan,0.0,nan,nan,nan,nan,nan,nan,nan,nan,nan,nan,nan,nan,nan,nan,nan,nan,nan,nan,96.10582203662489,491.5723102520569,nan,nan,nan,nan,nan,nan
1,283,1,1,1.0,1.0,0.43585091404384,0,5,7,3,2,6,4,nan,nan,nan,nan,nan,nan,nan,nan,nan,nan,nan,nan,0.0,nan,nan,nan,nan,nan,nan,nan,nan,nan,nan,nan,nan,nan,nan,nan,nan,nan,nan,96.10582203662489,492.58076592255384,nan,493.0166168365977,nan,nan,nan,nan
1,284,1,1,1.0,1.0,0.3633768741856329,0,3,1,5,0,4,7,nan,nan,nan,nan,nan,nan,nan,nan,nan,nan,nan,nan,0.0,nan,nan,nan,nan,nan,nan,nan,nan,nan,nan,nan,nan,nan,nan,nan,nan,nan,nan,96.10582203662489,493.5892093339353,nan,493.9525862081209,nan,nan,nan,nan
1,285,1,1,1.0,1.0,0.27486018161289394,0,5,8,3,6,1,4,nan,nan,nan,nan,nan,nan,nan,nan,nan,nan,nan,nan,0.0,nan,nan,nan,nan,nan,nan,nan,nan,nan,nan,nan,nan,nan,nan,nan,nan,nan,nan,96.10582203662489,494.5977089093067,nan,494.87256909091957,nan,nan,nan,nan
1,286,1,1,1.0,1.0,0.27435698674526066,0,1,6,8,3,4,2,nan,nan,nan,nan,nan,nan,nan,nan,nan,nan,nan,nan,0.0,nan,nan,nan,nan,nan,nan,nan,nan,nan,nan,nan,nan,nan,nan,nan,nan,nan,nan,96.10582203662489,495.6061774091213,nan,495.88053439586656,nan,nan,nan,nan
1,287,1,1,1.0,1.0,0.465911750739906,0,3,4,5,7,6,8,nan,nan,nan,nan,nan,nan,nan,nan,nan,nan,nan,nan,0.0,nan,nan,nan,nan,nan,nan,nan,nan,nan,nan,nan,nan,nan,nan,nan,nan,nan,nan,96.10582203662489,496.614597157517,nan,497.0805089082569,nan,nan,nan,nan
1,288,1,1,nan,nan,nan,0,6,1,2,5,7,3,nan,nan,nan,nan,nan,nan,nan,nan,nan,nan,nan,nan,0.0,nan,nan,nan,nan,nan,nan,nan,nan,nan,nan,nan,nan,nan,nan,nan,nan,nan,nan,96.10582203662489,497.62308875017334,nan,nan,nan,nan,nan,nan
1,289,1,1,1.0,1.0,0.16893037862610072,0,8,7,4,3,6,2,nan,nan,nan,nan,nan,nan,nan,nan,nan,nan,nan,nan,0.0,nan,nan,nan,nan,nan,nan,nan,nan,nan,nan,nan,nan,nan,nan,nan,nan,nan,nan,96.10582203662489,498.63155810534954,nan,498.80048848397564,nan,nan,nan,nan
1,290,0,0,0.0,1.0,0.5124497268116102,0,2,1,3,4,5,8,nan,nan,nan,nan,nan,nan,nan,nan,nan,nan,nan,nan,0.0,nan,nan,nan,nan,nan,nan,nan,nan,nan,nan,nan,nan,nan,nan,nan,nan,nan,nan,96.10582203662489,499.64000465278514,nan,500.15245437959675,nan,nan,nan,nan
1,291,1,1,1.0,1.0,0.5359510683338158,0,7,3,5,1,4,0,nan,nan,nan,nan,nan,nan,nan,nan,nan,nan,nan,nan,0.0,nan,nan,nan,nan,nan,nan,nan,nan,nan,nan,nan,nan,nan,nan,nan,nan,nan,nan,96.10582203662489,500.64847571850987,nan,501.1844267868437,nan,nan,nan,nan
1,292,1,1,1.0,1.0,0.2794818773982115,0,1,6,8,5,2,7,nan,nan,nan,nan,nan,nan,nan,nan,nan,nan,nan,nan,0.0,nan,nan,nan,nan,nan,nan,nan,nan,nan,nan,nan,nan,nan,nan,nan,nan,nan,nan,96.10582203662489,501.6569467842346,nan,501.9364286616328,nan,nan,nan,nan
1,293,1,1,1.0,1.0,0.2149688660283573,0,6,3,0,1,7,8,nan,nan,nan,nan,nan,nan,nan,nan,nan,nan,nan,nan,0.0,nan,nan,nan,nan,nan,nan,nan,nan,nan,nan,nan,nan,nan,nan,nan,nan,nan,nan,96.10582203662489,502.66542412206763,nan,502.880392988096,nan,nan,nan,nan
1,294,1,1,1.0,1.0,0.20649694505846128,0,3,8,2,6,5,4,nan,nan,nan,nan,nan,nan,nan,nan,nan,nan,nan,nan,0.0,nan,nan,nan,nan,nan,nan,nan,nan,nan,nan,nan,nan,nan,nan,nan,nan,nan,nan,96.10582203662489,503.6738527084235,nan,503.88034965348197,nan,nan,nan,nan
1,295,1,1,1.0,1.0,0.23000997555209324,0,7,0,3,4,2,1,nan,nan,nan,nan,nan,nan,nan,nan,nan,nan,nan,nan,0.0,nan,nan,nan,nan,nan,nan,nan,nan,nan,nan,nan,nan,nan,nan,nan,nan,nan,nan,96.10582203662489,504.68231892748736,nan,504.91232890303945,nan,nan,nan,nan
1,296,1,1,1.0,1.0,0.22955781285418198,0,5,6,2,3,4,8,nan,nan,nan,nan,nan,nan,nan,nan,nan,nan,nan,nan,0.0,nan,nan,nan,nan,nan,nan,nan,nan,nan,nan,nan,nan,nan,nan,nan,nan,nan,nan,96.10582203662489,505.69076034321915,nan,505.92031815607334,nan,nan,nan,nan
1,297,1,1,1.0,1.0,0.021042101026978344,0,0,3,6,2,8,1,nan,nan,nan,nan,nan,nan,nan,nan,nan,nan,nan,nan,0.0,nan,nan,nan,nan,nan,nan,nan,nan,nan,nan,nan,nan,nan,nan,nan,nan,nan,nan,96.10582203662489,506.6992393916589,nan,506.7202814926859,nan,nan,nan,nan
1,298,1,1,1.0,1.0,0.26056203310145065,0,3,1,7,4,5,8,nan,nan,nan,nan,nan,nan,nan,nan,nan,nan,nan,nan,0.0,nan,nan,nan,nan,nan,nan,nan,nan,nan,nan,nan,nan,nan,nan,nan,nan,nan,nan,96.10582203662489,507.7077107424848,nan,507.96827277558623,nan,nan,nan,nan
1,299,1,1,1.0,1.0,0.2520732913981192,0,1,2,5,6,0,4,nan,nan,nan,nan,nan,nan,nan,nan,nan,nan,nan,nan,0.0,nan,nan,nan,nan,nan,nan,nan,nan,nan,nan,nan,nan,nan,nan,nan,nan,nan,nan,96.10582203662489,508.71617354039336,nan,508.9682468317915,nan,nan,nan,nan
1,300,1,1,1.0,1.0,0.2115662419819273,0,5,4,8,0,6,3,nan,nan,nan,nan,nan,nan,nan,nan,nan,nan,nan,nan,0.0,nan,nan,nan,nan,nan,nan,nan,nan,nan,nan,nan,nan,nan,nan,nan,nan,nan,nan,96.10582203662489,509.72465144842863,nan,509.93621769041056,nan,nan,nan,nan
1,301,1,1,1.0,1.0,0.17910888593178242,0,3,1,0,5,4,8,nan,nan,nan,nan,nan,nan,nan,nan,nan,nan,nan,nan,0.0,nan,nan,nan,nan,nan,nan,nan,nan,nan,nan,nan,nan,nan,nan,nan,nan,nan,nan,96.10582203662489,510.7330922939582,nan,510.91220117988996,nan,nan,nan,nan
1,302,1,1,1.0,1.0,0.2826059624203481,0,6,5,7,1,8,4,nan,nan,nan,nan,nan,nan,nan,nan,nan,nan,nan,nan,0.0,nan,nan,nan,nan,nan,nan,nan,nan,nan,nan,nan,nan,nan,nan,nan,nan,nan,nan,96.10582203662489,511.74155623227125,nan,512.0241621946916,nan,nan,nan,nan
1,303,1,1,1.0,1.0,0.24214224761817604,0,1,7,5,8,2,0,nan,nan,nan,nan,nan,nan,nan,nan,nan,nan,nan,nan,0.0,nan,nan,nan,nan,nan,nan,nan,nan,nan,nan,nan,nan,nan,nan,nan,nan,nan,nan,96.10582203662489,512.7500096220174,nan,512.9921518696356,nan,nan,nan,nan
1,304,1,1,1.0,1.0,0.16964511497644708,0,3,4,0,7,6,2,nan,nan,nan,nan,nan,nan,nan,nan,nan,nan,nan,nan,0.0,nan,nan,nan,nan,nan,nan,nan,nan,nan,nan,nan,nan,nan,nan,nan,nan,nan,nan,96.10582203662489,513.7584735603305,nan,513.9281186753069,nan,nan,nan,nan
1,305,0,0,1.0,0.0,0.1851677520899102,0,4,2,5,1,0,3,nan,nan,nan,nan,nan,nan,nan,nan,nan,nan,nan,nan,0.0,nan,nan,nan,nan,nan,nan,nan,nan,nan,nan,nan,nan,nan,nan,nan,nan,nan,nan,96.10582203662489,514.7669374986435,nan,514.9521052507334,nan,nan,nan,nan
1,306,1,1,1.0,1.0,0.36066874460084364,0,5,1,0,2,7,6,nan,nan,nan,nan,nan,nan,nan,nan,nan,nan,nan,nan,0.0,nan,nan,nan,nan,nan,nan,nan,nan,nan,nan,nan,nan,nan,nan,nan,nan,nan,nan,96.10582203662489,515.7753886076389,nan,516.1360573522397,nan,nan,nan,nan
1,307,1,1,0.0,0.0,0.25615872110938653,0,8,4,7,3,5,0,nan,nan,nan,nan,nan,nan,nan,nan,nan,nan,nan,nan,0.0,nan,nan,nan,nan,nan,nan,nan,nan,nan,nan,nan,nan,nan,nan,nan,nan,nan,nan,96.10582203662489,516.783901582472,nan,517.0400603035814,nan,nan,nan,nan
1,308,1,1,1.0,1.0,0.23169945611152798,0,0,5,2,1,4,7,nan,nan,nan,nan,nan,nan,nan,nan,nan,nan,nan,nan,0.0,nan,nan,nan,nan,nan,nan,nan,nan,nan,nan,nan,nan,nan,nan,nan,nan,nan,nan,96.10582203662489,517.792327602976,nan,518.0240270590875,nan,nan,nan,nan
1,309,1,1,1.0,1.0,0.19124172831652686,0,4,0,5,3,8,2,nan,nan,nan,nan,nan,nan,nan,nan,nan,nan,nan,nan,0.0,nan,nan,nan,nan,nan,nan,nan,nan,nan,nan,nan,nan,nan,nan,nan,nan,nan,nan,96.10582203662489,518.8007638869458,nan,518.9920056152623,nan,nan,nan,nan
1,310,1,1,1.0,1.0,0.15074807836208493,0,0,8,7,2,3,4,nan,nan,nan,nan,nan,nan,nan,nan,nan,nan,nan,nan,0.0,nan,nan,nan,nan,nan,nan,nan,nan,nan,nan,nan,nan,nan,nan,nan,nan,nan,nan,96.10582203662489,519.8092529137502,nan,519.9600009921123,nan,nan,nan,nan
1,311,1,1,1.0,1.0,0.08625901507912204,0,7,1,3,0,4,6,nan,nan,nan,nan,nan,nan,nan,nan,nan,nan,nan,nan,0.0,nan,nan,nan,nan,nan,nan,nan,nan,nan,nan,nan,nan,nan,nan,nan,nan,nan,nan,96.10582203662489,520.8177102948539,nan,520.903969309933,nan,nan,nan,nan
1,312,1,1,1.0,1.0,0.26174888893729076,0,8,0,1,6,3,2,nan,nan,nan,nan,nan,nan,nan,nan,nan,nan,nan,nan,0.0,nan,nan,nan,nan,nan,nan,nan,nan,nan,nan,nan,nan,nan,nan,nan,nan,nan,nan,96.10582203662489,521.8261762288166,nan,522.0879251177539,nan,nan,nan,nan
1,313,1,1,1.0,1.0,0.41324106854153797,0,3,6,2,5,8,4,nan,nan,nan,nan,nan,nan,nan,nan,nan,nan,nan,nan,0.0,nan,nan,nan,nan,nan,nan,nan,nan,nan,nan,nan,nan,nan,nan,nan,nan,nan,nan,96.10582203662489,522.8346606941195,nan,523.2479017626611,nan,nan,nan,nan
1,314,0,0,0.0,1.0,0.5007718981942162,0,1,3,4,8,5,0,nan,nan,nan,nan,nan,nan,nan,nan,nan,nan,nan,nan,0.0,nan,nan,nan,nan,nan,nan,nan,nan,nan,nan,nan,nan,nan,nan,nan,nan,nan,nan,96.10582203662489,523.8431089521036,nan,524.3438808502979,nan,nan,nan,nan
1,315,1,1,1.0,1.0,0.33231021784013137,0,5,4,7,0,2,8,nan,nan,nan,nan,nan,nan,nan,nan,nan,nan,nan,nan,0.0,nan,nan,nan,nan,nan,nan,nan,nan,nan,nan,nan,nan,nan,nan,nan,nan,nan,nan,96.10582203662489,524.8515546442359,nan,525.183864862076,nan,nan,nan,nan
1,316,1,1,1.0,1.0,0.49982224247651175,0,2,6,8,7,3,5,nan,nan,nan,nan,nan,nan,nan,nan,nan,nan,nan,nan,0.0,nan,nan,nan,nan,nan,nan,nan,nan,nan,nan,nan,nan,nan,nan,nan,nan,nan,nan,96.10582203662489,525.8600208633579,nan,526.3598431058344,nan,nan,nan,nan
1,317,1,1,1.0,1.0,0.5473261247389019,0,7,0,6,3,5,4,nan,nan,nan,nan,nan,nan,nan,nan,nan,nan,nan,nan,0.0,nan,nan,nan,nan,nan,nan,nan,nan,nan,nan,nan,nan,nan,nan,nan,nan,nan,nan,96.10582203662489,526.8684785295627,nan,527.4158046543016,nan,nan,nan,nan
1,318,1,1,1.0,1.0,0.48283848696155474,0,3,2,4,8,6,7,nan,nan,nan,nan,nan,nan,nan,nan,nan,nan,nan,nan,0.0,nan,nan,nan,nan,nan,nan,nan,nan,nan,nan,nan,nan,nan,nan,nan,nan,nan,nan,96.10582203662489,527.8769555822946,nan,528.3597940692562,nan,nan,nan,nan
1,319,1,1,1.0,1.0,0.5063406837871298,0,6,0,1,3,7,4,nan,nan,nan,nan,nan,nan,nan,nan,nan,nan,nan,nan,0.0,nan,nan,nan,nan,nan,nan,nan,nan,nan,nan,nan,nan,nan,nan,nan,nan,nan,nan,96.10582203662489,528.8854121080949,nan,529.391752791882,nan,nan,nan,nan
1,320,0,0,0.0,1.0,0.5218530573765747,0,7,1,3,6,0,2,nan,nan,nan,nan,nan,nan,nan,nan,nan,nan,nan,nan,0.0,nan,nan,nan,nan,nan,nan,nan,nan,nan,nan,nan,nan,nan,nan,nan,nan,nan,nan,96.10582203662489,529.8938803228666,nan,530.4157333802432,nan,nan,nan,nan
1,321,1,1,1.0,1.0,0.7453297665342689,0,2,3,7,4,1,5,nan,nan,nan,nan,nan,nan,nan,nan,nan,nan,nan,nan,0.0,nan,nan,nan,nan,nan,nan,nan,nan,nan,nan,nan,nan,nan,nan,nan,nan,nan,nan,96.10582203662489,530.9023864554474,nan,531.6477162219817,nan,nan,nan,nan
1,322,1,1,1.0,1.0,0.5688928029849194,0,0,8,4,3,5,7,nan,nan,nan,nan,nan,nan,nan,nan,nan,nan,nan,nan,0.0,nan,nan,nan,nan,nan,nan,nan,nan,nan,nan,nan,nan,nan,nan,nan,nan,nan,nan,96.10582203662489,531.9107993614743,nan,532.4796921644593,nan,nan,nan,nan
1,323,1,1,1.0,1.0,0.37640320823993534,0,8,2,1,0,7,4,nan,nan,nan,nan,nan,nan,nan,nan,nan,nan,nan,nan,0.0,nan,nan,nan,nan,nan,nan,nan,nan,nan,nan,nan,nan,nan,nan,nan,nan,nan,nan,96.10582203662489,532.9192595935892,nan,533.2956628018292,nan,nan,nan,nan
1,324,1,1,1.0,1.0,0.4799584443680942,0,2,5,8,4,3,6,nan,nan,nan,nan,nan,nan,nan,nan,nan,nan,nan,nan,0.0,nan,nan,nan,nan,nan,nan,nan,nan,nan,nan,nan,nan,nan,nan,nan,nan,nan,nan,96.10582203662489,533.9276950222556,nan,534.4076534666237,nan,nan,nan,nan
1,325,1,1,1.0,1.0,0.39145971287507564,0,3,4,0,8,5,1,nan,nan,nan,nan,nan,nan,nan,nan,nan,nan,nan,nan,0.0,nan,nan,nan,nan,nan,nan,nan,nan,nan,nan,nan,nan,nan,nan,nan,nan,nan,nan,96.10582203662489,534.9361843341612,nan,535.3276440470363,nan,nan,nan,nan
1,326,1,1,1.0,1.0,0.28701925283530727,0,5,8,4,2,7,0,nan,nan,nan,nan,nan,nan,nan,nan,nan,nan,nan,nan,0.0,nan,nan,nan,nan,nan,nan,nan,nan,nan,nan,nan,nan,nan,nan,nan,nan,nan,nan,96.10582203662489,535.9446146310656,nan,536.2316338839009,nan,nan,nan,nan
1,327,1,1,1.0,1.0,0.4864555034437217,0,8,4,5,6,1,2,nan,nan,nan,nan,nan,nan,nan,nan,nan,nan,nan,nan,0.0,nan,nan,nan,nan,nan,nan,nan,nan,nan,nan,nan,nan,nan,nan,nan,nan,nan,nan,96.10582203662489,536.9531147766393,nan,537.439570280083,nan,nan,nan,nan
1,328,1,1,1.0,1.0,0.5659708511666395,0,4,1,6,7,2,0,nan,nan,nan,nan,nan,nan,nan,nan,nan,nan,nan,nan,0.0,nan,nan,nan,nan,nan,nan,nan,nan,nan,nan,nan,nan,nan,nan,nan,nan,nan,nan,96.10582203662489,537.9616055139923,nan,538.5275763651589,nan,nan,nan,nan
1,329,1,1,1.0,1.0,0.6615248602465726,0,6,4,1,0,7,5,nan,nan,nan,nan,nan,nan,nan,nan,nan,nan,nan,nan,0.0,nan,nan,nan,nan,nan,nan,nan,nan,nan,nan,nan,nan,nan,nan,nan,nan,nan,nan,96.10582203662489,538.9700323897996,nan,539.6315572500462,nan,nan,nan,nan
1,330,1,1,1.0,1.0,0.5010190766188316,0,1,0,4,8,5,3,nan,nan,nan,nan,nan,nan,nan,nan,nan,nan,nan,nan,0.0,nan,nan,nan,nan,nan,nan,nan,nan,nan,nan,nan,nan,nan,nan,nan,nan,nan,nan,96.10582203662489,539.9784940473619,nan,540.4795131239807,nan,nan,nan,nan
1,331,1,1,1.0,1.0,0.33254371164366603,0,4,2,3,7,1,0,nan,nan,nan,nan,nan,nan,nan,nan,nan,nan,nan,nan,0.0,nan,nan,nan,nan,nan,nan,nan,nan,nan,nan,nan,nan,nan,nan,nan,nan,nan,nan,96.10582203662489,540.9869371736422,nan,541.3194808852859,nan,nan,nan,nan
1,332,1,1,1.0,1.0,0.6520713527570479,0,6,5,4,3,0,1,nan,nan,nan,nan,nan,nan,nan,nan,nan,nan,nan,nan,0.0,nan,nan,nan,nan,nan,nan,nan,nan,nan,nan,nan,nan,nan,nan,nan,nan,nan,nan,96.10582203662489,541.9954102350166,nan,542.6474815877737,nan,nan,nan,nan
1,333,1,1,1.0,1.0,0.45954212971264496,0,5,6,8,1,3,0,nan,nan,nan,nan,nan,nan,nan,nan,nan,nan,nan,nan,0.0,nan,nan,nan,nan,nan,nan,nan,nan,nan,nan,nan,nan,nan,nan,nan,nan,nan,nan,96.10582203662489,543.003883296391,nan,543.4634254261036,nan,nan,nan,nan
1,334,1,1,1.0,1.0,0.3310600706608966,0,0,4,7,2,6,8,nan,nan,nan,nan,nan,nan,nan,nan,nan,nan,nan,nan,0.0,nan,nan,nan,nan,nan,nan,nan,nan,nan,nan,nan,nan,nan,nan,nan,nan,nan,nan,96.10582203662489,544.0123609193251,nan,544.343420989986,nan,nan,nan,nan
1,335,1,1,1.0,1.0,0.4505413550650701,0,7,5,1,3,0,2,nan,nan,nan,nan,nan,nan,nan,nan,nan,nan,nan,nan,0.0,nan,nan,nan,nan,nan,nan,nan,nan,nan,nan,nan,nan,nan,nan,nan,nan,nan,nan,96.10582203662489,545.0208499461296,nan,545.4713913011947,nan,nan,nan,nan
1,336,1,1,1.0,1.0,0.41009075473994017,0,4,2,3,0,5,6,nan,nan,nan,nan,nan,nan,nan,nan,nan,nan,nan,nan,0.0,nan,nan,nan,nan,nan,nan,nan,nan,nan,nan,nan,nan,nan,nan,nan,nan,nan,nan,96.10582203662489,546.0292782473844,nan,546.4393690021243,nan,nan,nan,nan
1,337,1,1,1.0,1.0,0.2656190709094517,0,3,7,4,1,6,8,nan,nan,nan,nan,nan,nan,nan,nan,nan,nan,nan,nan,0.0,nan,nan,nan,nan,nan,nan,nan,nan,nan,nan,nan,nan,nan,nan,nan,nan,nan,nan,96.10582203662489,547.037729926582,nan,547.3033489974914,nan,nan,nan,nan
1,338,1,1,1.0,1.0,0.28112574259284884,0,8,1,0,2,7,4,nan,nan,nan,nan,nan,nan,nan,nan,nan,nan,nan,nan,0.0,nan,nan,nan,nan,nan,nan,nan,nan,nan,nan,nan,nan,nan,nan,nan,nan,nan,nan,96.10582203662489,548.0461907288409,nan,548.3273164714337,nan,nan,nan,nan
1,339,1,1,1.0,1.0,0.23264455026946962,0,4,6,3,1,8,7,nan,nan,nan,nan,nan,nan,nan,nan,nan,nan,nan,nan,0.0,nan,nan,nan,nan,nan,nan,nan,nan,nan,nan,nan,nan,nan,nan,nan,nan,nan,nan,96.10582203662489,549.0546498204931,nan,549.2872943707625,nan,nan,nan,nan
1,340,1,1,1.0,1.0,0.27215319249080494,0,6,0,1,3,5,8,nan,nan,nan,nan,nan,nan,nan,nan,nan,nan,nan,nan,0.0,nan,nan,nan,nan,nan,nan,nan,nan,nan,nan,nan,nan,nan,nan,nan,nan,nan,nan,96.10582203662489,550.0631146141095,nan,550.3352678066003,nan,nan,nan,nan
1,341,1,1,1.0,1.0,0.28767811035504565,0,2,7,5,0,8,1,nan,nan,nan,nan,nan,nan,nan,nan,nan,nan,nan,nan,0.0,nan,nan,nan,nan,nan,nan,nan,nan,nan,nan,nan,nan,nan,nan,nan,nan,nan,nan,96.10582203662489,551.0715779822203,nan,551.3592560925754,nan,nan,nan,nan
1,342,1,1,1.0,1.0,0.33517686085542664,0,8,2,6,1,0,5,nan,nan,nan,nan,nan,nan,nan,nan,nan,nan,nan,nan,0.0,nan,nan,nan,nan,nan,nan,nan,nan,nan,nan,nan,nan,nan,nan,nan,nan,nan,nan,96.10582203662489,552.0800553201116,nan,552.415232180967,nan,nan,nan,nan
1,343,1,1,0.0,0.0,0.6147399907931685,0,6,3,7,5,8,4,nan,nan,nan,nan,nan,nan,nan,nan,nan,nan,nan,nan,0.0,nan,nan,nan,nan,nan,nan,nan,nan,nan,nan,nan,nan,nan,nan,nan,nan,nan,nan,96.10582203662489,553.0884793449077,nan,553.7032193357009,nan,nan,nan,nan
1,344,1,1,1.0,1.0,0.4782433051150292,0,8,1,0,2,7,3,nan,nan,nan,nan,nan,nan,nan,nan,nan,nan,nan,nan,0.0,nan,nan,nan,nan,nan,nan,nan,nan,nan,nan,nan,nan,nan,nan,nan,nan,nan,nan,96.10582203662489,554.0969626698061,nan,554.5752059749211,nan,nan,nan,nan
1,345,1,1,1.0,1.0,0.3257572798174806,0,2,4,7,8,3,6,nan,nan,nan,nan,nan,nan,nan,nan,nan,nan,nan,nan,0.0,nan,nan,nan,nan,nan,nan,nan,nan,nan,nan,nan,nan,nan,nan,nan,nan,nan,nan,96.10582203662489,555.1054266081192,nan,555.4311838879366,nan,nan,nan,nan
1,346,0,0,0.0,1.0,0.6292402725666761,0,4,7,2,1,0,8,nan,nan,nan,nan,nan,nan,nan,nan,nan,nan,nan,nan,0.0,nan,nan,nan,nan,nan,nan,nan,nan,nan,nan,nan,nan,nan,nan,nan,nan,nan,nan,96.10582203662489,556.1138868401758,nan,556.7431271127425,nan,nan,nan,nan
1,347,1,1,1.0,1.0,0.5087759761954658,0,8,0,3,4,1,5,nan,nan,nan,nan,nan,nan,nan,nan,nan,nan,nan,nan,0.0,nan,nan,nan,nan,nan,nan,nan,nan,nan,nan,nan,nan,nan,nan,nan,nan,nan,nan,96.10582203662489,557.1223502082867,nan,557.6311261844821,nan,nan,nan,nan
1,348,1,1,1.0,1.0,0.3082683337270282,0,5,7,0,2,6,4,nan,nan,nan,nan,nan,nan,nan,nan,nan,nan,nan,nan,0.0,nan,nan,nan,nan,nan,nan,nan,nan,nan,nan,nan,nan,nan,nan,nan,nan,nan,nan,96.10582203662489,558.130811865849,nan,558.439080199576,nan,nan,nan,nan
1,349,0,0,1.0,0.0,0.2917495702859014,0,2,6,5,1,4,8,nan,nan,nan,nan,nan,nan,nan,nan,nan,nan,nan,nan,0.0,nan,nan,nan,nan,nan,nan,nan,nan,nan,nan,nan,nan,nan,nan,nan,nan,nan,nan,96.10582203662489,559.1393154325197,nan,559.4310650028056,nan,nan,nan,nan
1,350,1,1,1.0,1.0,0.4112964268424548,0,3,1,2,7,5,6,nan,nan,nan,nan,nan,nan,nan,nan,nan,nan,nan,nan,0.0,nan,nan,nan,nan,nan,nan,nan,nan,nan,nan,nan,nan,nan,nan,nan,nan,nan,nan,96.10582203662489,560.1477354660165,nan,560.5590318928589,nan,nan,nan,nan
1,351,1,1,1.0,1.0,0.3228105247253552,0,8,2,3,1,4,7,nan,nan,nan,nan,nan,nan,nan,nan,nan,nan,nan,nan,0.0,nan,nan,nan,nan,nan,nan,nan,nan,nan,nan,nan,nan,nan,nan,nan,nan,nan,nan,96.10582203662489,561.1561991192284,nan,561.4790096439538,nan,nan,nan,nan
1,352,1,1,1.0,1.0,0.25032337044831365,0,0,3,8,4,7,6,nan,nan,nan,nan,nan,nan,nan,nan,nan,nan,nan,nan,0.0,nan,nan,nan,nan,nan,nan,nan,nan,nan,nan,nan,nan,nan,nan,nan,nan,nan,nan,96.10582203662489,562.1646701849531,nan,562.4149935554015,nan,nan,nan,nan
1,353,1,1,1.0,1.0,0.16985494585242122,0,6,8,1,2,3,0,nan,nan,nan,nan,nan,nan,nan,nan,nan,nan,nan,nan,0.0,nan,nan,nan,nan,nan,nan,nan,nan,nan,nan,nan,nan,nan,nan,nan,nan,nan,nan,96.10582203662489,563.1731113155838,nan,563.3429662614362,nan,nan,nan,nan
1,354,0,0,0.0,1.0,0.537377119937446,0,2,5,7,1,4,3,nan,nan,nan,nan,nan,nan,nan,nan,nan,nan,nan,nan,0.0,nan,nan,nan,nan,nan,nan,nan,nan,nan,nan,nan,nan,nan,nan,nan,nan,nan,nan,96.10582203662489,564.1815806707018,nan,564.7189577906393,nan,nan,nan,nan
1,355,1,1,1.0,1.0,0.3687723212642595,0,4,1,0,3,8,6,nan,nan,nan,nan,nan,nan,nan,nan,nan,nan,nan,nan,0.0,nan,nan,nan,nan,nan,nan,nan,nan,nan,nan,nan,nan,nan,nan,nan,nan,nan,nan,96.10582203662489,565.1901495244238,nan,565.558921845688,nan,nan,nan,nan
1,356,1,1,1.0,1.0,0.30407827376620844,0,7,4,8,6,0,1,nan,nan,nan,nan,nan,nan,nan,nan,nan,nan,nan,nan,0.0,nan,nan,nan,nan,nan,nan,nan,nan,nan,nan,nan,nan,nan,nan,nan,nan,nan,nan,96.10582203662489,566.2068222399103,nan,566.5109005136765,nan,nan,nan,nan
1,357,1,1,1.0,1.0,0.2955809792038053,0,1,7,5,8,2,3,nan,nan,nan,nan,nan,nan,nan,nan,nan,nan,nan,nan,0.0,nan,nan,nan,nan,nan,nan,nan,nan,nan,nan,nan,nan,nan,nan,nan,nan,nan,nan,96.10582203662489,567.2153049945482,nan,567.510885973752,nan,nan,nan,nan
1,358,1,1,1.0,1.0,0.26310252607800066,1,5,0,7,2,1,6,1.0,1.0,1.0,1.0,1.0,1.0,0.0,1.0,1.0,0.0,0.0,1.0,3.0,6.0,0.0,7.0,6.0,6.0,6.0,3.0,2.0,1.0,6.0,5.0,4.0,2.8411603190470487,1.8430385333485901,1.080530290491879,5.544694401032757,4.640123252815101,3.848384373646695,96.10582203662489,568.223765511706,569.0321925015887,568.486868037784,575.6246924167499,576.6239560130634,570.0406515932409,575.6163710265537
1,359,1,1,1.0,1.0,0.7174382274388336,0,6,8,2,0,5,1,nan,nan,nan,nan,nan,nan,nan,nan,nan,nan,nan,nan,0.0,nan,nan,nan,nan,nan,nan,nan,nan,nan,nan,nan,nan,nan,nan,nan,nan,nan,nan,96.10582203662489,576.8331970098079,nan,577.5506352372468,nan,nan,nan,nan
1,360,1,1,1.0,1.0,0.38898308150237426,0,8,0,1,2,3,5,nan,nan,nan,nan,nan,nan,nan,nan,nan,nan,nan,nan,0.0,nan,nan,nan,nan,nan,nan,nan,nan,nan,nan,nan,nan,nan,nan,nan,nan,nan,nan,96.10582203662489,577.8416618034244,nan,578.2306448849267,nan,nan,nan,nan
1,361,1,1,1.0,1.0,0.3084707520902157,0,4,5,3,8,7,6,nan,nan,nan,nan,nan,nan,nan,nan,nan,nan,nan,nan,0.0,nan,nan,nan,nan,nan,nan,nan,nan,nan,nan,nan,nan,nan,nan,nan,nan,nan,nan,96.10582203662489,578.8501257417374,nan,579.1585964938276,nan,nan,nan,nan
1,362,1,1,1.0,1.0,0.3080046196701005,0,5,2,8,6,0,1,nan,nan,nan,nan,nan,nan,nan,nan,nan,nan,nan,nan,0.0,nan,nan,nan,nan,nan,nan,nan,nan,nan,nan,nan,nan,nan,nan,nan,nan,nan,nan,96.10582203662489,579.8585816973355,nan,580.1665863170056,nan,nan,nan,nan
1,363,1,1,1.0,1.0,0.31553543789777905,0,1,8,5,3,2,6,nan,nan,nan,nan,nan,nan,nan,nan,nan,nan,nan,nan,0.0,nan,nan,nan,nan,nan,nan,nan,nan,nan,nan,nan,nan,nan,nan,nan,nan,nan,nan,96.10582203662489,580.8670350870816,nan,581.1825705249794,nan,nan,nan,nan
1,364,1,1,1.0,1.0,0.3790332214557566,0,4,2,6,1,8,7,nan,nan,nan,nan,nan,nan,nan,nan,nan,nan,nan,nan,0.0,nan,nan,nan,nan,nan,nan,nan,nan,nan,nan,nan,nan,nan,nan,nan,nan,nan,nan,96.10582203662489,581.8755084335571,nan,582.2545416550129,nan,nan,nan,nan
1,365,1,1,1.0,1.0,0.44254497467773035,0,7,0,1,4,3,5,nan,nan,nan,nan,nan,nan,nan,nan,nan,nan,nan,nan,0.0,nan,nan,nan,nan,nan,nan,nan,nan,nan,nan,nan,nan,nan,nan,nan,nan,nan,nan,96.10582203662489,582.883955551195,nan,583.3265005258727,nan,nan,nan,nan
1,366,1,1,1.0,1.0,0.3220621469663456,0,6,1,8,3,4,0,nan,nan,nan,nan,nan,nan,nan,nan,nan,nan,nan,nan,0.0,nan,nan,nan,nan,nan,nan,nan,nan,nan,nan,nan,nan,nan,nan,nan,nan,nan,nan,96.10582203662489,583.8924345996347,nan,584.2144967466011,nan,nan,nan,nan
1,367,1,1,1.0,1.0,0.35357241320889443,0,4,6,0,5,3,7,nan,nan,nan,nan,nan,nan,nan,nan,nan,nan,nan,nan,0.0,nan,nan,nan,nan,nan,nan,nan,nan,nan,nan,nan,nan,nan,nan,nan,nan,nan,nan,96.10582203662489,584.9009011037997,nan,585.2544735170086,nan,nan,nan,nan
1,368,1,1,1.0,1.0,0.4250796915148385,0,2,0,4,8,6,1,nan,nan,nan,nan,nan,nan,nan,nan,nan,nan,nan,nan,0.0,nan,nan,nan,nan,nan,nan,nan,nan,nan,nan,nan,nan,nan,nan,nan,nan,nan,nan,96.10582203662489,585.909362761362,nan,586.3344424528768,nan,nan,nan,nan
1,369,1,1,1.0,1.0,0.48859258519951254,0,1,8,0,3,7,2,nan,nan,nan,nan,nan,nan,nan,nan,nan,nan,nan,nan,0.0,nan,nan,nan,nan,nan,nan,nan,nan,nan,nan,nan,nan,nan,nan,nan,nan,nan,nan,96.10582203662489,586.9178218530142,nan,587.4064144382137,nan,nan,nan,nan
1,370,1,1,1.0,1.0,0.6001088497578166,0,6,0,1,8,5,7,nan,nan,nan,nan,nan,nan,nan,nan,nan,nan,nan,nan,0.0,nan,nan,nan,nan,nan,nan,nan,nan,nan,nan,nan,nan,nan,nan,nan,nan,nan,nan,96.10582203662489,587.9263291259995,nan,588.5264379757573,nan,nan,nan,nan
1,371,1,1,1.0,1.0,0.6876365432981402,0,5,6,0,4,7,2,nan,nan,nan,nan,nan,nan,nan,nan,nan,nan,nan,nan,0.0,nan,nan,nan,nan,nan,nan,nan,nan,nan,nan,nan,nan,nan,nan,nan,nan,nan,nan,96.10582203662489,588.9347497296403,nan,589.6223862729385,nan,nan,nan,nan
1,372,1,1,1.0,1.0,0.48719276243355125,0,3,7,8,1,4,0,nan,nan,nan,nan,nan,nan,nan,nan,nan,nan,nan,nan,0.0,nan,nan,nan,nan,nan,nan,nan,nan,nan,nan,nan,nan,nan,nan,nan,nan,nan,nan,96.10582203662489,589.9431860136101,nan,590.4303787760437,nan,nan,nan,nan
1,373,1,1,1.0,1.0,0.550682278117165,0,8,3,5,4,7,6,nan,nan,nan,nan,nan,nan,nan,nan,nan,nan,nan,nan,0.0,nan,nan,nan,nan,nan,nan,nan,nan,nan,nan,nan,nan,nan,nan,nan,nan,nan,nan,96.10582203662489,590.9516730447649,nan,591.5023553228821,nan,nan,nan,nan
1,374,1,1,1.0,1.0,0.47019161604112014,0,6,4,0,5,1,2,nan,nan,nan,nan,nan,nan,nan,nan,nan,nan,nan,nan,0.0,nan,nan,nan,nan,nan,nan,nan,nan,nan,nan,nan,nan,nan,nan,nan,nan,nan,nan,96.10582203662489,591.9601101840381,nan,592.4303018000792,nan,nan,nan,nan
1,375,1,1,1.0,1.0,0.365685868950095,0,0,5,4,3,6,8,nan,nan,nan,nan,nan,nan,nan,nan,nan,nan,nan,nan,0.0,nan,nan,nan,nan,nan,nan,nan,nan,nan,nan,nan,nan,nan,nan,nan,nan,nan,nan,96.10582203662489,592.968598070438,nan,593.3342839393881,nan,nan,nan,nan
1,376,1,1,1.0,1.0,0.2452181513654068,0,8,7,1,6,0,5,nan,nan,nan,nan,nan,nan,nan,nan,nan,nan,nan,nan,0.0,nan,nan,nan,nan,nan,nan,nan,nan,nan,nan,nan,nan,nan,nan,nan,nan,nan,nan,96.10582203662489,593.977051175083,nan,594.2222693264484,nan,nan,nan,nan
1,377,0,0,0.0,1.0,0.5727139483788051,0,4,6,3,8,5,7,nan,nan,nan,nan,nan,nan,nan,nan,nan,nan,nan,nan,0.0,nan,nan,nan,nan,nan,nan,nan,nan,nan,nan,nan,nan,nan,nan,nan,nan,nan,nan,96.10582203662489,594.9855313638691,nan,595.5582453122479,nan,nan,nan,nan
1,378,1,1,1.0,1.0,0.548211348708719,0,3,8,7,5,0,2,nan,nan,nan,nan,nan,nan,nan,nan,nan,nan,nan,nan,0.0,nan,nan,nan,nan,nan,nan,nan,nan,nan,nan,nan,nan,nan,nan,nan,nan,nan,nan,96.10582203662489,595.9939964425866,nan,596.5422077912954,nan,nan,nan,nan
1,379,1,1,1.0,1.0,0.4677432092721574,0,4,5,8,6,2,0,nan,nan,nan,nan,nan,nan,nan,nan,nan,nan,nan,nan,0.0,nan,nan,nan,nan,nan,nan,nan,nan,nan,nan,nan,nan,nan,nan,nan,nan,nan,nan,96.10582203662489,597.0024444154697,nan,597.4701876247418,nan,nan,nan,nan
1,380,1,1,1.0,1.0,0.3392560184583999,1,1,6,5,2,7,8,1.0,1.0,1.0,1.0,1.0,1.0,0.0,0.0,0.0,0.0,0.0,0.0,0.0,8.0,8.0,6.0,6.0,3.0,5.0,5.0,6.0,1.0,2.0,3.0,4.0,6.060731494333595,6.988676831126213,3.207406687317416,4.164746590773575,4.9327825653599575,5.333348538493738,96.10582203662489,598.0109137706459,598.8193165272824,598.3501697891043,606.8536709139589,607.8529986569192,599.8277696319274,606.8453329881886
1,381,1,1,1.0,1.0,0.5277816344751045,0,6,7,8,1,0,3,nan,nan,nan,nan,nan,nan,nan,nan,nan,nan,nan,nan,0.0,nan,nan,nan,nan,nan,nan,nan,nan,nan,nan,nan,nan,nan,nan,nan,nan,nan,nan,96.10582203662489,608.0621911872877,nan,608.5899728217628,nan,nan,nan,nan
1,382,1,1,1.0,1.0,0.2872544573037885,0,8,1,7,2,5,0,nan,nan,nan,nan,nan,nan,nan,nan,nan,nan,nan,nan,0.0,nan,nan,nan,nan,nan,nan,nan,nan,nan,nan,nan,nan,nan,nan,nan,nan,nan,nan,96.10582203662489,609.0706462875823,nan,609.3579007448861,nan,nan,nan,nan
1,383,1,1,1.0,1.0,0.2787927997414954,0,3,7,1,5,4,2,nan,nan,nan,nan,nan,nan,nan,nan,nan,nan,nan,nan,0.0,nan,nan,nan,nan,nan,nan,nan,nan,nan,nan,nan,nan,nan,nan,nan,nan,nan,nan,96.10582203662489,610.0791050941916,nan,610.3578978939331,nan,nan,nan,nan
1,384,0,0,0.0,1.0,0.5662739085382782,0,6,5,3,7,2,1,nan,nan,nan,nan,nan,nan,nan,nan,nan,nan,nan,nan,0.0,nan,nan,nan,nan,nan,nan,nan,nan,nan,nan,nan,nan,nan,nan,nan,nan,nan,nan,96.10582203662489,611.0876021036529,nan,611.6538760121912,nan,nan,nan,nan
1,385,1,1,1.0,1.0,0.4697830730583519,0,3,2,7,5,6,4,nan,nan,nan,nan,nan,nan,nan,nan,nan,nan,nan,nan,0.0,nan,nan,nan,nan,nan,nan,nan,nan,nan,nan,nan,nan,nan,nan,nan,nan,nan,nan,96.10582203662489,612.0960506467964,nan,612.5658337198547,nan,nan,nan,nan
