block,trial,freq_trials,correct_response,actual_response,acc,rts,probe_trials,trials_colorind0,trials_colorind1,trials_colorind2,trials_colorind3,trials_colorind4,trials_colorind5,wholereport_resp0,wholereport_resp1,wholereport_resp2,wholereport_resp3,wholereport_resp4,wholereport_resp5,wholereport_respacc0,wholereport_respacc1,wholereport_respacc2,wholereport_respacc3,wholereport_respacc4,wholereport_respacc5,wholereport_respacc_total,wholereport_respcolorind0,wholereport_respcolorind1,wholereport_respcolorind2,wholereport_respcolorind3,wholereport_respcolorind4,wholereport_respcolorind5,wholereport_resporder0,wholereport_resporder1,wholereport_resporder2,wholereport_resporder3,wholereport_resporder4,wholereport_resporder5,wholereport_rts0,wholereport_rts1,wholereport_rts2,wholereport_rts3,wholereport_rts4,wholereport_rts5,time_blockstart,time_encarray_offset,time_encarray_onset,time_response,time_iti_offset,time_iti_onset,time_memprobe_offset,time_memprobe_onset
1,1,1,1,nan,nan,nan,0.0,1,4,7,0,2,5,nan,nan,nan,nan,nan,nan,nan,nan,nan,nan,nan,nan,0.0,nan,nan,nan,nan,nan,nan,nan,nan,nan,nan,nan,nan,nan,nan,nan,nan,nan,nan,217.1812471076846,218.19523906288669,nan,nan,nan,nan,nan,nan
1,2,1,1,1.0,1.0,0.5773402056656778,0.0,3,7,6,5,8,1,nan,nan,nan,nan,nan,nan,nan,nan,nan,nan,nan,nan,0.0,nan,nan,nan,nan,nan,nan,nan,nan,nan,nan,nan,nan,nan,nan,nan,nan,nan,nan,217.1812471076846,219.2038828972727,nan,219.78122310293838,nan,nan,nan,nan
1,3,1,1,1.0,1.0,0.5770066431723535,0.0,7,8,3,6,0,2,nan,nan,nan,nan,nan,nan,nan,nan,nan,nan,nan,nan,0.0,nan,nan,nan,nan,nan,nan,nan,nan,nan,nan,nan,nan,nan,nan,nan,nan,nan,nan,217.1812471076846,220.21215952700004,nan,220.7891661701724,nan,nan,nan,nan
1,4,0,0,0.0,1.0,0.7285358849912882,1.0,4,2,1,5,7,0,1.0,1.0,1.0,1.0,1.0,1.0,1.0,0.0,0.0,0.0,0.0,0.0,1.0,4.0,7.0,4.0,0.0,5.0,4.0,4.0,3.0,2.0,1.0,6.0,5.0,6.444870505016297,5.5087688490748405,4.444655827712268,2.9109732704237103,9.348003912717104,7.916553174611181,217.1812471076846,221.22061177669093,222.0290236561559,221.94914766168222,232.42195646138862,233.429818846751,223.03748873481527,232.41362822894007
1,5,1,1,1.0,1.0,0.76607223181054,0.0,0,3,6,2,4,7,nan,nan,nan,nan,nan,nan,nan,nan,nan,nan,nan,nan,0.0,nan,nan,nan,nan,nan,nan,nan,nan,nan,nan,nan,nan,nan,nan,nan,nan,nan,nan,217.1812471076846,233.6388069628738,nan,234.40487919468433,nan,nan,nan,nan
1,6,1,1,1.0,1.0,0.717577924951911,0.0,6,7,2,3,0,5,nan,nan,nan,nan,nan,nan,nan,nan,nan,nan,nan,nan,0.0,nan,nan,nan,nan,nan,nan,nan,nan,nan,nan,nan,nan,nan,nan,nan,nan,nan,nan,217.1812471076846,234.6472600675188,nan,235.3648379924707,nan,nan,nan,nan
1,7,1,1,1.0,1.0,0.5091044069267809,0.0,7,6,0,5,3,8,nan,nan,nan,nan,nan,nan,nan,nan,nan,nan,nan,nan,0.0,nan,nan,nan,nan,nan,nan,nan,nan,nan,nan,nan,nan,nan,nan,nan,nan,nan,nan,217.1812471076846,235.65571801923215,nan,236.16482242615893,nan,nan,nan,nan
1,8,1,1,1.0,1.0,0.5486335763707757,0.0,4,1,8,7,0,3,nan,nan,nan,nan,nan,nan,nan,nan,nan,nan,nan,nan,0.0,nan,nan,nan,nan,nan,nan,nan,nan,nan,nan,nan,nan,nan,nan,nan,nan,nan,nan,217.1812471076846,236.66416257061064,nan,237.21279614698142,nan,nan,nan,nan
1,9,1,1,1.0,1.0,0.4684493928216398,0.0,6,3,0,5,2,7,nan,nan,nan,nan,nan,nan,nan,nan,nan,nan,nan,nan,0.0,nan,nan,nan,nan,nan,nan,nan,nan,nan,nan,nan,nan,nan,nan,nan,nan,nan,nan,217.1812471076846,237.66431538248435,nan,238.132764775306,nan,nan,nan,nan
1,10,1,1,1.0,1.0,0.540000575594604,0.0,4,7,6,8,1,5,nan,nan,nan,nan,nan,nan,nan,nan,nan,nan,nan,nan,0.0,nan,nan,nan,nan,nan,nan,nan,nan,nan,nan,nan,nan,nan,nan,nan,nan,nan,nan,217.1812471076846,238.67274567950517,nan,239.21274625509977,nan,nan,nan,nan
1,11,1,1,1.0,1.0,0.5397656564600766,0.0,3,5,2,1,4,6,nan,nan,nan,nan,nan,nan,nan,nan,nan,nan,nan,nan,0.0,nan,nan,nan,nan,nan,nan,nan,nan,nan,nan,nan,nan,nan,nan,nan,nan,nan,nan,217.1812471076846,239.6729389745742,nan,240.21270463103428,nan,nan,nan,nan
1,12,1,1,1.0,1.0,0.523352948948741,0.0,6,1,8,2,7,3,nan,nan,nan,nan,nan,nan,nan,nan,nan,nan,nan,nan,0.0,nan,nan,nan,nan,nan,nan,nan,nan,nan,nan,nan,nan,nan,nan,nan,nan,nan,nan,217.1812471076846,240.6813370557502,nan,241.20469000469893,nan,nan,nan,nan
1,13,1,1,1.0,1.0,0.506891489494592,0.0,4,0,6,3,8,2,nan,nan,nan,nan,nan,nan,nan,nan,nan,nan,nan,nan,0.0,nan,nan,nan,nan,nan,nan,nan,nan,nan,nan,nan,nan,nan,nan,nan,nan,nan,nan,217.1812471076846,241.68979215621948,nan,242.19668364571407,nan,nan,nan,nan
1,14,0,0,0.0,1.0,0.7064052866771817,0.0,0,6,4,7,1,3,nan,nan,nan,nan,nan,nan,nan,nan,nan,nan,nan,nan,0.0,nan,nan,nan,nan,nan,nan,nan,nan,nan,nan,nan,nan,nan,nan,nan,nan,nan,nan,217.1812471076846,242.69824497541413,nan,243.4046502620913,nan,nan,nan,nan
1,15,1,1,1.0,1.0,0.785904954187572,0.0,1,0,2,8,6,4,nan,nan,nan,nan,nan,nan,nan,nan,nan,nan,nan,nan,0.0,nan,nan,nan,nan,nan,nan,nan,nan,nan,nan,nan,nan,nan,nan,nan,nan,nan,nan,217.1812471076846,243.70670720329508,nan,244.49261215748265,nan,nan,nan,nan
1,16,1,1,1.0,1.0,0.5774254496209323,0.0,7,1,8,6,3,5,nan,nan,nan,nan,nan,nan,nan,nan,nan,nan,nan,nan,0.0,nan,nan,nan,nan,nan,nan,nan,nan,nan,nan,nan,nan,nan,nan,nan,nan,nan,nan,217.1812471076846,244.71518397098407,nan,245.292609420605,nan,nan,nan,nan
1,17,0,0,nan,nan,nan,1.0,1,8,4,5,2,0,1.0,1.0,1.0,1.0,1.0,1.0,0.0,1.0,1.0,0.0,1.0,0.0,3.0,7.0,8.0,4.0,1.0,2.0,3.0,3.0,2.0,1.0,4.0,5.0,6.0,7.229396732989699,3.934485160280019,2.0938995950855315,8.573042379226536,9.821013134904206,12.180199094116688,217.1812471076846,245.72359003452584,246.5320404022932,nan,259.75866371952,260.7603953941725,247.54051745543256,259.7503306400031
1,18,1,1,1.0,1.0,0.7330663502216339,0.0,5,1,7,3,8,6,nan,nan,nan,nan,nan,nan,nan,nan,nan,nan,nan,nan,0.0,nan,nan,nan,nan,nan,nan,nan,nan,nan,nan,nan,nan,nan,nan,nan,nan,nan,nan,217.1812471076846,260.96717686532065,nan,261.7002432155423,nan,nan,nan,nan
1,19,0,0,nan,nan,nan,1.0,1,7,3,4,6,5,1.0,1.0,1.0,1.0,1.0,1.0,0.0,0.0,1.0,0.0,0.0,0.0,1.0,4.0,8.0,3.0,6.0,4.0,2.0,5.0,6.0,1.0,2.0,3.0,4.0,10.223294247407466,13.04730545496568,1.5371550298295915,6.70514658652246,7.977223088033497,9.152898559346795,217.1812471076846,261.97563225077465,262.7840409944765,nan,276.8857724694535,277.8888141619973,263.8008377267979,276.87744138622656
1,20,1,1,1.0,1.0,0.765571887139231,0.0,0,4,7,8,2,6,nan,nan,nan,nan,nan,nan,nan,nan,nan,nan,nan,nan,0.0,nan,nan,nan,nan,nan,nan,nan,nan,nan,nan,nan,nan,nan,nan,nan,nan,nan,nan,217.1812471076846,278.0942821945064,nan,278.8598540816456,nan,nan,nan,nan
1,21,1,1,1.0,1.0,0.597048626281321,0.0,1,6,5,2,3,7,nan,nan,nan,nan,nan,nan,nan,nan,nan,nan,nan,nan,0.0,nan,nan,nan,nan,nan,nan,nan,nan,nan,nan,nan,nan,nan,nan,nan,nan,nan,nan,217.1812471076846,279.1027355841361,nan,279.6997842104174,nan,nan,nan,nan
1,22,1,1,1.0,1.0,0.46857483498752117,0.0,4,7,8,1,5,2,nan,nan,nan,nan,nan,nan,nan,nan,nan,nan,nan,nan,0.0,nan,nan,nan,nan,nan,nan,nan,nan,nan,nan,nan,nan,nan,nan,nan,nan,nan,nan,217.1812471076846,280.11120322858915,nan,280.57977806357667,nan,nan,nan,nan
1,23,1,1,1.0,1.0,0.3801131662912667,0.0,1,5,6,2,0,3,nan,nan,nan,nan,nan,nan,nan,nan,nan,nan,nan,nan,0.0,nan,nan,nan,nan,nan,nan,nan,nan,nan,nan,nan,nan,nan,nan,nan,nan,nan,nan,217.1812471076846,281.119648065418,nan,281.4997612317093,nan,nan,nan,nan
1,24,1,1,1.0,1.0,0.3959400011226535,0.0,5,7,2,0,1,6,nan,nan,nan,nan,nan,nan,nan,nan,nan,nan,nan,nan,0.0,nan,nan,nan,nan,nan,nan,nan,nan,nan,nan,nan,nan,nan,nan,nan,nan,nan,nan,217.1812471076846,282.11979431984946,nan,282.5157343209721,nan,nan,nan,nan
1,25,1,1,1.0,1.0,0.41147945867851377,0.0,4,1,8,2,5,0,nan,nan,nan,nan,nan,nan,nan,nan,nan,nan,nan,nan,0.0,nan,nan,nan,nan,nan,nan,nan,nan,nan,nan,nan,nan,nan,nan,nan,nan,nan,nan,217.1812471076846,283.1282257572748,nan,283.5397052159533,nan,nan,nan,nan
1,26,1,1,1.0,1.0,0.3150088652037084,0.0,6,8,5,7,3,4,nan,nan,nan,nan,nan,nan,nan,nan,nan,nan,nan,nan,0.0,nan,nan,nan,nan,nan,nan,nan,nan,nan,nan,nan,nan,nan,nan,nan,nan,nan,nan,217.1812471076846,284.13668513391167,nan,284.4516939991154,nan,nan,nan,nan
1,27,1,1,1.0,1.0,0.49850281700491905,0.0,8,3,7,0,6,2,nan,nan,nan,nan,nan,nan,nan,nan,nan,nan,nan,nan,0.0,nan,nan,nan,nan,nan,nan,nan,nan,nan,nan,nan,nan,nan,nan,nan,nan,nan,nan,217.1812471076846,285.14515791041777,nan,285.6436607274227,nan,nan,nan,nan
1,28,1,1,1.0,1.0,0.3940443955361843,0.0,0,7,6,4,2,8,nan,nan,nan,nan,nan,nan,nan,nan,nan,nan,nan,nan,0.0,nan,nan,nan,nan,nan,nan,nan,nan,nan,nan,nan,nan,nan,nan,nan,nan,nan,nan,217.1812471076846,286.15359676023945,nan,286.54764115577564,nan,nan,nan,nan
1,29,1,1,1.0,1.0,0.41754915844649076,0.0,3,4,7,8,0,2,nan,nan,nan,nan,nan,nan,nan,nan,nan,nan,nan,nan,0.0,nan,nan,nan,nan,nan,nan,nan,nan,nan,nan,nan,nan,nan,nan,nan,nan,nan,nan,217.1812471076846,287.1620641197078,nan,287.5796132781543,nan,nan,nan,nan
1,30,1,1,1.0,1.0,0.401084563229233,0.0,4,0,6,2,5,8,nan,nan,nan,nan,nan,nan,nan,nan,nan,nan,nan,nan,0.0,nan,nan,nan,nan,nan,nan,nan,nan,nan,nan,nan,nan,nan,nan,nan,nan,nan,nan,217.1812471076846,288.1705135181546,nan,288.57159808138385,nan,nan,nan,nan
1,31,0,0,nan,nan,nan,0.0,8,4,3,7,2,0,nan,nan,nan,nan,nan,nan,nan,nan,nan,nan,nan,nan,0.0,nan,nan,nan,nan,nan,nan,nan,nan,nan,nan,nan,nan,nan,nan,nan,nan,nan,nan,217.1812471076846,289.1789623461664,nan,nan,nan,nan,nan,nan
1,32,1,1,nan,nan,nan,0.0,1,3,8,2,0,4,nan,nan,nan,nan,nan,nan,nan,nan,nan,nan,nan,nan,0.0,nan,nan,nan,nan,nan,nan,nan,nan,nan,nan,nan,nan,nan,nan,nan,nan,nan,nan,217.1812471076846,290.1874302760698,nan,nan,nan,nan,nan,nan
1,33,1,1,1.0,1.0,0.26366844214498997,0.0,3,6,7,8,5,2,nan,nan,nan,nan,nan,nan,nan,nan,nan,nan,nan,nan,0.0,nan,nan,nan,nan,nan,nan,nan,nan,nan,nan,nan,nan,nan,nan,nan,nan,nan,nan,217.1812471076846,291.19588052947074,nan,291.45954897161573,nan,nan,nan,nan
1,34,1,1,1.0,1.0,0.33512098202481866,0.0,6,5,8,4,7,3,nan,nan,nan,nan,nan,nan,nan,nan,nan,nan,nan,nan,0.0,nan,nan,nan,nan,nan,nan,nan,nan,nan,nan,nan,nan,nan,nan,nan,nan,nan,nan,217.1812471076846,292.20437126699835,nan,292.53949224902317,nan,nan,nan,nan
1,35,1,1,1.0,1.0,0.3590012164786458,0.0,2,0,7,1,4,6,nan,nan,nan,nan,nan,nan,nan,nan,nan,nan,nan,nan,0.0,nan,nan,nan,nan,nan,nan,nan,nan,nan,nan,nan,nan,nan,nan,nan,nan,nan,nan,217.1812471076846,293.20448616100475,nan,293.5634873774834,nan,nan,nan,nan
1,36,1,1,1.0,1.0,0.37486083758994937,0.0,5,6,4,3,8,1,nan,nan,nan,nan,nan,nan,nan,nan,nan,nan,nan,nan,0.0,nan,nan,nan,nan,nan,nan,nan,nan,nan,nan,nan,nan,nan,nan,nan,nan,nan,nan,217.1812471076846,294.2046039053239,nan,294.57946474291384,nan,nan,nan,nan
1,37,0,0,0.0,1.0,0.5823886906728148,0.0,0,1,2,6,4,8,nan,nan,nan,nan,nan,nan,nan,nan,nan,nan,nan,nan,0.0,nan,nan,nan,nan,nan,nan,nan,nan,nan,nan,nan,nan,nan,nan,nan,nan,nan,nan,217.1812471076846,295.21304332558066,nan,295.79543201625347,nan,nan,nan,nan
1,38,1,1,1.0,1.0,0.4139144658111036,0.0,7,3,1,8,2,5,nan,nan,nan,nan,nan,nan,nan,nan,nan,nan,nan,nan,0.0,nan,nan,nan,nan,nan,nan,nan,nan,nan,nan,nan,nan,nan,nan,nan,nan,nan,nan,217.1812471076846,296.2215055534616,nan,296.6354200192727,nan,nan,nan,nan
1,39,1,1,1.0,1.0,0.34178539272397757,0.0,2,8,4,3,7,1,nan,nan,nan,nan,nan,nan,nan,nan,nan,nan,nan,nan,0.0,nan,nan,nan,nan,nan,nan,nan,nan,nan,nan,nan,nan,nan,nan,nan,nan,nan,nan,217.1812471076846,297.2216096133925,nan,297.5633950061165,nan,nan,nan,nan
1,40,1,1,1.0,1.0,0.30127292638644576,0.0,0,3,6,7,4,5,nan,nan,nan,nan,nan,nan,nan,nan,nan,nan,nan,nan,0.0,nan,nan,nan,nan,nan,nan,nan,nan,nan,nan,nan,nan,nan,nan,nan,nan,nan,nan,217.1812471076846,298.23009122768417,nan,298.5313641540706,nan,nan,nan,nan
1,41,1,1,1.0,1.0,0.4368133987300098,0.0,8,0,7,5,2,3,nan,nan,nan,nan,nan,nan,nan,nan,nan,nan,nan,nan,0.0,nan,nan,nan,nan,nan,nan,nan,nan,nan,nan,nan,nan,nan,nan,nan,nan,nan,nan,217.1812471076846,299.2385400561616,nan,299.6753534548916,nan,nan,nan,nan
1,42,1,1,1.0,1.0,0.38032128661870956,0.0,0,1,2,6,8,4,nan,nan,nan,nan,nan,nan,nan,nan,nan,nan,nan,nan,0.0,nan,nan,nan,nan,nan,nan,nan,nan,nan,nan,nan,nan,nan,nan,nan,nan,nan,nan,217.1812471076846,300.2470008581877,nan,300.6273221448064,nan,nan,nan,nan
1,43,1,1,1.0,1.0,0.35582695435732603,0.0,3,5,4,2,0,6,nan,nan,nan,nan,nan,nan,nan,nan,nan,nan,nan,nan,0.0,nan,nan,nan,nan,nan,nan,nan,nan,nan,nan,nan,nan,nan,nan,nan,nan,nan,nan,217.1812471076846,301.25546109024435,nan,301.6112880446017,nan,nan,nan,nan
1,44,1,1,1.0,1.0,0.3153435681015253,0.0,0,1,2,5,8,3,nan,nan,nan,nan,nan,nan,nan,nan,nan,nan,nan,nan,0.0,nan,nan,nan,nan,nan,nan,nan,nan,nan,nan,nan,nan,nan,nan,nan,nan,nan,nan,217.1812471076846,302.26392274769023,nan,302.57926631579176,nan,nan,nan,nan
1,45,1,1,1.0,1.0,0.3548507848754525,0.0,8,5,6,1,3,4,nan,nan,nan,nan,nan,nan,nan,nan,nan,nan,nan,nan,0.0,nan,nan,nan,nan,nan,nan,nan,nan,nan,nan,nan,nan,nan,nan,nan,nan,nan,nan,217.1812471076846,303.2724092085846,nan,303.62725999346003,nan,nan,nan,nan
1,46,1,1,1.0,1.0,0.31440759683027864,0.0,7,1,4,5,8,6,nan,nan,nan,nan,nan,nan,nan,nan,nan,nan,nan,nan,0.0,nan,nan,nan,nan,nan,nan,nan,nan,nan,nan,nan,nan,nan,nan,nan,nan,nan,nan,217.1812471076846,304.28082867199555,nan,304.59523626882583,nan,nan,nan,nan
1,47,0,0,0.0,1.0,0.7298983605578542,1.0,1,8,0,3,5,4,1.0,1.0,1.0,1.0,1.0,1.0,0.0,1.0,0.0,0.0,0.0,0.0,1.0,3.0,8.0,1.0,8.0,0.0,2.0,3.0,2.0,4.0,1.0,5.0,6.0,5.878082852810621,3.316529283300042,7.0852255411446095,1.9490042584948242,8.101208608597517,9.18844236806035,217.1812471076846,305.2892971718684,306.0976953669451,306.01919553242624,316.3489450151101,317.35594298830256,307.122827174142,316.34060880029574
1,48,1,1,1.0,1.0,0.5414528562687337,0.0,2,5,3,6,7,1,nan,nan,nan,nan,nan,nan,nan,nan,nan,nan,nan,nan,0.0,nan,nan,nan,nan,nan,nan,nan,nan,nan,nan,nan,nan,nan,nan,nan,nan,nan,nan,217.1812471076846,317.5574635779485,nan,318.09891643421724,nan,nan,nan,nan
1,49,1,1,1.0,1.0,0.3732833997346461,0.0,0,2,4,5,1,6,nan,nan,nan,nan,nan,nan,nan,nan,nan,nan,nan,nan,0.0,nan,nan,nan,nan,nan,nan,nan,nan,nan,nan,nan,nan,nan,nan,nan,nan,nan,nan,217.1812471076846,318.5576018495485,nan,318.93088524928316,nan,nan,nan,nan
1,50,0,0,0.0,1.0,0.6368058724328876,1.0,2,4,3,6,8,7,1.0,1.0,1.0,1.0,1.0,1.0,0.0,1.0,1.0,0.0,0.0,0.0,2.0,5.0,4.0,3.0,8.0,1.0,2.0,4.0,2.0,1.0,3.0,6.0,5.0,5.337245519272983,2.3613073602318764,1.329826173838228,3.9778522956185043,8.007772294338793,6.512251584790647,217.1812471076846,319.56605067802593,320.374458566308,320.2028565504588,329.43390256585553,330.4440243388526,321.3912535882555,329.425574333407
1,51,1,1,1.0,1.0,0.39189876103773713,0.0,7,3,0,2,4,5,nan,nan,nan,nan,nan,nan,nan,nan,nan,nan,nan,nan,0.0,nan,nan,nan,nan,nan,nan,nan,nan,nan,nan,nan,nan,nan,nan,nan,nan,nan,nan,217.1812471076846,330.65074593992904,nan,331.0426447009668,nan,nan,nan,nan
1,52,1,1,1.0,1.0,0.32741796551272273,0.0,8,5,3,4,6,2,nan,nan,nan,nan,nan,nan,nan,nan,nan,nan,nan,nan,0.0,nan,nan,nan,nan,nan,nan,nan,nan,nan,nan,nan,nan,nan,nan,nan,nan,nan,nan,217.1812471076846,331.65920018497854,nan,331.98661815049127,nan,nan,nan,nan
1,53,1,1,1.0,1.0,0.3592241620644927,0.0,5,3,6,0,8,7,nan,nan,nan,nan,nan,nan,nan,nan,nan,nan,nan,nan,0.0,nan,nan,nan,nan,nan,nan,nan,nan,nan,nan,nan,nan,nan,nan,nan,nan,nan,nan,217.1812471076846,332.6593478647992,nan,333.0185720268637,nan,nan,nan,nan
1,54,1,1,1.0,1.0,0.3187681445851922,0.0,4,8,5,3,0,6,nan,nan,nan,nan,nan,nan,nan,nan,nan,nan,nan,nan,0.0,nan,nan,nan,nan,nan,nan,nan,nan,nan,nan,nan,nan,nan,nan,nan,nan,nan,nan,217.1812471076846,333.66777702141553,nan,333.9865451660007,nan,nan,nan,nan
1,55,1,1,1.0,1.0,0.3185891043394804,0.0,2,6,8,1,4,7,nan,nan,nan,nan,nan,nan,nan,nan,nan,nan,nan,nan,0.0,nan,nan,nan,nan,nan,nan,nan,nan,nan,nan,nan,nan,nan,nan,nan,nan,nan,nan,217.1812471076846,334.66792954783887,nan,334.98651865217835,nan,nan,nan,nan
1,56,1,1,1.0,1.0,0.31045587733387947,0.0,7,0,2,8,3,5,nan,nan,nan,nan,nan,nan,nan,nan,nan,nan,nan,nan,0.0,nan,nan,nan,nan,nan,nan,nan,nan,nan,nan,nan,nan,nan,nan,nan,nan,nan,nan,217.1812471076846,335.66805014386773,nan,335.9785060212016,nan,nan,nan,nan
1,57,1,1,1.0,1.0,0.3023163788020611,0.0,2,5,3,4,7,1,nan,nan,nan,nan,nan,nan,nan,nan,nan,nan,nan,nan,0.0,nan,nan,nan,nan,nan,nan,nan,nan,nan,nan,nan,nan,nan,nan,nan,nan,nan,nan,217.1812471076846,336.6681627565995,nan,336.97047913540155,nan,nan,nan,nan
1,58,1,1,1.0,1.0,0.28617593785747886,0.0,0,3,5,1,2,4,nan,nan,nan,nan,nan,nan,nan,nan,nan,nan,nan,nan,0.0,nan,nan,nan,nan,nan,nan,nan,nan,nan,nan,nan,nan,nan,nan,nan,nan,nan,nan,217.1812471076846,337.66828620340675,nan,337.95446214126423,nan,nan,nan,nan
1,59,1,1,1.0,1.0,0.32601272594183683,0.0,1,7,2,6,3,5,nan,nan,nan,nan,nan,nan,nan,nan,nan,nan,nan,nan,0.0,nan,nan,nan,nan,nan,nan,nan,nan,nan,nan,nan,nan,nan,nan,nan,nan,nan,nan,217.1812471076846,338.6684133564122,nan,338.99442608235404,nan,nan,nan,nan
1,60,1,1,1.0,1.0,0.3578690988942981,0.0,2,0,6,3,1,8,nan,nan,nan,nan,nan,nan,nan,nan,nan,nan,nan,nan,0.0,nan,nan,nan,nan,nan,nan,nan,nan,nan,nan,nan,nan,nan,nan,nan,nan,nan,nan,217.1812471076846,339.66854393063113,nan,340.02641302952543,nan,nan,nan,nan
1,61,1,1,1.0,1.0,0.37338033225387335,0.0,7,6,5,4,2,3,nan,nan,nan,nan,nan,nan,nan,nan,nan,nan,nan,nan,0.0,nan,nan,nan,nan,nan,nan,nan,nan,nan,nan,nan,nan,nan,nan,nan,nan,nan,nan,217.1812471076846,340.677026970312,nan,341.0504073025659,nan,nan,nan,nan
1,62,1,1,1.0,1.0,0.4452399895526469,0.0,4,8,0,5,1,6,nan,nan,nan,nan,nan,nan,nan,nan,nan,nan,nan,nan,0.0,nan,nan,nan,nan,nan,nan,nan,nan,nan,nan,nan,nan,nan,nan,nan,nan,nan,nan,217.1812471076846,341.67711278423667,nan,342.1223527737893,nan,nan,nan,nan
1,63,1,1,1.0,1.0,0.44487107545137405,0.0,7,1,2,8,0,4,nan,nan,nan,nan,nan,nan,nan,nan,nan,nan,nan,nan,0.0,nan,nan,nan,nan,nan,nan,nan,nan,nan,nan,nan,nan,nan,nan,nan,nan,nan,nan,217.1812471076846,342.67747998796403,nan,343.1223510634154,nan,nan,nan,nan
1,64,1,1,1.0,1.0,0.37261570431292057,0.0,8,5,7,0,4,6,nan,nan,nan,nan,nan,nan,nan,nan,nan,nan,nan,nan,0.0,nan,nan,nan,nan,nan,nan,nan,nan,nan,nan,nan,nan,nan,nan,nan,nan,nan,nan,217.1812471076846,343.68569218646735,nan,344.05830789078027,nan,nan,nan,nan
1,65,1,1,1.0,1.0,0.3084311238490045,0.0,4,8,6,1,7,3,nan,nan,nan,nan,nan,nan,nan,nan,nan,nan,nan,nan,0.0,nan,nan,nan,nan,nan,nan,nan,nan,nan,nan,nan,nan,nan,nan,nan,nan,nan,nan,217.1812471076846,344.6858538361266,nan,344.99428495997563,nan,nan,nan,nan
1,66,0,0,0.0,1.0,0.6763005452230573,1.0,0,1,4,8,6,2,1.0,1.0,1.0,1.0,1.0,1.0,1.0,0.0,0.0,1.0,1.0,0.0,3.0,0.0,5.0,8.0,8.0,6.0,7.0,3.0,4.0,5.0,1.0,2.0,6.0,6.504117502830923,8.591929152607918,9.735837201122195,3.0824874765239656,4.353424448054284,13.247255734633654,217.1812471076846,345.6859550452791,346.4943438321352,346.3622555905022,360.7961034178734,361.7993438220583,347.5111368582584,360.7877709087916
1,67,1,1,1.0,1.0,0.4133032192476094,0.0,8,0,1,3,2,5,nan,nan,nan,nan,nan,nan,nan,nan,nan,nan,nan,nan,0.0,nan,nan,nan,nan,nan,nan,nan,nan,nan,nan,nan,nan,nan,nan,nan,nan,nan,nan,217.1812471076846,362.00461342791095,nan,362.41791664715856,nan,nan,nan,nan
1,68,1,1,1.0,1.0,0.36477156495675445,0.0,5,3,8,4,6,1,nan,nan,nan,nan,nan,nan,nan,nan,nan,nan,nan,nan,0.0,nan,nan,nan,nan,nan,nan,nan,nan,nan,nan,nan,nan,nan,nan,nan,nan,nan,nan,217.1812471076846,363.0130842085928,nan,363.3778557735495,nan,nan,nan,nan
1,69,1,1,1.0,1.0,0.3166475985199213,0.0,2,0,3,6,8,5,nan,nan,nan,nan,nan,nan,nan,nan,nan,nan,nan,nan,0.0,nan,nan,nan,nan,nan,nan,nan,nan,nan,nan,nan,nan,nan,nan,nan,nan,nan,nan,217.1812471076846,364.0131999575533,nan,364.3298475560732,nan,nan,nan,nan
1,70,1,1,1.0,1.0,0.3005034513771534,0.0,0,2,8,7,6,3,nan,nan,nan,nan,nan,nan,nan,nan,nan,nan,nan,nan,0.0,nan,nan,nan,nan,nan,nan,nan,nan,nan,nan,nan,nan,nan,nan,nan,nan,nan,nan,217.1812471076846,365.0133199831471,nan,365.31382343452424,nan,nan,nan,nan
1,71,1,1,1.0,1.0,0.26039069052785635,0.0,5,0,7,1,8,4,nan,nan,nan,nan,nan,nan,nan,nan,nan,nan,nan,nan,0.0,nan,nan,nan,nan,nan,nan,nan,nan,nan,nan,nan,nan,nan,nan,nan,nan,nan,nan,217.1812471076846,366.01341235404834,nan,366.2738030445762,nan,nan,nan,nan
1,72,1,1,1.0,1.0,0.24420976592227817,0.0,1,4,3,2,6,8,nan,nan,nan,nan,nan,nan,nan,nan,nan,nan,nan,nan,0.0,nan,nan,nan,nan,nan,nan,nan,nan,nan,nan,nan,nan,nan,nan,nan,nan,nan,nan,217.1812471076846,367.01356773171574,nan,367.257777497638,nan,nan,nan,nan
1,73,1,1,1.0,1.0,0.2677279277704656,0.0,6,2,1,5,3,0,nan,nan,nan,nan,nan,nan,nan,nan,nan,nan,nan,nan,0.0,nan,nan,nan,nan,nan,nan,nan,nan,nan,nan,nan,nan,nan,nan,nan,nan,nan,nan,217.1812471076846,368.02201570477337,nan,368.28974363254383,nan,nan,nan,nan
1,74,1,1,1.0,1.0,0.2755851815454662,0.0,7,3,0,6,2,1,nan,nan,nan,nan,nan,nan,nan,nan,nan,nan,nan,nan,0.0,nan,nan,nan,nan,nan,nan,nan,nan,nan,nan,nan,nan,nan,nan,nan,nan,nan,nan,217.1812471076846,369.0221525509842,nan,369.29773773252964,nan,nan,nan,nan
1,75,1,1,1.0,1.0,0.22747318865731359,0.0,3,7,5,8,4,6,nan,nan,nan,nan,nan,nan,nan,nan,nan,nan,nan,nan,0.0,nan,nan,nan,nan,nan,nan,nan,nan,nan,nan,nan,nan,nan,nan,nan,nan,nan,nan,217.1812471076846,370.02223608409986,nan,370.2497092727572,nan,nan,nan,nan
1,76,1,1,1.0,1.0,0.21097181644290686,0.0,6,0,2,3,5,7,nan,nan,nan,nan,nan,nan,nan,nan,nan,nan,nan,nan,0.0,nan,nan,nan,nan,nan,nan,nan,nan,nan,nan,nan,nan,nan,nan,nan,nan,nan,nan,217.1812471076846,371.03071826836094,nan,371.24169008480385,nan,nan,nan,nan
1,77,1,1,1.0,1.0,0.23449824610725045,0.0,3,5,7,2,0,1,nan,nan,nan,nan,nan,nan,nan,nan,nan,nan,nan,nan,0.0,nan,nan,nan,nan,nan,nan,nan,nan,nan,nan,nan,nan,nan,nan,nan,nan,nan,nan,217.1812471076846,372.039155122824,nan,372.27365336893126,nan,nan,nan,nan
1,78,1,1,1.0,1.0,0.28230832191184163,0.0,2,7,5,8,4,0,nan,nan,nan,nan,nan,nan,nan,nan,nan,nan,nan,nan,0.0,nan,nan,nan,nan,nan,nan,nan,nan,nan,nan,nan,nan,nan,nan,nan,nan,nan,nan,217.1812471076846,373.0393199082464,nan,373.32162823015824,nan,nan,nan,nan
1,79,1,1,1.0,1.0,0.562185627873987,0.0,1,0,6,5,7,4,nan,nan,nan,nan,nan,nan,nan,nan,nan,nan,nan,nan,0.0,nan,nan,nan,nan,nan,nan,nan,nan,nan,nan,nan,nan,nan,nan,nan,nan,nan,nan,217.1812471076846,374.03944449545816,nan,374.60163012333214,nan,nan,nan,nan
1,80,1,1,1.0,1.0,0.4740081997588277,0.0,5,3,4,6,0,2,nan,nan,nan,nan,nan,nan,nan,nan,nan,nan,nan,nan,0.0,nan,nan,nan,nan,nan,nan,nan,nan,nan,nan,nan,nan,nan,nan,nan,nan,nan,nan,217.1812471076846,375.03956708684564,nan,375.51357528660446,nan,nan,nan,nan
1,81,1,1,1.0,1.0,0.38587610237300396,0.0,8,1,0,3,7,5,nan,nan,nan,nan,nan,nan,nan,nan,nan,nan,nan,nan,0.0,nan,nan,nan,nan,nan,nan,nan,nan,nan,nan,nan,nan,nan,nan,nan,nan,nan,nan,217.1812471076846,376.03968283580616,nan,376.42555893817917,nan,nan,nan,nan
1,82,1,1,1.0,1.0,0.3537431857548654,0.0,1,0,2,7,5,4,nan,nan,nan,nan,nan,nan,nan,nan,nan,nan,nan,nan,0.0,nan,nan,nan,nan,nan,nan,nan,nan,nan,nan,nan,nan,nan,nan,nan,nan,nan,nan,217.1812471076846,377.0398097038269,nan,377.39355288958177,nan,nan,nan,nan
1,83,1,1,1.0,1.0,0.35327733820304275,0.0,5,2,0,6,4,8,nan,nan,nan,nan,nan,nan,nan,nan,nan,nan,nan,nan,0.0,nan,nan,nan,nan,nan,nan,nan,nan,nan,nan,nan,nan,nan,nan,nan,nan,nan,nan,217.1812471076846,378.0482448474504,nan,378.40152218565345,nan,nan,nan,nan
1,84,1,1,1.0,1.0,0.3370912824757397,0.0,4,1,3,2,6,5,nan,nan,nan,nan,nan,nan,nan,nan,nan,nan,nan,nan,0.0,nan,nan,nan,nan,nan,nan,nan,nan,nan,nan,nan,nan,nan,nan,nan,nan,nan,nan,217.1812471076846,379.04839794384316,nan,379.3854892263189,nan,nan,nan,nan
1,85,1,1,1.0,1.0,0.3369666952639818,0.0,7,4,1,0,8,3,nan,nan,nan,nan,nan,nan,nan,nan,nan,nan,nan,nan,0.0,nan,nan,nan,nan,nan,nan,nan,nan,nan,nan,nan,nan,nan,nan,nan,nan,nan,nan,217.1812471076846,380.04851283784956,nan,380.38547953311354,nan,nan,nan,nan
1,86,1,1,1.0,1.0,0.2968114544637501,0.0,6,5,4,2,0,8,nan,nan,nan,nan,nan,nan,nan,nan,nan,nan,nan,nan,0.0,nan,nan,nan,nan,nan,nan,nan,nan,nan,nan,nan,nan,nan,nan,nan,nan,nan,nan,217.1812471076846,381.04863286344334,nan,381.3454443179071,nan,nan,nan,nan
1,87,1,1,1.0,1.0,0.28067671600729227,0.0,5,1,8,4,6,2,nan,nan,nan,nan,nan,nan,nan,nan,nan,nan,nan,nan,0.0,nan,nan,nan,nan,nan,nan,nan,nan,nan,nan,nan,nan,nan,nan,nan,nan,nan,nan,217.1812471076846,382.04875573981553,nan,382.3294324558228,nan,nan,nan,nan
1,88,1,1,1.0,1.0,0.3124851929023862,0.0,8,6,3,7,4,0,nan,nan,nan,nan,nan,nan,nan,nan,nan,nan,nan,nan,0.0,nan,nan,nan,nan,nan,nan,nan,nan,nan,nan,nan,nan,nan,nan,nan,nan,nan,nan,217.1812471076846,383.04891083203256,nan,383.36139602493495,nan,nan,nan,nan
1,89,1,1,1.0,1.0,0.24837274197489023,0.0,1,0,4,6,7,2,nan,nan,nan,nan,nan,nan,nan,nan,nan,nan,nan,nan,0.0,nan,nan,nan,nan,nan,nan,nan,nan,nan,nan,nan,nan,nan,nan,nan,nan,nan,nan,217.1812471076846,384.0490009225905,nan,384.2973736645654,nan,nan,nan,nan
1,90,1,1,1.0,1.0,0.30423137033358216,0.0,0,5,1,8,3,4,nan,nan,nan,nan,nan,nan,nan,nan,nan,nan,nan,nan,0.0,nan,nan,nan,nan,nan,nan,nan,nan,nan,nan,nan,nan,nan,nan,nan,nan,nan,nan,217.1812471076846,385.04912950098515,nan,385.3533608713187,nan,nan,nan,nan
1,91,1,1,1.0,1.0,0.29607904236763716,0.0,8,7,5,0,4,6,nan,nan,nan,nan,nan,nan,nan,nan,nan,nan,nan,nan,0.0,nan,nan,nan,nan,nan,nan,nan,nan,nan,nan,nan,nan,nan,nan,nan,nan,nan,nan,217.1812471076846,386.0492555135861,nan,386.34533455595374,nan,nan,nan,nan
1,92,1,1,1.0,1.0,0.3199387495405972,0.0,0,2,6,7,1,8,nan,nan,nan,nan,nan,nan,nan,nan,nan,nan,nan,nan,0.0,nan,nan,nan,nan,nan,nan,nan,nan,nan,nan,nan,nan,nan,nan,nan,nan,nan,nan,217.1812471076846,387.04938352201134,nan,387.36932227155194,nan,nan,nan,nan
1,93,1,1,1.0,1.0,0.29576657665893435,0.0,1,7,3,4,8,6,nan,nan,nan,nan,nan,nan,nan,nan,nan,nan,nan,nan,0.0,nan,nan,nan,nan,nan,nan,nan,nan,nan,nan,nan,nan,nan,nan,nan,nan,nan,nan,217.1812471076846,388.0495277806185,nan,388.34529435727745,nan,nan,nan,nan
1,94,1,1,1.0,1.0,0.2796617732383311,0.0,5,8,7,3,1,2,nan,nan,nan,nan,nan,nan,nan,nan,nan,nan,nan,nan,0.0,nan,nan,nan,nan,nan,nan,nan,nan,nan,nan,nan,nan,nan,nan,nan,nan,nan,nan,217.1812471076846,389.049614449963,nan,389.3292762232013,nan,nan,nan,nan
1,95,1,1,1.0,1.0,0.2951989499852061,0.0,4,5,2,0,8,1,nan,nan,nan,nan,nan,nan,nan,nan,nan,nan,nan,nan,0.0,nan,nan,nan,nan,nan,nan,nan,nan,nan,nan,nan,nan,nan,nan,nan,nan,nan,nan,217.1812471076846,390.05805928679183,nan,390.35325823677704,nan,nan,nan,nan
1,96,1,1,1.0,1.0,0.31070305593311787,0.0,5,7,8,1,0,3,nan,nan,nan,nan,nan,nan,nan,nan,nan,nan,nan,nan,0.0,nan,nan,nan,nan,nan,nan,nan,nan,nan,nan,nan,nan,nan,nan,nan,nan,nan,nan,217.1812471076846,391.0665186634287,nan,391.37722171936184,nan,nan,nan,nan
1,97,0,0,0.0,1.0,0.6302694701589644,0.0,4,8,1,0,2,6,nan,nan,nan,nan,nan,nan,nan,nan,nan,nan,nan,nan,0.0,nan,nan,nan,nan,nan,nan,nan,nan,nan,nan,nan,nan,nan,nan,nan,nan,nan,nan,217.1812471076846,392.07494953041896,nan,392.7052190005779,nan,nan,nan,nan
1,98,1,1,1.0,1.0,0.7900508241727948,0.0,7,0,2,3,6,5,nan,nan,nan,nan,nan,nan,nan,nan,nan,nan,nan,nan,0.0,nan,nan,nan,nan,nan,nan,nan,nan,nan,nan,nan,nan,nan,nan,nan,nan,nan,nan,217.1812471076846,393.0751157416962,nan,393.865166565869,nan,nan,nan,nan
1,99,1,1,1.0,1.0,0.7255854238756001,0.0,0,7,6,5,8,1,nan,nan,nan,nan,nan,nan,nan,nan,nan,nan,nan,nan,0.0,nan,nan,nan,nan,nan,nan,nan,nan,nan,nan,nan,nan,nan,nan,nan,nan,nan,nan,217.1812471076846,394.0835565873422,nan,394.8091420112178,nan,nan,nan,nan
1,100,1,1,1.0,1.0,0.4611061681061983,0.0,7,0,1,6,2,4,nan,nan,nan,nan,nan,nan,nan,nan,nan,nan,nan,nan,0.0,nan,nan,nan,nan,nan,nan,nan,nan,nan,nan,nan,nan,nan,nan,nan,nan,nan,nan,217.1812471076846,395.0920148235746,nan,395.55312099168077,nan,nan,nan,nan
1,101,1,1,1.0,1.0,0.508937340695411,0.0,8,5,3,4,7,1,nan,nan,nan,nan,nan,nan,nan,nan,nan,nan,nan,nan,0.0,nan,nan,nan,nan,nan,nan,nan,nan,nan,nan,nan,nan,nan,nan,nan,nan,nan,nan,217.1812471076846,396.0921582272276,nan,396.60109556792304,nan,nan,nan,nan
1,102,0,0,0.0,1.0,0.6527963522821665,0.0,1,0,5,6,3,4,nan,nan,nan,nan,nan,nan,nan,nan,nan,nan,nan,nan,0.0,nan,nan,nan,nan,nan,nan,nan,nan,nan,nan,nan,nan,nan,nan,nan,nan,nan,nan,217.1812471076846,397.0922796782106,nan,397.7450760304928,nan,nan,nan,nan
1,103,1,1,1.0,1.0,0.6286592464894056,0.0,6,8,0,7,4,2,nan,nan,nan,nan,nan,nan,nan,nan,nan,nan,nan,nan,0.0,nan,nan,nan,nan,nan,nan,nan,nan,nan,nan,nan,nan,nan,nan,nan,nan,nan,nan,217.1812471076846,398.09239599714056,nan,398.72105524362996,nan,nan,nan,nan
1,104,1,1,1.0,1.0,0.732494446914643,0.0,4,7,2,1,3,5,nan,nan,nan,nan,nan,nan,nan,nan,nan,nan,nan,nan,0.0,nan,nan,nan,nan,nan,nan,nan,nan,nan,nan,nan,nan,nan,nan,nan,nan,nan,nan,217.1812471076846,399.0925202993676,nan,399.82501474628225,nan,nan,nan,nan
1,105,1,1,1.0,1.0,0.6043679029680789,0.0,7,2,6,3,5,8,nan,nan,nan,nan,nan,nan,nan,nan,nan,nan,nan,nan,0.0,nan,nan,nan,nan,nan,nan,nan,nan,nan,nan,nan,nan,nan,nan,nan,nan,nan,nan,217.1812471076846,400.092652013991,nan,400.6970199169591,nan,nan,nan,nan
1,106,1,1,1.0,1.0,0.516224401537329,0.0,2,0,1,6,3,4,nan,nan,nan,nan,nan,nan,nan,nan,nan,nan,nan,nan,0.0,nan,nan,nan,nan,nan,nan,nan,nan,nan,nan,nan,nan,nan,nan,nan,nan,nan,nan,217.1812471076846,401.09276918834075,nan,401.6089935898781,nan,nan,nan,nan
1,107,1,1,1.0,1.0,0.45977904461324215,0.0,6,5,7,8,1,0,nan,nan,nan,nan,nan,nan,nan,nan,nan,nan,nan,nan,0.0,nan,nan,nan,nan,nan,nan,nan,nan,nan,nan,nan,nan,nan,nan,nan,nan,nan,nan,217.1812471076846,402.10119920037687,nan,402.5609782449901,nan,nan,nan,nan
1,108,1,1,1.0,1.0,0.3955867667682469,0.0,4,6,8,7,2,5,nan,nan,nan,nan,nan,nan,nan,nan,nan,nan,nan,nan,0.0,nan,nan,nan,nan,nan,nan,nan,nan,nan,nan,nan,nan,nan,nan,nan,nan,nan,nan,217.1812471076846,403.1013545775786,nan,403.49694134434685,nan,nan,nan,nan
1,109,1,1,1.0,1.0,0.38743016216903925,0.0,0,2,7,5,3,1,nan,nan,nan,nan,nan,nan,nan,nan,nan,nan,nan,nan,0.0,nan,nan,nan,nan,nan,nan,nan,nan,nan,nan,nan,nan,nan,nan,nan,nan,nan,nan,217.1812471076846,404.10148258600384,nan,404.4889127481729,nan,nan,nan,nan
1,110,1,1,1.0,1.0,0.3312938497401774,0.0,3,6,5,1,7,2,nan,nan,nan,nan,nan,nan,nan,nan,nan,nan,nan,nan,0.0,nan,nan,nan,nan,nan,nan,nan,nan,nan,nan,nan,nan,nan,nan,nan,nan,nan,nan,217.1812471076846,405.1015926329419,nan,405.4328864826821,nan,nan,nan,nan
1,111,0,0,0.0,1.0,0.4911188231781125,0.0,5,3,0,6,4,8,nan,nan,nan,nan,nan,nan,nan,nan,nan,nan,nan,nan,0.0,nan,nan,nan,nan,nan,nan,nan,nan,nan,nan,nan,nan,nan,nan,nan,nan,nan,nan,217.1812471076846,406.1017340407707,nan,406.5928528639488,nan,nan,nan,nan
1,112,1,1,1.0,1.0,0.5066725355572999,0.0,4,6,8,5,3,7,nan,nan,nan,nan,nan,nan,nan,nan,nan,nan,nan,nan,0.0,nan,nan,nan,nan,nan,nan,nan,nan,nan,nan,nan,nan,nan,nan,nan,nan,nan,nan,217.1812471076846,407.1101674740203,nan,407.6168400095776,nan,nan,nan,nan
1,113,1,1,1.0,1.0,0.3945176559500396,0.0,2,3,5,0,4,8,nan,nan,nan,nan,nan,nan,nan,nan,nan,nan,nan,nan,0.0,nan,nan,nan,nan,nan,nan,nan,nan,nan,nan,nan,nan,nan,nan,nan,nan,nan,nan,217.1812471076846,408.1103074559942,nan,408.5048251119442,nan,nan,nan,nan
1,114,1,1,1.0,1.0,0.45834757620468736,0.0,8,0,7,4,3,1,nan,nan,nan,nan,nan,nan,nan,nan,nan,nan,nan,nan,0.0,nan,nan,nan,nan,nan,nan,nan,nan,nan,nan,nan,nan,nan,nan,nan,nan,nan,nan,217.1812471076846,409.1104368898086,nan,409.5687844660133,nan,nan,nan,nan
1,115,1,1,1.0,1.0,0.34621236752718687,0.0,7,6,5,3,1,4,nan,nan,nan,nan,nan,nan,nan,nan,nan,nan,nan,nan,0.0,nan,nan,nan,nan,nan,nan,nan,nan,nan,nan,nan,nan,nan,nan,nan,nan,nan,nan,217.1812471076846,410.110551783815,nan,410.4567641513422,nan,nan,nan,nan
1,116,0,0,1.0,0.0,0.3061021724715829,0.0,0,4,6,2,3,5,nan,nan,nan,nan,nan,nan,nan,nan,nan,nan,nan,nan,0.0,nan,nan,nan,nan,nan,nan,nan,nan,nan,nan,nan,nan,nan,nan,nan,nan,nan,nan,217.1812471076846,411.1106561287306,nan,411.4167583012022,nan,nan,nan,nan
1,117,1,1,1.0,1.0,0.6979136937297881,0.0,3,6,1,7,2,4,nan,nan,nan,nan,nan,nan,nan,nan,nan,nan,nan,nan,0.0,nan,nan,nan,nan,nan,nan,nan,nan,nan,nan,nan,nan,nan,nan,nan,nan,nan,nan,217.1812471076846,412.11080780019984,nan,412.8087214939296,nan,nan,nan,nan
1,118,1,1,1.0,1.0,0.5057699210010469,0.0,2,0,5,6,7,8,nan,nan,nan,nan,nan,nan,nan,nan,nan,nan,nan,nan,0.0,nan,nan,nan,nan,nan,nan,nan,nan,nan,nan,nan,nan,nan,nan,nan,nan,nan,nan,217.1812471076846,413.1109301066026,nan,413.61670002760366,nan,nan,nan,nan
1,119,1,1,1.0,1.0,0.4656312162987888,0.0,3,6,4,5,1,0,nan,nan,nan,nan,nan,nan,nan,nan,nan,nan,nan,nan,0.0,nan,nan,nan,nan,nan,nan,nan,nan,nan,nan,nan,nan,nan,nan,nan,nan,nan,nan,217.1812471076846,414.11104642553255,nan,414.57667764183134,nan,nan,nan,nan
1,120,1,1,1.0,1.0,0.4091676129028201,0.0,1,5,0,7,6,4,nan,nan,nan,nan,nan,nan,nan,nan,nan,nan,nan,nan,0.0,nan,nan,nan,nan,nan,nan,nan,nan,nan,nan,nan,nan,nan,nan,nan,nan,nan,nan,217.1812471076846,415.1194878416136,nan,415.5286554545164,nan,nan,nan,nan
1,121,1,1,1.0,1.0,0.38500997982919216,0.0,0,4,7,3,8,6,nan,nan,nan,nan,nan,nan,nan,nan,nan,nan,nan,nan,0.0,nan,nan,nan,nan,nan,nan,nan,nan,nan,nan,nan,nan,nan,nan,nan,nan,nan,nan,217.1812471076846,416.1196255427785,nan,416.5046355226077,nan,nan,nan,nan
1,122,1,1,1.0,1.0,0.3608620399609208,0.0,5,3,1,0,4,2,nan,nan,nan,nan,nan,nan,nan,nan,nan,nan,nan,nan,0.0,nan,nan,nan,nan,nan,nan,nan,nan,nan,nan,nan,nan,nan,nan,nan,nan,nan,nan,217.1812471076846,417.1197449984029,nan,417.4806070383638,nan,nan,nan,nan
1,123,1,1,1.0,1.0,0.36872756108641624,0.0,4,6,2,8,7,0,nan,nan,nan,nan,nan,nan,nan,nan,nan,nan,nan,nan,0.0,nan,nan,nan,nan,nan,nan,nan,nan,nan,nan,nan,nan,nan,nan,nan,nan,nan,nan,217.1812471076846,418.1198675897904,nan,418.4885951508768,nan,nan,nan,nan
1,124,1,1,1.0,1.0,0.33656128868460655,0.0,7,4,6,0,8,3,nan,nan,nan,nan,nan,nan,nan,nan,nan,nan,nan,nan,0.0,nan,nan,nan,nan,nan,nan,nan,nan,nan,nan,nan,nan,nan,nan,nan,nan,nan,nan,217.1812471076846,419.11999787855893,nan,419.45655916724354,nan,nan,nan,nan
1,125,1,1,1.0,1.0,0.3604141538962722,0.0,3,8,5,6,2,1,nan,nan,nan,nan,nan,nan,nan,nan,nan,nan,nan,nan,0.0,nan,nan,nan,nan,nan,nan,nan,nan,nan,nan,nan,nan,nan,nan,nan,nan,nan,nan,217.1812471076846,420.1201227507554,nan,420.4805369046517,nan,nan,nan,nan
1,126,1,1,1.0,1.0,0.4562869006767869,0.0,8,5,1,3,0,2,nan,nan,nan,nan,nan,nan,nan,nan,nan,nan,nan,nan,0.0,nan,nan,nan,nan,nan,nan,nan,nan,nan,nan,nan,nan,nan,nan,nan,nan,nan,nan,217.1812471076846,421.1202393551357,nan,421.5765262558125,nan,nan,nan,nan
1,127,1,1,1.0,1.0,0.44811946200206876,0.0,6,7,0,2,8,5,nan,nan,nan,nan,nan,nan,nan,nan,nan,nan,nan,nan,0.0,nan,nan,nan,nan,nan,nan,nan,nan,nan,nan,nan,nan,nan,nan,nan,nan,nan,nan,217.1812471076846,422.12037106975913,nan,422.5684905317612,nan,nan,nan,nan
1,128,1,1,1.0,1.0,0.4319778811186552,0.0,3,1,4,7,2,0,nan,nan,nan,nan,nan,nan,nan,nan,nan,nan,nan,nan,0.0,nan,nan,nan,nan,nan,nan,nan,nan,nan,nan,nan,nan,nan,nan,nan,nan,nan,nan,217.1812471076846,423.1204970823601,nan,423.55247496347874,nan,nan,nan,nan
1,129,1,1,1.0,1.0,0.4878792744129896,0.0,0,4,8,6,5,3,nan,nan,nan,nan,nan,nan,nan,nan,nan,nan,nan,nan,0.0,nan,nan,nan,nan,nan,nan,nan,nan,nan,nan,nan,nan,nan,nan,nan,nan,nan,nan,217.1812471076846,424.12058774288744,nan,424.6084670173004,nan,nan,nan,nan
1,130,1,1,1.0,1.0,0.4797075600363314,0.0,4,0,7,8,1,5,nan,nan,nan,nan,nan,nan,nan,nan,nan,nan,nan,nan,0.0,nan,nan,nan,nan,nan,nan,nan,nan,nan,nan,nan,nan,nan,nan,nan,nan,nan,nan,217.1812471076846,425.12072743987665,nan,425.600434999913,nan,nan,nan,nan
1,131,1,1,1.0,1.0,0.5352189410477877,0.0,1,6,4,0,5,3,nan,nan,nan,nan,nan,nan,nan,nan,nan,nan,nan,nan,0.0,nan,nan,nan,nan,nan,nan,nan,nan,nan,nan,nan,nan,nan,nan,nan,nan,nan,nan,217.1812471076846,426.1291885273531,nan,426.6644074684009,nan,nan,nan,nan
1,132,0,0,0.0,1.0,0.5587587705813348,0.0,0,4,3,6,8,5,nan,nan,nan,nan,nan,nan,nan,nan,nan,nan,nan,nan,0.0,nan,nan,nan,nan,nan,nan,nan,nan,nan,nan,nan,nan,nan,nan,nan,nan,nan,nan,217.1812471076846,427.13763165380806,nan,427.6963904243894,nan,nan,nan,nan
1,133,1,1,1.0,1.0,0.5825808453373611,0.0,5,8,1,3,0,2,nan,nan,nan,nan,nan,nan,nan,nan,nan,nan,nan,nan,0.0,nan,nan,nan,nan,nan,nan,nan,nan,nan,nan,nan,nan,nan,nan,nan,nan,nan,nan,217.1812471076846,428.1377642233856,nan,428.72034506872296,nan,nan,nan,nan
1,134,1,1,nan,nan,nan,0.0,3,2,6,1,5,4,nan,nan,nan,nan,nan,nan,nan,nan,nan,nan,nan,nan,0.0,nan,nan,nan,nan,nan,nan,nan,nan,nan,nan,nan,nan,nan,nan,nan,nan,nan,nan,217.1812471076846,429.14621276641265,nan,nan,nan,nan,nan,nan
1,135,1,1,nan,nan,nan,0.0,5,6,7,0,8,1,nan,nan,nan,nan,nan,nan,nan,nan,nan,nan,nan,nan,0.0,nan,nan,nan,nan,nan,nan,nan,nan,nan,nan,nan,nan,nan,nan,nan,nan,nan,nan,217.1812471076846,430.146351323463,nan,nan,nan,nan,nan,nan
1,136,1,1,1.0,1.0,0.4218335854820907,0.0,1,5,0,7,6,4,nan,nan,nan,nan,nan,nan,nan,nan,nan,nan,nan,nan,0.0,nan,nan,nan,nan,nan,nan,nan,nan,nan,nan,nan,nan,nan,nan,nan,nan,nan,nan,217.1812471076846,431.1464719190262,nan,431.5683055045083,nan,nan,nan,nan
1,137,1,1,1.0,1.0,0.42167336121201515,0.0,4,6,3,8,1,0,nan,nan,nan,nan,nan,nan,nan,nan,nan,nan,nan,nan,0.0,nan,nan,nan,nan,nan,nan,nan,nan,nan,nan,nan,nan,nan,nan,nan,nan,nan,nan,217.1812471076846,432.1465930850245,nan,432.5682664462365,nan,nan,nan,nan
1,138,0,0,1.0,0.0,0.421526821795851,0.0,5,1,6,0,8,3,nan,nan,nan,nan,nan,nan,nan,nan,nan,nan,nan,nan,0.0,nan,nan,nan,nan,nan,nan,nan,nan,nan,nan,nan,nan,nan,nan,nan,nan,nan,nan,217.1812471076846,433.1467193826102,nan,433.568246204406,nan,nan,nan,nan
1,139,1,1,1.0,1.0,0.7810218245722353,0.0,3,0,8,6,7,2,nan,nan,nan,nan,nan,nan,nan,nan,nan,nan,nan,nan,0.0,nan,nan,nan,nan,nan,nan,nan,nan,nan,nan,nan,nan,nan,nan,nan,nan,nan,nan,217.1812471076846,434.1551599432714,nan,434.93618176784366,nan,nan,nan,nan
1,140,1,1,1.0,1.0,0.5168943777680397,0.0,1,7,5,3,2,4,nan,nan,nan,nan,nan,nan,nan,nan,nan,nan,nan,nan,0.0,nan,nan,nan,nan,nan,nan,nan,nan,nan,nan,nan,nan,nan,nan,nan,nan,nan,nan,217.1812471076846,435.15529821487144,nan,435.6721925926395,nan,nan,nan,nan
1,141,1,1,1.0,1.0,0.6447435230948031,0.0,2,5,6,1,8,0,nan,nan,nan,nan,nan,nan,nan,nan,nan,nan,nan,nan,0.0,nan,nan,nan,nan,nan,nan,nan,nan,nan,nan,nan,nan,nan,nan,nan,nan,nan,nan,217.1812471076846,436.15542023582384,nan,436.80016375891864,nan,nan,nan,nan
1,142,0,0,0.0,1.0,0.5885960920713842,1.0,0,4,2,6,3,1,1.0,1.0,1.0,1.0,1.0,1.0,1.0,0.0,0.0,1.0,1.0,0.0,3.0,0.0,5.0,7.0,6.0,3.0,8.0,1.0,5.0,6.0,2.0,3.0,4.0,2.448634915985167,9.119656333234161,10.311662119813263,3.7061087861657143,5.808911368250847,7.503862341865897,217.1812471076846,437.1555473888293,437.9639467243105,437.7441434809007,449.33201485779136,450.3429540018551,438.98074630787596,449.32368149375543
1,143,1,1,1.0,1.0,0.5950178857892752,0.0,2,6,1,7,4,8,nan,nan,nan,nan,nan,nan,nan,nan,nan,nan,nan,nan,0.0,nan,nan,nan,nan,nan,nan,nan,nan,nan,nan,nan,nan,nan,nan,nan,nan,nan,nan,217.1812471076846,450.54884283663705,nan,451.1438607224263,nan,nan,nan,nan
1,144,1,1,1.0,1.0,0.42683902103453875,0.0,8,1,7,6,0,2,nan,nan,nan,nan,nan,nan,nan,nan,nan,nan,nan,nan,0.0,nan,nan,nan,nan,nan,nan,nan,nan,nan,nan,nan,nan,nan,nan,nan,nan,nan,nan,217.1812471076846,451.5489893760532,nan,451.97582839708775,nan,nan,nan,nan
1,145,1,1,1.0,1.0,0.49068034533411264,0.0,4,7,6,2,5,3,nan,nan,nan,nan,nan,nan,nan,nan,nan,nan,nan,nan,0.0,nan,nan,nan,nan,nan,nan,nan,nan,nan,nan,nan,nan,nan,nan,nan,nan,nan,nan,217.1812471076846,452.5491153886542,nan,453.0397957339883,nan,nan,nan,nan
1,146,1,1,1.0,1.0,0.5305231204256415,0.0,7,1,0,5,3,8,nan,nan,nan,nan,nan,nan,nan,nan,nan,nan,nan,nan,0.0,nan,nan,nan,nan,nan,nan,nan,nan,nan,nan,nan,nan,nan,nan,nan,nan,nan,nan,217.1812471076846,453.5492445374839,nan,454.07976765790954,nan,nan,nan,nan
1,147,1,1,1.0,1.0,0.4103373633697629,0.0,0,8,7,6,1,5,nan,nan,nan,nan,nan,nan,nan,nan,nan,nan,nan,nan,0.0,nan,nan,nan,nan,nan,nan,nan,nan,nan,nan,nan,nan,nan,nan,nan,nan,nan,nan,217.1812471076846,454.5494212969206,nan,454.9597586602904,nan,nan,nan,nan
1,148,1,1,1.0,1.0,0.4662570026703179,0.0,6,1,2,5,7,3,nan,nan,nan,nan,nan,nan,nan,nan,nan,nan,nan,nan,0.0,nan,nan,nan,nan,nan,nan,nan,nan,nan,nan,nan,nan,nan,nan,nan,nan,nan,nan,217.1812471076846,455.54947831621394,nan,456.01573531888425,nan,nan,nan,nan
1,149,1,1,1.0,1.0,0.4581143674440682,0.0,7,6,3,8,1,0,nan,nan,nan,nan,nan,nan,nan,nan,nan,nan,nan,nan,0.0,nan,nan,nan,nan,nan,nan,nan,nan,nan,nan,nan,nan,nan,nan,nan,nan,nan,nan,217.1812471076846,456.54959435062483,nan,457.0077087180689,nan,nan,nan,nan
1,150,1,1,1.0,1.0,0.44995690742507577,0.0,0,3,8,1,4,2,nan,nan,nan,nan,nan,nan,nan,nan,nan,nan,nan,nan,0.0,nan,nan,nan,nan,nan,nan,nan,nan,nan,nan,nan,nan,nan,nan,nan,nan,nan,nan,217.1812471076846,457.54972635023296,nan,457.99968325765803,nan,nan,nan,nan
1,151,1,1,1.0,1.0,0.45781929325312376,0.0,4,0,3,2,1,6,nan,nan,nan,nan,nan,nan,nan,nan,nan,nan,nan,nan,0.0,nan,nan,nan,nan,nan,nan,nan,nan,nan,nan,nan,nan,nan,nan,nan,nan,nan,nan,217.1812471076846,458.5498378225602,nan,459.00765711581334,nan,nan,nan,nan
1,152,1,1,1.0,1.0,0.5216760127805173,0.0,3,2,6,5,8,7,nan,nan,nan,nan,nan,nan,nan,nan,nan,nan,nan,nan,0.0,nan,nan,nan,nan,nan,nan,nan,nan,nan,nan,nan,nan,nan,nan,nan,nan,nan,nan,217.1812471076846,459.549960128963,nan,460.0716361417435,nan,nan,nan,nan
1,153,1,1,1.0,1.0,0.4495232766494155,0.0,2,8,5,0,4,6,nan,nan,nan,nan,nan,nan,nan,nan,nan,nan,nan,nan,0.0,nan,nan,nan,nan,nan,nan,nan,nan,nan,nan,nan,nan,nan,nan,nan,nan,nan,nan,217.1812471076846,460.55008528614417,nan,460.9996085627936,nan,nan,nan,nan
1,154,1,1,1.0,1.0,0.4330287459306419,0.0,1,7,8,6,2,3,nan,nan,nan,nan,nan,nan,nan,nan,nan,nan,nan,nan,0.0,nan,nan,nan,nan,nan,nan,nan,nan,nan,nan,nan,nan,nan,nan,nan,nan,nan,nan,217.1812471076846,461.558553786017,nan,461.99158253194764,nan,nan,nan,nan
1,155,1,1,1.0,1.0,0.4329186989925802,0.0,4,2,0,5,8,7,nan,nan,nan,nan,nan,nan,nan,nan,nan,nan,nan,nan,0.0,nan,nan,nan,nan,nan,nan,nan,nan,nan,nan,nan,nan,nan,nan,nan,nan,nan,nan,217.1812471076846,462.5586746670306,nan,462.99159336602315,nan,nan,nan,nan
1,156,0,0,0.0,1.0,0.5287253032438457,1.0,6,3,1,2,0,4,1.0,1.0,1.0,1.0,1.0,1.0,1.0,1.0,0.0,1.0,0.0,0.0,3.0,6.0,3.0,3.0,2.0,3.0,3.0,2.0,6.0,5.0,1.0,4.0,3.0,4.1162058133631945,9.876226305961609,8.916364155709743,2.0931820077821612,7.812583978753537,6.172735558822751,217.1812471076846,463.55880124960095,464.36720258090645,464.0875265528448,475.2935453914106,476.3007777137682,465.37568048899993,475.28521972475573
1,157,1,1,1.0,1.0,0.4171836650930345,0.0,1,4,7,0,5,3,nan,nan,nan,nan,nan,nan,nan,nan,nan,nan,nan,nan,0.0,nan,nan,nan,nan,nan,nan,nan,nan,nan,nan,nan,nan,nan,nan,nan,nan,nan,nan,217.1812471076846,476.50207421788946,nan,476.9192578829825,nan,nan,nan,nan
1,158,1,1,1.0,1.0,0.42504633544012904,0.0,3,0,4,2,6,8,nan,nan,nan,nan,nan,nan,nan,nan,nan,nan,nan,nan,0.0,nan,nan,nan,nan,nan,nan,nan,nan,nan,nan,nan,nan,nan,nan,nan,nan,nan,nan,217.1812471076846,477.50217685243115,nan,477.9272231878713,nan,nan,nan,nan
1,159,1,1,1.0,1.0,0.5048838420771062,0.0,8,4,1,5,3,7,nan,nan,nan,nan,nan,nan,nan,nan,nan,nan,nan,nan,0.0,nan,nan,nan,nan,nan,nan,nan,nan,nan,nan,nan,nan,nan,nan,nan,nan,nan,nan,217.1812471076846,478.5023079966195,nan,479.0071918386966,nan,nan,nan,nan
1,160,1,1,1.0,1.0,0.4727372406050563,0.0,4,7,0,3,8,2,nan,nan,nan,nan,nan,nan,nan,nan,nan,nan,nan,nan,0.0,nan,nan,nan,nan,nan,nan,nan,nan,nan,nan,nan,nan,nan,nan,nan,nan,nan,nan,217.1812471076846,479.50243743043393,nan,479.975174671039,nan,nan,nan,nan
1,161,1,1,1.0,1.0,0.4325985359027982,0.0,2,0,6,5,3,7,nan,nan,nan,nan,nan,nan,nan,nan,nan,nan,nan,nan,0.0,nan,nan,nan,nan,nan,nan,nan,nan,nan,nan,nan,nan,nan,nan,nan,nan,nan,nan,217.1812471076846,480.50255175400525,nan,480.93515028990805,nan,nan,nan,nan
1,162,1,1,1.0,1.0,0.5204612175002694,0.0,7,5,1,6,8,3,nan,nan,nan,nan,nan,nan,nan,nan,nan,nan,nan,nan,0.0,nan,nan,nan,nan,nan,nan,nan,nan,nan,nan,nan,nan,nan,nan,nan,nan,nan,nan,217.1812471076846,481.50266864337027,nan,482.02312986087054,nan,nan,nan,nan
1,163,1,1,1.0,1.0,0.4483107617124915,0.0,6,8,4,7,2,0,nan,nan,nan,nan,nan,nan,nan,nan,nan,nan,nan,nan,0.0,nan,nan,nan,nan,nan,nan,nan,nan,nan,nan,nan,nan,nan,nan,nan,nan,nan,nan,217.1812471076846,482.5027952264063,nan,482.9511059881188,nan,nan,nan,nan
1,164,1,1,1.0,1.0,0.3841675203293562,0.0,2,0,6,5,7,4,nan,nan,nan,nan,nan,nan,nan,nan,nan,nan,nan,nan,0.0,nan,nan,nan,nan,nan,nan,nan,nan,nan,nan,nan,nan,nan,nan,nan,nan,nan,nan,217.1812471076846,483.5029155369848,nan,483.88708305731416,nan,nan,nan,nan
1,165,1,1,1.0,1.0,0.3920130846090615,0.0,3,1,4,6,0,2,nan,nan,nan,nan,nan,nan,nan,nan,nan,nan,nan,nan,0.0,nan,nan,nan,nan,nan,nan,nan,nan,nan,nan,nan,nan,nan,nan,nan,nan,nan,nan,217.1812471076846,484.5030395537615,nan,484.89505263837054,nan,nan,nan,nan
1,166,0,0,0.0,1.0,0.4395246645435691,0.0,5,3,1,4,2,8,nan,nan,nan,nan,nan,nan,nan,nan,nan,nan,nan,nan,0.0,nan,nan,nan,nan,nan,nan,nan,nan,nan,nan,nan,nan,nan,nan,nan,nan,nan,nan,217.1812471076846,485.511508338619,nan,485.9510330031626,nan,nan,nan,nan
1,167,1,1,1.0,1.0,0.5673906304873526,0.0,8,4,7,1,5,3,nan,nan,nan,nan,nan,nan,nan,nan,nan,nan,nan,nan,0.0,nan,nan,nan,nan,nan,nan,nan,nan,nan,nan,nan,nan,nan,nan,nan,nan,nan,nan,217.1812471076846,486.5116266538389,nan,487.07901728432626,nan,nan,nan,nan
1,168,1,1,1.0,1.0,0.5272222752682865,0.0,4,5,6,7,2,8,nan,nan,nan,nan,nan,nan,nan,nan,nan,nan,nan,nan,0.0,nan,nan,nan,nan,nan,nan,nan,nan,nan,nan,nan,nan,nan,nan,nan,nan,nan,nan,217.1812471076846,487.5117646404542,nan,488.0389869157225,nan,nan,nan,nan
1,169,1,1,1.0,1.0,0.503072340041399,0.0,8,1,7,5,3,4,nan,nan,nan,nan,nan,nan,nan,nan,nan,nan,nan,nan,0.0,nan,nan,nan,nan,nan,nan,nan,nan,nan,nan,nan,nan,nan,nan,nan,nan,nan,nan,217.1812471076846,488.5118878018111,nan,489.0149601418525,nan,nan,nan,nan
1,170,0,0,0.0,1.0,0.5429171109572053,0.0,1,8,4,3,6,2,nan,nan,nan,nan,nan,nan,nan,nan,nan,nan,nan,nan,0.0,nan,nan,nan,nan,nan,nan,nan,nan,nan,nan,nan,nan,nan,nan,nan,nan,nan,nan,217.1812471076846,489.5120129589923,nan,490.0549300699495,nan,nan,nan,nan
1,171,1,1,1.0,1.0,0.5988068147562444,0.0,5,2,1,0,4,6,nan,nan,nan,nan,nan,nan,nan,nan,nan,nan,nan,nan,0.0,nan,nan,nan,nan,nan,nan,nan,nan,nan,nan,nan,nan,nan,nan,nan,nan,nan,nan,217.1812471076846,490.5121204406023,nan,491.11092725535855,nan,nan,nan,nan
1,172,1,1,1.0,1.0,0.5346413357183337,0.0,4,0,8,1,3,7,nan,nan,nan,nan,nan,nan,nan,nan,nan,nan,nan,nan,0.0,nan,nan,nan,nan,nan,nan,nan,nan,nan,nan,nan,nan,nan,nan,nan,nan,nan,nan,217.1812471076846,491.5122441723943,nan,492.0468855081126,nan,nan,nan,nan
1,173,1,1,1.0,1.0,0.4465026808902621,0.0,1,5,2,8,7,4,nan,nan,nan,nan,nan,nan,nan,nan,nan,nan,nan,nan,0.0,nan,nan,nan,nan,nan,nan,nan,nan,nan,nan,nan,nan,nan,nan,nan,nan,nan,nan,217.1812471076846,492.5123738911934,nan,492.9588765720837,nan,nan,nan,nan
1,174,1,1,1.0,1.0,0.41436064150184393,0.0,0,1,3,6,2,7,nan,nan,nan,nan,nan,nan,nan,nan,nan,nan,nan,nan,0.0,nan,nan,nan,nan,nan,nan,nan,nan,nan,nan,nan,nan,nan,nan,nan,nan,nan,nan,217.1812471076846,493.51248964015394,nan,493.9268502816558,nan,nan,nan,nan
1,175,1,1,1.0,1.0,0.47022810857743025,0.0,7,0,8,1,4,3,nan,nan,nan,nan,nan,nan,nan,nan,nan,nan,nan,nan,0.0,nan,nan,nan,nan,nan,nan,nan,nan,nan,nan,nan,nan,nan,nan,nan,nan,nan,nan,217.1812471076846,494.5126008274965,nan,494.98282893607393,nan,nan,nan,nan
1,176,1,1,1.0,1.0,0.48605893459171057,0.0,1,7,3,2,5,8,nan,nan,nan,nan,nan,nan,nan,nan,nan,nan,nan,nan,0.0,nan,nan,nan,nan,nan,nan,nan,nan,nan,nan,nan,nan,nan,nan,nan,nan,nan,nan,217.1812471076846,495.5127328271046,nan,495.99879176169634,nan,nan,nan,nan
1,177,1,1,1.0,1.0,0.47790261497721076,0.0,8,6,0,5,7,1,nan,nan,nan,nan,nan,nan,nan,nan,nan,nan,nan,nan,0.0,nan,nan,nan,nan,nan,nan,nan,nan,nan,nan,nan,nan,nan,nan,nan,nan,nan,nan,217.1812471076846,496.512875945773,nan,496.9907785607502,nan,nan,nan,nan
1,178,1,1,1.0,1.0,0.3977825781330466,0.0,0,4,5,2,8,3,nan,nan,nan,nan,nan,nan,nan,nan,nan,nan,nan,nan,0.0,nan,nan,nan,nan,nan,nan,nan,nan,nan,nan,nan,nan,nan,nan,nan,nan,nan,nan,217.1812471076846,497.5129762995057,nan,497.9107588776387,nan,nan,nan,nan
1,179,1,1,1.0,1.0,0.40563926147297025,0.0,3,8,4,6,7,1,nan,nan,nan,nan,nan,nan,nan,nan,nan,nan,nan,nan,0.0,nan,nan,nan,nan,nan,nan,nan,nan,nan,nan,nan,nan,nan,nan,nan,nan,nan,nan,217.1812471076846,498.5130980354734,nan,498.91873729694635,nan,nan,nan,nan
1,180,1,1,1.0,1.0,0.47746841330081224,0.0,2,5,3,1,0,8,nan,nan,nan,nan,nan,nan,nan,nan,nan,nan,nan,nan,0.0,nan,nan,nan,nan,nan,nan,nan,nan,nan,nan,nan,nan,nan,nan,nan,nan,nan,nan,217.1812471076846,499.5132263288833,nan,499.99069474218413,nan,nan,nan,nan
1,181,1,1,1.0,1.0,0.4533595317043364,0.0,8,2,1,4,5,6,nan,nan,nan,nan,nan,nan,nan,nan,nan,nan,nan,nan,0.0,nan,nan,nan,nan,nan,nan,nan,nan,nan,nan,nan,nan,nan,nan,nan,nan,nan,nan,217.1812471076846,500.5133474948816,nan,500.96670702658594,nan,nan,nan,nan
1,182,1,1,1.0,1.0,0.4691900727339089,0.0,3,0,6,2,7,4,nan,nan,nan,nan,nan,nan,nan,nan,nan,nan,nan,nan,0.0,nan,nan,nan,nan,nan,nan,nan,nan,nan,nan,nan,nan,nan,nan,nan,nan,nan,nan,217.1812471076846,501.5134726520628,nan,501.9826627247967,nan,nan,nan,nan
1,183,1,1,1.0,1.0,0.40504939714446664,0.0,5,3,7,0,2,1,nan,nan,nan,nan,nan,nan,nan,nan,nan,nan,nan,nan,0.0,nan,nan,nan,nan,nan,nan,nan,nan,nan,nan,nan,nan,nan,nan,nan,nan,nan,nan,217.1812471076846,502.51359638385475,nan,502.9186457809992,nan,nan,nan,nan
1,184,1,1,1.0,1.0,0.540543113835156,0.0,1,6,3,4,7,2,nan,nan,nan,nan,nan,nan,nan,nan,nan,nan,nan,nan,0.0,nan,nan,nan,nan,nan,nan,nan,nan,nan,nan,nan,nan,nan,nan,nan,nan,nan,nan,217.1812471076846,503.5220634583384,nan,504.06260657217354,nan,nan,nan,nan
1,185,1,1,1.0,1.0,0.43638860573992133,0.0,8,3,6,1,0,5,nan,nan,nan,nan,nan,nan,nan,nan,nan,nan,nan,nan,0.0,nan,nan,nan,nan,nan,nan,nan,nan,nan,nan,nan,nan,nan,nan,nan,nan,nan,nan,217.1812471076846,504.5221974533051,nan,504.95858605904505,nan,nan,nan,nan
1,186,1,1,1.0,1.0,0.4199550859630108,0.0,1,7,4,3,5,8,nan,nan,nan,nan,nan,nan,nan,nan,nan,nan,nan,nan,0.0,nan,nan,nan,nan,nan,nan,nan,nan,nan,nan,nan,nan,nan,nan,nan,nan,nan,nan,217.1812471076846,505.5306323119439,nan,505.95058739790693,nan,nan,nan,nan
1,187,1,1,1.0,1.0,0.39576438162475824,0.0,7,8,0,4,3,6,nan,nan,nan,nan,nan,nan,nan,nan,nan,nan,nan,nan,0.0,nan,nan,nan,nan,nan,nan,nan,nan,nan,nan,nan,nan,nan,nan,nan,nan,nan,nan,217.1812471076846,506.53077942179516,nan,506.9265438034199,nan,nan,nan,nan
1,188,0,0,0.0,1.0,0.5313347894698381,0.0,2,3,7,1,0,4,nan,nan,nan,nan,nan,nan,nan,nan,nan,nan,nan,nan,0.0,nan,nan,nan,nan,nan,nan,nan,nan,nan,nan,nan,nan,nan,nan,nan,nan,nan,nan,217.1812471076846,507.5391914723441,nan,508.07052626181394,nan,nan,nan,nan
1,189,1,1,1.0,1.0,0.7631460032425821,0.0,7,2,1,0,5,3,nan,nan,nan,nan,nan,nan,nan,nan,nan,nan,nan,nan,0.0,nan,nan,nan,nan,nan,nan,nan,nan,nan,nan,nan,nan,nan,nan,nan,nan,nan,nan,217.1812471076846,508.53933801176026,nan,509.30248401500285,nan,nan,nan,nan
1,190,1,1,nan,nan,nan,0.0,0,8,2,3,7,1,nan,nan,nan,nan,nan,nan,nan,nan,nan,nan,nan,nan,0.0,nan,nan,nan,nan,nan,nan,nan,nan,nan,nan,nan,nan,nan,nan,nan,nan,nan,nan,217.1812471076846,509.5394725771621,nan,nan,nan,nan,nan,nan
1,191,1,1,nan,nan,nan,0.0,7,5,4,0,3,8,nan,nan,nan,nan,nan,nan,nan,nan,nan,nan,nan,nan,0.0,nan,nan,nan,nan,nan,nan,nan,nan,nan,nan,nan,nan,nan,nan,nan,nan,nan,nan,217.1812471076846,510.5395774929784,nan,nan,nan,nan,nan,nan
1,192,1,1,1.0,1.0,0.042745910584926605,0.0,8,7,0,6,1,2,nan,nan,nan,nan,nan,nan,nan,nan,nan,nan,nan,nan,0.0,nan,nan,nan,nan,nan,nan,nan,nan,nan,nan,nan,nan,nan,nan,nan,nan,nan,nan,217.1812471076846,511.5397197557613,nan,511.58246566634625,nan,nan,nan,nan
1,193,1,1,1.0,1.0,0.5385616952553391,0.0,2,3,7,1,5,8,nan,nan,nan,nan,nan,nan,nan,nan,nan,nan,nan,nan,0.0,nan,nan,nan,nan,nan,nan,nan,nan,nan,nan,nan,nan,nan,nan,nan,nan,nan,nan,217.1812471076846,512.5398355047219,nan,513.0783971999772,nan,nan,nan,nan
1,194,1,1,1.0,1.0,0.5220971000380814,0.0,3,2,5,8,6,0,nan,nan,nan,nan,nan,nan,nan,nan,nan,nan,nan,nan,0.0,nan,nan,nan,nan,nan,nan,nan,nan,nan,nan,nan,nan,nan,nan,nan,nan,nan,nan,217.1812471076846,513.5482894647866,nan,514.0703865648247,nan,nan,nan,nan
1,195,1,1,1.0,1.0,0.4739317945204675,0.0,4,8,3,2,1,7,nan,nan,nan,nan,nan,nan,nan,nan,nan,nan,nan,nan,0.0,nan,nan,nan,nan,nan,nan,nan,nan,nan,nan,nan,nan,nan,nan,nan,nan,nan,nan,217.1812471076846,514.5484217493795,nan,515.0223535439,nan,nan,nan,nan
1,196,1,1,1.0,1.0,0.4657885888591409,0.0,2,5,1,8,3,6,nan,nan,nan,nan,nan,nan,nan,nan,nan,nan,nan,nan,0.0,nan,nan,nan,nan,nan,nan,nan,nan,nan,nan,nan,nan,nan,nan,nan,nan,nan,nan,217.1812471076846,515.5485363584012,nan,516.0143249472603,nan,nan,nan,nan
1,197,1,1,1.0,1.0,0.4096454340033233,0.0,8,6,4,2,7,1,nan,nan,nan,nan,nan,nan,nan,nan,nan,nan,nan,nan,0.0,nan,nan,nan,nan,nan,nan,nan,nan,nan,nan,nan,nan,nan,nan,nan,nan,nan,nan,217.1812471076846,516.5486635114066,nan,516.95830894541,nan,nan,nan,nan
1,198,1,1,1.0,1.0,0.49747903598472476,0.0,2,0,3,1,5,4,nan,nan,nan,nan,nan,nan,nan,nan,nan,nan,nan,nan,0.0,nan,nan,nan,nan,nan,nan,nan,nan,nan,nan,nan,nan,nan,nan,nan,nan,nan,nan,217.1812471076846,517.5487995021977,nan,518.0462785381824,nan,nan,nan,nan
1,199,1,1,1.0,1.0,0.4573289272375405,0.0,5,2,0,4,1,6,nan,nan,nan,nan,nan,nan,nan,nan,nan,nan,nan,nan,0.0,nan,nan,nan,nan,nan,nan,nan,nan,nan,nan,nan,nan,nan,nan,nan,nan,nan,nan,217.1812471076846,518.5489349230193,nan,519.0062638502568,nan,nan,nan,nan
1,200,1,1,1.0,1.0,0.47288178466260433,0.0,6,3,1,0,5,7,nan,nan,nan,nan,nan,nan,nan,nan,nan,nan,nan,nan,0.0,nan,nan,nan,nan,nan,nan,nan,nan,nan,nan,nan,nan,nan,nan,nan,nan,nan,nan,217.1812471076846,519.5573635092005,nan,520.0302452938631,nan,nan,nan,nan
1,201,1,1,1.0,1.0,0.40076268976554275,0.0,0,1,8,5,7,3,nan,nan,nan,nan,nan,nan,nan,nan,nan,nan,nan,nan,0.0,nan,nan,nan,nan,nan,nan,nan,nan,nan,nan,nan,nan,nan,nan,nan,nan,nan,nan,217.1812471076846,520.5574687095359,nan,520.9582313993014,nan,nan,nan,nan
1,202,1,1,1.0,1.0,0.4005716750398278,0.0,7,2,5,6,3,4,nan,nan,nan,nan,nan,nan,nan,nan,nan,nan,nan,nan,0.0,nan,nan,nan,nan,nan,nan,nan,nan,nan,nan,nan,nan,nan,nan,nan,nan,nan,nan,217.1812471076846,521.5576320700347,nan,521.9582037450746,nan,nan,nan,nan
1,203,1,1,1.0,1.0,0.47242477536201477,0.0,1,3,6,0,4,5,nan,nan,nan,nan,nan,nan,nan,nan,nan,nan,nan,nan,0.0,nan,nan,nan,nan,nan,nan,nan,nan,nan,nan,nan,nan,nan,nan,nan,nan,nan,nan,217.1812471076846,522.5577597930096,nan,523.0301845683716,nan,nan,nan,nan
1,204,1,1,1.0,1.0,0.5442892792634666,0.0,3,2,0,7,6,8,nan,nan,nan,nan,nan,nan,nan,nan,nan,nan,nan,nan,0.0,nan,nan,nan,nan,nan,nan,nan,nan,nan,nan,nan,nan,nan,nan,nan,nan,nan,nan,217.1812471076846,523.5578692699783,nan,524.1021585492417,nan,nan,nan,nan
1,205,1,1,1.0,1.0,0.5361312492750585,0.0,6,0,7,1,4,5,nan,nan,nan,nan,nan,nan,nan,nan,nan,nan,nan,nan,0.0,nan,nan,nan,nan,nan,nan,nan,nan,nan,nan,nan,nan,nan,nan,nan,nan,nan,nan,217.1812471076846,524.5579855893739,nan,525.0941168386489,nan,nan,nan,nan
1,206,1,1,1.0,1.0,0.6080085821449757,0.0,4,6,0,8,2,3,nan,nan,nan,nan,nan,nan,nan,nan,nan,nan,nan,nan,0.0,nan,nan,nan,nan,nan,nan,nan,nan,nan,nan,nan,nan,nan,nan,nan,nan,nan,nan,217.1812471076846,525.5581090361811,nan,526.1661176183261,nan,nan,nan,nan
1,207,1,1,1.0,1.0,0.6958145298995078,0.0,3,8,4,5,6,7,nan,nan,nan,nan,nan,nan,nan,nan,nan,nan,nan,nan,0.0,nan,nan,nan,nan,nan,nan,nan,nan,nan,nan,nan,nan,nan,nan,nan,nan,nan,nan,217.1812471076846,526.5582530098036,nan,527.2540675397031,nan,nan,nan,nan
1,208,1,1,1.0,1.0,0.7036931654438376,0.0,1,2,0,6,3,5,nan,nan,nan,nan,nan,nan,nan,nan,nan,nan,nan,nan,0.0,nan,nan,nan,nan,nan,nan,nan,nan,nan,nan,nan,nan,nan,nan,nan,nan,nan,nan,217.1812471076846,527.5583624867722,nan,528.2620556522161,nan,nan,nan,nan
1,209,1,1,1.0,1.0,0.7115461425855756,0.0,3,4,5,2,1,0,nan,nan,nan,nan,nan,nan,nan,nan,nan,nan,nan,nan,0.0,nan,nan,nan,nan,nan,nan,nan,nan,nan,nan,nan,nan,nan,nan,nan,nan,nan,nan,217.1812471076846,528.5584805165417,nan,529.2700266591273,nan,nan,nan,nan
1,210,1,1,1.0,1.0,0.5994023811072111,0.0,4,6,0,1,5,7,nan,nan,nan,nan,nan,nan,nan,nan,nan,nan,nan,nan,0.0,nan,nan,nan,nan,nan,nan,nan,nan,nan,nan,nan,nan,nan,nan,nan,nan,nan,nan,217.1812471076846,529.5585979763418,nan,530.158000357449,nan,nan,nan,nan
1,211,0,0,0.0,1.0,0.5832639359869063,0.0,5,8,6,7,0,2,nan,nan,nan,nan,nan,nan,nan,nan,nan,nan,nan,nan,0.0,nan,nan,nan,nan,nan,nan,nan,nan,nan,nan,nan,nan,nan,nan,nan,nan,nan,nan,217.1812471076846,530.5587245589122,nan,531.1419884948991,nan,nan,nan,nan
1,212,1,1,1.0,1.0,0.4791245376691222,0.0,8,6,7,3,5,1,nan,nan,nan,nan,nan,nan,nan,nan,nan,nan,nan,nan,0.0,nan,nan,nan,nan,nan,nan,nan,nan,nan,nan,nan,nan,nan,nan,nan,nan,nan,nan,217.1812471076846,531.5588460098952,nan,532.0379705475643,nan,nan,nan,nan
1,213,1,1,1.0,1.0,0.43897043727338314,0.0,5,4,6,7,2,3,nan,nan,nan,nan,nan,nan,nan,nan,nan,nan,nan,nan,0.0,nan,nan,nan,nan,nan,nan,nan,nan,nan,nan,nan,nan,nan,nan,nan,nan,nan,nan,217.1812471076846,532.558968316298,nan,532.9979387535714,nan,nan,nan,nan
1,214,1,1,1.0,1.0,0.39086357690393925,0.0,8,5,4,1,7,0,nan,nan,nan,nan,nan,nan,nan,nan,nan,nan,nan,nan,0.0,nan,nan,nan,nan,nan,nan,nan,nan,nan,nan,nan,nan,nan,nan,nan,nan,nan,nan,217.1812471076846,533.5590584063902,nan,533.9499219832942,nan,nan,nan,nan
1,215,1,1,1.0,1.0,0.4147401046939194,0.0,2,7,8,0,6,3,nan,nan,nan,nan,nan,nan,nan,nan,nan,nan,nan,nan,0.0,nan,nan,nan,nan,nan,nan,nan,nan,nan,nan,nan,nan,nan,nan,nan,nan,nan,nan,217.1812471076846,534.5592243326828,nan,534.9739644373767,nan,nan,nan,nan
1,216,1,1,nan,nan,nan,0.0,0,3,7,8,5,4,nan,nan,nan,nan,nan,nan,nan,nan,nan,nan,nan,nan,0.0,nan,nan,nan,nan,nan,nan,nan,nan,nan,nan,nan,nan,nan,nan,nan,nan,nan,nan,217.1812471076846,535.5593446432613,nan,nan,nan,nan,nan,nan
1,217,0,0,1.0,0.0,0.006437473930418491,1.0,3,1,5,6,2,7,1.0,1.0,1.0,1.0,1.0,1.0,0.0,0.0,0.0,1.0,0.0,0.0,1.0,8.0,3.0,0.0,6.0,1.0,2.0,2.0,3.0,4.0,1.0,5.0,6.0,6.193577236961573,7.458568810950965,8.60146191669628,4.803453770000488,10.00147508783266,10.777453559916466,217.1812471076846,536.5594678050838,537.3678754079156,536.5659052790143,549.2026592637412,550.2119294544682,538.3846758469008,549.1943338825367
1,218,1,1,nan,nan,nan,0.0,0,6,7,2,1,5,nan,nan,nan,nan,nan,nan,nan,nan,nan,nan,nan,nan,0.0,nan,nan,nan,nan,nan,nan,nan,nan,nan,nan,nan,nan,nan,nan,nan,nan,nan,nan,217.1812471076846,550.4195077698678,nan,nan,nan,nan,nan,nan
1,219,1,1,nan,nan,nan,0.0,2,1,0,6,7,8,nan,nan,nan,nan,nan,nan,nan,nan,nan,nan,nan,nan,0.0,nan,nan,nan,nan,nan,nan,nan,nan,nan,nan,nan,nan,nan,nan,nan,nan,nan,nan,217.1812471076846,551.4196437606588,nan,nan,nan,nan,nan,nan
1,220,1,1,1.0,1.0,0.14573865151032805,0.0,5,3,7,0,1,4,nan,nan,nan,nan,nan,nan,nan,nan,nan,nan,nan,nan,0.0,nan,nan,nan,nan,nan,nan,nan,nan,nan,nan,nan,nan,nan,nan,nan,nan,nan,nan,217.1812471076846,552.4197700582445,nan,552.5655087097548,nan,nan,nan,nan
1,221,1,1,1.0,1.0,0.3775695371441543,0.0,7,4,6,5,2,0,nan,nan,nan,nan,nan,nan,nan,nan,nan,nan,nan,nan,0.0,nan,nan,nan,nan,nan,nan,nan,nan,nan,nan,nan,nan,nan,nan,nan,nan,nan,nan,217.1812471076846,553.4198917942122,nan,553.7974613313563,nan,nan,nan,nan
1,222,1,1,1.0,1.0,0.4814073038287461,0.0,8,5,0,7,1,2,nan,nan,nan,nan,nan,nan,nan,nan,nan,nan,nan,nan,0.0,nan,nan,nan,nan,nan,nan,nan,nan,nan,nan,nan,nan,nan,nan,nan,nan,nan,nan,217.1812471076846,554.4200132451952,nan,554.9014205490239,nan,nan,nan,nan
1,223,1,1,1.0,1.0,0.441273445263505,0.0,5,7,4,2,8,0,nan,nan,nan,nan,nan,nan,nan,nan,nan,nan,nan,nan,0.0,nan,nan,nan,nan,nan,nan,nan,nan,nan,nan,nan,nan,nan,nan,nan,nan,nan,nan,217.1812471076846,555.4201324153692,nan,555.8614058606327,nan,nan,nan,nan
1,224,1,1,1.0,1.0,0.4651351487264037,0.0,7,1,3,4,0,5,nan,nan,nan,nan,nan,nan,nan,nan,nan,nan,nan,nan,0.0,nan,nan,nan,nan,nan,nan,nan,nan,nan,nan,nan,nan,nan,nan,nan,nan,nan,nan,217.1812471076846,556.4202532963827,nan,556.8853884451091,nan,nan,nan,nan
1,225,1,1,1.0,1.0,0.42499074153602123,0.0,1,2,6,8,4,0,nan,nan,nan,nan,nan,nan,nan,nan,nan,nan,nan,nan,0.0,nan,nan,nan,nan,nan,nan,nan,nan,nan,nan,nan,nan,nan,nan,nan,nan,nan,nan,217.1812471076846,557.4203804493882,nan,557.8453711909242,nan,nan,nan,nan
1,226,1,1,1.0,1.0,0.40883205458521843,0.0,4,7,3,5,8,1,nan,nan,nan,nan,nan,nan,nan,nan,nan,nan,nan,nan,0.0,nan,nan,nan,nan,nan,nan,nan,nan,nan,nan,nan,nan,nan,nan,nan,nan,nan,nan,217.1812471076846,558.4205033257604,nan,558.8293353803456,nan,nan,nan,nan
1,227,1,1,1.0,1.0,0.392692469060421,0.0,8,5,6,7,0,4,nan,nan,nan,nan,nan,nan,nan,nan,nan,nan,nan,nan,0.0,nan,nan,nan,nan,nan,nan,nan,nan,nan,nan,nan,nan,nan,nan,nan,nan,nan,nan,217.1812471076846,559.4206327595748,nan,559.8133252286352,nan,nan,nan,nan
1,228,0,0,1.0,0.0,0.3765457565896213,1.0,0,4,7,1,2,6,1.0,1.0,1.0,1.0,1.0,1.0,1.0,0.0,1.0,0.0,1.0,0.0,3.0,0.0,1.0,7.0,8.0,2.0,1.0,1.0,2.0,6.0,5.0,4.0,3.0,2.7814571671187878,4.403696900699288,10.587059137877077,9.8596086143516,7.05972795560956,5.859706117305905,217.1812471076846,560.420755635947,561.2291526906192,560.7973013925366,572.880582862068,573.8766268659383,562.2542879190296,572.872258905787
1,229,1,1,nan,nan,nan,0.0,4,6,3,0,5,2,nan,nan,nan,nan,nan,nan,nan,nan,nan,nan,nan,nan,0.0,nan,nan,nan,nan,nan,nan,nan,nan,nan,nan,nan,nan,nan,nan,nan,nan,nan,nan,217.1812471076846,574.08075779723,nan,nan,nan,nan,nan,nan
1,230,1,1,1.0,1.0,0.1800901871174574,0.0,6,7,0,1,2,8,nan,nan,nan,nan,nan,nan,nan,nan,nan,nan,nan,nan,0.0,nan,nan,nan,nan,nan,nan,nan,nan,nan,nan,nan,nan,nan,nan,nan,nan,nan,nan,217.1812471076846,575.0808923626319,nan,575.2609825497493,nan,nan,nan,nan
1,231,1,1,1.0,1.0,0.5639170175418258,0.0,8,2,6,4,0,1,nan,nan,nan,nan,nan,nan,nan,nan,nan,nan,nan,nan,0.0,nan,nan,nan,nan,nan,nan,nan,nan,nan,nan,nan,nan,nan,nan,nan,nan,nan,nan,217.1812471076846,576.0810140985996,nan,576.6449311161414,nan,nan,nan,nan
1,232,1,1,1.0,1.0,0.547773155849427,0.0,3,5,0,8,4,7,nan,nan,nan,nan,nan,nan,nan,nan,nan,nan,nan,nan,0.0,nan,nan,nan,nan,nan,nan,nan,nan,nan,nan,nan,nan,nan,nan,nan,nan,nan,nan,217.1812471076846,577.0811258563772,nan,577.6288990122266,nan,nan,nan,nan
1,233,1,1,1.0,1.0,0.6836118390783668,0.0,0,1,8,6,7,2,nan,nan,nan,nan,nan,nan,nan,nan,nan,nan,nan,nan,0.0,nan,nan,nan,nan,nan,nan,nan,nan,nan,nan,nan,nan,nan,nan,nan,nan,nan,nan,217.1812471076846,578.0812615621835,nan,578.7648734012619,nan,nan,nan,nan
1,234,1,1,1.0,1.0,0.6434848234057426,0.0,2,7,5,8,6,1,nan,nan,nan,nan,nan,nan,nan,nan,nan,nan,nan,nan,0.0,nan,nan,nan,nan,nan,nan,nan,nan,nan,nan,nan,nan,nan,nan,nan,nan,nan,nan,217.1812471076846,579.081377311144,nan,579.7248621345498,nan,nan,nan,nan
1,235,1,1,1.0,1.0,0.6113387923687696,0.0,6,8,4,5,2,7,nan,nan,nan,nan,nan,nan,nan,nan,nan,nan,nan,nan,0.0,nan,nan,nan,nan,nan,nan,nan,nan,nan,nan,nan,nan,nan,nan,nan,nan,nan,nan,217.1812471076846,580.081505604554,nan,580.6928443969227,nan,nan,nan,nan
1,236,1,1,1.0,1.0,0.5791802173480392,0.0,3,4,2,8,0,5,nan,nan,nan,nan,nan,nan,nan,nan,nan,nan,nan,nan,0.0,nan,nan,nan,nan,nan,nan,nan,nan,nan,nan,nan,nan,nan,nan,nan,nan,nan,nan,217.1812471076846,581.0816296213306,nan,581.6608098386787,nan,nan,nan,nan
1,237,1,1,1.0,1.0,0.5867278557270765,0.0,7,3,8,1,2,6,nan,nan,nan,nan,nan,nan,nan,nan,nan,nan,nan,nan,0.0,nan,nan,nan,nan,nan,nan,nan,nan,nan,nan,nan,nan,nan,nan,nan,nan,nan,nan,217.1812471076846,582.0900667607784,nan,582.6767946165055,nan,nan,nan,nan
1,238,1,1,1.0,1.0,0.658227436710149,0.0,2,6,0,3,1,5,nan,nan,nan,nan,nan,nan,nan,nan,nan,nan,nan,nan,0.0,nan,nan,nan,nan,nan,nan,nan,nan,nan,nan,nan,nan,nan,nan,nan,nan,nan,nan,217.1812471076846,583.098550085444,nan,583.7567775221542,nan,nan,nan,nan
1,239,1,1,nan,nan,nan,0.0,8,1,3,7,2,6,nan,nan,nan,nan,nan,nan,nan,nan,nan,nan,nan,nan,0.0,nan,nan,nan,nan,nan,nan,nan,nan,nan,nan,nan,nan,nan,nan,nan,nan,nan,nan,217.1812471076846,584.0987353981473,nan,nan,nan,nan,nan,nan
1,240,1,1,1.0,1.0,0.7699121930636466,0.0,5,3,2,0,7,8,nan,nan,nan,nan,nan,nan,nan,nan,nan,nan,nan,nan,0.0,nan,nan,nan,nan,nan,nan,nan,nan,nan,nan,nan,nan,nan,nan,nan,nan,nan,nan,217.1812471076846,585.0987870008685,nan,585.8686991939321,nan,nan,nan,nan
1,241,1,1,1.0,1.0,0.7057678112760186,0.0,4,5,6,7,3,1,nan,nan,nan,nan,nan,nan,nan,nan,nan,nan,nan,nan,0.0,nan,nan,nan,nan,nan,nan,nan,nan,nan,nan,nan,nan,nan,nan,nan,nan,nan,nan,217.1812471076846,586.0989184300415,nan,586.8046862413175,nan,nan,nan,nan
1,242,1,1,1.0,1.0,0.5216435114853084,0.0,5,7,1,3,0,2,nan,nan,nan,nan,nan,nan,nan,nan,nan,nan,nan,nan,0.0,nan,nan,nan,nan,nan,nan,nan,nan,nan,nan,nan,nan,nan,nan,nan,nan,nan,nan,217.1812471076846,587.0990376002155,nan,587.6206811117008,nan,nan,nan,nan
1,243,0,0,0.0,1.0,0.6091515333391726,1.0,6,4,2,8,1,0,1.0,1.0,1.0,1.0,1.0,1.0,0.0,1.0,1.0,1.0,1.0,0.0,4.0,3.0,4.0,2.0,8.0,1.0,6.0,3.0,2.0,4.0,1.0,5.0,6.0,8.590279015246779,4.09428476030007,10.388844239525497,1.8237685905769467,11.349304236471653,12.828360921703279,217.1812471076846,588.1074912752956,588.9159000189975,588.7166428086348,602.8093281788751,603.812353905756,589.9243676634505,602.8009925340302
1,244,1,1,1.0,1.0,0.4425079124048352,0.0,8,5,3,6,7,4,nan,nan,nan,nan,nan,nan,nan,nan,nan,nan,nan,nan,0.0,nan,nan,nan,nan,nan,nan,nan,nan,nan,nan,nan,nan,nan,nan,nan,nan,nan,nan,217.1812471076846,604.0177888670005,nan,604.4602967794053,nan,nan,nan,nan
1,245,1,1,1.0,1.0,0.41033593751490116,0.0,2,0,8,1,5,3,nan,nan,nan,nan,nan,nan,nan,nan,nan,nan,nan,nan,0.0,nan,nan,nan,nan,nan,nan,nan,nan,nan,nan,nan,nan,nan,nan,nan,nan,nan,nan,217.1812471076846,605.0179279940203,nan,605.4282639315352,nan,nan,nan,nan
1,246,1,1,1.0,1.0,0.40222608856856823,0.0,3,7,4,8,6,2,nan,nan,nan,nan,nan,nan,nan,nan,nan,nan,nan,nan,0.0,nan,nan,nan,nan,nan,nan,nan,nan,nan,nan,nan,nan,nan,nan,nan,nan,nan,nan,217.1812471076846,606.0180414626375,nan,606.420267551206,nan,nan,nan,nan
1,247,1,1,1.0,1.0,0.4177324753254652,0.0,5,3,7,1,2,8,nan,nan,nan,nan,nan,nan,nan,nan,nan,nan,nan,nan,0.0,nan,nan,nan,nan,nan,nan,nan,nan,nan,nan,nan,nan,nan,nan,nan,nan,nan,nan,217.1812471076846,607.0264871544205,nan,607.4442196297459,nan,nan,nan,nan
1,248,1,1,1.0,1.0,0.40157920541241765,0.0,7,0,5,8,6,4,nan,nan,nan,nan,nan,nan,nan,nan,nan,nan,nan,nan,0.0,nan,nan,nan,nan,nan,nan,nan,nan,nan,nan,nan,nan,nan,nan,nan,nan,nan,nan,217.1812471076846,608.026612597052,nan,608.4281918024644,nan,nan,nan,nan
1,249,1,1,1.0,1.0,0.41742428625002503,0.0,8,7,4,3,0,2,nan,nan,nan,nan,nan,nan,nan,nan,nan,nan,nan,nan,0.0,nan,nan,nan,nan,nan,nan,nan,nan,nan,nan,nan,nan,nan,nan,nan,nan,nan,nan,217.1812471076846,609.0267360438593,nan,609.4441603301093,nan,nan,nan,nan
1,250,1,1,1.0,1.0,0.42526928056031466,0.0,4,8,6,2,5,3,nan,nan,nan,nan,nan,nan,nan,nan,nan,nan,nan,nan,0.0,nan,nan,nan,nan,nan,nan,nan,nan,nan,nan,nan,nan,nan,nan,nan,nan,nan,nan,217.1812471076846,610.026874600444,nan,610.4521438810043,nan,nan,nan,nan
1,251,1,1,1.0,1.0,0.488812108989805,0.0,5,1,3,7,4,0,nan,nan,nan,nan,nan,nan,nan,nan,nan,nan,nan,nan,0.0,nan,nan,nan,nan,nan,nan,nan,nan,nan,nan,nan,nan,nan,nan,nan,nan,nan,nan,217.1812471076846,611.0353091740981,nan,611.5241212830879,nan,nan,nan,nan
1,252,1,1,1.0,1.0,0.6086551807820797,0.0,6,4,7,1,3,8,nan,nan,nan,nan,nan,nan,nan,nan,nan,nan,nan,nan,0.0,nan,nan,nan,nan,nan,nan,nan,nan,nan,nan,nan,nan,nan,nan,nan,nan,nan,nan,217.1812471076846,612.0354414586909,nan,612.644096639473,nan,nan,nan,nan
1,253,1,1,nan,nan,nan,0.0,4,2,8,5,0,7,nan,nan,nan,nan,nan,nan,nan,nan,nan,nan,nan,nan,0.0,nan,nan,nan,nan,nan,nan,nan,nan,nan,nan,nan,nan,nan,nan,nan,nan,nan,nan,217.1812471076846,613.0355834364891,nan,nan,nan,nan,nan,nan
1,254,0,0,nan,nan,nan,0.0,0,5,7,3,1,8,nan,nan,nan,nan,nan,nan,nan,nan,nan,nan,nan,nan,0.0,nan,nan,nan,nan,nan,nan,nan,nan,nan,nan,nan,nan,nan,nan,nan,nan,nan,nan,217.1812471076846,614.0356980450451,nan,nan,nan,nan,nan,nan
1,255,1,1,0.0,0.0,0.047920693177729845,0.0,1,7,8,2,4,0,nan,nan,nan,nan,nan,nan,nan,nan,nan,nan,nan,nan,0.0,nan,nan,nan,nan,nan,nan,nan,nan,nan,nan,nan,nan,nan,nan,nan,nan,nan,nan,217.1812471076846,615.0441520051099,nan,615.0920726982877,nan,nan,nan,nan
1,256,1,1,nan,nan,nan,0.0,0,1,4,5,2,6,nan,nan,nan,nan,nan,nan,nan,nan,nan,nan,nan,nan,0.0,nan,nan,nan,nan,nan,nan,nan,nan,nan,nan,nan,nan,nan,nan,nan,nan,nan,nan,217.1812471076846,616.0442825793289,nan,nan,nan,nan,nan,nan
1,257,1,1,1.0,1.0,0.5275917602702975,0.0,1,8,6,2,7,3,nan,nan,nan,nan,nan,nan,nan,nan,nan,nan,nan,nan,0.0,nan,nan,nan,nan,nan,nan,nan,nan,nan,nan,nan,nan,nan,nan,nan,nan,nan,nan,217.1812471076846,617.0444068810903,nan,617.5719986413606,nan,nan,nan,nan
1,258,1,1,1.0,1.0,0.4314316366799176,0.0,2,4,7,1,5,6,nan,nan,nan,nan,nan,nan,nan,nan,nan,nan,nan,nan,0.0,nan,nan,nan,nan,nan,nan,nan,nan,nan,nan,nan,nan,nan,nan,nan,nan,nan,nan,217.1812471076846,618.0445177834481,nan,618.475949420128,nan,nan,nan,nan
1,259,1,1,1.0,1.0,0.41527665592730045,0.0,6,0,5,3,2,7,nan,nan,nan,nan,nan,nan,nan,nan,nan,nan,nan,nan,0.0,nan,nan,nan,nan,nan,nan,nan,nan,nan,nan,nan,nan,nan,nan,nan,nan,nan,nan,217.1812471076846,619.0446466472931,nan,619.4599233032204,nan,nan,nan,nan
1,260,1,1,1.0,1.0,0.39914020663127303,0.0,0,8,2,6,4,1,nan,nan,nan,nan,nan,nan,nan,nan,nan,nan,nan,nan,0.0,nan,nan,nan,nan,nan,nan,nan,nan,nan,nan,nan,nan,nan,nan,nan,nan,nan,nan,217.1812471076846,620.0447777914815,nan,620.4439179981127,nan,nan,nan,nan
1,261,1,1,1.0,1.0,0.5349905788898468,0.0,1,7,0,5,8,4,nan,nan,nan,nan,nan,nan,nan,nan,nan,nan,nan,nan,0.0,nan,nan,nan,nan,nan,nan,nan,nan,nan,nan,nan,nan,nan,nan,nan,nan,nan,nan,217.1812471076846,621.0448989574797,nan,621.5798895363696,nan,nan,nan,nan
1,262,1,1,1.0,1.0,0.5348172402009368,0.0,7,5,6,3,2,1,nan,nan,nan,nan,nan,nan,nan,nan,nan,nan,nan,nan,0.0,nan,nan,nan,nan,nan,nan,nan,nan,nan,nan,nan,nan,nan,nan,nan,nan,nan,nan,217.1812471076846,622.0450332378969,nan,622.5798504780978,nan,nan,nan,nan
1,263,1,1,1.0,1.0,0.582720257807523,0.0,6,4,7,2,3,0,nan,nan,nan,nan,nan,nan,nan,nan,nan,nan,nan,nan,0.0,nan,nan,nan,nan,nan,nan,nan,nan,nan,nan,nan,nan,nan,nan,nan,nan,nan,nan,217.1812471076846,623.045136442408,nan,623.6278567002155,nan,nan,nan,nan
1,264,1,1,1.0,1.0,0.5025642984546721,0.0,4,0,6,5,1,2,nan,nan,nan,nan,nan,nan,nan,nan,nan,nan,nan,nan,0.0,nan,nan,nan,nan,nan,nan,nan,nan,nan,nan,nan,nan,nan,nan,nan,nan,nan,nan,217.1812471076846,624.0452564680018,nan,624.5478207664564,nan,nan,nan,nan
1,265,1,1,1.0,1.0,0.5583898560144007,0.0,1,4,3,0,7,5,nan,nan,nan,nan,nan,nan,nan,nan,nan,nan,nan,nan,0.0,nan,nan,nan,nan,nan,nan,nan,nan,nan,nan,nan,nan,nan,nan,nan,nan,nan,nan,217.1812471076846,625.0453921738081,nan,625.6037820298225,nan,nan,nan,nan
1,266,1,1,1.0,1.0,0.5422494155354798,0.0,7,2,4,3,0,8,nan,nan,nan,nan,nan,nan,nan,nan,nan,nan,nan,nan,0.0,nan,nan,nan,nan,nan,nan,nan,nan,nan,nan,nan,nan,nan,nan,nan,nan,nan,nan,217.1812471076846,626.0455253138207,nan,626.5877747293562,nan,nan,nan,nan
1,267,1,1,1.0,1.0,0.5981117500923574,0.0,1,0,3,8,4,2,nan,nan,nan,nan,nan,nan,nan,nan,nan,nan,nan,nan,0.0,nan,nan,nan,nan,nan,nan,nan,nan,nan,nan,nan,nan,nan,nan,nan,nan,nan,nan,217.1812471076846,627.0456390674226,nan,627.643750817515,nan,nan,nan,nan
1,268,1,1,1.0,1.0,0.5899354740977287,0.0,5,8,1,6,0,7,nan,nan,nan,nan,nan,nan,nan,nan,nan,nan,nan,nan,0.0,nan,nan,nan,nan,nan,nan,nan,nan,nan,nan,nan,nan,nan,nan,nan,nan,nan,nan,217.1812471076846,628.0457867472433,nan,628.635722221341,nan,nan,nan,nan
1,269,1,1,1.0,1.0,0.5178297790698707,0.0,0,7,3,5,1,2,nan,nan,nan,nan,nan,nan,nan,nan,nan,nan,nan,nan,0.0,nan,nan,nan,nan,nan,nan,nan,nan,nan,nan,nan,nan,nan,nan,nan,nan,nan,nan,217.1812471076846,629.0458731311373,nan,629.5637029102072,nan,nan,nan,nan
1,270,0,0,0.0,1.0,0.5013629025779665,1.0,6,1,7,2,8,3,1.0,1.0,1.0,1.0,1.0,1.0,1.0,1.0,0.0,1.0,0.0,1.0,4.0,6.0,1.0,0.0,2.0,7.0,3.0,2.0,3.0,4.0,1.0,5.0,6.0,3.473487899173051,4.842619156464934,6.761368142906576,1.8595664198510349,8.296788361854851,9.38471576012671,217.1812471076846,630.0543504692614,630.8627429623157,630.5557133718394,641.2973582693376,642.2967102453113,631.8712145984173,641.2890177774243
1,271,1,1,1.0,1.0,0.6738837836310267,0.0,7,5,3,6,1,8,nan,nan,nan,nan,nan,nan,nan,nan,nan,nan,nan,nan,0.0,nan,nan,nan,nan,nan,nan,nan,nan,nan,nan,nan,nan,nan,nan,nan,nan,nan,nan,217.1812471076846,642.4975297832862,nan,643.1714135669172,nan,nan,nan,nan
1,272,1,1,1.0,1.0,0.6096735447645187,0.0,0,7,8,5,3,6,nan,nan,nan,nan,nan,nan,nan,nan,nan,nan,nan,nan,0.0,nan,nan,nan,nan,nan,nan,nan,nan,nan,nan,nan,nan,nan,nan,nan,nan,nan,nan,217.1812471076846,643.497683450114,nan,644.1073569948785,nan,nan,nan,nan
1,273,1,1,1.0,1.0,0.6175587377510965,0.0,1,2,5,0,7,4,nan,nan,nan,nan,nan,nan,nan,nan,nan,nan,nan,nan,0.0,nan,nan,nan,nan,nan,nan,nan,nan,nan,nan,nan,nan,nan,nan,nan,nan,nan,nan,217.1812471076846,644.4977886504494,nan,645.1153473882005,nan,nan,nan,nan
1,274,1,1,1.0,1.0,0.6174136237241328,0.0,0,7,2,6,8,5,nan,nan,nan,nan,nan,nan,nan,nan,nan,nan,nan,nan,0.0,nan,nan,nan,nan,nan,nan,nan,nan,nan,nan,nan,nan,nan,nan,nan,nan,nan,nan,217.1812471076846,645.497902689036,nan,646.1153163127601,nan,nan,nan,nan
1,275,1,1,1.0,1.0,0.5772509705275297,0.0,5,1,3,7,2,6,nan,nan,nan,nan,nan,nan,nan,nan,nan,nan,nan,nan,0.0,nan,nan,nan,nan,nan,nan,nan,nan,nan,nan,nan,nan,nan,nan,nan,nan,nan,nan,217.1812471076846,646.498043241445,nan,647.0752942119725,nan,nan,nan,nan
1,276,1,1,1.0,1.0,0.6567837093025446,0.0,6,0,4,5,1,3,nan,nan,nan,nan,nan,nan,nan,nan,nan,nan,nan,nan,0.0,nan,nan,nan,nan,nan,nan,nan,nan,nan,nan,nan,nan,nan,nan,nan,nan,nan,nan,217.1812471076846,647.506487222854,nan,648.1632709321566,nan,nan,nan,nan
1,277,1,1,1.0,1.0,0.6726416191086173,0.0,4,1,6,8,0,5,nan,nan,nan,nan,nan,nan,nan,nan,nan,nan,nan,nan,0.0,nan,nan,nan,nan,nan,nan,nan,nan,nan,nan,nan,nan,nan,nan,nan,nan,nan,nan,217.1812471076846,648.5066123805009,nan,649.1792539996095,nan,nan,nan,nan
1,278,1,1,1.0,1.0,0.68049231544137,0.0,0,7,8,6,3,2,nan,nan,nan,nan,nan,nan,nan,nan,nan,nan,nan,nan,0.0,nan,nan,nan,nan,nan,nan,nan,nan,nan,nan,nan,nan,nan,nan,nan,nan,nan,nan,217.1812471076846,649.5067301252857,nan,650.187222440727,nan,nan,nan,nan
1,279,0,0,0.0,1.0,0.6323369885794818,1.0,2,3,7,1,8,4,1.0,1.0,1.0,1.0,1.0,1.0,0.0,1.0,0.0,0.0,0.0,0.0,1.0,1.0,3.0,6.0,2.0,7.0,5.0,2.0,3.0,4.0,1.0,5.0,6.0,4.259479522705078,5.699885420035571,7.195694362279028,2.293984725140035,8.54833850171417,9.763480421155691,217.1812471076846,650.5068701072596,651.3152725789696,651.1392070958391,662.1249274783768,663.1222752276808,652.3237333809957,662.116602382157
1,280,1,1,1.0,1.0,0.46982697769999504,0.0,5,6,0,4,3,8,nan,nan,nan,nan,nan,nan,nan,nan,nan,nan,nan,nan,0.0,nan,nan,nan,nan,nan,nan,nan,nan,nan,nan,nan,nan,nan,nan,nan,nan,nan,nan,217.1812471076846,663.3251141025685,nan,663.7949410802685,nan,nan,nan,nan
1,281,1,1,1.0,1.0,0.49364791251719,0.0,1,4,3,7,6,2,nan,nan,nan,nan,nan,nan,nan,nan,nan,nan,nan,nan,0.0,nan,nan,nan,nan,nan,nan,nan,nan,nan,nan,nan,nan,nan,nan,nan,nan,nan,nan,217.1812471076846,664.3252429659478,nan,664.818890878465,nan,nan,nan,nan
1,282,0,0,0.0,1.0,0.52550742123276,1.0,8,7,6,5,1,0,1.0,1.0,1.0,1.0,1.0,1.0,0.0,1.0,1.0,0.0,0.0,0.0,2.0,5.0,7.0,6.0,8.0,4.0,1.0,2.0,3.0,4.0,1.0,5.0,6.0,2.9387359456159174,4.322591855656356,5.481858611106873,1.5370016479864717,6.473085343372077,8.016557536553591,217.1812471076846,665.3253592853434,666.1337708798237,665.8508667065762,675.2015488138422,676.2103497358039,667.1422353885137,675.1932160197757
1,283,1,1,1.0,1.0,0.48023897921666503,0.0,0,1,3,6,2,7,nan,nan,nan,nan,nan,nan,nan,nan,nan,nan,nan,nan,0.0,nan,nan,nan,nan,nan,nan,nan,nan,nan,nan,nan,nan,nan,nan,nan,nan,nan,nan,217.1812471076846,676.4183827796951,nan,676.8986217589118,nan,nan,nan,nan
1,284,1,1,1.0,1.0,0.39172884402796626,0.0,7,5,4,1,6,8,nan,nan,nan,nan,nan,nan,nan,nan,nan,nan,nan,nan,0.0,nan,nan,nan,nan,nan,nan,nan,nan,nan,nan,nan,nan,nan,nan,nan,nan,nan,nan,217.1812471076846,677.4268455775455,nan,677.8185744215734,nan,nan,nan,nan
1,285,1,1,1.0,1.0,0.32758759800344706,0.0,5,8,0,7,3,2,nan,nan,nan,nan,nan,nan,nan,nan,nan,nan,nan,nan,0.0,nan,nan,nan,nan,nan,nan,nan,nan,nan,nan,nan,nan,nan,nan,nan,nan,nan,nan,217.1812471076846,678.4269730155356,nan,678.7545606135391,nan,nan,nan,nan
1,286,0,0,0.0,1.0,0.5110906730405986,1.0,0,7,8,1,5,4,1.0,1.0,1.0,1.0,1.0,1.0,1.0,1.0,0.0,1.0,0.0,0.0,3.0,0.0,7.0,2.0,1.0,6.0,8.0,2.0,3.0,4.0,1.0,5.0,6.0,3.1872155987657607,4.252115200739354,6.530497746542096,1.6917741457000375,7.810761073138565,8.78579177102074,217.1812471076846,679.4354352434166,680.2438425617293,679.9465259164572,690.0867154542357,691.0923937167972,681.2606347324327,690.0783863663673
1,287,1,1,1.0,1.0,0.3709889450110495,0.0,6,5,2,3,7,1,nan,nan,nan,nan,nan,nan,nan,nan,nan,nan,nan,nan,0.0,nan,nan,nan,nan,nan,nan,nan,nan,nan,nan,nan,nan,nan,nan,nan,nan,nan,nan,217.1812471076846,691.2952978783287,nan,691.6662868233398,nan,nan,nan,nan
1,288,1,1,1.0,1.0,0.338890525046736,0.0,3,7,8,6,2,0,nan,nan,nan,nan,nan,nan,nan,nan,nan,nan,nan,nan,0.0,nan,nan,nan,nan,nan,nan,nan,nan,nan,nan,nan,nan,nan,nan,nan,nan,nan,nan,217.1812471076846,692.2953597442247,nan,692.6342502692714,nan,nan,nan,nan
1,289,1,1,1.0,1.0,0.2904233024455607,0.0,2,3,7,1,6,8,nan,nan,nan,nan,nan,nan,nan,nan,nan,nan,nan,nan,0.0,nan,nan,nan,nan,nan,nan,nan,nan,nan,nan,nan,nan,nan,nan,nan,nan,nan,nan,217.1812471076846,693.3037983090617,nan,693.5942216115072,nan,nan,nan,nan
1,290,0,0,0.0,1.0,0.5062634227797389,1.0,8,7,0,2,3,4,1.0,1.0,1.0,1.0,1.0,1.0,1.0,0.0,0.0,0.0,0.0,0.0,1.0,8.0,8.0,2.0,7.0,6.0,7.0,2.0,3.0,4.0,1.0,5.0,6.0,3.2131394036114216,4.3171727461740375,5.6054623876698315,1.8294109315611422,7.029972456861287,7.9810832920484245,217.1812471076846,694.3039394314401,695.1123416181654,694.8102028542198,704.1467840992846,705.1476975479163,696.1291449074633,704.1384575776756
1,291,1,1,1.0,1.0,0.6386418929323554,0.0,1,5,2,6,8,3,nan,nan,nan,nan,nan,nan,nan,nan,nan,nan,nan,nan,0.0,nan,nan,nan,nan,nan,nan,nan,nan,nan,nan,nan,nan,nan,nan,nan,nan,nan,nan,217.1812471076846,705.3553183423355,nan,705.9939602352679,nan,nan,nan,nan
1,292,1,1,1.0,1.0,0.4784517106600106,0.0,0,7,8,3,2,1,nan,nan,nan,nan,nan,nan,nan,nan,nan,nan,nan,nan,0.0,nan,nan,nan,nan,nan,nan,nan,nan,nan,nan,nan,nan,nan,nan,nan,nan,nan,nan,217.1812471076846,706.3555022296496,nan,706.8339539403096,nan,nan,nan,nan
1,293,1,1,1.0,1.0,0.5023610247299075,0.0,4,6,2,8,5,3,nan,nan,nan,nan,nan,nan,nan,nan,nan,nan,nan,nan,0.0,nan,nan,nan,nan,nan,nan,nan,nan,nan,nan,nan,nan,nan,nan,nan,nan,nan,nan,217.1812471076846,707.3555532619357,nan,707.8579142866656,nan,nan,nan,nan
1,294,1,1,1.0,1.0,0.4701887648552656,0.0,7,0,4,5,8,1,nan,nan,nan,nan,nan,nan,nan,nan,nan,nan,nan,nan,0.0,nan,nan,nan,nan,nan,nan,nan,nan,nan,nan,nan,nan,nan,nan,nan,nan,nan,nan,217.1812471076846,708.3556758533232,nan,708.8258646181785,nan,nan,nan,nan
1,295,1,1,1.0,1.0,0.42205795645713806,0.0,0,5,8,4,2,3,nan,nan,nan,nan,nan,nan,nan,nan,nan,nan,nan,nan,0.0,nan,nan,nan,nan,nan,nan,nan,nan,nan,nan,nan,nan,nan,nan,nan,nan,nan,nan,217.1812471076846,709.3557847598568,nan,709.7778427163139,nan,nan,nan,nan
1,296,1,1,1.0,1.0,0.3978866380639374,0.0,5,6,4,7,0,8,nan,nan,nan,nan,nan,nan,nan,nan,nan,nan,nan,nan,0.0,nan,nan,nan,nan,nan,nan,nan,nan,nan,nan,nan,nan,nan,nan,nan,nan,nan,nan,217.1812471076846,710.3559327251278,nan,710.7538193631917,nan,nan,nan,nan
1,297,1,1,1.0,1.0,0.3497820580378175,0.0,6,5,2,4,1,0,nan,nan,nan,nan,nan,nan,nan,nan,nan,nan,nan,nan,0.0,nan,nan,nan,nan,nan,nan,nan,nan,nan,nan,nan,nan,nan,nan,nan,nan,nan,nan,217.1812471076846,711.3560470486991,nan,711.7058291067369,nan,nan,nan,nan
1,298,1,1,1.0,1.0,0.3976043933071196,0.0,7,6,0,8,2,5,nan,nan,nan,nan,nan,nan,nan,nan,nan,nan,nan,nan,0.0,nan,nan,nan,nan,nan,nan,nan,nan,nan,nan,nan,nan,nan,nan,nan,nan,nan,nan,217.1812471076846,712.3561630826443,nan,712.7537674759515,nan,nan,nan,nan
1,299,1,1,1.0,1.0,0.3814662331715226,0.0,0,7,3,5,8,6,nan,nan,nan,nan,nan,nan,nan,nan,nan,nan,nan,nan,0.0,nan,nan,nan,nan,nan,nan,nan,nan,nan,nan,nan,nan,nan,nan,nan,nan,nan,nan,217.1812471076846,713.3562945122831,nan,713.7377607454546,nan,nan,nan,nan
1,300,1,1,1.0,1.0,0.3653172394260764,0.0,7,4,8,3,6,2,nan,nan,nan,nan,nan,nan,nan,nan,nan,nan,nan,nan,0.0,nan,nan,nan,nan,nan,nan,nan,nan,nan,nan,nan,nan,nan,nan,nan,nan,nan,nan,217.1812471076846,714.3564185290597,nan,714.7217357684858,nan,nan,nan,nan
1,301,1,1,1.0,1.0,0.38118227710947394,0.0,6,8,3,2,7,1,nan,nan,nan,nan,nan,nan,nan,nan,nan,nan,nan,nan,0.0,nan,nan,nan,nan,nan,nan,nan,nan,nan,nan,nan,nan,nan,nan,nan,nan,nan,nan,217.1812471076846,715.3565325676464,nan,715.7377148447558,nan,nan,nan,nan
1,302,1,1,1.0,1.0,0.3650107607245445,0.0,3,7,6,5,1,2,nan,nan,nan,nan,nan,nan,nan,nan,nan,nan,nan,nan,0.0,nan,nan,nan,nan,nan,nan,nan,nan,nan,nan,nan,nan,nan,nan,nan,nan,nan,nan,217.1812471076846,716.3566642822698,nan,716.7216750429943,nan,nan,nan,nan
1,303,1,1,1.0,1.0,0.3408585446886718,0.0,0,6,5,8,3,4,nan,nan,nan,nan,nan,nan,nan,nan,nan,nan,nan,nan,0.0,nan,nan,nan,nan,nan,nan,nan,nan,nan,nan,nan,nan,nan,nan,nan,nan,nan,nan,217.1812471076846,717.3567957114428,nan,717.6976542561315,nan,nan,nan,nan
1,304,1,1,1.0,1.0,0.3487557116895914,0.0,4,0,8,7,5,1,nan,nan,nan,nan,nan,nan,nan,nan,nan,nan,nan,nan,0.0,nan,nan,nan,nan,nan,nan,nan,nan,nan,nan,nan,nan,nan,nan,nan,nan,nan,nan,217.1812471076846,718.3569077542052,nan,718.7056634658948,nan,nan,nan,nan
1,305,1,1,1.0,1.0,0.3566152458079159,0.0,7,2,5,8,1,3,nan,nan,nan,nan,nan,nan,nan,nan,nan,nan,nan,nan,0.0,nan,nan,nan,nan,nan,nan,nan,nan,nan,nan,nan,nan,nan,nan,nan,nan,nan,nan,217.1812471076846,719.3570166612044,nan,719.7136319070123,nan,nan,nan,nan
1,306,1,1,1.0,1.0,0.3404192114248872,0.0,3,7,6,2,0,5,nan,nan,nan,nan,nan,nan,nan,nan,nan,nan,nan,nan,0.0,nan,nan,nan,nan,nan,nan,nan,nan,nan,nan,nan,nan,nan,nan,nan,nan,nan,nan,217.1812471076846,720.3571623452008,nan,720.6975815566257,nan,nan,nan,nan
1,307,1,1,1.0,1.0,0.3483169483952224,0.0,2,4,8,3,5,7,nan,nan,nan,nan,nan,nan,nan,nan,nan,nan,nan,nan,0.0,nan,nan,nan,nan,nan,nan,nan,nan,nan,nan,nan,nan,nan,nan,nan,nan,nan,nan,217.1812471076846,721.3572820858099,nan,721.7055990342051,nan,nan,nan,nan
1,308,1,1,1.0,1.0,0.35607726871967316,0.0,3,6,4,0,7,2,nan,nan,nan,nan,nan,nan,nan,nan,nan,nan,nan,nan,0.0,nan,nan,nan,nan,nan,nan,nan,nan,nan,nan,nan,nan,nan,nan,nan,nan,nan,nan,217.1812471076846,722.3574639772996,nan,722.7135412460193,nan,nan,nan,nan
1,309,1,1,1.0,1.0,0.3639906868338585,0.0,5,0,7,3,1,6,nan,nan,nan,nan,nan,nan,nan,nan,nan,nan,nan,nan,0.0,nan,nan,nan,nan,nan,nan,nan,nan,nan,nan,nan,nan,nan,nan,nan,nan,nan,nan,217.1812471076846,723.3575266981497,nan,723.7215173849836,nan,nan,nan,nan
1,310,1,1,1.0,1.0,0.33986298833042383,0.0,6,4,2,5,0,3,nan,nan,nan,nan,nan,nan,nan,nan,nan,nan,nan,nan,0.0,nan,nan,nan,nan,nan,nan,nan,nan,nan,nan,nan,nan,nan,nan,nan,nan,nan,nan,217.1812471076846,724.3576413071714,nan,724.6975042955019,nan,nan,nan,nan
1,311,1,1,1.0,1.0,0.3317163623869419,0.0,2,8,0,1,3,6,nan,nan,nan,nan,nan,nan,nan,nan,nan,nan,nan,nan,0.0,nan,nan,nan,nan,nan,nan,nan,nan,nan,nan,nan,nan,nan,nan,nan,nan,nan,nan,217.1812471076846,725.3577678897418,nan,725.6894842521288,nan,nan,nan,nan
1,312,0,0,1.0,0.0,0.38754676654934883,1.0,5,0,6,4,1,7,1.0,1.0,1.0,1.0,1.0,1.0,0.0,0.0,0.0,1.0,0.0,0.0,1.0,1.0,6.0,8.0,4.0,8.0,5.0,4.0,3.0,2.0,1.0,6.0,5.0,7.9983686790801585,6.968442122917622,6.054447402246296,5.135616023093462,10.334409096743912,8.982573775108904,217.1812471076846,726.3579110079445,727.1663060672581,726.7454577744938,738.5593657405116,739.5605086912401,728.183099378366,738.5510309506208
1,313,1,1,1.0,1.0,0.37726334389299154,0.0,1,2,0,3,7,6,nan,nan,nan,nan,nan,nan,nan,nan,nan,nan,nan,nan,0.0,nan,nan,nan,nan,nan,nan,nan,nan,nan,nan,nan,nan,nan,nan,nan,nan,nan,nan,217.1812471076846,739.7679019789211,nan,740.1451653228141,nan,nan,nan,nan
1,314,1,1,1.0,1.0,0.4091023257933557,0.0,0,3,6,2,8,4,nan,nan,nan,nan,nan,nan,nan,nan,nan,nan,nan,nan,0.0,nan,nan,nan,nan,nan,nan,nan,nan,nan,nan,nan,nan,nan,nan,nan,nan,nan,nan,217.1812471076846,740.7680131667294,nan,741.1771154925227,nan,nan,nan,nan
1,315,1,1,1.0,1.0,0.47295305877923965,0.0,3,4,2,8,6,7,nan,nan,nan,nan,nan,nan,nan,nan,nan,nan,nan,nan,0.0,nan,nan,nan,nan,nan,nan,nan,nan,nan,nan,nan,nan,nan,nan,nan,nan,nan,nan,217.1812471076846,741.7681346177123,nan,742.2410876764916,nan,nan,nan,nan
1,316,1,1,1.0,1.0,0.4168136101216078,0.0,0,6,7,4,5,1,nan,nan,nan,nan,nan,nan,nan,nan,nan,nan,nan,nan,0.0,nan,nan,nan,nan,nan,nan,nan,nan,nan,nan,nan,nan,nan,nan,nan,nan,nan,nan,217.1812471076846,742.7682540728711,nan,743.1850676829927,nan,nan,nan,nan
1,317,1,1,1.0,1.0,0.464671581517905,0.0,6,3,4,0,7,8,nan,nan,nan,nan,nan,nan,nan,nan,nan,nan,nan,nan,0.0,nan,nan,nan,nan,nan,nan,nan,nan,nan,nan,nan,nan,nan,nan,nan,nan,nan,nan,217.1812471076846,743.7683769497089,nan,744.2330485312268,nan,nan,nan,nan
1,318,1,1,1.0,1.0,0.4485177416354418,0.0,4,5,1,7,0,2,nan,nan,nan,nan,nan,nan,nan,nan,nan,nan,nan,nan,0.0,nan,nan,nan,nan,nan,nan,nan,nan,nan,nan,nan,nan,nan,nan,nan,nan,nan,nan,217.1812471076846,744.7685009664856,nan,745.217018708121,nan,nan,nan,nan
1,319,1,1,1.0,1.0,0.4723717472516,0.0,3,2,5,0,4,1,nan,nan,nan,nan,nan,nan,nan,nan,nan,nan,nan,nan,0.0,nan,nan,nan,nan,nan,nan,nan,nan,nan,nan,nan,nan,nan,nan,nan,nan,nan,nan,217.1812471076846,745.768625838682,nan,746.2409975859337,nan,nan,nan,nan
1,320,1,1,1.0,1.0,0.4722360414452851,0.0,2,1,3,8,5,6,nan,nan,nan,nan,nan,nan,nan,nan,nan,nan,nan,nan,0.0,nan,nan,nan,nan,nan,nan,nan,nan,nan,nan,nan,nan,nan,nan,nan,nan,nan,nan,217.1812471076846,746.768749570474,nan,747.2409856119193,nan,nan,nan,nan
1,321,1,1,1.0,1.0,0.3760756328701973,0.0,4,0,1,2,6,3,nan,nan,nan,nan,nan,nan,nan,nan,nan,nan,nan,nan,0.0,nan,nan,nan,nan,nan,nan,nan,nan,nan,nan,nan,nan,nan,nan,nan,nan,nan,nan,217.1812471076846,747.7688915482722,nan,748.1449671811424,nan,nan,nan,nan
1,322,1,1,1.0,1.0,0.31992962677031755,0.0,0,1,2,5,8,4,nan,nan,nan,nan,nan,nan,nan,nan,nan,nan,nan,nan,0.0,nan,nan,nan,nan,nan,nan,nan,nan,nan,nan,nan,nan,nan,nan,nan,nan,nan,nan,217.1812471076846,748.7690124292858,nan,749.0889420560561,nan,nan,nan,nan
1,323,1,1,1.0,1.0,0.4157995223067701,0.0,7,6,1,4,3,0,nan,nan,nan,nan,nan,nan,nan,nan,nan,nan,nan,nan,0.0,nan,nan,nan,nan,nan,nan,nan,nan,nan,nan,nan,nan,nan,nan,nan,nan,nan,nan,217.1812471076846,749.769118485041,nan,750.1849180073477,nan,nan,nan,nan
1,324,1,1,1.0,1.0,0.43166284961625934,0.0,4,0,6,7,1,8,nan,nan,nan,nan,nan,nan,nan,nan,nan,nan,nan,nan,0.0,nan,nan,nan,nan,nan,nan,nan,nan,nan,nan,nan,nan,nan,nan,nan,nan,nan,nan,217.1812471076846,750.7692325236276,nan,751.2008953732438,nan,nan,nan,nan
1,325,1,1,1.0,1.0,0.3995059854350984,0.0,1,7,5,8,2,3,nan,nan,nan,nan,nan,nan,nan,nan,nan,nan,nan,nan,0.0,nan,nan,nan,nan,nan,nan,nan,nan,nan,nan,nan,nan,nan,nan,nan,nan,nan,nan,217.1812471076846,751.7693679439835,nan,752.1688739294186,nan,nan,nan,nan
1,326,1,1,1.0,1.0,0.41538869915530086,0.0,3,2,1,5,6,8,nan,nan,nan,nan,nan,nan,nan,nan,nan,nan,nan,nan,0.0,nan,nan,nan,nan,nan,nan,nan,nan,nan,nan,nan,nan,nan,nan,nan,nan,nan,nan,217.1812471076846,752.769454613328,nan,753.1848433124833,nan,nan,nan,nan
1,327,1,1,1.0,1.0,0.4152207770384848,0.0,1,6,3,2,5,7,nan,nan,nan,nan,nan,nan,nan,nan,nan,nan,nan,nan,0.0,nan,nan,nan,nan,nan,nan,nan,nan,nan,nan,nan,nan,nan,nan,nan,nan,nan,nan,217.1812471076846,753.7696040039882,nan,754.1848247810267,nan,nan,nan,nan
1,328,1,1,1.0,1.0,0.3750586942769587,0.0,8,1,5,3,2,6,nan,nan,nan,nan,nan,nan,nan,nan,nan,nan,nan,nan,0.0,nan,nan,nan,nan,nan,nan,nan,nan,nan,nan,nan,nan,nan,nan,nan,nan,nan,nan,217.1812471076846,754.7697354331613,nan,755.1447941274382,nan,nan,nan,nan
1,329,1,1,1.0,1.0,0.3749172864481807,0.0,4,8,1,6,7,0,nan,nan,nan,nan,nan,nan,nan,nan,nan,nan,nan,nan,0.0,nan,nan,nan,nan,nan,nan,nan,nan,nan,nan,nan,nan,nan,nan,nan,nan,nan,nan,217.1812471076846,755.7698617307469,nan,756.1447790171951,nan,nan,nan,nan
1,330,1,1,1.0,1.0,0.5267353309318423,0.0,3,2,0,7,4,6,nan,nan,nan,nan,nan,nan,nan,nan,nan,nan,nan,nan,0.0,nan,nan,nan,nan,nan,nan,nan,nan,nan,nan,nan,nan,nan,nan,nan,nan,nan,nan,217.1812471076846,756.770002853591,nan,757.2967381845228,nan,nan,nan,nan
1,331,1,1,1.0,1.0,0.4866188634186983,0.0,7,3,6,1,8,5,nan,nan,nan,nan,nan,nan,nan,nan,nan,nan,nan,nan,0.0,nan,nan,nan,nan,nan,nan,nan,nan,nan,nan,nan,nan,nan,nan,nan,nan,nan,nan,217.1812471076846,757.7701086243615,nan,758.2567274877802,nan,nan,nan,nan
1,332,1,1,1.0,1.0,0.44648129865527153,0.0,6,5,2,8,7,4,nan,nan,nan,nan,nan,nan,nan,nan,nan,nan,nan,nan,0.0,nan,nan,nan,nan,nan,nan,nan,nan,nan,nan,nan,nan,nan,nan,nan,nan,nan,nan,217.1812471076846,758.7702249437571,nan,759.2167062424123,nan,nan,nan,nan
1,333,1,1,1.0,1.0,0.398331958334893,0.0,1,4,0,3,2,8,nan,nan,nan,nan,nan,nan,nan,nan,nan,nan,nan,nan,0.0,nan,nan,nan,nan,nan,nan,nan,nan,nan,nan,nan,nan,nan,nan,nan,nan,nan,nan,217.1812471076846,759.770348675549,nan,760.1686806338839,nan,nan,nan,nan
1,334,1,1,1.0,1.0,0.4141687718220055,0.0,8,7,2,4,0,5,nan,nan,nan,nan,nan,nan,nan,nan,nan,nan,nan,nan,0.0,nan,nan,nan,nan,nan,nan,nan,nan,nan,nan,nan,nan,nan,nan,nan,nan,nan,nan,217.1812471076846,760.7704823855311,nan,761.1846511573531,nan,nan,nan,nan
1,335,1,1,1.0,1.0,0.3660316909663379,0.0,7,1,3,0,8,6,nan,nan,nan,nan,nan,nan,nan,nan,nan,nan,nan,nan,0.0,nan,nan,nan,nan,nan,nan,nan,nan,nan,nan,nan,nan,nan,nan,nan,nan,nan,nan,217.1812471076846,761.7706066872925,nan,762.1366383782588,nan,nan,nan,nan
1,336,0,0,0.0,1.0,0.4935583923943341,0.0,8,6,5,3,0,4,nan,nan,nan,nan,nan,nan,nan,nan,nan,nan,nan,nan,0.0,nan,nan,nan,nan,nan,nan,nan,nan,nan,nan,nan,nan,nan,nan,nan,nan,nan,nan,217.1812471076846,762.7790438267402,nan,763.2726022191346,nan,nan,nan,nan
1,337,1,1,1.0,1.0,0.5653832675889134,0.0,3,4,7,2,8,5,nan,nan,nan,nan,nan,nan,nan,nan,nan,nan,nan,nan,0.0,nan,nan,nan,nan,nan,nan,nan,nan,nan,nan,nan,nan,nan,nan,nan,nan,nan,nan,217.1812471076846,763.7791886557825,nan,764.3445719233714,nan,nan,nan,nan
1,338,0,0,nan,nan,nan,0.0,6,7,1,0,3,8,nan,nan,nan,nan,nan,nan,nan,nan,nan,nan,nan,nan,0.0,nan,nan,nan,nan,nan,nan,nan,nan,nan,nan,nan,nan,nan,nan,nan,nan,nan,nan,217.1812471076846,764.779299843125,nan,nan,nan,nan,nan,nan
1,339,1,1,1.0,1.0,0.7250793776474893,0.0,1,6,3,4,5,2,nan,nan,nan,nan,nan,nan,nan,nan,nan,nan,nan,nan,0.0,nan,nan,nan,nan,nan,nan,nan,nan,nan,nan,nan,nan,nan,nan,nan,nan,nan,nan,217.1812471076846,765.7794218645431,nan,766.5045012421906,nan,nan,nan,nan
1,340,1,1,1.0,1.0,0.42895072884857655,0.0,4,5,7,1,0,8,nan,nan,nan,nan,nan,nan,nan,nan,nan,nan,nan,nan,0.0,nan,nan,nan,nan,nan,nan,nan,nan,nan,nan,nan,nan,nan,nan,nan,nan,nan,nan,217.1812471076846,766.779561846517,nan,767.2085125753656,nan,nan,nan,nan
1,341,1,1,1.0,1.0,0.35680711548775434,0.0,2,4,1,6,7,5,nan,nan,nan,nan,nan,nan,nan,nan,nan,nan,nan,nan,0.0,nan,nan,nan,nan,nan,nan,nan,nan,nan,nan,nan,nan,nan,nan,nan,nan,nan,nan,217.1812471076846,767.7796872891486,nan,768.1364944046363,nan,nan,nan,nan
1,342,1,1,1.0,1.0,0.4046608111821115,0.0,7,0,6,1,2,3,nan,nan,nan,nan,nan,nan,nan,nan,nan,nan,nan,nan,0.0,nan,nan,nan,nan,nan,nan,nan,nan,nan,nan,nan,nan,nan,nan,nan,nan,nan,nan,217.1812471076846,768.7797996168956,nan,769.1844604280777,nan,nan,nan,nan
1,343,0,0,0.0,1.0,0.46852978970855474,0.0,6,8,5,0,3,4,nan,nan,nan,nan,nan,nan,nan,nan,nan,nan,nan,nan,0.0,nan,nan,nan,nan,nan,nan,nan,nan,nan,nan,nan,nan,nan,nan,nan,nan,nan,nan,217.1812471076846,769.7799193575047,nan,770.2484491472133,nan,nan,nan,nan
1,344,1,1,1.0,1.0,0.5563747957348824,0.0,5,2,0,3,6,8,nan,nan,nan,nan,nan,nan,nan,nan,nan,nan,nan,nan,0.0,nan,nan,nan,nan,nan,nan,nan,nan,nan,nan,nan,nan,nan,nan,nan,nan,nan,nan,217.1812471076846,770.7800436592661,nan,771.336418455001,nan,nan,nan,nan
1,345,1,1,1.0,1.0,0.4762191213667393,0.0,2,4,8,7,3,1,nan,nan,nan,nan,nan,nan,nan,nan,nan,nan,nan,nan,0.0,nan,nan,nan,nan,nan,nan,nan,nan,nan,nan,nan,nan,nan,nan,nan,nan,nan,nan,217.1812471076846,771.7801705272868,nan,772.2563896486536,nan,nan,nan,nan
1,346,1,1,1.0,1.0,0.4840484354645014,0.0,0,2,6,5,7,8,nan,nan,nan,nan,nan,nan,nan,nan,nan,nan,nan,nan,0.0,nan,nan,nan,nan,nan,nan,nan,nan,nan,nan,nan,nan,nan,nan,nan,nan,nan,nan,217.1812471076846,772.7803130755201,nan,773.2643615109846,nan,nan,nan,nan
1,347,1,1,1.0,1.0,0.40391756501048803,0.0,6,0,8,4,2,1,nan,nan,nan,nan,nan,nan,nan,nan,nan,nan,nan,nan,0.0,nan,nan,nan,nan,nan,nan,nan,nan,nan,nan,nan,nan,nan,nan,nan,nan,nan,nan,217.1812471076846,773.7804273990914,nan,774.1843449641019,nan,nan,nan,nan
1,348,1,1,1.0,1.0,0.4034705343656242,0.0,0,4,6,7,8,2,nan,nan,nan,nan,nan,nan,nan,nan,nan,nan,nan,nan,0.0,nan,nan,nan,nan,nan,nan,nan,nan,nan,nan,nan,nan,nan,nan,nan,nan,nan,nan,217.1812471076846,774.7888668188825,nan,775.1923373532481,nan,nan,nan,nan
1,349,1,1,1.0,1.0,0.4033120204694569,0.0,1,3,2,0,5,7,nan,nan,nan,nan,nan,nan,nan,nan,nan,nan,nan,nan,0.0,nan,nan,nan,nan,nan,nan,nan,nan,nan,nan,nan,nan,nan,nan,nan,nan,nan,nan,217.1812471076846,775.7890056609176,nan,776.1923176813871,nan,nan,nan,nan
1,350,1,1,1.0,1.0,0.3788333688862622,0.0,5,8,0,7,6,4,nan,nan,nan,nan,nan,nan,nan,nan,nan,nan,nan,nan,0.0,nan,nan,nan,nan,nan,nan,nan,nan,nan,nan,nan,nan,nan,nan,nan,nan,nan,nan,217.1812471076846,776.7974504977465,nan,777.1762838666327,nan,nan,nan,nan
1,351,1,1,1.0,1.0,0.4106846102513373,0.0,4,1,7,2,8,0,nan,nan,nan,nan,nan,nan,nan,nan,nan,nan,nan,nan,0.0,nan,nan,nan,nan,nan,nan,nan,nan,nan,nan,nan,nan,nan,nan,nan,nan,nan,nan,217.1812471076846,777.7975753699429,nan,778.2082599801943,nan,nan,nan,nan
1,352,1,1,1.0,1.0,0.41052381601184607,0.0,3,2,6,5,0,1,nan,nan,nan,nan,nan,nan,nan,nan,nan,nan,nan,nan,0.0,nan,nan,nan,nan,nan,nan,nan,nan,nan,nan,nan,nan,nan,nan,nan,nan,nan,nan,217.1812471076846,778.7977125011384,nan,779.2082363171503,nan,nan,nan,nan
1,353,1,1,1.0,1.0,0.44237277656793594,0.0,6,7,1,0,4,8,nan,nan,nan,nan,nan,nan,nan,nan,nan,nan,nan,nan,0.0,nan,nan,nan,nan,nan,nan,nan,nan,nan,nan,nan,nan,nan,nan,nan,nan,nan,nan,217.1812471076846,779.7978382287547,nan,780.2402110053226,nan,nan,nan,nan
1,354,1,1,1.0,1.0,0.48222153866663575,0.0,5,8,0,1,6,4,nan,nan,nan,nan,nan,nan,nan,nan,nan,nan,nan,nan,0.0,nan,nan,nan,nan,nan,nan,nan,nan,nan,nan,nan,nan,nan,nan,nan,nan,nan,nan,217.1812471076846,780.7979573989287,nan,781.2801789375953,nan,nan,nan,nan
1,355,1,1,1.0,1.0,0.49807830853387713,0.0,7,4,5,3,0,1,nan,nan,nan,nan,nan,nan,nan,nan,nan,nan,nan,nan,0.0,nan,nan,nan,nan,nan,nan,nan,nan,nan,nan,nan,nan,nan,nan,nan,nan,nan,nan,217.1812471076846,781.7980817011558,nan,782.2961600096896,nan,nan,nan,nan
1,356,1,1,1.0,1.0,0.5459268721751869,0.0,4,5,1,6,8,7,nan,nan,nan,nan,nan,nan,nan,nan,nan,nan,nan,nan,0.0,nan,nan,nan,nan,nan,nan,nan,nan,nan,nan,nan,nan,nan,nan,nan,nan,nan,nan,217.1812471076846,782.7982079987414,nan,783.3441348709166,nan,nan,nan,nan
1,357,1,1,1.0,1.0,0.5697754612192512,0.0,0,1,4,5,2,8,nan,nan,nan,nan,nan,nan,nan,nan,nan,nan,nan,nan,0.0,nan,nan,nan,nan,nan,nan,nan,nan,nan,nan,nan,nan,nan,nan,nan,nan,nan,nan,217.1812471076846,783.7983385724947,nan,784.3681140337139,nan,nan,nan,nan
1,358,1,1,1.0,1.0,0.641630841884762,0.0,4,5,2,7,8,3,nan,nan,nan,nan,nan,nan,nan,nan,nan,nan,nan,nan,0.0,nan,nan,nan,nan,nan,nan,nan,nan,nan,nan,nan,nan,nan,nan,nan,nan,nan,nan,217.1812471076846,784.7984546069056,nan,785.4400854487903,nan,nan,nan,nan
1,359,1,1,1.0,1.0,0.5855110650882125,0.0,3,1,6,2,7,0,nan,nan,nan,nan,nan,nan,nan,nan,nan,nan,nan,nan,0.0,nan,nan,nan,nan,nan,nan,nan,nan,nan,nan,nan,nan,nan,nan,nan,nan,nan,nan,217.1812471076846,785.7985646538436,nan,786.3840757189319,nan,nan,nan,nan
1,360,1,1,1.0,1.0,0.5533382352441549,0.0,8,7,0,4,5,2,nan,nan,nan,nan,nan,nan,nan,nan,nan,nan,nan,nan,0.0,nan,nan,nan,nan,nan,nan,nan,nan,nan,nan,nan,nan,nan,nan,nan,nan,nan,nan,217.1812471076846,786.7987037808634,nan,787.3520420161076,nan,nan,nan,nan
1,361,1,1,1.0,1.0,0.505204860586673,0.0,5,4,6,2,8,1,nan,nan,nan,nan,nan,nan,nan,nan,nan,nan,nan,nan,0.0,nan,nan,nan,nan,nan,nan,nan,nan,nan,nan,nan,nan,nan,nan,nan,nan,nan,nan,217.1812471076846,787.7988263722509,nan,788.3040312328376,nan,nan,nan,nan
1,362,1,1,1.0,1.0,0.4730536974966526,0.0,8,7,3,0,4,6,nan,nan,nan,nan,nan,nan,nan,nan,nan,nan,nan,nan,0.0,nan,nan,nan,nan,nan,nan,nan,nan,nan,nan,nan,nan,nan,nan,nan,nan,nan,nan,217.1812471076846,788.7989449724555,nan,789.2719986699522,nan,nan,nan,nan
1,363,1,1,1.0,1.0,0.44091907050460577,0.0,3,5,1,2,6,0,nan,nan,nan,nan,nan,nan,nan,nan,nan,nan,nan,nan,0.0,nan,nan,nan,nan,nan,nan,nan,nan,nan,nan,nan,nan,nan,nan,nan,nan,nan,nan,217.1812471076846,789.7990681342781,nan,790.2399872047827,nan,nan,nan,nan
1,364,1,1,1.0,1.0,0.408778456505388,0.0,6,1,5,8,0,3,nan,nan,nan,nan,nan,nan,nan,nan,nan,nan,nan,nan,0.0,nan,nan,nan,nan,nan,nan,nan,nan,nan,nan,nan,nan,nan,nan,nan,nan,nan,nan,217.1812471076846,790.7991884448566,nan,791.2079669013619,nan,nan,nan,nan
1,365,1,1,1.0,1.0,0.4006170053035021,0.0,5,7,2,0,1,6,nan,nan,nan,nan,nan,nan,nan,nan,nan,nan,nan,nan,0.0,nan,nan,nan,nan,nan,nan,nan,nan,nan,nan,nan,nan,nan,nan,nan,nan,nan,nan,217.1812471076846,791.7993255760521,nan,792.1999425813556,nan,nan,nan,nan
1,366,1,1,1.0,1.0,0.35247479286044836,0.0,8,3,0,1,6,4,nan,nan,nan,nan,nan,nan,nan,nan,nan,nan,nan,nan,0.0,nan,nan,nan,nan,nan,nan,nan,nan,nan,nan,nan,nan,nan,nan,nan,nan,nan,nan,217.1812471076846,792.7994416099973,nan,793.1519164028578,nan,nan,nan,nan
1,367,1,1,1.0,1.0,0.3603354673832655,0.0,0,6,5,8,7,1,nan,nan,nan,nan,nan,nan,nan,nan,nan,nan,nan,nan,0.0,nan,nan,nan,nan,nan,nan,nan,nan,nan,nan,nan,nan,nan,nan,nan,nan,nan,nan,217.1812471076846,793.799551086966,nan,794.1598865543492,nan,nan,nan,nan
1,368,1,1,1.0,1.0,0.38418662128970027,0.0,4,7,3,6,0,8,nan,nan,nan,nan,nan,nan,nan,nan,nan,nan,nan,nan,0.0,nan,nan,nan,nan,nan,nan,nan,nan,nan,nan,nan,nan,nan,nan,nan,nan,nan,nan,217.1812471076846,794.7996796658263,nan,795.183866287116,nan,nan,nan,nan
1,369,1,1,1.0,1.0,0.3520554159767926,0.0,2,3,6,0,1,5,nan,nan,nan,nan,nan,nan,nan,nan,nan,nan,nan,nan,0.0,nan,nan,nan,nan,nan,nan,nan,nan,nan,nan,nan,nan,nan,nan,nan,nan,nan,nan,217.1812471076846,795.7997985505499,nan,796.1518539665267,nan,nan,nan,nan
1,370,1,1,1.0,1.0,0.3518444448709488,0.0,8,0,3,4,6,7,nan,nan,nan,nan,nan,nan,nan,nan,nan,nan,nan,nan,0.0,nan,nan,nan,nan,nan,nan,nan,nan,nan,nan,nan,nan,nan,nan,nan,nan,nan,nan,217.1812471076846,796.7999707488343,nan,797.1518151937053,nan,nan,nan,nan
1,371,1,1,1.0,1.0,0.37575489934533834,0.0,5,8,2,3,1,4,nan,nan,nan,nan,nan,nan,nan,nan,nan,nan,nan,nan,0.0,nan,nan,nan,nan,nan,nan,nan,nan,nan,nan,nan,nan,nan,nan,nan,nan,nan,nan,217.1812471076846,797.8000480099581,nan,798.1758029093035,nan,nan,nan,nan
1,372,1,1,1.0,1.0,0.34359832014888525,0.0,4,0,5,2,7,3,nan,nan,nan,nan,nan,nan,nan,nan,nan,nan,nan,nan,0.0,nan,nan,nan,nan,nan,nan,nan,nan,nan,nan,nan,nan,nan,nan,nan,nan,nan,nan,217.1812471076846,798.8001731671393,nan,799.1437714872882,nan,nan,nan,nan
1,373,1,1,1.0,1.0,0.3514387523755431,0.0,5,1,0,4,8,2,nan,nan,nan,nan,nan,nan,nan,nan,nan,nan,nan,nan,0.0,nan,nan,nan,nan,nan,nan,nan,nan,nan,nan,nan,nan,nan,nan,nan,nan,nan,nan,217.1812471076846,799.8003071625717,nan,800.1517459149472,nan,nan,nan,nan
1,374,1,1,1.0,1.0,0.3833159375935793,0.0,8,3,4,7,1,6,nan,nan,nan,nan,nan,nan,nan,nan,nan,nan,nan,nan,0.0,nan,nan,nan,nan,nan,nan,nan,nan,nan,nan,nan,nan,nan,nan,nan,nan,nan,nan,217.1812471076846,800.8004212011583,nan,801.1837371387519,nan,nan,nan,nan
1,375,1,1,1.0,1.0,0.4071502718143165,0.0,1,7,5,2,4,8,nan,nan,nan,nan,nan,nan,nan,nan,nan,nan,nan,nan,0.0,nan,nan,nan,nan,nan,nan,nan,nan,nan,nan,nan,nan,nan,nan,nan,nan,nan,nan,217.1812471076846,801.8005583323538,nan,802.2077086041681,nan,nan,nan,nan
1,376,0,0,0.0,1.0,0.4630066198296845,1.0,8,0,3,1,7,4,1.0,1.0,1.0,1.0,1.0,1.0,1.0,1.0,0.0,1.0,1.0,0.0,4.0,8.0,0.0,0.0,1.0,7.0,6.0,2.0,3.0,4.0,1.0,5.0,6.0,3.3471717163920403,7.075043042190373,7.969752995297313,1.7385829631239176,9.0423219720833,10.177795447409153,217.1812471076846,802.8006678093225,803.6090731318109,803.2636744291522,814.843794323504,815.8428386808373,804.6258692941628,814.8354589636438
1,377,1,1,1.0,1.0,0.5633573732338846,0.0,6,2,0,5,8,3,nan,nan,nan,nan,nan,nan,nan,nan,nan,nan,nan,nan,0.0,nan,nan,nan,nan,nan,nan,nan,nan,nan,nan,nan,nan,nan,nan,nan,nan,nan,nan,217.1812471076846,816.0440419581719,nan,816.6073993314058,nan,nan,nan,nan
1,378,1,1,1.0,1.0,0.6352734798565507,0.0,4,3,6,2,5,1,nan,nan,nan,nan,nan,nan,nan,nan,nan,nan,nan,nan,0.0,nan,nan,nan,nan,nan,nan,nan,nan,nan,nan,nan,nan,nan,nan,nan,nan,nan,nan,217.1812471076846,817.0440835822374,nan,817.6793570620939,nan,nan,nan,nan
1,379,1,1,1.0,1.0,0.5871181525290012,0.0,1,6,7,0,3,5,nan,nan,nan,nan,nan,nan,nan,nan,nan,nan,nan,nan,0.0,nan,nan,nan,nan,nan,nan,nan,nan,nan,nan,nan,nan,nan,nan,nan,nan,nan,nan,217.1812471076846,818.0442078839988,nan,818.6313260365278,nan,nan,nan,nan
1,380,1,1,1.0,1.0,0.4989920421503484,0.0,0,4,2,6,7,3,nan,nan,nan,nan,nan,nan,nan,nan,nan,nan,nan,nan,0.0,nan,nan,nan,nan,nan,nan,nan,nan,nan,nan,nan,nan,nan,nan,nan,nan,nan,nan,217.1812471076846,819.0443367473781,nan,819.5433287895285,nan,nan,nan,nan
1,381,1,1,1.0,1.0,0.4988167081028223,0.0,4,1,5,7,2,8,nan,nan,nan,nan,nan,nan,nan,nan,nan,nan,nan,nan,0.0,nan,nan,nan,nan,nan,nan,nan,nan,nan,nan,nan,nan,nan,nan,nan,nan,nan,nan,217.1812471076846,820.0444590537809,nan,820.5432757618837,nan,nan,nan,nan
1,382,1,1,1.0,1.0,0.48266628896817565,0.0,0,2,6,1,5,3,nan,nan,nan,nan,nan,nan,nan,nan,nan,nan,nan,nan,0.0,nan,nan,nan,nan,nan,nan,nan,nan,nan,nan,nan,nan,nan,nan,nan,nan,nan,nan,217.1812471076846,821.0445958999917,nan,821.5272621889599,nan,nan,nan,nan
1,383,1,1,1.0,1.0,0.4745230837725103,0.0,7,8,5,6,3,0,nan,nan,nan,nan,nan,nan,nan,nan,nan,nan,nan,nan,0.0,nan,nan,nan,nan,nan,nan,nan,nan,nan,nan,nan,nan,nan,nan,nan,nan,nan,nan,217.1812471076846,822.0447016707622,nan,822.5192247545347,nan,nan,nan,nan
