block,trial,freq_trials,correct_response,actual_response,acc,rts,probe_trials,fast_rt_trigger,slow_rt_trigger,rt_triggered,rts_runningavg,rts_runningstd,rts_runningfastthresh,rts_runningslowthresh,rts_runningstd,rts_trailingavg,trials_colorind,trials_colorrgb0,trials_colorrgb1,trials_colorrgb2,wm_respdeg,wm_respdeg_in_colorspace,wm_respcolorminusorigcolor,wm_resptexind,wm_resptexrgb0,wm_resptexrgb1,wm_resptexrgb2,wm_rts,time_blockstart,time_encarray_offset,time_encarray_onset,time_response,time_iti_offset,time_iti_onset,time_memprobe_offset,time_memprobe_onset
1,1,1,1,1.0,1.0,0.361696801847,0,nan,nan,nan,nan,nan,nan,nan,nan,nan,84,1.0,-0.20765784414,-0.652191087791,nan,nan,nan,nan,nan,nan,nan,nan,626.57316269,627.59544553,nan,627.957142332,nan,nan,nan,nan
1,2,1,1,1.0,1.0,0.283831306268,0,nan,nan,nan,nan,nan,nan,nan,nan,nan,503,0.773020196022,0.248538461814,-1.0,nan,nan,nan,nan,nan,nan,nan,nan,626.57316269,628.53730385,nan,628.821135156,nan,nan,nan,nan
1,3,1,1,1.0,1.0,0.262065060786,0,nan,nan,nan,nan,nan,nan,nan,nan,nan,334,-0.152796554809,0.454467054946,0.285576400052,nan,nan,nan,nan,nan,nan,nan,nan,626.57316269,629.479068374,nan,629.741133434,nan,nan,nan,nan
1,4,1,1,1.0,1.0,0.24824900995,0,nan,nan,nan,nan,nan,nan,nan,nan,nan,508,0.814199817736,0.228638933499,-1.0,nan,nan,nan,nan,nan,nan,nan,nan,626.57316269,630.420854565,nan,630.669103575,nan,nan,nan,nan
1,5,1,1,1.0,1.0,0.234442937537,0,nan,nan,nan,nan,nan,nan,nan,nan,nan,455,0.375608248681,0.394875365091,-1.0,nan,nan,nan,nan,nan,nan,nan,nan,626.57316269,631.362645887,nan,631.597088825,nan,nan,nan,nan
1,6,1,1,1.0,1.0,0.0815794448135,0,nan,nan,nan,nan,nan,nan,nan,nan,nan,217,0.891250405156,0.0735373331823,0.568048345461,nan,nan,nan,nan,nan,nan,nan,nan,626.57316269,632.379454594,nan,632.461034038,nan,nan,nan,nan
1,7,1,1,1.0,1.0,0.227800764493,0,nan,nan,nan,nan,nan,nan,nan,nan,nan,493,0.689769084006,0.285700779988,-1.0,nan,nan,nan,nan,nan,nan,nan,nan,626.57316269,633.321229381,nan,633.549030145,nan,nan,nan,nan
1,8,1,1,1.0,1.0,0.261973829824,0,nan,nan,nan,nan,nan,nan,nan,nan,nan,116,1.0,-0.306446923025,-0.282515442494,nan,nan,nan,nan,nan,nan,nan,nan,626.57316269,634.263037809,nan,634.525011639,nan,nan,nan,nan
1,9,1,1,1.0,1.0,0.224154953263,0,nan,nan,nan,nan,nan,nan,nan,nan,nan,231,0.749609680972,0.145151270079,0.620821461523,nan,nan,nan,nan,nan,nan,nan,nan,626.57316269,635.204834264,nan,635.428989217,nan,nan,nan,nan
1,10,1,1,1.0,1.0,0.218324164161,0,nan,nan,nan,nan,nan,nan,nan,nan,nan,286,0.169078956243,0.359734776014,0.594698705761,nan,nan,nan,nan,nan,nan,nan,nan,626.57316269,636.146636135,nan,636.364960299,nan,nan,nan,nan
1,11,1,1,1.0,1.0,0.284474768559,0,nan,nan,nan,nan,nan,nan,nan,nan,nan,104,1.0,-0.282351481576,-0.412644567278,nan,nan,nan,nan,nan,nan,nan,nan,626.57316269,637.088467656,nan,637.372942424,nan,nan,nan,nan
1,12,0,0,1.0,0.0,0.182725902414,0,0.0,0.0,0.0,nan,nan,nan,nan,nan,nan,455,0.375608248681,0.394875365091,-1.0,nan,nan,nan,nan,nan,nan,nan,nan,626.57316269,638.030210512,nan,638.212936415,nan,nan,nan,nan
1,13,1,1,1.0,1.0,0.224933266174,0,nan,nan,nan,nan,nan,nan,nan,nan,nan,65,1.0,-0.113312155659,-1.0,nan,nan,nan,nan,nan,nan,nan,nan,626.57316269,638.971961066,nan,639.196894332,nan,nan,nan,nan
1,14,1,1,1.0,1.0,0.259048742009,0,nan,nan,nan,nan,nan,nan,nan,nan,nan,148,1.0,-0.272695592461,0.0444264621409,nan,nan,nan,nan,nan,nan,nan,nan,626.57316269,639.913817106,nan,640.172865848,nan,nan,nan,nan
1,15,1,1,1.0,1.0,0.261272493051,0,nan,nan,nan,nan,nan,nan,nan,nan,nan,326,-0.12383419111,0.444071765824,0.352223541474,nan,nan,nan,nan,nan,nan,nan,nan,626.57316269,640.855578778,nan,641.116851271,nan,nan,nan,nan
1,16,1,1,1.0,1.0,0.399436421692,0,nan,nan,nan,nan,nan,nan,nan,nan,nan,61,1.0,-0.0921163965413,-1.0,nan,nan,nan,nan,nan,nan,nan,nan,626.57316269,641.797390058,nan,642.196826479,nan,nan,nan,nan
1,17,1,1,1.0,1.0,0.305611521588,0,nan,nan,nan,nan,nan,nan,nan,nan,nan,444,0.289241202529,0.417409780569,-1.0,nan,nan,nan,nan,nan,nan,nan,nan,626.57316269,642.739197631,nan,643.044809152,nan,nan,nan,nan
1,18,1,1,1.0,1.0,0.427814049879,0,nan,nan,nan,nan,nan,nan,nan,nan,nan,329,-0.136053278316,0.448203788942,0.3278337444,nan,nan,nan,nan,nan,nan,nan,nan,626.57316269,643.680970707,nan,644.108784757,nan,nan,nan,nan
1,19,1,1,1.0,1.0,0.301993364585,0,nan,nan,nan,nan,nan,nan,nan,nan,nan,404,0.0124894593597,0.468746268022,-0.463349101315,nan,nan,nan,nan,nan,nan,nan,nan,626.57316269,644.622774289,nan,644.924767654,nan,nan,nan,nan
1,20,1,1,1.0,1.0,0.312186982133,1,nan,nan,nan,nan,nan,nan,nan,nan,nan,212,0.93926288676,0.0467731277665,0.543851001166,-28.4212092245,118.421209225,-30.6412907755,168.0,1.0,-0.190790017254,0.230361799274,2.05057208845,626.57316269,645.564566182,646.372977776,645.876753164,649.465021395,650.468659224,647.398073091,649.456676912
1,21,1,1,1.0,1.0,0.493391040596,0,nan,nan,nan,nan,nan,nan,nan,nan,nan,84,1.0,-0.20765784414,-0.652191087791,nan,nan,nan,nan,nan,nan,nan,nan,626.57316269,650.615234918,nan,651.108625958,nan,nan,nan,nan
1,22,1,1,1.0,1.0,0.279571967782,0,nan,nan,nan,nan,nan,nan,nan,nan,nan,384,-0.0924750057551,0.477945316949,-0.222479273925,nan,nan,nan,nan,nan,nan,nan,nan,626.57316269,651.557026526,nan,651.836598493,nan,nan,nan,nan
1,23,1,1,1.0,1.0,0.257756115519,0,nan,nan,nan,nan,nan,nan,nan,nan,nan,192,1.0,-0.0635997558896,0.421658406928,nan,nan,nan,nan,nan,nan,nan,nan,626.57316269,652.498829537,nan,652.756585653,nan,nan,nan,nan
1,24,0,0,0.0,1.0,0.371934609138,0,nan,nan,nan,nan,nan,nan,nan,nan,nan,393,-0.0489456633786,0.475102171109,-0.327443230616,nan,nan,nan,nan,nan,nan,nan,nan,626.57316269,653.440612307,nan,653.812546916,nan,nan,nan,nan
1,25,1,1,1.0,1.0,0.246145854704,0,nan,nan,nan,nan,nan,nan,nan,nan,nan,92,1.0,-0.241703663401,-0.55060883727,nan,nan,nan,nan,nan,nan,nan,nan,626.57316269,654.382406766,nan,654.62855262,nan,nan,nan,nan
1,26,1,1,1.0,1.0,0.272319973796,0,nan,nan,nan,nan,nan,nan,nan,nan,nan,402,0.000724920831492,0.470139955471,-0.437811562499,nan,nan,nan,nan,nan,nan,nan,nan,626.57316269,655.324205786,nan,655.59652576,nan,nan,nan,nan
1,27,1,1,1.0,1.0,0.34650487639,0,nan,nan,nan,nan,nan,nan,nan,nan,nan,447,0.312467642152,0.411646472288,-1.0,nan,nan,nan,nan,nan,nan,nan,nan,626.57316269,656.265996538,nan,656.612501415,nan,nan,nan,nan
1,28,1,1,1.0,1.0,0.35670704674,0,nan,nan,nan,nan,nan,nan,nan,nan,nan,244,0.611372359265,0.206163547436,0.648880721676,nan,nan,nan,nan,nan,nan,nan,nan,626.57316269,657.207771896,nan,657.564478942,nan,nan,nan,nan
1,29,1,1,1.0,1.0,0.27087168477,0,nan,nan,nan,nan,nan,nan,nan,nan,nan,356,-0.17284377641,0.473239407326,0.0788368070227,nan,nan,nan,nan,nan,nan,nan,nan,626.57316269,658.149579184,nan,658.420450868,nan,nan,nan,nan
1,30,1,1,1.0,1.0,0.320775222383,0,nan,nan,nan,nan,nan,nan,nan,nan,nan,87,1.0,-0.220959007447,-0.612675615602,nan,nan,nan,nan,nan,nan,nan,nan,626.57316269,659.09965911,nan,659.420434333,nan,nan,nan,nan
1,31,1,1,1.0,1.0,0.298888381105,0,nan,nan,nan,nan,nan,nan,nan,nan,nan,171,1.0,-0.176011872558,0.256450910142,nan,nan,nan,nan,nan,nan,nan,nan,626.57316269,660.041518001,nan,660.340406382,nan,nan,nan,nan
1,32,1,1,1.0,1.0,0.245092138764,0,nan,nan,nan,nan,nan,nan,nan,nan,nan,383,-0.0968787136249,0.478131214543,-0.211081409456,nan,nan,nan,nan,nan,nan,nan,nan,626.57316269,660.983290792,nan,661.228382931,nan,nan,nan,nan
1,33,1,1,1.0,1.0,0.271284504095,0,nan,nan,nan,nan,nan,nan,nan,nan,nan,236,0.697004556276,0.169301754335,0.634065852989,nan,nan,nan,nan,nan,nan,nan,nan,626.57316269,661.925084396,nan,662.1963689,nan,nan,nan,nan
1,34,1,1,1.0,1.0,0.241454310366,0,nan,nan,nan,nan,nan,nan,nan,nan,nan,183,1.0,-0.113108999915,0.354902835149,nan,nan,nan,nan,nan,nan,nan,nan,626.57316269,662.866878854,nan,663.108333165,nan,nan,nan,nan
1,35,1,1,1.0,1.0,0.299648162676,0,nan,nan,nan,nan,nan,nan,nan,nan,nan,357,-0.1717918326,0.473767524415,0.068739031695,nan,nan,nan,nan,nan,nan,nan,nan,626.57316269,663.808670747,nan,664.10831891,nan,nan,nan,nan
1,36,1,1,1.0,1.0,0.253864551312,0,nan,nan,nan,nan,nan,nan,nan,nan,nan,22,1.0,0.111842423158,-1.0,nan,nan,nan,nan,nan,nan,nan,nan,626.57316269,664.750433275,nan,665.004297826,nan,nan,nan,nan
1,37,0,0,1.0,0.0,0.192017475259,0,0.0,0.0,0.0,nan,nan,nan,nan,nan,nan,149,1.0,-0.269478519393,0.0541436597792,nan,nan,nan,nan,nan,nan,nan,nan,626.57316269,665.692257099,nan,665.884274574,nan,nan,nan,nan
1,38,1,1,1.0,1.0,0.250199068454,0,nan,nan,nan,nan,nan,nan,nan,nan,nan,21,1.0,0.116713997928,-1.0,nan,nan,nan,nan,nan,nan,nan,nan,626.57316269,666.634062961,nan,666.88426203,nan,nan,nan,nan
1,39,1,1,1.0,1.0,0.308370398241,0,nan,nan,nan,nan,nan,nan,nan,nan,nan,297,0.0686262056446,0.388646276542,0.544904663634,nan,nan,nan,nan,nan,nan,nan,nan,626.57316269,667.575859416,nan,667.884229814,nan,nan,nan,nan
1,40,0,0,1.0,0.0,0.294566036318,0,0.0,0.0,0.0,nan,nan,nan,nan,nan,nan,247,0.578947625354,0.219392674348,0.6523805853,nan,nan,nan,nan,nan,nan,nan,nan,626.57316269,668.517637054,nan,668.81220309,nan,nan,nan,nan
1,41,1,1,1.0,1.0,0.304764215485,0,nan,nan,nan,nan,nan,nan,nan,nan,nan,55,1.0,-0.0599996532909,-1.0,nan,nan,nan,nan,nan,nan,nan,nan,626.57316269,669.459428661,nan,669.764192877,nan,nan,nan,nan
1,42,1,1,1.0,1.0,0.258946962771,0,nan,nan,nan,nan,nan,nan,nan,nan,nan,340,-0.166837174664,0.460980112934,0.232376404312,nan,nan,nan,nan,nan,nan,nan,nan,626.57316269,670.40122426,nan,670.660171223,nan,nan,nan,nan
1,43,0,0,0.0,1.0,0.365119952825,0,nan,nan,nan,nan,nan,nan,nan,nan,nan,376,-0.124962824795,0.478704673615,-0.132627625282,nan,nan,nan,nan,nan,nan,nan,nan,626.57316269,671.343015013,nan,671.708134966,nan,nan,nan,nan
1,44,1,1,1.0,1.0,0.255310559645,0,nan,nan,nan,nan,nan,nan,nan,nan,nan,42,1.0,0.00954878589686,-1.0,nan,nan,nan,nan,nan,nan,nan,nan,626.57316269,672.284812322,nan,672.540122882,nan,nan,nan,nan
1,45,1,1,1.0,1.0,0.297506519477,0,nan,nan,nan,nan,nan,nan,nan,nan,nan,193,1.0,-0.0580453890011,0.428658791268,nan,nan,nan,nan,nan,nan,nan,nan,626.57316269,673.22660222,nan,673.524108739,nan,nan,nan,nan
1,46,1,1,1.0,1.0,0.323687195778,0,nan,nan,nan,nan,nan,nan,nan,nan,nan,468,0.481236483515,0.363131620867,-1.0,nan,nan,nan,nan,nan,nan,nan,nan,626.57316269,674.168395538,nan,674.492082734,nan,nan,nan,nan
1,47,1,1,1.0,1.0,0.293913451023,0,nan,nan,nan,nan,nan,nan,nan,nan,nan,373,-0.135407706169,0.478559568072,-0.0996974893599,nan,nan,nan,nan,nan,nan,nan,nan,626.57316269,675.11015664,nan,675.404070091,nan,nan,nan,nan
1,48,1,1,1.0,1.0,0.28805529268,0,nan,nan,nan,nan,nan,nan,nan,nan,nan,446,0.304696255059,0.41359904426,-1.0,nan,nan,nan,nan,nan,nan,nan,nan,626.57316269,676.051979324,nan,676.340034616,nan,nan,nan,nan
1,49,1,1,1.0,1.0,0.306240158854,0,nan,nan,nan,nan,nan,nan,nan,nan,nan,292,0.112881669716,0.376069582356,0.569261850688,nan,nan,nan,nan,nan,nan,nan,nan,626.57316269,676.993776063,nan,677.300016222,nan,nan,nan,nan
1,50,1,1,1.0,1.0,0.196433331585,0,nan,nan,nan,nan,nan,nan,nan,nan,nan,356,-0.17284377641,0.473239407326,0.0788368070227,nan,nan,nan,nan,nan,nan,nan,nan,626.57316269,677.935565675,nan,678.131999007,nan,nan,nan,nan
1,51,0,0,0.0,1.0,0.398608502001,0,nan,nan,nan,nan,nan,nan,nan,nan,nan,437,0.23613482661,0.429770237144,-1.0,nan,nan,nan,nan,nan,nan,nan,nan,626.57316269,678.877358138,nan,679.27596664,nan,nan,nan,nan
1,52,1,1,1.0,1.0,0.200811840128,0,nan,nan,nan,nan,nan,nan,nan,nan,nan,377,-0.121259861678,0.478700828387,-0.143695900877,nan,nan,nan,nan,nan,nan,nan,nan,626.57316269,679.819151742,nan,680.019963582,nan,nan,nan,nan
1,53,1,1,1.0,1.0,0.202979997382,0,nan,nan,nan,nan,nan,nan,nan,nan,nan,188,1.0,-0.0857393506835,0.392804289229,nan,nan,nan,nan,nan,nan,nan,nan,626.57316269,680.76094677,nan,680.963926768,nan,nan,nan,nan
1,54,0,0,0.0,1.0,0.413149552653,0,nan,nan,nan,nan,nan,nan,nan,nan,nan,364,-0.160194321586,0.476704516321,-0.00341124574885,nan,nan,nan,nan,nan,nan,nan,nan,626.57316269,681.702740089,nan,682.115889641,nan,nan,nan,nan
1,55,1,1,1.0,1.0,0.21523799689,0,nan,nan,nan,nan,nan,nan,nan,nan,nan,197,1.0,-0.035797595552,0.455774741445,nan,nan,nan,nan,nan,nan,nan,nan,626.57316269,682.644648871,nan,682.859886868,nan,nan,nan,nan
1,56,1,1,1.0,1.0,0.273539330577,0,nan,nan,nan,nan,nan,nan,nan,nan,nan,110,1.0,-0.296722754836,-0.346921960777,nan,nan,nan,nan,nan,nan,nan,nan,626.57316269,683.58632644,nan,683.859865771,nan,nan,nan,nan
1,57,1,1,1.0,1.0,0.259714156855,0,nan,nan,nan,nan,nan,nan,nan,nan,nan,164,1.0,-0.209685835145,0.194761549991,nan,nan,nan,nan,nan,nan,nan,nan,626.57316269,684.528125746,nan,684.787839902,nan,nan,nan,nan
1,58,1,1,1.0,1.0,0.189905767096,0,nan,nan,nan,nan,nan,nan,nan,nan,nan,332,-0.146647089803,0.45205423783,0.302714191958,nan,nan,nan,nan,nan,nan,nan,nan,626.57316269,685.469914788,nan,685.659820555,nan,nan,nan,nan
1,59,1,1,0.0,0.0,0.368084668997,0,0.0,0.0,0.0,nan,nan,nan,nan,nan,nan,83,1.0,-0.203097876184,-0.665876706514,nan,nan,nan,nan,nan,nan,nan,nan,626.57316269,686.411708106,nan,686.779792775,nan,nan,nan,nan
1,60,1,1,1.0,1.0,0.234292406705,0,nan,nan,nan,nan,nan,nan,nan,nan,nan,148,1.0,-0.272695592461,0.0444264621409,nan,nan,nan,nan,nan,nan,nan,nan,626.57316269,687.353490876,nan,687.587783282,nan,nan,nan,nan
1,61,1,1,1.0,1.0,0.156455135671,0,nan,nan,nan,nan,nan,nan,nan,nan,nan,327,-0.128086156831,0.445480682368,0.344176439252,nan,nan,nan,nan,nan,nan,nan,nan,626.57316269,688.295299304,nan,688.45175444,nan,nan,nan,nan
1,62,1,1,1.0,1.0,0.0302983218571,1,nan,nan,nan,nan,nan,nan,nan,nan,nan,458,0.399688045963,0.388050214986,-1.0,150.809688482,299.190311518,-22.8409384818,426.0,0.156193047225,0.446210853967,-0.81485970128,1.68384875415,626.57316269,689.245425416,690.053850411,689.275723738,692.779166703,693.788870525,691.078936602,692.770831344
1,63,0,0,0.0,1.0,0.482245486695,0,nan,nan,nan,nan,nan,nan,nan,nan,nan,199,1.0,-0.0246761787097,0.468786302982,nan,nan,nan,nan,nan,nan,nan,nan,626.57316269,693.929371388,nan,694.411616875,nan,nan,nan,nan
1,64,1,1,1.0,1.0,0.276402837597,0,nan,nan,nan,nan,nan,nan,nan,nan,nan,0,0.846831709088,0.212097570855,-1.0,nan,nan,nan,nan,nan,nan,nan,nan,626.57316269,694.871185804,nan,695.147588641,nan,nan,nan,nan
1,65,1,1,1.0,1.0,0.286616982077,0,nan,nan,nan,nan,nan,nan,nan,nan,nan,425,0.149162615564,0.447529597292,-0.791715667876,nan,nan,nan,nan,nan,nan,nan,nan,626.57316269,695.812950042,nan,696.099567024,nan,nan,nan,nan
1,66,1,1,1.0,1.0,0.336831274675,0,nan,nan,nan,nan,nan,nan,nan,nan,nan,156,1.0,-0.244060613314,0.121041471254,nan,nan,nan,nan,nan,nan,nan,nan,626.57316269,696.754761607,nan,697.091592881,nan,nan,nan,nan
1,67,1,1,1.0,1.0,0.25899115263,0,nan,nan,nan,nan,nan,nan,nan,nan,nan,262,0.416452475899,0.2804144186,0.652815538838,nan,nan,nan,nan,nan,nan,nan,nan,626.57316269,697.696556921,nan,697.955548073,nan,nan,nan,nan
1,68,1,1,1.0,1.0,0.229166090488,0,nan,nan,nan,nan,nan,nan,nan,nan,nan,466,0.464789014893,0.368385601135,-1.0,nan,nan,nan,nan,nan,nan,nan,nan,626.57316269,698.63835252,nan,698.86751861,nan,nan,nan,nan
1,69,1,1,1.0,1.0,0.263368520886,0,nan,nan,nan,nan,nan,nan,nan,nan,nan,366,-0.155593376329,0.477302029306,-0.0244766492797,nan,nan,nan,nan,nan,nan,nan,nan,626.57316269,699.58013757,nan,699.843506091,nan,nan,nan,nan
1,70,1,1,1.0,1.0,0.249551899848,0,nan,nan,nan,nan,nan,nan,nan,nan,nan,64,1.0,-0.108036866323,-1.0,nan,nan,nan,nan,nan,nan,nan,nan,626.57316269,700.521924902,nan,700.771476801,nan,nan,nan,nan
1,71,1,1,1.0,1.0,0.171734870761,0,nan,nan,nan,nan,nan,nan,nan,nan,nan,365,-0.157962026257,0.477016591838,-0.0139196855225,nan,nan,nan,nan,nan,nan,nan,nan,626.57316269,701.463726203,nan,701.635461073,nan,nan,nan,nan
1,72,1,1,1.0,1.0,0.0539564663777,0,nan,nan,nan,nan,nan,nan,nan,nan,nan,285,0.178734351563,0.356878681702,0.598527012995,nan,nan,nan,nan,nan,nan,nan,nan,626.57316269,702.405513819,nan,702.459470285,nan,nan,nan,nan
1,73,1,1,nan,nan,nan,1,nan,nan,nan,nan,nan,nan,nan,nan,nan,511,0.838703193994,0.216284169582,-1.0,98.0490617017,351.950938298,-7.34593670167,501.0,0.7564492333,0.256253544744,-1.0,1.73388657218,626.57316269,703.347311699,704.15574268,nan,706.931089664,707.937759776,705.180835144,706.92275687
1,74,0,0,0.0,1.0,0.41799105762,0,nan,nan,nan,nan,nan,nan,nan,nan,nan,227,0.791019951953,0.125257787881,0.608066708266,nan,nan,nan,nan,nan,nan,nan,nan,626.57316269,708.081300335,nan,708.499291393,nan,nan,nan,nan
1,75,1,1,1.0,1.0,0.260201956495,0,nan,nan,nan,nan,nan,nan,nan,nan,nan,92,1.0,-0.241703663401,-0.55060883727,nan,nan,nan,nan,nan,nan,nan,nan,626.57316269,709.023079969,nan,709.283281926,nan,nan,nan,nan
1,76,1,1,1.0,1.0,0.294375877129,1,nan,nan,nan,nan,nan,nan,nan,nan,nan,385,-0.0879796604702,0.477733444059,-0.233926720364,-164.248826337,254.248826337,-16.4542986635,362.0,-0.164239727892,0.476000155386,0.0174578511848,3.19238410913,626.57316269,709.964875283,710.773282601,710.25925116,714.998812574,716.002767144,711.790056526,714.990478069
1,77,1,1,1.0,1.0,0.670067485189,0,nan,nan,nan,nan,nan,nan,nan,nan,nan,284,0.188465149253,0.353984098999,0.602236276499,nan,nan,nan,nan,nan,nan,nan,nan,626.57316269,716.149026952,nan,716.819094437,nan,nan,nan,nan
1,78,1,1,1.0,1.0,0.415938649676,0,nan,nan,nan,nan,nan,nan,nan,nan,nan,231,0.749609680972,0.145151270079,0.620821461523,nan,nan,nan,nan,nan,nan,nan,nan,626.57316269,717.099157056,nan,717.515095705,nan,nan,nan,nan
1,79,1,1,1.0,1.0,0.306096755434,0,nan,nan,nan,nan,nan,nan,nan,nan,nan,381,-0.105403061426,0.478425078289,-0.188431136224,nan,nan,nan,nan,nan,nan,nan,nan,626.57316269,718.040958642,nan,718.347055397,nan,nan,nan,nan
1,80,1,1,1.0,1.0,0.340297190123,0,nan,nan,nan,nan,nan,nan,nan,nan,nan,113,1.0,-0.302191989669,-0.314576349441,nan,nan,nan,nan,nan,nan,nan,nan,626.57316269,718.982750535,nan,719.323047725,nan,nan,nan,nan
1,81,1,1,1.0,1.0,0.278480619309,0,0.0,0.0,0.0,0.283314798406,0.0914623909883,0.191852407418,0.374777189394,0.0914623909883,0.308291521622,215,0.910639861846,0.0628947364355,0.558695148714,nan,nan,nan,nan,nan,nan,nan,nan,626.57316269,719.924539292,nan,720.203019911,nan,nan,nan,nan
1,82,1,1,1.0,1.0,0.304664716707,0,0.0,0.0,0.0,0.283254371167,0.0908905403102,0.192363830857,0.374144911477,0.0908905403102,0.307814175379,304,0.0113092810281,0.404708921832,0.506160370659,nan,nan,nan,nan,nan,nan,nan,nan,626.57316269,720.866336601,nan,721.171001318,nan,nan,nan,nan
1,83,1,1,1.0,1.0,0.338854602887,0,0.0,0.0,0.0,0.283518696421,0.0903586795814,0.193160016839,0.373877376002,0.0903586795814,0.307333312967,112,1.0,-0.300501516081,-0.325324861792,nan,nan,nan,nan,nan,nan,nan,nan,626.57316269,721.808127639,nan,722.146982242,nan,nan,nan,nan
1,84,1,1,1.0,1.0,0.285042680334,0,0.0,0.0,0.0,0.284193524548,0.0900111571235,0.194182367425,0.374204681672,0.0900111571235,0.309520666643,425,0.149162615564,0.447529597292,-0.791715667876,nan,nan,nan,nan,nan,nan,nan,nan,626.57316269,722.749921242,nan,723.034963922,nan,nan,nan,nan
1,85,1,1,1.0,1.0,0.303209870588,0,0.0,0.0,0.0,0.284203755341,0.0894673260495,0.194736429292,0.373671081391,0.0894673260495,0.309035717937,306,-0.00395437407881,0.408974006242,0.494128827808,nan,nan,nan,nan,nan,nan,nan,nan,626.57316269,723.691713135,nan,723.994923005,nan,nan,nan,nan
1,86,1,1,1.0,1.0,0.297409016523,0,0.0,0.0,0.0,0.284430018618,0.0889570745707,0.195472944047,0.373387093189,0.0889570745707,0.295220522482,225,0.81146624694,0.115131125244,0.600981946568,nan,nan,nan,nan,nan,nan,nan,nan,626.57316269,724.63351187,nan,724.930920887,nan,nan,nan,nan
1,87,1,1,1.0,1.0,0.299596275087,0,0.0,0.0,0.0,0.284582712711,0.0884433222518,0.196139390459,0.373026034963,0.0884433222518,0.300071720732,42,1.0,0.00954878589686,-1.0,nan,nan,nan,nan,nan,nan,nan,nan,626.57316269,725.575298631,nan,725.874894906,nan,nan,nan,nan
1,88,1,1,1.0,1.0,0.285770816263,0,0.0,0.0,0.0,0.284757289018,0.0879423431872,0.19681494583,0.372699632205,0.0879423431872,0.294258702624,280,0.228089347314,0.342018854333,0.61587222022,nan,nan,nan,nan,nan,nan,nan,nan,626.57316269,726.517097366,nan,726.802868183,nan,nan,nan,nan
1,89,1,1,1.0,1.0,0.29598325002,0,0.0,0.0,0.0,0.284768938756,0.0874355334145,0.197333405342,0.37220447217,0.0874355334145,0.293783447123,162,1.0,-0.218739557155,0.176632971453,nan,nan,nan,nan,nan,nan,nan,nan,626.57316269,727.458859039,nan,727.754842289,nan,nan,nan,nan
1,90,1,1,1.0,1.0,0.234162687906,0,0.0,0.0,0.0,0.284896374111,0.0869454465507,0.197950927561,0.371841820662,0.0869454465507,0.271972251396,394,-0.0437090198531,0.474655926729,-0.339401417396,nan,nan,nan,nan,nan,nan,nan,nan,626.57316269,728.400678586,nan,728.634841274,nan,nan,nan,nan
1,91,1,1,1.0,1.0,0.26037500985,0,0.0,0.0,0.0,0.284326332693,0.0866208272236,0.19770550547,0.370947159917,0.0866208272236,0.263506982592,466,0.464789014893,0.368385601135,-1.0,nan,nan,nan,nan,nan,nan,nan,nan,626.57316269,729.342437123,nan,729.602812133,nan,nan,nan,nan
1,92,1,1,1.0,1.0,0.246517049964,0,0.0,0.0,0.0,0.284060206884,0.0861748363563,0.197885370528,0.37023504324,0.0861748363563,0.24701824924,320,-0.0946500390753,0.43494401576,0.398701238857,nan,nan,nan,nan,nan,nan,nan,nan,626.57316269,730.284260946,nan,730.530777996,nan,nan,nan,nan
1,93,1,1,1.0,1.0,0.184698198573,0,0.0,0.0,0.0,0.28364764472,0.085789367514,0.197858277206,0.369437012234,0.085789367514,0.230530086129,193,1.0,-0.0580453890011,0.428658791268,nan,nan,nan,nan,nan,nan,nan,nan,626.57316269,731.226061677,nan,731.410759876,nan,nan,nan,nan
1,94,1,1,1.0,1.0,0.234881415614,0,0.0,0.0,0.0,0.282572107262,0.0859365151609,0.196635592101,0.368508622423,0.0859365151609,0.222032221383,417,0.0945046041228,0.457053563907,-0.645720198395,nan,nan,nan,nan,nan,nan,nan,nan,626.57316269,732.167865829,nan,732.402747245,nan,nan,nan,nan
1,95,1,1,1.0,1.0,0.213068984449,0,0.0,0.0,0.0,0.282059304126,0.0856146488339,0.196444655292,0.36767395296,0.0856146488339,0.210882866212,98,1.0,-0.263822910468,-0.480217789416,nan,nan,nan,nan,nan,nan,nan,nan,626.57316269,733.109647173,nan,733.322716158,nan,nan,nan,nan
1,96,1,1,1.0,1.0,0.343257629778,0,0.0,0.0,0.0,0.281325364555,0.0854516637235,0.195873700831,0.366777028278,0.0854516637235,0.263736009947,214,0.920243657418,0.0575410437433,0.553854850604,nan,nan,nan,nan,nan,nan,nan,nan,626.57316269,734.051437641,nan,734.39469527,nan,nan,nan,nan
1,97,1,1,1.0,1.0,0.225466396194,0,0.0,0.0,0.0,0.281977283136,0.0852354011574,0.196741881979,0.367212684293,0.0852354011574,0.26059767014,55,1.0,-0.0599996532909,-1.0,nan,nan,nan,nan,nan,nan,nan,nan,626.57316269,734.993226397,nan,735.218692794,nan,nan,nan,nan
1,98,1,1,1.0,1.0,0.243635867024,0,0.0,0.0,0.0,0.281388628064,0.0849842024485,0.196404425615,0.366372830512,0.0849842024485,0.270786630999,509,0.822386376617,0.224555004187,-1.0,nan,nan,nan,nan,nan,nan,nan,nan,626.57316269,735.935026843,nan,736.17866271,nan,nan,nan,nan
1,99,0,0,1.0,0.0,0.245810296386,0,0.0,0.0,0.0,0.280999424342,0.0846309627096,0.196368461632,0.365630387051,0.0846309627096,0.238304186535,16,0.973419431522,0.140652110383,-1.0,nan,nan,nan,nan,nan,nan,nan,nan,626.57316269,736.876809898,nan,737.122620194,nan,nan,nan,nan
1,100,1,1,1.0,1.0,0.199999600765,0,0.0,0.0,0.0,0.280640351607,0.0842723006662,0.196368050941,0.364912652274,0.0842723006662,0.229815254725,506,0.797774742377,0.236703125255,-1.0,nan,nan,nan,nan,nan,nan,nan,nan,626.57316269,737.818607493,nan,738.018607094,nan,nan,nan,nan
1,101,1,1,1.0,1.0,0.178186599514,0,0.0,0.0,0.0,0.279825798569,0.0842324626813,0.195593335887,0.36405826125,0.0842324626813,0.207998832222,404,0.0124894593597,0.468746268022,-0.463349101315,nan,nan,nan,nan,nan,nan,nan,nan,626.57316269,738.760400811,nan,738.938587411,nan,nan,nan,nan
1,102,1,1,1.0,1.0,0.228379224893,0,0.0,0.0,0.0,0.278809406578,0.0844181787699,0.194391227808,0.363227585348,0.0844181787699,0.202188475057,106,1.0,-0.287630069369,-0.390564445695,nan,nan,nan,nan,nan,nan,nan,nan,626.57316269,739.70219584,nan,739.930575065,nan,nan,nan,nan
1,103,1,1,1.0,1.0,0.166566075175,0,1.0,0.0,0.0,0.278310097849,0.0841474962522,0.194162601596,0.362457594101,0.0841474962522,0.191043966527,413,0.0683106243366,0.461143133648,-0.585495598612,nan,nan,nan,nan,nan,nan,nan,nan,626.57316269,740.643996001,nan,740.810562076,nan,nan,nan,nan
1,104,1,1,1.0,1.0,0.01670920779,1,0.0,0.0,1.0,0.277214568214,0.0844547228385,0.192759845376,0.361669291053,0.0844547228385,0.137218169286,311,-0.0397249783266,0.419020224334,0.462250212202,-133.408859729,223.408859729,4.73698472881,318.0,-0.0835627602325,0.431640264478,0.413481556053,1.57549192652,626.57316269,741.585783332,742.394206901,741.60249254,745.002964146,746.000897483,743.410969992,744.994643326
1,105,1,1,1.0,1.0,0.481678430107,0,0.0,0.0,0.0,0.274685389958,0.0878397371049,0.186845652853,0.362525127063,0.0878397371049,0.221651237691,67,1.0,-0.12380466598,-1.0,nan,nan,nan,nan,nan,nan,nan,nan,626.57316269,746.14472713,nan,746.62640556,nan,nan,nan,nan
1,106,1,1,1.0,1.0,0.30789742351,0,0.0,0.0,0.0,0.276675707652,0.0897198383253,0.186955869326,0.366395545977,0.0897198383253,0.268761687136,222,0.841778467246,0.0997291618919,0.589484691865,nan,nan,nan,nan,nan,nan,nan,nan,626.57316269,747.086500492,nan,747.394397915,nan,nan,nan,nan
1,107,1,1,1.0,1.0,0.302055800799,0,0.0,0.0,0.0,0.276973057327,0.0893430546368,0.18763000269,0.366316111963,0.0893430546368,0.363877218139,353,-0.175041255135,0.471490071959,0.108799216003,nan,nan,nan,nan,nan,nan,nan,nan,626.57316269,748.028316047,nan,748.330371848,nan,nan,nan,nan
1,108,1,1,1.0,1.0,0.200293820235,0,0.0,0.0,0.0,0.277209686982,0.0889536797494,0.188256007232,0.366163366731,0.0889536797494,0.270082348182,68,1.0,-0.129018143495,-0.972903198114,nan,nan,nan,nan,nan,nan,nan,nan,626.57316269,748.970113072,nan,749.170406892,nan,nan,nan,nan
1,109,1,1,1.0,1.0,0.186399938189,0,0.0,0.0,0.0,0.276490847106,0.0888458192658,0.18764502784,0.365336666372,0.0888458192658,0.229583186408,505,0.789537956352,0.240683140511,-1.0,nan,nan,nan,nan,nan,nan,nan,nan,626.57316269,749.911943168,nan,750.098343106,nan,nan,nan,nan
1,110,1,1,1.0,1.0,0.300608366844,0,0.0,0.0,0.0,0.275656672023,0.088853512279,0.186803159744,0.364510184302,0.088853512279,0.229100708423,88,1.0,-0.225257592204,-0.599932847766,nan,nan,nan,nan,nan,nan,nan,nan,626.57316269,750.8536903,nan,751.154298667,nan,nan,nan,nan
1,111,1,1,1.0,1.0,0.294820912532,0,0.0,0.0,0.0,0.275885586655,0.0884769763682,0.187408610286,0.364362563023,0.0884769763682,0.260609739188,221,0.851781464038,0.0945411604707,0.585422935822,nan,nan,nan,nan,nan,nan,nan,nan,626.57316269,751.795481338,nan,752.09030225,nan,nan,nan,nan
1,112,1,1,1.0,1.0,0.304988301126,0,0.0,0.0,0.0,0.276057725981,0.0880922243965,0.187965501584,0.364149950377,0.0880922243965,0.300139193501,316,-0.0718215561597,0.428203514031,0.427892255365,nan,nan,nan,nan,nan,nan,nan,nan,626.57316269,752.737277792,nan,753.042266093,nan,nan,nan,nan
1,113,1,1,1.0,1.0,0.291173390695,0,0.0,0.0,0.0,0.276318361793,0.0877371092525,0.18858125254,0.364055471045,0.0877371092525,0.296994201451,89,1.0,-0.229484098413,-0.587370487375,nan,nan,nan,nan,nan,nan,nan,nan,626.57316269,753.67906883,nan,753.970242221,nan,nan,nan,nan
1,114,1,1,1.0,1.0,0.229359670891,0,0.0,0.0,0.0,0.276450995979,0.0873557248991,0.18909527108,0.363806720879,0.0873557248991,0.275173787571,362,-0.164239727892,0.476000155386,0.0174578511848,nan,nan,nan,nan,nan,nan,nan,nan,626.57316269,754.620861008,nan,754.850220679,nan,nan,nan,nan
1,115,1,1,1.0,1.0,0.239527344587,0,0.0,0.0,0.0,0.276034258589,0.0870800926987,0.188954165891,0.363114351288,0.0870800926987,0.253353468725,179,1.0,-0.13461441766,0.323204131591,nan,nan,nan,nan,nan,nan,nan,nan,626.57316269,755.562656892,nan,755.802184237,nan,nan,nan,nan
1,116,1,1,1.0,1.0,0.257723614573,0,0.0,0.0,0.0,0.275714022502,0.0867641272919,0.18894989521,0.362478149793,0.0867641272919,0.242203543351,242,0.632911854383,0.197161183215,0.645921401967,nan,nan,nan,nan,nan,nan,nan,nan,626.57316269,756.504445079,nan,756.762168693,nan,nan,nan,nan
1,117,1,1,1.0,1.0,0.21189980465,0,0.0,0.0,0.0,0.275557584172,0.0864022147384,0.189155369433,0.36195979891,0.0864022147384,0.236383587937,364,-0.160194321586,0.476704516321,-0.00341124574885,nan,nan,nan,nan,nan,nan,nan,nan,626.57316269,757.446257498,nan,757.658157303,nan,nan,nan,nan
1,118,1,1,1.0,1.0,0.190101058106,0,0.0,0.0,0.0,0.27500881021,0.0862300347211,0.188778775489,0.361238844931,0.0862300347211,0.21990815911,71,1.0,-0.144504067012,-0.877980773838,nan,nan,nan,nan,nan,nan,nan,nan,626.57316269,758.388040268,nan,758.578141326,nan,nan,nan,nan
1,119,1,1,1.0,1.0,0.200281276018,0,0.0,0.0,0.0,0.274283102927,0.0862157648741,0.188067338053,0.360498867802,0.0862157648741,0.200760712925,195,1.0,-0.0469245268387,0.442396054288,nan,nan,nan,nan,nan,nan,nan,nan,626.57316269,759.32982931,nan,759.530110586,nan,nan,nan,nan
1,120,1,1,1.0,1.0,0.330463649239,0,0.0,0.0,0.0,0.273655968801,0.0861172515895,0.187538717212,0.359773220391,0.0861172515895,0.240281994455,37,1.0,0.0358565504353,-1.0,nan,nan,nan,nan,nan,nan,nan,nan,626.57316269,760.271623484,nan,760.602087133,nan,nan,nan,nan
1,121,1,1,1.0,1.0,0.25264519453,0,0.0,0.0,0.0,0.274133344267,0.0859112965679,0.188222047699,0.360044640835,0.0859112965679,0.261130039929,180,1.0,-0.129278616986,0.331238955499,nan,nan,nan,nan,nan,nan,nan,nan,626.57316269,761.213418798,nan,761.466063992,nan,nan,nan,nan
1,122,1,1,1.0,1.0,0.174853538861,0,0.0,0.0,0.0,0.273954276352,0.0855748817908,0.188379394562,0.359529158143,0.0855748817908,0.252654127544,323,-0.11001989341,0.43965344528,0.375855360355,nan,nan,nan,nan,nan,nan,nan,nan,626.57316269,762.155206129,nan,762.330059668,nan,nan,nan,nan
1,123,1,1,1.0,1.0,0.193047528039,0,0.0,0.0,0.0,0.273135261993,0.0856915011874,0.187443760806,0.35882676318,0.0856915011874,0.20684875381,122,1.0,-0.311159539646,-0.219144224573,nan,nan,nan,nan,nan,nan,nan,nan,626.57316269,763.096991179,nan,763.290038707,nan,nan,nan,nan
1,124,1,1,1.0,1.0,0.0752192318905,0,1.0,0.0,0.0,0.272478805157,0.0856445432145,0.186834261943,0.358123348372,0.0856445432145,0.147706766264,263,0.405698801511,0.284171736334,0.651829885785,nan,nan,nan,nan,nan,nan,nan,nan,626.57316269,764.038799893,nan,764.114019125,nan,nan,nan,nan
1,125,1,1,1.0,1.0,0.00536579708569,1,0.0,0.0,1.0,0.270875068789,0.0871156364647,0.183759432325,0.357990705254,0.0871156364647,0.0912108523383,356,-0.17284377641,0.473239407326,0.0788368070227,-171.427001636,261.427001636,11.1145016364,372.0,-0.138660017671,0.478458869494,-0.0888123791441,1.74219313741,626.57316269,764.980586084,765.78901792,764.985951881,768.572678311,769.572012041,766.814107533,768.5643401
1,126,1,1,1.0,1.0,0.495306887547,0,0.0,0.0,0.0,0.268733864985,0.0899547449056,0.17877912008,0.358688609891,0.0899547449056,0.191963972175,176,1.0,-0.150429669724,0.298675466069,nan,nan,nan,nan,nan,nan,nan,nan,626.57316269,769.7145579,nan,770.209864787,nan,nan,nan,nan
1,127,0,0,0.0,1.0,0.42547283927,0,0.0,0.0,0.0,0.270546449166,0.0918396346736,0.178706814492,0.362386083839,0.0918396346736,0.308715174634,145,1.0,-0.281667413287,0.0150551701241,nan,nan,nan,nan,nan,nan,nan,nan,626.57316269,770.656367469,nan,771.081840308,nan,nan,nan,nan
1,128,1,1,1.0,1.0,0.275676697376,0,0.0,0.0,0.0,0.27177602369,0.0925016732981,0.179274350392,0.364277696989,0.0925016732981,0.398818808064,44,1.0,-0.00106984144607,-1.0,nan,nan,nan,nan,nan,nan,nan,nan,626.57316269,771.598141685,nan,771.873818383,nan,nan,nan,nan
1,129,1,1,1.0,1.0,0.237865518313,0,0.0,0.0,0.0,0.271806737656,0.0921374187831,0.179669318873,0.36394415644,0.0921374187831,0.31300501832,85,1.0,-0.212156452387,-0.638781227021,nan,nan,nan,nan,nan,nan,nan,nan,626.57316269,772.539936144,nan,772.777801662,nan,nan,nan,nan
1,130,1,1,1.0,1.0,0.256044967566,0,0.0,0.0,0.0,0.27154157188,0.0918254375969,0.179716134283,0.363367009477,0.0918254375969,0.256529061085,218,0.881467392804,0.0788246127756,0.572559633417,nan,nan,nan,nan,nan,nan,nan,nan,626.57316269,773.481732313,nan,773.737777281,nan,nan,nan,nan
1,131,1,1,1.0,1.0,0.234247931745,0,0.0,0.0,0.0,0.271421443165,0.0914789292408,0.179942513924,0.362900372406,0.0914789292408,0.242719472541,437,0.23613482661,0.429770237144,-1.0,nan,nan,nan,nan,nan,nan,nan,nan,626.57316269,774.423519074,nan,774.657767006,nan,nan,nan,nan
1,132,1,1,1.0,1.0,0.26841957157,0,0.0,0.0,0.0,0.271135493077,0.0911842652605,0.179951227816,0.362319758337,0.0911842652605,0.25290415696,1,0.854939129564,0.207877072944,-1.0,nan,nan,nan,nan,nan,nan,nan,nan,626.57316269,775.365312393,nan,775.633731964,nan,nan,nan,nan
1,133,1,1,1.0,1.0,0.25465113204,0,0.0,0.0,0.0,0.271114760852,0.0908358745574,0.180278886294,0.361950635409,0.0908358745574,0.252439545118,497,0.723174939644,0.271260599794,-1.0,nan,nan,nan,nan,nan,nan,nan,nan,626.57316269,776.307070074,nan,776.561721206,nan,nan,nan,nan
1,134,1,1,1.0,1.0,0.312840992934,0,0.0,0.0,0.0,0.270990036391,0.0905024044391,0.180487631952,0.36149244083,0.0905024044391,0.278637232181,96,1.0,-0.25681952169,-0.503302481145,nan,nan,nan,nan,nan,nan,nan,nan,626.57316269,777.24890131,nan,777.561742303,nan,nan,nan,nan
1,135,1,1,1.0,1.0,0.250965122133,0,0.0,0.0,0.0,0.271304705237,0.0902339807703,0.181070724467,0.361538686007,0.0902339807703,0.272819082369,335,-0.155595990888,0.455627721073,0.276893227044,nan,nan,nan,nan,nan,nan,nan,nan,626.57316269,778.190719147,nan,778.441684269,nan,nan,nan,nan
1,136,1,1,1.0,1.0,0.221172846272,0,0.0,0.0,0.0,0.271152917304,0.0899136979392,0.181239219364,0.361066615243,0.0899136979392,0.26165965378,420,0.1146601879,0.45369410126,-0.695047497311,nan,nan,nan,nan,nan,nan,nan,nan,626.57316269,779.132485666,nan,779.353658512,nan,nan,nan,nan
1,137,1,1,1.0,1.0,0.191350920126,0,0.0,0.0,0.0,0.270782694555,0.0896825221864,0.181100172369,0.360465216742,0.0896825221864,0.221162962844,287,0.159501648714,0.36255249221,0.590751920292,nan,nan,nan,nan,nan,nan,nan,nan,626.57316269,780.07428212,nan,780.265633041,nan,nan,nan,nan
1,138,1,1,1.0,1.0,0.21754927258,0,0.0,0.0,0.0,0.27019863739,0.089609525088,0.180589112302,0.359808162478,0.089609525088,0.210024346326,210,0.958022500947,0.0359304984579,0.533421856807,nan,nan,nan,nan,nan,nan,nan,nan,626.57316269,781.016072588,nan,781.23362186,nan,nan,nan,nan
1,139,1,1,1.0,1.0,0.147744303918,0,0.0,0.0,0.0,0.269814335457,0.0893942972644,0.180420038193,0.359208632722,0.0893942972644,0.185548165541,33,1.0,0.0565990290419,-1.0,nan,nan,nan,nan,nan,nan,nan,nan,626.57316269,781.957860204,nan,782.105604508,nan,nan,nan,nan
1,140,1,1,1.0,1.0,0.0618929765187,0,1.0,0.0,0.0,0.268929770011,0.0896695522215,0.176396682958,0.358483910396,0.0896695522215,0.142395517672,175,1.0,-0.155629953633,0.290361762956,nan,nan,nan,nan,nan,nan,nan,nan,626.57316269,782.899657229,nan,782.961550205,nan,nan,nan,nan
1,141,1,1,nan,nan,nan,0,0.0,0.0,0.0,0.267440296677,0.0910436137193,0.176396682958,0.358483910396,0.0910436137193,0.104818640219,75,1.0,-0.164714458691,-0.791355921409,nan,nan,nan,nan,nan,nan,nan,nan,626.57316269,783.841442279,nan,nan,nan,nan,nan,nan
1,142,1,1,1.0,1.0,0.282275535865,0,0.0,0.0,0.0,0.267440296677,0.0910436137193,0.176396682958,0.358483910396,0.0910436137193,0.172084256192,449,0.328095008353,0.407646248688,-1.0,nan,nan,nan,nan,nan,nan,nan,nan,626.57316269,784.78324187,nan,785.065517406,nan,nan,nan,nan
1,143,0,0,1.0,0.0,0.284448539722,0,0.0,0.0,0.0,0.267546262671,0.0907264773356,0.176819785335,0.358272740007,0.0907264773356,0.283362037793,224,0.821619416966,0.11002478857,0.597264883709,nan,nan,nan,nan,nan,nan,nan,nan,626.57316269,785.725050868,nan,786.009499408,nan,nan,nan,nan
1,144,1,1,1.0,1.0,0.214648702997,0,0.0,0.0,0.0,0.267666136976,0.0904153056687,0.177250831308,0.358081442645,0.0904153056687,0.260457592861,318,-0.0835627602325,0.431640264478,0.413481556053,nan,nan,nan,nan,nan,nan,nan,nan,626.57316269,786.666827081,nan,786.881475784,nan,nan,nan,nan
1,145,1,1,1.0,1.0,0.240844204323,0,0.0,0.0,0.0,0.267292774765,0.0902053928224,0.177087381943,0.357498167588,0.0902053928224,0.246647149014,24,1.0,0.102019060141,-1.0,nan,nan,nan,nan,nan,nan,nan,nan,626.57316269,787.608622965,nan,787.849467169,nan,nan,nan,nan
1,146,0,0,1.0,0.0,0.147024435806,0,0.0,0.0,0.0,0.267107819727,0.0899164517436,0.177191367984,0.357024271471,0.0899164517436,0.200839114375,470,0.497741612616,0.357740777197,-1.0,nan,nan,nan,nan,nan,nan,nan,nan,626.57316269,788.550417139,nan,788.697441574,nan,nan,nan,nan
1,147,1,1,1.0,1.0,0.213197277859,0,0.0,0.0,0.0,0.266273907339,0.0901568981976,0.176117009141,0.356430805536,0.0901568981976,0.200355305996,64,1.0,-0.108036866323,-1.0,nan,nan,nan,nan,nan,nan,nan,nan,626.57316269,789.492207891,nan,789.705405169,nan,nan,nan,nan
1,148,1,1,1.0,1.0,0.239389643073,0,0.0,0.0,0.0,0.265907861618,0.0899527863232,0.175955075295,0.355860647942,0.0899527863232,0.199870452246,281,0.218083397074,0.345068392493,0.612644422055,nan,nan,nan,nan,nan,nan,nan,nan,626.57316269,790.43400178,nan,790.673391423,nan,nan,nan,nan
1,149,1,1,1.0,1.0,0.249572426896,0,0.0,0.0,0.0,0.265726229984,0.0896708763532,0.176055353631,0.355397106338,0.0896708763532,0.234053115943,351,-0.175686286722,0.4701852659,0.128489978773,nan,nan,nan,nan,nan,nan,nan,nan,626.57316269,791.375789966,nan,791.625362393,nan,nan,nan,nan
1,150,1,1,1.0,1.0,0.355749123264,0,0.0,0.0,0.0,0.265616340168,0.0893752166961,0.176241123471,0.354991556864,0.0893752166961,0.281570397744,490,0.664660387652,0.296157848571,-1.0,nan,nan,nan,nan,nan,nan,nan,nan,626.57316269,792.317587561,nan,792.673336684,nan,nan,nan,nan
1,151,0,0,0.0,1.0,0.397898897412,0,0.0,0.0,0.0,0.266225345459,0.0893782821393,0.176847063319,0.355603627598,0.0893782821393,0.334406815857,285,0.178734351563,0.356878681702,0.598527012995,nan,nan,nan,nan,nan,nan,nan,nan,626.57316269,793.259404542,nan,793.65730344,nan,nan,nan,nan
1,152,1,1,1.0,1.0,0.176178951515,0,0.0,0.0,0.0,0.267109060572,0.0897242683558,0.177384792217,0.356833328928,0.0897242683558,0.309942324064,398,-0.0220377755791,0.472608796233,-0.387943383198,nan,nan,nan,nan,nan,nan,nan,nan,626.57316269,794.201135139,nan,794.377314091,nan,nan,nan,nan
1,153,1,1,1.0,1.0,0.274309375673,0,0.0,0.0,0.0,0.266502859845,0.0897303132838,0.176772546562,0.356233173129,0.0897303132838,0.282795741533,334,-0.152796554809,0.454467054946,0.285576400052,nan,nan,nan,nan,nan,nan,nan,nan,626.57316269,795.142965235,nan,795.417274611,nan,nan,nan,nan
1,154,1,1,1.0,1.0,0.356525440351,0,0.0,0.0,0.0,0.266554558626,0.0894349408882,0.177119617738,0.355989499514,0.0894349408882,0.26900458918,498,0.731507943485,0.267561876527,-1.0,nan,nan,nan,nan,nan,nan,nan,nan,626.57316269,796.084727763,nan,796.441253203,nan,nan,nan,nan
1,155,1,1,1.0,1.0,0.286680273362,0,0.0,0.0,0.0,0.267146472321,0.089436518613,0.177709953708,0.356582990934,0.089436518613,0.305838363129,248,0.568115903494,0.223728204869,0.653295769881,nan,nan,nan,nan,nan,nan,nan,nan,626.57316269,797.026551016,nan,797.31323129,nan,nan,nan,nan
1,156,1,1,1.0,1.0,0.272859375924,0,0.0,0.0,0.0,0.267274144224,0.0891576589341,0.178116485289,0.356431803158,0.0891576589341,0.305355029879,457,0.391639248186,0.390358177281,-1.0,nan,nan,nan,nan,nan,nan,nan,nan,626.57316269,797.968348326,nan,798.241207702,nan,nan,nan,nan
1,157,1,1,1.0,1.0,0.275061744731,0,0.0,0.0,0.0,0.267310411962,0.0888688468445,0.178441565117,0.356179258806,0.0888688468445,0.278200464672,307,-0.0113868739462,0.411053355611,0.487957006857,nan,nan,nan,nan,nan,nan,nan,nan,626.57316269,798.910133376,nan,799.185195121,nan,nan,nan,nan
1,158,1,1,1.0,1.0,0.30123529362,0,0.0,0.0,0.0,0.26736042056,0.0885838831262,0.178776537434,0.355944303687,0.0885838831262,0.283052138092,230,0.760023132926,0.140224214653,0.61781109556,nan,nan,nan,nan,nan,nan,nan,nan,626.57316269,799.851932397,nan,800.15316769,nan,nan,nan,nan
1,159,1,1,1.0,1.0,0.199425131897,0,0.0,0.0,0.0,0.267577567183,0.0883408798935,0.179236687289,0.355918447076,0.0883408798935,0.25857405675,303,0.0191349273956,0.402522842081,0.512018356663,nan,nan,nan,nan,nan,nan,nan,nan,626.57316269,800.793735123,nan,800.993160255,nan,nan,nan,nan
1,160,1,1,1.0,1.0,0.201616381877,0,0.0,0.0,0.0,0.267143475238,0.0882258427783,0.17891763246,0.355369318016,0.0882258427783,0.234092269132,442,0.273907262724,0.421095538958,-1.0,nan,nan,nan,nan,nan,nan,nan,nan,626.57316269,801.735512191,nan,801.937128573,nan,nan,nan,nan
1,161,0,0,1.0,0.0,0.235807693331,0,0.0,0.0,0.0,0.266728746799,0.0880995955193,0.17862915128,0.354828342318,0.0880995955193,0.212283069035,43,1.0,0.00424534395127,-1.0,nan,nan,nan,nan,nan,nan,nan,nan,626.57316269,802.677312352,nan,802.913120045,nan,nan,nan,nan
1,162,1,1,1.0,1.0,0.245982779656,0,0.0,0.0,0.0,0.266534274765,0.087856129453,0.178678145312,0.354390404218,0.087856129453,0.227802284954,434,0.213881816697,0.43461034373,-1.0,nan,nan,nan,nan,nan,nan,nan,nan,626.57316269,803.619097117,nan,803.865079897,nan,nan,nan,nan
1,163,1,1,1.0,1.0,0.240172517486,0,0.0,0.0,0.0,0.26640582792,0.0875961236973,0.178809704223,0.354001951618,0.0875961236973,0.240654330157,505,0.789537956352,0.240683140511,-1.0,nan,nan,nan,nan,nan,nan,nan,nan,626.57316269,804.56088844,nan,804.801060957,nan,nan,nan,nan
1,164,1,1,1.0,1.0,0.242352363653,0,0.0,0.0,0.0,0.266242888104,0.0873479816636,0.17889490644,0.353590869767,0.0873479816636,0.242835886932,48,1.0,-0.0224273256894,-1.0,nan,nan,nan,nan,nan,nan,nan,nan,626.57316269,805.502692592,nan,805.745044955,nan,nan,nan,nan
1,165,1,1,1.0,1.0,0.220543638687,0,0.0,0.0,0.0,0.266095415731,0.0870980747041,0.178997341027,0.353193490435,0.0870980747041,0.234356173275,392,-0.0541067903503,0.475522277549,-0.315549842675,nan,nan,nan,nan,nan,nan,nan,nan,626.57316269,806.444482489,nan,806.665026128,nan,nan,nan,nan
1,166,1,1,1.0,1.0,0.294724549982,0,0.0,0.0,0.0,0.265815956976,0.0869033142509,0.178912642725,0.352719271227,0.0869033142509,0.252540184107,259,0.44882283482,0.268906983076,0.655011783756,nan,nan,nan,nan,nan,nan,nan,nan,626.57316269,807.386273241,nan,807.680997791,nan,nan,nan,nan
1,167,1,1,1.0,1.0,0.312891455018,0,0.0,0.0,0.0,0.265992228884,0.0866671841821,0.179325044702,0.352659413067,0.0866671841821,0.276053214562,495,0.706485112283,0.278551693791,-1.0,nan,nan,nan,nan,nan,nan,nan,nan,626.57316269,808.328081955,nan,808.64097341,nan,nan,nan,nan
1,168,1,1,1.0,1.0,0.315101521323,0,0.0,0.0,0.0,0.266276466619,0.0864807962704,0.179795670348,0.352757262889,0.0864807962704,0.307572508774,186,1.0,-0.0967386681424,0.377881386018,nan,nan,nan,nan,nan,nan,nan,nan,626.57316269,809.269851325,nan,809.584952846,nan,nan,nan,nan
1,169,1,1,1.0,1.0,0.253274972201,0,0.0,0.0,0.0,0.266570593454,0.0863026568996,0.180267936555,0.352873250354,0.0863026568996,0.293755982847,250,0.546428449327,0.232286661223,0.654747725831,nan,nan,nan,nan,nan,nan,nan,nan,626.57316269,810.211654907,nan,810.464929879,nan,nan,nan,nan
1,170,1,1,1.0,1.0,0.311452574097,0,0.0,0.0,0.0,0.266490978956,0.0860499917579,0.180440987198,0.352540970714,0.0860499917579,0.293276355873,390,-0.0641960347588,0.476284203309,-0.291947553613,nan,nan,nan,nan,nan,nan,nan,nan,626.57316269,811.15344794,nan,811.464900514,nan,nan,nan,nan
1,171,1,1,1.0,1.0,0.297654484399,0,0.0,0.0,0.0,0.266758607498,0.0858631903451,0.180895417153,0.352621797843,0.0858631903451,0.287460676899,36,1.0,0.0410699577143,-1.0,nan,nan,nan,nan,nan,nan,nan,nan,626.57316269,812.095237267,nan,812.392891751,nan,nan,nan,nan
1,172,1,1,1.0,1.0,0.315855316003,0,0.0,0.0,0.0,0.266941423338,0.0856415676185,0.181299855719,0.352582990956,0.0856415676185,0.308320791499,168,1.0,-0.190790017254,0.230361799274,nan,nan,nan,nan,nan,nan,nan,nan,626.57316269,813.037029445,nan,813.352884761,nan,nan,nan,nan
1,173,1,1,1.0,1.0,0.230033353437,0,0.0,0.0,0.0,0.267229152118,0.0854711955113,0.181757956607,0.352700347629,0.0854711955113,0.281181051279,213,0.929785093221,0.0521668813814,0.548906519778,nan,nan,nan,nan,nan,nan,nan,nan,626.57316269,813.978819912,nan,814.208853266,nan,nan,nan,nan
1,174,1,1,1.0,1.0,0.280200605164,0,0.0,0.0,0.0,0.267011632828,0.0852680922202,0.181743540607,0.352279725048,0.0852680922202,0.275363091535,78,1.0,-0.179467652321,-0.739907630878,nan,nan,nan,nan,nan,nan,nan,nan,626.57316269,814.920616082,nan,815.200816687,nan,nan,nan,nan
1,175,0,0,1.0,0.0,0.202392698964,0,0.0,0.0,0.0,0.267088312899,0.0850257713619,0.182062541537,0.352114084261,0.0850257713619,0.237542219188,138,1.0,-0.29832987918,-0.0546508148191,nan,nan,nan,nan,nan,nan,nan,nan,626.57316269,815.862403983,nan,816.064796682,nan,nan,nan,nan
1,176,1,1,1.0,1.0,0.076609931537,0,0.0,0.0,0.0,0.266714349813,0.0849214188805,0.181792930933,0.351635768694,0.0849214188805,0.186401078555,461,0.423959648591,0.380927367285,-1.0,nan,nan,nan,nan,nan,nan,nan,nan,626.57316269,816.804198157,nan,816.880808088,nan,nan,nan,nan
1,177,1,1,1.0,1.0,0.534741975018,0,0.0,0.0,0.0,0.265621795685,0.0858877571471,0.179734038538,0.351509552832,0.0858877571471,0.27124820184,396,-0.0330153705648,0.473684876347,-0.363523780775,nan,nan,nan,nan,nan,nan,nan,nan,626.57316269,817.745994326,nan,818.280736301,nan,nan,nan,nan
1,178,1,1,1.0,1.0,0.304947247147,0,0.0,0.0,0.0,0.267159625281,0.088011648514,0.179147976767,0.355171273795,0.088011648514,0.305433051234,343,-0.171388175652,0.463836419185,0.204822810802,nan,nan,nan,nan,nan,nan,nan,nan,626.57316269,818.687787359,nan,818.992734606,nan,nan,nan,nan
1,179,1,1,1.0,1.0,0.243134952849,0,0.0,1.0,0.0,0.267374327678,0.0878072071116,0.179567120567,0.35518153479,0.0878072071116,0.360941391671,137,1.0,-0.300190217086,-0.0647316600203,nan,nan,nan,nan,nan,nan,nan,nan,626.57316269,819.629582103,nan,819.872717056,nan,nan,nan,nan
1,180,0,0,1.0,0.0,0.197332240175,0,0.0,0.0,0.0,0.267237382058,0.0875776593893,0.179659722668,0.354815041447,0.0875776593893,0.248471480057,87,1.0,-0.220959007447,-0.612675615602,nan,nan,nan,nan,nan,nan,nan,nan,626.57316269,820.571368579,nan,820.768700819,nan,nan,nan,nan
1,181,1,1,1.0,1.0,0.167500335723,0,0.0,0.0,0.0,0.266844656541,0.0874874659528,0.179357190589,0.354332122494,0.0874874659528,0.202655842916,51,1.0,-0.0385160204876,-1.0,nan,nan,nan,nan,nan,nan,nan,nan,626.57316269,821.513162468,nan,821.680662803,nan,nan,nan,nan
1,182,1,1,1.0,1.0,0.23368173046,0,0.0,0.0,0.0,0.266289660336,0.087556406424,0.178733253912,0.35384606676,0.087556406424,0.199504768786,485,0.622774561467,0.312875618285,-1.0,nan,nan,nan,nan,nan,nan,nan,nan,626.57316269,822.454960347,nan,822.688642078,nan,nan,nan,nan
1,183,1,1,1.0,1.0,0.147848364199,0,0.0,0.0,0.0,0.26610850517,0.0873464882188,0.178762016951,0.353454993389,0.0873464882188,0.183010143461,149,1.0,-0.269478519393,0.0541436597792,nan,nan,nan,nan,nan,nan,nan,nan,626.57316269,823.396793579,nan,823.544641943,nan,nan,nan,nan
1,184,0,0,1.0,0.0,0.286054486991,0,0.0,0.0,0.0,0.265455134225,0.0875448366246,0.177910297601,0.35299997085,0.0875448366246,0.222528193883,229,0.770397026975,0.135265939772,0.614681466938,nan,nan,nan,nan,nan,nan,nan,nan,626.57316269,824.338544703,nan,824.62459919,nan,nan,nan,nan
1,185,1,1,1.0,1.0,0.192263228237,0,0.0,0.0,0.0,0.265568317482,0.0873172759546,0.178251041528,0.352885593437,0.0873172759546,0.208722026475,156,1.0,-0.244060613314,0.121041471254,nan,nan,nan,nan,nan,nan,nan,nan,626.57316269,825.280328328,nan,825.472591556,nan,nan,nan,nan
1,186,1,1,1.0,1.0,0.170417725923,0,0.0,0.0,0.0,0.265167743224,0.0872459023342,0.17792184089,0.352413645558,0.0872459023342,0.21624514705,391,-0.0591907973189,0.475916278612,-0.303718712187,nan,nan,nan,nan,nan,nan,nan,nan,626.57316269,826.222130199,nan,826.392547925,nan,nan,nan,nan
1,187,1,1,1.0,1.0,0.132636481896,0,1.0,0.0,0.0,0.264652797478,0.0872869101703,0.177365887308,0.351939707648,0.0872869101703,0.165105812019,459,0.407758158413,0.385709174134,-1.0,nan,nan,nan,nan,nan,nan,nan,nan,626.57316269,827.163922948,nan,827.296559429,nan,nan,nan,nan
1,188,1,1,1.0,1.0,0.0227800479624,1,0.0,0.0,1.0,0.263939195772,0.0875872063635,0.176351989408,0.351526402135,0.0875872063635,0.108611418594,200,1.0,-0.0191209939188,0.47515178387,-52.0763781776,142.076378178,1.45137817764,202.0,1.0,-0.00802826454356,0.487596984314,1.09211603308,626.57316269,828.105713415,828.914138694,828.128493463,831.039415986,832.048620034,829.930905491,831.031046985
1,189,1,1,1.0,1.0,0.434845094336,0,0.0,0.0,0.0,0.262642641214,0.0891137976571,0.173528843557,0.351756438871,0.0891137976571,0.196753874732,18,0.988682696815,0.131162580546,-1.0,nan,nan,nan,nan,nan,nan,nan,nan,626.57316269,832.189561086,nan,832.62440618,nan,nan,nan,nan
1,190,1,1,1.0,1.0,0.309004452312,0,0.0,0.0,0.0,0.263563509947,0.0897581757264,0.173805334221,0.353321685673,0.0897581757264,0.255543198204,253,0.513865899396,0.244839928328,0.655977188727,nan,nan,nan,nan,nan,nan,nan,nan,626.57316269,833.131388901,nan,833.440393353,nan,nan,nan,nan
1,191,1,1,1.0,1.0,0.255210775998,0,0.0,0.0,0.0,0.263805217087,0.0895801384463,0.174225078641,0.353385355534,0.0895801384463,0.333020107549,0,0.846831709088,0.212097570855,-1.0,nan,nan,nan,nan,nan,nan,nan,nan,626.57316269,834.073176232,nan,834.328387008,nan,nan,nan,nan
1,192,1,1,1.0,1.0,0.369388984516,0,0.0,0.0,0.0,0.263759743854,0.0893450152266,0.174414728627,0.353104759081,0.0893450152266,0.311201404276,114,1.0,-0.303747463913,-0.303859371662,nan,nan,nan,nan,nan,nan,nan,nan,626.57316269,835.014973827,nan,835.384362811,nan,nan,nan,nan
1,193,0,0,0.0,1.0,0.443543381756,0,0.0,0.0,0.0,0.264315687226,0.0894367554423,0.174878931784,0.353752442668,0.0894367554423,0.35604771409,476,0.547545041103,0.340739382997,-1.0,nan,nan,nan,nan,nan,nan,nan,nan,626.57316269,835.95678311,nan,836.400326492,nan,nan,nan,nan
1,194,1,1,1.0,1.0,0.429749283474,0,0.0,0.0,0.0,0.265254052119,0.090135200894,0.175118851225,0.355389253013,0.090135200894,0.414227216582,14,0.95801504718,0.150023555696,-1.0,nan,nan,nan,nan,nan,nan,nan,nan,626.57316269,836.898561034,nan,837.328310317,nan,nan,nan,nan
1,195,1,1,1.0,1.0,0.33592210256,0,0.0,0.0,0.0,0.266110798115,0.0906765499531,0.175434248162,0.356787348069,0.0906765499531,0.403071589263,224,0.821619416966,0.11002478857,0.597264883709,nan,nan,nan,nan,nan,nan,nan,nan,626.57316269,837.840362049,nan,838.176284152,nan,nan,nan,nan
1,196,1,1,1.0,1.0,0.31412421132,0,0.0,1.0,0.0,0.266472514719,0.0905801055291,0.17589240919,0.357052620248,0.0905801055291,0.359931865785,363,-0.162287729338,0.476365729747,0.00704812682028,nan,nan,nan,nan,nan,nan,nan,nan,626.57316269,838.782147385,nan,839.096271596,nan,nan,nan,nan
1,197,1,1,1.0,1.0,0.260305161355,1,0.0,0.0,1.0,0.266718142021,0.0904107692056,0.176307372815,0.357128911226,0.0904107692056,0.303450491745,310,-0.032854544558,0.417080732083,0.468828018046,-138.86546117,228.86546117,10.8967111699,325.0,-0.119404900653,0.442631039184,0.360186421743,1.35048253974,626.57316269,839.723940133,840.532353438,839.984245294,842.915974999,843.919952663,841.54911881,842.907644486
1,198,1,1,1.0,1.0,0.389961531968,0,0.0,0.0,0.0,0.266685254941,0.0901798121122,0.176505442828,0.356865067053,0.0901798121122,0.321463634881,412,0.0618891196837,0.462096609288,-0.571158935758,nan,nan,nan,nan,nan,nan,nan,nan,626.57316269,844.066147468,nan,844.456109,nan,nan,nan,nan
1,199,0,0,0.0,1.0,0.38415012951,0,0.0,0.0,0.0,0.267314215538,0.0903772483141,0.176936967224,0.357691463852,0.0903772483141,0.344805607611,287,0.159501648714,0.36255249221,0.590751920292,nan,nan,nan,nan,nan,nan,nan,nan,626.57316269,845.007982126,nan,845.392132255,nan,nan,nan,nan
1,200,1,1,1.0,1.0,0.258341703331,0,0.0,0.0,0.0,0.267907291243,0.0905291425374,0.177378148706,0.35843643378,0.0905291425374,0.344151121603,108,1.0,-0.292426609412,-0.368663285579,nan,nan,nan,nan,nan,nan,nan,nan,626.57316269,845.949774018,nan,846.208115722,nan,nan,nan,nan
1,201,1,1,1.0,1.0,0.252516901237,0,0.0,0.0,0.0,0.267858980193,0.0903027900705,0.177556190122,0.358161770263,0.0903027900705,0.298336244693,264,0.394966959701,0.287889713878,0.650717615019,nan,nan,nan,nan,nan,nan,nan,nan,626.57316269,846.891559069,nan,847.14407597,nan,nan,nan,nan
1,202,1,1,1.0,1.0,0.270686657284,0,0.0,0.0,0.0,0.267781884319,0.0900821453062,0.177699739013,0.357864029625,0.0900821453062,0.260515087284,132,1.0,-0.307426825298,-0.115555361894,nan,nan,nan,nan,nan,nan,nan,nan,626.57316269,847.833367212,nan,848.104053869,nan,nan,nan,nan
1,203,0,0,1.0,0.0,0.224893922918,0,0.0,0.0,0.0,0.267796408184,0.0898568913107,0.177939516873,0.357653299494,0.0898568913107,0.249365827146,482,0.597655625539,0.322480811492,-1.0,nan,nan,nan,nan,nan,nan,nan,nan,626.57316269,848.775147416,nan,849.000041339,nan,nan,nan,nan
1,204,1,1,1.0,1.0,0.234970935853,0,0.0,0.0,0.0,0.267582962983,0.0896839017573,0.177899061226,0.357266864741,0.0896839017573,0.243517172018,314,-0.0594438881467,0.42463230952,0.441925406839,nan,nan,nan,nan,nan,nan,nan,nan,626.57316269,849.717029114,nan,849.95200005,nan,nan,nan,nan
1,205,1,1,1.0,1.0,0.24525949033,0,0.0,0.0,0.0,0.267421517304,0.089490912431,0.177930604873,0.356912429735,0.089490912431,0.2350414497,1,0.854939129564,0.207877072944,-1.0,nan,nan,nan,nan,nan,nan,nan,nan,626.57316269,850.658737759,nan,850.903997249,nan,nan,nan,nan
1,206,1,1,1.0,1.0,0.287462577573,0,0.0,0.0,0.0,0.267312344758,0.0892837030324,0.178028641725,0.35659604779,0.0892837030324,0.255897667919,129,1.0,-0.310070485259,-0.146368003411,nan,nan,nan,nan,nan,nan,nan,nan,626.57316269,851.600517108,nan,851.887979685,nan,nan,nan,nan
1,207,0,0,0.0,1.0,0.361620681128,0,0.0,0.0,0.0,0.267411120409,0.089075719768,0.178335400641,0.356486840177,0.089075719768,0.298114249677,432,0.199227897075,0.437687328843,-1.0,nan,nan,nan,nan,nan,nan,nan,nan,626.57316269,852.542323255,nan,852.903943936,nan,nan,nan,nan
1,208,1,1,1.0,1.0,0.419831924373,0,0.0,0.0,0.0,0.267870679242,0.0891002957029,0.178770383539,0.356970974945,0.0891002957029,0.356305061025,381,-0.105403061426,0.478425078289,-0.188431136224,nan,nan,nan,nan,nan,nan,nan,nan,626.57316269,853.484092625,nan,853.90392455,nan,nan,nan,nan
1,209,0,0,1.0,0.0,0.342005201848,0,0.0,0.0,0.0,0.268608355189,0.08950909739,0.179099257799,0.358117452579,0.08950909739,0.374485935783,181,1.0,-0.123914391386,0.3392011262,nan,nan,nan,nan,nan,nan,nan,nan,626.57316269,854.425910462,nan,854.767915664,nan,nan,nan,nan
1,210,1,1,1.0,1.0,0.304196018609,0,0.0,0.0,0.0,0.268962929327,0.0894375351253,0.179525394202,0.358400464453,0.0894375351253,0.35534438161,295,0.0860222946478,0.38372732295,0.554986075565,nan,nan,nan,nan,nan,nan,nan,nan,626.57316269,855.367690666,nan,855.671886684,nan,nan,nan,nan
1,211,1,1,1.0,1.0,0.274371811654,0,0.0,0.0,0.0,0.26913231918,0.089255560297,0.179876758883,0.358387879477,0.089255560297,0.306857677371,114,1.0,-0.303747463913,-0.303859371662,nan,nan,nan,nan,nan,nan,nan,nan,626.57316269,856.309491967,nan,856.583863779,nan,nan,nan,nan
1,212,1,1,1.0,1.0,0.276429066435,0,0.0,0.0,0.0,0.269157388522,0.0890425082634,0.180114880258,0.358199896785,0.0890425082634,0.284998965566,44,1.0,-0.00106984144607,-1.0,nan,nan,nan,nan,nan,nan,nan,nan,626.57316269,857.251403315,nan,857.527832382,nan,nan,nan,nan
1,213,1,1,1.0,1.0,0.262745585409,0,0.0,0.0,0.0,0.269192015559,0.0888316598316,0.180360355728,0.358023675391,0.0888316598316,0.271182154499,491,0.673033477965,0.292707709811,-1.0,nan,nan,nan,nan,nan,nan,nan,nan,626.57316269,858.193079174,nan,858.455824759,nan,nan,nan,nan
1,214,1,1,1.0,1.0,0.280920188176,0,0.0,0.0,0.0,0.269161463758,0.0886220141866,0.180539449571,0.357783477944,0.0886220141866,0.273364946673,282,0.208142307666,0.34807905204,0.609295500931,nan,nan,nan,nan,nan,nan,nan,nan,626.57316269,859.134872492,nan,859.41579268,nan,nan,nan,nan
1,215,1,1,1.0,1.0,0.259109752602,0,0.0,0.0,0.0,0.269216929439,0.0884164238797,0.180800505559,0.357633353319,0.0884164238797,0.267591842062,507,0.805995650865,0.232688349973,-1.0,nan,nan,nan,nan,nan,nan,nan,nan,626.57316269,860.076664955,nan,860.335774708,nan,nan,nan,nan
1,216,1,1,1.0,1.0,0.261286177672,0,0.0,0.0,0.0,0.269169477904,0.0882113351679,0.180958142736,0.357380813072,0.0882113351679,0.267105372817,469,0.489482198204,0.360453357602,-1.0,nan,nan,nan,nan,nan,nan,nan,nan,626.57316269,861.018457133,nan,861.279743311,nan,nan,nan,nan
1,217,1,1,1.0,1.0,0.303500953829,0,0.0,0.0,0.0,0.269132640053,0.0880066347838,0.181126005269,0.357139274837,0.0880066347838,0.274632294701,408,0.036737934283,0.465637664749,-0.515938449969,nan,nan,nan,nan,nan,nan,nan,nan,626.57316269,861.960218806,nan,862.263719759,nan,nan,nan,nan
1,218,1,1,1.0,1.0,0.233664909843,0,0.0,0.0,0.0,0.269292492675,0.0878328642483,0.181459628427,0.357125356923,0.0878328642483,0.266150680448,156,1.0,-0.244060613314,0.121041471254,nan,nan,nan,nan,nan,nan,nan,nan,626.57316269,862.902042914,nan,863.135707824,nan,nan,nan,nan
1,219,1,1,1.0,1.0,0.203858093824,0,0.0,0.0,0.0,0.269127550162,0.0876626804438,0.181464869718,0.356790230606,0.0876626804438,0.247007985832,238,0.675741828754,0.178727669763,0.638511091232,nan,nan,nan,nan,nan,nan,nan,nan,626.57316269,863.843838513,nan,864.047696607,nan,nan,nan,nan
1,220,1,1,1.0,1.0,0.270013830042,0,0.0,0.0,0.0,0.268826769257,0.087572103467,0.18125466579,0.356398872724,0.087572103467,0.235845611237,135,1.0,-0.303502321856,-0.0849788702499,nan,nan,nan,nan,nan,nan,nan,nan,626.57316269,864.785650078,nan,865.055663908,nan,nan,nan,nan
1,221,1,1,1.0,1.0,0.416216048296,0,0.0,0.0,0.0,0.26883221449,0.0873710559733,0.181461158517,0.356203270463,0.0873710559733,0.296695990721,261,0.427225806086,0.276617811781,0.653674462902,nan,nan,nan,nan,nan,nan,nan,nan,626.57316269,865.727422299,nan,866.143638347,nan,nan,nan,nan
1,222,1,1,1.0,1.0,0.538402611273,0,0.0,1.0,0.0,0.269505200033,0.0877358456823,0.18176935435,0.357241045715,0.0877358456823,0.40821082987,190,1.0,-0.0746884387243,0.407399635172,nan,nan,nan,nan,nan,nan,nan,nan,626.57316269,866.669211626,nan,867.207614237,nan,nan,nan,nan
1,223,1,1,1.0,1.0,0.404587541241,1,0.0,0.0,1.0,0.270727460993,0.0893854490959,0.181342011897,0.360112910089,0.0893854490959,0.453068733603,365,-0.157962026257,0.477016591838,-0.0139196855225,-165.141385552,255.141385552,-1.49923944792,363.0,-0.162287729338,0.476365729747,0.00704812682028,1.10880442883,626.57316269,867.611009791,868.419424237,868.015597332,870.569746381,871.578108255,869.444524113,870.56136227
1,224,0,0,0.0,1.0,0.463620146853,0,0.0,0.0,0.0,0.271333162713,0.0896343581612,0.181698804552,0.360967520875,0.0896343581612,0.468870099789,434,0.213881816697,0.43461034373,-1.0,nan,nan,nan,nan,nan,nan,nan,nan,626.57316269,871.719880647,nan,872.183500794,nan,nan,nan,nan
1,225,1,1,1.0,1.0,0.265770171885,0,0.0,0.0,0.0,0.2721993203,0.0903544583388,0.181844861961,0.362553778638,0.0903544583388,0.377992619993,261,0.427225806086,0.276617811781,0.653674462902,nan,nan,nan,nan,nan,nan,nan,nan,626.57316269,872.661719581,nan,872.927489753,nan,nan,nan,nan
1,226,1,1,1.0,1.0,0.25199546013,0,0.0,0.0,0.0,0.272170490038,0.0901526656362,0.182017824401,0.362323155674,0.0901526656362,0.327128592956,76,1.0,-0.169674511773,-0.773365826749,nan,nan,nan,nan,nan,nan,nan,nan,626.57316269,873.603474696,nan,873.855470157,nan,nan,nan,nan
1,227,1,1,1.0,1.0,0.25416903419,0,0.0,0.0,0.0,0.27208042294,0.0899612617716,0.182119161168,0.362041684711,0.0899612617716,0.257311555402,336,-0.158211608236,0.456758111158,0.268135266647,nan,nan,nan,nan,nan,nan,nan,nan,626.57316269,874.54527001,nan,874.799439045,nan,nan,nan,nan
1,228,1,1,1.0,1.0,0.288326704409,0,0.0,0.0,0.0,0.272000816768,0.0897690320958,0.182231784672,0.361769848863,0.0897690320958,0.264830399576,450,0.335949728395,0.405598329481,-1.0,nan,nan,nan,nan,nan,nan,nan,nan,626.57316269,875.487083856,nan,875.77541056,nan,nan,nan,nan
1,229,1,1,1.0,1.0,0.322542249225,0,0.0,0.0,0.0,0.272073055209,0.0895767619108,0.182496293298,0.361649817119,0.0895767619108,0.288345995941,260,0.438016636947,0.272781976488,0.654406567654,nan,nan,nan,nan,nan,nan,nan,nan,626.57316269,876.428853511,nan,876.75139576,nan,nan,nan,nan
1,230,1,1,1.0,1.0,0.292732867412,0,0.0,0.0,0.0,0.27229538646,0.0894417113045,0.182853675155,0.361737097764,0.0894417113045,0.301200607015,451,0.343830962376,0.403518361206,-1.0,nan,nan,nan,nan,nan,nan,nan,nan,626.57316269,877.370638561,nan,877.663371429,nan,nan,nan,nan
1,231,1,1,1.0,1.0,0.310910035856,0,0.0,0.0,0.0,0.272385024534,0.0892555697642,0.18312945477,0.361640594298,0.0892555697642,0.308728384164,70,1.0,-0.13936984996,-0.906436913284,nan,nan,nan,nan,nan,nan,nan,nan,626.57316269,878.312437297,nan,878.623347332,nan,nan,nan,nan
1,232,1,1,1.0,1.0,0.233100134064,0,0.0,0.0,0.0,0.272553256025,0.0890966951958,0.183456560829,0.36164995122,0.0890966951958,0.278914345778,411,0.0555201669072,0.463022710015,-0.557054760163,nan,nan,nan,nan,nan,nan,nan,nan,626.57316269,879.254228049,nan,879.487328183,nan,nan,nan,nan
1,233,1,1,1.0,1.0,0.267288309522,0,0.0,0.0,0.0,0.272381720712,0.088940683994,0.183441036718,0.361322404706,0.088940683994,0.270432826481,246,0.589768841079,0.215019897151,0.651339528662,nan,nan,nan,nan,nan,nan,nan,nan,626.57316269,880.196030205,nan,880.463318515,nan,nan,nan,nan
1,234,1,1,1.0,1.0,0.221485026646,0,0.0,0.0,0.0,0.272359671313,0.0887485928789,0.183611078434,0.361108264191,0.0887485928789,0.240624490078,487,0.639529740128,0.306295026098,-1.0,nan,nan,nan,nan,nan,nan,nan,nan,626.57316269,881.137816396,nan,881.359301423,nan,nan,nan,nan
1,235,1,1,1.0,1.0,0.279627561569,0,0.0,0.0,0.0,0.272140384051,0.0886198126195,0.183520571432,0.360760196671,0.0886198126195,0.256133632579,381,-0.105403061426,0.478425078289,-0.188431136224,nan,nan,nan,nan,nan,nan,nan,nan,626.57316269,882.079645067,nan,882.359272628,nan,nan,nan,nan
1,236,1,1,1.0,1.0,0.305821067304,0,0.0,0.0,0.0,0.27217251786,0.0884307913723,0.183741726488,0.360603309232,0.0884307913723,0.268977885173,58,1.0,-0.0760896648475,-1.0,nan,nan,nan,nan,nan,nan,nan,nan,626.57316269,883.021421564,nan,883.327242631,nan,nan,nan,nan
1,237,1,1,1.0,1.0,0.260024911724,0,0.0,0.0,0.0,0.27231631508,0.0882689295775,0.184047385503,0.360585244657,0.0882689295775,0.281824513533,439,0.251144291643,0.426392204401,-1.0,nan,nan,nan,nan,nan,nan,nan,nan,626.57316269,883.963200057,nan,884.223224969,nan,nan,nan,nan
1,238,1,1,1.0,1.0,0.27022195037,0,0.0,0.0,0.0,0.272264011236,0.0880845569346,0.184179454301,0.360348568171,0.0880845569346,0.278689309799,134,1.0,-0.304950998219,-0.095144111098,nan,nan,nan,nan,nan,nan,nan,nan,626.57316269,884.9049757,nan,885.17519765,nan,nan,nan,nan
1,239,1,1,1.0,1.0,0.352384416969,0,0.0,0.0,0.0,0.272255358436,0.0878978390862,0.184357519349,0.360153197522,0.0878978390862,0.294210426354,394,-0.0437090198531,0.474655926729,-0.339401417396,nan,nan,nan,nan,nan,nan,nan,nan,626.57316269,885.846782418,nan,886.199166835,nan,nan,nan,nan
1,240,1,1,1.0,1.0,0.274587344495,0,0.0,0.0,0.0,0.272593455729,0.0878658519612,0.184727603768,0.36045930769,0.0878658519612,0.299064570611,230,0.760023132926,0.140224214653,0.61781109556,nan,nan,nan,nan,nan,nan,nan,nan,626.57316269,886.788572885,nan,887.063160229,nan,nan,nan,nan
1,241,1,1,1.0,1.0,0.260774429888,0,0.0,0.0,0.0,0.272601833413,0.0876811603825,0.18492067303,0.360282993795,0.0876811603825,0.295915397117,29,1.0,0.0770173926463,-1.0,nan,nan,nan,nan,nan,nan,nan,nan,626.57316269,887.730367629,nan,887.991142059,nan,nan,nan,nan
1,242,1,1,1.0,1.0,0.246953532449,0,0.0,0.0,0.0,0.272552346369,0.0875008653404,0.185051481028,0.360053211709,0.0875008653404,0.260771768944,168,1.0,-0.190790017254,0.230361799274,nan,nan,nan,nan,nan,nan,nan,nan,626.57316269,888.672158666,nan,888.919112199,nan,nan,nan,nan
1,243,1,1,1.0,1.0,0.225147658493,0,0.0,0.0,0.0,0.272445684644,0.0873339498683,0.185111734776,0.359779634513,0.0873339498683,0.24429187361,478,0.56422249903,0.334793662244,-1.0,nan,nan,nan,nan,nan,nan,nan,nan,626.57316269,889.613955691,nan,889.839103349,nan,nan,nan,nan
1,244,1,1,1.0,1.0,0.22725509014,0,0.0,0.0,0.0,0.272249427274,0.0872055884567,0.185043838818,0.359455015731,0.0872055884567,0.233118760361,23,1.0,0.106943944166,-1.0,nan,nan,nan,nan,nan,nan,nan,nan,626.57316269,890.555826555,nan,890.783081645,nan,nan,nan,nan
1,245,1,1,1.0,1.0,0.309508217382,0,0.0,0.0,0.0,0.272063500261,0.0870730779171,0.184990422344,0.359136578178,0.0870730779171,0.253970322005,292,0.112881669716,0.376069582356,0.569261850688,nan,nan,nan,nan,nan,nan,nan,nan,626.57316269,891.497536911,nan,891.807045128,nan,nan,nan,nan
1,246,1,1,1.0,1.0,0.29569387727,0,0.0,0.0,0.0,0.272217593747,0.0869267889815,0.185290804766,0.359144382729,0.0869267889815,0.277485728264,41,1.0,0.0148395037771,-1.0,nan,nan,nan,nan,nan,nan,nan,nan,626.57316269,892.439331369,nan,892.735025247,nan,nan,nan,nan
1,247,0,0,1.0,0.0,0.24987947545,0,0.0,0.0,0.0,0.272313808024,0.0867614420879,0.185552365936,0.359075250112,0.0867614420879,0.285027190034,387,-0.0787219327085,0.477231755363,-0.256974454483,nan,nan,nan,nan,nan,nan,nan,nan,626.57316269,893.381123832,nan,893.631003308,nan,nan,nan,nan
1,248,1,1,1.0,1.0,0.372058911133,0,0.0,0.0,0.0,0.27222223932,0.0865960105668,0.185626228753,0.358818249887,0.0865960105668,0.305877421284,510,0.830554458933,0.220436700166,-1.0,nan,nan,nan,nan,nan,nan,nan,nan,626.57316269,894.322908598,nan,894.694967509,nan,nan,nan,nan
1,249,1,1,1.0,1.0,0.318245848175,0,0.0,0.0,0.0,0.272628079449,0.0866529795227,0.185975099926,0.359281058972,0.0866529795227,0.313394744919,228,0.780729811514,0.1302769546,0.611433142569,nan,nan,nan,nan,nan,nan,nan,nan,626.57316269,895.264709614,nan,895.582955462,nan,nan,nan,nan
1,250,1,1,1.0,1.0,0.24844430096,0,0.0,0.0,0.0,0.272812766772,0.086525892205,0.186286874567,0.359338658977,0.086525892205,0.312916353423,135,1.0,-0.303502321856,-0.0849788702499,nan,nan,nan,nan,nan,nan,nan,nan,626.57316269,896.206501507,nan,896.454945807,nan,nan,nan,nan
1,251,1,1,1.0,1.0,0.250629563932,0,0.0,0.0,0.0,0.272714506829,0.086365076179,0.18634943065,0.359079583008,0.086365076179,0.272439904356,65,1.0,-0.113312155659,-1.0,nan,nan,nan,nan,nan,nan,nan,nan,626.57316269,897.148291689,nan,897.398921253,nan,nan,nan,nan
1,252,1,1,1.0,1.0,0.260742213926,0,0.0,0.0,0.0,0.272625812279,0.0862027946362,0.186423017643,0.358828606916,0.0862027946362,0.253272026273,302,0.027086081288,0.400300843718,0.517770016443,nan,nan,nan,nan,nan,nan,nan,nan,626.57316269,898.090165404,nan,898.350907618,nan,nan,nan,nan
1,253,0,0,1.0,0.0,0.254998379154,0,0.0,0.0,0.0,0.272578277886,0.0860334861319,0.186544791754,0.358611764018,0.0860334861319,0.255456719004,60,1.0,-0.0867837676833,-1.0,nan,nan,nan,nan,nan,nan,nan,nan,626.57316269,899.031883172,nan,899.286881551,nan,nan,nan,nan
1,254,1,1,1.0,1.0,0.289171444601,0,0.0,0.0,0.0,0.272508238449,0.0858690749344,0.186639163514,0.358377313383,0.0858690749344,0.268304012561,438,0.243622561222,0.428096439079,-1.0,nan,nan,nan,nan,nan,nan,nan,nan,626.57316269,899.973670788,nan,900.262842233,nan,nan,nan,nan
1,255,1,1,1.0,1.0,0.251351142535,0,0.0,0.0,0.0,0.272574362283,0.0857049332302,0.186869429052,0.358279295513,0.0857049332302,0.26517365543,297,0.0686262056446,0.388646276542,0.544904663634,nan,nan,nan,nan,nan,nan,nan,nan,626.57316269,900.915460401,nan,901.166811543,nan,nan,nan,nan
1,256,1,1,1.0,1.0,0.229554676684,0,0.0,0.0,0.0,0.272490476039,0.0855457534441,0.186944722594,0.358036229483,0.0855457534441,0.256692421273,86,1.0,-0.21659106269,-0.625617802914,nan,nan,nan,nan,nan,nan,nan,nan,626.57316269,901.85725771,nan,902.086812387,nan,nan,nan,nan
1,257,1,1,1.0,1.0,0.239749719738,0,0.0,0.0,0.0,0.272321437458,0.0854195167528,0.186901920706,0.357740954211,0.0854195167528,0.240218512986,162,1.0,-0.218739557155,0.176632971453,nan,nan,nan,nan,nan,nan,nan,nan,626.57316269,902.799049888,nan,903.038799608,nan,nan,nan,nan
1,258,1,1,1.0,1.0,0.313926639617,0,0.0,0.0,0.0,0.272193705232,0.0852761648026,0.18691754043,0.357469870035,0.0852761648026,0.261077012013,345,-0.173519535469,0.465595146217,0.186119282857,nan,nan,nan,nan,nan,nan,nan,nan,626.57316269,903.740832373,nan,904.054759012,nan,nan,nan,nan
1,259,1,1,1.0,1.0,0.268150725868,0,0.0,0.0,0.0,0.272356724507,0.0851492491805,0.187207475327,0.357505973688,0.0851492491805,0.273942361741,299,0.0516645560415,0.393417669654,0.534378752182,nan,nan,nan,nan,nan,nan,nan,nan,626.57316269,904.682602883,nan,904.950753609,nan,nan,nan,nan
1,260,0,0,1.0,0.0,0.270262433914,0,0.0,0.0,0.0,0.272340358754,0.0849838311105,0.187356527643,0.357324189864,0.0849838311105,0.284113266466,205,1.0,0.00854800403903,0.505535240796,nan,nan,nan,nan,nan,nan,nan,nan,626.57316269,905.62445094,nan,905.894713374,nan,nan,nan,nan
1,261,1,1,1.0,1.0,0.24048042146,0,0.0,0.0,0.0,0.272332304781,0.084819072135,0.187513232646,0.357151376916,0.084819072135,0.259631193747,356,-0.17284377641,0.473239407326,0.0788368070227,nan,nan,nan,nan,nan,nan,nan,nan,626.57316269,906.566218315,nan,906.806698736,nan,nan,nan,nan
1,262,1,1,1.0,1.0,0.274666886427,0,0.0,0.0,0.0,0.272209324537,0.0846782138602,0.187531110677,0.356887538397,0.0846782138602,0.261803247267,245,0.600577697281,0.210610106048,0.650172825369,nan,nan,nan,nan,nan,nan,nan,nan,626.57316269,907.508016195,nan,907.782683081,nan,nan,nan,nan
1,263,1,1,1.0,1.0,0.260872503044,0,0.0,0.0,0.0,0.272218776698,0.0845153511577,0.18770342554,0.356734127856,0.0845153511577,0.258673270311,398,-0.0220377755791,0.472608796233,-0.387943383198,nan,nan,nan,nan,nan,nan,nan,nan,626.57316269,908.449789271,nan,908.710661774,nan,nan,nan,nan
1,264,0,0,1.0,0.0,0.263047502493,0,0.0,0.0,0.0,0.272175304385,0.0843562014295,0.187819102956,0.356531505815,0.0843562014295,0.266195630655,472,0.51429864939,0.352212277195,-1.0,nan,nan,nan,nan,nan,nan,nan,nan,626.57316269,909.391592568,nan,909.65464007,nan,nan,nan,nan
1,265,1,1,1.0,1.0,0.289225613,0,0.0,0.0,0.0,0.272140465447,0.0841969436668,0.18794352178,0.356337409113,0.0841969436668,0.271048539512,386,-0.0833946583454,0.477495592553,-0.245424736514,nan,nan,nan,nan,nan,nan,nan,nan,626.57316269,910.333395864,nan,910.622621477,nan,nan,nan,nan
1,266,1,1,1.0,1.0,0.243404653971,0,0.0,0.0,0.0,0.272205427985,0.0840432992458,0.188162128739,0.356248727231,0.0840432992458,0.265225923155,129,1.0,-0.310070485259,-0.146368003411,nan,nan,nan,nan,nan,nan,nan,nan,626.57316269,911.275185476,nan,911.51859013,nan,nan,nan,nan
1,267,1,1,1.0,1.0,0.26159408153,0,0.0,0.0,0.0,0.272096334144,0.0839026304702,0.188193703674,0.355998964614,0.0839026304702,0.2647414495,429,0.177531820842,0.442080780324,-0.901885199234,nan,nan,nan,nan,nan,nan,nan,nan,626.57316269,912.216974803,nan,912.478568885,nan,nan,nan,nan
1,268,1,1,1.0,1.0,0.287746818503,0,0.0,0.0,0.0,0.272056703002,0.0837466496237,0.188310053378,0.355803352626,0.0837466496237,0.264248518002,228,0.780729811514,0.1302769546,0.611433142569,nan,nan,nan,nan,nan,nan,nan,nan,626.57316269,913.158788934,nan,913.446535752,nan,nan,nan,nan
1,269,1,1,1.0,1.0,0.266005661339,0,0.0,0.0,0.0,0.272115688399,0.0835945978235,0.188521090575,0.355710286222,0.0835945978235,0.271782187124,47,1.0,-0.0170755915744,-1.0,nan,nan,nan,nan,nan,nan,nan,nan,626.57316269,914.100526658,nan,914.36653232,nan,nan,nan,nan
1,270,1,1,1.0,1.0,0.292152411304,0,0.0,0.0,0.0,0.272092804402,0.083438741518,0.188654062884,0.35553154592,0.083438741518,0.281968297049,183,1.0,-0.113108999915,0.354902835149,nan,nan,nan,nan,nan,nan,nan,nan,626.57316269,915.042355614,nan,915.334508025,nan,nan,nan,nan
1,271,1,1,1.0,1.0,0.342318522627,0,0.0,0.0,0.0,0.272167653682,0.0832919067549,0.188875746927,0.355459560437,0.0832919067549,0.30015886509,345,-0.173519535469,0.465595146217,0.186119282857,nan,nan,nan,nan,nan,nan,nan,nan,626.57316269,915.984147221,nan,916.326465744,nan,nan,nan,nan
1,272,1,1,1.0,1.0,0.296511818538,0,0.0,0.0,0.0,0.272428437581,0.0832464883453,0.189181949236,0.355674925926,0.0832464883453,0.310327584157,190,1.0,-0.0746884387243,0.407399635172,nan,nan,nan,nan,nan,nan,nan,nan,626.57316269,916.925942535,nan,917.222454354,nan,nan,nan,nan
1,273,1,1,1.0,1.0,0.218695644639,0,0.0,0.0,0.0,0.272517635288,0.0831050628026,0.189412572486,0.355622698091,0.0831050628026,0.285841995268,494,0.698129958021,0.282143999684,-1.0,nan,nan,nan,nan,nan,nan,nan,nan,626.57316269,917.867732718,nan,918.086428362,nan,nan,nan,nan
1,274,1,1,1.0,1.0,0.244887724752,0,0.0,0.0,0.0,0.272319030157,0.0830157592401,0.189303270917,0.355334789397,0.0830157592401,0.253365062643,190,1.0,-0.0746884387243,0.407399635172,nan,nan,nan,nan,nan,nan,nan,nan,626.57316269,918.80952233,nan,919.054410054,nan,nan,nan,nan
1,275,1,1,1.0,1.0,0.319062934141,0,0.0,0.0,0.0,0.272218179769,0.082879646142,0.189338533627,0.355097825911,0.082879646142,0.260882101177,409,0.0429436170054,0.464793150178,-0.529461854507,nan,nan,nan,nan,nan,nan,nan,nan,626.57316269,919.751321635,nan,920.070384569,nan,nan,nan,nan
1,276,1,1,1.0,1.0,0.481149006402,0,0.0,0.0,0.0,0.272389772276,0.0827761028702,0.189613669406,0.355165875146,0.0827761028702,0.348366555098,329,-0.136053278316,0.448203788942,0.3278337444,nan,nan,nan,nan,nan,nan,nan,nan,626.57316269,920.693217303,nan,921.174366309,nan,nan,nan,nan
1,277,0,0,0.0,1.0,0.483438899741,0,0.0,0.0,0.0,0.273151667291,0.0835783971441,0.189573270147,0.356730064435,0.0835783971441,0.427883613428,510,0.830554458933,0.220436700166,-1.0,nan,nan,nan,nan,nan,nan,nan,nan,626.57316269,921.634904565,nan,922.118343465,nan,nan,nan,nan
1,278,1,1,1.0,1.0,0.277635594015,0,0.0,0.0,0.0,0.273916348136,0.0843810706491,0.189535277487,0.358297418785,0.0843810706491,0.414074500053,172,1.0,-0.170984061773,0.265024678188,nan,nan,nan,nan,nan,nan,nan,nan,626.57316269,922.576697028,nan,922.854332622,nan,nan,nan,nan
1,279,1,1,1.0,1.0,0.471816950012,0,0.0,0.0,0.0,0.273929823665,0.0842283641152,0.18970145955,0.35815818778,0.0842283641152,0.410963814589,245,0.600577697281,0.210610106048,0.650172825369,nan,nan,nan,nan,nan,nan,nan,nan,626.57316269,923.518488921,nan,923.990305871,nan,nan,nan,nan
1,280,1,1,1.0,1.0,0.290010197903,0,0.0,0.0,0.0,0.274644217623,0.0849097445251,0.189734473098,0.359553962148,0.0849097445251,0.346487580643,501,0.7564492333,0.256253544744,-1.0,nan,nan,nan,nan,nan,nan,nan,nan,626.57316269,924.460272546,nan,924.750282744,nan,nan,nan,nan
1,281,1,1,1.0,1.0,0.284197654924,0,0.0,0.0,0.0,0.274699490933,0.0847618837866,0.189937607147,0.35946137472,0.0847618837866,0.34867493428,353,-0.175041255135,0.471490071959,0.108799216003,nan,nan,nan,nan,nan,nan,nan,nan,626.57316269,925.402072707,nan,925.686270362,nan,nan,nan,nan
1,282,1,1,1.0,1.0,0.270369345089,0,0.0,0.0,0.0,0.274733534532,0.08461174838,0.190121786152,0.359345282912,0.08461174838,0.281525732639,21,1.0,0.116713997928,-1.0,nan,nan,nan,nan,nan,nan,nan,nan,626.57316269,926.343868591,nan,926.614237936,nan,nan,nan,nan
1,283,1,1,1.0,1.0,0.192559158197,0,0.0,0.0,0.0,0.274717948141,0.0844609220727,0.190257026068,0.359178870214,0.0844609220727,0.249042052737,286,0.169078956243,0.359734776014,0.594698705761,nan,nan,nan,nan,nan,nan,nan,nan,626.57316269,927.285657918,nan,927.478217076,nan,nan,nan,nan
1,284,1,1,1.0,1.0,0.234728033887,0,0.0,0.0,0.0,0.274425568105,0.0844523345787,0.189973233527,0.358877902684,0.0844523345787,0.232552179058,207,0.985653507947,0.0195431921708,0.51699622314,nan,nan,nan,nan,nan,nan,nan,nan,626.57316269,928.227472619,nan,928.462200652,nan,nan,nan,nan
1,285,1,1,1.0,1.0,0.276943950332,0,0.0,0.0,0.0,0.274284796708,0.0843354836265,0.189949313081,0.358620280334,0.0843354836265,0.234743714139,15,0.965734432428,0.145352784795,-1.0,nan,nan,nan,nan,nan,nan,nan,nan,626.57316269,929.169237427,nan,929.446181378,nan,nan,nan,nan
1,286,1,1,1.0,1.0,0.295119408285,0,0.0,0.0,0.0,0.27429419301,0.0841864970182,0.190107695992,0.358480690028,0.0841864970182,0.268930464168,452,0.351738073422,0.401406211611,-1.0,nan,nan,nan,nan,nan,nan,nan,nan,626.57316269,930.111040439,nan,930.406159847,nan,nan,nan,nan
1,287,1,1,1.0,1.0,0.433290179237,0,0.0,0.0,0.0,0.274367521233,0.0840472037852,0.190320317448,0.358414725018,0.0840472037852,0.335117845951,283,0.19826868328,0.351050922538,0.605825948857,nan,nan,nan,nan,nan,nan,nan,nan,626.57316269,931.052828625,nan,931.486118805,nan,nan,nan,nan
1,288,1,1,1.0,1.0,0.227493715822,0,0.0,0.0,0.0,0.274925144594,0.084424254685,0.190500889909,0.359349399279,0.084424254685,0.318634434448,82,1.0,-0.198479155091,-0.679872484948,nan,nan,nan,nan,nan,nan,nan,nan,626.57316269,931.994616812,nan,932.222110528,nan,nan,nan,nan
1,289,1,1,1.0,1.0,0.33366784628,0,0.0,0.0,0.0,0.274759300438,0.0843230237218,0.190436276716,0.35908232416,0.0843230237218,0.33148391378,468,0.481236483515,0.363131620867,-1.0,nan,nan,nan,nan,nan,nan,nan,nan,626.57316269,932.936416973,nan,933.270084819,nan,nan,nan,nan
1,290,1,1,1.0,1.0,0.279861055547,0,0.0,0.0,0.0,0.274964556695,0.0842475324897,0.190717024205,0.359212089185,0.0842475324897,0.28034087255,270,0.331159066004,0.309369715406,0.641393874915,nan,nan,nan,nan,nan,nan,nan,nan,626.57316269,933.878209151,nan,934.158070206,nan,nan,nan,nan
1,291,1,1,1.0,1.0,0.258048054064,0,0.0,0.0,0.0,0.274981558427,0.0841016354408,0.190879922986,0.359083193868,0.0841016354408,0.290525651964,358,-0.170583909915,0.474268316859,0.0585874414746,nan,nan,nan,nan,nan,nan,nan,nan,626.57316269,934.820002184,nan,935.078050238,nan,nan,nan,nan
1,292,1,1,1.0,1.0,0.188214005786,0,0.0,0.0,0.0,0.274922964986,0.0839618931424,0.190961071844,0.358884858129,0.0839618931424,0.242041038466,163,1.0,-0.214247802105,0.185723682048,nan,nan,nan,nan,nan,nan,nan,nan,626.57316269,935.76180548,nan,935.950019486,nan,nan,nan,nan
1,293,1,1,1.0,1.0,0.0864443277242,0,1.0,0.0,0.0,0.274623968575,0.0839709878768,0.190652980699,0.358594956452,0.0839709878768,0.177568795858,456,0.383612429175,0.392633185378,-1.0,nan,nan,nan,nan,nan,nan,nan,nan,626.57316269,936.703585969,nan,936.790030297,nan,nan,nan,nan
1,294,1,1,1.0,1.0,0.29660190898,1,0.0,0.0,1.0,0.273977303143,0.0845468344846,0.189430468658,0.358524137628,0.0845468344846,0.19042008083,371,-0.14179360683,0.478331938097,-0.0779732583494,-155.533209119,245.533209119,-15.326165881,349.0,-0.175656888649,0.468768509344,0.147945183432,1.64217822673,626.57316269,937.645393257,938.45379972,937.941995166,941.129110981,942.135355445,939.470578777,941.120777332
1,295,0,0,0.0,1.0,0.430540710804,0,0.0,0.0,0.0,0.27405478467,0.0844122869151,0.189642497755,0.358467071585,0.0844122869151,0.271195649169,0,0.846831709088,0.212097570855,-1.0,nan,nan,nan,nan,nan,nan,nan,nan,626.57316269,942.279330491,nan,942.709871202,nan,nan,nan,nan
1,296,1,1,1.0,1.0,0.288740379154,0,0.0,0.0,0.0,0.274588866329,0.0847608772613,0.189827989068,0.35934974359,0.0847608772613,0.338627666313,128,1.0,-0.310663006781,-0.156689791083,nan,nan,nan,nan,nan,nan,nan,nan,626.57316269,943.22112666,nan,943.50986704,nan,nan,nan,nan
1,297,1,1,1.0,1.0,0.234910780448,0,0.0,0.0,0.0,0.274637000726,0.0846206146016,0.190016386125,0.359257615328,0.0846206146016,0.318063956802,238,0.675741828754,0.178727669763,0.638511091232,nan,nan,nan,nan,nan,nan,nan,nan,626.57316269,944.162915417,nan,944.397826198,nan,nan,nan,nan
1,298,1,1,1.0,1.0,0.221108414349,0,0.0,0.0,0.0,0.274502335573,0.0845086186962,0.189993716877,0.359010954269,0.0845086186962,0.248253191317,334,-0.152796554809,0.454467054946,0.285576400052,nan,nan,nan,nan,nan,nan,nan,nan,626.57316269,945.104710161,nan,945.325818575,nan,nan,nan,nan
1,299,1,1,1.0,1.0,0.207300346345,0,0.0,0.0,0.0,0.274321950704,0.0844226164215,0.189899334282,0.358744567125,0.0844226164215,0.221106513714,422,0.128328379107,0.451313674078,-0.730894888444,nan,nan,nan,nan,nan,nan,nan,nan,626.57316269,946.046501484,nan,946.25380183,nan,nan,nan,nan
1,300,1,1,1.0,1.0,0.233463916928,0,0.0,0.0,0.0,0.274096288736,0.0843697471512,0.189726541585,0.358466035887,0.0843697471512,0.220624225874,101,1.0,-0.273572672894,-0.446152610616,nan,nan,nan,nan,nan,nan,nan,nan,626.57316269,946.988297938,nan,947.221761855,nan,nan,nan,nan
1,301,1,1,1.0,1.0,0.21163894143,0,0.0,0.0,0.0,0.273959938495,0.0842608397625,0.189699098733,0.358220778258,0.0842608397625,0.217467734901,4,0.879126049628,0.195014037372,-1.0,nan,nan,nan,nan,nan,nan,nan,nan,626.57316269,947.930088405,nan,948.141727347,nan,nan,nan,nan
1,302,1,1,1.0,1.0,0.189856445533,0,0.0,0.0,0.0,0.273751507067,0.084196733189,0.189554773878,0.357948240256,0.084196733189,0.211653101297,410,0.0492046846968,0.463921527344,-0.54316189137,nan,nan,nan,nan,nan,nan,nan,nan,626.57316269,948.871866899,nan,949.061723344,nan,nan,nan,nan
1,303,1,1,1.0,1.0,0.248015516088,0,0.0,0.0,0.0,0.273471856862,0.0841952649917,0.18927659187,0.357667121854,0.0841952649917,0.21650363435,289,0.140592130943,0.368073254824,0.582505265782,nan,nan,nan,nan,nan,nan,nan,nan,626.57316269,949.813673617,nan,950.061689133,nan,nan,nan,nan
1,304,1,1,1.0,1.0,0.242211240926,0,0.0,0.0,0.0,0.273387284301,0.0840680523753,0.189319231926,0.357455336677,0.0840680523753,0.226694400849,418,0.101175887384,0.455961754156,-0.661679309199,nan,nan,nan,nan,nan,nan,nan,nan,626.57316269,950.75546779,nan,950.997679031,nan,nan,nan,nan
1,305,1,1,1.0,1.0,0.180391819216,0,0.0,0.0,0.0,0.27328405237,0.0839478589711,0.189336193398,0.357231911341,0.0839478589711,0.22353952541,229,0.770397026975,0.135265939772,0.614681466938,nan,nan,nan,nan,nan,nan,nan,nan,626.57316269,951.697256262,nan,951.877648081,nan,nan,nan,nan
1,306,1,1,1.0,1.0,0.278583824169,0,0.0,0.0,0.0,0.272977477343,0.083978385604,0.188999091739,0.356955862947,0.083978385604,0.233728961437,174,1.0,-0.160790688716,0.281981279739,nan,nan,nan,nan,nan,nan,nan,nan,626.57316269,952.639053286,nan,952.917637111,nan,nan,nan,nan
1,307,1,1,1.0,1.0,0.216776946676,0,0.0,0.0,0.0,0.272995919273,0.0838407640552,0.189155155218,0.356836683328,0.0838407640552,0.225250863354,440,0.258699398066,0.424657399123,-1.0,nan,nan,nan,nan,nan,nan,nan,nan,626.57316269,953.580845749,nan,953.797622696,nan,nan,nan,nan
1,308,1,1,1.0,1.0,0.162975857733,0,0.0,0.0,0.0,0.272811594773,0.0837648821213,0.189046712651,0.356576476894,0.0837648821213,0.219445542859,309,-0.0258396312562,0.415106541901,0.475305697888,nan,nan,nan,nan,nan,nan,nan,nan,626.57316269,954.522619681,nan,954.685595539,nan,nan,nan,nan
1,309,1,1,1.0,1.0,0.205146729015,0,0.0,0.0,0.0,0.272452654456,0.0838625136343,0.188590140821,0.35631516809,0.0838625136343,0.194966511141,399,-0.0164460389312,0.472031251936,-0.400274523968,nan,nan,nan,nan,nan,nan,nan,nan,626.57316269,955.464432386,nan,955.669579115,nan,nan,nan,nan
1,310,1,1,1.0,1.0,0.175331645296,0,1.0,0.0,0.0,0.272233416913,0.0838136061481,0.188419810765,0.356047023061,0.0838136061481,0.181151410681,86,1.0,-0.21659106269,-0.625617802914,nan,nan,nan,nan,nan,nan,nan,nan,626.57316269,956.406223994,nan,956.581555639,nan,nan,nan,nan
1,311,1,1,1.0,1.0,0.145520552993,1,0.0,0.0,1.0,0.271918800772,0.0838588153947,0.188059985377,0.355777616166,0.0838588153947,0.175332975768,284,0.188465149253,0.353984098999,0.602236276499,-127.900080355,217.900080355,18.2125803554,310.0,-0.032854544558,0.417080732083,0.468828018046,1.40881865518,626.57316269,957.34801218,958.156432328,957.493532733,960.598382592,961.603694506,959.17319998,960.590050368
1,312,1,1,1.0,1.0,0.256719220313,0,0.0,0.0,0.0,0.271509744954,0.0840302283466,0.187563255281,0.355360811887,0.0840302283466,0.192523806201,347,-0.174938837379,0.46723881498,0.167157479366,nan,nan,nan,nan,nan,nan,nan,nan,626.57316269,961.748660831,nan,962.005380052,nan,nan,nan,nan
1,313,0,0,nan,nan,nan,0,0.0,0.0,0.0,0.271462033584,0.0838987783029,0.187563255281,0.355360811887,0.0838987783029,0.201119886653,60,1.0,-0.0867837676833,-1.0,nan,nan,nan,nan,nan,nan,nan,nan,626.57316269,962.690392854,nan,nan,nan,nan,nan,nan
1,314,1,1,0.0,0.0,0.0852224050323,0,0.0,0.0,0.0,0.271462033584,0.0838987783029,0.187563255281,0.355360811887,0.0838987783029,0.170970812673,196,1.0,-0.0413610816081,0.449130757868,nan,nan,nan,nan,nan,nan,nan,nan,626.57316269,963.632189023,nan,963.717411428,nan,nan,nan,nan
1,315,1,1,1.0,1.0,0.431328716804,0,0.0,0.0,0.0,0.270863192335,0.084424764762,0.186438427573,0.355287957097,0.084424764762,0.258275560918,468,0.481236483515,0.363131620867,-1.0,nan,nan,nan,nan,nan,nan,nan,nan,626.57316269,964.573982342,nan,965.005311058,nan,nan,nan,nan
1,316,1,1,1.0,1.0,0.297517638188,0,0.0,0.0,0.0,0.271377504913,0.0847759467239,0.186601558189,0.356153451637,0.0847759467239,0.271356253341,127,1.0,-0.31111021432,-0.167036648065,nan,nan,nan,nan,nan,nan,nan,nan,626.57316269,965.515777656,nan,965.813295294,nan,nan,nan,nan
1,317,0,0,1.0,0.0,0.243749050191,0,0.0,0.0,0.0,0.271461019716,0.0846532676221,0.186807752094,0.356114287338,0.0846532676221,0.324198468394,47,1.0,-0.0170755915744,-1.0,nan,nan,nan,nan,nan,nan,nan,nan,626.57316269,966.457569263,nan,966.701318314,nan,nan,nan,nan
1,318,1,1,1.0,1.0,0.29392856115,0,0.0,0.0,0.0,0.271372765036,0.0845327831409,0.186839981895,0.355905548177,0.0845327831409,0.27839841651,191,1.0,-0.0691479807067,0.414571651978,nan,nan,nan,nan,nan,nan,nan,nan,626.57316269,967.39935859,nan,967.693287152,nan,nan,nan,nan
1,319,1,1,1.0,1.0,0.256132777315,0,0.0,0.0,0.0,0.271444370738,0.0844080349827,0.187036335755,0.35585240572,0.0844080349827,0.264603462885,66,1.0,-0.118568705386,-1.0,nan,nan,nan,nan,nan,nan,nan,nan,626.57316269,968.341153619,nan,968.597286397,nan,nan,nan,nan
1,320,1,1,1.0,1.0,0.258272424922,0,0.0,0.0,0.0,0.271395916328,0.0842787598701,0.187117156458,0.355674676198,0.0842787598701,0.269444587796,336,-0.158211608236,0.456758111158,0.268135266647,nan,nan,nan,nan,nan,nan,nan,nan,626.57316269,969.282970315,nan,969.54124274,nan,nan,nan,nan
1,321,1,1,1.0,1.0,0.404475498479,0,0.0,0.0,0.0,0.271354517302,0.0841489411518,0.18720557615,0.355503458453,0.0841489411518,0.306293566905,100,1.0,-0.270427092546,-0.457439896749,nan,nan,nan,nan,nan,nan,nan,nan,626.57316269,970.224743962,nan,970.629219461,nan,nan,nan,nan
1,322,1,1,1.0,1.0,0.366670591407,0,0.0,0.0,0.0,0.271773136739,0.0843464797732,0.187426656966,0.356119616512,0.0843464797732,0.343139504936,169,1.0,-0.185917379452,0.239118302078,nan,nan,nan,nan,nan,nan,nan,nan,626.57316269,971.166532149,nan,971.53320274,nan,nan,nan,nan
1,323,1,1,1.0,1.0,0.288854132523,0,0.0,0.0,0.0,0.272070620923,0.084381091925,0.187689528998,0.356451712848,0.084381091925,0.35333340747,475,0.539218753276,0.343659807328,-1.0,nan,nan,nan,nan,nan,nan,nan,nan,626.57316269,972.108331454,nan,972.397185587,nan,nan,nan,nan
1,324,1,1,1.0,1.0,0.251052931766,0,0.0,0.0,0.0,0.272123069397,0.0842543510216,0.187868718375,0.356377420419,0.0842543510216,0.302192551899,369,-0.147694689129,0.477999187239,-0.0564338676883,nan,nan,nan,nan,nan,nan,nan,nan,626.57316269,973.050117645,nan,973.301170577,nan,nan,nan,nan
1,325,1,1,1.0,1.0,0.253235343844,0,0.0,0.0,0.0,0.272057430339,0.0841312055859,0.187926224753,0.356188635925,0.0841312055859,0.264380802711,112,1.0,-0.300501516081,-0.325324861792,nan,nan,nan,nan,nan,nan,nan,nan,626.57316269,973.991909253,nan,974.245144597,nan,nan,nan,nan
1,326,1,1,1.0,1.0,0.1674233597,0,0.0,0.0,0.0,0.271998976654,0.0840069937849,0.187991982869,0.356005970439,0.0840069937849,0.223903878437,252,0.524721685615,0.240693665738,0.655694012224,nan,nan,nan,nan,nan,nan,nan,nan,626.57316269,974.933701716,nan,975.101125075,nan,nan,nan,nan
1,327,1,1,1.0,1.0,0.22561550152,0,0.0,0.0,0.0,0.271675213134,0.0840778158184,0.187597397316,0.355753028952,0.0840778158184,0.215424735021,345,-0.173519535469,0.465595146217,0.186119282857,nan,nan,nan,nan,nan,nan,nan,nan,626.57316269,975.875493323,nan,976.101108825,nan,nan,nan,nan
1,328,1,1,1.0,1.0,0.259776307736,0,0.0,0.0,0.0,0.27153305353,0.083986835804,0.187546217726,0.355519889334,0.083986835804,0.217605056319,231,0.749609680972,0.145151270079,0.620821461523,nan,nan,nan,nan,nan,nan,nan,nan,626.57316269,976.817284076,nan,977.077060384,nan,nan,nan,nan
1,329,1,1,1.0,1.0,0.221964273485,0,0.0,0.0,0.0,0.271496878928,0.0838600537234,0.187636825205,0.355356932651,0.0838600537234,0.235785360914,104,1.0,-0.282351481576,-0.412644567278,nan,nan,nan,nan,nan,nan,nan,nan,626.57316269,977.75907939,nan,977.981043663,nan,nan,nan,nan
1,330,1,1,1.0,1.0,0.200174364843,0,0.0,0.0,0.0,0.27134493842,0.0837761267992,0.187568811621,0.35512106522,0.0837761267992,0.227304982021,13,0.950262168777,0.154664060346,-1.0,nan,nan,nan,nan,nan,nan,nan,nan,626.57316269,978.700870427,nan,978.901044792,nan,nan,nan,nan
1,331,1,1,1.0,1.0,0.210336051532,0,0.0,0.0,0.0,0.271127291406,0.0837401874645,0.187387103942,0.354867478871,0.0837401874645,0.21082489662,445,0.296953900578,0.415520102116,-1.0,nan,nan,nan,nan,nan,nan,nan,nan,626.57316269,979.642669733,nan,979.853005784,nan,nan,nan,nan
1,332,1,1,1.0,1.0,0.300542224548,0,0.0,0.0,0.0,0.27094195226,0.0836795812385,0.187262371022,0.354621533499,0.0836795812385,0.237017546974,321,-0.0999433513493,0.43654647086,0.391174984052,nan,nan,nan,nan,nan,nan,nan,nan,626.57316269,980.584451362,nan,980.884993587,nan,nan,nan,nan
1,333,1,1,1.0,1.0,0.278701853938,0,0.0,0.0,0.0,0.271031922693,0.083568198906,0.187463723787,0.354600121599,0.083568198906,0.263193376673,417,0.0945046041228,0.457053563907,-0.645720198395,nan,nan,nan,nan,nan,nan,nan,nan,626.57316269,981.526253518,nan,981.804955372,nan,nan,nan,nan
1,334,1,1,1.0,1.0,0.248893612646,0,0.0,0.0,0.0,0.271055164909,0.0834425493212,0.187612615588,0.35449771423,0.0834425493212,0.276045897044,241,0.64365311028,0.192605941253,0.644254782112,nan,nan,nan,nan,nan,nan,nan,nan,626.57316269,982.468041705,nan,982.716935318,nan,nan,nan,nan
1,335,1,1,1.0,1.0,0.299087663414,0,0.0,0.0,0.0,0.270988211579,0.0833252850011,0.187662926578,0.35431349658,0.0833252850011,0.275561043333,336,-0.158211608236,0.456758111158,0.268135266647,nan,nan,nan,nan,nan,nan,nan,nan,626.57316269,983.409836449,nan,983.708924112,nan,nan,nan,nan
1,336,1,1,1.0,1.0,0.293255733908,0,0.0,0.0,0.0,0.271072848482,0.0832139486293,0.187858899853,0.354286797111,0.0832139486293,0.280412336656,1,0.854939129564,0.207877072944,-1.0,nan,nan,nan,nan,nan,nan,nan,nan,626.57316269,984.351633473,nan,984.644889207,nan,nan,nan,nan
1,337,1,1,1.0,1.0,0.439457952161,0,0.0,0.0,0.0,0.271139463753,0.0830977740352,0.188041689718,0.354237237789,0.0830977740352,0.343933783161,104,1.0,-0.282351481576,-0.412644567278,nan,nan,nan,nan,nan,nan,nan,nan,626.57316269,985.293420234,nan,985.732878187,nan,nan,nan,nan
1,338,1,1,1.0,1.0,0.289633585722,0,0.0,0.0,0.0,0.271643411324,0.0834813476669,0.188162063657,0.35512475899,0.0834813476669,0.340782423931,216,0.900975005756,0.0682271079607,0.563426584804,nan,nan,nan,nan,nan,nan,nan,nan,626.57316269,986.235212697,nan,986.524846283,nan,nan,nan,nan
1,339,1,1,1.0,1.0,0.267812316539,0,0.0,0.0,0.0,0.271697113337,0.083362433048,0.188334680289,0.355059546385,0.083362433048,0.332301284807,427,0.163265173604,0.444863218481,-0.840208708629,nan,nan,nan,nan,nan,nan,nan,nan,626.57316269,987.177013143,nan,987.44482546,nan,nan,nan,nan
1,340,1,1,1.0,1.0,0.222022433067,0,0.0,0.0,0.0,0.271685551441,0.0832385583687,0.188446993073,0.35492410981,0.0832385583687,0.259822778443,69,1.0,-0.134207199312,-0.939648005704,nan,nan,nan,nan,nan,nan,nan,nan,626.57316269,988.118799334,nan,988.340821767,nan,nan,nan,nan
1,341,1,1,1.0,1.0,0.232203791384,0,0.0,0.0,0.0,0.271538183138,0.0831588530258,0.188379330112,0.354697036163,0.0831588530258,0.240679513663,318,-0.0835627602325,0.431640264478,0.413481556053,nan,nan,nan,nan,nan,nan,nan,nan,626.57316269,989.060592938,nan,989.292796729,nan,nan,nan,nan
1,342,1,1,1.0,1.0,0.250371551723,0,0.0,0.0,0.0,0.271421809198,0.0830632231723,0.188358586025,0.35448503237,0.0830632231723,0.234865925391,185,1.0,-0.102214474652,0.370299946716,nan,nan,nan,nan,nan,nan,nan,nan,626.57316269,990.002388822,nan,990.252760373,nan,nan,nan,nan
1,343,0,0,1.0,0.0,0.292549550533,0,0.0,0.0,0.0,0.271359714043,0.0829484767938,0.188411237249,0.354308190837,0.0829484767938,0.258374964547,19,0.99625917486,0.126374530333,-1.0,nan,nan,nan,nan,nan,nan,nan,nan,626.57316269,990.944181285,nan,991.236730835,nan,nan,nan,nan
1,344,1,1,1.0,1.0,0.230744953733,0,0.0,0.0,0.0,0.271422037091,0.0828343522724,0.188587684819,0.354256389364,0.0828343522724,0.25788868533,290,0.131265381085,0.370776544741,0.578206616232,nan,nan,nan,nan,nan,nan,nan,nan,626.57316269,991.88596719,nan,992.116712144,nan,nan,nan,nan
1,345,1,1,1.0,1.0,0.224970898824,0,0.0,0.0,0.0,0.271302749457,0.0827420459699,0.188560703487,0.354044795427,0.0827420459699,0.24942180103,24,1.0,0.102019060141,-1.0,nan,nan,nan,nan,nan,nan,nan,nan,626.57316269,992.827742833,nan,993.052713732,nan,nan,nan,nan
1,346,0,0,1.0,0.0,0.139144089655,0,0.0,0.0,0.0,0.271167276209,0.0826588548245,0.188508421385,0.353826131034,0.0826588548245,0.198286647404,371,-0.14179360683,0.478331938097,-0.0779732583494,nan,nan,nan,nan,nan,nan,nan,nan,626.57316269,993.76957806,nan,993.90872215,nan,nan,nan,nan
1,347,1,1,1.0,1.0,0.213312741718,0,0.0,0.0,0.0,0.27078236896,0.0828446439055,0.187937725054,0.353627012865,0.0828446439055,0.192475910066,72,1.0,-0.149607777062,-0.853203742106,nan,nan,nan,nan,nan,nan,nan,nan,626.57316269,994.711352562,nan,994.924665304,nan,nan,nan,nan
1,348,0,0,1.0,0.0,0.159533605329,0,0.0,0.0,0.0,0.27061530609,0.0827819840912,0.187833321999,0.353397290181,0.0827819840912,0.170663478901,21,1.0,0.116713997928,-1.0,nan,nan,nan,nan,nan,nan,nan,nan,626.57316269,995.653132481,nan,995.812666086,nan,nan,nan,nan
1,349,1,1,1.0,1.0,0.297712073778,0,0.0,0.0,0.0,0.270293330146,0.0828773521763,0.187415977969,0.353170682322,0.0828773521763,0.223519473608,110,1.0,-0.296722754836,-0.346921960777,nan,nan,nan,nan,nan,nan,nan,nan,626.57316269,996.594898145,nan,996.892610219,nan,nan,nan,nan
1,350,1,1,1.0,1.0,0.219873377355,0,0.0,0.0,0.0,0.27037257507,0.0827705890685,0.187601986001,0.353143164138,0.0827705890685,0.225706352154,310,-0.032854544558,0.417080732083,0.468828018046,nan,nan,nan,nan,nan,nan,nan,nan,626.57316269,997.5367271,nan,997.756600478,nan,nan,nan,nan
1,351,1,1,1.0,1.0,0.0300163617358,0,1.0,0.0,0.0,0.27022704424,0.082695556078,0.187531488162,0.352922600318,0.082695556078,0.182533937623,8,0.91102658764,0.177400941622,-1.0,nan,nan,nan,nan,nan,nan,nan,nan,626.57316269,998.478522129,nan,998.508538491,nan,nan,nan,nan
1,352,1,1,1.0,1.0,0.0162638874026,1,0.0,0.0,1.0,0.269536783658,0.083571738529,0.185965045129,0.353108522188,0.083571738529,0.0887178754977,197,1.0,-0.035797595552,0.455774741445,-46.5377723847,136.537772385,-1.9778526153,194.0,1.0,-0.0524864644427,0.435571704399,1.40882492717,626.57316269,999.420306324,1000.2287413,999.436570212,1002.67068671,1003.67598437,1001.24549812,1002.66235506
1,353,1,1,1.0,1.0,0.383538597962,0,0.0,0.0,0.0,0.268811073354,0.0845428852117,0.184268188142,0.353353958566,0.0845428852117,0.143272949033,360,-0.167709501072,0.475188317955,0.0381258551808,nan,nan,nan,nan,nan,nan,nan,nan,626.57316269,1003.82090537,nan,1004.20444397,nan,nan,nan,nan
1,354,0,0,0.0,1.0,0.593712144648,0,0.0,0.0,0.0,0.269138866281,0.0846438269214,0.18449503936,0.353782693203,0.0846438269214,0.331171543337,209,0.967301840512,0.0304835193525,0.52804999659,nan,nan,nan,nan,nan,nan,nan,nan,626.57316269,1004.76269384,nan,1005.35640599,nan,nan,nan,nan
1,355,1,1,1.0,1.0,0.579904361512,0,0.0,0.0,0.0,0.270063576476,0.0862754117051,0.183788164771,0.356338988181,0.0862754117051,0.519051701374,336,-0.158211608236,0.456758111158,0.268135266647,nan,nan,nan,nan,nan,nan,nan,nan,626.57316269,1005.70448887,nan,1006.28439323,nan,nan,nan,nan
1,356,1,1,1.0,1.0,0.270093657076,0,0.0,0.0,0.0,0.270943805979,0.0877169123135,0.183226893666,0.358660718293,0.0877169123135,0.481236721079,432,0.199227897075,0.437687328843,-1.0,nan,nan,nan,nan,nan,nan,nan,nan,626.57316269,1006.64628675,nan,1006.91638041,nan,nan,nan,nan
1,357,1,1,1.0,1.0,0.336288166232,0,0.0,1.0,0.0,0.270941397625,0.0875925909325,0.183348806693,0.358533988558,0.0875925909325,0.395428728273,358,-0.170583909915,0.474268316859,0.0585874414746,nan,nan,nan,nan,nan,nan,nan,nan,626.57316269,1007.58807351,nan,1007.92436168,nan,nan,nan,nan
1,358,1,1,1.0,1.0,0.298477842356,1,0.0,0.0,1.0,0.271125993017,0.0875375176808,0.183588475336,0.358663510698,0.0875375176808,0.301619888555,43,1.0,0.00424534395127,-1.0,56.309932474,33.690067526,3.45569252598,48.0,1.0,-0.0224273256894,-1.0,1.40890674992,626.57316269,1008.5298654,1009.33828498,1008.82834325,1011.78026033,1012.78617323,1010.35505121,1011.77194236
1,359,1,1,1.0,1.0,0.313780670287,0,0.0,0.0,0.0,0.27120304048,0.0874261577332,0.183776882747,0.358629198213,0.0874261577332,0.316182226292,150,1.0,-0.266152531622,0.0638227105866,nan,nan,nan,nan,nan,nan,nan,nan,626.57316269,1012.93045903,nan,1013.2442397,nan,nan,nan,nan
1,360,1,1,1.0,1.0,0.299971746863,0,0.0,0.0,0.0,0.271322640564,0.0873323594278,0.183990281136,0.358654999991,0.0873323594278,0.304076753169,198,1.0,-0.0302354974571,0.462326941081,nan,nan,nan,nan,nan,nan,nan,nan,626.57316269,1013.87224779,nan,1014.17221953,nan,nan,nan,nan
1,361,1,1,1.0,1.0,0.294161199708,0,0.0,0.0,0.0,0.271402890161,0.0872231028001,0.184179787361,0.358625992961,0.0872231028001,0.302637872286,41,1.0,0.0148395037771,-1.0,nan,nan,nan,nan,nan,nan,nan,nan,626.57316269,1014.81404481,nan,1015.10820601,nan,nan,nan,nan
1,362,1,1,1.0,1.0,0.272342211334,0,0.0,0.0,0.0,0.271466460858,0.0871094791046,0.184356981753,0.358575939963,0.0871094791046,0.288825052635,323,-0.11001989341,0.43965344528,0.375855360355,nan,nan,nan,nan,nan,nan,nan,nan,626.57316269,1015.75583129,nan,1016.0281735,nan,nan,nan,nan
1,363,1,1,1.0,1.0,0.322525143391,0,0.0,0.0,0.0,0.271468900274,0.0869880843513,0.184480815923,0.358456984626,0.0869880843513,0.296342851478,91,1.0,-0.237709898716,-0.562722318432,nan,nan,nan,nan,nan,nan,nan,nan,626.57316269,1016.69762546,nan,1017.0201506,nan,nan,nan,nan
1,364,1,1,1.0,1.0,0.316700626398,0,0.0,0.0,0.0,0.271610723172,0.0869087360887,0.184701987083,0.358519459261,0.0869087360887,0.303855993707,409,0.0429436170054,0.464793150178,-0.529461854507,nan,nan,nan,nan,nan,nan,nan,nan,626.57316269,1017.63941992,nan,1017.95612055,nan,nan,nan,nan
1,365,1,1,1.0,1.0,0.270896488102,0,0.0,0.0,0.0,0.271735625951,0.0868206304324,0.184914995519,0.358556256383,0.0868206304324,0.303374085963,77,1.0,-0.174593022316,-0.756267193339,nan,nan,nan,nan,nan,nan,nan,nan,626.57316269,1018.5812121,nan,1018.85210859,nan,nan,nan,nan
1,366,1,1,1.0,1.0,0.257084143581,0,0.0,0.0,0.0,0.271733307891,0.0867006406904,0.1850326672,0.358433948581,0.0867006406904,0.28156041936,394,-0.0437090198531,0.474655926729,-0.339401417396,nan,nan,nan,nan,nan,nan,nan,nan,626.57316269,1019.5230057,nan,1019.78008985,nan,nan,nan,nan
1,367,0,0,0.0,1.0,0.683260885649,0,0.0,0.0,0.0,0.271692952066,0.0865845405061,0.18510841156,0.358277492572,0.0865845405061,0.403747172444,128,1.0,-0.310663006781,-0.156689791083,nan,nan,nan,nan,nan,nan,nan,nan,626.57316269,1020.46479588,nan,1021.14805677,nan,nan,nan,nan
1,368,1,1,1.0,1.0,0.357446871581,0,0.0,0.0,0.0,0.272823633202,0.0891087003727,0.18371493283,0.361932333575,0.0891087003727,0.432597300271,179,1.0,-0.13461441766,0.323204131591,nan,nan,nan,nan,nan,nan,nan,nan,626.57316269,1021.40659034,nan,1021.76403721,nan,nan,nan,nan
1,369,1,1,1.0,1.0,0.239654782577,0,0.0,0.0,0.0,0.273055477691,0.0890964182749,0.183959059416,0.362151895966,0.0890964182749,0.426787513269,67,1.0,-0.12380466598,-1.0,nan,nan,nan,nan,nan,nan,nan,nan,626.57316269,1022.34837026,nan,1022.58802504,nan,nan,nan,nan
1,370,1,1,1.0,1.0,0.089850087883,0,0.0,0.0,0.0,0.272964218961,0.0889916992332,0.183972519728,0.361955918194,0.0889916992332,0.228983914014,284,0.188465149253,0.353984098999,0.602236276499,nan,nan,nan,nan,nan,nan,nan,nan,626.57316269,1023.2901747,nan,1023.38002479,nan,nan,nan,nan
1,371,1,1,1.0,1.0,0.212022396037,0,1.0,0.0,0.0,0.272465270375,0.089381536343,0.183083734032,0.361846806718,0.089381536343,0.180509088833,117,1.0,-0.307587969795,-0.271886539361,nan,nan,nan,nan,nan,nan,nan,nan,626.57316269,1024.23196859,nan,1024.44399098,nan,nan,nan,nan
1,372,1,1,1.0,1.0,0.166201437125,1,0.0,0.0,1.0,0.272301023434,0.0893154534201,0.182985570014,0.361616476854,0.0893154534201,0.156024640348,382,-0.1011887567,0.478291136399,-0.199732273247,-176.883011401,266.883011401,-1.71073859912,380.0,-0.109519508899,0.478533032186,-0.177177385375,1.82553248142,626.57316269,1025.17376191,1025.98218291,1025.33996334,1028.84085527,1029.85219583,1026.99894514,1028.83252361
1,373,1,1,1.0,1.0,0.30875584844,0,0.0,0.0,0.0,0.27201349068,0.0893647362585,0.182848518511,0.361377070188,0.0893647362585,0.228993227201,82,1.0,-0.198479155091,-0.679872484948,nan,nan,nan,nan,nan,nan,nan,nan,626.57316269,1029.99107506,nan,1030.29983091,nan,nan,nan,nan
1,374,1,1,nan,nan,nan,0,0.0,0.0,0.0,0.272112794349,0.0892642758382,0.182848518511,0.361377070188,0.0892642758382,0.237478642783,494,0.698129958021,0.282143999684,-1.0,nan,nan,nan,nan,nan,nan,nan,nan,626.57316269,1030.93289062,nan,nan,nan,nan,nan,nan
1,375,0,0,0.0,1.0,0.577139497851,0,0.0,0.0,0.0,0.272112794349,0.0892642758382,0.182848518511,0.361377070188,0.0892642758382,0.442947673146,67,1.0,-0.12380466598,-1.0,nan,nan,nan,nan,nan,nan,nan,nan,626.57316269,1031.87464944,nan,1032.45178894,nan,nan,nan,nan
