block,trial,time,setsize,freqtrials,colorind,colordeg,colorrgb,correctresp,actualresp,acc,rts,probe_trials,fast_rt_trigger,slow_rt_trigger,rt_trailingavg,rt_runningavg,rt_runningstd,rt_runningslowthresh,rt_runningfastthresh,wm_mousepos,wm_respdeg,wm_colorind,wm_colorrgb,wm_colorhsv,wm_degdiff,wm_rts,timeBlockStart,timeEncArrayOnset,timeResponse,timeProbeOnset,timeProbeOffset
0,0,15:36:49:650000,6,1,84,59.0625,[ 1.         -0.20765784 -0.65219109],1,1,1,0.361696802,0,nan,nan,nan,nan,nan,nan,nan,nan,nan,nan,[ nan  nan  nan],nan,nan,nan,626.5731627,627.5954455,627.9571423,nan,nan
0,1,15:36:50:586000,6,1,503,353.671875,[ 0.7730202   0.24853846 -1.        ],1,1,1,0.283831306,0,nan,nan,nan,nan,nan,nan,nan,nan,nan,nan,[ nan  nan  nan],nan,nan,nan,626.5731627,628.5373039,628.8211352,nan,nan
0,2,15:36:51:538000,6,1,334,234.84375,[-0.15279655  0.45446705  0.2855764 ],1,1,1,0.262065061,0,nan,nan,nan,nan,nan,nan,nan,nan,nan,nan,[ nan  nan  nan],nan,nan,nan,626.5731627,629.4790684,629.7411334,nan,nan
0,3,15:36:52:474000,6,1,508,357.1875,[ 0.81419982  0.22863893 -1.        ],1,1,1,0.24824901,0,nan,nan,nan,nan,nan,nan,nan,nan,nan,nan,[ nan  nan  nan],nan,nan,nan,626.5731627,630.4208546,630.6691036,nan,nan
0,4,15:36:53:410000,6,1,455,319.921875,[ 0.37560825  0.39487537 -1.        ],1,1,1,0.234442938,0,nan,nan,nan,nan,nan,nan,nan,nan,nan,nan,[ nan  nan  nan],nan,nan,nan,626.5731627,631.3626459,631.5970888,nan,nan
0,5,15:36:54:440000,6,1,217,152.578125,[ 0.89125041  0.07353733  0.56804835],1,1,1,0.081579445,0,nan,nan,nan,nan,nan,nan,nan,nan,nan,nan,[ nan  nan  nan],nan,nan,nan,626.5731627,632.3794546,632.461034,nan,nan
0,6,15:36:55:376000,6,1,493,346.640625,[ 0.68976908  0.28570078 -1.        ],1,1,1,0.227800764,0,nan,nan,nan,nan,nan,nan,nan,nan,nan,nan,[ nan  nan  nan],nan,nan,nan,626.5731627,633.3212294,633.5490301,nan,nan
0,7,15:36:56:312000,6,1,116,81.5625,[ 1.         -0.30644692 -0.28251544],1,1,1,0.26197383,0,nan,nan,nan,nan,nan,nan,nan,nan,nan,nan,[ nan  nan  nan],nan,nan,nan,626.5731627,634.2630378,634.5250116,nan,nan
0,8,15:36:57:263000,6,1,231,162.421875,[ 0.74960968  0.14515127  0.62082146],1,1,1,0.224154953,0,nan,nan,nan,nan,nan,nan,nan,nan,nan,nan,[ nan  nan  nan],nan,nan,nan,626.5731627,635.2048343,635.4289892,nan,nan
0,9,15:36:58:199000,6,1,286,201.09375,[ 0.16907896  0.35973478  0.59469871],1,1,1,0.218324164,0,nan,nan,nan,nan,nan,nan,nan,nan,nan,nan,[ nan  nan  nan],nan,nan,nan,626.5731627,636.1466361,636.3649603,nan,nan
0,10,15:36:59:151000,6,1,104,73.125,[ 1.         -0.28235148 -0.41264457],1,1,1,0.284474769,0,nan,nan,nan,nan,nan,nan,nan,nan,nan,nan,[ nan  nan  nan],nan,nan,nan,626.5731627,637.0884677,637.3729424,nan,nan
0,11,15:37:00:087000,6,0,455,319.921875,[ 0.37560825  0.39487537 -1.        ],0,1,0,0.182725902,0,0,0,nan,nan,nan,nan,nan,nan,nan,nan,[ nan  nan  nan],nan,nan,nan,626.5731627,638.0302105,638.2129364,nan,nan
0,12,15:37:01:023000,6,1,65,45.703125,[ 1.         -0.11331216 -1.        ],1,1,1,0.224933266,0,nan,nan,nan,nan,nan,nan,nan,nan,nan,nan,[ nan  nan  nan],nan,nan,nan,626.5731627,638.9719611,639.1968943,nan,nan
0,13,15:37:01:974000,6,1,148,104.0625,[ 1.         -0.27269559  0.04442646],1,1,1,0.259048742,0,nan,nan,nan,nan,nan,nan,nan,nan,nan,nan,[ nan  nan  nan],nan,nan,nan,626.5731627,639.9138171,640.1728658,nan,nan
0,14,15:37:02:910000,6,1,326,229.21875,[-0.12383419  0.44407177  0.35222354],1,1,1,0.261272493,0,nan,nan,nan,nan,nan,nan,nan,nan,nan,nan,[ nan  nan  nan],nan,nan,nan,626.5731627,640.8555788,641.1168513,nan,nan
0,15,15:37:03:846000,6,1,61,42.890625,[ 1.        -0.0921164 -1.       ],1,1,1,0.399436422,0,nan,nan,nan,nan,nan,nan,nan,nan,nan,nan,[ nan  nan  nan],nan,nan,nan,626.5731627,641.7973901,642.1968265,nan,nan
0,16,15:37:04:798000,6,1,444,312.1875,[ 0.2892412   0.41740978 -1.        ],1,1,1,0.305611522,0,nan,nan,nan,nan,nan,nan,nan,nan,nan,nan,[ nan  nan  nan],nan,nan,nan,626.5731627,642.7391976,643.0448092,nan,nan
0,17,15:37:05:734000,6,1,329,231.328125,[-0.13605328  0.44820379  0.32783374],1,1,1,0.42781405,0,nan,nan,nan,nan,nan,nan,nan,nan,nan,nan,[ nan  nan  nan],nan,nan,nan,626.5731627,643.6809707,644.1087848,nan,nan
0,18,15:37:06:670000,6,1,404,284.0625,[ 0.01248946  0.46874627 -0.4633491 ],1,1,1,0.301993365,0,nan,nan,nan,nan,nan,nan,nan,nan,nan,nan,[ nan  nan  nan],nan,nan,nan,626.5731627,644.6227743,644.9247677,nan,nan
0,19,15:37:11:724000,6,1,212,149.0625,[ 0.93926289  0.04677313  0.543851  ],1,1,1,0.312186982,1,nan,nan,nan,nan,nan,nan,nan,nan,-28.42120922,168,[ 1.         -0.19079002  0.2303618 ],nan,-30.64129078,2.050572088,626.5731627,645.5645662,645.8767532,647.3980731,649.4566769
0,20,15:37:12:676000,6,1,84,59.0625,[ 1.         -0.20765784 -0.65219109],1,1,1,0.493391041,0,nan,nan,nan,nan,nan,nan,nan,nan,nan,nan,[ nan  nan  nan],nan,nan,nan,626.5731627,650.6152349,651.108626,nan,nan
0,21,15:37:13:612000,6,1,384,270,[-0.09247501  0.47794532 -0.22247927],1,1,1,0.279571968,0,nan,nan,nan,nan,nan,nan,nan,nan,nan,nan,[ nan  nan  nan],nan,nan,nan,626.5731627,651.5570265,651.8365985,nan,nan
0,22,15:37:14:548000,6,1,192,135,[ 1.         -0.06359976  0.42165841],1,1,1,0.257756116,0,nan,nan,nan,nan,nan,nan,nan,nan,nan,nan,[ nan  nan  nan],nan,nan,nan,626.5731627,652.4988295,652.7565857,nan,nan
0,23,15:37:15:500000,6,0,393,276.328125,[-0.04894566  0.47510217 -0.32744323],0,0,1,0.371934609,0,nan,nan,nan,nan,nan,nan,nan,nan,nan,nan,[ nan  nan  nan],nan,nan,nan,626.5731627,653.4406123,653.8125469,nan,nan
0,24,15:37:16:436000,6,1,92,64.6875,[ 1.         -0.24170366 -0.55060884],1,1,1,0.246145855,0,nan,nan,nan,nan,nan,nan,nan,nan,nan,nan,[ nan  nan  nan],nan,nan,nan,626.5731627,654.3824068,654.6285526,nan,nan
0,25,15:37:17:372000,6,1,402,282.65625,[ 0.00072492  0.47013996 -0.43781156],1,1,1,0.272319974,0,nan,nan,nan,nan,nan,nan,nan,nan,nan,nan,[ nan  nan  nan],nan,nan,nan,626.5731627,655.3242058,655.5965258,nan,nan
0,26,15:37:18:323000,6,1,447,314.296875,[ 0.31246764  0.41164647 -1.        ],1,1,1,0.346504876,0,nan,nan,nan,nan,nan,nan,nan,nan,nan,nan,[ nan  nan  nan],nan,nan,nan,626.5731627,656.2659965,656.6125014,nan,nan
0,27,15:37:19:259000,6,1,244,171.5625,[ 0.61137236  0.20616355  0.64888072],1,1,1,0.356707047,0,nan,nan,nan,nan,nan,nan,nan,nan,nan,nan,[ nan  nan  nan],nan,nan,nan,626.5731627,657.2077719,657.5644789,nan,nan
0,28,15:37:20:211000,6,1,356,250.3125,[-0.17284378  0.47323941  0.07883681],1,1,1,0.270871685,0,nan,nan,nan,nan,nan,nan,nan,nan,nan,nan,[ nan  nan  nan],nan,nan,nan,626.5731627,658.1495792,658.4204509,nan,nan
0,29,15:37:21:147000,6,1,87,61.171875,[ 1.         -0.22095901 -0.61267562],1,1,1,0.320775222,0,nan,nan,nan,nan,nan,nan,nan,nan,nan,nan,[ nan  nan  nan],nan,nan,nan,626.5731627,659.0996591,659.4204343,nan,nan
0,30,15:37:22:098000,6,1,171,120.234375,[ 1.         -0.17601187  0.25645091],1,1,1,0.298888381,0,nan,nan,nan,nan,nan,nan,nan,nan,nan,nan,[ nan  nan  nan],nan,nan,nan,626.5731627,660.041518,660.3404064,nan,nan
0,31,15:37:23:034000,6,1,383,269.296875,[-0.09687871  0.47813121 -0.21108141],1,1,1,0.245092139,0,nan,nan,nan,nan,nan,nan,nan,nan,nan,nan,[ nan  nan  nan],nan,nan,nan,626.5731627,660.9832908,661.2283829,nan,nan
0,32,15:37:23:986000,6,1,236,165.9375,[ 0.69700456  0.16930175  0.63406585],1,1,1,0.271284504,0,nan,nan,nan,nan,nan,nan,nan,nan,nan,nan,[ nan  nan  nan],nan,nan,nan,626.5731627,661.9250844,662.1963689,nan,nan
0,33,15:37:24:922000,6,1,183,128.671875,[ 1.         -0.113109    0.35490284],1,1,1,0.24145431,0,nan,nan,nan,nan,nan,nan,nan,nan,nan,nan,[ nan  nan  nan],nan,nan,nan,626.5731627,662.8668789,663.1083332,nan,nan
0,34,15:37:25:858000,6,1,357,251.015625,[-0.17179183  0.47376752  0.06873903],1,1,1,0.299648163,0,nan,nan,nan,nan,nan,nan,nan,nan,nan,nan,[ nan  nan  nan],nan,nan,nan,626.5731627,663.8086707,664.1083189,nan,nan
0,35,15:37:26:810000,6,1,22,15.46875,[ 1.          0.11184242 -1.        ],1,1,1,0.253864551,0,nan,nan,nan,nan,nan,nan,nan,nan,nan,nan,[ nan  nan  nan],nan,nan,nan,626.5731627,664.7504333,665.0042978,nan,nan
0,36,15:37:27:746000,6,0,149,104.765625,[ 1.         -0.26947852  0.05414366],0,1,0,0.192017475,0,0,0,nan,nan,nan,nan,nan,nan,nan,nan,[ nan  nan  nan],nan,nan,nan,626.5731627,665.6922571,665.8842746,nan,nan
0,37,15:37:28:682000,6,1,21,14.765625,[ 1.        0.116714 -1.      ],1,1,1,0.250199068,0,nan,nan,nan,nan,nan,nan,nan,nan,nan,nan,[ nan  nan  nan],nan,nan,nan,626.5731627,666.634063,666.884262,nan,nan
0,38,15:37:29:633000,6,1,297,208.828125,[ 0.06862621  0.38864628  0.54490466],1,1,1,0.308370398,0,nan,nan,nan,nan,nan,nan,nan,nan,nan,nan,[ nan  nan  nan],nan,nan,nan,626.5731627,667.5758594,667.8842298,nan,nan
0,39,15:37:30:569000,6,0,247,173.671875,[ 0.57894763  0.21939267  0.65238059],0,1,0,0.294566036,0,0,0,nan,nan,nan,nan,nan,nan,nan,nan,[ nan  nan  nan],nan,nan,nan,626.5731627,668.5176371,668.8122031,nan,nan
0,40,15:37:31:521000,6,1,55,38.671875,[ 1.         -0.05999965 -1.        ],1,1,1,0.304764215,0,nan,nan,nan,nan,nan,nan,nan,nan,nan,nan,[ nan  nan  nan],nan,nan,nan,626.5731627,669.4594287,669.7641929,nan,nan
0,41,15:37:32:457000,6,1,340,239.0625,[-0.16683717  0.46098011  0.2323764 ],1,1,1,0.258946963,0,nan,nan,nan,nan,nan,nan,nan,nan,nan,nan,[ nan  nan  nan],nan,nan,nan,626.5731627,670.4012243,670.6601712,nan,nan
0,42,15:37:33:393000,6,0,376,264.375,[-0.12496282  0.47870467 -0.13262763],0,0,1,0.365119953,0,nan,nan,nan,nan,nan,nan,nan,nan,nan,nan,[ nan  nan  nan],nan,nan,nan,626.5731627,671.343015,671.708135,nan,nan
0,43,15:37:34:345000,6,1,42,29.53125,[ 1.          0.00954879 -1.        ],1,1,1,0.25531056,0,nan,nan,nan,nan,nan,nan,nan,nan,nan,nan,[ nan  nan  nan],nan,nan,nan,626.5731627,672.2848123,672.5401229,nan,nan
0,44,15:37:35:281000,6,1,193,135.703125,[ 1.         -0.05804539  0.42865879],1,1,1,0.297506519,0,nan,nan,nan,nan,nan,nan,nan,nan,nan,nan,[ nan  nan  nan],nan,nan,nan,626.5731627,673.2266022,673.5241087,nan,nan
0,45,15:37:36:217000,6,1,468,329.0625,[ 0.48123648  0.36313162 -1.        ],1,1,1,0.323687196,0,nan,nan,nan,nan,nan,nan,nan,nan,nan,nan,[ nan  nan  nan],nan,nan,nan,626.5731627,674.1683955,674.4920827,nan,nan
0,46,15:37:37:168000,6,1,373,262.265625,[-0.13540771  0.47855957 -0.09969749],1,1,1,0.293913451,0,nan,nan,nan,nan,nan,nan,nan,nan,nan,nan,[ nan  nan  nan],nan,nan,nan,626.5731627,675.1101566,675.4040701,nan,nan
0,47,15:37:38:104000,6,1,446,313.59375,[ 0.30469626  0.41359904 -1.        ],1,1,1,0.288055293,0,nan,nan,nan,nan,nan,nan,nan,nan,nan,nan,[ nan  nan  nan],nan,nan,nan,626.5731627,676.0519793,676.3400346,nan,nan
0,48,15:37:39:056000,6,1,292,205.3125,[ 0.11288167  0.37606958  0.56926185],1,1,1,0.306240159,0,nan,nan,nan,nan,nan,nan,nan,nan,nan,nan,[ nan  nan  nan],nan,nan,nan,626.5731627,676.9937761,677.3000162,nan,nan
0,49,15:37:39:992000,6,1,356,250.3125,[-0.17284378  0.47323941  0.07883681],1,1,1,0.196433332,0,nan,nan,nan,nan,nan,nan,nan,nan,nan,nan,[ nan  nan  nan],nan,nan,nan,626.5731627,677.9355657,678.131999,nan,nan
0,50,15:37:40:928000,6,0,437,307.265625,[ 0.23613483  0.42977024 -1.        ],0,0,1,0.398608502,0,nan,nan,nan,nan,nan,nan,nan,nan,nan,nan,[ nan  nan  nan],nan,nan,nan,626.5731627,678.8773581,679.2759666,nan,nan
0,51,15:37:41:879000,6,1,377,265.078125,[-0.12125986  0.47870083 -0.1436959 ],1,1,1,0.20081184,0,nan,nan,nan,nan,nan,nan,nan,nan,nan,nan,[ nan  nan  nan],nan,nan,nan,626.5731627,679.8191517,680.0199636,nan,nan
0,52,15:37:42:815000,6,1,188,132.1875,[ 1.         -0.08573935  0.39280429],1,1,1,0.202979997,0,nan,nan,nan,nan,nan,nan,nan,nan,nan,nan,[ nan  nan  nan],nan,nan,nan,626.5731627,680.7609468,680.9639268,nan,nan
0,53,15:37:43:751000,6,0,364,255.9375,[-0.16019432  0.47670452 -0.00341125],0,0,1,0.413149553,0,nan,nan,nan,nan,nan,nan,nan,nan,nan,nan,[ nan  nan  nan],nan,nan,nan,626.5731627,681.7027401,682.1158896,nan,nan
0,54,15:37:44:703000,6,1,197,138.515625,[ 1.         -0.0357976   0.45577474],1,1,1,0.215237997,0,nan,nan,nan,nan,nan,nan,nan,nan,nan,nan,[ nan  nan  nan],nan,nan,nan,626.5731627,682.6446489,682.8598869,nan,nan
0,55,15:37:45:639000,6,1,110,77.34375,[ 1.         -0.29672275 -0.34692196],1,1,1,0.273539331,0,nan,nan,nan,nan,nan,nan,nan,nan,nan,nan,[ nan  nan  nan],nan,nan,nan,626.5731627,683.5863264,683.8598658,nan,nan
0,56,15:37:46:591000,6,1,164,115.3125,[ 1.         -0.20968584  0.19476155],1,1,1,0.259714157,0,nan,nan,nan,nan,nan,nan,nan,nan,nan,nan,[ nan  nan  nan],nan,nan,nan,626.5731627,684.5281257,684.7878399,nan,nan
0,57,15:37:47:527000,6,1,332,233.4375,[-0.14664709  0.45205424  0.30271419],1,1,1,0.189905767,0,nan,nan,nan,nan,nan,nan,nan,nan,nan,nan,[ nan  nan  nan],nan,nan,nan,626.5731627,685.4699148,685.6598206,nan,nan
0,58,15:37:48:463000,6,1,83,58.359375,[ 1.         -0.20309788 -0.66587671],1,0,0,0.368084669,0,0,0,nan,nan,nan,nan,nan,nan,nan,nan,[ nan  nan  nan],nan,nan,nan,626.5731627,686.4117081,686.7797928,nan,nan
0,59,15:37:49:414000,6,1,148,104.0625,[ 1.         -0.27269559  0.04442646],1,1,1,0.234292407,0,nan,nan,nan,nan,nan,nan,nan,nan,nan,nan,[ nan  nan  nan],nan,nan,nan,626.5731627,687.3534909,687.5877833,nan,nan
0,60,15:37:50:350000,6,1,327,229.921875,[-0.12808616  0.44548068  0.34417644],1,1,1,0.156455136,0,nan,nan,nan,nan,nan,nan,nan,nan,nan,nan,[ nan  nan  nan],nan,nan,nan,626.5731627,688.2952993,688.4517544,nan,nan
0,61,15:37:55:046000,6,1,458,322.03125,[ 0.39968805  0.38805021 -1.        ],1,1,1,0.030298322,1,nan,nan,nan,nan,nan,nan,nan,nan,150.8096885,426,[ 0.15619305  0.44621085 -0.8148597 ],nan,-22.84093848,1.683848754,626.5731627,689.2454254,689.2757237,691.0789366,692.7708313
0,62,15:37:55:982000,6,0,199,139.921875,[ 1.         -0.02467618  0.4687863 ],0,0,1,0.482245487,0,nan,nan,nan,nan,nan,nan,nan,nan,nan,nan,[ nan  nan  nan],nan,nan,nan,626.5731627,693.9293714,694.4116169,nan,nan
0,63,15:37:56:933000,6,1,0,0,[ 0.84683171  0.21209757 -1.        ],1,1,1,0.276402838,0,nan,nan,nan,nan,nan,nan,nan,nan,nan,nan,[ nan  nan  nan],nan,nan,nan,626.5731627,694.8711858,695.1475886,nan,nan
0,64,15:37:57:869000,6,1,425,298.828125,[ 0.14916262  0.4475296  -0.79171567],1,1,1,0.286616982,0,nan,nan,nan,nan,nan,nan,nan,nan,nan,nan,[ nan  nan  nan],nan,nan,nan,626.5731627,695.81295,696.099567,nan,nan
0,65,15:37:58:805000,6,1,156,109.6875,[ 1.         -0.24406061  0.12104147],1,1,1,0.336831275,0,nan,nan,nan,nan,nan,nan,nan,nan,nan,nan,[ nan  nan  nan],nan,nan,nan,626.5731627,696.7547616,697.0915929,nan,nan
0,66,15:37:59:757000,6,1,262,184.21875,[ 0.41645248  0.28041442  0.65281554],1,1,1,0.258991153,0,nan,nan,nan,nan,nan,nan,nan,nan,nan,nan,[ nan  nan  nan],nan,nan,nan,626.5731627,697.6965569,697.9555481,nan,nan
0,67,15:38:00:693000,6,1,466,327.65625,[ 0.46478901  0.3683856  -1.        ],1,1,1,0.22916609,0,nan,nan,nan,nan,nan,nan,nan,nan,nan,nan,[ nan  nan  nan],nan,nan,nan,626.5731627,698.6383525,698.8675186,nan,nan
0,68,15:38:01:629000,6,1,366,257.34375,[-0.15559338  0.47730203 -0.02447665],1,1,1,0.263368521,0,nan,nan,nan,nan,nan,nan,nan,nan,nan,nan,[ nan  nan  nan],nan,nan,nan,626.5731627,699.5801376,699.8435061,nan,nan
0,69,15:38:02:581000,6,1,64,45,[ 1.         -0.10803687 -1.        ],1,1,1,0.2495519,0,nan,nan,nan,nan,nan,nan,nan,nan,nan,nan,[ nan  nan  nan],nan,nan,nan,626.5731627,700.5219249,700.7714768,nan,nan
0,70,15:38:03:517000,6,1,365,256.640625,[-0.15796203  0.47701659 -0.01391969],1,1,1,0.171734871,0,nan,nan,nan,nan,nan,nan,nan,nan,nan,nan,[ nan  nan  nan],nan,nan,nan,626.5731627,701.4637262,701.6354611,nan,nan
0,71,15:38:04:468000,6,1,285,200.390625,[ 0.17873435  0.35687868  0.59852701],1,1,1,0.053956466,0,nan,nan,nan,nan,nan,nan,nan,nan,nan,nan,[ nan  nan  nan],nan,nan,nan,626.5731627,702.4055138,702.4594703,nan,nan
0,72,15:38:09:195000,6,1,511,359.296875,[ 0.83870319  0.21628417 -1.        ],1,nan,nan,nan,1,nan,nan,nan,nan,nan,nan,nan,nan,98.0490617,501,[ 0.75644923  0.25625354 -1.        ],nan,-7.345936702,1.733886572,626.5731627,703.3473117,nan,705.1808351,706.9227569
0,73,15:38:10:131000,6,0,227,159.609375,[ 0.79101995  0.12525779  0.60806671],0,0,1,0.417991058,0,nan,nan,nan,nan,nan,nan,nan,nan,nan,nan,[ nan  nan  nan],nan,nan,nan,626.5731627,708.0813003,708.4992914,nan,nan
0,74,15:38:11:083000,6,1,92,64.6875,[ 1.         -0.24170366 -0.55060884],1,1,1,0.260201956,0,nan,nan,nan,nan,nan,nan,nan,nan,nan,nan,[ nan  nan  nan],nan,nan,nan,626.5731627,709.02308,709.2832819,nan,nan
0,75,15:38:17:260000,6,1,385,270.703125,[-0.08797966  0.47773344 -0.23392672],1,1,1,0.294375877,1,nan,nan,nan,nan,nan,nan,nan,nan,-164.2488263,362,[-0.16423973  0.47600016  0.01745785],nan,-16.45429866,3.192384109,626.5731627,709.9648753,710.2592512,711.7900565,714.9904781
0,76,15:38:18:212000,6,1,284,199.6875,[ 0.18846515  0.3539841   0.60223628],1,1,1,0.670067485,0,nan,nan,nan,nan,nan,nan,nan,nan,nan,nan,[ nan  nan  nan],nan,nan,nan,626.5731627,716.149027,716.8190944,nan,nan
0,77,15:38:19:148000,6,1,231,162.421875,[ 0.74960968  0.14515127  0.62082146],1,1,1,0.41593865,0,nan,nan,nan,nan,nan,nan,nan,nan,nan,nan,[ nan  nan  nan],nan,nan,nan,626.5731627,717.0991571,717.5150957,nan,nan
0,78,15:38:20:099000,6,1,381,267.890625,[-0.10540306  0.47842508 -0.18843114],1,1,1,0.306096755,0,nan,nan,nan,nan,nan,nan,nan,nan,nan,nan,[ nan  nan  nan],nan,nan,nan,626.5731627,718.0409586,718.3470554,nan,nan
0,79,15:38:21:035000,6,1,113,79.453125,[ 1.         -0.30219199 -0.31457635],1,1,1,0.34029719,0,nan,nan,nan,nan,nan,nan,nan,nan,nan,nan,[ nan  nan  nan],nan,nan,nan,626.5731627,718.9827505,719.3230477,nan,nan
0,80,15:38:21:987000,6,1,215,151.171875,[ 0.91063986  0.06289474  0.55869515],1,1,1,0.278480619,0,0,0,0.308291522,0.283314798,0.091462391,0.374777189,0.191852407,nan,nan,nan,[ nan  nan  nan],nan,nan,nan,626.5731627,719.9245393,720.2030199,nan,nan
0,81,15:38:22:923000,6,1,304,213.75,[ 0.01130928  0.40470892  0.50616037],1,1,1,0.304664717,0,0,0,0.307814175,0.283254371,0.09089054,0.374144911,0.192363831,nan,nan,nan,[ nan  nan  nan],nan,nan,nan,626.5731627,720.8663366,721.1710013,nan,nan
0,82,15:38:23:859000,6,1,112,78.75,[ 1.         -0.30050152 -0.32532486],1,1,1,0.338854603,0,0,0,0.307333313,0.283518696,0.09035868,0.373877376,0.193160017,nan,nan,nan,[ nan  nan  nan],nan,nan,nan,626.5731627,721.8081276,722.1469822,nan,nan
0,83,15:38:24:811000,6,1,425,298.828125,[ 0.14916262  0.4475296  -0.79171567],1,1,1,0.28504268,0,0,0,0.309520667,0.284193525,0.090011157,0.374204682,0.194182367,nan,nan,nan,[ nan  nan  nan],nan,nan,nan,626.5731627,722.7499212,723.0349639,nan,nan
0,84,15:38:25:747000,6,1,306,215.15625,[-0.00395437  0.40897401  0.49412883],1,1,1,0.303209871,0,0,0,0.309035718,0.284203755,0.089467326,0.373671081,0.194736429,nan,nan,nan,[ nan  nan  nan],nan,nan,nan,626.5731627,723.6917131,723.994923,nan,nan
0,85,15:38:26:683000,6,1,225,158.203125,[ 0.81146625  0.11513113  0.60098195],1,1,1,0.297409017,0,0,0,0.295220522,0.284430019,0.088957075,0.373387093,0.195472944,nan,nan,nan,[ nan  nan  nan],nan,nan,nan,626.5731627,724.6335119,724.9309209,nan,nan
0,86,15:38:27:634000,6,1,42,29.53125,[ 1.          0.00954879 -1.        ],1,1,1,0.299596275,0,0,0,0.300071721,0.284582713,0.088443322,0.373026035,0.19613939,nan,nan,nan,[ nan  nan  nan],nan,nan,nan,626.5731627,725.5752986,725.8748949,nan,nan
0,87,15:38:28:570000,6,1,280,196.875,[ 0.22808935  0.34201885  0.61587222],1,1,1,0.285770816,0,0,0,0.294258703,0.284757289,0.087942343,0.372699632,0.196814946,nan,nan,nan,[ nan  nan  nan],nan,nan,nan,626.5731627,726.5170974,726.8028682,nan,nan
0,88,15:38:29:522000,6,1,162,113.90625,[ 1.         -0.21873956  0.17663297],1,1,1,0.29598325,0,0,0,0.293783447,0.284768939,0.087435533,0.372204472,0.197333405,nan,nan,nan,[ nan  nan  nan],nan,nan,nan,626.5731627,727.458859,727.7548423,nan,nan
0,89,15:38:30:458000,6,1,394,277.03125,[-0.04370902  0.47465593 -0.33940142],1,1,1,0.234162688,0,0,0,0.271972251,0.284896374,0.086945447,0.371841821,0.197950928,nan,nan,nan,[ nan  nan  nan],nan,nan,nan,626.5731627,728.4006786,728.6348413,nan,nan
0,90,15:38:31:394000,6,1,466,327.65625,[ 0.46478901  0.3683856  -1.        ],1,1,1,0.26037501,0,0,0,0.263506983,0.284326333,0.086620827,0.37094716,0.197705505,nan,nan,nan,[ nan  nan  nan],nan,nan,nan,626.5731627,729.3424371,729.6028121,nan,nan
0,91,15:38:32:345000,6,1,320,225,[-0.09465004  0.43494402  0.39870124],1,1,1,0.24651705,0,0,0,0.247018249,0.284060207,0.086174836,0.370235043,0.197885371,nan,nan,nan,[ nan  nan  nan],nan,nan,nan,626.5731627,730.2842609,730.530778,nan,nan
0,92,15:38:33:281000,6,1,193,135.703125,[ 1.         -0.05804539  0.42865879],1,1,1,0.184698199,0,0,0,0.230530086,0.283647645,0.085789368,0.369437012,0.197858277,nan,nan,nan,[ nan  nan  nan],nan,nan,nan,626.5731627,731.2260617,731.4107599,nan,nan
0,93,15:38:34:217000,6,1,417,293.203125,[ 0.0945046   0.45705356 -0.6457202 ],1,1,1,0.234881416,0,0,0,0.222032221,0.282572107,0.085936515,0.368508622,0.196635592,nan,nan,nan,[ nan  nan  nan],nan,nan,nan,626.5731627,732.1678658,732.4027472,nan,nan
0,94,15:38:35:169000,6,1,98,68.90625,[ 1.         -0.26382291 -0.48021779],1,1,1,0.213068984,0,0,0,0.210882866,0.282059304,0.085614649,0.367673953,0.196444655,nan,nan,nan,[ nan  nan  nan],nan,nan,nan,626.5731627,733.1096472,733.3227162,nan,nan
0,95,15:38:36:105000,6,1,214,150.46875,[ 0.92024366  0.05754104  0.55385485],1,1,1,0.34325763,0,0,0,0.26373601,0.281325365,0.085451664,0.366777028,0.195873701,nan,nan,nan,[ nan  nan  nan],nan,nan,nan,626.5731627,734.0514376,734.3946953,nan,nan
0,96,15:38:37:057000,6,1,55,38.671875,[ 1.         -0.05999965 -1.        ],1,1,1,0.225466396,0,0,0,0.26059767,0.281977283,0.085235401,0.367212684,0.196741882,nan,nan,nan,[ nan  nan  nan],nan,nan,nan,626.5731627,734.9932264,735.2186928,nan,nan
0,97,15:38:37:993000,6,1,509,357.890625,[ 0.82238638  0.224555   -1.        ],1,1,1,0.243635867,0,0,0,0.270786631,0.281388628,0.084984202,0.366372831,0.196404426,nan,nan,nan,[ nan  nan  nan],nan,nan,nan,626.5731627,735.9350268,736.1786627,nan,nan
0,98,15:38:38:929000,6,0,16,11.25,[ 0.97341943  0.14065211 -1.        ],0,1,0,0.245810296,0,0,0,0.238304187,0.280999424,0.084630963,0.365630387,0.196368462,nan,nan,nan,[ nan  nan  nan],nan,nan,nan,626.5731627,736.8768099,737.1226202,nan,nan
0,99,15:38:39:880000,6,1,506,355.78125,[ 0.79777474  0.23670313 -1.        ],1,1,1,0.199999601,0,0,0,0.229815255,0.280640352,0.084272301,0.364912652,0.196368051,nan,nan,nan,[ nan  nan  nan],nan,nan,nan,626.5731627,737.8186075,738.0186071,nan,nan
0,100,15:38:40:816000,6,1,404,284.0625,[ 0.01248946  0.46874627 -0.4633491 ],1,1,1,0.1781866,0,0,0,0.207998832,0.279825799,0.084232463,0.364058261,0.195593336,nan,nan,nan,[ nan  nan  nan],nan,nan,nan,626.5731627,738.7604008,738.9385874,nan,nan
0,101,15:38:41:752000,6,1,106,74.53125,[ 1.         -0.28763007 -0.39056445],1,1,1,0.228379225,0,0,0,0.202188475,0.278809407,0.084418179,0.363227585,0.194391228,nan,nan,nan,[ nan  nan  nan],nan,nan,nan,626.5731627,739.7021958,739.9305751,nan,nan
0,102,15:38:42:704000,6,1,413,290.390625,[ 0.06831062  0.46114313 -0.5854956 ],1,1,1,0.166566075,0,1,0,0.191043967,0.278310098,0.084147496,0.362457594,0.194162602,nan,nan,nan,[ nan  nan  nan],nan,nan,nan,626.5731627,740.643996,740.8105621,nan,nan
0,103,15:38:47:259000,6,1,311,218.671875,[-0.03972498  0.41902022  0.46225021],1,1,1,0.016709208,1,0,0,0.137218169,0.277214568,0.084454723,0.361669291,0.192759845,nan,-133.4088597,318,[-0.08356276  0.43164026  0.41348156],nan,4.736984729,1.575491927,626.5731627,741.5857833,741.6024925,743.41097,744.9946433
0,104,15:38:48:195000,6,1,67,47.109375,[ 1.         -0.12380467 -1.        ],1,1,1,0.48167843,0,0,0,0.221651238,0.27468539,0.087839737,0.362525127,0.186845653,nan,nan,nan,[ nan  nan  nan],nan,nan,nan,626.5731627,746.1447271,746.6264056,nan,nan
0,105,15:38:49:147000,6,1,222,156.09375,[ 0.84177847  0.09972916  0.58948469],1,1,1,0.307897424,0,0,0,0.268761687,0.276675708,0.089719838,0.366395546,0.186955869,nan,nan,nan,[ nan  nan  nan],nan,nan,nan,626.5731627,747.0865005,747.3943979,nan,nan
0,106,15:38:50:083000,6,1,353,248.203125,[-0.17504126  0.47149007  0.10879922],1,1,1,0.302055801,0,0,0,0.363877218,0.276973057,0.089343055,0.366316112,0.187630003,nan,nan,nan,[ nan  nan  nan],nan,nan,nan,626.5731627,748.028316,748.3303718,nan,nan
0,107,15:38:51:034000,6,1,68,47.8125,[ 1.         -0.12901814 -0.9729032 ],1,1,1,0.20029382,0,0,0,0.270082348,0.277209687,0.08895368,0.366163367,0.188256007,nan,nan,nan,[ nan  nan  nan],nan,nan,nan,626.5731627,748.9701131,749.1704069,nan,nan
0,108,15:38:51:970000,6,1,505,355.078125,[ 0.78953796  0.24068314 -1.        ],1,1,1,0.186399938,0,0,0,0.229583186,0.276490847,0.088845819,0.365336666,0.187645028,nan,nan,nan,[ nan  nan  nan],nan,nan,nan,626.5731627,749.9119432,750.0983431,nan,nan
0,109,15:38:52:906000,6,1,88,61.875,[ 1.         -0.22525759 -0.59993285],1,1,1,0.300608367,0,0,0,0.229100708,0.275656672,0.088853512,0.364510184,0.18680316,nan,nan,nan,[ nan  nan  nan],nan,nan,nan,626.5731627,750.8536903,751.1542987,nan,nan
0,110,15:38:53:858000,6,1,221,155.390625,[ 0.85178146  0.09454116  0.58542294],1,1,1,0.294820913,0,0,0,0.260609739,0.275885587,0.088476976,0.364362563,0.18740861,nan,nan,nan,[ nan  nan  nan],nan,nan,nan,626.5731627,751.7954813,752.0903023,nan,nan
0,111,15:38:54:794000,6,1,316,222.1875,[-0.07182156  0.42820351  0.42789226],1,1,1,0.304988301,0,0,0,0.300139194,0.276057726,0.088092224,0.36414995,0.187965502,nan,nan,nan,[ nan  nan  nan],nan,nan,nan,626.5731627,752.7372778,753.0422661,nan,nan
0,112,15:38:55:730000,6,1,89,62.578125,[ 1.         -0.2294841  -0.58737049],1,1,1,0.291173391,0,0,0,0.296994201,0.276318362,0.087737109,0.364055471,0.188581253,nan,nan,nan,[ nan  nan  nan],nan,nan,nan,626.5731627,753.6790688,753.9702422,nan,nan
0,113,15:38:56:681000,6,1,362,254.53125,[-0.16423973  0.47600016  0.01745785],1,1,1,0.229359671,0,0,0,0.275173788,0.276450996,0.087355725,0.363806721,0.189095271,nan,nan,nan,[ nan  nan  nan],nan,nan,nan,626.5731627,754.620861,754.8502207,nan,nan
0,114,15:38:57:617000,6,1,179,125.859375,[ 1.         -0.13461442  0.32320413],1,1,1,0.239527345,0,0,0,0.253353469,0.276034259,0.087080093,0.363114351,0.188954166,nan,nan,nan,[ nan  nan  nan],nan,nan,nan,626.5731627,755.5626569,755.8021842,nan,nan
0,115,15:38:58:553000,6,1,242,170.15625,[ 0.63291185  0.19716118  0.6459214 ],1,1,1,0.257723615,0,0,0,0.242203543,0.275714023,0.086764127,0.36247815,0.188949895,nan,nan,nan,[ nan  nan  nan],nan,nan,nan,626.5731627,756.5044451,756.7621687,nan,nan
0,116,15:38:59:505000,6,1,364,255.9375,[-0.16019432  0.47670452 -0.00341125],1,1,1,0.211899805,0,0,0,0.236383588,0.275557584,0.086402215,0.361959799,0.189155369,nan,nan,nan,[ nan  nan  nan],nan,nan,nan,626.5731627,757.4462575,757.6581573,nan,nan
0,117,15:39:00:441000,6,1,71,49.921875,[ 1.         -0.14450407 -0.87798077],1,1,1,0.190101058,0,0,0,0.219908159,0.27500881,0.086230035,0.361238845,0.188778775,nan,nan,nan,[ nan  nan  nan],nan,nan,nan,626.5731627,758.3880403,758.5781413,nan,nan
0,118,15:39:01:393000,6,1,195,137.109375,[ 1.         -0.04692453  0.44239605],1,1,1,0.200281276,0,0,0,0.200760713,0.274283103,0.086215765,0.360498868,0.188067338,nan,nan,nan,[ nan  nan  nan],nan,nan,nan,626.5731627,759.3298293,759.5301106,nan,nan
0,119,15:39:02:329000,6,1,37,26.015625,[ 1.          0.03585655 -1.        ],1,1,1,0.330463649,0,0,0,0.240281994,0.273655969,0.086117252,0.35977322,0.187538717,nan,nan,nan,[ nan  nan  nan],nan,nan,nan,626.5731627,760.2716235,760.6020871,nan,nan
0,120,15:39:03:265000,6,1,180,126.5625,[ 1.         -0.12927862  0.33123896],1,1,1,0.252645195,0,0,0,0.26113004,0.274133344,0.085911297,0.360044641,0.188222048,nan,nan,nan,[ nan  nan  nan],nan,nan,nan,626.5731627,761.2134188,761.466064,nan,nan
0,121,15:39:04:216000,6,1,323,227.109375,[-0.11001989  0.43965345  0.37585536],1,1,1,0.174853539,0,0,0,0.252654128,0.273954276,0.085574882,0.359529158,0.188379395,nan,nan,nan,[ nan  nan  nan],nan,nan,nan,626.5731627,762.1552061,762.3300597,nan,nan
0,122,15:39:05:152000,6,1,122,85.78125,[ 1.         -0.31115954 -0.21914422],1,1,1,0.193047528,0,0,0,0.206848754,0.273135262,0.085691501,0.358826763,0.187443761,nan,nan,nan,[ nan  nan  nan],nan,nan,nan,626.5731627,763.0969912,763.2900387,nan,nan
0,123,15:39:06:088000,6,1,263,184.921875,[ 0.4056988   0.28417174  0.65182989],1,1,1,0.075219232,0,1,0,0.147706766,0.272478805,0.085644543,0.358123348,0.186834262,nan,nan,nan,[ nan  nan  nan],nan,nan,nan,626.5731627,764.0387999,764.1140191,nan,nan
0,124,15:39:10:831000,6,1,356,250.3125,[-0.17284378  0.47323941  0.07883681],1,1,1,0.005365797,1,0,0,0.091210852,0.270875069,0.087115636,0.357990705,0.183759432,nan,-171.4270016,372,[-0.13866002  0.47845887 -0.08881238],nan,11.11450164,1.742193137,626.5731627,764.9805861,764.9859519,766.8141075,768.5643401
0,125,15:39:11:767000,6,1,176,123.75,[ 1.         -0.15042967  0.29867547],1,1,1,0.495306888,0,0,0,0.191963972,0.268733865,0.089954745,0.35868861,0.17877912,nan,nan,nan,[ nan  nan  nan],nan,nan,nan,626.5731627,769.7145579,770.2098648,nan,nan
0,126,15:39:12:718000,6,0,145,101.953125,[ 1.         -0.28166741  0.01505517],0,0,1,0.425472839,0,0,0,0.308715175,0.270546449,0.091839635,0.362386084,0.178706814,nan,nan,nan,[ nan  nan  nan],nan,nan,nan,626.5731627,770.6563675,771.0818403,nan,nan
0,127,15:39:13:654000,6,1,44,30.9375,[ 1.         -0.00106984 -1.        ],1,1,1,0.275676697,0,0,0,0.398818808,0.271776024,0.092501673,0.364277697,0.17927435,nan,nan,nan,[ nan  nan  nan],nan,nan,nan,626.5731627,771.5981417,771.8738184,nan,nan
0,128,15:39:14:590000,6,1,85,59.765625,[ 1.         -0.21215645 -0.63878123],1,1,1,0.237865518,0,0,0,0.313005018,0.271806738,0.092137419,0.363944156,0.179669319,nan,nan,nan,[ nan  nan  nan],nan,nan,nan,626.5731627,772.5399361,772.7778017,nan,nan
0,129,15:39:15:542000,6,1,218,153.28125,[ 0.88146739  0.07882461  0.57255963],1,1,1,0.256044968,0,0,0,0.256529061,0.271541572,0.091825438,0.363367009,0.179716134,nan,nan,nan,[ nan  nan  nan],nan,nan,nan,626.5731627,773.4817323,773.7377773,nan,nan
0,130,15:39:16:478000,6,1,437,307.265625,[ 0.23613483  0.42977024 -1.        ],1,1,1,0.234247932,0,0,0,0.242719473,0.271421443,0.091478929,0.362900372,0.179942514,nan,nan,nan,[ nan  nan  nan],nan,nan,nan,626.5731627,774.4235191,774.657767,nan,nan
0,131,15:39:17:429000,6,1,1,0.703125,[ 0.85493913  0.20787707 -1.        ],1,1,1,0.268419572,0,0,0,0.252904157,0.271135493,0.091184265,0.362319758,0.179951228,nan,nan,nan,[ nan  nan  nan],nan,nan,nan,626.5731627,775.3653124,775.633732,nan,nan
0,132,15:39:18:365000,6,1,497,349.453125,[ 0.72317494  0.2712606  -1.        ],1,1,1,0.254651132,0,0,0,0.252439545,0.271114761,0.090835875,0.361950635,0.180278886,nan,nan,nan,[ nan  nan  nan],nan,nan,nan,626.5731627,776.3070701,776.5617212,nan,nan
0,133,15:39:19:302000,6,1,96,67.5,[ 1.         -0.25681952 -0.50330248],1,1,1,0.312840993,0,0,0,0.278637232,0.270990036,0.090502404,0.361492441,0.180487632,nan,nan,nan,[ nan  nan  nan],nan,nan,nan,626.5731627,777.2489013,777.5617423,nan,nan
0,134,15:39:20:253000,6,1,335,235.546875,[-0.15559599  0.45562772  0.27689323],1,1,1,0.250965122,0,0,0,0.272819082,0.271304705,0.090233981,0.361538686,0.181070724,nan,nan,nan,[ nan  nan  nan],nan,nan,nan,626.5731627,778.1907191,778.4416843,nan,nan
0,135,15:39:21:189000,6,1,420,295.3125,[ 0.11466019  0.4536941  -0.6950475 ],1,1,1,0.221172846,0,0,0,0.261659654,0.271152917,0.089913698,0.361066615,0.181239219,nan,nan,nan,[ nan  nan  nan],nan,nan,nan,626.5731627,779.1324857,779.3536585,nan,nan
0,136,15:39:22:125000,6,1,287,201.796875,[ 0.15950165  0.36255249  0.59075192],1,1,1,0.19135092,0,0,0,0.221162963,0.270782695,0.089682522,0.360465217,0.181100172,nan,nan,nan,[ nan  nan  nan],nan,nan,nan,626.5731627,780.0742821,780.265633,nan,nan
0,137,15:39:23:077000,6,1,210,147.65625,[ 0.9580225   0.0359305   0.53342186],1,1,1,0.217549273,0,0,0,0.210024346,0.270198637,0.089609525,0.359808162,0.180589112,nan,nan,nan,[ nan  nan  nan],nan,nan,nan,626.5731627,781.0160726,781.2336219,nan,nan
0,138,15:39:24:013000,6,1,33,23.203125,[ 1.          0.05659903 -1.        ],1,1,1,0.147744304,0,0,0,0.185548166,0.269814335,0.089394297,0.359208633,0.180420038,nan,nan,nan,[ nan  nan  nan],nan,nan,nan,626.5731627,781.9578602,782.1056045,nan,nan
0,139,15:39:24:964000,6,1,175,123.046875,[ 1.         -0.15562995  0.29036176],1,1,1,0.061892977,0,1,0,0.142395518,0.26892977,0.089669552,0.358599322,0.179260218,nan,nan,nan,[ nan  nan  nan],nan,nan,nan,626.5731627,782.8996572,782.9615502,nan,nan
0,140,15:39:25:900000,6,1,75,52.734375,[ 1.         -0.16471446 -0.79135592],1,nan,nan,nan,0,0,0,0.10481864,0.267440297,0.091043614,0.35848391,0.176396683,nan,nan,nan,[ nan  nan  nan],nan,nan,nan,626.5731627,783.8414423,nan,nan,nan
0,141,15:39:26:836000,6,1,449,315.703125,[ 0.32809501  0.40764625 -1.        ],1,1,1,0.282275536,0,0,0,0.172084256,0.267440297,0.091043614,0.35848391,0.176396683,nan,nan,nan,[ nan  nan  nan],nan,nan,nan,626.5731627,784.7832419,785.0655174,nan,nan
0,142,15:39:27:788000,6,0,224,157.5,[ 0.82161942  0.11002479  0.59726488],0,1,0,0.28444854,0,0,0,0.283362038,0.267546263,0.090726477,0.35827274,0.176819785,nan,nan,nan,[ nan  nan  nan],nan,nan,nan,626.5731627,785.7250509,786.0094994,nan,nan
0,143,15:39:28:724000,6,1,318,223.59375,[-0.08356276  0.43164026  0.41348156],1,1,1,0.214648703,0,0,0,0.260457593,0.267666137,0.090415306,0.358081443,0.177250831,nan,nan,nan,[ nan  nan  nan],nan,nan,nan,626.5731627,786.6668271,786.8814758,nan,nan
0,144,15:39:29:660000,6,1,24,16.875,[ 1.          0.10201906 -1.        ],1,1,1,0.240844204,0,0,0,0.246647149,0.267292775,0.090205393,0.357498168,0.177087382,nan,nan,nan,[ nan  nan  nan],nan,nan,nan,626.5731627,787.608623,787.8494672,nan,nan
0,145,15:39:30:612000,6,0,470,330.46875,[ 0.49774161  0.35774078 -1.        ],0,1,0,0.147024436,0,0,0,0.200839114,0.26710782,0.089916452,0.357024271,0.177191368,nan,nan,nan,[ nan  nan  nan],nan,nan,nan,626.5731627,788.5504171,788.6974416,nan,nan
0,146,15:39:31:548000,6,1,64,45,[ 1.         -0.10803687 -1.        ],1,1,1,0.213197278,0,0,0,0.200355306,0.266273907,0.090156898,0.356430806,0.176117009,nan,nan,nan,[ nan  nan  nan],nan,nan,nan,626.5731627,789.4922079,789.7054052,nan,nan
0,147,15:39:32:484000,6,1,281,197.578125,[ 0.2180834   0.34506839  0.61264442],1,1,1,0.239389643,0,0,0,0.199870452,0.265907862,0.089952786,0.355860648,0.175955075,nan,nan,nan,[ nan  nan  nan],nan,nan,nan,626.5731627,790.4340018,790.6733914,nan,nan
0,148,15:39:33:435000,6,1,351,246.796875,[-0.17568629  0.47018527  0.12848998],1,1,1,0.249572427,0,0,0,0.234053116,0.26572623,0.089670876,0.355397106,0.176055354,nan,nan,nan,[ nan  nan  nan],nan,nan,nan,626.5731627,791.37579,791.6253624,nan,nan
0,149,15:39:34:371000,6,1,490,344.53125,[ 0.66466039  0.29615785 -1.        ],1,1,1,0.355749123,0,0,0,0.281570398,0.26561634,0.089375217,0.354991557,0.176241123,nan,nan,nan,[ nan  nan  nan],nan,nan,nan,626.5731627,792.3175876,792.6733367,nan,nan
0,150,15:39:35:323000,6,0,285,200.390625,[ 0.17873435  0.35687868  0.59852701],0,0,1,0.397898897,0,0,0,0.334406816,0.266225345,0.089378282,0.355603628,0.176847063,nan,nan,nan,[ nan  nan  nan],nan,nan,nan,626.5731627,793.2594045,793.6573034,nan,nan
0,151,15:39:36:259000,6,1,398,279.84375,[-0.02203778  0.4726088  -0.38794338],1,1,1,0.176178952,0,0,0,0.309942324,0.267109061,0.089724268,0.356833329,0.177384792,nan,nan,nan,[ nan  nan  nan],nan,nan,nan,626.5731627,794.2011351,794.3773141,nan,nan
0,152,15:39:37:195000,6,1,334,234.84375,[-0.15279655  0.45446705  0.2855764 ],1,1,1,0.274309376,0,0,0,0.282795742,0.26650286,0.089730313,0.356233173,0.176772547,nan,nan,nan,[ nan  nan  nan],nan,nan,nan,626.5731627,795.1429652,795.4172746,nan,nan
0,153,15:39:38:146000,6,1,498,350.15625,[ 0.73150794  0.26756188 -1.        ],1,1,1,0.35652544,0,0,0,0.269004589,0.266554559,0.089434941,0.3559895,0.177119618,nan,nan,nan,[ nan  nan  nan],nan,nan,nan,626.5731627,796.0847278,796.4412532,nan,nan
0,154,15:39:39:082000,6,1,248,174.375,[ 0.5681159   0.2237282   0.65329577],1,1,1,0.286680273,0,0,0,0.305838363,0.267146472,0.089436519,0.356582991,0.177709954,nan,nan,nan,[ nan  nan  nan],nan,nan,nan,626.5731627,797.026551,797.3132313,nan,nan
0,155,15:39:40:018000,6,1,457,321.328125,[ 0.39163925  0.39035818 -1.        ],1,1,1,0.272859376,0,0,0,0.30535503,0.267274144,0.089157659,0.356431803,0.178116485,nan,nan,nan,[ nan  nan  nan],nan,nan,nan,626.5731627,797.9683483,798.2412077,nan,nan
0,156,15:39:40:970000,6,1,307,215.859375,[-0.01138687  0.41105336  0.48795701],1,1,1,0.275061745,0,0,0,0.278200465,0.267310412,0.088868847,0.356179259,0.178441565,nan,nan,nan,[ nan  nan  nan],nan,nan,nan,626.5731627,798.9101334,799.1851951,nan,nan
0,157,15:39:41:906000,6,1,230,161.71875,[ 0.76002313  0.14022421  0.6178111 ],1,1,1,0.301235294,0,0,0,0.283052138,0.267360421,0.088583883,0.355944304,0.178776537,nan,nan,nan,[ nan  nan  nan],nan,nan,nan,626.5731627,799.8519324,800.1531677,nan,nan
0,158,15:39:42:858000,6,1,303,213.046875,[ 0.01913493  0.40252284  0.51201836],1,1,1,0.199425132,0,0,0,0.258574057,0.267577567,0.08834088,0.355918447,0.179236687,nan,nan,nan,[ nan  nan  nan],nan,nan,nan,626.5731627,800.7937351,800.9931603,nan,nan
0,159,15:39:43:794000,6,1,442,310.78125,[ 0.27390726  0.42109554 -1.        ],1,1,1,0.201616382,0,0,0,0.234092269,0.267143475,0.088225843,0.355369318,0.178917632,nan,nan,nan,[ nan  nan  nan],nan,nan,nan,626.5731627,801.7355122,801.9371286,nan,nan
0,160,15:39:44:730000,6,0,43,30.234375,[ 1.          0.00424534 -1.        ],0,1,0,0.235807693,0,0,0,0.212283069,0.266728747,0.088099596,0.354828342,0.178629151,nan,nan,nan,[ nan  nan  nan],nan,nan,nan,626.5731627,802.6773124,802.91312,nan,nan
0,161,15:39:45:681000,6,1,434,305.15625,[ 0.21388182  0.43461034 -1.        ],1,1,1,0.24598278,0,0,0,0.227802285,0.266534275,0.087856129,0.354390404,0.178678145,nan,nan,nan,[ nan  nan  nan],nan,nan,nan,626.5731627,803.6190971,803.8650799,nan,nan
0,162,15:39:46:617000,6,1,505,355.078125,[ 0.78953796  0.24068314 -1.        ],1,1,1,0.240172517,0,0,0,0.24065433,0.266405828,0.087596124,0.354001952,0.178809704,nan,nan,nan,[ nan  nan  nan],nan,nan,nan,626.5731627,804.5608884,804.801061,nan,nan
0,163,15:39:47:553000,6,1,48,33.75,[ 1.         -0.02242733 -1.        ],1,1,1,0.242352364,0,0,0,0.242835887,0.266242888,0.087347982,0.35359087,0.178894906,nan,nan,nan,[ nan  nan  nan],nan,nan,nan,626.5731627,805.5026926,805.745045,nan,nan
0,164,15:39:48:505000,6,1,392,275.625,[-0.05410679  0.47552228 -0.31554984],1,1,1,0.220543639,0,0,0,0.234356173,0.266095416,0.087098075,0.35319349,0.178997341,nan,nan,nan,[ nan  nan  nan],nan,nan,nan,626.5731627,806.4444825,806.6650261,nan,nan
0,165,15:39:49:441000,6,1,259,182.109375,[ 0.44882283  0.26890698  0.65501178],1,1,1,0.29472455,0,0,0,0.252540184,0.265815957,0.086903314,0.352719271,0.178912643,nan,nan,nan,[ nan  nan  nan],nan,nan,nan,626.5731627,807.3862732,807.6809978,nan,nan
0,166,15:39:50:392000,6,1,495,348.046875,[ 0.70648511  0.27855169 -1.        ],1,1,1,0.312891455,0,0,0,0.276053215,0.265992229,0.086667184,0.352659413,0.179325045,nan,nan,nan,[ nan  nan  nan],nan,nan,nan,626.5731627,808.328082,808.6409734,nan,nan
0,167,15:39:51:328000,6,1,186,130.78125,[ 1.         -0.09673867  0.37788139],1,1,1,0.315101521,0,0,0,0.307572509,0.266276467,0.086480796,0.352757263,0.17979567,nan,nan,nan,[ nan  nan  nan],nan,nan,nan,626.5731627,809.2698513,809.5849528,nan,nan
0,168,15:39:52:264000,6,1,250,175.78125,[ 0.54642845  0.23228666  0.65474773],1,1,1,0.253274972,0,0,0,0.293755983,0.266570593,0.086302657,0.35287325,0.180267937,nan,nan,nan,[ nan  nan  nan],nan,nan,nan,626.5731627,810.2116549,810.4649299,nan,nan
0,169,15:39:53:216000,6,1,390,274.21875,[-0.06419603  0.4762842  -0.29194755],1,1,1,0.311452574,0,0,0,0.293276356,0.266490979,0.086049992,0.352540971,0.180440987,nan,nan,nan,[ nan  nan  nan],nan,nan,nan,626.5731627,811.1534479,811.4649005,nan,nan
0,170,15:39:54:152000,6,1,36,25.3125,[ 1.          0.04106996 -1.        ],1,1,1,0.297654484,0,0,0,0.287460677,0.266758607,0.08586319,0.352621798,0.180895417,nan,nan,nan,[ nan  nan  nan],nan,nan,nan,626.5731627,812.0952373,812.3928918,nan,nan
0,171,15:39:55:088000,6,1,168,118.125,[ 1.         -0.19079002  0.2303618 ],1,1,1,0.315855316,0,0,0,0.308320791,0.266941423,0.085641568,0.352582991,0.181299856,nan,nan,nan,[ nan  nan  nan],nan,nan,nan,626.5731627,813.0370294,813.3528848,nan,nan
0,172,15:39:56:040000,6,1,213,149.765625,[ 0.92978509  0.05216688  0.54890652],1,1,1,0.230033353,0,0,0,0.281181051,0.267229152,0.085471196,0.352700348,0.181757957,nan,nan,nan,[ nan  nan  nan],nan,nan,nan,626.5731627,813.9788199,814.2088533,nan,nan
0,173,15:39:56:976000,6,1,78,54.84375,[ 1.         -0.17946765 -0.73990763],1,1,1,0.280200605,0,0,0,0.275363092,0.267011633,0.085268092,0.352279725,0.181743541,nan,nan,nan,[ nan  nan  nan],nan,nan,nan,626.5731627,814.9206161,815.2008167,nan,nan
0,174,15:39:57:927000,6,0,138,97.03125,[ 1.         -0.29832988 -0.05465081],0,1,0,0.202392699,0,0,0,0.237542219,0.267088313,0.085025771,0.352114084,0.182062542,nan,nan,nan,[ nan  nan  nan],nan,nan,nan,626.5731627,815.862404,816.0647967,nan,nan
0,175,15:39:58:863000,6,1,461,324.140625,[ 0.42395965  0.38092737 -1.        ],1,1,1,0.076609932,0,0,0,0.186401079,0.26671435,0.084921419,0.351635769,0.181792931,nan,nan,nan,[ nan  nan  nan],nan,nan,nan,626.5731627,816.8041982,816.8808081,nan,nan
0,176,15:39:59:799000,6,1,396,278.4375,[-0.03301537  0.47368488 -0.36352378],1,1,1,0.534741975,0,0,0,0.271248202,0.265621796,0.085887757,0.351509553,0.179734039,nan,nan,nan,[ nan  nan  nan],nan,nan,nan,626.5731627,817.7459943,818.2807363,nan,nan
0,177,15:40:00:751000,6,1,343,241.171875,[-0.17138818  0.46383642  0.20482281],1,1,1,0.304947247,0,0,0,0.305433051,0.267159625,0.088011649,0.355171274,0.179147977,nan,nan,nan,[ nan  nan  nan],nan,nan,nan,626.5731627,818.6877874,818.9927346,nan,nan
0,178,15:40:01:687000,6,1,137,96.328125,[ 1.         -0.30019022 -0.06473166],1,1,1,0.243134953,0,0,1,0.360941392,0.267374328,0.087807207,0.355181535,0.179567121,nan,nan,nan,[ nan  nan  nan],nan,nan,nan,626.5731627,819.6295821,819.8727171,nan,nan
0,179,15:40:02:623000,6,0,87,61.171875,[ 1.         -0.22095901 -0.61267562],0,1,0,0.19733224,0,0,0,0.24847148,0.267237382,0.087577659,0.354815041,0.179659723,nan,nan,nan,[ nan  nan  nan],nan,nan,nan,626.5731627,820.5713686,820.7687008,nan,nan
0,180,15:40:03:574000,6,1,51,35.859375,[ 1.         -0.03851602 -1.        ],1,1,1,0.167500336,0,0,0,0.202655843,0.266844657,0.087487466,0.354332122,0.179357191,nan,nan,nan,[ nan  nan  nan],nan,nan,nan,626.5731627,821.5131625,821.6806628,nan,nan
0,181,15:40:04:510000,6,1,485,341.015625,[ 0.62277456  0.31287562 -1.        ],1,1,1,0.23368173,0,0,0,0.199504769,0.26628966,0.087556406,0.353846067,0.178733254,nan,nan,nan,[ nan  nan  nan],nan,nan,nan,626.5731627,822.4549603,822.6886421,nan,nan
0,182,15:40:05:462000,6,1,149,104.765625,[ 1.         -0.26947852  0.05414366],1,1,1,0.147848364,0,0,0,0.183010143,0.266108505,0.087346488,0.353454993,0.178762017,nan,nan,nan,[ nan  nan  nan],nan,nan,nan,626.5731627,823.3967936,823.5446419,nan,nan
0,183,15:40:06:398000,6,0,229,161.015625,[ 0.77039703  0.13526594  0.61468147],0,1,0,0.286054487,0,0,0,0.222528194,0.265455134,0.087544837,0.352999971,0.177910298,nan,nan,nan,[ nan  nan  nan],nan,nan,nan,626.5731627,824.3385447,824.6245992,nan,nan
0,184,15:40:07:334000,6,1,156,109.6875,[ 1.         -0.24406061  0.12104147],1,1,1,0.192263228,0,0,0,0.208722026,0.265568317,0.087317276,0.352885593,0.178251042,nan,nan,nan,[ nan  nan  nan],nan,nan,nan,626.5731627,825.2803283,825.4725916,nan,nan
0,185,15:40:08:286000,6,1,391,274.921875,[-0.0591908   0.47591628 -0.30371871],1,1,1,0.170417726,0,0,0,0.216245147,0.265167743,0.087245902,0.352413646,0.177921841,nan,nan,nan,[ nan  nan  nan],nan,nan,nan,626.5731627,826.2221302,826.3925479,nan,nan
0,186,15:40:09:222000,6,1,459,322.734375,[ 0.40775816  0.38570917 -1.        ],1,1,1,0.132636482,0,1,0,0.165105812,0.264652797,0.08728691,0.351939708,0.177365887,nan,nan,nan,[ nan  nan  nan],nan,nan,nan,626.5731627,827.1639229,827.2965594,nan,nan
0,187,15:40:13:309000,6,1,200,140.625,[ 1.         -0.01912099  0.47515178],1,1,1,0.022780048,1,0,0,0.108611419,0.263939196,0.087587206,0.351526402,0.176351989,nan,-52.07637818,202,[ 1.         -0.00802826  0.48759698],nan,1.451378178,1.092116033,626.5731627,828.1057134,828.1284935,829.9309055,831.031047
0,188,15:40:14:245000,6,1,18,12.65625,[ 0.9886827   0.13116258 -1.        ],1,1,1,0.434845094,0,0,0,0.196753875,0.262642641,0.089113798,0.351756439,0.173528844,nan,nan,nan,[ nan  nan  nan],nan,nan,nan,626.5731627,832.1895611,832.6244062,nan,nan
0,189,15:40:15:196000,6,1,253,177.890625,[ 0.5138659   0.24483993  0.65597719],1,1,1,0.309004452,0,0,0,0.255543198,0.26356351,0.089758176,0.353321686,0.173805334,nan,nan,nan,[ nan  nan  nan],nan,nan,nan,626.5731627,833.1313889,833.4403934,nan,nan
0,190,15:40:16:132000,6,1,0,0,[ 0.84683171  0.21209757 -1.        ],1,1,1,0.255210776,0,0,0,0.333020108,0.263805217,0.089580138,0.353385356,0.174225079,nan,nan,nan,[ nan  nan  nan],nan,nan,nan,626.5731627,834.0731762,834.328387,nan,nan
0,191,15:40:17:068000,6,1,114,80.15625,[ 1.         -0.30374746 -0.30385937],1,1,1,0.369388985,0,0,0,0.311201404,0.263759744,0.089345015,0.353104759,0.174414729,nan,nan,nan,[ nan  nan  nan],nan,nan,nan,626.5731627,835.0149738,835.3843628,nan,nan
0,192,15:40:18:020000,6,0,476,334.6875,[ 0.54754504  0.34073938 -1.        ],0,0,1,0.443543382,0,0,0,0.356047714,0.264315687,0.089436755,0.353752443,0.174878932,nan,nan,nan,[ nan  nan  nan],nan,nan,nan,626.5731627,835.9567831,836.4003265,nan,nan
0,193,15:40:18:956000,6,1,14,9.84375,[ 0.95801505  0.15002356 -1.        ],1,1,1,0.429749283,0,0,0,0.414227217,0.265254052,0.090135201,0.355389253,0.175118851,nan,nan,nan,[ nan  nan  nan],nan,nan,nan,626.5731627,836.898561,837.3283103,nan,nan
0,194,15:40:19:892000,6,1,224,157.5,[ 0.82161942  0.11002479  0.59726488],1,1,1,0.335922103,0,0,0,0.403071589,0.266110798,0.09067655,0.356787348,0.175434248,nan,nan,nan,[ nan  nan  nan],nan,nan,nan,626.5731627,837.840362,838.1762842,nan,nan
0,195,15:40:20:844000,6,1,363,255.234375,[-0.16228773  0.47636573  0.00704813],1,1,1,0.314124211,0,0,1,0.359931866,0.266472515,0.090580106,0.35705262,0.175892409,nan,nan,nan,[ nan  nan  nan],nan,nan,nan,626.5731627,838.7821474,839.0962716,nan,nan
0,196,15:40:25:180000,6,1,310,217.96875,[-0.03285454  0.41708073  0.46882802],1,1,1,0.260305161,1,0,0,0.303450492,0.266718142,0.090410769,0.357128911,0.176307373,nan,-138.8654612,325,[-0.1194049   0.44263104  0.36018642],nan,10.89671117,1.35048254,626.5731627,839.7239401,839.9842453,841.5491188,842.9076445
0,197,15:40:26:132000,6,1,412,289.6875,[ 0.06188912  0.46209661 -0.57115894],1,1,1,0.389961532,0,0,0,0.321463635,0.266685255,0.090179812,0.356865067,0.176505443,nan,nan,nan,[ nan  nan  nan],nan,nan,nan,626.5731627,844.0661475,844.456109,nan,nan
0,198,15:40:27:068000,6,0,287,201.796875,[ 0.15950165  0.36255249  0.59075192],0,0,1,0.38415013,0,0,0,0.344805608,0.267314216,0.090377248,0.357691464,0.176936967,nan,nan,nan,[ nan  nan  nan],nan,nan,nan,626.5731627,845.0079821,845.3921323,nan,nan
0,199,15:40:28:004000,6,1,108,75.9375,[ 1.         -0.29242661 -0.36866329],1,1,1,0.258341703,0,0,0,0.344151122,0.267907291,0.090529143,0.358436434,0.177378149,nan,nan,nan,[ nan  nan  nan],nan,nan,nan,626.5731627,845.949774,846.2081157,nan,nan
0,200,15:40:28:956000,6,1,264,185.625,[ 0.39496696  0.28788971  0.65071762],1,1,1,0.252516901,0,0,0,0.298336245,0.26785898,0.09030279,0.35816177,0.17755619,nan,nan,nan,[ nan  nan  nan],nan,nan,nan,626.5731627,846.8915591,847.144076,nan,nan
0,201,15:40:29:892000,6,1,132,92.8125,[ 1.         -0.30742683 -0.11555536],1,1,1,0.270686657,0,0,0,0.260515087,0.267781884,0.090082145,0.35786403,0.177699739,nan,nan,nan,[ nan  nan  nan],nan,nan,nan,626.5731627,847.8333672,848.1040539,nan,nan
0,202,15:40:30:828000,6,0,482,338.90625,[ 0.59765563  0.32248081 -1.        ],0,1,0,0.224893923,0,0,0,0.249365827,0.267796408,0.089856891,0.357653299,0.177939517,nan,nan,nan,[ nan  nan  nan],nan,nan,nan,626.5731627,848.7751474,849.0000413,nan,nan
0,203,15:40:31:779000,6,1,314,220.78125,[-0.05944389  0.42463231  0.44192541],1,1,1,0.234970936,0,0,0,0.243517172,0.267582963,0.089683902,0.357266865,0.177899061,nan,nan,nan,[ nan  nan  nan],nan,nan,nan,626.5731627,849.7170291,849.9520001,nan,nan
0,204,15:40:32:715000,6,1,1,0.703125,[ 0.85493913  0.20787707 -1.        ],1,1,1,0.24525949,0,0,0,0.23504145,0.267421517,0.089490912,0.35691243,0.177930605,nan,nan,nan,[ nan  nan  nan],nan,nan,nan,626.5731627,850.6587378,850.9039972,nan,nan
0,205,15:40:33:667000,6,1,129,90.703125,[ 1.         -0.31007049 -0.146368  ],1,1,1,0.287462578,0,0,0,0.255897668,0.267312345,0.089283703,0.356596048,0.178028642,nan,nan,nan,[ nan  nan  nan],nan,nan,nan,626.5731627,851.6005171,851.8879797,nan,nan
0,206,15:40:34:603000,6,0,432,303.75,[ 0.1992279   0.43768733 -1.        ],0,0,1,0.361620681,0,0,0,0.29811425,0.26741112,0.08907572,0.35648684,0.178335401,nan,nan,nan,[ nan  nan  nan],nan,nan,nan,626.5731627,852.5423233,852.9039439,nan,nan
0,207,15:40:35:539000,6,1,381,267.890625,[-0.10540306  0.47842508 -0.18843114],1,1,1,0.419831924,0,0,0,0.356305061,0.267870679,0.089100296,0.356970975,0.178770384,nan,nan,nan,[ nan  nan  nan],nan,nan,nan,626.5731627,853.4840926,853.9039246,nan,nan
0,208,15:40:36:490000,6,0,181,127.265625,[ 1.         -0.12391439  0.33920113],0,1,0,0.342005202,0,0,0,0.374485936,0.268608355,0.089509097,0.358117453,0.179099258,nan,nan,nan,[ nan  nan  nan],nan,nan,nan,626.5731627,854.4259105,854.7679157,nan,nan
0,209,15:40:37:426000,6,1,295,207.421875,[ 0.08602229  0.38372732  0.55498608],1,1,1,0.304196019,0,0,0,0.355344382,0.268962929,0.089437535,0.358400464,0.179525394,nan,nan,nan,[ nan  nan  nan],nan,nan,nan,626.5731627,855.3676907,855.6718867,nan,nan
0,210,15:40:38:362000,6,1,114,80.15625,[ 1.         -0.30374746 -0.30385937],1,1,1,0.274371812,0,0,0,0.306857677,0.269132319,0.08925556,0.358387879,0.179876759,nan,nan,nan,[ nan  nan  nan],nan,nan,nan,626.5731627,856.309492,856.5838638,nan,nan
0,211,15:40:39:314000,6,1,44,30.9375,[ 1.         -0.00106984 -1.        ],1,1,1,0.276429066,0,0,0,0.284998966,0.269157389,0.089042508,0.358199897,0.18011488,nan,nan,nan,[ nan  nan  nan],nan,nan,nan,626.5731627,857.2514033,857.5278324,nan,nan
0,212,15:40:40:250000,6,1,491,345.234375,[ 0.67303348  0.29270771 -1.        ],1,1,1,0.262745585,0,0,0,0.271182154,0.269192016,0.08883166,0.358023675,0.180360356,nan,nan,nan,[ nan  nan  nan],nan,nan,nan,626.5731627,858.1930792,858.4558248,nan,nan
0,213,15:40:41:186000,6,1,282,198.28125,[ 0.20814231  0.34807905  0.6092955 ],1,1,1,0.280920188,0,0,0,0.273364947,0.269161464,0.088622014,0.357783478,0.18053945,nan,nan,nan,[ nan  nan  nan],nan,nan,nan,626.5731627,859.1348725,859.4157927,nan,nan
0,214,15:40:42:138000,6,1,507,356.484375,[ 0.80599565  0.23268835 -1.        ],1,1,1,0.259109753,0,0,0,0.267591842,0.269216929,0.088416424,0.357633353,0.180800506,nan,nan,nan,[ nan  nan  nan],nan,nan,nan,626.5731627,860.076665,860.3357747,nan,nan
0,215,15:40:43:074000,6,1,469,329.765625,[ 0.4894822   0.36045336 -1.        ],1,1,1,0.261286178,0,0,0,0.267105373,0.269169478,0.088211335,0.357380813,0.180958143,nan,nan,nan,[ nan  nan  nan],nan,nan,nan,626.5731627,861.0184571,861.2797433,nan,nan
0,216,15:40:44:025000,6,1,408,286.875,[ 0.03673793  0.46563766 -0.51593845],1,1,1,0.303500954,0,0,0,0.274632295,0.26913264,0.088006635,0.357139275,0.181126005,nan,nan,nan,[ nan  nan  nan],nan,nan,nan,626.5731627,861.9602188,862.2637198,nan,nan
0,217,15:40:44:961000,6,1,156,109.6875,[ 1.         -0.24406061  0.12104147],1,1,1,0.23366491,0,0,0,0.26615068,0.269292493,0.087832864,0.357125357,0.181459628,nan,nan,nan,[ nan  nan  nan],nan,nan,nan,626.5731627,862.9020429,863.1357078,nan,nan
0,218,15:40:45:897000,6,1,238,167.34375,[ 0.67574183  0.17872767  0.63851109],1,1,1,0.203858094,0,0,0,0.247007986,0.26912755,0.08766268,0.356790231,0.18146487,nan,nan,nan,[ nan  nan  nan],nan,nan,nan,626.5731627,863.8438385,864.0476966,nan,nan
0,219,15:40:46:849000,6,1,135,94.921875,[ 1.         -0.30350232 -0.08497887],1,1,1,0.27001383,0,0,0,0.235845611,0.268826769,0.087572103,0.356398873,0.181254666,nan,nan,nan,[ nan  nan  nan],nan,nan,nan,626.5731627,864.7856501,865.0556639,nan,nan
0,220,15:40:47:785000,6,1,261,183.515625,[ 0.42722581  0.27661781  0.65367446],1,1,1,0.416216048,0,0,0,0.296695991,0.268832214,0.087371056,0.35620327,0.181461159,nan,nan,nan,[ nan  nan  nan],nan,nan,nan,626.5731627,865.7274223,866.1436383,nan,nan
0,221,15:40:48:721000,6,1,190,133.59375,[ 1.         -0.07468844  0.40739964],1,1,1,0.538402611,0,0,1,0.40821083,0.2695052,0.087735846,0.357241046,0.181769354,nan,nan,nan,[ nan  nan  nan],nan,nan,nan,626.5731627,866.6692116,867.2076142,nan,nan
0,222,15:40:52:839000,6,1,365,256.640625,[-0.15796203  0.47701659 -0.01391969],1,1,1,0.404587541,1,0,0,0.453068734,0.270727461,0.089385449,0.36011291,0.181342012,nan,-165.1413856,363,[-0.16228773  0.47636573  0.00704813],nan,-1.499239448,1.108804429,626.5731627,867.6110098,868.0155973,869.4445241,870.5613623
0,223,15:40:53:775000,6,0,434,305.15625,[ 0.21388182  0.43461034 -1.        ],0,0,1,0.463620147,0,0,0,0.4688701,0.271333163,0.089634358,0.360967521,0.181698805,nan,nan,nan,[ nan  nan  nan],nan,nan,nan,626.5731627,871.7198806,872.1835008,nan,nan
0,224,15:40:54:727000,6,1,261,183.515625,[ 0.42722581  0.27661781  0.65367446],1,1,1,0.265770172,0,0,0,0.37799262,0.27219932,0.090354458,0.362553779,0.181844862,nan,nan,nan,[ nan  nan  nan],nan,nan,nan,626.5731627,872.6617196,872.9274898,nan,nan
0,225,15:40:55:663000,6,1,76,53.4375,[ 1.         -0.16967451 -0.77336583],1,1,1,0.25199546,0,0,0,0.327128593,0.27217049,0.090152666,0.362323156,0.182017824,nan,nan,nan,[ nan  nan  nan],nan,nan,nan,626.5731627,873.6034747,873.8554702,nan,nan
0,226,15:40:56:599000,6,1,336,236.25,[-0.15821161  0.45675811  0.26813527],1,1,1,0.254169034,0,0,0,0.257311555,0.272080423,0.089961262,0.362041685,0.182119161,nan,nan,nan,[ nan  nan  nan],nan,nan,nan,626.5731627,874.54527,874.799439,nan,nan
0,227,15:40:57:550000,6,1,450,316.40625,[ 0.33594973  0.40559833 -1.        ],1,1,1,0.288326704,0,0,0,0.2648304,0.272000817,0.089769032,0.361769849,0.182231785,nan,nan,nan,[ nan  nan  nan],nan,nan,nan,626.5731627,875.4870839,875.7754106,nan,nan
0,228,15:40:58:486000,6,1,260,182.8125,[ 0.43801664  0.27278198  0.65440657],1,1,1,0.322542249,0,0,0,0.288345996,0.272073055,0.089576762,0.361649817,0.182496293,nan,nan,nan,[ nan  nan  nan],nan,nan,nan,626.5731627,876.4288535,876.7513958,nan,nan
0,229,15:40:59:438000,6,1,451,317.109375,[ 0.34383096  0.40351836 -1.        ],1,1,1,0.292732867,0,0,0,0.301200607,0.272295386,0.089441711,0.361737098,0.182853675,nan,nan,nan,[ nan  nan  nan],nan,nan,nan,626.5731627,877.3706386,877.6633714,nan,nan
0,230,15:41:00:374000,6,1,70,49.21875,[ 1.         -0.13936985 -0.90643691],1,1,1,0.310910036,0,0,0,0.308728384,0.272385025,0.08925557,0.361640594,0.183129455,nan,nan,nan,[ nan  nan  nan],nan,nan,nan,626.5731627,878.3124373,878.6233473,nan,nan
0,231,15:41:01:310000,6,1,411,288.984375,[ 0.05552017  0.46302271 -0.55705476],1,1,1,0.233100134,0,0,0,0.278914346,0.272553256,0.089096695,0.361649951,0.183456561,nan,nan,nan,[ nan  nan  nan],nan,nan,nan,626.5731627,879.254228,879.4873282,nan,nan
0,232,15:41:02:262000,6,1,246,172.96875,[ 0.58976884  0.2150199   0.65133953],1,1,1,0.26728831,0,0,0,0.270432826,0.272381721,0.088940684,0.361322405,0.183441037,nan,nan,nan,[ nan  nan  nan],nan,nan,nan,626.5731627,880.1960302,880.4633185,nan,nan
0,233,15:41:03:198000,6,1,487,342.421875,[ 0.63952974  0.30629503 -1.        ],1,1,1,0.221485027,0,0,0,0.24062449,0.272359671,0.088748593,0.361108264,0.183611078,nan,nan,nan,[ nan  nan  nan],nan,nan,nan,626.5731627,881.1378164,881.3593014,nan,nan
0,234,15:41:04:134000,6,1,381,267.890625,[-0.10540306  0.47842508 -0.18843114],1,1,1,0.279627562,0,0,0,0.256133633,0.272140384,0.088619813,0.360760197,0.183520571,nan,nan,nan,[ nan  nan  nan],nan,nan,nan,626.5731627,882.0796451,882.3592726,nan,nan
0,235,15:41:05:085000,6,1,58,40.78125,[ 1.         -0.07608966 -1.        ],1,1,1,0.305821067,0,0,0,0.268977885,0.272172518,0.088430791,0.360603309,0.183741726,nan,nan,nan,[ nan  nan  nan],nan,nan,nan,626.5731627,883.0214216,883.3272426,nan,nan
0,236,15:41:06:021000,6,1,439,308.671875,[ 0.25114429  0.4263922  -1.        ],1,1,1,0.260024912,0,0,0,0.281824514,0.272316315,0.08826893,0.360585245,0.184047386,nan,nan,nan,[ nan  nan  nan],nan,nan,nan,626.5731627,883.9632001,884.223225,nan,nan
0,237,15:41:06:957000,6,1,134,94.21875,[ 1.         -0.304951   -0.09514411],1,1,1,0.27022195,0,0,0,0.27868931,0.272264011,0.088084557,0.360348568,0.184179454,nan,nan,nan,[ nan  nan  nan],nan,nan,nan,626.5731627,884.9049757,885.1751977,nan,nan
0,238,15:41:07:909000,6,1,394,277.03125,[-0.04370902  0.47465593 -0.33940142],1,1,1,0.352384417,0,0,0,0.294210426,0.272255358,0.087897839,0.360153198,0.184357519,nan,nan,nan,[ nan  nan  nan],nan,nan,nan,626.5731627,885.8467824,886.1991668,nan,nan
0,239,15:41:08:845000,6,1,230,161.71875,[ 0.76002313  0.14022421  0.6178111 ],1,1,1,0.274587344,0,0,0,0.299064571,0.272593456,0.087865852,0.360459308,0.184727604,nan,nan,nan,[ nan  nan  nan],nan,nan,nan,626.5731627,886.7885729,887.0631602,nan,nan
0,240,15:41:09:796000,6,1,29,20.390625,[ 1.          0.07701739 -1.        ],1,1,1,0.26077443,0,0,0,0.295915397,0.272601833,0.08768116,0.360282994,0.184920673,nan,nan,nan,[ nan  nan  nan],nan,nan,nan,626.5731627,887.7303676,887.9911421,nan,nan
0,241,15:41:10:732000,6,1,168,118.125,[ 1.         -0.19079002  0.2303618 ],1,1,1,0.246953532,0,0,0,0.260771769,0.272552346,0.087500865,0.360053212,0.185051481,nan,nan,nan,[ nan  nan  nan],nan,nan,nan,626.5731627,888.6721587,888.9191122,nan,nan
0,242,15:41:11:668000,6,1,478,336.09375,[ 0.5642225   0.33479366 -1.        ],1,1,1,0.225147658,0,0,0,0.244291874,0.272445685,0.08733395,0.359779635,0.185111735,nan,nan,nan,[ nan  nan  nan],nan,nan,nan,626.5731627,889.6139557,889.8391033,nan,nan
0,243,15:41:12:620000,6,1,23,16.171875,[ 1.          0.10694394 -1.        ],1,1,1,0.22725509,0,0,0,0.23311876,0.272249427,0.087205588,0.359455016,0.185043839,nan,nan,nan,[ nan  nan  nan],nan,nan,nan,626.5731627,890.5558266,890.7830816,nan,nan
0,244,15:41:13:556000,6,1,292,205.3125,[ 0.11288167  0.37606958  0.56926185],1,1,1,0.309508217,0,0,0,0.253970322,0.2720635,0.087073078,0.359136578,0.184990422,nan,nan,nan,[ nan  nan  nan],nan,nan,nan,626.5731627,891.4975369,891.8070451,nan,nan
0,245,15:41:14:492000,6,1,41,28.828125,[ 1.         0.0148395 -1.       ],1,1,1,0.295693877,0,0,0,0.277485728,0.272217594,0.086926789,0.359144383,0.185290805,nan,nan,nan,[ nan  nan  nan],nan,nan,nan,626.5731627,892.4393314,892.7350252,nan,nan
0,246,15:41:15:444000,6,0,387,272.109375,[-0.07872193  0.47723176 -0.25697445],0,1,0,0.249879475,0,0,0,0.28502719,0.272313808,0.086761442,0.35907525,0.185552366,nan,nan,nan,[ nan  nan  nan],nan,nan,nan,626.5731627,893.3811238,893.6310033,nan,nan
0,247,15:41:16:380000,6,1,510,358.59375,[ 0.83055446  0.2204367  -1.        ],1,1,1,0.372058911,0,0,0,0.305877421,0.272222239,0.086596011,0.35881825,0.185626229,nan,nan,nan,[ nan  nan  nan],nan,nan,nan,626.5731627,894.3229086,894.6949675,nan,nan
0,248,15:41:17:331000,6,1,228,160.3125,[ 0.78072981  0.13027695  0.61143314],1,1,1,0.318245848,0,0,0,0.313394745,0.272628079,0.08665298,0.359281059,0.1859751,nan,nan,nan,[ nan  nan  nan],nan,nan,nan,626.5731627,895.2647096,895.5829555,nan,nan
0,249,15:41:18:267000,6,1,135,94.921875,[ 1.         -0.30350232 -0.08497887],1,1,1,0.248444301,0,0,0,0.312916353,0.272812767,0.086525892,0.359338659,0.186286875,nan,nan,nan,[ nan  nan  nan],nan,nan,nan,626.5731627,896.2065015,896.4549458,nan,nan
0,250,15:41:19:203000,6,1,65,45.703125,[ 1.         -0.11331216 -1.        ],1,1,1,0.250629564,0,0,0,0.272439904,0.272714507,0.086365076,0.359079583,0.186349431,nan,nan,nan,[ nan  nan  nan],nan,nan,nan,626.5731627,897.1482917,897.3989213,nan,nan
0,251,15:41:20:155000,6,1,302,212.34375,[ 0.02708608  0.40030084  0.51777002],1,1,1,0.260742214,0,0,0,0.253272026,0.272625812,0.086202795,0.358828607,0.186423018,nan,nan,nan,[ nan  nan  nan],nan,nan,nan,626.5731627,898.0901654,898.3509076,nan,nan
0,252,15:41:21:091000,6,0,60,42.1875,[ 1.         -0.08678377 -1.        ],0,1,0,0.254998379,0,0,0,0.255456719,0.272578278,0.086033486,0.358611764,0.186544792,nan,nan,nan,[ nan  nan  nan],nan,nan,nan,626.5731627,899.0318832,899.2868816,nan,nan
0,253,15:41:22:027000,6,1,438,307.96875,[ 0.24362256  0.42809644 -1.        ],1,1,1,0.289171445,0,0,0,0.268304013,0.272508238,0.085869075,0.358377313,0.186639164,nan,nan,nan,[ nan  nan  nan],nan,nan,nan,626.5731627,899.9736708,900.2628422,nan,nan
0,254,15:41:22:979000,6,1,297,208.828125,[ 0.06862621  0.38864628  0.54490466],1,1,1,0.251351143,0,0,0,0.265173655,0.272574362,0.085704933,0.358279296,0.186869429,nan,nan,nan,[ nan  nan  nan],nan,nan,nan,626.5731627,900.9154604,901.1668115,nan,nan
0,255,15:41:23:915000,6,1,86,60.46875,[ 1.         -0.21659106 -0.6256178 ],1,1,1,0.229554677,0,0,0,0.256692421,0.272490476,0.085545753,0.358036229,0.186944723,nan,nan,nan,[ nan  nan  nan],nan,nan,nan,626.5731627,901.8572577,902.0868124,nan,nan
0,256,15:41:24:866000,6,1,162,113.90625,[ 1.         -0.21873956  0.17663297],1,1,1,0.23974972,0,0,0,0.240218513,0.272321437,0.085419517,0.357740954,0.186901921,nan,nan,nan,[ nan  nan  nan],nan,nan,nan,626.5731627,902.7990499,903.0387996,nan,nan
0,257,15:41:25:802000,6,1,345,242.578125,[-0.17351954  0.46559515  0.18611928],1,1,1,0.31392664,0,0,0,0.261077012,0.272193705,0.085276165,0.35746987,0.18691754,nan,nan,nan,[ nan  nan  nan],nan,nan,nan,626.5731627,903.7408324,904.054759,nan,nan
0,258,15:41:26:738000,6,1,299,210.234375,[ 0.05166456  0.39341767  0.53437875],1,1,1,0.268150726,0,0,0,0.273942362,0.272356725,0.085149249,0.357505974,0.187207475,nan,nan,nan,[ nan  nan  nan],nan,nan,nan,626.5731627,904.6826029,904.9507536,nan,nan
0,259,15:41:27:690000,6,0,205,144.140625,[ 1.          0.008548    0.50553524],0,1,0,0.270262434,0,0,0,0.284113266,0.272340359,0.084983831,0.35732419,0.187356528,nan,nan,nan,[ nan  nan  nan],nan,nan,nan,626.5731627,905.6244509,905.8947134,nan,nan
0,260,15:41:28:626000,6,1,356,250.3125,[-0.17284378  0.47323941  0.07883681],1,1,1,0.240480421,0,0,0,0.259631194,0.272332305,0.084819072,0.357151377,0.187513233,nan,nan,nan,[ nan  nan  nan],nan,nan,nan,626.5731627,906.5662183,906.8066987,nan,nan
0,261,15:41:29:562000,6,1,245,172.265625,[ 0.6005777   0.21061011  0.65017283],1,1,1,0.274666886,0,0,0,0.261803247,0.272209325,0.084678214,0.356887538,0.187531111,nan,nan,nan,[ nan  nan  nan],nan,nan,nan,626.5731627,907.5080162,907.7826831,nan,nan
0,262,15:41:30:513000,6,1,398,279.84375,[-0.02203778  0.4726088  -0.38794338],1,1,1,0.260872503,0,0,0,0.25867327,0.272218777,0.084515351,0.356734128,0.187703426,nan,nan,nan,[ nan  nan  nan],nan,nan,nan,626.5731627,908.4497893,908.7106618,nan,nan
0,263,15:41:31:449000,6,0,472,331.875,[ 0.51429865  0.35221228 -1.        ],0,1,0,0.263047502,0,0,0,0.266195631,0.272175304,0.084356201,0.356531506,0.187819103,nan,nan,nan,[ nan  nan  nan],nan,nan,nan,626.5731627,909.3915926,909.6546401,nan,nan
0,264,15:41:32:401000,6,1,386,271.40625,[-0.08339466  0.47749559 -0.24542474],1,1,1,0.289225613,0,0,0,0.27104854,0.272140465,0.084196944,0.356337409,0.187943522,nan,nan,nan,[ nan  nan  nan],nan,nan,nan,626.5731627,910.3333959,910.6226215,nan,nan
0,265,15:41:33:337000,6,1,129,90.703125,[ 1.         -0.31007049 -0.146368  ],1,1,1,0.243404654,0,0,0,0.265225923,0.272205428,0.084043299,0.356248727,0.188162129,nan,nan,nan,[ nan  nan  nan],nan,nan,nan,626.5731627,911.2751855,911.5185901,nan,nan
0,266,15:41:34:273000,6,1,429,301.640625,[ 0.17753182  0.44208078 -0.9018852 ],1,1,1,0.261594082,0,0,0,0.26474145,0.272096334,0.08390263,0.355998965,0.188193704,nan,nan,nan,[ nan  nan  nan],nan,nan,nan,626.5731627,912.2169748,912.4785689,nan,nan
0,267,15:41:35:225000,6,1,228,160.3125,[ 0.78072981  0.13027695  0.61143314],1,1,1,0.287746819,0,0,0,0.264248518,0.272056703,0.08374665,0.355803353,0.188310053,nan,nan,nan,[ nan  nan  nan],nan,nan,nan,626.5731627,913.1587889,913.4465358,nan,nan
0,268,15:41:36:161000,6,1,47,33.046875,[ 1.         -0.01707559 -1.        ],1,1,1,0.266005661,0,0,0,0.271782187,0.272115688,0.083594598,0.355710286,0.188521091,nan,nan,nan,[ nan  nan  nan],nan,nan,nan,626.5731627,914.1005267,914.3665323,nan,nan
0,269,15:41:37:097000,6,1,183,128.671875,[ 1.         -0.113109    0.35490284],1,1,1,0.292152411,0,0,0,0.281968297,0.272092804,0.083438742,0.355531546,0.188654063,nan,nan,nan,[ nan  nan  nan],nan,nan,nan,626.5731627,915.0423556,915.334508,nan,nan
0,270,15:41:38:048000,6,1,345,242.578125,[-0.17351954  0.46559515  0.18611928],1,1,1,0.342318523,0,0,0,0.300158865,0.272167654,0.083291907,0.35545956,0.188875747,nan,nan,nan,[ nan  nan  nan],nan,nan,nan,626.5731627,915.9841472,916.3264657,nan,nan
0,271,15:41:38:984000,6,1,190,133.59375,[ 1.         -0.07468844  0.40739964],1,1,1,0.296511819,0,0,0,0.310327584,0.272428438,0.083246488,0.355674926,0.189181949,nan,nan,nan,[ nan  nan  nan],nan,nan,nan,626.5731627,916.9259425,917.2224544,nan,nan
0,272,15:41:39:920000,6,1,494,347.34375,[ 0.69812996  0.282144   -1.        ],1,1,1,0.218695645,0,0,0,0.285841995,0.272517635,0.083105063,0.355622698,0.189412572,nan,nan,nan,[ nan  nan  nan],nan,nan,nan,626.5731627,917.8677327,918.0864284,nan,nan
0,273,15:41:40:872000,6,1,190,133.59375,[ 1.         -0.07468844  0.40739964],1,1,1,0.244887725,0,0,0,0.253365063,0.27231903,0.083015759,0.355334789,0.189303271,nan,nan,nan,[ nan  nan  nan],nan,nan,nan,626.5731627,918.8095223,919.0544101,nan,nan
0,274,15:41:41:808000,6,1,409,287.578125,[ 0.04294362  0.46479315 -0.52946185],1,1,1,0.319062934,0,0,0,0.260882101,0.27221818,0.082879646,0.355097826,0.189338534,nan,nan,nan,[ nan  nan  nan],nan,nan,nan,626.5731627,919.7513216,920.0703846,nan,nan
0,275,15:41:42:759000,6,1,329,231.328125,[-0.13605328  0.44820379  0.32783374],1,1,1,0.481149006,0,0,0,0.348366555,0.272389772,0.082776103,0.355165875,0.189613669,nan,nan,nan,[ nan  nan  nan],nan,nan,nan,626.5731627,920.6932173,921.1743663,nan,nan
0,276,15:41:43:695000,6,0,510,358.59375,[ 0.83055446  0.2204367  -1.        ],0,0,1,0.4834389,0,0,0,0.427883613,0.273151667,0.083578397,0.356730064,0.18957327,nan,nan,nan,[ nan  nan  nan],nan,nan,nan,626.5731627,921.6349046,922.1183435,nan,nan
0,277,15:41:44:631000,6,1,172,120.9375,[ 1.         -0.17098406  0.26502468],1,1,1,0.277635594,0,0,0,0.4140745,0.273916348,0.084381071,0.358297419,0.189535277,nan,nan,nan,[ nan  nan  nan],nan,nan,nan,626.5731627,922.576697,922.8543326,nan,nan
0,278,15:41:45:583000,6,1,245,172.265625,[ 0.6005777   0.21061011  0.65017283],1,1,1,0.47181695,0,0,0,0.410963815,0.273929824,0.084228364,0.358158188,0.18970146,nan,nan,nan,[ nan  nan  nan],nan,nan,nan,626.5731627,923.5184889,923.9903059,nan,nan
0,279,15:41:46:519000,6,1,501,352.265625,[ 0.75644923  0.25625354 -1.        ],1,1,1,0.290010198,0,0,0,0.346487581,0.274644218,0.084909745,0.359553962,0.189734473,nan,nan,nan,[ nan  nan  nan],nan,nan,nan,626.5731627,924.4602725,924.7502827,nan,nan
0,280,15:41:47:455000,6,1,353,248.203125,[-0.17504126  0.47149007  0.10879922],1,1,1,0.284197655,0,0,0,0.348674934,0.274699491,0.084761884,0.359461375,0.189937607,nan,nan,nan,[ nan  nan  nan],nan,nan,nan,626.5731627,925.4020727,925.6862704,nan,nan
0,281,15:41:48:407000,6,1,21,14.765625,[ 1.        0.116714 -1.      ],1,1,1,0.270369345,0,0,0,0.281525733,0.274733535,0.084611748,0.359345283,0.190121786,nan,nan,nan,[ nan  nan  nan],nan,nan,nan,626.5731627,926.3438686,926.6142379,nan,nan
0,282,15:41:49:343000,6,1,286,201.09375,[ 0.16907896  0.35973478  0.59469871],1,1,1,0.192559158,0,0,0,0.249042053,0.274717948,0.084460922,0.35917887,0.190257026,nan,nan,nan,[ nan  nan  nan],nan,nan,nan,626.5731627,927.2856579,927.4782171,nan,nan
0,283,15:41:50:294000,6,1,207,145.546875,[ 0.98565351  0.01954319  0.51699622],1,1,1,0.234728034,0,0,0,0.232552179,0.274425568,0.084452335,0.358877903,0.189973234,nan,nan,nan,[ nan  nan  nan],nan,nan,nan,626.5731627,928.2274726,928.4622007,nan,nan
0,284,15:41:51:230000,6,1,15,10.546875,[ 0.96573443  0.14535278 -1.        ],1,1,1,0.27694395,0,0,0,0.234743714,0.274284797,0.084335484,0.35862028,0.189949313,nan,nan,nan,[ nan  nan  nan],nan,nan,nan,626.5731627,929.1692374,929.4461814,nan,nan
0,285,15:41:52:166000,6,1,452,317.8125,[ 0.35173807  0.40140621 -1.        ],1,1,1,0.295119408,0,0,0,0.268930464,0.274294193,0.084186497,0.35848069,0.190107696,nan,nan,nan,[ nan  nan  nan],nan,nan,nan,626.5731627,930.1110404,930.4061598,nan,nan
0,286,15:41:53:118000,6,1,283,198.984375,[ 0.19826868  0.35105092  0.60582595],1,1,1,0.433290179,0,0,0,0.335117846,0.274367521,0.084047204,0.358414725,0.190320317,nan,nan,nan,[ nan  nan  nan],nan,nan,nan,626.5731627,931.0528286,931.4861188,nan,nan
0,287,15:41:54:054000,6,1,82,57.65625,[ 1.         -0.19847916 -0.67987248],1,1,1,0.227493716,0,0,0,0.318634434,0.274925145,0.084424255,0.359349399,0.19050089,nan,nan,nan,[ nan  nan  nan],nan,nan,nan,626.5731627,931.9946168,932.2221105,nan,nan
0,288,15:41:54:990000,6,1,468,329.0625,[ 0.48123648  0.36313162 -1.        ],1,1,1,0.333667846,0,0,0,0.331483914,0.2747593,0.084323024,0.359082324,0.190436277,nan,nan,nan,[ nan  nan  nan],nan,nan,nan,626.5731627,932.936417,933.2700848,nan,nan
0,289,15:41:55:941000,6,1,270,189.84375,[ 0.33115907  0.30936972  0.64139387],1,1,1,0.279861056,0,0,0,0.280340873,0.274964557,0.084247532,0.359212089,0.190717024,nan,nan,nan,[ nan  nan  nan],nan,nan,nan,626.5731627,933.8782092,934.1580702,nan,nan
0,290,15:41:56:877000,6,1,358,251.71875,[-0.17058391  0.47426832  0.05858744],1,1,1,0.258048054,0,0,0,0.290525652,0.274981558,0.084101635,0.359083194,0.190879923,nan,nan,nan,[ nan  nan  nan],nan,nan,nan,626.5731627,934.8200022,935.0780502,nan,nan
0,291,15:41:57:829000,6,1,163,114.609375,[ 1.         -0.2142478   0.18572368],1,1,1,0.188214006,0,0,0,0.242041038,0.274922965,0.083961893,0.358884858,0.190961072,nan,nan,nan,[ nan  nan  nan],nan,nan,nan,626.5731627,935.7618055,935.9500195,nan,nan
0,292,15:41:58:765000,6,1,456,320.625,[ 0.38361243  0.39263319 -1.        ],1,1,1,0.086444328,0,1,0,0.177568796,0.274623969,0.083970988,0.358594956,0.190652981,nan,nan,nan,[ nan  nan  nan],nan,nan,nan,626.5731627,936.703586,936.7900303,nan,nan
0,293,15:42:03:398000,6,1,371,260.859375,[-0.14179361  0.47833194 -0.07797326],1,1,1,0.296601909,1,0,0,0.190420081,0.273977303,0.084546834,0.358524138,0.189430469,nan,-155.5332091,349,[-0.17565689  0.46876851  0.14794518],nan,-15.32616588,1.642178227,626.5731627,937.6453933,937.9419952,939.4705788,941.1207773
0,294,15:42:04:334000,6,0,0,0,[ 0.84683171  0.21209757 -1.        ],0,0,1,0.430540711,0,0,0,0.271195649,0.274054785,0.084412287,0.358467072,0.189642498,nan,nan,nan,[ nan  nan  nan],nan,nan,nan,626.5731627,942.2793305,942.7098712,nan,nan
0,295,15:42:05:286000,6,1,128,90,[ 1.         -0.31066301 -0.15668979],1,1,1,0.288740379,0,0,0,0.338627666,0.274588866,0.084760877,0.359349744,0.189827989,nan,nan,nan,[ nan  nan  nan],nan,nan,nan,626.5731627,943.2211267,943.509867,nan,nan
0,296,15:42:06:222000,6,1,238,167.34375,[ 0.67574183  0.17872767  0.63851109],1,1,1,0.23491078,0,0,0,0.318063957,0.274637001,0.084620615,0.359257615,0.190016386,nan,nan,nan,[ nan  nan  nan],nan,nan,nan,626.5731627,944.1629154,944.3978262,nan,nan
0,297,15:42:07:158000,6,1,334,234.84375,[-0.15279655  0.45446705  0.2855764 ],1,1,1,0.221108414,0,0,0,0.248253191,0.274502336,0.084508619,0.359010954,0.189993717,nan,nan,nan,[ nan  nan  nan],nan,nan,nan,626.5731627,945.1047102,945.3258186,nan,nan
0,298,15:42:08:109000,6,1,422,296.71875,[ 0.12832838  0.45131367 -0.73089489],1,1,1,0.207300346,0,0,0,0.221106514,0.274321951,0.084422616,0.358744567,0.189899334,nan,nan,nan,[ nan  nan  nan],nan,nan,nan,626.5731627,946.0465015,946.2538018,nan,nan
0,299,15:42:09:045000,6,1,101,71.015625,[ 1.         -0.27357267 -0.44615261],1,1,1,0.233463917,0,0,0,0.220624226,0.274096289,0.084369747,0.358466036,0.189726542,nan,nan,nan,[ nan  nan  nan],nan,nan,nan,626.5731627,946.9882979,947.2217619,nan,nan
0,300,15:42:09:997000,6,1,4,2.8125,[ 0.87912605  0.19501404 -1.        ],1,1,1,0.211638941,0,0,0,0.217467735,0.273959938,0.08426084,0.358220778,0.189699099,nan,nan,nan,[ nan  nan  nan],nan,nan,nan,626.5731627,947.9300884,948.1417273,nan,nan
0,301,15:42:10:933000,6,1,410,288.28125,[ 0.04920468  0.46392153 -0.54316189],1,1,1,0.189856446,0,0,0,0.211653101,0.273751507,0.084196733,0.35794824,0.189554774,nan,nan,nan,[ nan  nan  nan],nan,nan,nan,626.5731627,948.8718669,949.0617233,nan,nan
0,302,15:42:11:869000,6,1,289,203.203125,[ 0.14059213  0.36807325  0.58250527],1,1,1,0.248015516,0,0,0,0.216503634,0.273471857,0.084195265,0.357667122,0.189276592,nan,nan,nan,[ nan  nan  nan],nan,nan,nan,626.5731627,949.8136736,950.0616891,nan,nan
0,303,15:42:12:821000,6,1,418,293.90625,[ 0.10117589  0.45596175 -0.66167931],1,1,1,0.242211241,0,0,0,0.226694401,0.273387284,0.084068052,0.357455337,0.189319232,nan,nan,nan,[ nan  nan  nan],nan,nan,nan,626.5731627,950.7554678,950.997679,nan,nan
0,304,15:42:13:757000,6,1,229,161.015625,[ 0.77039703  0.13526594  0.61468147],1,1,1,0.180391819,0,0,0,0.223539525,0.273284052,0.083947859,0.357231911,0.189336193,nan,nan,nan,[ nan  nan  nan],nan,nan,nan,626.5731627,951.6972563,951.8776481,nan,nan
0,305,15:42:14:708000,6,1,174,122.34375,[ 1.         -0.16079069  0.28198128],1,1,1,0.278583824,0,0,0,0.233728961,0.272977477,0.083978386,0.356955863,0.188999092,nan,nan,nan,[ nan  nan  nan],nan,nan,nan,626.5731627,952.6390533,952.9176371,nan,nan
0,306,15:42:15:644000,6,1,440,309.375,[ 0.2586994  0.4246574 -1.       ],1,1,1,0.216776947,0,0,0,0.225250863,0.272995919,0.083840764,0.356836683,0.189155155,nan,nan,nan,[ nan  nan  nan],nan,nan,nan,626.5731627,953.5808457,953.7976227,nan,nan
0,307,15:42:16:580000,6,1,309,217.265625,[-0.02583963  0.41510654  0.4753057 ],1,1,1,0.162975858,0,0,0,0.219445543,0.272811595,0.083764882,0.356576477,0.189046713,nan,nan,nan,[ nan  nan  nan],nan,nan,nan,626.5731627,954.5226197,954.6855955,nan,nan
0,308,15:42:17:532000,6,1,399,280.546875,[-0.01644604  0.47203125 -0.40027452],1,1,1,0.205146729,0,0,0,0.194966511,0.272452654,0.083862514,0.356315168,0.188590141,nan,nan,nan,[ nan  nan  nan],nan,nan,nan,626.5731627,955.4644324,955.6695791,nan,nan
0,309,15:42:18:468000,6,1,86,60.46875,[ 1.         -0.21659106 -0.6256178 ],1,1,1,0.175331645,0,1,0,0.181151411,0.272233417,0.083813606,0.356047023,0.188419811,nan,nan,nan,[ nan  nan  nan],nan,nan,nan,626.5731627,956.406224,956.5815556,nan,nan
0,310,15:42:22:867000,6,1,284,199.6875,[ 0.18846515  0.3539841   0.60223628],1,1,1,0.145520553,1,0,0,0.175332976,0.271918801,0.083858815,0.355777616,0.188059985,nan,-127.9000804,310,[-0.03285454  0.41708073  0.46882802],nan,18.21258036,1.408818655,626.5731627,957.3480122,957.4935327,959.1732,960.5900504
0,311,15:42:23:803000,6,1,347,243.984375,[-0.17493884  0.46723881  0.16715748],1,1,1,0.25671922,0,0,0,0.192523806,0.271509745,0.084030228,0.355539973,0.187479517,nan,nan,nan,[ nan  nan  nan],nan,nan,nan,626.5731627,961.7486608,962.0053801,nan,nan
0,312,15:42:24:755000,6,0,60,42.1875,[ 1.         -0.08678377 -1.        ],0,nan,nan,nan,0,0,0,0.201119887,0.271462034,0.083898778,0.355360812,0.187563255,nan,nan,nan,[ nan  nan  nan],nan,nan,nan,626.5731627,962.6903929,nan,nan,nan
0,313,15:42:25:691000,6,1,196,137.8125,[ 1.         -0.04136108  0.44913076],1,0,0,0.085222405,0,0,0,0.170970813,0.271462034,0.083898778,0.355360812,0.187563255,nan,nan,nan,[ nan  nan  nan],nan,nan,nan,626.5731627,963.632189,963.7174114,nan,nan
0,314,15:42:26:642000,6,1,468,329.0625,[ 0.48123648  0.36313162 -1.        ],1,1,1,0.431328717,0,0,0,0.258275561,0.270863192,0.084424765,0.355287957,0.186438428,nan,nan,nan,[ nan  nan  nan],nan,nan,nan,626.5731627,964.5739823,965.0053111,nan,nan
0,315,15:42:27:578000,6,1,127,89.296875,[ 1.         -0.31111021 -0.16703665],1,1,1,0.297517638,0,0,0,0.271356253,0.271377505,0.084775947,0.356153452,0.186601558,nan,nan,nan,[ nan  nan  nan],nan,nan,nan,626.5731627,965.5157777,965.8132953,nan,nan
0,316,15:42:28:514000,6,0,47,33.046875,[ 1.         -0.01707559 -1.        ],0,1,0,0.24374905,0,0,0,0.324198468,0.27146102,0.084653268,0.356114287,0.186807752,nan,nan,nan,[ nan  nan  nan],nan,nan,nan,626.5731627,966.4575693,966.7013183,nan,nan
0,317,15:42:29:466000,6,1,191,134.296875,[ 1.         -0.06914798  0.41457165],1,1,1,0.293928561,0,0,0,0.278398417,0.271372765,0.084532783,0.355905548,0.186839982,nan,nan,nan,[ nan  nan  nan],nan,nan,nan,626.5731627,967.3993586,967.6932872,nan,nan
0,318,15:42:30:402000,6,1,66,46.40625,[ 1.         -0.11856871 -1.        ],1,1,1,0.256132777,0,0,0,0.264603463,0.271444371,0.084408035,0.355852406,0.187036336,nan,nan,nan,[ nan  nan  nan],nan,nan,nan,626.5731627,968.3411536,968.5972864,nan,nan
0,319,15:42:31:338000,6,1,336,236.25,[-0.15821161  0.45675811  0.26813527],1,1,1,0.258272425,0,0,0,0.269444588,0.271395916,0.08427876,0.355674676,0.187117156,nan,nan,nan,[ nan  nan  nan],nan,nan,nan,626.5731627,969.2829703,969.5412427,nan,nan
0,320,15:42:32:289000,6,1,100,70.3125,[ 1.         -0.27042709 -0.4574399 ],1,1,1,0.404475498,0,0,0,0.306293567,0.271354517,0.084148941,0.355503458,0.187205576,nan,nan,nan,[ nan  nan  nan],nan,nan,nan,626.5731627,970.224744,970.6292195,nan,nan
0,321,15:42:33:225000,6,1,169,118.828125,[ 1.         -0.18591738  0.2391183 ],1,1,1,0.366670591,0,0,0,0.343139505,0.271773137,0.08434648,0.356119617,0.187426657,nan,nan,nan,[ nan  nan  nan],nan,nan,nan,626.5731627,971.1665321,971.5332027,nan,nan
0,322,15:42:34:177000,6,1,475,333.984375,[ 0.53921875  0.34365981 -1.        ],1,1,1,0.288854133,0,0,0,0.353333407,0.272070621,0.084381092,0.356451713,0.187689529,nan,nan,nan,[ nan  nan  nan],nan,nan,nan,626.5731627,972.1083315,972.3971856,nan,nan
0,323,15:42:35:113000,6,1,369,259.453125,[-0.14769469  0.47799919 -0.05643387],1,1,1,0.251052932,0,0,0,0.302192552,0.272123069,0.084254351,0.35637742,0.187868718,nan,nan,nan,[ nan  nan  nan],nan,nan,nan,626.5731627,973.0501176,973.3011706,nan,nan
0,324,15:42:36:049000,6,1,112,78.75,[ 1.         -0.30050152 -0.32532486],1,1,1,0.253235344,0,0,0,0.264380803,0.27205743,0.084131206,0.356188636,0.187926225,nan,nan,nan,[ nan  nan  nan],nan,nan,nan,626.5731627,973.9919093,974.2451446,nan,nan
0,325,15:42:37:001000,6,1,252,177.1875,[ 0.52472169  0.24069367  0.65569401],1,1,1,0.16742336,0,0,0,0.223903878,0.271998977,0.084006994,0.35600597,0.187991983,nan,nan,nan,[ nan  nan  nan],nan,nan,nan,626.5731627,974.9337017,975.1011251,nan,nan
0,326,15:42:37:937000,6,1,345,242.578125,[-0.17351954  0.46559515  0.18611928],1,1,1,0.225615502,0,0,0,0.215424735,0.271675213,0.084077816,0.355753029,0.187597397,nan,nan,nan,[ nan  nan  nan],nan,nan,nan,626.5731627,975.8754933,976.1011088,nan,nan
0,327,15:42:38:873000,6,1,231,162.421875,[ 0.74960968  0.14515127  0.62082146],1,1,1,0.259776308,0,0,0,0.217605056,0.271533054,0.083986836,0.355519889,0.187546218,nan,nan,nan,[ nan  nan  nan],nan,nan,nan,626.5731627,976.8172841,977.0770604,nan,nan
0,328,15:42:39:824000,6,1,104,73.125,[ 1.         -0.28235148 -0.41264457],1,1,1,0.221964273,0,0,0,0.235785361,0.271496879,0.083860054,0.355356933,0.187636825,nan,nan,nan,[ nan  nan  nan],nan,nan,nan,626.5731627,977.7590794,977.9810437,nan,nan
0,329,15:42:40:760000,6,1,13,9.140625,[ 0.95026217  0.15466406 -1.        ],1,1,1,0.200174365,0,0,0,0.227304982,0.271344938,0.083776127,0.355121065,0.187568812,nan,nan,nan,[ nan  nan  nan],nan,nan,nan,626.5731627,978.7008704,978.9010448,nan,nan
0,330,15:42:41:712000,6,1,445,312.890625,[ 0.2969539  0.4155201 -1.       ],1,1,1,0.210336052,0,0,0,0.210824897,0.271127291,0.083740187,0.354867479,0.187387104,nan,nan,nan,[ nan  nan  nan],nan,nan,nan,626.5731627,979.6426697,979.8530058,nan,nan
0,331,15:42:42:648000,6,1,321,225.703125,[-0.09994335  0.43654647  0.39117498],1,1,1,0.300542225,0,0,0,0.237017547,0.270941952,0.083679581,0.354621533,0.187262371,nan,nan,nan,[ nan  nan  nan],nan,nan,nan,626.5731627,980.5844514,980.8849936,nan,nan
0,332,15:42:43:584000,6,1,417,293.203125,[ 0.0945046   0.45705356 -0.6457202 ],1,1,1,0.278701854,0,0,0,0.263193377,0.271031923,0.083568199,0.354600122,0.187463724,nan,nan,nan,[ nan  nan  nan],nan,nan,nan,626.5731627,981.5262535,981.8049554,nan,nan
0,333,15:42:44:535000,6,1,241,169.453125,[ 0.64365311  0.19260594  0.64425478],1,1,1,0.248893613,0,0,0,0.276045897,0.271055165,0.083442549,0.354497714,0.187612616,nan,nan,nan,[ nan  nan  nan],nan,nan,nan,626.5731627,982.4680417,982.7169353,nan,nan
0,334,15:42:45:471000,6,1,336,236.25,[-0.15821161  0.45675811  0.26813527],1,1,1,0.299087663,0,0,0,0.275561043,0.270988212,0.083325285,0.354313497,0.187662927,nan,nan,nan,[ nan  nan  nan],nan,nan,nan,626.5731627,983.4098364,983.7089241,nan,nan
0,335,15:42:46:407000,6,1,1,0.703125,[ 0.85493913  0.20787707 -1.        ],1,1,1,0.293255734,0,0,0,0.280412337,0.271072848,0.083213949,0.354286797,0.1878589,nan,nan,nan,[ nan  nan  nan],nan,nan,nan,626.5731627,984.3516335,984.6448892,nan,nan
0,336,15:42:47:359000,6,1,104,73.125,[ 1.         -0.28235148 -0.41264457],1,1,1,0.439457952,0,0,0,0.343933783,0.271139464,0.083097774,0.354237238,0.18804169,nan,nan,nan,[ nan  nan  nan],nan,nan,nan,626.5731627,985.2934202,985.7328782,nan,nan
0,337,15:42:48:295000,6,1,216,151.875,[ 0.90097501  0.06822711  0.56342658],1,1,1,0.289633586,0,0,0,0.340782424,0.271643411,0.083481348,0.355124759,0.188162064,nan,nan,nan,[ nan  nan  nan],nan,nan,nan,626.5731627,986.2352127,986.5248463,nan,nan
0,338,15:42:49:247000,6,1,427,300.234375,[ 0.16326517  0.44486322 -0.84020871],1,1,1,0.267812317,0,0,0,0.332301285,0.271697113,0.083362433,0.355059546,0.18833468,nan,nan,nan,[ nan  nan  nan],nan,nan,nan,626.5731627,987.1770131,987.4448255,nan,nan
0,339,15:42:50:183000,6,1,69,48.515625,[ 1.         -0.1342072  -0.93964801],1,1,1,0.222022433,0,0,0,0.259822778,0.271685551,0.083238558,0.35492411,0.188446993,nan,nan,nan,[ nan  nan  nan],nan,nan,nan,626.5731627,988.1187993,988.3408218,nan,nan
0,340,15:42:51:119000,6,1,318,223.59375,[-0.08356276  0.43164026  0.41348156],1,1,1,0.232203791,0,0,0,0.240679514,0.271538183,0.083158853,0.354697036,0.18837933,nan,nan,nan,[ nan  nan  nan],nan,nan,nan,626.5731627,989.0605929,989.2927967,nan,nan
0,341,15:42:52:070000,6,1,185,130.078125,[ 1.         -0.10221447  0.37029995],1,1,1,0.250371552,0,0,0,0.234865925,0.271421809,0.083063223,0.354485032,0.188358586,nan,nan,nan,[ nan  nan  nan],nan,nan,nan,626.5731627,990.0023888,990.2527604,nan,nan
0,342,15:42:53:006000,6,0,19,13.359375,[ 0.99625917  0.12637453 -1.        ],0,1,0,0.292549551,0,0,0,0.258374965,0.271359714,0.082948477,0.354308191,0.188411237,nan,nan,nan,[ nan  nan  nan],nan,nan,nan,626.5731627,990.9441813,991.2367308,nan,nan
0,343,15:42:53:942000,6,1,290,203.90625,[ 0.13126538  0.37077654  0.57820662],1,1,1,0.230744954,0,0,0,0.257888685,0.271422037,0.082834352,0.354256389,0.188587685,nan,nan,nan,[ nan  nan  nan],nan,nan,nan,626.5731627,991.8859672,992.1167121,nan,nan
0,344,15:42:54:894000,6,1,24,16.875,[ 1.          0.10201906 -1.        ],1,1,1,0.224970899,0,0,0,0.249421801,0.271302749,0.082742046,0.354044795,0.188560703,nan,nan,nan,[ nan  nan  nan],nan,nan,nan,626.5731627,992.8277428,993.0527137,nan,nan
0,345,15:42:55:830000,6,0,371,260.859375,[-0.14179361  0.47833194 -0.07797326],0,1,0,0.13914409,0,0,0,0.198286647,0.271167276,0.082658855,0.353826131,0.188508421,nan,nan,nan,[ nan  nan  nan],nan,nan,nan,626.5731627,993.7695781,993.9087222,nan,nan
0,346,15:42:56:766000,6,1,72,50.625,[ 1.         -0.14960778 -0.85320374],1,1,1,0.213312742,0,0,0,0.19247591,0.270782369,0.082844644,0.353627013,0.187937725,nan,nan,nan,[ nan  nan  nan],nan,nan,nan,626.5731627,994.7113526,994.9246653,nan,nan
0,347,15:42:57:717000,6,0,21,14.765625,[ 1.        0.116714 -1.      ],0,1,0,0.159533605,0,0,0,0.170663479,0.270615306,0.082781984,0.35339729,0.187833322,nan,nan,nan,[ nan  nan  nan],nan,nan,nan,626.5731627,995.6531325,995.8126661,nan,nan
0,348,15:42:58:653000,6,1,110,77.34375,[ 1.         -0.29672275 -0.34692196],1,1,1,0.297712074,0,0,0,0.223519474,0.27029333,0.082877352,0.353170682,0.187415978,nan,nan,nan,[ nan  nan  nan],nan,nan,nan,626.5731627,996.5948981,996.8926102,nan,nan
0,349,15:42:59:605000,6,1,310,217.96875,[-0.03285454  0.41708073  0.46882802],1,1,1,0.219873377,0,0,0,0.225706352,0.270372575,0.082770589,0.353143164,0.187601986,nan,nan,nan,[ nan  nan  nan],nan,nan,nan,626.5731627,997.5367271,997.7566005,nan,nan
0,350,15:43:00:541000,6,1,8,5.625,[ 0.91102659  0.17740094 -1.        ],1,1,1,0.030016362,0,1,0,0.182533938,0.270227044,0.082695556,0.3529226,0.187531488,nan,nan,nan,[ nan  nan  nan],nan,nan,nan,626.5731627,998.4785221,998.5085385,nan,nan
0,351,15:43:04:940000,6,1,197,138.515625,[ 1.         -0.0357976   0.45577474],1,1,1,0.016263887,1,0,0,0.088717875,0.269536784,0.083571739,0.353108522,0.185965045,nan,-46.53777238,194,[ 1.         -0.05248646  0.4355717 ],nan,-1.977852615,1.408824927,626.5731627,999.4203063,999.4365702,1001.245498,1002.662355
0,352,15:43:05:876000,6,1,360,253.125,[-0.1677095   0.47518832  0.03812586],1,1,1,0.383538598,0,0,0,0.143272949,0.268811073,0.084542885,0.353353959,0.184268188,nan,nan,nan,[ nan  nan  nan],nan,nan,nan,626.5731627,1003.820905,1004.204444,nan,nan
0,353,15:43:06:828000,6,0,209,146.953125,[ 0.96730184  0.03048352  0.52805   ],0,0,1,0.593712145,0,0,0,0.331171543,0.269138866,0.084643827,0.353782693,0.184495039,nan,nan,nan,[ nan  nan  nan],nan,nan,nan,626.5731627,1004.762694,1005.356406,nan,nan
0,354,15:43:07:764000,6,1,336,236.25,[-0.15821161  0.45675811  0.26813527],1,1,1,0.579904362,0,0,0,0.519051701,0.270063576,0.086275412,0.356338988,0.183788165,nan,nan,nan,[ nan  nan  nan],nan,nan,nan,626.5731627,1005.704489,1006.284393,nan,nan
0,355,15:43:08:716000,6,1,432,303.75,[ 0.1992279   0.43768733 -1.        ],1,1,1,0.270093657,0,0,0,0.481236721,0.270943806,0.087716912,0.358660718,0.183226894,nan,nan,nan,[ nan  nan  nan],nan,nan,nan,626.5731627,1006.646287,1006.91638,nan,nan
0,356,15:43:09:652000,6,1,358,251.71875,[-0.17058391  0.47426832  0.05858744],1,1,1,0.336288166,0,0,1,0.395428728,0.270941398,0.087592591,0.358533989,0.183348807,nan,nan,nan,[ nan  nan  nan],nan,nan,nan,626.5731627,1007.588074,1007.924362,nan,nan
0,357,15:43:14:051000,6,1,43,30.234375,[ 1.          0.00424534 -1.        ],1,1,1,0.298477842,1,0,0,0.301619889,0.271125993,0.087537518,0.358663511,0.183588475,nan,56.30993247,48,[ 1.         -0.02242733 -1.        ],nan,3.455692526,1.40890675,626.5731627,1008.529865,1008.828343,1010.355051,1011.771942
0,358,15:43:14:987000,6,1,150,105.46875,[ 1.         -0.26615253  0.06382271],1,1,1,0.31378067,0,0,0,0.316182226,0.27120304,0.087426158,0.358629198,0.183776883,nan,nan,nan,[ nan  nan  nan],nan,nan,nan,626.5731627,1012.930459,1013.24424,nan,nan
0,359,15:43:15:938000,6,1,198,139.21875,[ 1.         -0.0302355   0.46232694],1,1,1,0.299971747,0,0,0,0.304076753,0.271322641,0.087332359,0.358655,0.183990281,nan,nan,nan,[ nan  nan  nan],nan,nan,nan,626.5731627,1013.872248,1014.17222,nan,nan
0,360,15:43:16:874000,6,1,41,28.828125,[ 1.         0.0148395 -1.       ],1,1,1,0.2941612,0,0,0,0.302637872,0.27140289,0.087223103,0.358625993,0.184179787,nan,nan,nan,[ nan  nan  nan],nan,nan,nan,626.5731627,1014.814045,1015.108206,nan,nan
0,361,15:43:17:826000,6,1,323,227.109375,[-0.11001989  0.43965345  0.37585536],1,1,1,0.272342211,0,0,0,0.288825053,0.271466461,0.087109479,0.35857594,0.184356982,nan,nan,nan,[ nan  nan  nan],nan,nan,nan,626.5731627,1015.755831,1016.028174,nan,nan
0,362,15:43:18:762000,6,1,91,63.984375,[ 1.         -0.2377099  -0.56272232],1,1,1,0.322525143,0,0,0,0.296342851,0.2714689,0.086988084,0.358456985,0.184480816,nan,nan,nan,[ nan  nan  nan],nan,nan,nan,626.5731627,1016.697625,1017.020151,nan,nan
0,363,15:43:19:698000,6,1,409,287.578125,[ 0.04294362  0.46479315 -0.52946185],1,1,1,0.316700626,0,0,0,0.303855994,0.271610723,0.086908736,0.358519459,0.184701987,nan,nan,nan,[ nan  nan  nan],nan,nan,nan,626.5731627,1017.63942,1017.956121,nan,nan
0,364,15:43:20:650000,6,1,77,54.140625,[ 1.         -0.17459302 -0.75626719],1,1,1,0.270896488,0,0,0,0.303374086,0.271735626,0.08682063,0.358556256,0.184914996,nan,nan,nan,[ nan  nan  nan],nan,nan,nan,626.5731627,1018.581212,1018.852109,nan,nan
0,365,15:43:21:586000,6,1,394,277.03125,[-0.04370902  0.47465593 -0.33940142],1,1,1,0.257084144,0,0,0,0.281560419,0.271733308,0.086700641,0.358433949,0.185032667,nan,nan,nan,[ nan  nan  nan],nan,nan,nan,626.5731627,1019.523006,1019.78009,nan,nan
0,366,15:43:22:522000,6,0,128,90,[ 1.         -0.31066301 -0.15668979],0,0,1,0.683260886,0,0,0,0.403747172,0.271692952,0.086584541,0.358277493,0.185108412,nan,nan,nan,[ nan  nan  nan],nan,nan,nan,626.5731627,1020.464796,1021.148057,nan,nan
0,367,15:43:23:473000,6,1,179,125.859375,[ 1.         -0.13461442  0.32320413],1,1,1,0.357446872,0,0,0,0.4325973,0.272823633,0.0891087,0.361932334,0.183714933,nan,nan,nan,[ nan  nan  nan],nan,nan,nan,626.5731627,1021.40659,1021.764037,nan,nan
0,368,15:43:24:409000,6,1,67,47.109375,[ 1.         -0.12380467 -1.        ],1,1,1,0.239654783,0,0,0,0.426787513,0.273055478,0.089096418,0.362151896,0.183959059,nan,nan,nan,[ nan  nan  nan],nan,nan,nan,626.5731627,1022.34837,1022.588025,nan,nan
0,369,15:43:25:361000,6,1,284,199.6875,[ 0.18846515  0.3539841   0.60223628],1,1,1,0.089850088,0,0,0,0.228983914,0.272964219,0.088991699,0.361955918,0.18397252,nan,nan,nan,[ nan  nan  nan],nan,nan,nan,626.5731627,1023.290175,1023.380025,nan,nan
0,370,15:43:26:297000,6,1,117,82.265625,[ 1.         -0.30758797 -0.27188654],1,1,1,0.212022396,0,1,0,0.180509089,0.27246527,0.089381536,0.361846807,0.183083734,nan,nan,nan,[ nan  nan  nan],nan,nan,nan,626.5731627,1024.231969,1024.443991,nan,nan
0,371,15:43:31:117000,6,1,382,268.59375,[-0.10118876  0.47829114 -0.19973227],1,1,1,0.166201437,1,0,0,0.15602464,0.272301023,0.089315453,0.361616477,0.18298557,nan,-176.8830114,380,[-0.10951951  0.47853303 -0.17717739],nan,-1.710738599,1.825532481,626.5731627,1025.173762,1025.339963,1026.998945,1028.832524
0,372,15:43:32:053000,6,1,82,57.65625,[ 1.         -0.19847916 -0.67987248],1,1,1,0.308755848,0,0,0,0.228993227,0.272013491,0.089364736,0.361378227,0.182648754,nan,nan,nan,[ nan  nan  nan],nan,nan,nan,626.5731627,1029.991075,1030.299831,nan,nan
0,373,15:43:32:989000,6,1,494,347.34375,[ 0.69812996  0.282144   -1.        ],1,nan,nan,nan,0,0,0,0.237478643,0.272112794,0.089264276,0.36137707,0.182848519,nan,nan,nan,[ nan  nan  nan],nan,nan,nan,626.5731627,1030.932891,nan,nan,nan
0,374,15:43:33:941000,6,0,67,47.109375,[ 1.         -0.12380467 -1.        ],0,0,1,0.577139498,0,0,0,0.442947673,0.272112794,0.089264276,0.36137707,0.182848519,nan,nan,nan,[ nan  nan  nan],nan,nan,nan,626.5731627,1031.874649,1032.451789,nan,nan
0,375,15:43:34:877000,6,1,203,142.734375,[ 1.         -0.00249325  0.49367467],1,1,1,0.363320425,0,0,0,0.470229961,0.272934969,0.090535864,0.363470833,0.182399104,nan,nan,nan,[ nan  nan  nan],nan,nan,nan,626.5731627,1032.816449,1033.17977,nan,nan
0,376,15:43:35:828000,6,1,490,344.53125,[ 0.66466039  0.29615785 -1.        ],1,1,1,0.253515593,0,0,0,0.397991839,0.27317794,0.090535134,0.363713075,0.182642806,nan,nan,nan,[ nan  nan  nan],nan,nan,nan,626.5731627,1033.758243,1034.011758,nan,nan
0,377,15:43:36:764000,6,1,204,143.4375,[ 1.          0.00303257  0.49965442],1,1,1,0.367697223,0,0,0,0.328177747,0.273125226,0.090419408,0.363544635,0.182705818,nan,nan,nan,[ nan  nan  nan],nan,nan,nan,626.5731627,1034.700032,1035.067729,nan,nan
0,378,15:43:37:700000,6,1,42,29.53125,[ 1.          0.00954879 -1.        ],1,1,1,0.313886726,0,0,0,0.311699848,0.273378093,0.090430412,0.363808505,0.18294768,nan,nan,nan,[ nan  nan  nan],nan,nan,nan,626.5731627,1035.64182,1035.955707,nan,nan
0,379,15:43:38:652000,6,1,136,95.625,[ 1.         -0.3019149  -0.07484121],1,1,1,0.268066337,0,0,0,0.316550096,0.273486116,0.090333917,0.363820033,0.183152199,nan,nan,nan,[ nan  nan  nan],nan,nan,nan,626.5731627,1036.583623,1036.851689,nan,nan
0,380,15:43:39:588000,6,1,477,335.390625,[ 0.55587987  0.33778403 -1.        ],1,1,1,0.278252257,0,0,0,0.286735107,0.273471701,0.090214144,0.363685845,0.183257557,nan,nan,nan,[ nan  nan  nan],nan,nan,nan,626.5731627,1037.525414,1037.803666,nan,nan
0,381,15:43:40:524000,6,1,21,14.765625,[ 1.        0.116714 -1.      ],1,1,1,0.2244429,0,0,0,0.256920498,0.273484382,0.090094753,0.363579135,0.183389629,nan,nan,nan,[ nan  nan  nan],nan,nan,nan,626.5731627,1038.467202,1038.691645,nan,nan
0,382,15:43:41:476000,6,1,310,217.96875,[-0.03285454  0.41708073  0.46882802],1,1,1,0.266626031,0,0,0,0.256440396,0.273354643,0.090010758,0.3633654,0.183343885,nan,nan,nan,[ nan  nan  nan],nan,nan,nan,626.5731627,1039.408995,1039.675621,nan,nan
0,383,15:43:42:412000,6,0,450,316.40625,[ 0.33594973  0.40559833 -1.        ],0,0,1,0.468798921,0,0,0,0.319955951,0.273336889,0.089892594,0.363229483,0.183444294,nan,nan,nan,[ nan  nan  nan],nan,nan,nan,626.5731627,1040.350789,1040.819588,nan,nan
0,384,15:43:43:363000,6,1,290,203.90625,[ 0.13126538  0.37077654  0.57820662],1,1,1,0.310996135,0,0,0,0.348807029,0.273851263,0.090331,0.364182263,0.183520263,nan,nan,nan,[ nan  nan  nan],nan,nan,nan,626.5731627,1041.292582,1041.603578,nan,nan
0,385,15:43:44:299000,6,1,138,97.03125,[ 1.         -0.29832988 -0.05465081],1,1,1,0.297186071,0,0,0,0.358993709,0.273948756,0.090232394,0.36418115,0.183716362,nan,nan,nan,[ nan  nan  nan],nan,nan,nan,626.5731627,1042.234374,1042.53156,nan,nan
0,386,15:43:45:235000,6,1,403,283.359375,[ 0.00657627  0.46945644 -0.45052451],1,1,1,0.259370046,0,0,0,0.289184084,0.274009586,0.090122033,0.36413162,0.183887553,nan,nan,nan,[ nan  nan  nan],nan,nan,nan,626.5731627,1043.176166,1043.435536,nan,nan
0,387,15:43:46:187000,6,1,360,253.125,[-0.1677095   0.47518832  0.03812586],1,1,1,0.37353514,0,0,0,0.310030419,0.273971363,0.090007404,0.363978767,0.183963959,nan,nan,nan,[ nan  nan  nan],nan,nan,nan,626.5731627,1044.117963,1044.491498,nan,nan
0,388,15:43:47:123000,6,1,475,333.984375,[ 0.53921875  0.34365981 -1.        ],1,1,1,0.311741377,0,0,0,0.314882187,0.274230644,0.090033235,0.364263878,0.184197409,nan,nan,nan,[ nan  nan  nan],nan,nan,nan,626.5731627,1045.059754,1045.371496,nan,nan
0,389,15:43:48:059000,6,1,133,93.515625,[ 1.         -0.30625957 -0.10533643],1,1,1,0.305922847,0,0,0,0.330399788,0.274328074,0.0899365,0.364264574,0.184391574,nan,nan,nan,[ nan  nan  nan],nan,nan,nan,626.5731627,1046.001545,1046.307468,nan,nan
0,390,15:43:49:010000,6,1,367,258.046875,[-0.15309091  0.4775609  -0.03508163],1,1,1,0.220108582,0,0,0,0.279257602,0.274409926,0.089834284,0.36424421,0.184575642,nan,nan,nan,[ nan  nan  nan],nan,nan,nan,626.5731627,1046.94334,1047.163448,nan,nan
0,391,15:43:49:946000,6,1,159,111.796875,[ 1.         -0.23176597  0.14905501],1,1,1,0.390289678,0,0,0,0.305440369,0.274269612,0.089760486,0.364030098,0.184509126,nan,nan,nan,[ nan  nan  nan],nan,nan,nan,626.5731627,1047.885129,1048.275419,nan,nan
0,392,15:43:50:898000,6,1,370,260.15625,[-0.144806    0.47817873 -0.06718033],1,1,1,0.320473876,0,0,0,0.310290712,0.274568633,0.089837534,0.364406167,0.184731099,nan,nan,nan,[ nan  nan  nan],nan,nan,nan,626.5731627,1048.826923,1049.147396,nan,nan
0,393,15:43:51:834000,6,1,149,104.765625,[ 1.         -0.26947852  0.05414366],1,1,1,0.25064724,0,0,0,0.320470264,0.274686642,0.089752093,0.364438735,0.184934548,nan,nan,nan,[ nan  nan  nan],nan,nan,nan,626.5731627,1049.768731,1050.019379,nan,nan
0,394,15:43:52:770000,6,1,253,177.890625,[ 0.5138659   0.24483993  0.65597719],1,1,1,0.612849802,0,0,1,0.394656973,0.274625002,0.089645197,0.364270199,0.184979805,nan,nan,nan,[ nan  nan  nan],nan,nan,nan,626.5731627,1050.710505,1051.323355,nan,nan
0,395,15:43:57:216000,6,1,205,144.140625,[ 1.          0.008548    0.50553524],1,1,1,0.431037919,1,0,0,0.431511654,0.275490027,0.091145668,0.366635695,0.184344359,nan,-44.60756929,191,[ 1.         -0.06914798  0.41457165],nan,-9.533055709,1.442155248,626.5731627,1051.6523,1052.083338,1053.485814,1054.936014
0,396,15:43:58:152000,6,0,343,241.171875,[-0.17138818  0.46383642  0.20482281],0,1,0,0.252675415,0,0,0,0.432187712,0.275886833,0.091366871,0.367253704,0.184519962,nan,nan,nan,[ nan  nan  nan],nan,nan,nan,626.5731627,1056.094567,1056.347242,nan,nan
0,397,15:43:59:104000,6,1,483,339.609375,[ 0.60602571  0.31931445 -1.        ],1,1,1,0.254859537,0,0,0,0.312857624,0.275827771,0.091258046,0.367085817,0.184569725,nan,nan,nan,[ nan  nan  nan],nan,nan,nan,626.5731627,1057.036357,1057.291216,nan,nan
0,398,15:44:00:040000,6,1,59,41.484375,[ 1.         -0.08144099 -1.        ],1,1,1,0.257051072,0,0,0,0.254862008,0.275774552,0.091148269,0.366922821,0.184626283,nan,nan,nan,[ nan  nan  nan],nan,nan,nan,626.5731627,1057.978147,1058.235198,nan,nan
0,399,15:44:00:991000,6,1,415,291.796875,[ 0.08130773  0.45915368 -0.61496802],1,1,1,0.259221795,0,0,0,0.257044135,0.275727151,0.09103768,0.366764831,0.18468947,nan,nan,nan,[ nan  nan  nan],nan,nan,nan,626.5731627,1058.919942,1059.179163,nan,nan
0,400,15:44:01:927000,6,1,260,182.8125,[ 0.43801664  0.27278198  0.65440657],1,1,1,0.261421313,0,0,0,0.259231394,0.275685471,0.090926435,0.366611905,0.184759036,nan,nan,nan,[ nan  nan  nan],nan,nan,nan,626.5731627,1059.861732,1060.123154,nan,nan
0,401,15:44:02:863000,6,1,32,22.5,[ 1.         0.0617358 -1.       ],1,1,1,0.335597093,0,0,0,0.285413401,0.275649541,0.09081466,0.366464201,0.184834881,nan,nan,nan,[ nan  nan  nan],nan,nan,nan,626.5731627,1060.803522,1061.139119,nan,nan
0,402,15:44:03:815000,6,1,466,327.65625,[ 0.46478901  0.3683856  -1.        ],1,1,1,0.265782146,0,0,0,0.287600184,0.275800163,0.090750137,0.3665503,0.185050026,nan,nan,nan,[ nan  nan  nan],nan,nan,nan,626.5731627,1061.74532,1062.011102,nan,nan
0,403,15:44:04:751000,6,1,316,222.1875,[-0.07182156  0.42820351  0.42789226],1,1,1,0.195976607,0,0,0,0.265785282,0.275775055,0.090637728,0.366412783,0.185137327,nan,nan,nan,[ nan  nan  nan],nan,nan,nan,626.5731627,1062.687115,1062.883091,nan,nan
0,404,15:44:05:687000,6,1,89,62.578125,[ 1.         -0.2294841  -0.58737049],1,1,1,0.182163693,0,0,0,0.214640815,0.275575559,0.090612027,0.366187586,0.184963532,nan,nan,nan,[ nan  nan  nan],nan,nan,nan,626.5731627,1063.628906,1063.81107,nan,nan
0,405,15:44:06:638000,6,1,445,312.890625,[ 0.2969539  0.4155201 -1.       ],1,1,1,0.080381185,0,1,0,0.152840495,0.275342611,0.090618817,0.365961429,0.184723794,nan,nan,nan,[ nan  nan  nan],nan,nan,nan,626.5731627,1064.570693,1064.651074,nan,nan
0,406,15:44:07:574000,6,0,397,279.140625,[-0.02756135  0.47315999 -0.37569455],0,1,0,0.146567712,0,0,0,0.136370863,0.274857633,0.091025599,0.365883232,0.183832034,nan,nan,nan,[ nan  nan  nan],nan,nan,nan,626.5731627,1065.512491,1065.659058,nan,nan
0,407,15:44:08:510000,6,1,341,239.765625,[-0.16853588  0.4619615   0.22326011],1,1,1,0.092726424,0,0,0,0.10655844,0.274539296,0.091136369,0.365675665,0.183402926,nan,nan,nan,[ nan  nan  nan],nan,nan,nan,626.5731627,1066.454285,1066.547011,nan,nan
0,408,15:44:09:462000,6,0,267,187.734375,[ 0.36292453  0.29880723  0.64662252],0,1,0,0.246938993,0,0,0,0.162077709,0.274089264,0.091470749,0.365560012,0.182618515,nan,nan,nan,[ nan  nan  nan],nan,nan,nan,626.5731627,1067.39604,1067.642979,nan,nan
0,409,15:44:10:398000,6,1,203,142.734375,[ 1.         -0.00249325  0.49367467],1,1,1,0.297097121,0,0,0,0.212254179,0.274022226,0.091367688,0.365389914,0.182654538,nan,nan,nan,[ nan  nan  nan],nan,nan,nan,626.5731627,1068.337863,1068.63496,nan,nan
0,410,15:44:11:350000,6,1,319,224.296875,[-0.08918918  0.43330867  0.4061371 ],1,1,1,0.25930818,0,0,0,0.267781431,0.274079061,0.091262265,0.365341326,0.182816796,nan,nan,nan,[ nan  nan  nan],nan,nan,nan,626.5731627,1069.27963,1069.538938,nan,nan
0,411,15:44:12:286000,6,1,161,113.203125,[ 1.         -0.22315835  0.16749055],1,1,1,0.237469805,0,0,0,0.264625035,0.274042769,0.091153013,0.365195782,0.182889755,nan,nan,nan,[ nan  nan  nan],nan,nan,nan,626.5731627,1070.221449,1070.458919,nan,nan
0,412,15:44:13:222000,6,1,385,270.703125,[-0.08797966  0.47773344 -0.23392672],1,1,1,0.247634628,0,0,0,0.248137537,0.273953129,0.091059197,0.365012326,0.182893932,nan,nan,nan,[ nan  nan  nan],nan,nan,nan,626.5731627,1071.163248,1071.410882,nan,nan
0,413,15:44:14:173000,6,1,293,206.015625,[ 0.10383026  0.3786596   0.56461706],1,1,1,0.3138394,0,0,0,0.266314611,0.273888781,0.090957097,0.364845877,0.182931684,nan,nan,nan,[ nan  nan  nan],nan,nan,nan,626.5731627,1072.105036,1072.418876,nan,nan
