block,trial,freq_trials,correct_response,actual_response,acc,rts,probe_trials,trials_colorind0,trials_colorind1,trials_colorind2,trials_colorind3,trials_colorind4,trials_colorind5,wholereport_resp0,wholereport_resp1,wholereport_resp2,wholereport_resp3,wholereport_resp4,wholereport_resp5,wholereport_respacc0,wholereport_respacc1,wholereport_respacc2,wholereport_respacc3,wholereport_respacc4,wholereport_respacc5,wholereport_respacc_total,wholereport_respcolorind0,wholereport_respcolorind1,wholereport_respcolorind2,wholereport_respcolorind3,wholereport_respcolorind4,wholereport_respcolorind5,wholereport_resporder0,wholereport_resporder1,wholereport_resporder2,wholereport_resporder3,wholereport_resporder4,wholereport_resporder5,wholereport_rts0,wholereport_rts1,wholereport_rts2,wholereport_rts3,wholereport_rts4,wholereport_rts5,time_blockstart,time_encarray_offset,time_encarray_onset,time_response,time_iti_offset,time_iti_onset,time_memprobe_offset,time_memprobe_onset
1,1,1,1,nan,nan,nan,0,3,8,0,5,1,4,nan,nan,nan,nan,nan,nan,nan,nan,nan,nan,nan,nan,0.0,nan,nan,nan,nan,nan,nan,nan,nan,nan,nan,nan,nan,nan,nan,nan,nan,nan,nan,226.42616290225124,227.43862263541087,nan,nan,nan,nan,nan,nan
1,2,1,1,nan,nan,nan,0,5,6,2,1,4,3,nan,nan,nan,nan,nan,nan,nan,nan,nan,nan,nan,nan,0.0,nan,nan,nan,nan,nan,nan,nan,nan,nan,nan,nan,nan,nan,nan,nan,nan,nan,nan,226.42616290225124,228.4388204949355,nan,nan,nan,nan,nan,nan
1,3,1,1,nan,nan,nan,0,1,0,4,5,7,8,nan,nan,nan,nan,nan,nan,nan,nan,nan,nan,nan,nan,0.0,nan,nan,nan,nan,nan,nan,nan,nan,nan,nan,nan,nan,nan,nan,nan,nan,nan,nan,226.42616290225124,229.43890431438922,nan,nan,nan,nan,nan,nan
1,4,1,1,nan,nan,nan,1,5,1,6,8,4,7,1.0,1.0,1.0,1.0,1.0,1.0,1.0,0.0,0.0,0.0,0.0,0.0,1.0,5.0,2.0,0.0,6.0,8.0,3.0,3.0,2.0,1.0,6.0,5.0,4.0,6.990620774275158,5.456106689045555,3.0803426562051754,10.797914150054567,9.398505903998739,8.59900346082577,226.42616290225124,230.4390366008738,231.24746210947342,nan,243.09907544862654,244.10844441074005,232.26427361178503,243.09074339586368
1,5,0,0,nan,nan,nan,0,6,2,1,3,7,5,nan,nan,nan,nan,nan,nan,nan,nan,nan,nan,nan,nan,0.0,nan,nan,nan,nan,nan,nan,nan,nan,nan,nan,nan,nan,nan,nan,nan,nan,nan,nan,226.42616290225124,244.30761026463006,nan,nan,nan,nan,nan,nan
1,6,1,1,nan,nan,nan,0,3,8,5,1,6,0,nan,nan,nan,nan,nan,nan,nan,nan,nan,nan,nan,nan,0.0,nan,nan,nan,nan,nan,nan,nan,nan,nan,nan,nan,nan,nan,nan,nan,nan,nan,nan,226.42616290225124,245.30773371300893,nan,nan,nan,nan,nan,nan
1,7,1,1,nan,nan,nan,0,8,6,0,3,4,2,nan,nan,nan,nan,nan,nan,nan,nan,nan,nan,nan,nan,0.0,nan,nan,nan,nan,nan,nan,nan,nan,nan,nan,nan,nan,nan,nan,nan,nan,nan,nan,226.42616290225124,246.30786742498458,nan,nan,nan,nan,nan,nan
1,8,1,1,nan,nan,nan,0,4,5,6,2,8,3,nan,nan,nan,nan,nan,nan,nan,nan,nan,nan,nan,nan,0.0,nan,nan,nan,nan,nan,nan,nan,nan,nan,nan,nan,nan,nan,nan,nan,nan,nan,nan,226.42616290225124,247.30800541347708,nan,nan,nan,nan,nan,nan
1,9,1,1,nan,nan,nan,0,8,6,2,0,1,5,nan,nan,nan,nan,nan,nan,nan,nan,nan,nan,nan,nan,0.0,nan,nan,nan,nan,nan,nan,nan,nan,nan,nan,nan,nan,nan,nan,nan,nan,nan,nan,226.42616290225124,248.3081066240411,nan,nan,nan,nan,nan,nan
1,10,1,1,nan,nan,nan,0,7,3,0,6,4,8,nan,nan,nan,nan,nan,nan,nan,nan,nan,nan,nan,nan,0.0,nan,nan,nan,nan,nan,nan,nan,nan,nan,nan,nan,nan,nan,nan,nan,nan,nan,nan,226.42616290225124,249.30828709245543,nan,nan,nan,nan,nan,nan
1,11,0,0,nan,nan,nan,0,1,5,4,8,0,3,nan,nan,nan,nan,nan,nan,nan,nan,nan,nan,nan,nan,0.0,nan,nan,nan,nan,nan,nan,nan,nan,nan,nan,nan,nan,nan,nan,nan,nan,nan,nan,226.42616290225124,250.30842707664124,nan,nan,nan,nan,nan,nan
1,12,1,1,nan,nan,nan,0,8,1,7,2,3,4,nan,nan,nan,nan,nan,nan,nan,nan,nan,nan,nan,nan,0.0,nan,nan,nan,nan,nan,nan,nan,nan,nan,nan,nan,nan,nan,nan,nan,nan,nan,nan,226.42616290225124,251.30856392472924,nan,nan,nan,nan,nan,nan
1,13,1,1,nan,nan,nan,0,2,6,5,8,0,1,nan,nan,nan,nan,nan,nan,nan,nan,nan,nan,nan,nan,0.0,nan,nan,nan,nan,nan,nan,nan,nan,nan,nan,nan,nan,nan,nan,nan,nan,nan,nan,226.42616290225124,252.30869649631495,nan,nan,nan,nan,nan,nan
1,14,1,1,nan,nan,nan,0,4,5,0,3,6,8,nan,nan,nan,nan,nan,nan,nan,nan,nan,nan,nan,nan,0.0,nan,nan,nan,nan,nan,nan,nan,nan,nan,nan,nan,nan,nan,nan,nan,nan,nan,nan,226.42616290225124,253.30883762090525,nan,nan,nan,nan,nan,nan
1,15,1,1,nan,nan,nan,0,7,6,8,2,3,1,nan,nan,nan,nan,nan,nan,nan,nan,nan,nan,nan,nan,0.0,nan,nan,nan,nan,nan,nan,nan,nan,nan,nan,nan,nan,nan,nan,nan,nan,nan,nan,226.42616290225124,254.3089724732854,nan,nan,nan,nan,nan,nan
1,16,1,1,nan,nan,nan,0,4,3,1,0,8,5,nan,nan,nan,nan,nan,nan,nan,nan,nan,nan,nan,nan,0.0,nan,nan,nan,nan,nan,nan,nan,nan,nan,nan,nan,nan,nan,nan,nan,nan,nan,nan,226.42616290225124,255.30910133857105,nan,nan,nan,nan,nan,nan
1,17,1,1,nan,nan,nan,0,5,6,8,4,2,0,nan,nan,nan,nan,nan,nan,nan,nan,nan,nan,nan,nan,0.0,nan,nan,nan,nan,nan,nan,nan,nan,nan,nan,nan,nan,nan,nan,nan,nan,nan,nan,226.42616290225124,256.3092458843603,nan,nan,nan,nan,nan,nan
1,18,1,1,1.0,1.0,0.7725311108515598,0,0,7,5,8,6,2,nan,nan,nan,nan,nan,nan,nan,nan,nan,nan,nan,nan,0.0,nan,nan,nan,nan,nan,nan,nan,nan,nan,nan,nan,nan,nan,nan,nan,nan,nan,nan,226.42616290225124,257.3093770304404,nan,258.08190814129193,nan,nan,nan,nan
1,19,1,1,nan,nan,nan,0,7,2,8,5,3,4,nan,nan,nan,nan,nan,nan,nan,nan,nan,nan,nan,nan,0.0,nan,nan,nan,nan,nan,nan,nan,nan,nan,nan,nan,nan,nan,nan,nan,nan,nan,nan,226.42616290225124,258.30950190432486,nan,nan,nan,nan,nan,nan
1,20,1,1,nan,nan,nan,0,2,7,3,1,5,0,nan,nan,nan,nan,nan,nan,nan,nan,nan,nan,nan,nan,0.0,nan,nan,nan,nan,nan,nan,nan,nan,nan,nan,nan,nan,nan,nan,nan,nan,nan,nan,226.42616290225124,259.30963989281736,nan,nan,nan,nan,nan,nan
1,21,1,1,nan,nan,nan,0,1,3,4,0,2,5,nan,nan,nan,nan,nan,nan,nan,nan,nan,nan,nan,nan,0.0,nan,nan,nan,nan,nan,nan,nan,nan,nan,nan,nan,nan,nan,nan,nan,nan,nan,nan,226.42616290225124,260.30978130249423,nan,nan,nan,nan,nan,nan
1,22,0,0,nan,nan,nan,0,0,7,3,8,6,4,nan,nan,nan,nan,nan,nan,nan,nan,nan,nan,nan,nan,0.0,nan,nan,nan,nan,nan,nan,nan,nan,nan,nan,nan,nan,nan,nan,nan,nan,nan,nan,226.42616290225124,261.30992242708453,nan,nan,nan,nan,nan,nan
1,23,1,1,nan,nan,nan,0,6,3,4,2,1,7,nan,nan,nan,nan,nan,nan,nan,nan,nan,nan,nan,nan,0.0,nan,nan,nan,nan,nan,nan,nan,nan,nan,nan,nan,nan,nan,nan,nan,nan,nan,nan,226.42616290225124,262.310054428468,nan,nan,nan,nan,nan,nan
1,24,1,1,nan,nan,nan,0,2,5,1,7,6,0,nan,nan,nan,nan,nan,nan,nan,nan,nan,nan,nan,nan,0.0,nan,nan,nan,nan,nan,nan,nan,nan,nan,nan,nan,nan,nan,nan,nan,nan,nan,nan,226.42616290225124,263.3102021103696,nan,nan,nan,nan,nan,nan
1,25,1,1,nan,nan,nan,0,3,0,7,6,8,1,nan,nan,nan,nan,nan,nan,nan,nan,nan,nan,nan,nan,0.0,nan,nan,nan,nan,nan,nan,nan,nan,nan,nan,nan,nan,nan,nan,nan,nan,nan,nan,226.42616290225124,264.3103358223452,nan,nan,nan,nan,nan,nan
1,26,0,0,1.0,0.0,0.547343308237032,0,2,4,8,3,6,0,nan,nan,nan,nan,nan,nan,nan,nan,nan,nan,nan,nan,0.0,nan,nan,nan,nan,nan,nan,nan,nan,nan,nan,nan,nan,nan,nan,nan,nan,nan,nan,226.42616290225124,265.310462691923,nan,265.85780600016005,nan,nan,nan,nan
1,27,1,1,nan,nan,nan,0,3,7,6,2,4,8,nan,nan,nan,nan,nan,nan,nan,nan,nan,nan,nan,nan,0.0,nan,nan,nan,nan,nan,nan,nan,nan,nan,nan,nan,nan,nan,nan,nan,nan,nan,nan,226.42616290225124,266.3105983996211,nan,nan,nan,nan,nan,nan
1,28,1,1,nan,nan,nan,0,0,5,7,6,1,3,nan,nan,nan,nan,nan,nan,nan,nan,nan,nan,nan,nan,0.0,nan,nan,nan,nan,nan,nan,nan,nan,nan,nan,nan,nan,nan,nan,nan,nan,nan,nan,226.42616290225124,267.31074237520806,nan,nan,nan,nan,nan,nan
1,29,1,1,nan,nan,nan,0,3,1,6,5,8,2,nan,nan,nan,nan,nan,nan,nan,nan,nan,nan,nan,nan,0.0,nan,nan,nan,nan,nan,nan,nan,nan,nan,nan,nan,nan,nan,nan,nan,nan,nan,nan,226.42616290225124,268.3108729510859,nan,nan,nan,nan,nan,nan
1,30,1,1,nan,nan,nan,0,8,6,0,3,5,7,nan,nan,nan,nan,nan,nan,nan,nan,nan,nan,nan,nan,0.0,nan,nan,nan,nan,nan,nan,nan,nan,nan,nan,nan,nan,nan,nan,nan,nan,nan,nan,226.42616290225124,269.3110083736683,nan,nan,nan,nan,nan,nan
1,31,1,1,nan,nan,nan,0,0,7,3,5,4,8,nan,nan,nan,nan,nan,nan,nan,nan,nan,nan,nan,nan,0.0,nan,nan,nan,nan,nan,nan,nan,nan,nan,nan,nan,nan,nan,nan,nan,nan,nan,nan,226.42616290225124,270.3111460770597,nan,nan,nan,nan,nan,nan
1,32,0,0,1.0,0.0,0.5304616712674033,0,1,2,5,8,6,3,nan,nan,nan,nan,nan,nan,nan,nan,nan,nan,nan,nan,0.0,nan,nan,nan,nan,nan,nan,nan,nan,nan,nan,nan,nan,nan,nan,nan,nan,nan,nan,226.42616290225124,271.3112834953499,nan,271.84174516661733,nan,nan,nan,nan
1,33,1,1,nan,nan,nan,0,4,8,2,3,0,6,nan,nan,nan,nan,nan,nan,nan,nan,nan,nan,nan,nan,0.0,nan,nan,nan,nan,nan,nan,nan,nan,nan,nan,nan,nan,nan,nan,nan,nan,nan,nan,226.42616290225124,272.3114200583368,nan,nan,nan,nan,nan,nan
1,34,1,1,nan,nan,nan,0,5,1,6,7,8,4,nan,nan,nan,nan,nan,nan,nan,nan,nan,nan,nan,nan,0.0,nan,nan,nan,nan,nan,nan,nan,nan,nan,nan,nan,nan,nan,nan,nan,nan,nan,nan,226.42616290225124,273.3115569064248,nan,nan,nan,nan,nan,nan
1,35,1,1,nan,nan,nan,0,2,8,4,1,6,7,nan,nan,nan,nan,nan,nan,nan,nan,nan,nan,nan,nan,0.0,nan,nan,nan,nan,nan,nan,nan,nan,nan,nan,nan,nan,nan,nan,nan,nan,nan,nan,226.42616290225124,274.3116934694117,nan,nan,nan,nan,nan,nan
1,36,1,1,nan,nan,nan,0,5,0,1,8,3,6,nan,nan,nan,nan,nan,nan,nan,nan,nan,nan,nan,nan,0.0,nan,nan,nan,nan,nan,nan,nan,nan,nan,nan,nan,nan,nan,nan,nan,nan,nan,nan,226.42616290225124,275.3118300323986,nan,nan,nan,nan,nan,nan
1,37,0,0,1.0,0.0,0.5057275200670119,0,3,2,8,7,1,0,nan,nan,nan,nan,nan,nan,nan,nan,nan,nan,nan,nan,0.0,nan,nan,nan,nan,nan,nan,nan,nan,nan,nan,nan,nan,nan,nan,nan,nan,nan,nan,226.42616290225124,276.3119677357754,nan,276.8176952558424,nan,nan,nan,nan
1,38,1,1,nan,nan,nan,0,5,0,4,8,7,1,nan,nan,nan,nan,nan,nan,nan,nan,nan,nan,nan,nan,0.0,nan,nan,nan,nan,nan,nan,nan,nan,nan,nan,nan,nan,nan,nan,nan,nan,nan,nan,226.42616290225124,277.31211513257585,nan,nan,nan,nan,nan,nan
1,39,1,1,nan,nan,nan,0,2,3,1,7,5,4,nan,nan,nan,nan,nan,nan,nan,nan,nan,nan,nan,nan,0.0,nan,nan,nan,nan,nan,nan,nan,nan,nan,nan,nan,nan,nan,nan,nan,nan,nan,nan,226.42616290225124,278.3122502700571,nan,nan,nan,nan,nan,nan
1,40,1,1,nan,nan,nan,0,4,5,7,3,8,1,nan,nan,nan,nan,nan,nan,nan,nan,nan,nan,nan,nan,0.0,nan,nan,nan,nan,nan,nan,nan,nan,nan,nan,nan,nan,nan,nan,nan,nan,nan,nan,226.42616290225124,279.3123882585496,nan,nan,nan,nan,nan,nan
1,41,1,1,nan,nan,nan,0,1,8,6,2,3,7,nan,nan,nan,nan,nan,nan,nan,nan,nan,nan,nan,nan,0.0,nan,nan,nan,nan,nan,nan,nan,nan,nan,nan,nan,nan,nan,nan,nan,nan,nan,nan,226.42616290225124,280.3125211152219,nan,nan,nan,nan,nan,nan
1,42,1,1,nan,nan,nan,0,7,3,4,6,5,0,nan,nan,nan,nan,nan,nan,nan,nan,nan,nan,nan,nan,0.0,nan,nan,nan,nan,nan,nan,nan,nan,nan,nan,nan,nan,nan,nan,nan,nan,nan,nan,226.42616290225124,281.3126591037144,nan,nan,nan,nan,nan,nan
1,43,1,1,nan,nan,nan,0,6,7,5,8,1,3,nan,nan,nan,nan,nan,nan,nan,nan,nan,nan,nan,nan,0.0,nan,nan,nan,nan,nan,nan,nan,nan,nan,nan,nan,nan,nan,nan,nan,nan,nan,nan,226.42616290225124,282.31279794751026,nan,nan,nan,nan,nan,nan
1,44,1,1,nan,nan,nan,0,2,3,4,0,8,1,nan,nan,nan,nan,nan,nan,nan,nan,nan,nan,nan,nan,0.0,nan,nan,nan,nan,nan,nan,nan,nan,nan,nan,nan,nan,nan,nan,nan,nan,nan,nan,226.42616290225124,283.3129253872903,nan,nan,nan,nan,nan,nan
1,45,1,1,nan,nan,nan,0,3,5,7,1,4,0,nan,nan,nan,nan,nan,nan,nan,nan,nan,nan,nan,nan,0.0,nan,nan,nan,nan,nan,nan,nan,nan,nan,nan,nan,nan,nan,nan,nan,nan,nan,nan,226.42616290225124,284.31308048177743,nan,nan,nan,nan,nan,nan
1,46,1,1,nan,nan,nan,0,7,0,3,5,8,1,nan,nan,nan,nan,nan,nan,nan,nan,nan,nan,nan,nan,0.0,nan,nan,nan,nan,nan,nan,nan,nan,nan,nan,nan,nan,nan,nan,nan,nan,nan,nan,226.42616290225124,285.31320991726534,nan,nan,nan,nan,nan,nan
1,47,1,1,nan,nan,nan,0,1,2,4,3,0,5,nan,nan,nan,nan,nan,nan,nan,nan,nan,nan,nan,nan,0.0,nan,nan,nan,nan,nan,nan,nan,nan,nan,nan,nan,nan,nan,nan,nan,nan,nan,nan,226.42616290225124,286.31334533984773,nan,nan,nan,nan,nan,nan
1,48,0,0,1.0,0.0,0.45611410166020505,0,8,6,1,0,4,7,nan,nan,nan,nan,nan,nan,nan,nan,nan,nan,nan,nan,0.0,nan,nan,nan,nan,nan,nan,nan,nan,nan,nan,nan,nan,nan,nan,nan,nan,nan,nan,226.42616290225124,287.3134847538313,nan,287.7695988554915,nan,nan,nan,nan
1,49,1,1,nan,nan,nan,0,6,2,3,7,5,0,nan,nan,nan,nan,nan,nan,nan,nan,nan,nan,nan,nan,0.0,nan,nan,nan,nan,nan,nan,nan,nan,nan,nan,nan,nan,nan,nan,nan,nan,nan,nan,226.42616290225124,288.3136176105181,nan,nan,nan,nan,nan,nan
1,50,1,1,nan,nan,nan,0,8,5,6,4,2,7,nan,nan,nan,nan,nan,nan,nan,nan,nan,nan,nan,nan,0.0,nan,nan,nan,nan,nan,nan,nan,nan,nan,nan,nan,nan,nan,nan,nan,nan,nan,nan,226.42616290225124,289.3137544586061,nan,nan,nan,nan,nan,nan
1,51,1,1,nan,nan,nan,0,1,7,4,5,6,8,nan,nan,nan,nan,nan,nan,nan,nan,nan,nan,nan,nan,0.0,nan,nan,nan,nan,nan,nan,nan,nan,nan,nan,nan,nan,nan,nan,nan,nan,nan,nan,226.42616290225124,290.31389045139076,nan,nan,nan,nan,nan,nan
1,52,1,1,nan,nan,nan,0,6,2,5,4,0,7,nan,nan,nan,nan,nan,nan,nan,nan,nan,nan,nan,nan,0.0,nan,nan,nan,nan,nan,nan,nan,nan,nan,nan,nan,nan,nan,nan,nan,nan,nan,nan,226.42616290225124,291.3140290100855,nan,nan,nan,nan,nan,nan
1,53,1,1,nan,nan,nan,0,7,6,8,5,4,2,nan,nan,nan,nan,nan,nan,nan,nan,nan,nan,nan,nan,0.0,nan,nan,nan,nan,nan,nan,nan,nan,nan,nan,nan,nan,nan,nan,nan,nan,nan,nan,226.42616290225124,292.3141644326679,nan,nan,nan,nan,nan,nan
1,54,1,1,nan,nan,nan,0,8,3,4,2,1,0,nan,nan,nan,nan,nan,nan,nan,nan,nan,nan,nan,nan,0.0,nan,nan,nan,nan,nan,nan,nan,nan,nan,nan,nan,nan,nan,nan,nan,nan,nan,nan,226.42616290225124,293.3142947234446,nan,nan,nan,nan,nan,nan
1,55,1,1,nan,nan,nan,0,2,8,3,7,4,1,nan,nan,nan,nan,nan,nan,nan,nan,nan,nan,nan,nan,0.0,nan,nan,nan,nan,nan,nan,nan,nan,nan,nan,nan,nan,nan,nan,nan,nan,nan,nan,226.42616290225124,294.3144278652326,nan,nan,nan,nan,nan,nan
1,56,0,0,nan,nan,nan,0,0,7,4,5,8,3,nan,nan,nan,nan,nan,nan,nan,nan,nan,nan,nan,nan,0.0,nan,nan,nan,nan,nan,nan,nan,nan,nan,nan,nan,nan,nan,nan,nan,nan,nan,nan,226.42616290225124,295.31456328781496,nan,nan,nan,nan,nan,nan
1,57,1,1,nan,nan,nan,1,6,1,2,3,7,0,1.0,1.0,1.0,1.0,1.0,1.0,0.0,0.0,0.0,0.0,0.0,0.0,0.0,8.0,4.0,0.0,2.0,5.0,7.0,3.0,2.0,1.0,6.0,5.0,4.0,4.738169981865212,3.8754574076010613,2.6109802342834882,7.0420380215364276,6.506000075838529,5.842725626149331,226.42616290225124,296.3146975700074,297.1231270700082,nan,305.22422330870177,306.2271127990243,298.1399314448063,305.2158869794366
1,58,1,1,nan,nan,nan,0,0,8,4,1,5,7,nan,nan,nan,nan,nan,nan,nan,nan,nan,nan,nan,nan,0.0,nan,nan,nan,nan,nan,nan,nan,nan,nan,nan,nan,nan,nan,nan,nan,nan,nan,nan,226.42616290225124,306.43275584391085,nan,nan,nan,nan,nan,nan
1,59,1,1,nan,nan,nan,0,7,3,6,2,0,1,nan,nan,nan,nan,nan,nan,nan,nan,nan,nan,nan,nan,0.0,nan,nan,nan,nan,nan,nan,nan,nan,nan,nan,nan,nan,nan,nan,nan,nan,nan,nan,226.42616290225124,307.43288813039544,nan,nan,nan,nan,nan,nan
1,60,1,1,nan,nan,nan,0,6,5,0,4,7,8,nan,nan,nan,nan,nan,nan,nan,nan,nan,nan,nan,nan,0.0,nan,nan,nan,nan,nan,nan,nan,nan,nan,nan,nan,nan,nan,nan,nan,nan,nan,nan,226.42616290225124,308.43300787247426,nan,nan,nan,nan,nan,nan
1,61,1,1,nan,nan,nan,0,1,4,7,5,2,6,nan,nan,nan,nan,nan,nan,nan,nan,nan,nan,nan,nan,0.0,nan,nan,nan,nan,nan,nan,nan,nan,nan,nan,nan,nan,nan,nan,nan,nan,nan,nan,226.42616290225124,309.4331632520625,nan,nan,nan,nan,nan,nan
1,62,1,1,nan,nan,nan,0,3,6,8,0,1,2,nan,nan,nan,nan,nan,nan,nan,nan,nan,nan,nan,nan,0.0,nan,nan,nan,nan,nan,nan,nan,nan,nan,nan,nan,nan,nan,nan,nan,nan,nan,nan,226.42616290225124,310.43329496834485,nan,nan,nan,nan,nan,nan
1,63,1,1,nan,nan,nan,0,2,3,5,1,8,4,nan,nan,nan,nan,nan,nan,nan,nan,nan,nan,nan,nan,0.0,nan,nan,nan,nan,nan,nan,nan,nan,nan,nan,nan,nan,nan,nan,nan,nan,nan,nan,226.42616290225124,311.43344920754316,nan,nan,nan,nan,nan,nan
1,64,1,1,nan,nan,nan,0,1,0,4,3,2,6,nan,nan,nan,nan,nan,nan,nan,nan,nan,nan,nan,nan,0.0,nan,nan,nan,nan,nan,nan,nan,nan,nan,nan,nan,nan,nan,nan,nan,nan,nan,nan,226.42616290225124,312.43358291953336,nan,nan,nan,nan,nan,nan
1,65,0,0,1.0,0.0,0.4156110594922211,0,5,2,6,8,0,1,nan,nan,nan,nan,nan,nan,nan,nan,nan,nan,nan,nan,0.0,nan,nan,nan,nan,nan,nan,nan,nan,nan,nan,nan,nan,nan,nan,nan,nan,nan,nan,226.42616290225124,313.4337223335169,nan,313.84933339300915,nan,nan,nan,nan
1,66,1,1,nan,nan,nan,0,4,7,0,1,6,3,nan,nan,nan,nan,nan,nan,nan,nan,nan,nan,nan,nan,0.0,nan,nan,nan,nan,nan,nan,nan,nan,nan,nan,nan,nan,nan,nan,nan,nan,nan,nan,226.42616290225124,314.43385804120044,nan,nan,nan,nan,nan,nan
1,67,1,1,nan,nan,nan,0,6,0,2,4,3,1,nan,nan,nan,nan,nan,nan,nan,nan,nan,nan,nan,nan,0.0,nan,nan,nan,nan,nan,nan,nan,nan,nan,nan,nan,nan,nan,nan,nan,nan,nan,nan,226.42616290225124,315.43398063427594,nan,nan,nan,nan,nan,nan
1,68,1,1,nan,nan,nan,0,5,4,6,7,2,0,nan,nan,nan,nan,nan,nan,nan,nan,nan,nan,nan,nan,0.0,nan,nan,nan,nan,nan,nan,nan,nan,nan,nan,nan,nan,nan,nan,nan,nan,nan,nan,226.42616290225124,316.4341203333752,nan,nan,nan,nan,nan,nan
1,69,1,1,nan,nan,nan,0,4,7,2,3,8,1,nan,nan,nan,nan,nan,nan,nan,nan,nan,nan,nan,nan,0.0,nan,nan,nan,nan,nan,nan,nan,nan,nan,nan,nan,nan,nan,nan,nan,nan,nan,nan,226.42616290225124,317.4342537602497,nan,nan,nan,nan,nan,nan
1,70,1,1,nan,nan,nan,0,1,5,8,4,0,6,nan,nan,nan,nan,nan,nan,nan,nan,nan,nan,nan,nan,0.0,nan,nan,nan,nan,nan,nan,nan,nan,nan,nan,nan,nan,nan,nan,nan,nan,nan,nan,226.42616290225124,318.43439117853995,nan,nan,nan,nan,nan,nan
1,71,1,1,nan,nan,nan,0,8,1,0,2,4,5,nan,nan,nan,nan,nan,nan,nan,nan,nan,nan,nan,nan,0.0,nan,nan,nan,nan,nan,nan,nan,nan,nan,nan,nan,nan,nan,nan,nan,nan,nan,nan,226.42616290225124,319.4345371498348,nan,nan,nan,nan,nan,nan
1,72,1,1,nan,nan,nan,0,7,2,5,1,3,4,nan,nan,nan,nan,nan,nan,nan,nan,nan,nan,nan,nan,0.0,nan,nan,nan,nan,nan,nan,nan,nan,nan,nan,nan,nan,nan,nan,nan,nan,nan,nan,226.42616290225124,320.43467884462734,nan,nan,nan,nan,nan,nan
1,73,1,1,nan,nan,nan,0,5,8,3,6,1,7,nan,nan,nan,nan,nan,nan,nan,nan,nan,nan,nan,nan,0.0,nan,nan,nan,nan,nan,nan,nan,nan,nan,nan,nan,nan,nan,nan,nan,nan,nan,nan,226.42616290225124,321.43481141621305,nan,nan,nan,nan,nan,nan
1,74,1,1,nan,nan,nan,0,4,0,8,7,6,3,nan,nan,nan,nan,nan,nan,nan,nan,nan,nan,nan,nan,0.0,nan,nan,nan,nan,nan,nan,nan,nan,nan,nan,nan,nan,nan,nan,nan,nan,nan,nan,226.42616290225124,322.4349491195899,nan,nan,nan,nan,nan,nan
1,75,1,1,nan,nan,nan,0,5,1,0,8,2,4,nan,nan,nan,nan,nan,nan,nan,nan,nan,nan,nan,nan,0.0,nan,nan,nan,nan,nan,nan,nan,nan,nan,nan,nan,nan,nan,nan,nan,nan,nan,nan,226.42616290225124,323.43508368688344,nan,nan,nan,nan,nan,nan
1,76,0,0,1.0,0.0,0.39800669357646257,0,8,5,1,7,6,2,nan,nan,nan,nan,nan,nan,nan,nan,nan,nan,nan,nan,0.0,nan,nan,nan,nan,nan,nan,nan,nan,nan,nan,nan,nan,nan,nan,nan,nan,nan,nan,226.42616290225124,324.435223100867,nan,324.83322979444347,nan,nan,nan,nan
1,77,1,1,nan,nan,nan,0,7,8,5,4,1,0,nan,nan,nan,nan,nan,nan,nan,nan,nan,nan,nan,nan,0.0,nan,nan,nan,nan,nan,nan,nan,nan,nan,nan,nan,nan,nan,nan,nan,nan,nan,nan,226.42616290225124,325.43533343463787,nan,nan,nan,nan,nan,nan
1,78,1,1,nan,nan,nan,0,5,6,0,2,7,3,nan,nan,nan,nan,nan,nan,nan,nan,nan,nan,nan,nan,0.0,nan,nan,nan,nan,nan,nan,nan,nan,nan,nan,nan,nan,nan,nan,nan,nan,nan,nan,226.42616290225124,326.4438453856128,nan,nan,nan,nan,nan,nan
1,79,1,1,nan,nan,nan,0,2,7,1,8,0,4,nan,nan,nan,nan,nan,nan,nan,nan,nan,nan,nan,nan,0.0,nan,nan,nan,nan,nan,nan,nan,nan,nan,nan,nan,nan,nan,nan,nan,nan,nan,nan,226.42616290225124,327.4439608511748,nan,nan,nan,nan,nan,nan
1,80,1,1,nan,nan,nan,0,6,0,2,4,1,5,nan,nan,nan,nan,nan,nan,nan,nan,nan,nan,nan,nan,0.0,nan,nan,nan,nan,nan,nan,nan,nan,nan,nan,nan,nan,nan,nan,nan,nan,nan,nan,226.42616290225124,328.44409399296273,nan,nan,nan,nan,nan,nan
1,81,1,1,nan,nan,nan,0,7,6,4,5,8,0,nan,nan,nan,nan,nan,nan,nan,nan,nan,nan,nan,nan,0.0,nan,nan,nan,nan,nan,nan,nan,nan,nan,nan,nan,nan,nan,nan,nan,nan,nan,nan,226.42616290225124,329.4442328367586,nan,nan,nan,nan,nan,nan
1,82,1,1,nan,nan,nan,0,8,0,1,6,3,4,nan,nan,nan,nan,nan,nan,nan,nan,nan,nan,nan,nan,0.0,nan,nan,nan,nan,nan,nan,nan,nan,nan,nan,nan,nan,nan,nan,nan,nan,nan,nan,226.42616290225124,330.4443656934309,nan,nan,nan,nan,nan,nan
1,83,1,1,nan,nan,nan,0,1,6,8,3,4,2,nan,nan,nan,nan,nan,nan,nan,nan,nan,nan,nan,nan,0.0,nan,nan,nan,nan,nan,nan,nan,nan,nan,nan,nan,nan,nan,nan,nan,nan,nan,nan,226.42616290225124,331.44447004010726,nan,nan,nan,nan,nan,nan
1,84,1,1,nan,nan,nan,0,4,3,6,0,5,7,nan,nan,nan,nan,nan,nan,nan,nan,nan,nan,nan,nan,0.0,nan,nan,nan,nan,nan,nan,nan,nan,nan,nan,nan,nan,nan,nan,nan,nan,nan,nan,226.42616290225124,332.44464993831934,nan,nan,nan,nan,nan,nan
1,85,1,1,nan,nan,nan,0,1,8,2,6,3,0,nan,nan,nan,nan,nan,nan,nan,nan,nan,nan,nan,nan,0.0,nan,nan,nan,nan,nan,nan,nan,nan,nan,nan,nan,nan,nan,nan,nan,nan,nan,nan,226.42616290225124,333.4447759525938,nan,nan,nan,nan,nan,nan
1,86,1,1,nan,nan,nan,0,8,7,6,1,5,4,nan,nan,nan,nan,nan,nan,nan,nan,nan,nan,nan,nan,0.0,nan,nan,nan,nan,nan,nan,nan,nan,nan,nan,nan,nan,nan,nan,nan,nan,nan,nan,226.42616290225124,334.44491679208295,nan,nan,nan,nan,nan,nan
1,87,1,1,nan,nan,nan,0,5,2,8,3,0,6,nan,nan,nan,nan,nan,nan,nan,nan,nan,nan,nan,nan,0.0,nan,nan,nan,nan,nan,nan,nan,nan,nan,nan,nan,nan,nan,nan,nan,nan,nan,nan,226.42616290225124,335.4450527848676,nan,nan,nan,nan,nan,nan
1,88,1,1,nan,nan,nan,0,1,0,2,4,7,5,nan,nan,nan,nan,nan,nan,nan,nan,nan,nan,nan,nan,0.0,nan,nan,nan,nan,nan,nan,nan,nan,nan,nan,nan,nan,nan,nan,nan,nan,nan,nan,226.42616290225124,336.44518706706003,nan,nan,nan,nan,nan,nan
1,89,1,1,nan,nan,nan,0,0,2,6,7,1,8,nan,nan,nan,nan,nan,nan,nan,nan,nan,nan,nan,nan,0.0,nan,nan,nan,nan,nan,nan,nan,nan,nan,nan,nan,nan,nan,nan,nan,nan,nan,nan,226.42616290225124,337.4453239151335,nan,nan,nan,nan,nan,nan
1,90,1,1,nan,nan,nan,0,2,7,4,8,6,0,nan,nan,nan,nan,nan,nan,nan,nan,nan,nan,nan,nan,0.0,nan,nan,nan,nan,nan,nan,nan,nan,nan,nan,nan,nan,nan,nan,nan,nan,nan,nan,226.42616290225124,338.4454590526293,nan,nan,nan,nan,nan,nan
1,91,1,1,nan,nan,nan,0,4,2,6,5,0,3,nan,nan,nan,nan,nan,nan,nan,nan,nan,nan,nan,nan,0.0,nan,nan,nan,nan,nan,nan,nan,nan,nan,nan,nan,nan,nan,nan,nan,nan,nan,nan,226.42616290225124,339.4456075898197,nan,nan,nan,nan,nan,nan
1,92,1,1,nan,nan,nan,0,2,7,4,0,3,5,nan,nan,nan,nan,nan,nan,nan,nan,nan,nan,nan,nan,0.0,nan,nan,nan,nan,nan,nan,nan,nan,nan,nan,nan,nan,nan,nan,nan,nan,nan,nan,226.42616290225124,340.4457455783122,nan,nan,nan,nan,nan,nan
1,93,1,1,nan,nan,nan,0,0,8,7,4,1,6,nan,nan,nan,nan,nan,nan,nan,nan,nan,nan,nan,nan,0.0,nan,nan,nan,nan,nan,nan,nan,nan,nan,nan,nan,nan,nan,nan,nan,nan,nan,nan,226.42616290225124,341.4458829965879,nan,nan,nan,nan,nan,nan
1,94,1,1,nan,nan,nan,1,8,3,6,5,2,7,1.0,1.0,1.0,1.0,1.0,1.0,0.0,0.0,0.0,0.0,0.0,0.0,0.0,3.0,2.0,8.0,0.0,6.0,8.0,3.0,2.0,1.0,6.0,5.0,4.0,7.855321352093597,5.79037581619923,3.4385918445914285,10.853759003104642,10.158435301782447,9.09512681113847,226.42616290225124,342.4460209850804,343.2544396512676,nan,355.16438904884853,356.16230439633364,344.27124830258253,355.1560635533824
1,95,1,1,nan,nan,nan,0,4,0,3,1,8,2,nan,nan,nan,nan,nan,nan,nan,nan,nan,nan,nan,nan,0.0,nan,nan,nan,nan,nan,nan,nan,nan,nan,nan,nan,nan,nan,nan,nan,nan,nan,nan,226.42616290225124,356.36460236080165,nan,nan,nan,nan,nan,nan
1,96,1,1,nan,nan,nan,0,1,7,6,2,0,5,nan,nan,nan,nan,nan,nan,nan,nan,nan,nan,nan,nan,0.0,nan,nan,nan,nan,nan,nan,nan,nan,nan,nan,nan,nan,nan,nan,nan,nan,nan,nan,226.42616290225124,357.36471497536695,nan,nan,nan,nan,nan,nan
1,97,1,1,nan,nan,nan,0,6,3,1,5,8,2,nan,nan,nan,nan,nan,nan,nan,nan,nan,nan,nan,nan,0.0,nan,nan,nan,nan,nan,nan,nan,nan,nan,nan,nan,nan,nan,nan,nan,nan,nan,nan,226.42616290225124,358.3648871758778,nan,nan,nan,nan,nan,nan
1,98,1,1,nan,nan,nan,0,5,6,2,1,4,3,nan,nan,nan,nan,nan,nan,nan,nan,nan,nan,nan,nan,0.0,nan,nan,nan,nan,nan,nan,nan,nan,nan,nan,nan,nan,nan,nan,nan,nan,nan,nan,226.42616290225124,359.36499722454755,nan,nan,nan,nan,nan,nan
1,99,1,1,nan,nan,nan,1,0,7,8,4,1,2,1.0,1.0,1.0,1.0,1.0,1.0,0.0,0.0,0.0,0.0,0.0,0.0,0.0,2.0,1.0,3.0,5.0,3.0,7.0,6.0,5.0,4.0,3.0,2.0,1.0,12.75816348727676,11.878784526707022,10.566451862687245,9.216069728659932,6.767384767503245,2.6569252686895197,226.42616290225124,360.3651280855265,361.1735547345306,nan,374.99212040122075,375.98971586630796,362.19870256609283,374.9837749487633
1,100,1,1,nan,nan,nan,1,7,1,0,3,6,8,1.0,1.0,1.0,1.0,1.0,1.0,0.0,0.0,0.0,0.0,0.0,0.0,0.0,6.0,0.0,1.0,6.0,0.0,1.0,6.0,1.0,2.0,3.0,4.0,5.0,6.779663747147424,1.8302604760829126,2.764579666836653,4.299257114471402,5.147575265742489,5.9712656081683235,226.42616290225124,376.1923037776578,377.00074838797445,nan,384.8351240000484,385.8332329305558,378.0175382226589,384.8267888111877
1,101,1,1,nan,nan,nan,0,0,2,5,6,4,7,nan,nan,nan,nan,nan,nan,nan,nan,nan,nan,nan,nan,0.0,nan,nan,nan,nan,nan,nan,nan,nan,nan,nan,nan,nan,nan,nan,nan,nan,nan,nan,226.42616290225124,386.0353142188833,nan,nan,nan,nan,nan,nan
1,102,1,1,nan,nan,nan,0,7,8,0,4,3,2,nan,nan,nan,nan,nan,nan,nan,nan,nan,nan,nan,nan,0.0,nan,nan,nan,nan,nan,nan,nan,nan,nan,nan,nan,nan,nan,nan,nan,nan,nan,nan,226.42616290225124,387.0354425139667,nan,nan,nan,nan,nan,nan
1,103,1,1,nan,nan,nan,0,6,1,4,3,5,0,nan,nan,nan,nan,nan,nan,nan,nan,nan,nan,nan,nan,0.0,nan,nan,nan,nan,nan,nan,nan,nan,nan,nan,nan,nan,nan,nan,nan,nan,nan,nan,226.42616290225124,388.03558306835475,nan,nan,nan,nan,nan,nan
1,104,1,1,nan,nan,nan,0,7,2,1,0,4,8,nan,nan,nan,nan,nan,nan,nan,nan,nan,nan,nan,nan,0.0,nan,nan,nan,nan,nan,nan,nan,nan,nan,nan,nan,nan,nan,nan,nan,nan,nan,nan,226.42616290225124,389.0357324608485,nan,nan,nan,nan,nan,nan
1,105,0,0,1.0,0.0,0.6126762952480931,0,5,4,8,6,0,3,nan,nan,nan,nan,nan,nan,nan,nan,nan,nan,nan,nan,0.0,nan,nan,nan,nan,nan,nan,nan,nan,nan,nan,nan,nan,nan,nan,nan,nan,nan,nan,226.42616290225124,390.0358787172445,nan,390.6485550124926,nan,nan,nan,nan
1,106,1,1,nan,nan,nan,0,2,8,7,3,6,4,nan,nan,nan,nan,nan,nan,nan,nan,nan,nan,nan,nan,0.0,nan,nan,nan,nan,nan,nan,nan,nan,nan,nan,nan,nan,nan,nan,nan,nan,nan,nan,226.42616290225124,391.03599076160754,nan,nan,nan,nan,nan,nan
1,107,1,1,nan,nan,nan,0,4,6,3,0,5,7,nan,nan,nan,nan,nan,nan,nan,nan,nan,nan,nan,nan,0.0,nan,nan,nan,nan,nan,nan,nan,nan,nan,nan,nan,nan,nan,nan,nan,nan,nan,nan,226.42616290225124,392.03610907818074,nan,nan,nan,nan,nan,nan
1,108,1,1,nan,nan,nan,0,1,7,5,4,3,2,nan,nan,nan,nan,nan,nan,nan,nan,nan,nan,nan,nan,0.0,nan,nan,nan,nan,nan,nan,nan,nan,nan,nan,nan,nan,nan,nan,nan,nan,nan,nan,226.42616290225124,393.0362898316962,nan,nan,nan,nan,nan,nan
1,109,0,0,1.0,0.0,0.5801708833459998,0,3,1,6,2,8,7,nan,nan,nan,nan,nan,nan,nan,nan,nan,nan,nan,nan,0.0,nan,nan,nan,nan,nan,nan,nan,nan,nan,nan,nan,nan,nan,nan,nan,nan,nan,nan,226.42616290225124,394.0364138502773,nan,394.6165847336233,nan,nan,nan,nan
1,110,1,1,nan,nan,nan,0,4,5,0,8,6,1,nan,nan,nan,nan,nan,nan,nan,nan,nan,nan,nan,nan,0.0,nan,nan,nan,nan,nan,nan,nan,nan,nan,nan,nan,nan,nan,nan,nan,nan,nan,nan,226.42616290225124,395.036540434754,nan,nan,nan,nan,nan,nan
1,111,0,0,nan,nan,nan,0,5,0,1,7,3,2,nan,nan,nan,nan,nan,nan,nan,nan,nan,nan,nan,nan,0.0,nan,nan,nan,nan,nan,nan,nan,nan,nan,nan,nan,nan,nan,nan,nan,nan,nan,nan,226.42616290225124,396.03667671263975,nan,nan,nan,nan,nan,nan
1,112,1,1,nan,nan,nan,0,8,6,7,5,1,4,nan,nan,nan,nan,nan,nan,nan,nan,nan,nan,nan,nan,0.0,nan,nan,nan,nan,nan,nan,nan,nan,nan,nan,nan,nan,nan,nan,nan,nan,nan,nan,226.42616290225124,397.03681213522214,nan,nan,nan,nan,nan,nan
1,113,1,1,nan,nan,nan,0,6,8,5,1,7,0,nan,nan,nan,nan,nan,nan,nan,nan,nan,nan,nan,nan,0.0,nan,nan,nan,nan,nan,nan,nan,nan,nan,nan,nan,nan,nan,nan,nan,nan,nan,nan,226.42616290225124,398.0369506939169,nan,nan,nan,nan,nan,nan
1,114,1,1,nan,nan,nan,0,2,1,0,8,3,5,nan,nan,nan,nan,nan,nan,nan,nan,nan,nan,nan,nan,0.0,nan,nan,nan,nan,nan,nan,nan,nan,nan,nan,nan,nan,nan,nan,nan,nan,nan,nan,226.42616290225124,399.0370886824094,nan,nan,nan,nan,nan,nan
1,115,1,1,nan,nan,nan,0,7,0,5,2,6,4,nan,nan,nan,nan,nan,nan,nan,nan,nan,nan,nan,nan,0.0,nan,nan,nan,nan,nan,nan,nan,nan,nan,nan,nan,nan,nan,nan,nan,nan,nan,nan,226.42616290225124,400.0372229645873,nan,nan,nan,nan,nan,nan
1,116,1,1,nan,nan,nan,0,1,6,2,5,0,8,nan,nan,nan,nan,nan,nan,nan,nan,nan,nan,nan,nan,0.0,nan,nan,nan,nan,nan,nan,nan,nan,nan,nan,nan,nan,nan,nan,nan,nan,nan,nan,226.42616290225124,401.0373598126753,nan,nan,nan,nan,nan,nan
1,117,1,1,nan,nan,nan,0,3,1,5,0,8,6,nan,nan,nan,nan,nan,nan,nan,nan,nan,nan,nan,nan,0.0,nan,nan,nan,nan,nan,nan,nan,nan,nan,nan,nan,nan,nan,nan,nan,nan,nan,nan,226.42616290225124,402.0375046435656,nan,nan,nan,nan,nan,nan
1,118,0,0,1.0,0.0,0.4908698092913255,0,2,4,1,6,3,0,nan,nan,nan,nan,nan,nan,nan,nan,nan,nan,nan,nan,0.0,nan,nan,nan,nan,nan,nan,nan,nan,nan,nan,nan,nan,nan,nan,nan,nan,nan,nan,226.42616290225124,403.03763721515134,nan,403.52850702444266,nan,nan,nan,nan
1,119,1,1,nan,nan,nan,0,6,8,3,0,2,5,nan,nan,nan,nan,nan,nan,nan,nan,nan,nan,nan,nan,0.0,nan,nan,nan,nan,nan,nan,nan,nan,nan,nan,nan,nan,nan,nan,nan,nan,nan,nan,226.42616290225124,404.0377754887304,nan,nan,nan,nan,nan,nan
1,120,1,1,nan,nan,nan,0,2,5,8,1,7,6,nan,nan,nan,nan,nan,nan,nan,nan,nan,nan,nan,nan,0.0,nan,nan,nan,nan,nan,nan,nan,nan,nan,nan,nan,nan,nan,nan,nan,nan,nan,nan,226.42616290225124,405.0379123368184,nan,nan,nan,nan,nan,nan
1,121,1,1,nan,nan,nan,0,6,1,5,7,2,4,nan,nan,nan,nan,nan,nan,nan,nan,nan,nan,nan,nan,0.0,nan,nan,nan,nan,nan,nan,nan,nan,nan,nan,nan,nan,nan,nan,nan,nan,nan,nan,226.42616290225124,406.03805203591764,nan,nan,nan,nan,nan,nan
1,122,1,1,1.0,1.0,0.4262854953267379,0,7,3,0,6,8,2,nan,nan,nan,nan,nan,nan,nan,nan,nan,nan,nan,nan,0.0,nan,nan,nan,nan,nan,nan,nan,nan,nan,nan,nan,nan,nan,nan,nan,nan,nan,nan,226.42616290225124,407.03818631809554,nan,407.4644718134223,nan,nan,nan,nan
1,123,1,1,1.0,1.0,0.48209385554946493,0,0,2,7,8,6,5,nan,nan,nan,nan,nan,nan,nan,nan,nan,nan,nan,nan,0.0,nan,nan,nan,nan,nan,nan,nan,nan,nan,nan,nan,nan,nan,nan,nan,nan,nan,nan,226.42616290225124,408.038333714896,nan,408.52042757044546,nan,nan,nan,nan
1,124,1,1,nan,nan,nan,0,5,3,8,0,1,2,nan,nan,nan,nan,nan,nan,nan,nan,nan,nan,nan,nan,0.0,nan,nan,nan,nan,nan,nan,nan,nan,nan,nan,nan,nan,nan,nan,nan,nan,nan,nan,226.42616290225124,409.0384722735762,nan,nan,nan,nan,nan,nan
1,125,1,1,1.0,1.0,0.6257775038247928,0,4,5,3,1,7,6,nan,nan,nan,nan,nan,nan,nan,nan,nan,nan,nan,nan,0.0,nan,nan,nan,nan,nan,nan,nan,nan,nan,nan,nan,nan,nan,nan,nan,nan,nan,nan,226.42616290225124,410.0385948666517,nan,410.6643723704765,nan,nan,nan,nan
1,126,1,1,1.0,1.0,0.441669501044089,0,3,4,6,0,1,2,nan,nan,nan,nan,nan,nan,nan,nan,nan,nan,nan,nan,0.0,nan,nan,nan,nan,nan,nan,nan,nan,nan,nan,nan,nan,nan,nan,nan,nan,nan,nan,226.42616290225124,411.0387391273398,nan,411.4804086283839,nan,nan,nan,nan
1,127,1,1,1.0,1.0,0.4735248845536262,0,0,8,2,5,3,7,nan,nan,nan,nan,nan,nan,nan,nan,nan,nan,nan,nan,0.0,nan,nan,nan,nan,nan,nan,nan,nan,nan,nan,nan,nan,nan,nan,nan,nan,nan,nan,226.42616290225124,412.03887112872326,nan,412.5123960132769,nan,nan,nan,nan
1,128,1,1,1.0,1.0,0.4493800354102859,0,5,1,7,8,2,6,nan,nan,nan,nan,nan,nan,nan,nan,nan,nan,nan,nan,0.0,nan,nan,nan,nan,nan,nan,nan,nan,nan,nan,nan,nan,nan,nan,nan,nan,nan,nan,226.42616290225124,413.0390082619124,nan,413.4883882973227,nan,nan,nan,nan
1,129,1,1,1.0,1.0,0.4092245303618256,0,1,3,6,4,5,8,nan,nan,nan,nan,nan,nan,nan,nan,nan,nan,nan,nan,0.0,nan,nan,nan,nan,nan,nan,nan,nan,nan,nan,nan,nan,nan,nan,nan,nan,nan,nan,226.42616290225124,414.0391505269072,nan,414.448375057269,nan,nan,nan,nan
1,130,1,1,1.0,1.0,0.3210826736467425,0,7,4,5,2,8,1,nan,nan,nan,nan,nan,nan,nan,nan,nan,nan,nan,nan,0.0,nan,nan,nan,nan,nan,nan,nan,nan,nan,nan,nan,nan,nan,nan,nan,nan,nan,nan,226.42616290225124,415.03928880048625,nan,415.360371474133,nan,nan,nan,nan
1,131,1,1,1.0,1.0,0.25693285233865026,1,2,8,0,4,7,5,1.0,1.0,1.0,1.0,1.0,1.0,1.0,0.0,1.0,0.0,0.0,0.0,2.0,2.0,5.0,0.0,6.0,3.0,7.0,3.0,2.0,1.0,6.0,5.0,4.0,5.318001881096279,4.014297774032457,1.2618317287415266,8.548253348009894,7.300459096819395,6.205154668277828,226.42616290225124,416.0394287846866,416.8478440296749,416.29636163702526,426.44080906869203,427.4380786642723,417.85631692191237,426.4324812924315
1,132,0,0,0.0,1.0,0.5592542235390283,0,7,2,4,1,5,6,nan,nan,nan,nan,nan,nan,nan,nan,nan,nan,nan,nan,0.0,nan,nan,nan,nan,nan,nan,nan,nan,nan,nan,nan,nan,nan,nan,nan,nan,nan,nan,226.42616290225124,427.6410141127417,nan,428.2002683362807,nan,nan,nan,nan
1,133,1,1,1.0,1.0,0.4871007849142188,0,1,3,6,4,7,2,nan,nan,nan,nan,nan,nan,nan,nan,nan,nan,nan,nan,0.0,nan,nan,nan,nan,nan,nan,nan,nan,nan,nan,nan,nan,nan,nan,nan,nan,nan,nan,226.42616290225124,428.64114155252173,nan,429.12824233743595,nan,nan,nan,nan
1,134,1,1,1.0,1.0,0.4709455832053209,0,5,4,7,0,2,3,nan,nan,nan,nan,nan,nan,nan,nan,nan,nan,nan,nan,0.0,nan,nan,nan,nan,nan,nan,nan,nan,nan,nan,nan,nan,nan,nan,nan,nan,nan,nan,226.42616290225124,429.64128267711203,nan,430.11222826031735,nan,nan,nan,nan
1,135,0,0,0.0,1.0,0.6627894942794228,0,1,0,6,4,5,2,nan,nan,nan,nan,nan,nan,nan,nan,nan,nan,nan,nan,0.0,nan,nan,nan,nan,nan,nan,nan,nan,nan,nan,nan,nan,nan,nan,nan,nan,nan,nan,226.42616290225124,430.6414189549978,nan,431.3042084492772,nan,nan,nan,nan
1,136,1,1,1.0,1.0,0.46265230407880154,1,7,5,0,8,4,3,1.0,1.0,1.0,1.0,1.0,1.0,0.0,0.0,1.0,0.0,0.0,0.0,1.0,0.0,2.0,0.0,7.0,6.0,1.0,2.0,1.0,6.0,5.0,4.0,3.0,3.9466819898516405,2.739231980027398,10.441441420902265,8.937685083481483,7.794496654212708,5.690409714617999,226.42616290225124,431.6415632156859,432.44997960107867,432.1042155197647,443.95154066711257,444.956720652277,433.47512515184644,443.94322457996896
1,137,1,1,1.0,1.0,0.4880518791178474,0,3,6,8,0,2,5,nan,nan,nan,nan,nan,nan,nan,nan,nan,nan,nan,nan,0.0,nan,nan,nan,nan,nan,nan,nan,nan,nan,nan,nan,nan,nan,nan,nan,nan,nan,nan,226.42616290225124,445.1600486836978,nan,445.64810056281567,nan,nan,nan,nan
1,138,1,1,1.0,1.0,0.45586378370353486,0,7,3,4,1,0,6,nan,nan,nan,nan,nan,nan,nan,nan,nan,nan,nan,nan,0.0,nan,nan,nan,nan,nan,nan,nan,nan,nan,nan,nan,nan,nan,nan,nan,nan,nan,nan,226.42616290225124,446.1602069142973,nan,446.61607069800084,nan,nan,nan,nan
1,139,1,1,1.0,1.0,0.35971431822690647,0,2,4,8,6,1,0,nan,nan,nan,nan,nan,nan,nan,nan,nan,nan,nan,nan,0.0,nan,nan,nan,nan,nan,nan,nan,nan,nan,nan,nan,nan,nan,nan,nan,nan,nan,nan,226.42616290225124,447.16035174518765,nan,447.52006606341456,nan,nan,nan,nan
1,140,1,1,1.0,1.0,0.42357362242182717,0,1,5,3,8,4,2,nan,nan,nan,nan,nan,nan,nan,nan,nan,nan,nan,nan,0.0,nan,nan,nan,nan,nan,nan,nan,nan,nan,nan,nan,nan,nan,nan,nan,nan,nan,nan,226.42616290225124,448.16048089557444,nan,448.58405451799626,nan,nan,nan,nan
1,141,1,1,1.0,1.0,0.2794301075482508,0,4,6,1,0,2,5,nan,nan,nan,nan,nan,nan,nan,nan,nan,nan,nan,nan,0.0,nan,nan,nan,nan,nan,nan,nan,nan,nan,nan,nan,nan,nan,nan,nan,nan,nan,nan,226.42616290225124,449.1606174585613,nan,449.44004756610957,nan,nan,nan,nan
1,142,1,1,1.0,1.0,0.2792288268246921,0,2,7,8,6,1,4,nan,nan,nan,nan,nan,nan,nan,nan,nan,nan,nan,nan,0.0,nan,nan,nan,nan,nan,nan,nan,nan,nan,nan,nan,nan,nan,nan,nan,nan,nan,nan,226.42616290225124,450.16079906738014,nan,450.44002789420483,nan,nan,nan,nan
1,143,0,0,1.0,0.0,0.2631346365524223,0,8,0,5,1,4,3,nan,nan,nan,nan,nan,nan,nan,nan,nan,nan,nan,nan,0.0,nan,nan,nan,nan,nan,nan,nan,nan,nan,nan,nan,nan,nan,nan,nan,nan,nan,nan,226.42616290225124,451.16089685674524,nan,451.42403149329766,nan,nan,nan,nan
1,144,1,1,1.0,1.0,0.48697077922406606,0,4,1,7,6,0,8,nan,nan,nan,nan,nan,nan,nan,nan,nan,nan,nan,nan,0.0,nan,nan,nan,nan,nan,nan,nan,nan,nan,nan,nan,nan,nan,nan,nan,nan,nan,nan,226.42616290225124,452.16103113892314,nan,452.6480019181472,nan,nan,nan,nan
1,145,1,1,1.0,1.0,0.48682908444607165,0,6,5,4,2,7,3,nan,nan,nan,nan,nan,nan,nan,nan,nan,nan,nan,nan,0.0,nan,nan,nan,nan,nan,nan,nan,nan,nan,nan,nan,nan,nan,nan,nan,nan,nan,nan,226.42616290225124,453.16116684660665,nan,453.6479959310527,nan,nan,nan,nan
1,146,1,1,1.0,1.0,0.5506846823409433,0,8,3,0,7,4,1,nan,nan,nan,nan,nan,nan,nan,nan,nan,nan,nan,nan,0.0,nan,nan,nan,nan,nan,nan,nan,nan,nan,nan,nan,nan,nan,nan,nan,nan,nan,nan,226.42616290225124,454.161304549998,nan,454.71198923233896,nan,nan,nan,nan
1,147,1,1,1.0,1.0,0.4465889046405209,0,5,7,1,8,2,3,nan,nan,nan,nan,nan,nan,nan,nan,nan,nan,nan,nan,0.0,nan,nan,nan,nan,nan,nan,nan,nan,nan,nan,nan,nan,nan,nan,nan,nan,nan,nan,226.42616290225124,455.1614191602712,nan,455.6080080649117,nan,nan,nan,nan
1,148,1,1,1.0,1.0,0.40636925205762964,0,3,2,0,1,8,4,nan,nan,nan,nan,nan,nan,nan,nan,nan,nan,nan,nan,0.0,nan,nan,nan,nan,nan,nan,nan,nan,nan,nan,nan,nan,nan,nan,nan,nan,nan,nan,226.42616290225124,456.16161188799015,nan,456.5679811400478,nan,nan,nan,nan
1,149,1,1,1.0,1.0,0.31026369200844783,0,2,8,6,7,3,5,nan,nan,nan,nan,nan,nan,nan,nan,nan,nan,nan,nan,0.0,nan,nan,nan,nan,nan,nan,nan,nan,nan,nan,nan,nan,nan,nan,nan,nan,nan,nan,226.42616290225124,457.16171566444973,nan,457.4719793564582,nan,nan,nan,nan
1,150,0,0,1.0,0.0,0.2700919362541754,0,6,1,0,2,5,3,nan,nan,nan,nan,nan,nan,nan,nan,nan,nan,nan,nan,0.0,nan,nan,nan,nan,nan,nan,nan,nan,nan,nan,nan,nan,nan,nan,nan,nan,nan,nan,226.42616290225124,458.1618673377525,nan,458.43195927400666,nan,nan,nan,nan
1,151,1,1,1.0,1.0,0.43795350528671406,0,7,4,5,0,3,1,nan,nan,nan,nan,nan,nan,nan,nan,nan,nan,nan,nan,0.0,nan,nan,nan,nan,nan,nan,nan,nan,nan,nan,nan,nan,nan,nan,nan,nan,nan,nan,226.42616290225124,459.1619916414347,nan,459.59994514672144,nan,nan,nan,nan
1,152,1,1,1.0,1.0,0.3018113269790774,0,6,0,3,1,2,8,nan,nan,nan,nan,nan,nan,nan,nan,nan,nan,nan,nan,0.0,nan,nan,nan,nan,nan,nan,nan,nan,nan,nan,nan,nan,nan,nan,nan,nan,nan,nan,226.42616290225124,460.1621344766172,nan,460.4639458035963,nan,nan,nan,nan
1,153,1,1,1.0,1.0,0.3576499078044435,0,0,7,8,4,3,1,nan,nan,nan,nan,nan,nan,nan,nan,nan,nan,nan,nan,0.0,nan,nan,nan,nan,nan,nan,nan,nan,nan,nan,nan,nan,nan,nan,nan,nan,nan,nan,226.42616290225124,461.16227303531196,nan,461.5199229431164,nan,nan,nan,nan
1,154,1,1,1.0,1.0,0.37351145631691907,0,5,6,4,7,8,0,nan,nan,nan,nan,nan,nan,nan,nan,nan,nan,nan,nan,0.0,nan,nan,nan,nan,nan,nan,nan,nan,nan,nan,nan,nan,nan,nan,nan,nan,nan,nan,226.42616290225124,462.1624001899909,nan,462.5359116463078,nan,nan,nan,nan
1,155,0,0,0.0,1.0,0.509366823855089,0,6,0,7,5,3,8,nan,nan,nan,nan,nan,nan,nan,nan,nan,nan,nan,nan,0.0,nan,nan,nan,nan,nan,nan,nan,nan,nan,nan,nan,nan,nan,nan,nan,nan,nan,nan,226.42616290225124,463.1625490122824,nan,463.6719158361375,nan,nan,nan,nan
1,156,1,1,1.0,1.0,0.4212323797401041,0,3,5,1,4,2,6,nan,nan,nan,nan,nan,nan,nan,nan,nan,nan,nan,nan,0.0,nan,nan,nan,nan,nan,nan,nan,nan,nan,nan,nan,nan,nan,nan,nan,nan,nan,nan,226.42616290225124,464.1626761669613,nan,464.5839085467014,nan,nan,nan,nan
1,157,1,1,1.0,1.0,0.597035414291895,0,8,6,7,1,3,5,nan,nan,nan,nan,nan,nan,nan,nan,nan,nan,nan,nan,0.0,nan,nan,nan,nan,nan,nan,nan,nan,nan,nan,nan,nan,nan,nan,nan,nan,nan,nan,226.42616290225124,465.1628526439745,nan,465.75988805826637,nan,nan,nan,nan
1,158,1,1,1.0,1.0,0.5569260954798665,0,6,1,2,3,5,7,nan,nan,nan,nan,nan,nan,nan,nan,nan,nan,nan,nan,0.0,nan,nan,nan,nan,nan,nan,nan,nan,nan,nan,nan,nan,nan,nan,nan,nan,nan,nan,226.42616290225124,466.16296041183523,nan,466.7198865073151,nan,nan,nan,nan
1,159,1,1,1.0,1.0,0.4847869118384551,0,5,8,4,2,0,3,nan,nan,nan,nan,nan,nan,nan,nan,nan,nan,nan,nan,0.0,nan,nan,nan,nan,nan,nan,nan,nan,nan,nan,nan,nan,nan,nan,nan,nan,nan,nan,226.42616290225124,467.1630872814276,nan,467.64787419326603,nan,nan,nan,nan
1,160,1,1,1.0,1.0,0.4526350241503678,0,6,7,1,0,3,2,nan,nan,nan,nan,nan,nan,nan,nan,nan,nan,nan,nan,0.0,nan,nan,nan,nan,nan,nan,nan,nan,nan,nan,nan,nan,nan,nan,nan,nan,nan,nan,226.42616290225124,468.1632229891111,nan,468.61585801326146,nan,nan,nan,nan
1,161,1,1,1.0,1.0,0.3964970881352201,0,5,6,2,4,0,7,nan,nan,nan,nan,nan,nan,nan,nan,nan,nan,nan,nan,0.0,nan,nan,nan,nan,nan,nan,nan,nan,nan,nan,nan,nan,nan,nan,nan,nan,nan,nan,226.42616290225124,469.16335812659236,nan,469.5598552147276,nan,nan,nan,nan
1,162,1,1,1.0,1.0,0.3803418864408741,0,3,7,8,2,5,0,nan,nan,nan,nan,nan,nan,nan,nan,nan,nan,nan,nan,0.0,nan,nan,nan,nan,nan,nan,nan,nan,nan,nan,nan,nan,nan,nan,nan,nan,nan,nan,226.42616290225124,470.16349697037367,nan,470.54383885681455,nan,nan,nan,nan
1,163,1,1,1.0,1.0,0.3401915131980786,0,5,0,4,7,6,2,nan,nan,nan,nan,nan,nan,nan,nan,nan,nan,nan,nan,0.0,nan,nan,nan,nan,nan,nan,nan,nan,nan,nan,nan,nan,nan,nan,nan,nan,nan,nan,226.42616290225124,471.16364636286744,nan,471.5038378760655,nan,nan,nan,nan
1,164,1,1,1.0,1.0,0.30804190630442463,0,6,3,2,5,1,8,nan,nan,nan,nan,nan,nan,nan,nan,nan,nan,nan,nan,0.0,nan,nan,nan,nan,nan,nan,nan,nan,nan,nan,nan,nan,nan,nan,nan,nan,nan,nan,226.42616290225124,472.1637820705655,nan,472.4718239768699,nan,nan,nan,nan
1,165,1,1,1.0,1.0,0.33992152332211845,0,2,4,8,1,0,3,nan,nan,nan,nan,nan,nan,nan,nan,nan,nan,nan,nan,0.0,nan,nan,nan,nan,nan,nan,nan,nan,nan,nan,nan,nan,nan,nan,nan,nan,nan,nan,226.42616290225124,473.16389867653197,nan,473.5038201998541,nan,nan,nan,nan
1,166,1,1,1.0,1.0,0.2997272446518764,1,5,2,1,7,4,8,1.0,1.0,1.0,1.0,1.0,1.0,0.0,0.0,0.0,0.0,0.0,0.0,0.0,4.0,1.0,0.0,5.0,8.0,4.0,6.0,5.0,4.0,3.0,2.0,1.0,8.583379400763079,7.527950793984928,6.144207377306884,4.960539569190587,3.600244216810097,2.096547180233756,226.42616290225124,474.1640714472451,474.97247357762535,474.46379869189695,484.60711684175476,485.60997269024665,475.980945614574,484.5987816528941
1,167,1,1,nan,nan,nan,0,7,6,4,5,1,2,nan,nan,nan,nan,nan,nan,nan,nan,nan,nan,nan,nan,0.0,nan,nan,nan,nan,nan,nan,nan,nan,nan,nan,nan,nan,nan,nan,nan,nan,nan,nan,226.42616290225124,485.8156288497412,nan,nan,nan,nan,nan,nan
1,168,1,1,nan,nan,nan,0,5,2,7,6,0,4,nan,nan,nan,nan,nan,nan,nan,nan,nan,nan,nan,nan,0.0,nan,nan,nan,nan,nan,nan,nan,nan,nan,nan,nan,nan,nan,nan,nan,nan,nan,nan,226.42616290225124,486.81581958176685,nan,nan,nan,nan,nan,nan
1,169,1,1,1.0,1.0,0.5917915666796034,0,1,5,6,0,7,2,nan,nan,nan,nan,nan,nan,nan,nan,nan,nan,nan,nan,0.0,nan,nan,nan,nan,nan,nan,nan,nan,nan,nan,nan,nan,nan,nan,nan,nan,nan,nan,226.42616290225124,487.8159185115219,nan,488.4077100782015,nan,nan,nan,nan
1,170,1,1,1.0,1.0,0.21564692510582972,0,6,7,1,4,5,0,nan,nan,nan,nan,nan,nan,nan,nan,nan,nan,nan,nan,0.0,nan,nan,nan,nan,nan,nan,nan,nan,nan,nan,nan,nan,nan,nan,nan,nan,nan,nan,226.42616290225124,488.81602228798147,nan,489.0316692130873,nan,nan,nan,nan
1,171,1,1,1.0,1.0,0.02348484222602565,0,7,2,4,6,8,1,nan,nan,nan,nan,nan,nan,nan,nan,nan,nan,nan,nan,0.0,nan,nan,nan,nan,nan,nan,nan,nan,nan,nan,nan,nan,nan,nan,nan,nan,nan,nan,226.42616290225124,489.81618736099335,nan,489.8396722032194,nan,nan,nan,nan
1,172,1,1,1.0,1.0,0.2233195411390625,0,2,1,6,4,5,0,nan,nan,nan,nan,nan,nan,nan,nan,nan,nan,nan,nan,0.0,nan,nan,nan,nan,nan,nan,nan,nan,nan,nan,nan,nan,nan,nan,nan,nan,nan,nan,226.42616290225124,490.81632734517916,nan,491.0396468863182,nan,nan,nan,nan
1,173,1,1,1.0,1.0,0.5271738960000221,0,7,0,2,5,3,6,nan,nan,nan,nan,nan,nan,nan,nan,nan,nan,nan,nan,0.0,nan,nan,nan,nan,nan,nan,nan,nan,nan,nan,nan,nan,nan,nan,nan,nan,nan,nan,226.42616290225124,491.81646704426385,nan,492.34364094026387,nan,nan,nan,nan
1,174,1,1,1.0,1.0,0.3830372235388495,0,3,4,7,8,2,5,nan,nan,nan,nan,nan,nan,nan,nan,nan,nan,nan,nan,0.0,nan,nan,nan,nan,nan,nan,nan,nan,nan,nan,nan,nan,nan,nan,nan,nan,nan,nan,226.42616290225124,492.8165990456473,nan,493.19963626918616,nan,nan,nan,nan
1,175,1,1,1.0,1.0,0.3588889531965833,0,4,8,2,0,7,3,nan,nan,nan,nan,nan,nan,nan,nan,nan,nan,nan,nan,0.0,nan,nan,nan,nan,nan,nan,nan,nan,nan,nan,nan,nan,nan,nan,nan,nan,nan,nan,226.42616290225124,493.8167358937353,nan,494.1756248469319,nan,nan,nan,nan
1,176,1,1,1.0,1.0,0.23072929480986204,0,6,5,8,2,1,7,nan,nan,nan,nan,nan,nan,nan,nan,nan,nan,nan,nan,0.0,nan,nan,nan,nan,nan,nan,nan,nan,nan,nan,nan,nan,nan,nan,nan,nan,nan,nan,226.42616290225124,494.816883860738,nan,495.0476131555479,nan,nan,nan,nan
1,177,1,1,1.0,1.0,0.2865755733655533,0,7,1,0,6,8,4,nan,nan,nan,nan,nan,nan,nan,nan,nan,nan,nan,nan,0.0,nan,nan,nan,nan,nan,nan,nan,nan,nan,nan,nan,nan,nan,nan,nan,nan,nan,nan,226.42616290225124,495.8170221343171,nan,496.10359770768264,nan,nan,nan,nan
1,178,1,1,1.0,1.0,0.3984371948608896,0,0,6,2,1,5,3,nan,nan,nan,nan,nan,nan,nan,nan,nan,nan,nan,nan,0.0,nan,nan,nan,nan,nan,nan,nan,nan,nan,nan,nan,nan,nan,nan,nan,nan,nan,nan,226.42616290225124,496.81715869730397,nan,497.21559589216486,nan,nan,nan,nan
1,179,1,1,1.0,1.0,0.5899560917168856,1,5,3,0,8,1,2,1.0,1.0,1.0,1.0,1.0,1.0,1.0,0.0,0.0,0.0,0.0,0.0,1.0,5.0,1.0,3.0,0.0,6.0,7.0,1.0,2.0,5.0,3.0,4.0,6.0,1.2027090789342765,2.5854170117527246,6.745456572258263,4.114400438600569,5.217943407042185,7.896766935446067,226.42616290225124,497.82561505374906,498.63403885174193,498.41557114546595,507.5852690447646,508.58857962804905,499.65084892854793,507.57693927279615
1,180,1,1,nan,nan,nan,0,4,5,2,0,8,1,nan,nan,nan,nan,nan,nan,nan,nan,nan,nan,nan,nan,0.0,nan,nan,nan,nan,nan,nan,nan,nan,nan,nan,nan,nan,nan,nan,nan,nan,nan,nan,226.42616290225124,508.7937961630669,nan,nan,nan,nan,nan,nan
1,181,1,1,1.0,1.0,0.061596464074682444,0,3,8,1,4,6,0,nan,nan,nan,nan,nan,nan,nan,nan,nan,nan,nan,nan,0.0,nan,nan,nan,nan,nan,nan,nan,nan,nan,nan,nan,nan,nan,nan,nan,nan,nan,nan,226.42616290225124,509.7938973736309,nan,509.8554938377056,nan,nan,nan,nan
1,182,1,1,1.0,1.0,0.3173797924973769,0,2,5,4,6,3,7,nan,nan,nan,nan,nan,nan,nan,nan,nan,nan,nan,nan,0.0,nan,nan,nan,nan,nan,nan,nan,nan,nan,nan,nan,nan,nan,nan,nan,nan,nan,nan,226.42616290225124,510.79405702972144,nan,511.1114368222188,nan,nan,nan,nan
1,183,1,1,1.0,1.0,0.3492411631013965,0,8,0,7,2,1,3,nan,nan,nan,nan,nan,nan,nan,nan,nan,nan,nan,nan,0.0,nan,nan,nan,nan,nan,nan,nan,nan,nan,nan,nan,nan,nan,nan,nan,nan,nan,nan,226.42616290225124,511.7941990096151,nan,512.1434401727165,nan,nan,nan,nan
1,184,1,1,1.0,1.0,0.3091039044811623,0,3,5,1,8,7,6,nan,nan,nan,nan,nan,nan,nan,nan,nan,nan,nan,nan,0.0,nan,nan,nan,nan,nan,nan,nan,nan,nan,nan,nan,nan,nan,nan,nan,nan,nan,nan,226.42616290225124,512.7943469766033,nan,513.1034508810844,nan,nan,nan,nan
1,185,1,1,1.0,1.0,0.26896379483514465,0,4,0,8,7,5,1,nan,nan,nan,nan,nan,nan,nan,nan,nan,nan,nan,nan,0.0,nan,nan,nan,nan,nan,nan,nan,nan,nan,nan,nan,nan,nan,nan,nan,nan,nan,nan,226.42616290225124,513.7944769822934,nan,514.0634407771286,nan,nan,nan,nan
1,186,1,1,1.0,1.0,0.33247926822514273,0,7,2,1,6,4,0,nan,nan,nan,nan,nan,nan,nan,nan,nan,nan,nan,nan,0.0,nan,nan,nan,nan,nan,nan,nan,nan,nan,nan,nan,nan,nan,nan,nan,nan,nan,nan,226.42616290225124,514.802948734141,nan,515.1354280023661,nan,nan,nan,nan
1,187,1,1,1.0,1.0,0.43635523367265705,0,6,7,2,5,0,3,nan,nan,nan,nan,nan,nan,nan,nan,nan,nan,nan,nan,0.0,nan,nan,nan,nan,nan,nan,nan,nan,nan,nan,nan,nan,nan,nan,nan,nan,nan,nan,226.42616290225124,515.8030545063084,nan,516.239409739981,nan,nan,nan,nan
1,188,1,1,1.0,1.0,0.3481837265426293,0,3,5,4,8,1,6,nan,nan,nan,nan,nan,nan,nan,nan,nan,nan,nan,nan,0.0,nan,nan,nan,nan,nan,nan,nan,nan,nan,nan,nan,nan,nan,nan,nan,nan,nan,nan,226.42616290225124,516.8032198644069,nan,517.1514035909495,nan,nan,nan,nan
1,189,1,1,1.0,1.0,0.31604238755244296,0,6,4,3,7,5,2,nan,nan,nan,nan,nan,nan,nan,nan,nan,nan,nan,nan,0.0,nan,nan,nan,nan,nan,nan,nan,nan,nan,nan,nan,nan,nan,nan,nan,nan,nan,nan,226.42616290225124,517.8033621294016,nan,518.1194045169541,nan,nan,nan,nan
1,190,1,1,1.0,1.0,0.25989447301253676,0,4,1,8,3,2,5,nan,nan,nan,nan,nan,nan,nan,nan,nan,nan,nan,nan,0.0,nan,nan,nan,nan,nan,nan,nan,nan,nan,nan,nan,nan,nan,nan,nan,nan,nan,nan,226.42616290225124,518.8034941307851,nan,519.0633886037976,nan,nan,nan,nan
1,191,1,1,1.0,1.0,0.5477336103795096,0,5,4,0,1,6,2,nan,nan,nan,nan,nan,nan,nan,nan,nan,nan,nan,nan,0.0,nan,nan,nan,nan,nan,nan,nan,nan,nan,nan,nan,nan,nan,nan,nan,nan,nan,nan,226.42616290225124,519.8036332596675,nan,520.3513668700471,nan,nan,nan,nan
1,192,1,1,1.0,1.0,0.49960385329904966,0,0,2,4,6,8,3,nan,nan,nan,nan,nan,nan,nan,nan,nan,nan,nan,nan,0.0,nan,nan,nan,nan,nan,nan,nan,nan,nan,nan,nan,nan,nan,nan,nan,nan,nan,nan,226.42616290225124,520.8037709630589,nan,521.303374816358,nan,nan,nan,nan
1,193,1,1,1.0,1.0,0.3314534777746303,0,2,1,8,7,4,6,nan,nan,nan,nan,nan,nan,nan,nan,nan,nan,nan,nan,0.0,nan,nan,nan,nan,nan,nan,nan,nan,nan,nan,nan,nan,nan,nan,nan,nan,nan,nan,226.42616290225124,521.8039038197458,nan,522.1353572975204,nan,nan,nan,nan
1,194,1,1,1.0,1.0,0.2753027122525964,0,3,5,7,6,8,1,nan,nan,nan,nan,nan,nan,nan,nan,nan,nan,nan,nan,0.0,nan,nan,nan,nan,nan,nan,nan,nan,nan,nan,nan,nan,nan,nan,nan,nan,nan,nan,226.42616290225124,522.8040409529203,nan,523.0793436651729,nan,nan,nan,nan
1,195,0,0,1.0,0.0,0.21116714597155806,0,2,4,6,3,1,5,nan,nan,nan,nan,nan,nan,nan,nan,nan,nan,nan,nan,0.0,nan,nan,nan,nan,nan,nan,nan,nan,nan,nan,nan,nan,nan,nan,nan,nan,nan,nan,226.42616290225124,523.8041646864003,nan,524.0153318323719,nan,nan,nan,nan
1,196,1,1,1.0,1.0,0.23500351670372766,1,8,2,7,6,3,4,1.0,1.0,1.0,1.0,1.0,1.0,0.0,0.0,0.0,1.0,0.0,0.0,1.0,7.0,3.0,1.0,6.0,7.0,5.0,1.0,6.0,5.0,2.0,4.0,3.0,1.1736473920900607,14.213489001835114,11.862352777839988,3.3185375843313523,5.877820032794261,4.445445938021294,226.42616290225124,524.8043177852087,525.6127427235915,525.0393213019124,540.889836150076,541.8942899850808,526.6378725938557,540.8815009612154
1,197,1,1,nan,nan,nan,0,0,6,1,2,5,8,nan,nan,nan,nan,nan,nan,nan,nan,nan,nan,nan,nan,0.0,nan,nan,nan,nan,nan,nan,nan,nan,nan,nan,nan,nan,nan,nan,nan,nan,nan,nan,226.42616290225124,542.0983664044761,nan,nan,nan,nan,nan,nan
1,198,1,1,1.0,1.0,0.5086458055156982,0,7,0,8,1,6,3,nan,nan,nan,nan,nan,nan,nan,nan,nan,nan,nan,nan,0.0,nan,nan,nan,nan,nan,nan,nan,nan,nan,nan,nan,nan,nan,nan,nan,nan,nan,nan,226.42616290225124,543.0984884273494,nan,543.6071342328651,nan,nan,nan,nan
1,199,1,1,1.0,1.0,0.3485058897495037,0,5,8,6,3,0,2,nan,nan,nan,nan,nan,nan,nan,nan,nan,nan,nan,nan,0.0,nan,nan,nan,nan,nan,nan,nan,nan,nan,nan,nan,nan,nan,nan,nan,nan,nan,nan,226.42616290225124,544.0986326880375,nan,544.447138577787,nan,nan,nan,nan
1,200,1,1,1.0,1.0,0.7883635791367851,0,7,5,2,4,1,8,nan,nan,nan,nan,nan,nan,nan,nan,nan,nan,nan,nan,0.0,nan,nan,nan,nan,nan,nan,nan,nan,nan,nan,nan,nan,nan,nan,nan,nan,nan,nan,226.42616290225124,545.0987641192332,nan,545.88712769837,nan,nan,nan,nan
1,201,1,1,1.0,1.0,0.6438608380412916,1,1,2,8,0,3,6,1.0,1.0,1.0,1.0,1.0,1.0,1.0,0.0,0.0,1.0,1.0,0.0,3.0,1.0,0.0,6.0,0.0,3.0,8.0,2.0,6.0,5.0,1.0,4.0,3.0,3.095834429783281,7.310631756336079,6.367748726377613,1.9928736358997412,5.231652449190733,3.8947880550986156,226.42616290225124,546.1072367263696,546.9156685071794,546.7510975644109,555.2834674111946,556.292969515096,547.9324657544785,555.2751339329407
1,202,1,1,nan,nan,nan,1,4,5,3,6,0,2,1.0,1.0,1.0,1.0,1.0,1.0,1.0,0.0,0.0,0.0,0.0,0.0,1.0,4.0,6.0,0.0,0.0,7.0,3.0,1.0,5.0,6.0,2.0,3.0,4.0,1.776918802614091,6.590296786438557,7.94206479244167,3.4231844606692903,4.016040306320065,5.437868830544176,226.42616290225124,556.4920059334981,557.3004254549887,nan,566.3016448284616,567.3064798424166,558.3172292595991,566.2933196181111
1,203,1,1,nan,nan,nan,0,5,8,0,7,2,1,nan,nan,nan,nan,nan,nan,nan,nan,nan,nan,nan,nan,0.0,nan,nan,nan,nan,nan,nan,nan,nan,nan,nan,nan,nan,nan,nan,nan,nan,nan,nan,226.42616290225124,567.5101753679628,nan,nan,nan,nan,nan,nan
1,204,1,1,nan,nan,nan,0,6,1,2,4,7,0,nan,nan,nan,nan,nan,nan,nan,nan,nan,nan,nan,nan,0.0,nan,nan,nan,nan,nan,nan,nan,nan,nan,nan,nan,nan,nan,nan,nan,nan,nan,nan,226.42616290225124,568.5103107905597,nan,nan,nan,nan,nan,nan
1,205,1,1,1.0,1.0,0.44842380940099247,0,0,6,5,8,3,1,nan,nan,nan,nan,nan,nan,nan,nan,nan,nan,nan,nan,0.0,nan,nan,nan,nan,nan,nan,nan,nan,nan,nan,nan,nan,nan,nan,nan,nan,nan,nan,226.42616290225124,569.5104573320423,nan,569.9588811414433,nan,nan,nan,nan
1,206,0,0,1.0,0.0,0.2722552764171269,0,4,2,6,5,0,8,nan,nan,nan,nan,nan,nan,nan,nan,nan,nan,nan,nan,0.0,nan,nan,nan,nan,nan,nan,nan,nan,nan,nan,nan,nan,nan,nan,nan,nan,nan,nan,226.42616290225124,570.5106215497508,nan,570.7828768261679,nan,nan,nan,nan
1,207,1,1,1.0,1.0,0.5521731903718319,0,1,4,8,7,5,2,nan,nan,nan,nan,nan,nan,nan,nan,nan,nan,nan,nan,0.0,nan,nan,nan,nan,nan,nan,nan,nan,nan,nan,nan,nan,nan,nan,nan,nan,nan,nan,226.42616290225124,571.5106871227908,nan,572.0628603131627,nan,nan,nan,nan
1,208,1,1,1.0,1.0,0.7199885731824907,1,8,0,5,2,1,6,1.0,1.0,1.0,1.0,1.0,1.0,1.0,1.0,0.0,1.0,0.0,1.0,4.0,8.0,0.0,0.0,2.0,7.0,6.0,2.0,1.0,6.0,5.0,4.0,3.0,2.4289668625278864,1.0439604520506691,7.46725410608633,6.115466713279602,4.940290328930132,3.2283512742142193,226.42616290225124,572.5108584679983,573.3192885382014,573.2308470411808,581.8454423457588,582.8439415784087,574.3360926278983,581.8371108631982
1,209,1,1,nan,nan,nan,0,5,2,0,3,6,7,nan,nan,nan,nan,nan,nan,nan,nan,nan,nan,nan,nan,0.0,nan,nan,nan,nan,nan,nan,nan,nan,nan,nan,nan,nan,nan,nan,nan,nan,nan,nan,226.42616290225124,583.0456493855017,nan,nan,nan,nan,nan,nan
1,210,1,1,nan,nan,nan,0,8,0,2,4,7,1,nan,nan,nan,nan,nan,nan,nan,nan,nan,nan,nan,nan,0.0,nan,nan,nan,nan,nan,nan,nan,nan,nan,nan,nan,nan,nan,nan,nan,nan,nan,nan,226.42616290225124,584.0458543725399,nan,nan,nan,nan,nan,nan
1,211,1,1,1.0,1.0,0.008866330492310226,0,4,2,3,5,6,8,nan,nan,nan,nan,nan,nan,nan,nan,nan,nan,nan,nan,0.0,nan,nan,nan,nan,nan,nan,nan,nan,nan,nan,nan,nan,nan,nan,nan,nan,nan,nan,226.42616290225124,585.0459159541788,nan,585.0547822846711,nan,nan,nan,nan
1,212,1,1,nan,nan,nan,0,6,4,2,8,7,5,nan,nan,nan,nan,nan,nan,nan,nan,nan,nan,nan,nan,0.0,nan,nan,nan,nan,nan,nan,nan,nan,nan,nan,nan,nan,nan,nan,nan,nan,nan,nan,226.42616290225124,586.0460456747533,nan,nan,nan,nan,nan,nan
1,213,1,1,1.0,1.0,0.7125109656626591,0,2,0,6,4,5,8,nan,nan,nan,nan,nan,nan,nan,nan,nan,nan,nan,nan,0.0,nan,nan,nan,nan,nan,nan,nan,nan,nan,nan,nan,nan,nan,nan,nan,nan,nan,nan,226.42616290225124,587.046178246339,nan,587.7586892120016,nan,nan,nan,nan
1,214,1,1,1.0,1.0,0.6004167024220806,0,8,7,1,2,0,3,nan,nan,nan,nan,nan,nan,nan,nan,nan,nan,nan,nan,0.0,nan,nan,nan,nan,nan,nan,nan,nan,nan,nan,nan,nan,nan,nan,nan,nan,nan,nan,226.42616290225124,588.046322221926,nan,588.646738924348,nan,nan,nan,nan
1,215,1,1,1.0,1.0,0.5122794072958641,0,1,5,8,6,2,0,nan,nan,nan,nan,nan,nan,nan,nan,nan,nan,nan,nan,0.0,nan,nan,nan,nan,nan,nan,nan,nan,nan,nan,nan,nan,nan,nan,nan,nan,nan,nan,226.42616290225124,589.0464602104184,nan,589.5587396177143,nan,nan,nan,nan
1,216,1,1,1.0,1.0,0.6001575463596964,0,2,0,3,7,5,8,nan,nan,nan,nan,nan,nan,nan,nan,nan,nan,nan,nan,0.0,nan,nan,nan,nan,nan,nan,nan,nan,nan,nan,nan,nan,nan,nan,nan,nan,nan,nan,226.42616290225124,590.0465973436076,nan,590.6467548899673,nan,nan,nan,nan
1,217,1,1,0.0,0.0,0.3839640842197696,0,4,8,1,0,6,7,nan,nan,nan,nan,nan,nan,nan,nan,nan,nan,nan,nan,0.0,nan,nan,nan,nan,nan,nan,nan,nan,nan,nan,nan,nan,nan,nan,nan,nan,nan,nan,226.42616290225124,591.0467339065945,nan,591.4306979908142,nan,nan,nan,nan
1,218,1,1,1.0,1.0,0.5597799482784467,0,8,1,6,7,5,3,nan,nan,nan,nan,nan,nan,nan,nan,nan,nan,nan,nan,0.0,nan,nan,nan,nan,nan,nan,nan,nan,nan,nan,nan,nan,nan,nan,nan,nan,nan,nan,226.42616290225124,592.0468613463745,nan,592.606641294653,nan,nan,nan,nan
1,219,1,1,1.0,1.0,0.3196571727312403,0,7,8,3,2,0,1,nan,nan,nan,nan,nan,nan,nan,nan,nan,nan,nan,nan,0.0,nan,nan,nan,nan,nan,nan,nan,nan,nan,nan,nan,nan,nan,nan,nan,nan,nan,nan,226.42616290225124,593.0470158706739,nan,593.3666730434052,nan,nan,nan,nan
1,220,1,1,1.0,1.0,0.38352902134647593,0,6,2,1,4,7,5,nan,nan,nan,nan,nan,nan,nan,nan,nan,nan,nan,nan,0.0,nan,nan,nan,nan,nan,nan,nan,nan,nan,nan,nan,nan,nan,nan,nan,nan,nan,nan,226.42616290225124,594.0471455912484,nan,594.4306746125949,nan,nan,nan,nan
1,221,1,1,1.0,1.0,0.2873268123221351,0,4,7,3,8,2,0,nan,nan,nan,nan,nan,nan,nan,nan,nan,nan,nan,nan,0.0,nan,nan,nan,nan,nan,nan,nan,nan,nan,nan,nan,nan,nan,nan,nan,nan,nan,nan,226.42616290225124,595.0473277702695,nan,595.3346545825916,nan,nan,nan,nan
1,222,0,0,0.0,1.0,0.5672279053833336,0,8,5,0,4,3,6,nan,nan,nan,nan,nan,nan,nan,nan,nan,nan,nan,nan,0.0,nan,nan,nan,nan,nan,nan,nan,nan,nan,nan,nan,nan,nan,nan,nan,nan,nan,nan,226.42616290225124,596.0474170066154,nan,596.6146449119988,nan,nan,nan,nan
1,223,1,1,1.0,1.0,0.5990761613793438,0,1,8,2,6,7,3,nan,nan,nan,nan,nan,nan,nan,nan,nan,nan,nan,nan,0.0,nan,nan,nan,nan,nan,nan,nan,nan,nan,nan,nan,nan,nan,nan,nan,nan,nan,nan,226.42616290225124,597.0475561355124,nan,597.6466322968918,nan,nan,nan,nan
1,224,1,1,1.0,1.0,0.7749273778463248,0,0,1,4,8,3,2,nan,nan,nan,nan,nan,nan,nan,nan,nan,nan,nan,nan,0.0,nan,nan,nan,nan,nan,nan,nan,nan,nan,nan,nan,nan,nan,nan,nan,nan,nan,nan,226.42616290225124,598.0476926984993,nan,598.8226200763456,nan,nan,nan,nan
1,225,1,1,1.0,1.0,0.7104371469467878,0,6,7,0,2,1,4,nan,nan,nan,nan,nan,nan,nan,nan,nan,nan,nan,nan,0.0,nan,nan,nan,nan,nan,nan,nan,nan,nan,nan,nan,nan,nan,nan,nan,nan,nan,nan,226.42616290225124,599.0561738586548,nan,599.7666110056016,nan,nan,nan,nan
1,226,1,1,1.0,1.0,0.5823111304052873,0,3,2,4,7,6,5,nan,nan,nan,nan,nan,nan,nan,nan,nan,nan,nan,nan,0.0,nan,nan,nan,nan,nan,nan,nan,nan,nan,nan,nan,nan,nan,nan,nan,nan,nan,nan,226.42616290225124,600.0562893242168,nan,600.6386004546221,nan,nan,nan,nan
1,227,1,1,1.0,1.0,0.4621539489598945,0,1,6,8,4,5,7,nan,nan,nan,nan,nan,nan,nan,nan,nan,nan,nan,nan,0.0,nan,nan,nan,nan,nan,nan,nan,nan,nan,nan,nan,nan,nan,nan,nan,nan,nan,nan,226.42616290225124,601.0564506909286,nan,601.5186046398885,nan,nan,nan,nan
1,228,1,1,1.0,1.0,0.50200981371745,0,4,5,6,8,0,1,nan,nan,nan,nan,nan,nan,nan,nan,nan,nan,nan,nan,0.0,nan,nan,nan,nan,nan,nan,nan,nan,nan,nan,nan,nan,nan,nan,nan,nan,nan,nan,226.42616290225124,602.0565798413008,nan,602.5585896550183,nan,nan,nan,nan
1,229,1,1,1.0,1.0,0.4058549313340336,0,5,6,0,2,8,3,nan,nan,nan,nan,nan,nan,nan,nan,nan,nan,nan,nan,0.0,nan,nan,nan,nan,nan,nan,nan,nan,nan,nan,nan,nan,nan,nan,nan,nan,nan,nan,226.42616290225124,603.0567275232024,nan,603.4625824545365,nan,nan,nan,nan
1,230,1,1,1.0,1.0,0.4297115441877395,0,1,8,5,7,4,2,nan,nan,nan,nan,nan,nan,nan,nan,nan,nan,nan,nan,0.0,nan,nan,nan,nan,nan,nan,nan,nan,nan,nan,nan,nan,nan,nan,nan,nan,nan,nan,226.42616290225124,604.0568543927802,nan,604.486565936968,nan,nan,nan,nan
1,231,1,1,1.0,1.0,0.6055753050750354,0,7,6,3,5,2,0,nan,nan,nan,nan,nan,nan,nan,nan,nan,nan,nan,nan,0.0,nan,nan,nan,nan,nan,nan,nan,nan,nan,nan,nan,nan,nan,nan,nan,nan,nan,nan,226.42616290225124,605.0569869643659,nan,605.662562269441,nan,nan,nan,nan
1,232,1,1,1.0,1.0,0.6614175922150025,0,2,3,1,0,8,6,nan,nan,nan,nan,nan,nan,nan,nan,nan,nan,nan,nan,0.0,nan,nan,nan,nan,nan,nan,nan,nan,nan,nan,nan,nan,nan,nan,nan,nan,nan,nan,226.42616290225124,606.0571303697507,nan,606.7185479619657,nan,nan,nan,nan
1,233,1,1,1.0,1.0,0.741290688427398,0,5,4,6,7,1,8,nan,nan,nan,nan,nan,nan,nan,nan,nan,nan,nan,nan,0.0,nan,nan,nan,nan,nan,nan,nan,nan,nan,nan,nan,nan,nan,nan,nan,nan,nan,nan,226.42616290225124,607.0572609456285,nan,607.7985516340559,nan,nan,nan,nan
1,234,1,1,1.0,1.0,0.7811368597758701,0,2,7,5,4,8,1,nan,nan,nan,nan,nan,nan,nan,nan,nan,nan,nan,nan,0.0,nan,nan,nan,nan,nan,nan,nan,nan,nan,nan,nan,nan,nan,nan,nan,nan,nan,nan,226.42616290225124,608.0574294398393,nan,608.8385662996152,nan,nan,nan,nan
1,235,0,0,nan,nan,nan,0,7,2,0,3,5,8,nan,nan,nan,nan,nan,nan,nan,nan,nan,nan,nan,nan,0.0,nan,nan,nan,nan,nan,nan,nan,nan,nan,nan,nan,nan,nan,nan,nan,nan,nan,nan,226.42616290225124,609.0575220973988,nan,nan,nan,nan,nan,nan
1,236,1,1,1.0,1.0,0.5888196824089391,0,8,6,2,1,4,7,nan,nan,nan,nan,nan,nan,nan,nan,nan,nan,nan,nan,0.0,nan,nan,nan,nan,nan,nan,nan,nan,nan,nan,nan,nan,nan,nan,nan,nan,nan,nan,226.42616290225124,610.0576697792858,nan,610.6464894616947,nan,nan,nan,nan
1,237,1,1,1.0,1.0,0.45271228630736005,0,7,4,8,2,0,1,nan,nan,nan,nan,nan,nan,nan,nan,nan,nan,nan,nan,0.0,nan,nan,nan,nan,nan,nan,nan,nan,nan,nan,nan,nan,nan,nan,nan,nan,nan,nan,226.42616290225124,611.0578114740783,nan,611.5105237603857,nan,nan,nan,nan
1,238,1,1,1.0,1.0,0.3645558894640999,0,2,3,0,6,1,8,nan,nan,nan,nan,nan,nan,nan,nan,nan,nan,nan,nan,0.0,nan,nan,nan,nan,nan,nan,nan,nan,nan,nan,nan,nan,nan,nan,nan,nan,nan,nan,226.42616290225124,612.0579488923686,nan,612.4225047818327,nan,nan,nan,nan
1,239,1,1,1.0,1.0,0.2844350412051426,0,5,0,4,1,2,7,nan,nan,nan,nan,nan,nan,nan,nan,nan,nan,nan,nan,0.0,nan,nan,nan,nan,nan,nan,nan,nan,nan,nan,nan,nan,nan,nan,nan,nan,nan,nan,226.42616290225124,613.0580646430462,nan,613.3424996842514,nan,nan,nan,nan
1,240,1,1,1.0,1.0,0.25226775811461266,1,1,4,7,8,3,0,1.0,1.0,1.0,1.0,1.0,1.0,1.0,0.0,0.0,0.0,0.0,0.0,1.0,1.0,0.0,4.0,6.0,8.0,7.0,2.0,3.0,4.0,5.0,6.0,1.0,2.2241711353708524,3.7995745735097444,4.9757029073662125,5.864061098109232,6.807193020518753,1.1272775584220653,226.42616290225124,614.0582251544402,614.8666441057285,614.3104929125548,622.7260583560128,623.7311930102587,615.8834561782423,622.7177274436544
1,241,1,1,1.0,1.0,0.5758305181952892,0,6,3,8,1,4,7,nan,nan,nan,nan,nan,nan,nan,nan,nan,nan,nan,nan,0.0,nan,nan,nan,nan,nan,nan,nan,nan,nan,nan,nan,nan,nan,nan,nan,nan,nan,nan,226.42616290225124,623.9345783468161,nan,624.5104088650114,nan,nan,nan,nan
1,242,1,1,1.0,1.0,0.7116741966310656,1,0,2,4,5,3,6,1.0,1.0,1.0,1.0,1.0,1.0,1.0,1.0,0.0,0.0,0.0,1.0,3.0,0.0,2.0,8.0,3.0,4.0,6.0,3.0,2.0,6.0,5.0,4.0,1.0,4.060120785536128,2.4509252783755073,7.099184641992906,5.87545170559315,4.987822230905294,1.2534509238466853,226.42616290225124,624.9347092077951,625.743146120396,625.6463834044262,633.8859180183063,634.8850957893737,626.7516141659435,633.8775930930424
1,243,1,1,1.0,1.0,0.752192349100369,0,5,7,1,0,4,8,nan,nan,nan,nan,nan,nan,nan,nan,nan,nan,nan,nan,0.0,nan,nan,nan,nan,nan,nan,nan,nan,nan,nan,nan,nan,nan,nan,nan,nan,nan,nan,226.42616290225124,635.0861045308411,nan,635.8382968799415,nan,nan,nan,nan
1,244,1,1,1.0,1.0,0.736044274904998,0,3,1,2,6,5,0,nan,nan,nan,nan,nan,nan,nan,nan,nan,nan,nan,nan,0.0,nan,nan,nan,nan,nan,nan,nan,nan,nan,nan,nan,nan,nan,nan,nan,nan,nan,nan,226.42616290225124,636.0862547786382,nan,636.8222990535432,nan,nan,nan,nan
1,245,1,1,nan,nan,nan,0,4,8,7,5,0,2,nan,nan,nan,nan,nan,nan,nan,nan,nan,nan,nan,nan,0.0,nan,nan,nan,nan,nan,nan,nan,nan,nan,nan,nan,nan,nan,nan,nan,nan,nan,nan,226.42616290225124,637.0863847843139,nan,nan,nan,nan,nan,nan
1,246,1,1,1.0,1.0,0.19973006715008523,0,3,6,8,0,5,1,nan,nan,nan,nan,nan,nan,nan,nan,nan,nan,nan,nan,0.0,nan,nan,nan,nan,nan,nan,nan,nan,nan,nan,nan,nan,nan,nan,nan,nan,nan,nan,226.42616290225124,638.0865338917065,nan,638.2862639588566,nan,nan,nan,nan
1,247,1,1,1.0,1.0,0.2875908150890609,0,2,1,0,4,8,5,nan,nan,nan,nan,nan,nan,nan,nan,nan,nan,nan,nan,0.0,nan,nan,nan,nan,nan,nan,nan,nan,nan,nan,nan,nan,nan,nan,nan,nan,nan,nan,226.42616290225124,639.0866544890887,nan,639.3742453041777,nan,nan,nan,nan
1,248,1,1,1.0,1.0,0.3274258675373858,0,4,6,8,2,1,3,nan,nan,nan,nan,nan,nan,nan,nan,nan,nan,nan,nan,0.0,nan,nan,nan,nan,nan,nan,nan,nan,nan,nan,nan,nan,nan,nan,nan,nan,nan,nan,226.42616290225124,640.0867924775666,nan,640.414218345104,nan,nan,nan,nan
1,249,0,0,1.0,0.0,0.6549646347411908,0,7,0,6,3,8,1,nan,nan,nan,nan,nan,nan,nan,nan,nan,nan,nan,nan,0.0,nan,nan,nan,nan,nan,nan,nan,nan,nan,nan,nan,nan,nan,nan,nan,nan,nan,nan,226.42616290225124,641.0952576721174,nan,641.7502223068586,nan,nan,nan,nan
1,250,1,1,1.0,1.0,0.5908330598758766,0,3,8,4,0,5,2,nan,nan,nan,nan,nan,nan,nan,nan,nan,nan,nan,nan,0.0,nan,nan,nan,nan,nan,nan,nan,nan,nan,nan,nan,nan,nan,nan,nan,nan,nan,nan,226.42616290225124,642.0953873926919,nan,642.6862204525678,nan,nan,nan,nan
1,251,1,1,1.0,1.0,0.4546469761262415,0,6,7,0,4,2,3,nan,nan,nan,nan,nan,nan,nan,nan,nan,nan,nan,nan,0.0,nan,nan,nan,nan,nan,nan,nan,nan,nan,nan,nan,nan,nan,nan,nan,nan,nan,nan,226.42616290225124,643.0955461934936,nan,643.5501931696199,nan,nan,nan,nan
1,252,1,1,1.0,1.0,0.6385092225536937,0,0,1,7,6,8,5,nan,nan,nan,nan,nan,nan,nan,nan,nan,nan,nan,nan,0.0,nan,nan,nan,nan,nan,nan,nan,nan,nan,nan,nan,nan,nan,nan,nan,nan,nan,nan,226.42616290225124,644.095680190585,nan,644.7341894131387,nan,nan,nan,nan
1,253,1,1,1.0,1.0,0.44635683309752494,0,6,3,1,7,2,0,nan,nan,nan,nan,nan,nan,nan,nan,nan,nan,nan,nan,0.0,nan,nan,nan,nan,nan,nan,nan,nan,nan,nan,nan,nan,nan,nan,nan,nan,nan,nan,226.42616290225124,645.0958156131674,nan,645.5421724462649,nan,nan,nan,nan
1,254,1,1,1.0,1.0,0.3022207308385987,0,4,1,7,5,3,6,nan,nan,nan,nan,nan,nan,nan,nan,nan,nan,nan,nan,0.0,nan,nan,nan,nan,nan,nan,nan,nan,nan,nan,nan,nan,nan,nan,nan,nan,nan,nan,226.42616290225124,646.0959510357497,nan,646.3981717665883,nan,nan,nan,nan
1,255,1,1,1.0,1.0,0.32607506288331933,0,0,2,1,6,4,7,nan,nan,nan,nan,nan,nan,nan,nan,nan,nan,nan,nan,0.0,nan,nan,nan,nan,nan,nan,nan,nan,nan,nan,nan,nan,nan,nan,nan,nan,nan,nan,226.42616290225124,647.0960856030433,nan,647.4221606659266,nan,nan,nan,nan
1,256,1,1,1.0,1.0,0.33395751265925355,0,7,1,2,0,6,8,nan,nan,nan,nan,nan,nan,nan,nan,nan,nan,nan,nan,0.0,nan,nan,nan,nan,nan,nan,nan,nan,nan,nan,nan,nan,nan,nan,nan,nan,nan,nan,226.42616290225124,648.0961902348063,nan,648.4301477474655,nan,nan,nan,nan
1,257,1,1,1.0,1.0,0.3657761182403192,0,1,2,3,8,0,6,nan,nan,nan,nan,nan,nan,nan,nan,nan,nan,nan,nan,0.0,nan,nan,nan,nan,nan,nan,nan,nan,nan,nan,nan,nan,nan,nan,nan,nan,nan,nan,226.42616290225124,649.0963587290025,nan,649.4621348472429,nan,nan,nan,nan
1,258,1,1,1.0,1.0,0.2696471799717983,0,8,7,4,0,3,1,nan,nan,nan,nan,nan,nan,nan,nan,nan,nan,nan,nan,0.0,nan,nan,nan,nan,nan,nan,nan,nan,nan,nan,nan,nan,nan,nan,nan,nan,nan,nan,226.42616290225124,650.0964958621917,nan,650.3661430421635,nan,nan,nan,nan
1,259,1,1,1.0,1.0,0.5254801158298505,0,4,5,0,3,7,8,nan,nan,nan,nan,nan,nan,nan,nan,nan,nan,nan,nan,0.0,nan,nan,nan,nan,nan,nan,nan,nan,nan,nan,nan,nan,nan,nan,nan,nan,nan,nan,226.42616290225124,651.0966352761898,nan,651.6221153920196,nan,nan,nan,nan
1,260,1,1,1.0,1.0,0.2933478430350078,0,2,0,6,7,8,4,nan,nan,nan,nan,nan,nan,nan,nan,nan,nan,nan,nan,0.0,nan,nan,nan,nan,nan,nan,nan,nan,nan,nan,nan,nan,nan,nan,nan,nan,nan,nan,226.42616290225124,652.0967741199711,nan,652.3901219630061,nan,nan,nan,nan
1,261,1,1,1.0,1.0,0.26918788357579615,0,3,6,8,2,4,1,nan,nan,nan,nan,nan,nan,nan,nan,nan,nan,nan,nan,0.0,nan,nan,nan,nan,nan,nan,nan,nan,nan,nan,nan,nan,nan,nan,nan,nan,nan,nan,226.42616290225124,653.0969200912659,nan,653.3661079748417,nan,nan,nan,nan
1,262,1,1,1.0,1.0,0.3330526046920568,0,2,3,6,4,5,0,nan,nan,nan,nan,nan,nan,nan,nan,nan,nan,nan,nan,0.0,nan,nan,nan,nan,nan,nan,nan,nan,nan,nan,nan,nan,nan,nan,nan,nan,nan,nan,226.42616290225124,654.0970566542528,nan,654.4301092589449,nan,nan,nan,nan
1,263,1,1,1.0,1.0,0.28493111552961636,0,8,5,4,7,2,1,nan,nan,nan,nan,nan,nan,nan,nan,nan,nan,nan,nan,0.0,nan,nan,nan,nan,nan,nan,nan,nan,nan,nan,nan,nan,nan,nan,nan,nan,nan,nan,226.42616290225124,655.0971729751182,nan,655.3821040906478,nan,nan,nan,nan
1,264,1,1,1.0,1.0,0.3007610179047333,0,5,8,7,2,4,0,nan,nan,nan,nan,nan,nan,nan,nan,nan,nan,nan,nan,0.0,nan,nan,nan,nan,nan,nan,nan,nan,nan,nan,nan,nan,nan,nan,nan,nan,nan,nan,226.42616290225124,656.0973300653277,nan,656.3980910832324,nan,nan,nan,nan
1,265,1,1,1.0,1.0,0.4526082247321028,0,4,6,2,8,0,3,nan,nan,nan,nan,nan,nan,nan,nan,nan,nan,nan,nan,0.0,nan,nan,nan,nan,nan,nan,nan,nan,nan,nan,nan,nan,nan,nan,nan,nan,nan,nan,226.42616290225124,657.0974620667112,nan,657.5500702914433,nan,nan,nan,nan
1,266,0,0,0.0,1.0,0.5321280818316154,0,6,4,0,5,1,8,nan,nan,nan,nan,nan,nan,nan,nan,nan,nan,nan,nan,0.0,nan,nan,nan,nan,nan,nan,nan,nan,nan,nan,nan,nan,nan,nan,nan,nan,nan,nan,226.42616290225124,658.1059440821555,nan,658.6380721639871,nan,nan,nan,nan
1,267,1,1,1.0,1.0,0.5396478841721546,0,7,8,4,1,5,3,nan,nan,nan,nan,nan,nan,nan,nan,nan,nan,nan,nan,0.0,nan,nan,nan,nan,nan,nan,nan,nan,nan,nan,nan,nan,nan,nan,nan,nan,nan,nan,226.42616290225124,659.1144198254042,nan,659.6540677095763,nan,nan,nan,nan
1,268,0,0,1.0,0.0,0.49949608543829527,0,3,0,5,4,8,2,nan,nan,nan,nan,nan,nan,nan,nan,nan,nan,nan,nan,0.0,nan,nan,nan,nan,nan,nan,nan,nan,nan,nan,nan,nan,nan,nan,nan,nan,nan,nan,226.42616290225124,660.1145509714843,nan,660.6140470569226,nan,nan,nan,nan
1,269,1,1,nan,nan,nan,0,8,7,6,5,0,4,nan,nan,nan,nan,nan,nan,nan,nan,nan,nan,nan,nan,0.0,nan,nan,nan,nan,nan,nan,nan,nan,nan,nan,nan,nan,nan,nan,nan,nan,nan,nan,226.42616290225124,661.1230067577271,nan,nan,nan,nan,nan,nan
1,270,1,1,1.0,1.0,0.6668285085324896,1,7,6,8,2,1,3,1.0,1.0,1.0,1.0,1.0,1.0,1.0,1.0,0.0,0.0,0.0,1.0,3.0,7.0,6.0,0.0,1.0,4.0,3.0,1.0,2.0,3.0,4.0,5.0,6.0,0.9682888771785656,1.759078088653041,4.414921972347656,5.4306939993985,6.541748502291739,7.621590522583574,226.42616290225124,662.1231598565209,662.9315716803103,662.7899883650534,671.6077643042518,672.6055733093672,663.9483846081275,671.5994276899
1,271,1,1,1.0,1.0,0.717991161334794,0,2,8,5,3,6,0,nan,nan,nan,nan,nan,nan,nan,nan,nan,nan,nan,nan,0.0,nan,nan,nan,nan,nan,nan,nan,nan,nan,nan,nan,nan,nan,nan,nan,nan,nan,nan,226.42616290225124,672.8079513869889,nan,673.5259425483237,nan,nan,nan,nan
1,272,1,1,1.0,1.0,0.4938168898515869,0,7,6,8,2,4,5,nan,nan,nan,nan,nan,nan,nan,nan,nan,nan,nan,nan,0.0,nan,nan,nan,nan,nan,nan,nan,nan,nan,nan,nan,nan,nan,nan,nan,nan,nan,nan,226.42616290225124,673.8080859542824,nan,674.301902844134,nan,nan,nan,nan
1,273,1,1,1.0,1.0,0.4456654651585268,0,1,5,2,8,3,4,nan,nan,nan,nan,nan,nan,nan,nan,nan,nan,nan,nan,0.0,nan,nan,nan,nan,nan,nan,nan,nan,nan,nan,nan,nan,nan,nan,nan,nan,nan,nan,226.42616290225124,674.8082339212706,nan,675.2538993864291,nan,nan,nan,nan
1,274,0,0,1.0,0.0,0.3175454356969567,0,4,8,7,5,1,0,nan,nan,nan,nan,nan,nan,nan,nan,nan,nan,nan,nan,0.0,nan,nan,nan,nan,nan,nan,nan,nan,nan,nan,nan,nan,nan,nan,nan,nan,nan,nan,226.42616290225124,675.808349101746,nan,676.125894537443,nan,nan,nan,nan
1,275,1,1,1.0,1.0,0.33338873779575806,0,5,4,3,7,6,1,nan,nan,nan,nan,nan,nan,nan,nan,nan,nan,nan,nan,0.0,nan,nan,nan,nan,nan,nan,nan,nan,nan,nan,nan,nan,nan,nan,nan,nan,nan,nan,226.42616290225124,676.8084959283442,nan,677.14188466614,nan,nan,nan,nan
1,276,1,1,1.0,1.0,0.4612345008936245,0,1,8,0,2,5,4,nan,nan,nan,nan,nan,nan,nan,nan,nan,nan,nan,nan,0.0,nan,nan,nan,nan,nan,nan,nan,nan,nan,nan,nan,nan,nan,nan,nan,nan,nan,nan,226.42616290225124,677.808646746329,nan,678.2698812472227,nan,nan,nan,nan
1,277,1,1,1.0,1.0,0.5090708898787852,0,6,0,7,1,4,5,nan,nan,nan,nan,nan,nan,nan,nan,nan,nan,nan,nan,0.0,nan,nan,nan,nan,nan,nan,nan,nan,nan,nan,nan,nan,nan,nan,nan,nan,nan,nan,226.42616290225124,678.8087850199227,nan,679.3178559098014,nan,nan,nan,nan
1,278,1,1,1.0,1.0,0.5249632291961461,0,1,7,2,8,5,3,nan,nan,nan,nan,nan,nan,nan,nan,nan,nan,nan,nan,0.0,nan,nan,nan,nan,nan,nan,nan,nan,nan,nan,nan,nan,nan,nan,nan,nan,nan,nan,226.42616290225124,679.8088947834913,nan,680.3338580126874,nan,nan,nan,nan
1,279,1,1,1.0,1.0,0.46079402111354284,0,3,5,1,6,0,2,nan,nan,nan,nan,nan,nan,nan,nan,nan,nan,nan,nan,0.0,nan,nan,nan,nan,nan,nan,nan,nan,nan,nan,nan,nan,nan,nan,nan,nan,nan,nan,226.42616290225124,680.8090464567795,nan,681.269840477893,nan,nan,nan,nan
1,280,1,1,1.0,1.0,0.30863491467607673,0,0,3,6,2,4,7,nan,nan,nan,nan,nan,nan,nan,nan,nan,nan,nan,nan,0.0,nan,nan,nan,nan,nan,nan,nan,nan,nan,nan,nan,nan,nan,nan,nan,nan,nan,nan,226.42616290225124,681.8091981300822,nan,682.1178330447583,nan,nan,nan,nan
1,281,1,1,1.0,1.0,0.1085011456743814,0,7,1,0,3,2,4,nan,nan,nan,nan,nan,nan,nan,nan,nan,nan,nan,nan,0.0,nan,nan,nan,nan,nan,nan,nan,nan,nan,nan,nan,nan,nan,nan,nan,nan,nan,nan,226.42616290225124,682.8093247145589,nan,682.9178258602333,nan,nan,nan,nan
1,282,1,1,nan,nan,nan,0,6,7,4,8,1,5,nan,nan,nan,nan,nan,nan,nan,nan,nan,nan,nan,nan,0.0,nan,nan,nan,nan,nan,nan,nan,nan,nan,nan,nan,nan,nan,nan,nan,nan,nan,nan,226.42616290225124,683.8094501586456,nan,nan,nan,nan,nan,nan
1,283,1,1,1.0,1.0,0.31624395337712485,0,4,2,5,0,7,1,nan,nan,nan,nan,nan,nan,nan,nan,nan,nan,nan,nan,0.0,nan,nan,nan,nan,nan,nan,nan,nan,nan,nan,nan,nan,nan,nan,nan,nan,nan,nan,226.42616290225124,684.8095935640304,nan,685.1258375174075,nan,nan,nan,nan
1,284,1,1,1.0,1.0,0.3160677614650922,0,0,5,3,4,8,7,nan,nan,nan,nan,nan,nan,nan,nan,nan,nan,nan,nan,0.0,nan,nan,nan,nan,nan,nan,nan,nan,nan,nan,nan,nan,nan,nan,nan,nan,nan,nan,226.42616290225124,685.8097269909194,nan,686.1257947523845,nan,nan,nan,nan
1,285,0,0,1.0,0.0,0.29192291233630385,0,1,2,8,0,4,6,nan,nan,nan,nan,nan,nan,nan,nan,nan,nan,nan,nan,0.0,nan,nan,nan,nan,nan,nan,nan,nan,nan,nan,nan,nan,nan,nan,nan,nan,nan,nan,226.42616290225124,686.8098689707986,nan,687.1017918831349,nan,nan,nan,nan
1,286,1,1,1.0,1.0,0.6117588428751333,0,7,1,3,4,6,8,nan,nan,nan,nan,nan,nan,nan,nan,nan,nan,nan,nan,0.0,nan,nan,nan,nan,nan,nan,nan,nan,nan,nan,nan,nan,nan,nan,nan,nan,nan,nan,226.42616290225124,687.8100041082944,nan,688.4217629511695,nan,nan,nan,nan
1,287,0,0,nan,nan,nan,0,3,2,8,5,1,7,nan,nan,nan,nan,nan,nan,nan,nan,nan,nan,nan,nan,0.0,nan,nan,nan,nan,nan,nan,nan,nan,nan,nan,nan,nan,nan,nan,nan,nan,nan,nan,226.42616290225124,688.8101466583757,nan,nan,nan,nan,nan,nan
1,288,1,1,nan,nan,nan,0,6,4,0,2,7,5,nan,nan,nan,nan,nan,nan,nan,nan,nan,nan,nan,nan,0.0,nan,nan,nan,nan,nan,nan,nan,nan,nan,nan,nan,nan,nan,nan,nan,nan,nan,nan,226.42616290225124,689.810276949167,nan,nan,nan,nan,nan,nan
1,289,1,1,nan,nan,nan,0,2,1,6,4,0,3,nan,nan,nan,nan,nan,nan,nan,nan,nan,nan,nan,nan,0.0,nan,nan,nan,nan,nan,nan,nan,nan,nan,nan,nan,nan,nan,nan,nan,nan,nan,nan,226.42616290225124,690.8104035336437,nan,nan,nan,nan,nan,nan
1,290,0,0,nan,nan,nan,0,0,4,5,1,8,7,nan,nan,nan,nan,nan,nan,nan,nan,nan,nan,nan,nan,0.0,nan,nan,nan,nan,nan,nan,nan,nan,nan,nan,nan,nan,nan,nan,nan,nan,nan,nan,226.42616290225124,691.8105480794329,nan,nan,nan,nan,nan,nan
1,291,1,1,1.0,1.0,0.5310672240593703,0,7,5,2,4,1,0,nan,nan,nan,nan,nan,nan,nan,nan,nan,nan,nan,nan,0.0,nan,nan,nan,nan,nan,nan,nan,nan,nan,nan,nan,nan,nan,nan,nan,nan,nan,nan,226.42616290225124,692.8106960464211,nan,693.3417632704804,nan,nan,nan,nan
1,292,1,1,1.0,1.0,0.5708979999908479,0,3,0,1,8,4,6,nan,nan,nan,nan,nan,nan,nan,nan,nan,nan,nan,nan,0.0,nan,nan,nan,nan,nan,nan,nan,nan,nan,nan,nan,nan,nan,nan,nan,nan,nan,nan,226.42616290225124,693.8108348902169,nan,694.3817328902078,nan,nan,nan,nan
1,293,1,1,1.0,1.0,0.4187400339724263,0,1,2,7,0,6,8,nan,nan,nan,nan,nan,nan,nan,nan,nan,nan,nan,nan,0.0,nan,nan,nan,nan,nan,nan,nan,nan,nan,nan,nan,nan,nan,nan,nan,nan,nan,nan,226.42616290225124,694.8109751595039,nan,695.2297151934763,nan,nan,nan,nan
1,294,1,1,1.0,1.0,0.5465929245547159,0,4,3,8,6,0,2,nan,nan,nan,nan,nan,nan,nan,nan,nan,nan,nan,nan,0.0,nan,nan,nan,nan,nan,nan,nan,nan,nan,nan,nan,nan,nan,nan,nan,nan,nan,nan,226.42616290225124,695.8111154287908,nan,696.3577083533455,nan,nan,nan,nan
1,295,1,1,1.0,1.0,0.45042407227447256,0,0,7,2,8,1,3,nan,nan,nan,nan,nan,nan,nan,nan,nan,nan,nan,nan,0.0,nan,nan,nan,nan,nan,nan,nan,nan,nan,nan,nan,nan,nan,nan,nan,nan,nan,nan,226.42616290225124,696.8112502811709,nan,697.2616743534454,nan,nan,nan,nan
1,296,1,1,1.0,1.0,0.3943166419485351,0,8,5,7,2,4,6,nan,nan,nan,nan,nan,nan,nan,nan,nan,nan,nan,nan,0.0,nan,nan,nan,nan,nan,nan,nan,nan,nan,nan,nan,nan,nan,nan,nan,nan,nan,nan,226.42616290225124,697.8113762954599,nan,698.2056929374085,nan,nan,nan,nan
1,297,1,1,1.0,1.0,0.4741501092357794,0,5,4,6,1,0,7,nan,nan,nan,nan,nan,nan,nan,nan,nan,nan,nan,nan,0.0,nan,nan,nan,nan,nan,nan,nan,nan,nan,nan,nan,nan,nan,nan,nan,nan,nan,nan,226.42616290225124,698.8115245475492,nan,699.285674656785,nan,nan,nan,nan
1,298,1,1,1.0,1.0,0.45801144336292055,1,4,1,3,7,8,6,1.0,1.0,1.0,1.0,1.0,1.0,1.0,0.0,0.0,0.0,0.0,0.0,1.0,4.0,5.0,0.0,6.0,1.0,3.0,1.0,2.0,3.0,4.0,5.0,6.0,1.749481616599951,2.735448130435543,3.9984025836893125,4.925410380325047,5.916787525391555,7.020973679842427,226.42616290225124,699.8116639615328,700.6200774959289,700.2696754048957,708.6961724445573,709.7020554867631,701.6368659051222,708.6878406768956
1,299,1,1,1.0,1.0,0.6768600434734253,0,1,8,2,3,6,7,nan,nan,nan,nan,nan,nan,nan,nan,nan,nan,nan,nan,0.0,nan,nan,nan,nan,nan,nan,nan,nan,nan,nan,nan,nan,nan,nan,nan,nan,nan,nan,226.42616290225124,709.9047349152679,nan,710.5815949587413,nan,nan,nan,nan
1,300,1,1,1.0,1.0,0.4447240643639816,0,0,7,4,5,1,8,nan,nan,nan,nan,nan,nan,nan,nan,nan,nan,nan,nan,0.0,nan,nan,nan,nan,nan,nan,nan,nan,nan,nan,nan,nan,nan,nan,nan,nan,nan,nan,226.42616290225124,710.9048378364387,nan,711.3495619008027,nan,nan,nan,nan
1,301,1,1,1.0,1.0,0.37257575753028505,0,7,2,5,3,6,0,nan,nan,nan,nan,nan,nan,nan,nan,nan,nan,nan,nan,0.0,nan,nan,nan,nan,nan,nan,nan,nan,nan,nan,nan,nan,nan,nan,nan,nan,nan,nan,226.42616290225124,711.9049746845267,nan,712.277550442057,nan,nan,nan,nan
1,302,1,1,1.0,1.0,0.2844279137061676,0,3,1,2,5,7,4,nan,nan,nan,nan,nan,nan,nan,nan,nan,nan,nan,nan,0.0,nan,nan,nan,nan,nan,nan,nan,nan,nan,nan,nan,nan,nan,nan,nan,nan,nan,nan,226.42616290225124,712.9051103922102,nan,713.1895383059164,nan,nan,nan,nan
1,303,0,0,1.0,0.0,0.39629352660267614,0,6,4,7,8,0,2,nan,nan,nan,nan,nan,nan,nan,nan,nan,nan,nan,nan,0.0,nan,nan,nan,nan,nan,nan,nan,nan,nan,nan,nan,nan,nan,nan,nan,nan,nan,nan,226.42616290225124,713.9052518019016,nan,714.3015453285043,nan,nan,nan,nan
1,304,1,1,1.0,1.0,0.32411927565408405,0,7,6,2,4,1,3,nan,nan,nan,nan,nan,nan,nan,nan,nan,nan,nan,nan,0.0,nan,nan,nan,nan,nan,nan,nan,nan,nan,nan,nan,nan,nan,nan,nan,nan,nan,nan,226.42616290225124,714.9053974880953,nan,715.2295167637494,nan,nan,nan,nan
1,305,1,1,1.0,1.0,0.29997898811416235,0,1,5,3,7,8,0,nan,nan,nan,nan,nan,nan,nan,nan,nan,nan,nan,nan,0.0,nan,nan,nan,nan,nan,nan,nan,nan,nan,nan,nan,nan,nan,nan,nan,nan,nan,nan,226.42616290225124,715.9055320553744,nan,716.2055110434885,nan,nan,nan,nan
1,306,1,1,1.0,1.0,0.28384174773236737,0,6,4,2,3,1,5,nan,nan,nan,nan,nan,nan,nan,nan,nan,nan,nan,nan,0.0,nan,nan,nan,nan,nan,nan,nan,nan,nan,nan,nan,nan,nan,nan,nan,nan,nan,nan,226.42616290225124,716.905670328968,nan,717.1895120767003,nan,nan,nan,nan
1,307,1,1,1.0,1.0,0.36369089552317746,0,4,2,1,8,0,3,nan,nan,nan,nan,nan,nan,nan,nan,nan,nan,nan,nan,0.0,nan,nan,nan,nan,nan,nan,nan,nan,nan,nan,nan,nan,nan,nan,nan,nan,nan,nan,226.42616290225124,717.9058063217526,nan,718.2694972172758,nan,nan,nan,nan
1,308,1,1,1.0,1.0,0.3315318803215632,0,0,6,8,2,3,4,nan,nan,nan,nan,nan,nan,nan,nan,nan,nan,nan,nan,0.0,nan,nan,nan,nan,nan,nan,nan,nan,nan,nan,nan,nan,nan,nan,nan,nan,nan,nan,226.42616290225124,718.9059471612418,nan,719.2374790415633,nan,nan,nan,nan
1,309,1,1,1.0,1.0,0.283389293748769,0,2,0,6,7,4,1,nan,nan,nan,nan,nan,nan,nan,nan,nan,nan,nan,nan,0.0,nan,nan,nan,nan,nan,nan,nan,nan,nan,nan,nan,nan,nan,nan,nan,nan,nan,nan,226.42616290225124,719.9060820136219,nan,720.1894713073707,nan,nan,nan,nan
1,310,1,1,1.0,1.0,0.395241506936145,0,8,4,3,0,7,5,nan,nan,nan,nan,nan,nan,nan,nan,nan,nan,nan,nan,0.0,nan,nan,nan,nan,nan,nan,nan,nan,nan,nan,nan,nan,nan,nan,nan,nan,nan,nan,226.42616290225124,720.906224848819,nan,721.3014663557551,nan,nan,nan,nan
1,311,1,1,1.0,1.0,0.4750872335280292,0,6,1,7,3,8,4,nan,nan,nan,nan,nan,nan,nan,nan,nan,nan,nan,nan,0.0,nan,nan,nan,nan,nan,nan,nan,nan,nan,nan,nan,nan,nan,nan,nan,nan,nan,nan,226.42616290225124,721.9063585607946,nan,722.3814457943226,nan,nan,nan,nan
1,312,1,1,1.0,1.0,0.2989606102783,0,3,2,8,4,1,0,nan,nan,nan,nan,nan,nan,nan,nan,nan,nan,nan,nan,0.0,nan,nan,nan,nan,nan,nan,nan,nan,nan,nan,nan,nan,nan,nan,nan,nan,nan,nan,226.42616290225124,722.906490277077,nan,723.2054508873553,nan,nan,nan,nan
1,313,1,1,1.0,1.0,0.36281250187312253,0,2,3,5,1,0,6,nan,nan,nan,nan,nan,nan,nan,nan,nan,nan,nan,nan,0.0,nan,nan,nan,nan,nan,nan,nan,nan,nan,nan,nan,nan,nan,nan,nan,nan,nan,nan,226.42616290225124,723.9066228486627,nan,724.2694353505358,nan,nan,nan,nan
1,314,0,0,1.0,0.0,0.2586651210440323,0,1,2,7,3,8,4,nan,nan,nan,nan,nan,nan,nan,nan,nan,nan,nan,nan,0.0,nan,nan,nan,nan,nan,nan,nan,nan,nan,nan,nan,nan,nan,nan,nan,nan,nan,nan,226.42616290225124,724.9067594116495,nan,725.1654245326936,nan,nan,nan,nan
1,315,1,1,1.0,1.0,0.2505206642090343,0,3,7,4,8,1,6,nan,nan,nan,nan,nan,nan,nan,nan,nan,nan,nan,nan,0.0,nan,nan,nan,nan,nan,nan,nan,nan,nan,nan,nan,nan,nan,nan,nan,nan,nan,nan,226.42616290225124,725.9068996809365,nan,726.1574203451455,nan,nan,nan,nan
1,316,1,1,1.0,1.0,0.5703765517682768,0,7,5,3,4,6,1,nan,nan,nan,nan,nan,nan,nan,nan,nan,nan,nan,nan,0.0,nan,nan,nan,nan,nan,nan,nan,nan,nan,nan,nan,nan,nan,nan,nan,nan,nan,nan,226.42616290225124,726.9070291164244,nan,727.4774056681927,nan,nan,nan,nan
1,317,1,1,1.0,1.0,0.5862189985637087,0,0,8,2,5,7,3,nan,nan,nan,nan,nan,nan,nan,nan,nan,nan,nan,nan,0.0,nan,nan,nan,nan,nan,nan,nan,nan,nan,nan,nan,nan,nan,nan,nan,nan,nan,nan,226.42616290225124,727.9071748026181,nan,728.4933938011818,nan,nan,nan,nan
1,318,1,1,1.0,1.0,0.6180937688768608,1,6,1,4,0,2,8,1.0,1.0,1.0,1.0,1.0,1.0,0.0,1.0,0.0,0.0,0.0,0.0,1.0,8.0,1.0,6.0,7.0,0.0,6.0,2.0,1.0,6.0,5.0,4.0,3.0,2.373811381708947,1.2786703155725263,6.333220813801745,5.525986168649979,4.90150758123491,3.1749272067972925,226.42616290225124,728.907301957297,729.7157371592912,729.5253957261739,737.1000809969555,738.1094083344506,730.7242109068466,737.091746093196
1,319,0,0,nan,nan,nan,0,5,6,0,3,8,2,nan,nan,nan,nan,nan,nan,nan,nan,nan,nan,nan,nan,0.0,nan,nan,nan,nan,nan,nan,nan,nan,nan,nan,nan,nan,nan,nan,nan,nan,nan,nan,226.42616290225124,738.308625221267,nan,nan,nan,nan,nan,nan
1,320,1,1,nan,nan,nan,0,8,0,7,5,6,3,nan,nan,nan,nan,nan,nan,nan,nan,nan,nan,nan,nan,0.0,nan,nan,nan,nan,nan,nan,nan,nan,nan,nan,nan,nan,nan,nan,nan,nan,nan,nan,226.42616290225124,739.3087443931436,nan,nan,nan,nan,nan,nan
1,321,1,1,1.0,1.0,0.6004024474095786,0,7,5,6,4,1,2,nan,nan,nan,nan,nan,nan,nan,nan,nan,nan,nan,nan,0.0,nan,nan,nan,nan,nan,nan,nan,nan,nan,nan,nan,nan,nan,nan,nan,nan,nan,nan,226.42616290225124,740.3088698372303,nan,740.9092722846399,nan,nan,nan,nan
1,322,1,1,1.0,1.0,0.37624784786021337,0,3,1,5,7,6,8,nan,nan,nan,nan,nan,nan,nan,nan,nan,nan,nan,nan,0.0,nan,nan,nan,nan,nan,nan,nan,nan,nan,nan,nan,nan,nan,nan,nan,nan,nan,nan,226.42616290225124,741.3090160936117,nan,741.6852639414719,nan,nan,nan,nan
1,323,1,1,1.0,1.0,0.37609988085750956,0,5,6,4,1,8,2,nan,nan,nan,nan,nan,nan,nan,nan,nan,nan,nan,nan,0.0,nan,nan,nan,nan,nan,nan,nan,nan,nan,nan,nan,nan,nan,nan,nan,nan,nan,nan,226.42616290225124,742.3091546523065,nan,742.685254533164,nan,nan,nan,nan
1,324,1,1,1.0,1.0,0.3119583274674369,0,8,1,6,5,3,4,nan,nan,nan,nan,nan,nan,nan,nan,nan,nan,nan,nan,0.0,nan,nan,nan,nan,nan,nan,nan,nan,nan,nan,nan,nan,nan,nan,nan,nan,nan,nan,226.42616290225124,743.3092954917956,nan,743.6212538192631,nan,nan,nan,nan
1,325,1,1,1.0,1.0,0.4158228889136808,0,5,4,1,0,8,6,nan,nan,nan,nan,nan,nan,nan,nan,nan,nan,nan,nan,0.0,nan,nan,nan,nan,nan,nan,nan,nan,nan,nan,nan,nan,nan,nan,nan,nan,nan,nan,226.42616290225124,744.3094243570813,nan,744.725247245995,nan,nan,nan,nan
1,326,1,1,1.0,1.0,0.5756688664114336,0,3,8,7,5,4,0,nan,nan,nan,nan,nan,nan,nan,nan,nan,nan,nan,nan,0.0,nan,nan,nan,nan,nan,nan,nan,nan,nan,nan,nan,nan,nan,nan,nan,nan,nan,nan,226.42616290225124,745.3095577839558,nan,745.8852266503673,nan,nan,nan,nan
1,327,1,1,1.0,1.0,0.6155233056488214,0,5,3,6,8,7,2,nan,nan,nan,nan,nan,nan,nan,nan,nan,nan,nan,nan,0.0,nan,nan,nan,nan,nan,nan,nan,nan,nan,nan,nan,nan,nan,nan,nan,nan,nan,nan,226.42616290225124,746.3096969128528,nan,746.9252202185016,nan,nan,nan,nan
1,328,1,1,1.0,1.0,0.6073737170081586,0,6,8,0,3,1,7,nan,nan,nan,nan,nan,nan,nan,nan,nan,nan,nan,nan,0.0,nan,nan,nan,nan,nan,nan,nan,nan,nan,nan,nan,nan,nan,nan,nan,nan,nan,nan,226.42616290225124,747.3098269185284,nan,747.9172006355366,nan,nan,nan,nan
1,329,1,1,1.0,1.0,0.6312363169708988,0,1,3,2,7,5,0,nan,nan,nan,nan,nan,nan,nan,nan,nan,nan,nan,nan,0.0,nan,nan,nan,nan,nan,nan,nan,nan,nan,nan,nan,nan,nan,nan,nan,nan,nan,nan,226.42616290225124,748.3099760259211,nan,748.941212342892,nan,nan,nan,nan
1,330,1,1,1.0,1.0,0.6710881903272821,0,4,2,5,8,0,1,nan,nan,nan,nan,nan,nan,nan,nan,nan,nan,nan,nan,0.0,nan,nan,nan,nan,nan,nan,nan,nan,nan,nan,nan,nan,nan,nan,nan,nan,nan,nan,226.42616290225124,749.3101108783012,nan,749.9811990686285,nan,nan,nan,nan
1,331,1,1,1.0,1.0,0.5269401138502872,0,0,7,4,2,5,3,nan,nan,nan,nan,nan,nan,nan,nan,nan,nan,nan,nan,0.0,nan,nan,nan,nan,nan,nan,nan,nan,nan,nan,nan,nan,nan,nan,nan,nan,nan,nan,226.42616290225124,750.3102448753925,nan,750.8371849892428,nan,nan,nan,nan
1,332,1,1,1.0,1.0,0.36680048318521585,0,4,6,8,3,2,7,nan,nan,nan,nan,nan,nan,nan,nan,nan,nan,nan,nan,0.0,nan,nan,nan,nan,nan,nan,nan,nan,nan,nan,nan,nan,nan,nan,nan,nan,nan,nan,226.42616290225124,751.3103817234805,nan,751.6771822066657,nan,nan,nan,nan
1,333,1,1,1.0,1.0,0.34264137904392555,0,7,1,2,4,6,0,nan,nan,nan,nan,nan,nan,nan,nan,nan,nan,nan,nan,0.0,nan,nan,nan,nan,nan,nan,nan,nan,nan,nan,nan,nan,nan,nan,nan,nan,nan,nan,226.42616290225124,752.3105331116676,nan,752.6531744907115,nan,nan,nan,nan
1,334,1,1,1.0,1.0,0.1985337867954513,0,3,7,4,2,0,6,nan,nan,nan,nan,nan,nan,nan,nan,nan,nan,nan,nan,0.0,nan,nan,nan,nan,nan,nan,nan,nan,nan,nan,nan,nan,nan,nan,nan,nan,nan,nan,226.42616290225124,753.3106679640623,nan,753.5092017508578,nan,nan,nan,nan
1,335,1,1,1.0,1.0,0.1823492197872838,0,4,5,7,0,8,2,nan,nan,nan,nan,nan,nan,nan,nan,nan,nan,nan,nan,0.0,nan,nan,nan,nan,nan,nan,nan,nan,nan,nan,nan,nan,nan,nan,nan,nan,nan,nan,226.42616290225124,754.3108059525402,nan,754.4931551723275,nan,nan,nan,nan
1,336,1,1,1.0,1.0,0.4781991019990528,0,6,7,0,2,3,8,nan,nan,nan,nan,nan,nan,nan,nan,nan,nan,nan,nan,0.0,nan,nan,nan,nan,nan,nan,nan,nan,nan,nan,nan,nan,nan,nan,nan,nan,nan,nan,226.42616290225124,755.3109428006283,nan,755.7891419026273,nan,nan,nan,nan
1,337,1,1,1.0,1.0,0.5100730170088354,0,0,4,5,8,1,7,nan,nan,nan,nan,nan,nan,nan,nan,nan,nan,nan,nan,0.0,nan,nan,nan,nan,nan,nan,nan,nan,nan,nan,nan,nan,nan,nan,nan,nan,nan,nan,226.42616290225124,756.311068244715,nan,756.8211412617238,nan,nan,nan,nan
1,338,1,1,1.0,1.0,0.5979026890418027,0,1,8,7,6,5,3,nan,nan,nan,nan,nan,nan,nan,nan,nan,nan,nan,nan,0.0,nan,nan,nan,nan,nan,nan,nan,nan,nan,nan,nan,nan,nan,nan,nan,nan,nan,nan,226.42616290225124,757.3112164968043,nan,757.9091191858461,nan,nan,nan,nan
1,339,1,1,1.0,1.0,0.5977444584277691,0,5,2,0,7,4,6,nan,nan,nan,nan,nan,nan,nan,nan,nan,nan,nan,nan,0.0,nan,nan,nan,nan,nan,nan,nan,nan,nan,nan,nan,nan,nan,nan,nan,nan,nan,nan,226.42616290225124,758.3113670297025,nan,758.9091114881303,nan,nan,nan,nan
1,340,0,0,0.0,1.0,0.6936139555327827,0,2,0,6,4,8,7,nan,nan,nan,nan,nan,nan,nan,nan,nan,nan,nan,nan,0.0,nan,nan,nan,nan,nan,nan,nan,nan,nan,nan,nan,nan,nan,nan,nan,nan,nan,nan,226.42616290225124,759.3114853462757,nan,760.0050993018085,nan,nan,nan,nan
1,341,1,1,1.0,1.0,0.5174864769796841,0,3,6,0,7,4,8,nan,nan,nan,nan,nan,nan,nan,nan,nan,nan,nan,nan,0.0,nan,nan,nan,nan,nan,nan,nan,nan,nan,nan,nan,nan,nan,nan,nan,nan,nan,nan,226.42616290225124,760.3116059436579,nan,760.8290924206376,nan,nan,nan,nan
1,342,1,1,1.0,1.0,0.421344709204277,0,4,1,5,8,0,2,nan,nan,nan,nan,nan,nan,nan,nan,nan,nan,nan,nan,0.0,nan,nan,nan,nan,nan,nan,nan,nan,nan,nan,nan,nan,nan,nan,nan,nan,nan,nan,226.42616290225124,761.3117539106461,nan,761.7330986198504,nan,nan,nan,nan
1,343,1,1,1.0,1.0,0.6211876760207815,0,6,0,4,1,2,3,nan,nan,nan,nan,nan,nan,nan,nan,nan,nan,nan,nan,0.0,nan,nan,nan,nan,nan,nan,nan,nan,nan,nan,nan,nan,nan,nan,nan,nan,nan,nan,226.42616290225124,762.3118916140374,nan,762.9330792900582,nan,nan,nan,nan
1,344,1,1,1.0,1.0,0.6770288227708079,0,8,2,3,4,7,6,nan,nan,nan,nan,nan,nan,nan,nan,nan,nan,nan,nan,0.0,nan,nan,nan,nan,nan,nan,nan,nan,nan,nan,nan,nan,nan,nan,nan,nan,nan,nan,226.42616290225124,763.3120364449278,nan,763.9890652676986,nan,nan,nan,nan
1,345,1,1,1.0,1.0,0.6609209477173863,0,7,4,8,5,6,3,nan,nan,nan,nan,nan,nan,nan,nan,nan,nan,nan,nan,0.0,nan,nan,nan,nan,nan,nan,nan,nan,nan,nan,nan,nan,nan,nan,nan,nan,nan,nan,226.42616290225124,764.3121390809829,nan,764.9730600287003,nan,nan,nan,nan
1,346,1,1,nan,nan,nan,0,0,5,3,4,7,8,nan,nan,nan,nan,nan,nan,nan,nan,nan,nan,nan,nan,0.0,nan,nan,nan,nan,nan,nan,nan,nan,nan,nan,nan,nan,nan,nan,nan,nan,nan,nan,226.42616290225124,765.3123101410893,nan,nan,nan,nan,nan,nan
1,347,1,1,nan,nan,nan,0,3,0,5,1,8,2,nan,nan,nan,nan,nan,nan,nan,nan,nan,nan,nan,nan,0.0,nan,nan,nan,nan,nan,nan,nan,nan,nan,nan,nan,nan,nan,nan,nan,nan,nan,nan,226.42616290225124,766.3124381510715,nan,nan,nan,nan,nan,nan
1,348,1,1,1.0,1.0,0.04447363236977253,0,1,8,0,7,2,6,nan,nan,nan,nan,nan,nan,nan,nan,nan,nan,nan,nan,0.0,nan,nan,nan,nan,nan,nan,nan,nan,nan,nan,nan,nan,nan,nan,nan,nan,nan,nan,226.42616290225124,767.3125838372653,nan,767.357057469635,nan,nan,nan,nan
1,349,1,1,nan,nan,nan,0,8,5,3,6,0,1,nan,nan,nan,nan,nan,nan,nan,nan,nan,nan,nan,nan,0.0,nan,nan,nan,nan,nan,nan,nan,nan,nan,nan,nan,nan,nan,nan,nan,nan,nan,nan,226.42616290225124,768.3127189747465,nan,nan,nan,nan,nan,nan
1,350,1,1,1.0,1.0,0.7641138131293701,0,4,1,7,5,8,6,nan,nan,nan,nan,nan,nan,nan,nan,nan,nan,nan,nan,0.0,nan,nan,nan,nan,nan,nan,nan,nan,nan,nan,nan,nan,nan,nan,nan,nan,nan,nan,226.42616290225124,769.3128526867367,nan,770.0769664998661,nan,nan,nan,nan
1,351,1,1,1.0,1.0,0.6840673760161735,0,1,3,6,2,4,0,nan,nan,nan,nan,nan,nan,nan,nan,nan,nan,nan,nan,0.0,nan,nan,nan,nan,nan,nan,nan,nan,nan,nan,nan,nan,nan,nan,nan,nan,nan,nan,226.42616290225124,770.3129883944202,nan,770.9970557704364,nan,nan,nan,nan
1,352,1,1,1.0,1.0,0.6358529441931751,0,5,8,1,4,0,6,nan,nan,nan,nan,nan,nan,nan,nan,nan,nan,nan,nan,0.0,nan,nan,nan,nan,nan,nan,nan,nan,nan,nan,nan,nan,nan,nan,nan,nan,nan,nan,226.42616290225124,771.313137786914,nan,771.9489907311072,nan,nan,nan,nan
1,353,1,1,1.0,1.0,0.6516862677817699,1,1,0,3,7,4,5,1.0,1.0,1.0,1.0,1.0,1.0,1.0,0.0,0.0,1.0,0.0,0.0,2.0,1.0,5.0,8.0,7.0,0.0,6.0,2.0,1.0,6.0,5.0,4.0,3.0,2.719404973118799,1.7115367783408146,7.030594670504797,5.87872893216263,4.999600574650685,3.551912323702709,226.42616290225124,772.3132897453179,773.1216910203948,772.9649760130997,781.2061220131873,782.2102317322715,774.1384991015075,781.19779623262
1,354,1,1,nan,nan,nan,0,2,1,4,6,5,8,nan,nan,nan,nan,nan,nan,nan,nan,nan,nan,nan,nan,0.0,nan,nan,nan,nan,nan,nan,nan,nan,nan,nan,nan,nan,nan,nan,nan,nan,nan,nan,226.42616290225124,782.414642003976,nan,nan,nan,nan,nan,nan
1,355,0,0,0.0,1.0,0.6860439755691914,0,4,8,6,0,3,5,nan,nan,nan,nan,nan,nan,nan,nan,nan,nan,nan,nan,0.0,nan,nan,nan,nan,nan,nan,nan,nan,nan,nan,nan,nan,nan,nan,nan,nan,nan,nan,226.42616290225124,783.4147856944619,nan,784.1008296700311,nan,nan,nan,nan
1,356,1,1,1.0,1.0,0.653920312775881,0,7,0,4,5,1,6,nan,nan,nan,nan,nan,nan,nan,nan,nan,nan,nan,nan,0.0,nan,nan,nan,nan,nan,nan,nan,nan,nan,nan,nan,nan,nan,nan,nan,nan,nan,nan,226.42616290225124,784.4149348018691,nan,785.068855114645,nan,nan,nan,nan
1,357,1,1,0.0,0.0,0.4457963261374971,0,0,5,1,7,2,4,nan,nan,nan,nan,nan,nan,nan,nan,nan,nan,nan,nan,0.0,nan,nan,nan,nan,nan,nan,nan,nan,nan,nan,nan,nan,nan,nan,nan,nan,nan,nan,226.42616290225124,785.4150693691481,nan,785.8608656952856,nan,nan,nan,nan
1,358,1,1,1.0,1.0,0.5176429969869787,0,8,1,5,3,6,2,nan,nan,nan,nan,nan,nan,nan,nan,nan,nan,nan,nan,0.0,nan,nan,nan,nan,nan,nan,nan,nan,nan,nan,nan,nan,nan,nan,nan,nan,nan,nan,226.42616290225124,786.4152008003293,nan,786.9328437973163,nan,nan,nan,nan
1,359,1,1,1.0,1.0,0.6374948361190036,0,7,3,4,6,0,1,nan,nan,nan,nan,nan,nan,nan,nan,nan,nan,nan,nan,0.0,nan,nan,nan,nan,nan,nan,nan,nan,nan,nan,nan,nan,nan,nan,nan,nan,nan,nan,226.42616290225124,787.4153365080128,nan,788.0528313441318,nan,nan,nan,nan
1,360,1,1,1.0,1.0,0.6453459248878062,1,8,6,2,1,7,3,1.0,1.0,1.0,1.0,1.0,1.0,1.0,0.0,0.0,0.0,0.0,0.0,1.0,8.0,2.0,3.0,3.0,6.0,0.0,1.0,2.0,6.0,5.0,4.0,3.0,1.4882103948039003,2.65770074116881,8.792437090509338,6.8405973532935604,5.6168735401006415,3.752869462026865,226.42616290225124,788.4154764921986,789.2239025710005,789.0608224170865,799.0752470606822,800.0720750360779,790.2407189200167,799.0669178589305
1,361,1,1,1.0,1.0,0.7612813428422669,0,6,4,5,0,8,7,nan,nan,nan,nan,nan,nan,nan,nan,nan,nan,nan,nan,0.0,nan,nan,nan,nan,nan,nan,nan,nan,nan,nan,nan,nan,nan,nan,nan,nan,nan,nan,226.42616290225124,800.2754446921317,nan,801.036726034974,nan,nan,nan,nan
1,362,1,1,nan,nan,nan,0,2,8,3,1,7,6,nan,nan,nan,nan,nan,nan,nan,nan,nan,nan,nan,nan,0.0,nan,nan,nan,nan,nan,nan,nan,nan,nan,nan,nan,nan,nan,nan,nan,nan,nan,nan,226.42616290225124,801.2755721319118,nan,nan,nan,nan,nan,nan
1,363,1,1,1.0,1.0,0.4569973420148017,0,3,5,4,2,6,1,nan,nan,nan,nan,nan,nan,nan,nan,nan,nan,nan,nan,0.0,nan,nan,nan,nan,nan,nan,nan,nan,nan,nan,nan,nan,nan,nan,nan,nan,nan,nan,226.42616290225124,802.2757206691022,nan,802.732718011117,nan,nan,nan,nan
1,364,1,1,1.0,1.0,0.58483027559123,0,4,2,1,7,5,0,nan,nan,nan,nan,nan,nan,nan,nan,nan,nan,nan,nan,0.0,nan,nan,nan,nan,nan,nan,nan,nan,nan,nan,nan,nan,nan,nan,nan,nan,nan,nan,226.42616290225124,803.2758529555867,nan,803.860683231178,nan,nan,nan,nan
1,365,1,1,1.0,1.0,0.48068489047000185,0,0,6,3,5,2,8,nan,nan,nan,nan,nan,nan,nan,nan,nan,nan,nan,nan,0.0,nan,nan,nan,nan,nan,nan,nan,nan,nan,nan,nan,nan,nan,nan,nan,nan,nan,nan,226.42616290225124,804.275988093068,nan,804.756672983538,nan,nan,nan,nan
1,366,1,1,1.0,1.0,0.47254642071493436,0,4,2,5,8,6,7,nan,nan,nan,nan,nan,nan,nan,nan,nan,nan,nan,nan,0.0,nan,nan,nan,nan,nan,nan,nan,nan,nan,nan,nan,nan,nan,nan,nan,nan,nan,nan,226.42616290225124,805.2761323537707,nan,805.7486787744856,nan,nan,nan,nan
1,367,1,1,1.0,1.0,0.5123287296300987,0,1,0,6,2,5,4,nan,nan,nan,nan,nan,nan,nan,nan,nan,nan,nan,nan,0.0,nan,nan,nan,nan,nan,nan,nan,nan,nan,nan,nan,nan,nan,nan,nan,nan,nan,nan,226.42616290225124,806.2763256516919,nan,806.788654381322,nan,nan,nan,nan
1,368,1,1,nan,nan,nan,0,5,7,1,0,6,2,nan,nan,nan,nan,nan,nan,nan,nan,nan,nan,nan,nan,0.0,nan,nan,nan,nan,nan,nan,nan,nan,nan,nan,nan,nan,nan,nan,nan,nan,nan,nan,226.42616290225124,807.276394931032,nan,nan,nan,nan,nan,nan
1,369,1,1,nan,nan,nan,0,7,5,4,8,0,6,nan,nan,nan,nan,nan,nan,nan,nan,nan,nan,nan,nan,0.0,nan,nan,nan,nan,nan,nan,nan,nan,nan,nan,nan,nan,nan,nan,nan,nan,nan,nan,226.42616290225124,808.2765517361258,nan,nan,nan,nan,nan,nan
1,370,1,1,1.0,1.0,0.7519454523571767,0,3,8,5,1,2,0,nan,nan,nan,nan,nan,nan,nan,nan,nan,nan,nan,nan,0.0,nan,nan,nan,nan,nan,nan,nan,nan,nan,nan,nan,nan,nan,nan,nan,nan,nan,nan,226.42616290225124,809.2766620698967,nan,810.0286075222539,nan,nan,nan,nan
1,371,1,1,1.0,1.0,0.639815266491496,0,5,2,0,6,7,1,nan,nan,nan,nan,nan,nan,nan,nan,nan,nan,nan,nan,0.0,nan,nan,nan,nan,nan,nan,nan,nan,nan,nan,nan,nan,nan,nan,nan,nan,nan,nan,226.42616290225124,810.2768017689814,nan,810.9166170354729,nan,nan,nan,nan
1,372,1,1,1.0,1.0,0.5516862392687472,0,6,8,3,4,0,5,nan,nan,nan,nan,nan,nan,nan,nan,nan,nan,nan,nan,0.0,nan,nan,nan,nan,nan,nan,nan,nan,nan,nan,nan,nan,nan,nan,nan,nan,nan,nan,226.42616290225124,811.2769380468671,nan,811.8286242861359,nan,nan,nan,nan
1,373,1,1,1.0,1.0,0.36752634825825226,0,3,7,4,6,8,0,nan,nan,nan,nan,nan,nan,nan,nan,nan,nan,nan,nan,0.0,nan,nan,nan,nan,nan,nan,nan,nan,nan,nan,nan,nan,nan,nan,nan,nan,nan,nan,226.42616290225124,812.2770783161541,nan,812.6446046644123,nan,nan,nan,nan
1,374,1,1,1.0,1.0,0.2953760457166936,0,2,4,6,0,1,5,nan,nan,nan,nan,nan,nan,nan,nan,nan,nan,nan,nan,0.0,nan,nan,nan,nan,nan,nan,nan,nan,nan,nan,nan,nan,nan,nan,nan,nan,nan,nan,226.42616290225124,813.2772145940398,nan,813.5725906397565,nan,nan,nan,nan
1,375,1,1,1.0,1.0,0.2552370764897205,0,1,3,7,5,6,8,nan,nan,nan,nan,nan,nan,nan,nan,nan,nan,nan,nan,0.0,nan,nan,nan,nan,nan,nan,nan,nan,nan,nan,nan,nan,nan,nan,nan,nan,nan,nan,226.42616290225124,814.2773565739335,nan,814.5325936504232,nan,nan,nan,nan
1,376,1,1,1.0,1.0,0.23911181031144224,0,8,2,3,0,4,7,nan,nan,nan,nan,nan,nan,nan,nan,nan,nan,nan,nan,0.0,nan,nan,nan,nan,nan,nan,nan,nan,nan,nan,nan,nan,nan,nan,nan,nan,nan,nan,226.42616290225124,815.2774703289033,nan,815.5165821392147,nan,nan,nan,nan
1,377,0,0,1.0,0.0,0.29493128943431657,0,1,4,8,2,5,6,nan,nan,nan,nan,nan,nan,nan,nan,nan,nan,nan,nan,0.0,nan,nan,nan,nan,nan,nan,nan,nan,nan,nan,nan,nan,nan,nan,nan,nan,nan,nan,226.42616290225124,816.277632550904,nan,816.5725638403383,nan,nan,nan,nan
1,378,1,1,1.0,1.0,0.6067675940284971,0,0,5,7,1,8,3,nan,nan,nan,nan,nan,nan,nan,nan,nan,nan,nan,nan,0.0,nan,nan,nan,nan,nan,nan,nan,nan,nan,nan,nan,nan,nan,nan,nan,nan,nan,nan,226.42616290225124,817.2777617012907,nan,817.8845292953192,nan,nan,nan,nan
1,379,0,0,1.0,0.0,0.4706342538120225,0,5,0,6,8,4,1,nan,nan,nan,nan,nan,nan,nan,nan,nan,nan,nan,nan,0.0,nan,nan,nan,nan,nan,nan,nan,nan,nan,nan,nan,nan,nan,nan,nan,nan,nan,nan,226.42616290225124,818.2779093831923,nan,818.7485436370043,nan,nan,nan,nan
1,380,1,1,1.0,1.0,0.35048619558801875,0,4,1,3,7,8,0,nan,nan,nan,nan,nan,nan,nan,nan,nan,nan,nan,nan,0.0,nan,nan,nan,nan,nan,nan,nan,nan,nan,nan,nan,nan,nan,nan,nan,nan,nan,nan,226.42616290225124,819.2780448057747,nan,819.6285310013627,nan,nan,nan,nan
1,381,1,1,1.0,1.0,0.47031323102419265,0,1,3,0,2,7,8,nan,nan,nan,nan,nan,nan,nan,nan,nan,nan,nan,nan,0.0,nan,nan,nan,nan,nan,nan,nan,nan,nan,nan,nan,nan,nan,nan,nan,nan,nan,nan,226.42616290225124,820.2782047469664,nan,820.7485179779906,nan,nan,nan,nan
1,382,1,1,1.0,1.0,0.446192615389009,0,4,8,6,3,1,0,nan,nan,nan,nan,nan,nan,nan,nan,nan,nan,nan,nan,0.0,nan,nan,nan,nan,nan,nan,nan,nan,nan,nan,nan,nan,nan,nan,nan,nan,nan,nan,226.42616290225124,821.2783196423406,nan,821.7245122577297,nan,nan,nan,nan
1,383,1,1,1.0,1.0,0.2860578314284794,0,0,7,2,5,8,1,nan,nan,nan,nan,nan,nan,nan,nan,nan,nan,nan,nan,0.0,nan,nan,nan,nan,nan,nan,nan,nan,nan,nan,nan,nan,nan,nan,nan,nan,nan,nan,226.42616290225124,822.2784527841286,nan,822.5645106155571,nan,nan,nan,nan
1,384,1,1,1.0,1.0,0.3018928656238131,0,5,0,8,2,4,6,nan,nan,nan,nan,nan,nan,nan,nan,nan,nan,nan,nan,0.0,nan,nan,nan,nan,nan,nan,nan,nan,nan,nan,nan,nan,nan,nan,nan,nan,nan,nan,226.42616290225124,823.2785936236178,nan,823.5804864892416,nan,nan,nan,nan
1,385,0,0,1.0,0.0,0.2777528631850146,0,0,1,6,3,2,8,nan,nan,nan,nan,nan,nan,nan,nan,nan,nan,nan,nan,0.0,nan,nan,nan,nan,nan,nan,nan,nan,nan,nan,nan,nan,nan,nan,nan,nan,nan,nan,226.42616290225124,824.2787316121103,nan,824.5564844752953,nan,nan,nan,nan
1,386,1,1,1.0,1.0,0.35763137630419806,0,7,6,1,8,0,4,nan,nan,nan,nan,nan,nan,nan,nan,nan,nan,nan,nan,0.0,nan,nan,nan,nan,nan,nan,nan,nan,nan,nan,nan,nan,nan,nan,nan,nan,nan,nan,226.42616290225124,825.2788345332665,nan,825.6364659095707,nan,nan,nan,nan
1,387,1,1,1.0,1.0,0.30944944589282386,0,3,0,7,1,4,8,nan,nan,nan,nan,nan,nan,nan,nan,nan,nan,nan,nan,0.0,nan,nan,nan,nan,nan,nan,nan,nan,nan,nan,nan,nan,nan,nan,nan,nan,nan,nan,226.42616290225124,826.2790112953808,nan,826.5884607412736,nan,nan,nan,nan
1,388,1,1,1.0,1.0,0.3093074659991544,0,2,5,3,4,8,7,nan,nan,nan,nan,nan,nan,nan,nan,nan,nan,nan,nan,0.0,nan,nan,nan,nan,nan,nan,nan,nan,nan,nan,nan,nan,nan,nan,nan,nan,nan,nan,226.42616290225124,827.2791441520676,nan,827.5884516180668,nan,nan,nan,nan
1,389,0,0,0.0,1.0,0.6531559592112899,0,6,2,0,5,3,8,nan,nan,nan,nan,nan,nan,nan,nan,nan,nan,nan,nan,0.0,nan,nan,nan,nan,nan,nan,nan,nan,nan,nan,nan,nan,nan,nan,nan,nan,nan,nan,226.42616290225124,828.2792824256467,nan,828.932438384858,nan,nan,nan,nan
1,390,1,1,1.0,1.0,0.5250242406473262,0,1,5,7,0,4,2,nan,nan,nan,nan,nan,nan,nan,nan,nan,nan,nan,nan,0.0,nan,nan,nan,nan,nan,nan,nan,nan,nan,nan,nan,nan,nan,nan,nan,nan,nan,nan,226.42616290225124,829.2794118611346,nan,829.8044361017819,nan,nan,nan,nan
1,391,1,1,1.0,1.0,0.4608735640649684,0,2,7,4,5,0,3,nan,nan,nan,nan,nan,nan,nan,nan,nan,nan,nan,nan,0.0,nan,nan,nan,nan,nan,nan,nan,nan,nan,nan,nan,nan,nan,nan,nan,nan,nan,nan,226.42616290225124,830.2795546963171,nan,830.740428260382,nan,nan,nan,nan
1,392,1,1,1.0,1.0,0.3727214437240036,0,1,4,3,6,5,2,nan,nan,nan,nan,nan,nan,nan,nan,nan,nan,nan,nan,0.0,nan,nan,nan,nan,nan,nan,nan,nan,nan,nan,nan,nan,nan,nan,nan,nan,nan,nan,226.42616290225124,831.2796963911096,nan,831.6524178348336,nan,nan,nan,nan
1,393,1,1,1.0,1.0,0.3325873212015722,0,2,0,4,1,3,6,nan,nan,nan,nan,nan,nan,nan,nan,nan,nan,nan,nan,0.0,nan,nan,nan,nan,nan,nan,nan,nan,nan,nan,nan,nan,nan,nan,nan,nan,nan,nan,226.42616290225124,832.2798238308897,nan,832.6124111520912,nan,nan,nan,nan
1,394,1,1,1.0,1.0,0.2764379811560502,0,3,5,6,7,4,0,nan,nan,nan,nan,nan,nan,nan,nan,nan,nan,nan,nan,0.0,nan,nan,nan,nan,nan,nan,nan,nan,nan,nan,nan,nan,nan,nan,nan,nan,nan,nan,226.42616290225124,833.2799618193822,nan,833.5563998005382,nan,nan,nan,nan
1,395,1,1,1.0,1.0,0.24428979978256393,1,0,8,5,1,7,6,1.0,1.0,1.0,1.0,1.0,1.0,0.0,1.0,0.0,0.0,0.0,0.0,1.0,3.0,8.0,6.0,7.0,1.0,0.0,2.0,1.0,6.0,5.0,4.0,3.0,2.719911025938927,1.5287302578799427,7.047463192851865,5.647987663149252,4.559197203518124,3.7370341427449603,226.42616290225124,834.2800963866612,835.0885304482654,834.5243861864437,843.1896358101803,844.1885076687613,836.1053368187713,843.1812960597163
1,396,1,1,nan,nan,nan,0,3,2,8,6,1,7,nan,nan,nan,nan,nan,nan,nan,nan,nan,nan,nan,nan,0.0,nan,nan,nan,nan,nan,nan,nan,nan,nan,nan,nan,nan,nan,nan,nan,nan,nan,nan,226.42616290225124,844.3898280247231,nan,nan,nan,nan,nan,nan
1,397,1,1,1.0,1.0,0.4783459285827121,0,6,4,0,3,7,8,nan,nan,nan,nan,nan,nan,nan,nan,nan,nan,nan,nan,0.0,nan,nan,nan,nan,nan,nan,nan,nan,nan,nan,nan,nan,nan,nan,nan,nan,nan,nan,226.42616290225124,845.3899634473055,nan,845.8683093758882,nan,nan,nan,nan
