block,trial,freq_trials,correct_response,actual_response,acc,rts,probe_trials,trials_colorind0,trials_colorind1,trials_colorind2,trials_colorind3,trials_colorind4,trials_colorind5,wholereport_resp0,wholereport_resp1,wholereport_resp2,wholereport_resp3,wholereport_resp4,wholereport_resp5,wholereport_respacc0,wholereport_respacc1,wholereport_respacc2,wholereport_respacc3,wholereport_respacc4,wholereport_respacc5,wholereport_respacc_total,wholereport_respcolorind0,wholereport_respcolorind1,wholereport_respcolorind2,wholereport_respcolorind3,wholereport_respcolorind4,wholereport_respcolorind5,wholereport_resporder0,wholereport_resporder1,wholereport_resporder2,wholereport_resporder3,wholereport_resporder4,wholereport_resporder5,wholereport_rts0,wholereport_rts1,wholereport_rts2,wholereport_rts3,wholereport_rts4,wholereport_rts5,time_blockstart,time_encarray_offset,time_encarray_onset,time_response,time_iti_offset,time_iti_onset,time_memprobe_offset,time_memprobe_onset
1,1,1,1,1.0,1.0,0.7055810355814174,0,2,6,3,8,1,5,nan,nan,nan,nan,nan,nan,nan,nan,nan,nan,nan,nan,0.0,nan,nan,nan,nan,nan,nan,nan,nan,nan,nan,nan,nan,nan,nan,nan,nan,nan,nan,172.0195310729323,173.04191856458783,nan,173.74749960016925,nan,nan,nan,nan
1,2,1,1,1.0,1.0,0.561015572398901,0,8,2,7,5,6,1,nan,nan,nan,nan,nan,nan,nan,nan,nan,nan,nan,nan,0.0,nan,nan,nan,nan,nan,nan,nan,nan,nan,nan,nan,nan,nan,nan,nan,nan,nan,nan,172.0195310729323,174.05051775625907,nan,174.61153332865797,nan,nan,nan,nan
1,3,1,1,1.0,1.0,0.40096660365816206,0,6,3,1,7,4,0,nan,nan,nan,nan,nan,nan,nan,nan,nan,nan,nan,nan,0.0,nan,nan,nan,nan,nan,nan,nan,nan,nan,nan,nan,nan,nan,nan,nan,nan,nan,nan,172.0195310729323,175.05054141953588,nan,175.45150802319404,nan,nan,nan,nan
1,4,1,1,1.0,1.0,0.4084915377898142,0,1,8,7,3,6,5,nan,nan,nan,nan,nan,nan,nan,nan,nan,nan,nan,nan,0.0,nan,nan,nan,nan,nan,nan,nan,nan,nan,nan,nan,nan,nan,nan,nan,nan,nan,nan,172.0195310729323,176.05900661402848,nan,176.4674981518183,nan,nan,nan,nan
1,5,1,1,1.0,1.0,0.7039799130288884,0,4,3,5,7,0,1,nan,nan,nan,nan,nan,nan,nan,nan,nan,nan,nan,nan,0.0,nan,nan,nan,nan,nan,nan,nan,nan,nan,nan,nan,nan,nan,nan,nan,nan,nan,nan,172.0195310729323,177.0674906251952,nan,177.7714705382241,nan,nan,nan,nan
1,6,1,1,1.0,1.0,0.6715440654661506,0,0,8,6,5,7,4,nan,nan,nan,nan,nan,nan,nan,nan,nan,nan,nan,nan,0.0,nan,nan,nan,nan,nan,nan,nan,nan,nan,nan,nan,nan,nan,nan,nan,nan,nan,nan,172.0195310729323,178.07594498596154,nan,178.7474890514277,nan,nan,nan,nan
1,7,1,1,1.0,1.0,0.3670986979268491,0,8,2,7,0,1,3,nan,nan,nan,nan,nan,nan,nan,nan,nan,nan,nan,nan,0.0,nan,nan,nan,nan,nan,nan,nan,nan,nan,nan,nan,nan,nan,nan,nan,nan,nan,nan,172.0195310729323,179.08442643121816,nan,179.451525129145,nan,nan,nan,nan
1,8,0,0,0.0,1.0,0.4625550848431885,0,4,6,3,7,8,1,nan,nan,nan,nan,nan,nan,nan,nan,nan,nan,nan,nan,0.0,nan,nan,nan,nan,nan,nan,nan,nan,nan,nan,nan,nan,nan,nan,nan,nan,nan,nan,172.0195310729323,180.0928856387036,nan,180.55544072354678,nan,nan,nan,nan
1,9,1,1,nan,nan,nan,0,3,5,1,2,7,4,nan,nan,nan,nan,nan,nan,nan,nan,nan,nan,nan,nan,0.0,nan,nan,nan,nan,nan,nan,nan,nan,nan,nan,nan,nan,nan,nan,nan,nan,nan,nan,172.0195310729323,181.1013559650164,nan,nan,nan,nan,nan,nan
1,10,1,1,1.0,1.0,0.5255553822498769,0,8,0,5,6,4,1,nan,nan,nan,nan,nan,nan,nan,nan,nan,nan,nan,nan,0.0,nan,nan,nan,nan,nan,nan,nan,nan,nan,nan,nan,nan,nan,nan,nan,nan,nan,nan,172.0195310729323,182.10983284865506,nan,182.63538823090494,nan,nan,nan,nan
1,11,1,1,1.0,1.0,0.32512083265464753,0,7,2,3,1,5,4,nan,nan,nan,nan,nan,nan,nan,nan,nan,nan,nan,nan,0.0,nan,nan,nan,nan,nan,nan,nan,nan,nan,nan,nan,nan,nan,nan,nan,nan,nan,nan,172.0195310729323,183.1182986133499,nan,183.44341944600455,nan,nan,nan,nan
1,12,1,1,1.0,1.0,0.37263591366354376,0,8,7,1,5,3,6,nan,nan,nan,nan,nan,nan,nan,nan,nan,nan,nan,nan,0.0,nan,nan,nan,nan,nan,nan,nan,nan,nan,nan,nan,nan,nan,nan,nan,nan,nan,nan,172.0195310729323,184.1267695099814,nan,184.49940542364493,nan,nan,nan,nan
1,13,1,1,1.0,1.0,0.38016027759294957,0,1,4,7,2,5,0,nan,nan,nan,nan,nan,nan,nan,nan,nan,nan,nan,nan,0.0,nan,nan,nan,nan,nan,nan,nan,nan,nan,nan,nan,nan,nan,nan,nan,nan,nan,nan,172.0195310729323,185.13524553831667,nan,185.51540581590962,nan,nan,nan,nan
1,14,1,1,1.0,1.0,0.3236816468415782,0,5,7,6,4,2,8,nan,nan,nan,nan,nan,nan,nan,nan,nan,nan,nan,nan,0.0,nan,nan,nan,nan,nan,nan,nan,nan,nan,nan,nan,nan,nan,nan,nan,nan,nan,nan,172.0195310729323,186.14371928584296,nan,186.46740093268454,nan,nan,nan,nan
1,15,1,1,1.0,1.0,0.355186642264016,0,3,6,0,5,1,7,nan,nan,nan,nan,nan,nan,nan,nan,nan,nan,nan,nan,0.0,nan,nan,nan,nan,nan,nan,nan,nan,nan,nan,nan,nan,nan,nan,nan,nan,nan,nan,172.0195310729323,187.15219160786364,nan,187.50737825012766,nan,nan,nan,nan
1,16,1,1,1.0,1.0,0.7707124567823485,0,0,2,8,7,3,5,nan,nan,nan,nan,nan,nan,nan,nan,nan,nan,nan,nan,0.0,nan,nan,nan,nan,nan,nan,nan,nan,nan,nan,nan,nan,nan,nan,nan,nan,nan,nan,172.0195310729323,188.16066507028881,nan,188.93137752707116,nan,nan,nan,nan
1,17,1,1,1.0,1.0,0.3785634314408526,0,3,8,1,4,5,0,nan,nan,nan,nan,nan,nan,nan,nan,nan,nan,nan,nan,0.0,nan,nan,nan,nan,nan,nan,nan,nan,nan,nan,nan,nan,nan,nan,nan,nan,nan,nan,172.0195310729323,189.16079935256857,nan,189.53936278400943,nan,nan,nan,nan
1,18,1,1,1.0,1.0,0.2504211642080918,0,7,1,6,8,4,2,nan,nan,nan,nan,nan,nan,nan,nan,nan,nan,nan,nan,0.0,nan,nan,nan,nan,nan,nan,nan,nan,nan,nan,nan,nan,nan,nan,nan,nan,nan,nan,172.0195310729323,190.16092935821507,nan,190.41135052242316,nan,nan,nan,nan
1,19,1,1,1.0,1.0,0.25795151526108384,0,6,3,2,1,0,5,nan,nan,nan,nan,nan,nan,nan,nan,nan,nan,nan,nan,0.0,nan,nan,nan,nan,nan,nan,nan,nan,nan,nan,nan,nan,nan,nan,nan,nan,nan,nan,172.0195310729323,191.16940139513463,nan,191.4273529103957,nan,nan,nan,nan
1,20,0,0,1.0,0.0,0.24146759312134236,0,4,8,7,5,2,3,nan,nan,nan,nan,nan,nan,nan,nan,nan,nan,nan,nan,0.0,nan,nan,nan,nan,nan,nan,nan,nan,nan,nan,nan,nan,nan,nan,nan,nan,nan,nan,172.0195310729323,192.17787685326766,nan,192.419344446389,nan,nan,nan,nan
1,21,1,1,1.0,1.0,0.5689661611104384,0,8,3,1,4,6,0,nan,nan,nan,nan,nan,nan,nan,nan,nan,nan,nan,nan,0.0,nan,nan,nan,nan,nan,nan,nan,nan,nan,nan,nan,nan,nan,nan,nan,nan,nan,nan,172.0195310729323,193.18633891176432,nan,193.75530507287476,nan,nan,nan,nan
1,22,1,1,1.0,1.0,0.41682615655008703,1,3,6,5,0,2,7,1.0,1.0,1.0,1.0,1.0,1.0,0.0,1.0,0.0,0.0,1.0,0.0,2.0,0.0,6.0,8.0,5.0,2.0,1.0,3.0,2.0,1.0,6.0,5.0,4.0,6.7804434961872175,5.428757598972879,3.893238535616547,9.220113589661196,8.451828475808725,7.6447859881445765,172.0195310729323,194.18648801906966,194.99489670677576,194.60331417561974,205.27129363350105,206.2785189274,196.01171647699084,205.2629652870819
1,23,1,1,nan,nan,nan,0,2,7,6,8,4,3,nan,nan,nan,nan,nan,nan,nan,nan,nan,nan,nan,nan,0.0,nan,nan,nan,nan,nan,nan,nan,nan,nan,nan,nan,nan,nan,nan,nan,nan,nan,nan,172.0195310729323,206.47982018161565,nan,nan,nan,nan,nan,nan
1,24,1,1,1.0,1.0,0.40292153565678746,0,4,0,7,1,5,6,nan,nan,nan,nan,nan,nan,nan,nan,nan,nan,nan,nan,0.0,nan,nan,nan,nan,nan,nan,nan,nan,nan,nan,nan,nan,nan,nan,nan,nan,nan,nan,172.0195310729323,207.48829649505205,nan,207.89121803070884,nan,nan,nan,nan
1,25,1,1,1.0,1.0,0.33073046372737736,0,8,2,6,5,3,1,nan,nan,nan,nan,nan,nan,nan,nan,nan,nan,nan,nan,0.0,nan,nan,nan,nan,nan,nan,nan,nan,nan,nan,nan,nan,nan,nan,nan,nan,nan,nan,172.0195310729323,208.48844959388953,nan,208.8191800576169,nan,nan,nan,nan
1,26,0,0,nan,nan,nan,0,2,3,7,6,5,0,nan,nan,nan,nan,nan,nan,nan,nan,nan,nan,nan,nan,0.0,nan,nan,nan,nan,nan,nan,nan,nan,nan,nan,nan,nan,nan,nan,nan,nan,nan,nan,172.0195310729323,209.49691535858437,nan,nan,nan,nan,nan,nan
1,27,1,1,1.0,1.0,0.5457570108119398,0,4,5,6,1,3,2,nan,nan,nan,nan,nan,nan,nan,nan,nan,nan,nan,nan,0.0,nan,nan,nan,nan,nan,nan,nan,nan,nan,nan,nan,nan,nan,nan,nan,nan,nan,nan,172.0195310729323,210.50537798728328,nan,211.05113499809522,nan,nan,nan,nan
1,28,1,1,1.0,1.0,0.7213057359913364,0,8,1,7,3,6,4,nan,nan,nan,nan,nan,nan,nan,nan,nan,nan,nan,nan,0.0,nan,nan,nan,nan,nan,nan,nan,nan,nan,nan,nan,nan,nan,nan,nan,nan,nan,nan,172.0195310729323,211.51385914743878,nan,212.23516488343012,nan,nan,nan,nan
1,29,1,1,nan,nan,nan,0,7,2,3,4,0,5,nan,nan,nan,nan,nan,nan,nan,nan,nan,nan,nan,nan,0.0,nan,nan,nan,nan,nan,nan,nan,nan,nan,nan,nan,nan,nan,nan,nan,nan,nan,nan,172.0195310729323,212.5223197803134,nan,nan,nan,nan,nan,nan
1,30,1,1,nan,nan,nan,0,3,7,2,8,1,4,nan,nan,nan,nan,nan,nan,nan,nan,nan,nan,nan,nan,0.0,nan,nan,nan,nan,nan,nan,nan,nan,nan,nan,nan,nan,nan,nan,nan,nan,nan,nan,172.0195310729323,213.5307587457355,nan,nan,nan,nan,nan,nan
1,31,1,1,1.0,1.0,0.03989093203563243,0,8,0,1,4,5,7,nan,nan,nan,nan,nan,nan,nan,nan,nan,nan,nan,nan,0.0,nan,nan,nan,nan,nan,nan,nan,nan,nan,nan,nan,nan,nan,nan,nan,nan,nan,nan,172.0195310729323,214.53926613507792,nan,214.57915706711356,nan,nan,nan,nan
1,32,1,1,1.0,1.0,0.38337535224854946,0,6,7,0,8,1,3,nan,nan,nan,nan,nan,nan,nan,nan,nan,nan,nan,nan,0.0,nan,nan,nan,nan,nan,nan,nan,nan,nan,nan,nan,nan,nan,nan,nan,nan,nan,nan,172.0195310729323,215.54771935543977,nan,215.93109470768832,nan,nan,nan,nan
1,33,0,0,0.0,1.0,0.44689082575496286,0,1,4,6,0,3,7,nan,nan,nan,nan,nan,nan,nan,nan,nan,nan,nan,nan,0.0,nan,nan,nan,nan,nan,nan,nan,nan,nan,nan,nan,nan,nan,nan,nan,nan,nan,nan,172.0195310729323,216.55621448543388,nan,217.00310531118885,nan,nan,nan,nan
1,34,1,1,1.0,1.0,0.35043316695373505,0,0,2,3,4,8,5,nan,nan,nan,nan,nan,nan,nan,nan,nan,nan,nan,nan,0.0,nan,nan,nan,nan,nan,nan,nan,nan,nan,nan,nan,nan,nan,nan,nan,nan,nan,nan,172.0195310729323,217.564665995189,nan,217.91509916214272,nan,nan,nan,nan
1,35,1,1,1.0,1.0,0.6059422290418297,0,5,8,4,3,6,0,nan,nan,nan,nan,nan,nan,nan,nan,nan,nan,nan,nan,0.0,nan,nan,nan,nan,nan,nan,nan,nan,nan,nan,nan,nan,nan,nan,nan,nan,nan,nan,172.0195310729323,218.57313689170405,nan,219.17907912074588,nan,nan,nan,nan
1,36,1,1,1.0,1.0,0.4934536722721532,0,8,5,6,2,4,1,nan,nan,nan,nan,nan,nan,nan,nan,nan,nan,nan,nan,0.0,nan,nan,nan,nan,nan,nan,nan,nan,nan,nan,nan,nan,nan,nan,nan,nan,nan,nan,172.0195310729323,219.58162033266854,nan,220.0750740049407,nan,nan,nan,nan
1,37,1,1,1.0,1.0,0.34131936950143427,0,4,6,8,1,7,0,nan,nan,nan,nan,nan,nan,nan,nan,nan,nan,nan,nan,0.0,nan,nan,nan,nan,nan,nan,nan,nan,nan,nan,nan,nan,nan,nan,nan,nan,nan,nan,172.0195310729323,220.5817472023191,nan,220.92306657182053,nan,nan,nan,nan
1,38,0,0,1.0,0.0,0.26078940252773464,0,1,2,4,5,6,7,nan,nan,nan,nan,nan,nan,nan,nan,nan,nan,nan,nan,0.0,nan,nan,nan,nan,nan,nan,nan,nan,nan,nan,nan,nan,nan,nan,nan,nan,nan,nan,172.0195310729323,221.5902694168035,nan,221.85105881933123,nan,nan,nan,nan
1,39,1,1,1.0,1.0,0.3643660127418116,0,5,4,8,3,7,6,nan,nan,nan,nan,nan,nan,nan,nan,nan,nan,nan,nan,0.0,nan,nan,nan,nan,nan,nan,nan,nan,nan,nan,nan,nan,nan,nan,nan,nan,nan,nan,172.0195310729323,222.59868842514697,nan,222.9630544378888,nan,nan,nan,nan
1,40,1,1,1.0,1.0,0.3562149986391887,0,3,1,0,5,6,7,nan,nan,nan,nan,nan,nan,nan,nan,nan,nan,nan,nan,0.0,nan,nan,nan,nan,nan,nan,nan,nan,nan,nan,nan,nan,nan,nan,nan,nan,nan,nan,172.0195310729323,223.5988298348384,nan,223.9550448334776,nan,nan,nan,nan
1,41,1,1,1.0,1.0,0.5960478272754699,0,7,2,5,0,3,6,nan,nan,nan,nan,nan,nan,nan,nan,nan,nan,nan,nan,0.0,nan,nan,nan,nan,nan,nan,nan,nan,nan,nan,nan,nan,nan,nan,nan,nan,nan,nan,172.0195310729323,224.5989772316534,nan,225.19502505892888,nan,nan,nan,nan
1,42,1,1,1.0,1.0,0.6435580616816878,0,8,6,0,2,7,5,nan,nan,nan,nan,nan,nan,nan,nan,nan,nan,nan,nan,0.0,nan,nan,nan,nan,nan,nan,nan,nan,nan,nan,nan,nan,nan,nan,nan,nan,nan,nan,172.0195310729323,225.60745668120217,nan,226.25101474288385,nan,nan,nan,nan
1,43,1,1,1.0,1.0,0.3231060295365751,0,3,4,7,8,6,0,nan,nan,nan,nan,nan,nan,nan,nan,nan,nan,nan,nan,0.0,nan,nan,nan,nan,nan,nan,nan,nan,nan,nan,nan,nan,nan,nan,nan,nan,nan,nan,172.0195310729323,226.6159073356539,nan,226.93901336519048,nan,nan,nan,nan
1,44,1,1,1.0,1.0,0.27463614800944924,0,4,5,6,3,0,2,nan,nan,nan,nan,nan,nan,nan,nan,nan,nan,nan,nan,0.0,nan,nan,nan,nan,nan,nan,nan,nan,nan,nan,nan,nan,nan,nan,nan,nan,nan,nan,172.0195310729323,227.62436825362965,nan,227.8990044016391,nan,nan,nan,nan
1,45,1,1,1.0,1.0,0.3141390588134527,0,7,4,1,0,6,8,nan,nan,nan,nan,nan,nan,nan,nan,nan,nan,nan,nan,0.0,nan,nan,nan,nan,nan,nan,nan,nan,nan,nan,nan,nan,nan,nan,nan,nan,nan,nan,172.0195310729323,228.6328562562121,nan,228.94699531502556,nan,nan,nan,nan
1,46,1,1,1.0,1.0,0.5056511132279411,1,4,2,8,3,7,1,1.0,1.0,1.0,1.0,1.0,1.0,0.0,0.0,1.0,1.0,0.0,0.0,2.0,2.0,4.0,8.0,3.0,4.0,2.0,3.0,2.0,1.0,6.0,5.0,4.0,4.645343073876575,3.861273958813399,1.2223978122929111,8.4288308697287,7.636715087108314,6.268545837956481,172.0195310729323,229.6413325696485,230.449742112658,230.14698368287645,239.9343650919618,240.94142160646152,231.46655390004162,239.92603104340378
1,47,1,1,nan,nan,nan,0,6,7,5,2,1,0,nan,nan,nan,nan,nan,nan,nan,nan,nan,nan,nan,nan,0.0,nan,nan,nan,nan,nan,nan,nan,nan,nan,nan,nan,nan,nan,nan,nan,nan,nan,nan,172.0195310729323,241.1428990525892,nan,nan,nan,nan,nan,nan
1,48,1,1,1.0,1.0,0.16352091869339347,0,1,2,8,0,3,7,nan,nan,nan,nan,nan,nan,nan,nan,nan,nan,nan,nan,0.0,nan,nan,nan,nan,nan,nan,nan,nan,nan,nan,nan,nan,nan,nan,nan,nan,nan,nan,172.0195310729323,242.15136681310833,nan,242.31488773180172,nan,nan,nan,nan
1,49,1,1,1.0,1.0,0.24299601512029767,0,7,1,0,3,4,2,nan,nan,nan,nan,nan,nan,nan,nan,nan,nan,nan,nan,0.0,nan,nan,nan,nan,nan,nan,nan,nan,nan,nan,nan,nan,nan,nan,nan,nan,nan,nan,172.0195310729323,243.15984597755596,nan,243.40284199267626,nan,nan,nan,nan
1,50,1,1,1.0,1.0,0.2188574381871149,0,8,2,7,1,0,3,nan,nan,nan,nan,nan,nan,nan,nan,nan,nan,nan,nan,0.0,nan,nan,nan,nan,nan,nan,nan,nan,nan,nan,nan,nan,nan,nan,nan,nan,nan,nan,172.0195310729323,244.15998453623615,nan,244.37884197442327,nan,nan,nan,nan
1,51,1,1,1.0,1.0,0.2107152622193098,1,6,1,3,4,2,5,1.0,1.0,1.0,1.0,1.0,1.0,0.0,0.0,1.0,1.0,1.0,0.0,3.0,0.0,7.0,3.0,4.0,2.0,1.0,3.0,2.0,1.0,6.0,5.0,4.0,3.9817333463579416,1.9181349087739363,0.9499307064106688,6.781597866793163,5.653891517664306,4.8383439214667305,172.0195310729323,245.16010598884895,245.9685300720157,245.37082125106826,253.81960514199454,254.8253362257965,246.99367818864994,253.8112819272792
1,52,1,1,1.0,1.0,0.638255768455565,0,4,2,8,5,1,3,nan,nan,nan,nan,nan,nan,nan,nan,nan,nan,nan,nan,0.0,nan,nan,nan,nan,nan,nan,nan,nan,nan,nan,nan,nan,nan,nan,nan,nan,nan,nan,172.0195310729323,255.03651135461405,nan,255.6747671230696,nan,nan,nan,nan
1,53,1,1,1.0,1.0,0.4061400315258652,0,3,4,2,7,6,1,nan,nan,nan,nan,nan,nan,nan,nan,nan,nan,nan,nan,0.0,nan,nan,nan,nan,nan,nan,nan,nan,nan,nan,nan,nan,nan,nan,nan,nan,nan,nan,172.0195310729323,256.03659802500624,nan,256.4427380565321,nan,nan,nan,nan
1,54,1,1,1.0,1.0,0.4136572680436075,0,4,3,1,6,7,5,nan,nan,nan,nan,nan,nan,nan,nan,nan,nan,nan,nan,0.0,nan,nan,nan,nan,nan,nan,nan,nan,nan,nan,nan,nan,nan,nan,nan,nan,nan,nan,172.0195310729323,257.04507205763366,nan,257.45872932567727,nan,nan,nan,nan
1,55,1,1,1.0,1.0,0.6455038704443723,0,2,7,6,1,5,0,nan,nan,nan,nan,nan,nan,nan,nan,nan,nan,nan,nan,0.0,nan,nan,nan,nan,nan,nan,nan,nan,nan,nan,nan,nan,nan,nan,nan,nan,nan,nan,172.0195310729323,258.04521033121273,nan,258.6907142016571,nan,nan,nan,nan
1,56,1,1,1.0,1.0,0.3173894858919084,0,0,1,7,2,8,3,nan,nan,nan,nan,nan,nan,nan,nan,nan,nan,nan,nan,0.0,nan,nan,nan,nan,nan,nan,nan,nan,nan,nan,nan,nan,nan,nan,nan,nan,nan,nan,172.0195310729323,259.04532180540264,nan,259.36271129129454,nan,nan,nan,nan
1,57,1,1,1.0,1.0,0.3172172853955999,0,1,5,8,7,0,4,nan,nan,nan,nan,nan,nan,nan,nan,nan,nan,nan,nan,0.0,nan,nan,nan,nan,nan,nan,nan,nan,nan,nan,nan,nan,nan,nan,nan,nan,nan,nan,172.0195310729323,260.04547775525134,nan,260.36269504064694,nan,nan,nan,nan
1,58,1,1,1.0,1.0,0.3167366065317765,0,6,4,3,8,2,1,nan,nan,nan,nan,nan,nan,nan,nan,nan,nan,nan,nan,0.0,nan,nan,nan,nan,nan,nan,nan,nan,nan,nan,nan,nan,nan,nan,nan,nan,nan,nan,172.0195310729323,261.0539446603507,nan,261.37068126688246,nan,nan,nan,nan
1,59,1,1,1.0,1.0,0.3085756137734279,0,0,1,8,5,3,4,nan,nan,nan,nan,nan,nan,nan,nan,nan,nan,nan,nan,0.0,nan,nan,nan,nan,nan,nan,nan,nan,nan,nan,nan,nan,nan,nan,nan,nan,nan,nan,172.0195310729323,262.05410146550275,nan,262.3626770792762,nan,nan,nan,nan
1,60,0,0,1.0,0.0,0.2921073720790446,0,4,2,5,3,6,0,nan,nan,nan,nan,nan,nan,nan,nan,nan,nan,nan,nan,0.0,nan,nan,nan,nan,nan,nan,nan,nan,nan,nan,nan,nan,nan,nan,nan,nan,nan,nan,172.0195310729323,263.06255525606684,nan,263.3546626281459,nan,nan,nan,nan
1,61,1,1,1.0,1.0,0.2759524555876851,0,0,6,8,5,2,1,nan,nan,nan,nan,nan,nan,nan,nan,nan,nan,nan,nan,0.0,nan,nan,nan,nan,nan,nan,nan,nan,nan,nan,nan,nan,nan,nan,nan,nan,nan,nan,172.0195310729323,264.06270379316993,nan,264.3386562487576,nan,nan,nan,nan
1,62,1,1,1.0,1.0,0.5078475249465555,0,4,5,3,1,8,7,nan,nan,nan,nan,nan,nan,nan,nan,nan,nan,nan,nan,0.0,nan,nan,nan,nan,nan,nan,nan,nan,nan,nan,nan,nan,nan,nan,nan,nan,nan,nan,172.0195310729323,265.0628010124201,nan,265.57064853736665,nan,nan,nan,nan
1,63,1,1,1.0,1.0,0.5156544232740998,0,6,7,0,8,5,4,nan,nan,nan,nan,nan,nan,nan,nan,nan,nan,nan,nan,0.0,nan,nan,nan,nan,nan,nan,nan,nan,nan,nan,nan,nan,nan,nan,nan,nan,nan,nan,172.0195310729323,266.06298632745165,nan,266.57864075072575,nan,nan,nan,nan
1,64,1,1,1.0,1.0,0.45951021497603506,0,4,0,1,7,2,3,nan,nan,nan,nan,nan,nan,nan,nan,nan,nan,nan,nan,0.0,nan,nan,nan,nan,nan,nan,nan,nan,nan,nan,nan,nan,nan,nan,nan,nan,nan,nan,172.0195310729323,267.0631094907876,nan,267.52261970576365,nan,nan,nan,nan
1,65,1,1,1.0,1.0,0.3793967793462798,0,8,3,5,4,7,1,nan,nan,nan,nan,nan,nan,nan,nan,nan,nan,nan,nan,0.0,nan,nan,nan,nan,nan,nan,nan,nan,nan,nan,nan,nan,nan,nan,nan,nan,nan,nan,172.0195310729323,268.06323037319817,nan,268.44262715254445,nan,nan,nan,nan
1,66,1,1,1.0,1.0,0.2992288895184174,0,0,8,7,1,4,2,nan,nan,nan,nan,nan,nan,nan,nan,nan,nan,nan,nan,0.0,nan,nan,nan,nan,nan,nan,nan,nan,nan,nan,nan,nan,nan,nan,nan,nan,nan,nan,172.0195310729323,269.0633794806199,nan,269.36260837013833,nan,nan,nan,nan
1,67,1,1,1.0,1.0,0.29108956456184387,0,7,5,1,8,0,3,nan,nan,nan,nan,nan,nan,nan,nan,nan,nan,nan,nan,0.0,nan,nan,nan,nan,nan,nan,nan,nan,nan,nan,nan,nan,nan,nan,nan,nan,nan,nan,172.0195310729323,270.0635157584911,nan,270.35460532305297,nan,nan,nan,nan
1,68,0,0,1.0,0.0,0.20260672795120627,0,0,6,3,7,2,8,nan,nan,nan,nan,nan,nan,nan,nan,nan,nan,nan,nan,0.0,nan,nan,nan,nan,nan,nan,nan,nan,nan,nan,nan,nan,nan,nan,nan,nan,nan,nan,172.0195310729323,271.07200347597245,nan,271.27461020392366,nan,nan,nan,nan
1,69,1,1,1.0,1.0,0.2101097092963755,1,4,2,1,8,5,6,1.0,1.0,1.0,1.0,1.0,1.0,0.0,1.0,1.0,0.0,0.0,0.0,2.0,6.0,2.0,1.0,5.0,3.0,0.0,3.0,2.0,1.0,6.0,5.0,4.0,3.0052136270096526,1.8861643448472023,0.7426862538559362,6.925534683978185,5.477464398834854,3.9903690308565274,172.0195310729323,272.0804632536601,272.88888961751945,272.2905729629565,280.86501219228376,281.8754710924113,273.89735965873115,280.85662853647955
1,70,1,1,1.0,1.0,0.7366244537988678,0,6,3,5,0,8,7,nan,nan,nan,nan,nan,nan,nan,nan,nan,nan,nan,nan,0.0,nan,nan,nan,nan,nan,nan,nan,nan,nan,nan,nan,nan,nan,nan,nan,nan,nan,nan,172.0195310729323,282.0818408576306,nan,282.81846531142946,nan,nan,nan,nan
1,71,1,1,1.0,1.0,0.3524947263067588,1,3,5,1,4,0,2,1.0,1.0,1.0,1.0,1.0,1.0,0.0,1.0,1.0,0.0,0.0,0.0,2.0,0.0,5.0,1.0,8.0,6.0,3.0,3.0,2.0,1.0,6.0,5.0,4.0,2.8213299980852753,1.7976558493683115,0.7107416340149939,7.291861900943331,5.81977449147962,4.396285828901455,172.0195310729323,283.08196658687666,283.8903815468075,283.4344613131834,292.23318685835693,293.2321676252177,284.8988721151836,292.2248550907243
1,72,1,1,1.0,1.0,0.3126687970943749,0,7,6,2,5,3,8,nan,nan,nan,nan,nan,nan,nan,nan,nan,nan,nan,nan,0.0,nan,nan,nan,nan,nan,nan,nan,nan,nan,nan,nan,nan,nan,nan,nan,nan,nan,nan,172.0195310729323,293.4417216744041,nan,293.7543904714985,nan,nan,nan,nan
1,73,1,1,1.0,1.0,0.32853262638673186,0,2,8,7,3,6,4,nan,nan,nan,nan,nan,nan,nan,nan,nan,nan,nan,nan,0.0,nan,nan,nan,nan,nan,nan,nan,nan,nan,nan,nan,nan,nan,nan,nan,nan,nan,nan,172.0195310729323,294.4418425569311,nan,294.7703751833178,nan,nan,nan,nan
1,74,1,1,1.0,1.0,0.36001424363348633,0,5,4,0,7,3,2,nan,nan,nan,nan,nan,nan,nan,nan,nan,nan,nan,nan,0.0,nan,nan,nan,nan,nan,nan,nan,nan,nan,nan,nan,nan,nan,nan,nan,nan,nan,nan,172.0195310729323,295.450377600966,nan,295.8103918445995,nan,nan,nan,nan
1,75,1,1,1.0,1.0,0.27154423657339066,0,0,1,8,6,2,4,nan,nan,nan,nan,nan,nan,nan,nan,nan,nan,nan,nan,0.0,nan,nan,nan,nan,nan,nan,nan,nan,nan,nan,nan,nan,nan,nan,nan,nan,nan,nan,172.0195310729323,296.45879831991624,nan,296.73034255648963,nan,nan,nan,nan
1,76,1,1,1.0,1.0,0.19940362742636353,0,7,3,4,2,0,8,nan,nan,nan,nan,nan,nan,nan,nan,nan,nan,nan,nan,0.0,nan,nan,nan,nan,nan,nan,nan,nan,nan,nan,nan,nan,nan,nan,nan,nan,nan,nan,172.0195310729323,297.4589343126863,nan,297.6583379401127,nan,nan,nan,nan
1,77,1,1,1.0,1.0,0.2552490506786853,0,3,0,2,8,4,7,nan,nan,nan,nan,nan,nan,nan,nan,nan,nan,nan,nan,0.0,nan,nan,nan,nan,nan,nan,nan,nan,nan,nan,nan,nan,nan,nan,nan,nan,nan,nan,172.0195310729323,298.45908456051257,nan,298.71433361119125,nan,nan,nan,nan
1,78,1,1,1.0,1.0,0.14310118870344013,1,4,6,7,0,5,3,1.0,1.0,1.0,1.0,1.0,1.0,0.0,1.0,1.0,0.0,0.0,0.0,2.0,0.0,6.0,7.0,3.0,1.0,4.0,3.0,2.0,1.0,6.0,5.0,4.0,2.891897709458135,2.138951270375401,1.0771207390353084,7.338248840533197,6.10724698996637,5.1150575944921,172.0195310729323,299.4592276806943,300.2676323769847,299.60232886939775,308.6521096415818,309.6588294528192,301.27610526932403,308.64377787394915
1,79,1,1,1.0,1.0,0.3496092273853719,0,8,4,3,2,1,7,nan,nan,nan,nan,nan,nan,nan,nan,nan,nan,nan,nan,0.0,nan,nan,nan,nan,nan,nan,nan,nan,nan,nan,nan,nan,nan,nan,nan,nan,nan,nan,172.0195310729323,309.8606427470222,nan,310.2102519744076,nan,nan,nan,nan
1,80,1,1,1.0,1.0,0.30143756058532745,0,3,2,4,7,0,8,nan,nan,nan,nan,nan,nan,nan,nan,nan,nan,nan,nan,0.0,nan,nan,nan,nan,nan,nan,nan,nan,nan,nan,nan,nan,nan,nan,nan,nan,nan,nan,172.0195310729323,310.8607801652979,nan,311.16221772588324,nan,nan,nan,nan
1,81,1,1,1.0,1.0,0.03729024820495397,0,2,5,7,0,4,6,nan,nan,nan,nan,nan,nan,nan,nan,nan,nan,nan,nan,0.0,nan,nan,nan,nan,nan,nan,nan,nan,nan,nan,nan,nan,nan,nan,nan,nan,nan,nan,172.0195310729323,311.8609127368545,nan,311.89820298505947,nan,nan,nan,nan
1,82,1,1,nan,nan,nan,0,8,6,3,4,2,5,nan,nan,nan,nan,nan,nan,nan,nan,nan,nan,nan,nan,0.0,nan,nan,nan,nan,nan,nan,nan,nan,nan,nan,nan,nan,nan,nan,nan,nan,nan,nan,172.0195310729323,312.86108379694633,nan,nan,nan,nan,nan,nan
1,83,1,1,1.0,1.0,0.00468961289152503,0,5,7,0,1,4,3,nan,nan,nan,nan,nan,nan,nan,nan,nan,nan,nan,nan,0.0,nan,nan,nan,nan,nan,nan,nan,nan,nan,nan,nan,nan,nan,nan,nan,nan,nan,nan,172.0195310729323,313.86951677512843,nan,313.87420638801996,nan,nan,nan,nan
1,84,1,1,1.0,1.0,0.13218555797357112,0,8,2,1,6,7,0,nan,nan,nan,nan,nan,nan,nan,nan,nan,nan,nan,nan,0.0,nan,nan,nan,nan,nan,nan,nan,nan,nan,nan,nan,nan,nan,nan,nan,nan,nan,nan,172.0195310729323,314.87798824196216,nan,315.0101737999357,nan,nan,nan,nan
1,85,1,1,1.0,1.0,0.012030087178573012,0,5,1,7,0,8,3,nan,nan,nan,nan,nan,nan,nan,nan,nan,nan,nan,nan,0.0,nan,nan,nan,nan,nan,nan,nan,nan,nan,nan,nan,nan,nan,nan,nan,nan,nan,nan,172.0195310729323,315.8781262304401,nan,315.8901563176187,nan,nan,nan,nan
1,86,1,1,1.0,1.0,0.7958619990386069,0,8,0,4,6,2,5,nan,nan,nan,nan,nan,nan,nan,nan,nan,nan,nan,nan,0.0,nan,nan,nan,nan,nan,nan,nan,nan,nan,nan,nan,nan,nan,nan,nan,nan,nan,nan,172.0195310729323,316.8782485383563,nan,317.6741105373949,nan,nan,nan,nan
1,87,1,1,nan,nan,nan,0,2,3,5,0,8,7,nan,nan,nan,nan,nan,nan,nan,nan,nan,nan,nan,nan,0.0,nan,nan,nan,nan,nan,nan,nan,nan,nan,nan,nan,nan,nan,nan,nan,nan,nan,nan,172.0195310729323,317.88674651947804,nan,nan,nan,nan,nan,nan
1,88,1,1,nan,nan,nan,0,8,6,2,4,3,5,nan,nan,nan,nan,nan,nan,nan,nan,nan,nan,nan,nan,0.0,nan,nan,nan,nan,nan,nan,nan,nan,nan,nan,nan,nan,nan,nan,nan,nan,nan,nan,172.0195310729323,318.8868736741133,nan,nan,nan,nan,nan,nan
1,89,1,1,nan,nan,nan,0,2,7,1,6,0,4,nan,nan,nan,nan,nan,nan,nan,nan,nan,nan,nan,nan,0.0,nan,nan,nan,nan,nan,nan,nan,nan,nan,nan,nan,nan,nan,nan,nan,nan,nan,nan,172.0195310729323,319.8870025394717,nan,nan,nan,nan,nan,nan
1,90,1,1,1.0,1.0,0.25098965398501605,0,4,3,2,7,5,0,nan,nan,nan,nan,nan,nan,nan,nan,nan,nan,nan,nan,0.0,nan,nan,nan,nan,nan,nan,nan,nan,nan,nan,nan,nan,nan,nan,nan,nan,nan,nan,172.0195310729323,320.88713881734293,nan,321.13812847132795,nan,nan,nan,nan
1,91,1,1,nan,nan,nan,0,6,1,0,4,8,3,nan,nan,nan,nan,nan,nan,nan,nan,nan,nan,nan,nan,0.0,nan,nan,nan,nan,nan,nan,nan,nan,nan,nan,nan,nan,nan,nan,nan,nan,nan,nan,172.0195310729323,321.88728165253997,nan,nan,nan,nan,nan,nan
1,92,1,1,nan,nan,nan,0,7,8,6,0,3,1,nan,nan,nan,nan,nan,nan,nan,nan,nan,nan,nan,nan,0.0,nan,nan,nan,nan,nan,nan,nan,nan,nan,nan,nan,nan,nan,nan,nan,nan,nan,nan,172.0195310729323,322.8874025349505,nan,nan,nan,nan,nan,nan
1,93,0,0,0.0,1.0,0.7305081996601075,0,4,1,2,5,8,3,nan,nan,nan,nan,nan,nan,nan,nan,nan,nan,nan,nan,0.0,nan,nan,nan,nan,nan,nan,nan,nan,nan,nan,nan,nan,nan,nan,nan,nan,nan,nan,172.0195310729323,323.887539383024,nan,324.6180475826841,nan,nan,nan,nan
1,94,1,1,1.0,1.0,0.3143930829828605,0,6,3,7,4,0,5,nan,nan,nan,nan,nan,nan,nan,nan,nan,nan,nan,nan,0.0,nan,nan,nan,nan,nan,nan,nan,nan,nan,nan,nan,nan,nan,nan,nan,nan,nan,nan,172.0195310729323,324.88768392882776,nan,325.2020770118106,nan,nan,nan,nan
1,95,0,0,1.0,0.0,0.2502044881694019,0,0,8,2,7,5,4,nan,nan,nan,nan,nan,nan,nan,nan,nan,nan,nan,nan,0.0,nan,nan,nan,nan,nan,nan,nan,nan,nan,nan,nan,nan,nan,nan,nan,nan,nan,nan,172.0195310729323,325.8878541336162,nan,326.1380586217856,nan,nan,nan,nan
1,96,1,1,1.0,1.0,0.2020904115634039,0,7,0,4,2,1,5,nan,nan,nan,nan,nan,nan,nan,nan,nan,nan,nan,nan,0.0,nan,nan,nan,nan,nan,nan,nan,nan,nan,nan,nan,nan,nan,nan,nan,nan,nan,nan,172.0195310729323,326.88796389719937,nan,327.0900543087628,nan,nan,nan,nan
1,97,1,1,1.0,1.0,0.2979770146775991,1,5,3,7,6,8,4,1.0,1.0,1.0,1.0,1.0,1.0,1.0,0.0,0.0,1.0,1.0,1.0,4.0,5.0,1.0,3.0,6.0,8.0,4.0,4.0,5.0,6.0,1.0,2.0,3.0,5.126106366864406,6.269376619835384,7.324895318248309,1.6473162522306666,2.815219730953686,4.014600835507736,172.0195310729323,327.88807252037805,328.69652083702385,328.18604953505564,337.0809926846996,338.0817909651669,329.7133491602726,337.0726848654449
1,98,0,0,0.0,1.0,0.5127503927797079,0,6,0,5,8,2,1,nan,nan,nan,nan,nan,nan,nan,nan,nan,nan,nan,nan,0.0,nan,nan,nan,nan,nan,nan,nan,nan,nan,nan,nan,nan,nan,nan,nan,nan,nan,nan,172.0195310729323,338.281210273155,nan,338.7939606659347,nan,nan,nan,nan
1,99,1,1,1.0,1.0,0.3366300417110324,0,4,5,6,2,8,0,nan,nan,nan,nan,nan,nan,nan,nan,nan,nan,nan,nan,0.0,nan,nan,nan,nan,nan,nan,nan,nan,nan,nan,nan,nan,nan,nan,nan,nan,nan,nan,172.0195310729323,339.2813163304236,nan,339.6179463721346,nan,nan,nan,nan
1,100,1,1,1.0,1.0,0.31246951210778207,1,3,4,7,0,6,5,1.0,1.0,1.0,1.0,1.0,1.0,0.0,0.0,1.0,0.0,0.0,0.0,1.0,1.0,0.0,7.0,6.0,8.0,3.0,6.0,2.0,1.0,3.0,4.0,5.0,6.939210369484499,2.16570934781339,1.2112948708236217,3.380436824867502,4.92368381365668,5.915999793563969,172.0195310729323,340.28145574440714,341.0898898059968,340.5939252565149,349.08264455513563,350.0936548389727,342.1066930403467,349.07431250228547
1,101,1,1,1.0,1.0,0.32636729057412595,0,2,1,8,3,0,7,nan,nan,nan,nan,nan,nan,nan,nan,nan,nan,nan,nan,0.0,nan,nan,nan,nan,nan,nan,nan,nan,nan,nan,nan,nan,nan,nan,nan,nan,nan,nan,172.0195310729323,350.29947179497685,nan,350.625839085551,nan,nan,nan,nan
1,102,1,1,1.0,1.0,0.5661921363789588,0,0,8,3,1,4,5,nan,nan,nan,nan,nan,nan,nan,nan,nan,nan,nan,nan,0.0,nan,nan,nan,nan,nan,nan,nan,nan,nan,nan,nan,nan,nan,nan,nan,nan,nan,nan,172.0195310729323,351.2996337318327,nan,351.8658258682117,nan,nan,nan,nan
1,103,0,0,0.0,1.0,0.5420461469329894,0,3,6,8,4,2,7,nan,nan,nan,nan,nan,nan,nan,nan,nan,nan,nan,nan,0.0,nan,nan,nan,nan,nan,nan,nan,nan,nan,nan,nan,nan,nan,nan,nan,nan,nan,nan,172.0195310729323,352.29976886929944,nan,352.84181501623243,nan,nan,nan,nan
1,104,1,1,1.0,1.0,0.3659007069654763,0,1,0,3,7,8,2,nan,nan,nan,nan,nan,nan,nan,nan,nan,nan,nan,nan,0.0,nan,nan,nan,nan,nan,nan,nan,nan,nan,nan,nan,nan,nan,nan,nan,nan,nan,nan,172.0195310729323,353.29991626611445,nan,353.6658169730799,nan,nan,nan,nan
1,105,1,1,1.0,1.0,0.2937472683843225,0,5,1,7,6,3,4,nan,nan,nan,nan,nan,nan,nan,nan,nan,nan,nan,nan,0.0,nan,nan,nan,nan,nan,nan,nan,nan,nan,nan,nan,nan,nan,nan,nan,nan,nan,nan,172.0195310729323,354.30004769726656,nan,354.5937949656509,nan,nan,nan,nan
1,106,1,1,1.0,1.0,0.27760204521473497,1,0,4,6,3,1,5,1.0,1.0,1.0,1.0,1.0,1.0,0.0,1.0,1.0,1.0,0.0,1.0,4.0,2.0,4.0,6.0,3.0,7.0,5.0,4.0,3.0,2.0,1.0,6.0,5.0,7.816701396601275,6.521700542769395,5.058760002371855,1.288558445055969,10.656579727306962,8.944315088097937,172.0195310729323,355.3001865410479,356.10860463709105,355.5777885862626,367.81854171829764,368.8291183648398,357.12541956058703,367.81021023576614
1,107,1,1,1.0,1.0,0.32626436941791326,0,3,1,0,2,5,8,nan,nan,nan,nan,nan,nan,nan,nan,nan,nan,nan,nan,0.0,nan,nan,nan,nan,nan,nan,nan,nan,nan,nan,nan,nan,nan,nan,nan,nan,nan,nan,172.0195310729323,369.0354077317752,nan,369.3616721011931,nan,nan,nan,nan
1,108,1,1,1.0,1.0,0.3741318342508748,0,6,3,2,8,7,5,nan,nan,nan,nan,nan,nan,nan,nan,nan,nan,nan,nan,0.0,nan,nan,nan,nan,nan,nan,nan,nan,nan,nan,nan,nan,nan,nan,nan,nan,nan,nan,172.0195310729323,370.03552348248195,nan,370.4096553167328,nan,nan,nan,nan
1,109,1,1,1.0,1.0,0.47794336709193885,0,1,5,7,4,3,8,nan,nan,nan,nan,nan,nan,nan,nan,nan,nan,nan,nan,0.0,nan,nan,nan,nan,nan,nan,nan,nan,nan,nan,nan,nan,nan,nan,nan,nan,nan,nan,172.0195310729323,371.0356948276749,nan,371.5136381947668,nan,nan,nan,nan
1,110,1,1,1.0,1.0,0.397847892716527,0,2,7,8,6,4,3,nan,nan,nan,nan,nan,nan,nan,nan,nan,nan,nan,nan,0.0,nan,nan,nan,nan,nan,nan,nan,nan,nan,nan,nan,nan,nan,nan,nan,nan,nan,nan,172.0195310729323,372.0357740855543,nan,372.4336219782708,nan,nan,nan,nan
1,111,1,1,1.0,1.0,0.26967683038674295,0,0,8,1,5,2,6,nan,nan,nan,nan,nan,nan,nan,nan,nan,nan,nan,nan,0.0,nan,nan,nan,nan,nan,nan,nan,nan,nan,nan,nan,nan,nan,nan,nan,nan,nan,nan,172.0195310729323,373.035942579736,nan,373.30561941012274,nan,nan,nan,nan
1,112,1,1,1.0,1.0,0.32552510465029627,0,4,3,2,6,7,1,nan,nan,nan,nan,nan,nan,nan,nan,nan,nan,nan,nan,0.0,nan,nan,nan,nan,nan,nan,nan,nan,nan,nan,nan,nan,nan,nan,nan,nan,nan,nan,172.0195310729323,374.03608313412406,nan,374.36160823877435,nan,nan,nan,nan
1,113,1,1,1.0,1.0,0.2693723434349522,0,2,6,3,5,8,4,nan,nan,nan,nan,nan,nan,nan,nan,nan,nan,nan,nan,0.0,nan,nan,nan,nan,nan,nan,nan,nan,nan,nan,nan,nan,nan,nan,nan,nan,nan,nan,172.0195310729323,375.0362185566919,nan,375.30559090012684,nan,nan,nan,nan
1,114,1,1,1.0,1.0,0.2692340698558837,0,3,8,0,6,1,7,nan,nan,nan,nan,nan,nan,nan,nan,nan,nan,nan,nan,0.0,nan,nan,nan,nan,nan,nan,nan,nan,nan,nan,nan,nan,nan,nan,nan,nan,nan,nan,172.0195310729323,376.03635283885524,nan,376.3055869087111,nan,nan,nan,nan
1,115,1,1,1.0,1.0,0.2770948519464582,0,7,1,3,2,5,6,nan,nan,nan,nan,nan,nan,nan,nan,nan,nan,nan,nan,0.0,nan,nan,nan,nan,nan,nan,nan,nan,nan,nan,nan,nan,nan,nan,nan,nan,nan,nan,172.0195310729323,377.0364936783444,nan,377.3135885302909,nan,nan,nan,nan
1,116,0,0,1.0,0.0,0.2849442301085219,0,4,2,0,7,6,3,nan,nan,nan,nan,nan,nan,nan,nan,nan,nan,nan,nan,0.0,nan,nan,nan,nan,nan,nan,nan,nan,nan,nan,nan,nan,nan,nan,nan,nan,nan,nan,172.0195310729323,378.0366293860134,nan,378.3215736161219,nan,nan,nan,nan
1,117,1,1,1.0,1.0,0.6767893387004733,0,7,0,5,6,2,8,nan,nan,nan,nan,nan,nan,nan,nan,nan,nan,nan,nan,0.0,nan,nan,nan,nan,nan,nan,nan,nan,nan,nan,nan,nan,nan,nan,nan,nan,nan,nan,172.0195310729323,379.0367670893902,nan,379.71355642809067,nan,nan,nan,nan
1,118,1,1,nan,nan,nan,0,1,4,3,0,6,5,nan,nan,nan,nan,nan,nan,nan,nan,nan,nan,nan,nan,0.0,nan,nan,nan,nan,nan,nan,nan,nan,nan,nan,nan,nan,nan,nan,nan,nan,nan,nan,172.0195310729323,380.03690764377825,nan,nan,nan,nan,nan,nan
1,119,0,0,1.0,0.0,0.02853168558795005,0,3,5,6,2,1,7,nan,nan,nan,nan,nan,nan,nan,nan,nan,nan,nan,nan,0.0,nan,nan,nan,nan,nan,nan,nan,nan,nan,nan,nan,nan,nan,nan,nan,nan,nan,nan,172.0195310729323,381.0370527597843,nan,381.0655844453722,nan,nan,nan,nan
1,120,1,1,1.0,1.0,0.44435286393854767,0,8,0,4,5,2,3,nan,nan,nan,nan,nan,nan,nan,nan,nan,nan,nan,nan,0.0,nan,nan,nan,nan,nan,nan,nan,nan,nan,nan,nan,nan,nan,nan,nan,nan,nan,nan,172.0195310729323,382.03718732704874,nan,382.4815401909873,nan,nan,nan,nan
1,121,1,1,1.0,1.0,0.3722356330836192,0,3,8,1,6,7,4,nan,nan,nan,nan,nan,nan,nan,nan,nan,nan,nan,nan,0.0,nan,nan,nan,nan,nan,nan,nan,nan,nan,nan,nan,nan,nan,nan,nan,nan,nan,nan,172.0195310729323,383.037301937351,nan,383.4095375704346,nan,nan,nan,nan
1,122,1,1,1.0,1.0,0.38007303699851036,0,0,1,5,4,6,2,nan,nan,nan,nan,nan,nan,nan,nan,nan,nan,nan,nan,0.0,nan,nan,nan,nan,nan,nan,nan,nan,nan,nan,nan,nan,nan,nan,nan,nan,nan,nan,172.0195310729323,384.037451614975,nan,384.4175246519735,nan,nan,nan,nan
1,123,1,1,1.0,1.0,0.4759083220269531,0,7,4,1,6,8,3,nan,nan,nan,nan,nan,nan,nan,nan,nan,nan,nan,nan,0.0,nan,nan,nan,nan,nan,nan,nan,nan,nan,nan,nan,nan,nan,nan,nan,nan,nan,nan,172.0195310729323,385.03760670952033,nan,385.5135150315473,nan,nan,nan,nan
1,124,1,1,1.0,1.0,0.5717530153924599,0,3,2,8,0,7,6,nan,nan,nan,nan,nan,nan,nan,nan,nan,nan,nan,nan,0.0,nan,nan,nan,nan,nan,nan,nan,nan,nan,nan,nan,nan,nan,nan,nan,nan,nan,nan,172.0195310729323,386.0377287323354,nan,386.60948174772784,nan,nan,nan,nan
1,125,1,1,1.0,1.0,0.5636470471508801,0,5,6,4,8,1,7,nan,nan,nan,nan,nan,nan,nan,nan,nan,nan,nan,nan,0.0,nan,nan,nan,nan,nan,nan,nan,nan,nan,nan,nan,nan,nan,nan,nan,nan,nan,nan,172.0195310729323,387.03783478960395,nan,387.60148183675483,nan,nan,nan,nan
1,126,1,1,1.0,1.0,0.5474807264981791,0,2,0,6,5,7,1,nan,nan,nan,nan,nan,nan,nan,nan,nan,nan,nan,nan,0.0,nan,nan,nan,nan,nan,nan,nan,nan,nan,nan,nan,nan,nan,nan,nan,nan,nan,nan,172.0195310729323,388.03800214338116,nan,388.58548286987934,nan,nan,nan,nan
1,127,1,1,1.0,1.0,0.45931634691078216,0,4,8,1,6,2,5,nan,nan,nan,nan,nan,nan,nan,nan,nan,nan,nan,nan,0.0,nan,nan,nan,nan,nan,nan,nan,nan,nan,nan,nan,nan,nan,nan,nan,nan,nan,nan,172.0195310729323,389.03814298287034,nan,389.4974593297811,nan,nan,nan,nan
1,128,1,1,1.0,1.0,0.41918650083243847,1,7,4,3,8,0,6,1.0,1.0,1.0,1.0,1.0,1.0,0.0,0.0,0.0,0.0,0.0,0.0,0.0,8.0,6.0,0.0,3.0,2.0,7.0,4.0,3.0,2.0,1.0,6.0,5.0,4.4154032215010375,3.591138687217608,1.8797481652582064,1.0006545899668708,7.3339435427915305,5.606512429425493,172.0195310729323,390.03827298863325,390.84669051435776,390.4574594894657,399.23951180593576,400.2472274720203,391.8635171269998,399.23118174879346
1,129,1,1,1.0,1.0,0.5533332630293444,0,8,0,5,6,3,2,nan,nan,nan,nan,nan,nan,nan,nan,nan,nan,nan,nan,0.0,nan,nan,nan,nan,nan,nan,nan,nan,nan,nan,nan,nan,nan,nan,nan,nan,nan,nan,172.0195310729323,400.44804576656315,nan,401.0013790295925,nan,nan,nan,nan
1,130,1,1,1.0,1.0,0.21682781004346907,0,1,2,6,5,7,4,nan,nan,nan,nan,nan,nan,nan,nan,nan,nan,nan,nan,0.0,nan,nan,nan,nan,nan,nan,nan,nan,nan,nan,nan,nan,nan,nan,nan,nan,nan,nan,172.0195310729323,401.4565101058688,nan,401.67333791591227,nan,nan,nan,nan
1,131,1,1,1.0,1.0,0.3046386654023081,0,3,8,0,4,1,5,nan,nan,nan,nan,nan,nan,nan,nan,nan,nan,nan,nan,0.0,nan,nan,nan,nan,nan,nan,nan,nan,nan,nan,nan,nan,nan,nan,nan,nan,nan,nan,172.0195310729323,402.4566874381853,nan,402.76132610358763,nan,nan,nan,nan
1,132,1,1,1.0,1.0,0.18454420601483434,0,2,0,5,7,4,8,nan,nan,nan,nan,nan,nan,nan,nan,nan,nan,nan,nan,0.0,nan,nan,nan,nan,nan,nan,nan,nan,nan,nan,nan,nan,nan,nan,nan,nan,nan,nan,172.0195310729323,403.4567957762629,nan,403.6413399822777,nan,nan,nan,nan
1,133,1,1,nan,nan,nan,0,8,4,6,0,3,2,nan,nan,nan,nan,nan,nan,nan,nan,nan,nan,nan,nan,0.0,nan,nan,nan,nan,nan,nan,nan,nan,nan,nan,nan,nan,nan,nan,nan,nan,nan,nan,172.0195310729323,404.4569223606959,nan,nan,nan,nan,nan,nan
1,134,1,1,1.0,1.0,0.16026507469359785,0,7,5,1,6,0,8,nan,nan,nan,nan,nan,nan,nan,nan,nan,nan,nan,nan,0.0,nan,nan,nan,nan,nan,nan,nan,nan,nan,nan,nan,nan,nan,nan,nan,nan,nan,nan,172.0195310729323,405.4570683320053,nan,405.6173334066989,nan,nan,nan,nan
1,135,0,0,1.0,0.0,0.08777949446812272,0,4,0,5,1,6,7,nan,nan,nan,nan,nan,nan,nan,nan,nan,nan,nan,nan,0.0,nan,nan,nan,nan,nan,nan,nan,nan,nan,nan,nan,nan,nan,nan,nan,nan,nan,nan,172.0195310729323,406.46552582876757,nan,406.5533053232357,nan,nan,nan,nan
1,136,1,1,1.0,1.0,0.015638315002433956,0,1,6,3,0,2,5,nan,nan,nan,nan,nan,nan,nan,nan,nan,nan,nan,nan,0.0,nan,nan,nan,nan,nan,nan,nan,nan,nan,nan,nan,nan,nan,nan,nan,nan,nan,nan,172.0195310729323,407.4656621067552,nan,407.4813004217576,nan,nan,nan,nan
1,137,1,1,1.0,1.0,0.3274871640605852,0,5,2,1,3,8,4,nan,nan,nan,nan,nan,nan,nan,nan,nan,nan,nan,nan,0.0,nan,nan,nan,nan,nan,nan,nan,nan,nan,nan,nan,nan,nan,nan,nan,nan,nan,nan,172.0195310729323,408.4657958187163,nan,408.7932829827769,nan,nan,nan,nan
1,138,1,1,1.0,1.0,0.3193900338374078,0,2,7,4,8,5,0,nan,nan,nan,nan,nan,nan,nan,nan,nan,nan,nan,nan,0.0,nan,nan,nan,nan,nan,nan,nan,nan,nan,nan,nan,nan,nan,nan,nan,nan,nan,nan,172.0195310729323,409.4658987398725,nan,409.7852887737099,nan,nan,nan,nan
1,139,1,1,1.0,1.0,0.2871825515758246,0,5,2,8,0,1,4,nan,nan,nan,nan,nan,nan,nan,nan,nan,nan,nan,nan,0.0,nan,nan,nan,nan,nan,nan,nan,nan,nan,nan,nan,nan,nan,nan,nan,nan,nan,nan,172.0195310729323,410.4660877613351,nan,410.7532703129109,nan,nan,nan,nan
1,140,1,1,1.0,1.0,0.7510656331432983,1,7,8,1,6,5,2,1.0,1.0,1.0,1.0,1.0,1.0,0.0,0.0,0.0,1.0,1.0,1.0,3.0,0.0,1.0,7.0,6.0,5.0,2.0,6.0,3.0,4.0,5.0,1.0,2.0,5.882507079746574,2.7797797828679904,3.6115139417815953,4.842348153470084,1.0214711795561016,1.8108796508749947,172.0195310729323,411.46617785294075,412.27462730999105,412.21724348608404,419.2005839422345,420.1994572263211,413.2831090403488,419.1922550256131
1,141,1,1,1.0,1.0,0.6004306722898036,0,5,7,4,8,0,1,nan,nan,nan,nan,nan,nan,nan,nan,nan,nan,nan,nan,0.0,nan,nan,nan,nan,nan,nan,nan,nan,nan,nan,nan,nan,nan,nan,nan,nan,nan,nan,172.0195310729323,420.40076475276146,nan,421.00119542505126,nan,nan,nan,nan
1,142,1,1,1.0,1.0,0.39231865981128067,0,1,8,2,5,7,3,nan,nan,nan,nan,nan,nan,nan,nan,nan,nan,nan,nan,0.0,nan,nan,nan,nan,nan,nan,nan,nan,nan,nan,nan,nan,nan,nan,nan,nan,nan,nan,172.0195310729323,421.40087736735586,nan,421.79319602716714,nan,nan,nan,nan
1,143,1,1,1.0,1.0,0.3761095742229372,0,8,4,5,0,6,1,nan,nan,nan,nan,nan,nan,nan,nan,nan,nan,nan,nan,0.0,nan,nan,nan,nan,nan,nan,nan,nan,nan,nan,nan,nan,nan,nan,nan,nan,nan,nan,172.0195310729323,422.4010521337623,nan,422.7771617079852,nan,nan,nan,nan
1,144,1,1,1.0,1.0,0.3359560649842024,0,7,3,1,8,5,4,nan,nan,nan,nan,nan,nan,nan,nan,nan,nan,nan,nan,0.0,nan,nan,nan,nan,nan,nan,nan,nan,nan,nan,nan,nan,nan,nan,nan,nan,nan,nan,172.0195310729323,423.4011798585998,nan,423.737135923584,nan,nan,nan,nan
1,145,1,1,1.0,1.0,0.3598346305079758,0,0,1,5,4,2,7,nan,nan,nan,nan,nan,nan,nan,nan,nan,nan,nan,nan,0.0,nan,nan,nan,nan,nan,nan,nan,nan,nan,nan,nan,nan,nan,nan,nan,nan,nan,nan,172.0195310729323,424.40129703481216,nan,424.76113166532014,nan,nan,nan,nan
1,146,0,0,0.0,1.0,0.5196452555246651,0,7,6,8,1,5,4,nan,nan,nan,nan,nan,nan,nan,nan,nan,nan,nan,nan,0.0,nan,nan,nan,nan,nan,nan,nan,nan,nan,nan,nan,nan,nan,nan,nan,nan,nan,nan,172.0195310729323,425.4014709459152,nan,425.9211162014399,nan,nan,nan,nan
1,147,1,1,1.0,1.0,0.2315332773141563,0,8,5,1,7,4,6,nan,nan,nan,nan,nan,nan,nan,nan,nan,nan,nan,nan,0.0,nan,nan,nan,nan,nan,nan,nan,nan,nan,nan,nan,nan,nan,nan,nan,nan,nan,nan,172.0195310729323,426.40158641152084,nan,426.633119688835,nan,nan,nan,nan
1,148,0,0,0.0,1.0,0.45537882822100073,0,2,4,5,8,1,3,nan,nan,nan,nan,nan,nan,nan,nan,nan,nan,nan,nan,0.0,nan,nan,nan,nan,nan,nan,nan,nan,nan,nan,nan,nan,nan,nan,nan,nan,nan,nan,172.0195310729323,427.40173010202125,nan,427.85710893024225,nan,nan,nan,nan
1,149,1,1,1.0,1.0,0.21523181919474155,0,6,3,0,4,7,8,nan,nan,nan,nan,nan,nan,nan,nan,nan,nan,nan,nan,0.0,nan,nan,nan,nan,nan,nan,nan,nan,nan,nan,nan,nan,nan,nan,nan,nan,nan,nan,172.0195310729323,428.4018655245891,nan,428.6170973437838,nan,nan,nan,nan
1,150,1,1,1.0,1.0,0.2790834257612005,0,7,5,2,8,6,4,nan,nan,nan,nan,nan,nan,nan,nan,nan,nan,nan,nan,0.0,nan,nan,nan,nan,nan,nan,nan,nan,nan,nan,nan,nan,nan,nan,nan,nan,nan,nan,172.0195310729323,429.40199752594344,nan,429.68108095170464,nan,nan,nan,nan
1,151,1,1,1.0,1.0,0.1829348155297339,0,6,4,5,7,1,0,nan,nan,nan,nan,nan,nan,nan,nan,nan,nan,nan,nan,0.0,nan,nan,nan,nan,nan,nan,nan,nan,nan,nan,nan,nan,nan,nan,nan,nan,nan,nan,172.0195310729323,430.40214349725284,nan,430.58507831278257,nan,nan,nan,nan
1,152,1,1,1.0,1.0,0.10280170803889632,0,3,7,1,8,4,6,nan,nan,nan,nan,nan,nan,nan,nan,nan,nan,nan,nan,0.0,nan,nan,nan,nan,nan,nan,nan,nan,nan,nan,nan,nan,nan,nan,nan,nan,nan,nan,172.0195310729323,431.40227122209035,nan,431.50507293012924,nan,nan,nan,nan
1,153,1,1,1.0,1.0,0.08663196617271751,0,4,6,8,7,1,0,nan,nan,nan,nan,nan,nan,nan,nan,nan,nan,nan,nan,0.0,nan,nan,nan,nan,nan,nan,nan,nan,nan,nan,nan,nan,nan,nan,nan,nan,nan,nan,172.0195310729323,432.40243087825365,nan,432.48906284442637,nan,nan,nan,nan
1,154,0,0,0.0,1.0,0.5584875891217962,0,2,5,7,6,8,4,nan,nan,nan,nan,nan,nan,nan,nan,nan,nan,nan,nan,0.0,nan,nan,nan,nan,nan,nan,nan,nan,nan,nan,nan,nan,nan,nan,nan,nan,nan,nan,172.0195310729323,433.4025568924844,nan,433.9610444816062,nan,nan,nan,nan
1,155,1,1,1.0,1.0,0.3180087235523388,0,7,2,3,4,1,0,nan,nan,nan,nan,nan,nan,nan,nan,nan,nan,nan,nan,0.0,nan,nan,nan,nan,nan,nan,nan,nan,nan,nan,nan,nan,nan,nan,nan,nan,nan,nan,172.0195310729323,434.4110263634939,nan,434.7290350870462,nan,nan,nan,nan
1,156,1,1,1.0,1.0,0.33389593102037907,0,4,8,2,5,3,7,nan,nan,nan,nan,nan,nan,nan,nan,nan,nan,nan,nan,0.0,nan,nan,nan,nan,nan,nan,nan,nan,nan,nan,nan,nan,nan,nan,nan,nan,nan,nan,172.0195310729323,435.4111395482905,nan,435.7450354793109,nan,nan,nan,nan
1,157,1,1,1.0,1.0,0.2057083328254521,0,7,5,6,1,2,3,nan,nan,nan,nan,nan,nan,nan,nan,nan,nan,nan,nan,0.0,nan,nan,nan,nan,nan,nan,nan,nan,nan,nan,nan,nan,nan,nan,nan,nan,nan,nan,172.0195310729323,436.4113148848992,nan,436.61702321772464,nan,nan,nan,nan
1,158,1,1,1.0,1.0,0.1256057310383767,0,6,0,4,3,5,8,nan,nan,nan,nan,nan,nan,nan,nan,nan,nan,nan,nan,0.0,nan,nan,nan,nan,nan,nan,nan,nan,nan,nan,nan,nan,nan,nan,nan,nan,nan,nan,172.0195310729323,437.41140725731384,nan,437.5370129883522,nan,nan,nan,nan
1,159,1,1,1.0,1.0,0.14910140703432262,0,7,6,1,4,0,2,nan,nan,nan,nan,nan,nan,nan,nan,nan,nan,nan,nan,0.0,nan,nan,nan,nan,nan,nan,nan,nan,nan,nan,nan,nan,nan,nan,nan,nan,nan,nan,172.0195310729323,438.41990067681763,nan,438.56900208385196,nan,nan,nan,nan
1,160,1,1,1.0,1.0,0.17299850413110107,0,4,7,6,8,3,5,nan,nan,nan,nan,nan,nan,nan,nan,nan,nan,nan,nan,0.0,nan,nan,nan,nan,nan,nan,nan,nan,nan,nan,nan,nan,nan,nan,nan,nan,nan,nan,172.0195310729323,439.4200400908012,nan,439.5930385949323,nan,nan,nan,nan
1,161,1,1,1.0,1.0,0.5168179171159863,0,3,5,2,7,0,4,nan,nan,nan,nan,nan,nan,nan,nan,nan,nan,nan,nan,0.0,nan,nan,nan,nan,nan,nan,nan,nan,nan,nan,nan,nan,nan,nan,nan,nan,nan,nan,172.0195310729323,440.4201760835713,nan,440.93699400068726,nan,nan,nan,nan
1,162,1,1,1.0,1.0,0.5566635181894526,0,2,4,1,6,7,8,nan,nan,nan,nan,nan,nan,nan,nan,nan,nan,nan,nan,0.0,nan,nan,nan,nan,nan,nan,nan,nan,nan,nan,nan,nan,nan,nan,nan,nan,nan,nan,172.0195310729323,441.4203172081616,nan,441.97698072635103,nan,nan,nan,nan
1,163,1,1,1.0,1.0,0.5001714878017083,0,7,3,0,4,5,2,nan,nan,nan,nan,nan,nan,nan,nan,nan,nan,nan,nan,0.0,nan,nan,nan,nan,nan,nan,nan,nan,nan,nan,nan,nan,nan,nan,nan,nan,nan,nan,172.0195310729323,442.42879181099124,nan,442.92896329879295,nan,nan,nan,nan
1,164,1,1,1.0,1.0,0.3640275987563655,0,3,2,1,0,8,4,nan,nan,nan,nan,nan,nan,nan,nan,nan,nan,nan,nan,0.0,nan,nan,nan,nan,nan,nan,nan,nan,nan,nan,nan,nan,nan,nan,nan,nan,nan,nan,172.0195310729323,443.4289269485744,nan,443.79295454733074,nan,nan,nan,nan
1,165,1,1,1.0,1.0,0.3478758182609454,0,7,6,4,8,2,5,nan,nan,nan,nan,nan,nan,nan,nan,nan,nan,nan,nan,0.0,nan,nan,nan,nan,nan,nan,nan,nan,nan,nan,nan,nan,nan,nan,nan,nan,nan,nan,172.0195310729323,444.4290683582658,nan,444.77694417652674,nan,nan,nan,nan
1,166,1,1,1.0,1.0,0.30774084047880024,0,1,8,0,5,7,2,nan,nan,nan,nan,nan,nan,nan,nan,nan,nan,nan,nan,0.0,nan,nan,nan,nan,nan,nan,nan,nan,nan,nan,nan,nan,nan,nan,nan,nan,nan,nan,172.0195310729323,445.4292072020471,nan,445.7369480425259,nan,nan,nan,nan
1,167,1,1,1.0,1.0,0.18759876943659037,0,6,3,7,0,4,1,nan,nan,nan,nan,nan,nan,nan,nan,nan,nan,nan,nan,0.0,nan,nan,nan,nan,nan,nan,nan,nan,nan,nan,nan,nan,nan,nan,nan,nan,nan,nan,172.0195310729323,446.429333501379,nan,446.6169322708156,nan,nan,nan,nan
1,168,1,1,1.0,1.0,0.2994464209768921,0,3,4,0,6,5,2,nan,nan,nan,nan,nan,nan,nan,nan,nan,nan,nan,nan,0.0,nan,nan,nan,nan,nan,nan,nan,nan,nan,nan,nan,nan,nan,nan,nan,nan,nan,nan,172.0195310729323,447.42946920904797,nan,447.72891563002486,nan,nan,nan,nan
1,169,0,0,1.0,0.0,0.3153404709883034,0,1,6,7,8,4,3,nan,nan,nan,nan,nan,nan,nan,nan,nan,nan,nan,nan,0.0,nan,nan,nan,nan,nan,nan,nan,nan,nan,nan,nan,nan,nan,nan,nan,nan,nan,nan,172.0195310729323,448.42957298550755,nan,448.74491345649585,nan,nan,nan,nan
1,170,1,1,1.0,1.0,0.29914820624981076,0,8,2,5,0,7,4,nan,nan,nan,nan,nan,nan,nan,nan,nan,nan,nan,nan,0.0,nan,nan,nan,nan,nan,nan,nan,nan,nan,nan,nan,nan,nan,nan,nan,nan,nan,nan,172.0195310729323,449.4297460413072,nan,449.72889424755704,nan,nan,nan,nan
1,171,1,1,1.0,1.0,0.3230105210095644,0,3,5,4,2,6,1,nan,nan,nan,nan,nan,nan,nan,nan,nan,nan,nan,nan,0.0,nan,nan,nan,nan,nan,nan,nan,nan,nan,nan,nan,nan,nan,nan,nan,nan,nan,nan,172.0195310729323,450.4298806086881,nan,450.7528911296977,nan,nan,nan,nan
1,172,1,1,1.0,1.0,0.31486977043095976,0,6,0,2,3,1,5,nan,nan,nan,nan,nan,nan,nan,nan,nan,nan,nan,nan,0.0,nan,nan,nan,nan,nan,nan,nan,nan,nan,nan,nan,nan,nan,nan,nan,nan,nan,nan,172.0195310729323,451.43001745676156,nan,451.7448872271925,nan,nan,nan,nan
1,173,1,1,1.0,1.0,0.5866851373575628,0,2,3,1,7,8,6,nan,nan,nan,nan,nan,nan,nan,nan,nan,nan,nan,nan,0.0,nan,nan,nan,nan,nan,nan,nan,nan,nan,nan,nan,nan,nan,nan,nan,nan,nan,nan,172.0195310729323,452.4301873764489,nan,453.01687251380645,nan,nan,nan,nan
1,174,1,1,1.0,1.0,0.722567304270342,0,3,8,5,1,6,7,nan,nan,nan,nan,nan,nan,nan,nan,nan,nan,nan,nan,0.0,nan,nan,nan,nan,nan,nan,nan,nan,nan,nan,nan,nan,nan,nan,nan,nan,nan,nan,172.0195310729323,453.43029485922307,nan,454.1528621634934,nan,nan,nan,nan
1,175,1,1,1.0,1.0,0.5944244668353349,0,4,0,1,5,8,2,nan,nan,nan,nan,nan,nan,nan,nan,nan,nan,nan,nan,0.0,nan,nan,nan,nan,nan,nan,nan,nan,nan,nan,nan,nan,nan,nan,nan,nan,nan,nan,172.0195310729323,454.4304314221954,nan,455.02485588903073,nan,nan,nan,nan
1,176,1,1,1.0,1.0,0.6342797613469884,0,0,5,4,8,2,1,nan,nan,nan,nan,nan,nan,nan,nan,nan,nan,nan,nan,0.0,nan,nan,nan,nan,nan,nan,nan,nan,nan,nan,nan,nan,nan,nan,nan,nan,nan,nan,172.0195310729323,455.4305711212801,nan,456.06485088262707,nan,nan,nan,nan
1,177,1,1,1.0,1.0,0.498126179096289,0,6,1,3,0,5,2,nan,nan,nan,nan,nan,nan,nan,nan,nan,nan,nan,nan,0.0,nan,nan,nan,nan,nan,nan,nan,nan,nan,nan,nan,nan,nan,nan,nan,nan,nan,nan,172.0195310729323,456.43070711405016,nan,456.92883329314645,nan,nan,nan,nan
1,178,1,1,1.0,1.0,0.6500093085924163,0,1,8,6,5,0,7,nan,nan,nan,nan,nan,nan,nan,nan,nan,nan,nan,nan,0.0,nan,nan,nan,nan,nan,nan,nan,nan,nan,nan,nan,nan,nan,nan,nan,nan,nan,nan,172.0195310729323,457.4308088948019,nan,458.0808182033943,nan,nan,nan,nan
1,179,1,1,1.0,1.0,0.6578395849792287,0,5,6,8,1,3,4,nan,nan,nan,nan,nan,nan,nan,nan,nan,nan,nan,nan,0.0,nan,nan,nan,nan,nan,nan,nan,nan,nan,nan,nan,nan,nan,nan,nan,nan,nan,nan,172.0195310729323,458.4309776740847,nan,459.08881725906394,nan,nan,nan,nan
1,180,1,1,1.0,1.0,0.5456868762848899,0,2,1,6,0,4,3,nan,nan,nan,nan,nan,nan,nan,nan,nan,nan,nan,nan,0.0,nan,nan,nan,nan,nan,nan,nan,nan,nan,nan,nan,nan,nan,nan,nan,nan,nan,nan,172.0195310729323,459.4311159476638,nan,459.9768028239487,nan,nan,nan,nan
1,181,1,1,1.0,1.0,0.3535464609740302,0,6,4,5,3,1,8,nan,nan,nan,nan,nan,nan,nan,nan,nan,nan,nan,nan,0.0,nan,nan,nan,nan,nan,nan,nan,nan,nan,nan,nan,nan,nan,nan,nan,nan,nan,nan,172.0195310729323,460.431254506344,nan,460.784800967318,nan,nan,nan,nan
1,182,1,1,1.0,1.0,0.32939391408581287,0,1,3,4,8,6,5,nan,nan,nan,nan,nan,nan,nan,nan,nan,nan,nan,nan,0.0,nan,nan,nan,nan,nan,nan,nan,nan,nan,nan,nan,nan,nan,nan,nan,nan,nan,nan,172.0195310729323,461.43139392032754,nan,461.76078783441335,nan,nan,nan,nan
1,183,1,1,1.0,1.0,0.32123947865329683,0,4,0,7,5,2,8,nan,nan,nan,nan,nan,nan,nan,nan,nan,nan,nan,nan,0.0,nan,nan,nan,nan,nan,nan,nan,nan,nan,nan,nan,nan,nan,nan,nan,nan,nan,nan,172.0195310729323,462.4315293430118,nan,462.7527688216651,nan,nan,nan,nan
1,184,1,1,1.0,1.0,0.30509938730392605,0,2,4,8,7,1,0,nan,nan,nan,nan,nan,nan,nan,nan,nan,nan,nan,nan,0.0,nan,nan,nan,nan,nan,nan,nan,nan,nan,nan,nan,nan,nan,nan,nan,nan,nan,nan,172.0195310729323,463.4316659059841,nan,463.73676529328804,nan,nan,nan,nan
1,185,1,1,1.0,1.0,0.3289440260268748,0,8,3,1,2,0,5,nan,nan,nan,nan,nan,nan,nan,nan,nan,nan,nan,nan,0.0,nan,nan,nan,nan,nan,nan,nan,nan,nan,nan,nan,nan,nan,nan,nan,nan,nan,nan,172.0195310729323,464.43180246895645,nan,464.7607464949833,nan,nan,nan,nan
1,186,1,1,1.0,1.0,0.38484390336088836,0,3,4,7,5,2,1,nan,nan,nan,nan,nan,nan,nan,nan,nan,nan,nan,nan,0.0,nan,nan,nan,nan,nan,nan,nan,nan,nan,nan,nan,nan,nan,nan,nan,nan,nan,nan,172.0195310729323,465.43190054339357,nan,465.81674444675446,nan,nan,nan,nan
1,187,1,1,1.0,1.0,0.42467439419124275,0,6,1,0,2,8,4,nan,nan,nan,nan,nan,nan,nan,nan,nan,nan,nan,nan,0.0,nan,nan,nan,nan,nan,nan,nan,nan,nan,nan,nan,nan,nan,nan,nan,nan,nan,nan,172.0195310729323,466.43207359919325,nan,466.8567479933845,nan,nan,nan,nan
1,188,1,1,1.0,1.0,0.528499896870926,0,2,0,5,7,6,1,nan,nan,nan,nan,nan,nan,nan,nan,nan,nan,nan,nan,0.0,nan,nan,nan,nan,nan,nan,nan,nan,nan,nan,nan,nan,nan,nan,nan,nan,nan,nan,172.0195310729323,467.4322238470195,nan,467.9607237438904,nan,nan,nan,nan
1,189,1,1,1.0,1.0,0.7436969339614734,0,4,7,1,3,5,2,nan,nan,nan,nan,nan,nan,nan,nan,nan,nan,nan,nan,0.0,nan,nan,nan,nan,nan,nan,nan,nan,nan,nan,nan,nan,nan,nan,nan,nan,nan,nan,172.0195310729323,468.44902394525707,nan,469.19272087921854,nan,nan,nan,nan
1,190,1,1,1.0,1.0,0.3835381445242092,0,7,6,5,1,0,8,nan,nan,nan,nan,nan,nan,nan,nan,nan,nan,nan,nan,0.0,nan,nan,nan,nan,nan,nan,nan,nan,nan,nan,nan,nan,nan,nan,nan,nan,nan,nan,172.0195310729323,469.44916107854806,nan,469.83269922307227,nan,nan,nan,nan
1,191,1,1,1.0,1.0,0.3833921733312309,0,5,1,6,2,4,0,nan,nan,nan,nan,nan,nan,nan,nan,nan,nan,nan,nan,0.0,nan,nan,nan,nan,nan,nan,nan,nan,nan,nan,nan,nan,nan,nan,nan,nan,nan,nan,172.0195310729323,470.44930847524665,nan,470.8327006485779,nan,nan,nan,nan
1,192,0,0,0.0,1.0,0.6712464209413156,0,4,2,1,7,6,3,nan,nan,nan,nan,nan,nan,nan,nan,nan,nan,nan,nan,0.0,nan,nan,nan,nan,nan,nan,nan,nan,nan,nan,nan,nan,nan,nan,nan,nan,nan,nan,172.0195310729323,471.44944589352235,nan,472.12069231446367,nan,nan,nan,nan
1,193,1,1,1.0,1.0,0.2871058597229421,0,7,4,5,2,3,0,nan,nan,nan,nan,nan,nan,nan,nan,nan,nan,nan,nan,0.0,nan,nan,nan,nan,nan,nan,nan,nan,nan,nan,nan,nan,nan,nan,nan,nan,nan,nan,172.0195310729323,472.4495704823639,nan,472.73667634208687,nan,nan,nan,nan
1,194,1,1,1.0,1.0,0.4069434438133612,0,4,3,2,0,1,7,nan,nan,nan,nan,nan,nan,nan,nan,nan,nan,nan,nan,0.0,nan,nan,nan,nan,nan,nan,nan,nan,nan,nan,nan,nan,nan,nan,nan,nan,nan,nan,172.0195310729323,473.4497238663025,nan,473.8566673101159,nan,nan,nan,nan
1,195,1,1,1.0,1.0,0.2948038496542722,0,5,2,0,3,6,8,nan,nan,nan,nan,nan,nan,nan,nan,nan,nan,nan,nan,0.0,nan,nan,nan,nan,nan,nan,nan,nan,nan,nan,nan,nan,nan,nan,nan,nan,nan,nan,172.0195310729323,474.44985814846586,nan,474.74466199812014,nan,nan,nan,nan
1,196,1,1,1.0,1.0,0.3346654163906351,0,0,5,1,8,4,2,nan,nan,nan,nan,nan,nan,nan,nan,nan,nan,nan,nan,0.0,nan,nan,nan,nan,nan,nan,nan,nan,nan,nan,nan,nan,nan,nan,nan,nan,nan,nan,172.0195310729323,475.4499861584045,nan,475.78465157479513,nan,nan,nan,nan
1,197,1,1,1.0,1.0,0.39052024798002094,0,8,4,5,0,3,7,nan,nan,nan,nan,nan,nan,nan,nan,nan,nan,nan,nan,0.0,nan,nan,nan,nan,nan,nan,nan,nan,nan,nan,nan,nan,nan,nan,nan,nan,nan,nan,172.0195310729323,476.4501224362757,nan,476.8406426842557,nan,nan,nan,nan
1,198,1,1,1.0,1.0,0.5983802317641675,0,4,5,3,8,0,1,nan,nan,nan,nan,nan,nan,nan,nan,nan,nan,nan,nan,0.0,nan,nan,nan,nan,nan,nan,nan,nan,nan,nan,nan,nan,nan,nan,nan,nan,nan,nan,172.0195310729323,477.4502438890049,nan,478.0486241207691,nan,nan,nan,nan
1,199,0,0,0.0,1.0,0.5822256002575159,0,8,1,6,3,2,7,nan,nan,nan,nan,nan,nan,nan,nan,nan,nan,nan,nan,0.0,nan,nan,nan,nan,nan,nan,nan,nan,nan,nan,nan,nan,nan,nan,nan,nan,nan,nan,172.0195310729323,478.4503910007188,nan,479.0326166009763,nan,nan,nan,nan
1,200,1,1,1.0,1.0,0.32606593961827457,0,2,7,8,5,0,4,nan,nan,nan,nan,nan,nan,nan,nan,nan,nan,nan,nan,0.0,nan,nan,nan,nan,nan,nan,nan,nan,nan,nan,nan,nan,nan,nan,nan,nan,nan,nan,172.0195310729323,479.45053383591585,nan,479.7765997755341,nan,nan,nan,nan
1,201,1,1,1.0,1.0,0.33393128344323486,0,6,3,5,8,2,7,nan,nan,nan,nan,nan,nan,nan,nan,nan,nan,nan,nan,0.0,nan,nan,nan,nan,nan,nan,nan,nan,nan,nan,nan,nan,nan,nan,nan,nan,nan,nan,172.0195310729323,480.45066754787695,nan,480.7845988313202,nan,nan,nan,nan
1,202,1,1,1.0,1.0,0.32578853715676814,0,2,6,1,4,5,3,nan,nan,nan,nan,nan,nan,nan,nan,nan,nan,nan,nan,0.0,nan,nan,nan,nan,nan,nan,nan,nan,nan,nan,nan,nan,nan,nan,nan,nan,nan,nan,172.0195310729323,481.4508069618605,nan,481.7765954990173,nan,nan,nan,nan
1,203,1,1,1.0,1.0,0.2696850983193144,0,1,0,6,5,7,8,nan,nan,nan,nan,nan,nan,nan,nan,nan,nan,nan,nan,0.0,nan,nan,nan,nan,nan,nan,nan,nan,nan,nan,nan,nan,nan,nan,nan,nan,nan,nan,172.0195310729323,482.45090532139875,nan,482.72059041971806,nan,nan,nan,nan
1,204,1,1,1.0,1.0,0.21350211650133133,0,2,6,7,1,3,0,nan,nan,nan,nan,nan,nan,nan,nan,nan,nan,nan,nan,0.0,nan,nan,nan,nan,nan,nan,nan,nan,nan,nan,nan,nan,nan,nan,nan,nan,nan,nan,172.0195310729323,483.4510766665917,nan,483.664578783093,nan,nan,nan,nan
1,205,1,1,1.0,1.0,0.18134652241133153,0,5,1,8,0,6,4,nan,nan,nan,nan,nan,nan,nan,nan,nan,nan,nan,nan,0.0,nan,nan,nan,nan,nan,nan,nan,nan,nan,nan,nan,nan,nan,nan,nan,nan,nan,nan,172.0195310729323,484.4512166507775,nan,484.6325631731888,nan,nan,nan,nan
1,206,1,1,1.0,1.0,0.24520326079800725,0,1,7,6,4,8,2,nan,nan,nan,nan,nan,nan,nan,nan,nan,nan,nan,nan,0.0,nan,nan,nan,nan,nan,nan,nan,nan,nan,nan,nan,nan,nan,nan,nan,nan,nan,nan,172.0195310729323,485.4513537839521,nan,485.6965570447501,nan,nan,nan,nan
1,207,1,1,1.0,1.0,0.22105613083112985,0,3,2,1,8,5,4,nan,nan,nan,nan,nan,nan,nan,nan,nan,nan,nan,nan,0.0,nan,nan,nan,nan,nan,nan,nan,nan,nan,nan,nan,nan,nan,nan,nan,nan,nan,nan,172.0195310729323,486.45148949162103,nan,486.67254562245216,nan,nan,nan,nan
1,208,1,1,1.0,1.0,0.3009118359768763,0,5,1,4,7,2,8,nan,nan,nan,nan,nan,nan,nan,nan,nan,nan,nan,nan,0.0,nan,nan,nan,nan,nan,nan,nan,nan,nan,nan,nan,nan,nan,nan,nan,nan,nan,nan,172.0195310729323,487.45163090131246,nan,487.75254273728933,nan,nan,nan,nan
1,209,1,1,1.0,1.0,0.29276139196008444,0,2,4,8,1,6,0,nan,nan,nan,nan,nan,nan,nan,nan,nan,nan,nan,nan,0.0,nan,nan,nan,nan,nan,nan,nan,nan,nan,nan,nan,nan,nan,nan,nan,nan,nan,nan,172.0195310729323,488.451772596105,nan,488.7445339880651,nan,nan,nan,nan
1,210,0,0,1.0,0.0,0.09261222754139453,0,7,6,3,0,8,1,nan,nan,nan,nan,nan,nan,nan,nan,nan,nan,nan,nan,0.0,nan,nan,nan,nan,nan,nan,nan,nan,nan,nan,nan,nan,nan,nan,nan,nan,nan,nan,172.0195310729323,489.4519185674144,nan,489.5445307949558,nan,nan,nan,nan
1,211,1,1,1.0,1.0,0.2524696091422811,0,4,7,5,6,1,0,nan,nan,nan,nan,nan,nan,nan,nan,nan,nan,nan,nan,0.0,nan,nan,nan,nan,nan,nan,nan,nan,nan,nan,nan,nan,nan,nan,nan,nan,nan,nan,172.0195310729323,490.45204942836426,nan,490.70451903750654,nan,nan,nan,nan
1,212,0,0,1.0,0.0,0.268324600183405,0,8,1,0,5,6,2,nan,nan,nan,nan,nan,nan,nan,nan,nan,nan,nan,nan,0.0,nan,nan,nan,nan,nan,nan,nan,nan,nan,nan,nan,nan,nan,nan,nan,nan,nan,nan,172.0195310729323,491.45218542125076,nan,491.72051002143417,nan,nan,nan,nan
1,213,1,1,1.0,1.0,0.5721658405382186,0,0,8,7,4,3,1,nan,nan,nan,nan,nan,nan,nan,nan,nan,nan,nan,nan,0.0,nan,nan,nan,nan,nan,nan,nan,nan,nan,nan,nan,nan,nan,nan,nan,nan,nan,nan,172.0195310729323,492.452312575886,nan,493.02447841642424,nan,nan,nan,nan
1,214,1,1,1.0,1.0,0.38002542522735894,0,3,0,2,1,6,8,nan,nan,nan,nan,nan,nan,nan,nan,nan,nan,nan,nan,0.0,nan,nan,nan,nan,nan,nan,nan,nan,nan,nan,nan,nan,nan,nan,nan,nan,nan,nan,172.0195310729323,493.4524522749707,nan,493.83247770019807,nan,nan,nan,nan
1,215,1,1,1.0,1.0,0.2838691173819825,0,7,1,6,2,8,5,nan,nan,nan,nan,nan,nan,nan,nan,nan,nan,nan,nan,0.0,nan,nan,nan,nan,nan,nan,nan,nan,nan,nan,nan,nan,nan,nan,nan,nan,nan,nan,172.0195310729323,494.4525993866846,nan,494.7364685040666,nan,nan,nan,nan
1,216,1,1,1.0,1.0,0.2917418737197295,0,6,7,1,3,2,0,nan,nan,nan,nan,nan,nan,nan,nan,nan,nan,nan,nan,0.0,nan,nan,nan,nan,nan,nan,nan,nan,nan,nan,nan,nan,nan,nan,nan,nan,nan,nan,172.0195310729323,495.45272026909515,nan,495.7444621428149,nan,nan,nan,nan
1,217,1,1,1.0,1.0,0.2595851393416524,1,2,1,3,4,6,8,1.0,1.0,1.0,1.0,1.0,1.0,1.0,0.0,1.0,0.0,1.0,0.0,3.0,2.0,5.0,3.0,8.0,6.0,1.0,3.0,2.0,1.0,6.0,5.0,4.0,4.7431857492774725,3.8713907385244966,2.19358786882367,8.495200195815414,7.2067817349452525,5.743857160210609,172.0195310729323,496.4528645297978,497.2612866172567,496.71244966913946,506.804276160663,507.8083242981229,498.26977576024365,506.7959190190304
1,218,1,1,1.0,1.0,0.40358268294949085,0,8,5,7,1,3,6,nan,nan,nan,nan,nan,nan,nan,nan,nan,nan,nan,nan,0.0,nan,nan,nan,nan,nan,nan,nan,nan,nan,nan,nan,nan,nan,nan,nan,nan,nan,nan,172.0195310729323,508.0127790453844,nan,508.41636172833387,nan,nan,nan,nan
1,219,1,1,1.0,1.0,0.3714205316500738,1,7,4,0,6,2,5,1.0,1.0,1.0,1.0,1.0,1.0,1.0,1.0,1.0,0.0,0.0,0.0,3.0,7.0,4.0,0.0,2.0,5.0,6.0,3.0,2.0,1.0,6.0,5.0,4.0,3.343299675383605,2.4872715598903596,1.6415791813051328,5.99085056502372,5.407595467870124,4.5509409874212,172.0195310729323,509.0129133275477,509.82134852954186,509.3843338591978,516.8556369580328,517.8546282736352,510.82977979723364,516.847304620198
1,220,0,0,1.0,0.0,0.6484261472942308,0,3,6,2,5,8,0,nan,nan,nan,nan,nan,nan,nan,nan,nan,nan,nan,nan,0.0,nan,nan,nan,nan,nan,nan,nan,nan,nan,nan,nan,nan,nan,nan,nan,nan,nan,nan,172.0195310729323,518.0558391510276,nan,518.7042652983218,nan,nan,nan,nan
1,221,1,1,1.0,1.0,0.4162761982297525,0,1,8,6,3,0,4,nan,nan,nan,nan,nan,nan,nan,nan,nan,nan,nan,nan,0.0,nan,nan,nan,nan,nan,nan,nan,nan,nan,nan,nan,nan,nan,nan,nan,nan,nan,nan,172.0195310729323,519.0559665908804,nan,519.4722427891102,nan,nan,nan,nan
1,222,1,1,1.0,1.0,0.28014456864912063,0,7,0,3,8,6,5,nan,nan,nan,nan,nan,nan,nan,nan,nan,nan,nan,nan,0.0,nan,nan,nan,nan,nan,nan,nan,nan,nan,nan,nan,nan,nan,nan,nan,nan,nan,nan,172.0195310729323,520.0560954561224,nan,520.3362400247715,nan,nan,nan,nan
1,223,1,1,1.0,1.0,0.2800114268902689,0,5,3,6,2,8,4,nan,nan,nan,nan,nan,nan,nan,nan,nan,nan,nan,nan,0.0,nan,nan,nan,nan,nan,nan,nan,nan,nan,nan,nan,nan,nan,nan,nan,nan,nan,nan,172.0195310729323,521.0562328743981,nan,521.3362443012884,nan,nan,nan,nan
1,224,1,1,1.0,1.0,0.29583819315303117,0,8,7,2,1,6,5,nan,nan,nan,nan,nan,nan,nan,nan,nan,nan,nan,nan,0.0,nan,nan,nan,nan,nan,nan,nan,nan,nan,nan,nan,nan,nan,nan,nan,nan,nan,nan,172.0195310729323,522.0563742840895,nan,522.3522124772426,nan,nan,nan,nan
1,225,1,1,1.0,1.0,0.29572044673841447,0,3,8,4,6,0,1,nan,nan,nan,nan,nan,nan,nan,nan,nan,nan,nan,nan,0.0,nan,nan,nan,nan,nan,nan,nan,nan,nan,nan,nan,nan,nan,nan,nan,nan,nan,nan,172.0195310729323,523.0564760648413,nan,523.3521965115797,nan,nan,nan,nan
1,226,1,1,1.0,1.0,0.2875409226398915,0,0,4,5,7,3,8,nan,nan,nan,nan,nan,nan,nan,nan,nan,nan,nan,nan,0.0,nan,nan,nan,nan,nan,nan,nan,nan,nan,nan,nan,nan,nan,nan,nan,nan,nan,nan,172.0195310729323,524.0566491206409,nan,524.3441900432808,nan,nan,nan,nan
1,227,1,1,1.0,1.0,0.27139740996062756,0,5,1,4,6,7,0,nan,nan,nan,nan,nan,nan,nan,nan,nan,nan,nan,nan,0.0,nan,nan,nan,nan,nan,nan,nan,nan,nan,nan,nan,nan,nan,nan,nan,nan,nan,nan,172.0195310729323,525.0567845433252,nan,525.3281819532858,nan,nan,nan,nan
1,228,1,1,1.0,1.0,0.2952597248367965,0,7,2,6,8,3,5,nan,nan,nan,nan,nan,nan,nan,nan,nan,nan,nan,nan,0.0,nan,nan,nan,nan,nan,nan,nan,nan,nan,nan,nan,nan,nan,nan,nan,nan,nan,nan,172.0195310729323,526.0569196807919,nan,526.3521794056287,nan,nan,nan,nan
1,229,1,1,1.0,1.0,0.23911181022413075,0,2,4,1,7,5,8,nan,nan,nan,nan,nan,nan,nan,nan,nan,nan,nan,nan,0.0,nan,nan,nan,nan,nan,nan,nan,nan,nan,nan,nan,nan,nan,nan,nan,nan,nan,nan,172.0195310729323,527.05706023518,nan,527.2961720454041,nan,nan,nan,nan
1,230,1,1,1.0,1.0,0.17495714232791215,1,1,6,7,5,0,3,1.0,1.0,1.0,1.0,1.0,1.0,0.0,0.0,0.0,0.0,0.0,0.0,0.0,6.0,2.0,1.0,8.0,5.0,8.0,3.0,4.0,5.0,6.0,1.0,2.0,4.067822766839527,5.15396407560911,6.266396182589233,8.041950780781917,1.9169104035245255,3.1221819628262892,172.0195310729323,528.0571959428489,528.8656200258993,528.2321530851768,537.966867367737,538.9768547121203,529.8824281070847,537.9585390213178
1,231,1,1,1.0,1.0,0.5683343791170046,0,2,0,1,4,7,6,nan,nan,nan,nan,nan,nan,nan,nan,nan,nan,nan,nan,0.0,nan,nan,nan,nan,nan,nan,nan,nan,nan,nan,nan,nan,nan,nan,nan,nan,nan,nan,172.0195310729323,539.1837265387876,nan,539.7520609179046,nan,nan,nan,nan
1,232,1,1,1.0,1.0,0.6481915097683668,0,1,5,3,7,0,2,nan,nan,nan,nan,nan,nan,nan,nan,nan,nan,nan,nan,0.0,nan,nan,nan,nan,nan,nan,nan,nan,nan,nan,nan,nan,nan,nan,nan,nan,nan,nan,172.0195310729323,540.1838591103442,nan,540.8320506201126,nan,nan,nan,nan
1,233,1,1,1.0,1.0,0.568018488236703,0,5,1,2,8,4,3,nan,nan,nan,nan,nan,nan,nan,nan,nan,nan,nan,nan,0.0,nan,nan,nan,nan,nan,nan,nan,nan,nan,nan,nan,nan,nan,nan,nan,nan,nan,nan,172.0195310729323,541.1840045114513,nan,541.752022999688,nan,nan,nan,nan
1,234,1,1,1.0,1.0,0.47188755427487195,0,8,5,0,4,6,1,nan,nan,nan,nan,nan,nan,nan,nan,nan,nan,nan,nan,0.0,nan,nan,nan,nan,nan,nan,nan,nan,nan,nan,nan,nan,nan,nan,nan,nan,nan,nan,172.0195310729323,542.1841405042214,nan,542.6560280584963,nan,nan,nan,nan
1,235,1,1,1.0,1.0,0.48772743507288396,0,0,7,4,1,8,2,nan,nan,nan,nan,nan,nan,nan,nan,nan,nan,nan,nan,0.0,nan,nan,nan,nan,nan,nan,nan,nan,nan,nan,nan,nan,nan,nan,nan,nan,nan,nan,172.0195310729323,543.1842993050814,nan,543.6720267401543,nan,nan,nan,nan
1,236,1,1,1.0,1.0,0.3835937390103936,0,1,8,3,4,5,0,nan,nan,nan,nan,nan,nan,nan,nan,nan,nan,nan,nan,0.0,nan,nan,nan,nan,nan,nan,nan,nan,nan,nan,nan,nan,nan,nan,nan,nan,nan,nan,172.0195310729323,544.1844073580578,nan,544.5680010970682,nan,nan,nan,nan
1,237,1,1,1.0,1.0,0.32744553941302,0,8,0,2,5,6,7,nan,nan,nan,nan,nan,nan,nan,nan,nan,nan,nan,nan,0.0,nan,nan,nan,nan,nan,nan,nan,nan,nan,nan,nan,nan,nan,nan,nan,nan,nan,nan,172.0195310729323,545.1845442061312,nan,545.5119897455443,nan,nan,nan,nan
1,238,1,1,1.0,1.0,0.1352979966904968,0,3,6,1,8,5,2,nan,nan,nan,nan,nan,nan,nan,nan,nan,nan,nan,nan,0.0,nan,nan,nan,nan,nan,nan,nan,nan,nan,nan,nan,nan,nan,nan,nan,nan,nan,nan,172.0195310729323,546.1846839052159,nan,546.3199819019064,nan,nan,nan,nan
1,239,1,1,1.0,1.0,0.03914995666127652,0,8,5,6,3,1,4,nan,nan,nan,nan,nan,nan,nan,nan,nan,nan,nan,nan,0.0,nan,nan,nan,nan,nan,nan,nan,nan,nan,nan,nan,nan,nan,nan,nan,nan,nan,nan,172.0195310729323,547.184822178795,nan,547.2239721354563,nan,nan,nan,nan
1,240,1,1,nan,nan,nan,0,7,0,3,8,4,1,nan,nan,nan,nan,nan,nan,nan,nan,nan,nan,nan,nan,0.0,nan,nan,nan,nan,nan,nan,nan,nan,nan,nan,nan,nan,nan,nan,nan,nan,nan,nan,172.0195310729323,548.1849550354527,nan,nan,nan,nan,nan,nan
1,241,0,0,1.0,0.0,0.006888590520247817,0,0,4,6,3,7,5,nan,nan,nan,nan,nan,nan,nan,nan,nan,nan,nan,nan,0.0,nan,nan,nan,nan,nan,nan,nan,nan,nan,nan,nan,nan,nan,nan,nan,nan,nan,nan,172.0195310729323,549.1850978706498,nan,549.19198646117,nan,nan,nan,nan
1,242,1,1,1.0,1.0,0.32671425747685134,1,5,2,0,8,4,7,1.0,1.0,1.0,1.0,1.0,1.0,0.0,0.0,0.0,0.0,0.0,1.0,1.0,2.0,0.0,5.0,6.0,8.0,7.0,6.0,5.0,4.0,2.0,3.0,1.0,8.345530299120583,7.0259783283108845,5.59363160317298,3.1957694554002956,4.329574382514693,2.0429349467158318,172.0195310729323,550.1852196084801,550.9936630782904,550.511933865957,560.4032819021959,561.409474848304,552.0188091993332,560.3949515600689
1,243,1,1,1.0,1.0,0.6440279068192467,0,7,3,8,6,0,5,nan,nan,nan,nan,nan,nan,nan,nan,nan,nan,nan,nan,0.0,nan,nan,nan,nan,nan,nan,nan,nan,nan,nan,nan,nan,nan,nan,nan,nan,nan,nan,172.0195310729323,561.6118033184903,nan,562.2558312253095,nan,nan,nan,nan
1,244,1,1,1.0,1.0,0.3159252112964168,0,0,7,5,4,1,8,nan,nan,nan,nan,nan,nan,nan,nan,nan,nan,nan,nan,0.0,nan,nan,nan,nan,nan,nan,nan,nan,nan,nan,nan,nan,nan,nan,nan,nan,nan,nan,172.0195310729323,562.611897116527,nan,562.9278223278234,nan,nan,nan,nan
1,245,1,1,1.0,1.0,0.29174700553994626,0,2,1,0,5,4,7,nan,nan,nan,nan,nan,nan,nan,nan,nan,nan,nan,nan,0.0,nan,nan,nan,nan,nan,nan,nan,nan,nan,nan,nan,nan,nan,nan,nan,nan,nan,nan,172.0195310729323,563.6120724531356,nan,563.9038194586756,nan,nan,nan,nan
1,246,1,1,1.0,1.0,0.28324902441818267,0,1,4,8,7,0,5,nan,nan,nan,nan,nan,nan,nan,nan,nan,nan,nan,nan,0.0,nan,nan,nan,nan,nan,nan,nan,nan,nan,nan,nan,nan,nan,nan,nan,nan,nan,nan,172.0195310729323,564.6205524728866,nan,564.9038014973048,nan,nan,nan,nan
1,247,1,1,1.0,1.0,0.37110635126009583,0,2,5,1,0,6,3,nan,nan,nan,nan,nan,nan,nan,nan,nan,nan,nan,nan,0.0,nan,nan,nan,nan,nan,nan,nan,nan,nan,nan,nan,nan,nan,nan,nan,nan,nan,nan,172.0195310729323,565.6206827636342,nan,565.9917891148943,nan,nan,nan,nan
1,248,0,0,1.0,0.0,0.27496828977018595,0,3,7,2,6,8,0,nan,nan,nan,nan,nan,nan,nan,nan,nan,nan,nan,nan,0.0,nan,nan,nan,nan,nan,nan,nan,nan,nan,nan,nan,nan,nan,nan,nan,nan,nan,nan,172.0195310729323,566.6208170457976,nan,566.8957853355678,nan,nan,nan,nan
1,249,1,1,1.0,1.0,0.07486160530243069,0,1,3,6,4,2,5,nan,nan,nan,nan,nan,nan,nan,nan,nan,nan,nan,nan,0.0,nan,nan,nan,nan,nan,nan,nan,nan,nan,nan,nan,nan,nan,nan,nan,nan,nan,nan,172.0195310729323,567.6209233881673,nan,567.6957849934697,nan,nan,nan,nan
1,250,1,1,nan,nan,nan,0,6,2,4,7,8,3,nan,nan,nan,nan,nan,nan,nan,nan,nan,nan,nan,nan,0.0,nan,nan,nan,nan,nan,nan,nan,nan,nan,nan,nan,nan,nan,nan,nan,nan,nan,nan,172.0195310729323,568.6210938780569,nan,nan,nan,nan,nan,nan
1,251,1,1,1.0,1.0,0.6905442819697782,0,0,5,1,2,4,8,nan,nan,nan,nan,nan,nan,nan,nan,nan,nan,nan,nan,0.0,nan,nan,nan,nan,nan,nan,nan,nan,nan,nan,nan,nan,nan,nan,nan,nan,nan,nan,172.0195310729323,569.6211967992131,nan,570.3117410811828,nan,nan,nan,nan
1,252,1,1,1.0,1.0,0.4263735911808908,0,1,2,7,0,5,4,nan,nan,nan,nan,nan,nan,nan,nan,nan,nan,nan,nan,0.0,nan,nan,nan,nan,nan,nan,nan,nan,nan,nan,nan,nan,nan,nan,nan,nan,nan,nan,172.0195310729323,570.621369570028,nan,571.0477431612089,nan,nan,nan,nan
1,253,1,1,1.0,1.0,0.218238485744223,0,0,6,1,3,2,7,nan,nan,nan,nan,nan,nan,nan,nan,nan,nan,nan,nan,0.0,nan,nan,nan,nan,nan,nan,nan,nan,nan,nan,nan,nan,nan,nan,nan,nan,nan,nan,172.0195310729323,571.6215055627981,nan,571.8397440485423,nan,nan,nan,nan
1,254,1,1,1.0,1.0,0.1461038637207821,0,4,7,2,8,6,3,nan,nan,nan,nan,nan,nan,nan,nan,nan,nan,nan,nan,0.0,nan,nan,nan,nan,nan,nan,nan,nan,nan,nan,nan,nan,nan,nan,nan,nan,nan,nan,172.0195310729323,572.621638704557,nan,572.7677425682778,nan,nan,nan,nan
1,255,1,1,nan,nan,nan,0,6,1,7,3,2,5,nan,nan,nan,nan,nan,nan,nan,nan,nan,nan,nan,nan,0.0,nan,nan,nan,nan,nan,nan,nan,nan,nan,nan,nan,nan,nan,nan,nan,nan,nan,nan,172.0195310729323,573.6634811473778,nan,nan,nan,nan,nan,nan
1,256,1,1,nan,nan,nan,0,8,7,1,6,5,4,nan,nan,nan,nan,nan,nan,nan,nan,nan,nan,nan,nan,0.0,nan,nan,nan,nan,nan,nan,nan,nan,nan,nan,nan,nan,nan,nan,nan,nan,nan,nan,172.0195310729323,574.663593476871,nan,nan,nan,nan,nan,nan
1,257,1,1,nan,nan,nan,0,5,8,4,0,1,7,nan,nan,nan,nan,nan,nan,nan,nan,nan,nan,nan,nan,0.0,nan,nan,nan,nan,nan,nan,nan,nan,nan,nan,nan,nan,nan,nan,nan,nan,nan,nan,172.0195310729323,575.6637120784726,nan,nan,nan,nan,nan,nan
1,258,1,1,1.0,1.0,0.30384722736198455,0,6,7,3,1,4,2,nan,nan,nan,nan,nan,nan,nan,nan,nan,nan,nan,nan,0.0,nan,nan,nan,nan,nan,nan,nan,nan,nan,nan,nan,nan,nan,nan,nan,nan,nan,nan,172.0195310729323,576.6638668879168,nan,576.9677141152788,nan,nan,nan,nan
1,259,1,1,1.0,1.0,0.287687178933993,0,3,4,1,2,0,5,nan,nan,nan,nan,nan,nan,nan,nan,nan,nan,nan,nan,0.0,nan,nan,nan,nan,nan,nan,nan,nan,nan,nan,nan,nan,nan,nan,nan,nan,nan,nan,172.0195310729323,577.664000884979,nan,577.951688063913,nan,nan,nan,nan
1,260,1,1,1.0,1.0,0.16752572101540864,0,8,6,7,3,1,2,nan,nan,nan,nan,nan,nan,nan,nan,nan,nan,nan,nan,0.0,nan,nan,nan,nan,nan,nan,nan,nan,nan,nan,nan,nan,nan,nan,nan,nan,nan,nan,172.0195310729323,578.6641502775019,nan,578.8316759985173,nan,nan,nan,nan
1,261,1,1,1.0,1.0,0.24737857514992356,0,1,4,2,8,0,6,nan,nan,nan,nan,nan,nan,nan,nan,nan,nan,nan,nan,0.0,nan,nan,nan,nan,nan,nan,nan,nan,nan,nan,nan,nan,nan,nan,nan,nan,nan,nan,172.0195310729323,579.6642894063843,nan,579.9116679815343,nan,nan,nan,nan
1,262,0,0,1.0,0.0,0.2232368621043861,0,5,3,4,0,1,2,nan,nan,nan,nan,nan,nan,nan,nan,nan,nan,nan,nan,0.0,nan,nan,nan,nan,nan,nan,nan,nan,nan,nan,nan,nan,nan,nan,nan,nan,nan,nan,172.0195310729323,580.6644185567275,nan,580.8876554188319,nan,nan,nan,nan
1,263,1,1,1.0,1.0,0.0630778445629403,0,4,1,6,3,8,7,nan,nan,nan,nan,nan,nan,nan,nan,nan,nan,nan,nan,0.0,nan,nan,nan,nan,nan,nan,nan,nan,nan,nan,nan,nan,nan,nan,nan,nan,nan,nan,172.0195310729323,581.6645628174301,nan,581.7276406619931,nan,nan,nan,nan
1,264,1,1,1.0,1.0,0.26294675562530756,0,1,8,5,2,4,0,nan,nan,nan,nan,nan,nan,nan,nan,nan,nan,nan,nan,0.0,nan,nan,nan,nan,nan,nan,nan,nan,nan,nan,nan,nan,nan,nan,nan,nan,nan,nan,172.0195310729323,582.6646888316609,nan,582.9276355872862,nan,nan,nan,nan
1,265,1,1,1.0,1.0,0.342803600942716,0,0,7,3,8,2,6,nan,nan,nan,nan,nan,nan,nan,nan,nan,nan,nan,nan,0.0,nan,nan,nan,nan,nan,nan,nan,nan,nan,nan,nan,nan,nan,nan,nan,nan,nan,nan,172.0195310729323,583.6648282457609,nan,584.0076318467036,nan,nan,nan,nan
1,266,1,1,1.0,1.0,0.31867614295333624,0,2,8,1,7,4,0,nan,nan,nan,nan,nan,nan,nan,nan,nan,nan,nan,nan,0.0,nan,nan,nan,nan,nan,nan,nan,nan,nan,nan,nan,nan,nan,nan,nan,nan,nan,nan,172.0195310729323,584.6649625279242,nan,584.9836386708776,nan,nan,nan,nan
1,267,1,1,1.0,1.0,0.3264910241123289,0,6,2,5,4,0,8,nan,nan,nan,nan,nan,nan,nan,nan,nan,nan,nan,nan,0.0,nan,nan,nan,nan,nan,nan,nan,nan,nan,nan,nan,nan,nan,nan,nan,nan,nan,nan,172.0195310729323,585.665112775634,nan,585.9916037997464,nan,nan,nan,nan
1,268,1,1,1.0,1.0,0.24638157978188246,0,0,7,1,8,5,4,nan,nan,nan,nan,nan,nan,nan,nan,nan,nan,nan,nan,0.0,nan,nan,nan,nan,nan,nan,nan,nan,nan,nan,nan,nan,nan,nan,nan,nan,nan,nan,172.0195310729323,586.6652308071498,nan,586.9116123869317,nan,nan,nan,nan
1,269,1,1,1.0,1.0,0.18221949925646186,0,7,3,5,1,0,6,nan,nan,nan,nan,nan,nan,nan,nan,nan,nan,nan,nan,0.0,nan,nan,nan,nan,nan,nan,nan,nan,nan,nan,nan,nan,nan,nan,nan,nan,nan,nan,172.0195310729323,587.6653667999199,nan,587.8475862991763,nan,nan,nan,nan
1,270,1,1,1.0,1.0,0.3181304612662643,0,2,6,7,5,1,3,nan,nan,nan,nan,nan,nan,nan,nan,nan,nan,nan,nan,0.0,nan,nan,nan,nan,nan,nan,nan,nan,nan,nan,nan,nan,nan,nan,nan,nan,nan,nan,172.0195310729323,588.6654731422896,nan,588.9836036035558,nan,nan,nan,nan
1,271,1,1,1.0,1.0,0.4219305900624022,1,4,1,8,3,2,7,1.0,1.0,1.0,1.0,1.0,1.0,1.0,0.0,1.0,0.0,1.0,1.0,4.0,4.0,0.0,8.0,1.0,2.0,7.0,1.0,6.0,5.0,4.0,3.0,2.0,1.4991434165276587,6.481302417465486,5.433131605852395,4.7936045756796375,3.658598521607928,2.834292647894472,172.0195310729323,589.6656490491005,590.4740742726717,590.0875796391629,598.000097789336,599.0051489092875,591.4825511563104,597.9917714386247
1,272,1,1,1.0,1.0,0.3108638279372826,0,1,3,6,7,5,4,nan,nan,nan,nan,nan,nan,nan,nan,nan,nan,nan,nan,0.0,nan,nan,nan,nan,nan,nan,nan,nan,nan,nan,nan,nan,nan,nan,nan,nan,nan,nan,172.0195310729323,599.2086351712933,nan,599.5194989992306,nan,nan,nan,nan
1,273,1,1,1.0,1.0,0.3187043679645285,0,8,2,7,6,4,1,nan,nan,nan,nan,nan,nan,nan,nan,nan,nan,nan,nan,0.0,nan,nan,nan,nan,nan,nan,nan,nan,nan,nan,nan,nan,nan,nan,nan,nan,nan,nan,172.0195310729323,600.2087700236589,nan,600.5274743916234,nan,nan,nan,nan
1,274,1,1,1.0,1.0,0.6385613958118483,0,0,7,3,1,6,5,nan,nan,nan,nan,nan,nan,nan,nan,nan,nan,nan,nan,0.0,nan,nan,nan,nan,nan,nan,nan,nan,nan,nan,nan,nan,nan,nan,nan,nan,nan,nan,172.0195310729323,601.2088980337139,nan,601.8474594295258,nan,nan,nan,nan
1,275,1,1,1.0,1.0,0.3584479031851515,0,6,3,2,8,7,1,nan,nan,nan,nan,nan,nan,nan,nan,nan,nan,nan,nan,0.0,nan,nan,nan,nan,nan,nan,nan,nan,nan,nan,nan,nan,nan,nan,nan,nan,nan,nan,172.0195310729323,602.2089972485555,nan,602.5674451517407,nan,nan,nan,nan
1,276,1,1,1.0,1.0,0.3102708194637671,0,5,2,7,1,0,3,nan,nan,nan,nan,nan,nan,nan,nan,nan,nan,nan,nan,0.0,nan,nan,nan,nan,nan,nan,nan,nan,nan,nan,nan,nan,nan,nan,nan,nan,nan,nan,172.0195310729323,603.2091714447597,nan,603.5194422642235,nan,nan,nan,nan
1,277,1,1,1.0,1.0,0.3341137475799769,0,4,8,6,7,1,0,nan,nan,nan,nan,nan,nan,nan,nan,nan,nan,nan,nan,0.0,nan,nan,nan,nan,nan,nan,nan,nan,nan,nan,nan,nan,nan,nan,nan,nan,nan,nan,172.0195310729323,604.2093114289455,nan,604.5434251765255,nan,nan,nan,nan
1,278,1,1,1.0,1.0,0.21398108475841582,0,6,0,3,2,8,5,nan,nan,nan,nan,nan,nan,nan,nan,nan,nan,nan,nan,0.0,nan,nan,nan,nan,nan,nan,nan,nan,nan,nan,nan,nan,nan,nan,nan,nan,nan,nan,172.0195310729323,605.2094499876257,nan,605.4234310723841,nan,nan,nan,nan
1,279,1,1,1.0,1.0,0.06182967603672296,0,3,8,6,1,2,7,nan,nan,nan,nan,nan,nan,nan,nan,nan,nan,nan,nan,0.0,nan,nan,nan,nan,nan,nan,nan,nan,nan,nan,nan,nan,nan,nan,nan,nan,nan,nan,172.0195310729323,606.2095854101935,nan,606.2714150862303,nan,nan,nan,nan
1,280,1,1,nan,nan,nan,0,4,0,1,8,6,5,nan,nan,nan,nan,nan,nan,nan,nan,nan,nan,nan,nan,0.0,nan,nan,nan,nan,nan,nan,nan,nan,nan,nan,nan,nan,nan,nan,nan,nan,nan,nan,172.0195310729323,607.209719977458,nan,nan,nan,nan,nan,nan
1,281,1,1,1.0,1.0,0.13356059626676142,0,7,6,4,3,5,0,nan,nan,nan,nan,nan,nan,nan,nan,nan,nan,nan,nan,0.0,nan,nan,nan,nan,nan,nan,nan,nan,nan,nan,nan,nan,nan,nan,nan,nan,nan,nan,172.0195310729323,608.2098596765427,nan,608.3434202728095,nan,nan,nan,nan
1,282,0,0,1.0,0.0,0.20539073122199625,0,4,5,2,7,6,3,nan,nan,nan,nan,nan,nan,nan,nan,nan,nan,nan,nan,0.0,nan,nan,nan,nan,nan,nan,nan,nan,nan,nan,nan,nan,nan,nan,nan,nan,nan,nan,172.0195310729323,609.2099973799195,nan,609.4153881111415,nan,nan,nan,nan
1,283,1,1,1.0,1.0,0.20522793906275183,0,2,1,0,6,5,7,nan,nan,nan,nan,nan,nan,nan,nan,nan,nan,nan,nan,0.0,nan,nan,nan,nan,nan,nan,nan,nan,nan,nan,nan,nan,nan,nan,nan,nan,nan,nan,172.0195310729323,610.2101524744648,nan,610.4153804135276,nan,nan,nan,nan
1,284,0,0,1.0,0.0,0.24516021052841097,0,4,2,7,3,8,6,nan,nan,nan,nan,nan,nan,nan,nan,nan,nan,nan,nan,0.0,nan,nan,nan,nan,nan,nan,nan,nan,nan,nan,nan,nan,nan,nan,nan,nan,nan,nan,172.0195310729323,611.2102710761828,nan,611.4554312867112,nan,nan,nan,nan
1,285,1,1,1.0,1.0,0.11693754512816668,0,6,0,8,5,3,1,nan,nan,nan,nan,nan,nan,nan,nan,nan,nan,nan,nan,0.0,nan,nan,nan,nan,nan,nan,nan,nan,nan,nan,nan,nan,nan,nan,nan,nan,nan,nan,172.0195310729323,612.2104233196005,nan,612.3273608647287,nan,nan,nan,nan
1,286,1,1,1.0,1.0,0.3168036050628871,0,4,8,2,3,6,5,nan,nan,nan,nan,nan,nan,nan,nan,nan,nan,nan,nan,0.0,nan,nan,nan,nan,nan,nan,nan,nan,nan,nan,nan,nan,nan,nan,nan,nan,nan,nan,172.0195310729323,613.2105464829365,nan,613.5273500879994,nan,nan,nan,nan
1,287,1,1,1.0,1.0,0.24465529818553478,0,7,2,3,1,5,6,nan,nan,nan,nan,nan,nan,nan,nan,nan,nan,nan,nan,0.0,nan,nan,nan,nan,nan,nan,nan,nan,nan,nan,nan,nan,nan,nan,nan,nan,nan,nan,172.0195310729323,614.2106827608077,nan,614.4553380589932,nan,nan,nan,nan
1,288,1,1,1.0,1.0,0.3245064417133108,0,8,0,6,3,1,7,nan,nan,nan,nan,nan,nan,nan,nan,nan,nan,nan,nan,0.0,nan,nan,nan,nan,nan,nan,nan,nan,nan,nan,nan,nan,nan,nan,nan,nan,nan,nan,172.0195310729323,615.2108196088811,nan,615.5353260505944,nan,nan,nan,nan
1,289,1,1,1.0,1.0,0.30036643927451223,0,7,3,5,2,8,1,nan,nan,nan,nan,nan,nan,nan,nan,nan,nan,nan,nan,0.0,nan,nan,nan,nan,nan,nan,nan,nan,nan,nan,nan,nan,nan,nan,nan,nan,nan,nan,172.0195310729323,616.2109581675613,nan,616.5113246068358,nan,nan,nan,nan
1,290,1,1,1.0,1.0,0.20421982475090772,0,8,6,1,7,4,2,nan,nan,nan,nan,nan,nan,nan,nan,nan,nan,nan,nan,0.0,nan,nan,nan,nan,nan,nan,nan,nan,nan,nan,nan,nan,nan,nan,nan,nan,nan,nan,172.0195310729323,617.2110984368483,nan,617.4153182615992,nan,nan,nan,nan
1,291,0,0,nan,nan,nan,0,5,2,7,6,8,0,nan,nan,nan,nan,nan,nan,nan,nan,nan,nan,nan,nan,0.0,nan,nan,nan,nan,nan,nan,nan,nan,nan,nan,nan,nan,nan,nan,nan,nan,nan,nan,172.0195310729323,618.2112307233037,nan,nan,nan,nan,nan,nan
1,292,1,1,1.0,1.0,0.4919132759096101,0,0,5,4,2,1,8,nan,nan,nan,nan,nan,nan,nan,nan,nan,nan,nan,nan,0.0,nan,nan,nan,nan,nan,nan,nan,nan,nan,nan,nan,nan,nan,nan,nan,nan,nan,nan,172.0195310729323,619.2113943708828,nan,619.7033076467924,nan,nan,nan,nan
1,293,1,1,1.0,1.0,0.3237728789681569,0,5,0,6,1,2,7,nan,nan,nan,nan,nan,nan,nan,nan,nan,nan,nan,nan,0.0,nan,nan,nan,nan,nan,nan,nan,nan,nan,nan,nan,nan,nan,nan,nan,nan,nan,nan,172.0195310729323,620.2115064151585,nan,620.5352792941267,nan,nan,nan,nan
1,294,1,1,1.0,1.0,0.24366856645792723,0,6,3,4,0,8,2,nan,nan,nan,nan,nan,nan,nan,nan,nan,nan,nan,nan,0.0,nan,nan,nan,nan,nan,nan,nan,nan,nan,nan,nan,nan,nan,nan,nan,nan,nan,nan,172.0195310729323,621.2116099066334,nan,621.4552784730913,nan,nan,nan,nan
1,295,0,0,0.0,1.0,0.4034786212723702,0,4,6,8,3,0,1,nan,nan,nan,nan,nan,nan,nan,nan,nan,nan,nan,nan,0.0,nan,nan,nan,nan,nan,nan,nan,nan,nan,nan,nan,nan,nan,nan,nan,nan,nan,nan,172.0195310729323,622.2117789710173,nan,622.6152575922897,nan,nan,nan,nan
1,296,1,1,1.0,1.0,0.27533065201714635,0,0,4,3,7,2,6,nan,nan,nan,nan,nan,nan,nan,nan,nan,nan,nan,nan,0.0,nan,nan,nan,nan,nan,nan,nan,nan,nan,nan,nan,nan,nan,nan,nan,nan,nan,nan,172.0195310729323,623.2119215211133,nan,623.4872521731304,nan,nan,nan,nan
1,297,1,1,1.0,1.0,0.33119204093236476,0,1,3,6,0,4,5,nan,nan,nan,nan,nan,nan,nan,nan,nan,nan,nan,nan,0.0,nan,nan,nan,nan,nan,nan,nan,nan,nan,nan,nan,nan,nan,nan,nan,nan,nan,nan,172.0195310729323,624.2120563734788,nan,624.5432484144112,nan,nan,nan,nan
1,298,1,1,1.0,1.0,0.27504241571296006,0,7,8,2,1,0,4,nan,nan,nan,nan,nan,nan,nan,nan,nan,nan,nan,nan,0.0,nan,nan,nan,nan,nan,nan,nan,nan,nan,nan,nan,nan,nan,nan,nan,nan,nan,nan,172.0195310729323,625.2122006341815,nan,625.4872430498945,nan,nan,nan,nan
1,299,1,1,1.0,1.0,0.2909033941105008,0,8,0,6,3,1,5,nan,nan,nan,nan,nan,nan,nan,nan,nan,nan,nan,nan,0.0,nan,nan,nan,nan,nan,nan,nan,nan,nan,nan,nan,nan,nan,nan,nan,nan,nan,nan,172.0195310729323,626.2123277888168,nan,626.5032311829273,nan,nan,nan,nan
1,300,1,1,1.0,1.0,0.24275139917153865,0,6,7,3,8,4,0,nan,nan,nan,nan,nan,nan,nan,nan,nan,nan,nan,nan,0.0,nan,nan,nan,nan,nan,nan,nan,nan,nan,nan,nan,nan,nan,nan,nan,nan,nan,nan,172.0195310729323,627.2124706240138,nan,627.4552220231853,nan,nan,nan,nan
1,301,1,1,1.0,1.0,0.26660116959828883,0,4,3,6,1,5,2,nan,nan,nan,nan,nan,nan,nan,nan,nan,nan,nan,nan,0.0,nan,nan,nan,nan,nan,nan,nan,nan,nan,nan,nan,nan,nan,nan,nan,nan,nan,nan,172.0195310729323,628.2125963532599,nan,628.4791975228582,nan,nan,nan,nan
1,302,1,1,1.0,1.0,0.18645551765803248,0,3,1,5,8,7,6,nan,nan,nan,nan,nan,nan,nan,nan,nan,nan,nan,nan,0.0,nan,nan,nan,nan,nan,nan,nan,nan,nan,nan,nan,nan,nan,nan,nan,nan,nan,nan,172.0195310729323,629.2127460307674,nan,629.3992015484255,nan,nan,nan,nan
1,303,1,1,1.0,1.0,0.09030491183511913,0,0,8,7,5,6,1,nan,nan,nan,nan,nan,nan,nan,nan,nan,nan,nan,nan,0.0,nan,nan,nan,nan,nan,nan,nan,nan,nan,nan,nan,nan,nan,nan,nan,nan,nan,nan,172.0195310729323,630.2128817384364,nan,630.3031866502715,nan,nan,nan,nan
1,304,1,1,1.0,1.0,0.15415879909414798,0,1,5,6,4,8,7,nan,nan,nan,nan,nan,nan,nan,nan,nan,nan,nan,nan,0.0,nan,nan,nan,nan,nan,nan,nan,nan,nan,nan,nan,nan,nan,nan,nan,nan,nan,nan,172.0195310729323,631.2130200120155,nan,631.3671788111096,nan,nan,nan,nan
1,305,1,1,1.0,1.0,0.21800955035723746,0,4,6,3,2,5,0,nan,nan,nan,nan,nan,nan,nan,nan,nan,nan,nan,nan,0.0,nan,nan,nan,nan,nan,nan,nan,nan,nan,nan,nan,nan,nan,nan,nan,nan,nan,nan,172.0195310729323,632.2131651280215,nan,632.4311746783787,nan,nan,nan,nan
1,306,1,1,1.0,1.0,0.2978584129596129,0,8,7,0,5,3,4,nan,nan,nan,nan,nan,nan,nan,nan,nan,nan,nan,nan,0.0,nan,nan,nan,nan,nan,nan,nan,nan,nan,nan,nan,nan,nan,nan,nan,nan,nan,nan,172.0195310729323,633.2132968443912,nan,633.5111552573508,nan,nan,nan,nan
1,307,1,1,1.0,1.0,0.6657097754068673,0,2,0,6,4,7,1,nan,nan,nan,nan,nan,nan,nan,nan,nan,nan,nan,nan,0.0,nan,nan,nan,nan,nan,nan,nan,nan,nan,nan,nan,nan,nan,nan,nan,nan,nan,nan,172.0195310729323,634.2134388242848,nan,634.8791485996917,nan,nan,nan,nan
1,308,1,1,1.0,1.0,0.7455620593391359,0,3,5,4,2,1,0,nan,nan,nan,nan,nan,nan,nan,nan,nan,nan,nan,nan,0.0,nan,nan,nan,nan,nan,nan,nan,nan,nan,nan,nan,nan,nan,nan,nan,nan,nan,nan,172.0195310729323,635.213572821347,nan,635.9591348806862,nan,nan,nan,nan
1,309,1,1,1.0,1.0,0.5454043418867514,1,1,8,3,0,5,2,1.0,1.0,1.0,1.0,1.0,1.0,0.0,0.0,0.0,0.0,0.0,0.0,0.0,4.0,3.0,7.0,2.0,1.0,0.0,4.0,3.0,2.0,1.0,6.0,5.0,5.55657285626512,4.558110686717555,3.4537161239422858,2.5183363605756313,7.260492613189854,6.564684811746702,172.0195310729323,636.2137113800272,637.0221297610551,636.759115721914,645.3315963130444,646.3351127386559,638.0306040789001,645.323263689992
1,310,1,1,1.0,1.0,0.7069207213353366,0,3,0,4,7,8,5,nan,nan,nan,nan,nan,nan,nan,nan,nan,nan,nan,nan,0.0,nan,nan,nan,nan,nan,nan,nan,nan,nan,nan,nan,nan,nan,nan,nan,nan,nan,nan,172.0195310729323,646.5401294183685,nan,647.2470501397038,nan,nan,nan,nan
1,311,0,0,0.0,1.0,0.5627501219278201,0,7,2,1,3,6,0,nan,nan,nan,nan,nan,nan,nan,nan,nan,nan,nan,nan,0.0,nan,nan,nan,nan,nan,nan,nan,nan,nan,nan,nan,nan,nan,nan,nan,nan,nan,nan,172.0195310729323,647.540260849637,nan,648.1030109715648,nan,nan,nan,nan
1,312,1,1,1.0,1.0,0.2826275060651824,0,1,7,8,4,0,3,nan,nan,nan,nan,nan,nan,nan,nan,nan,nan,nan,nan,0.0,nan,nan,nan,nan,nan,nan,nan,nan,nan,nan,nan,nan,nan,nan,nan,nan,nan,nan,172.0195310729323,648.5403948466992,nan,648.8230223527644,nan,nan,nan,nan
1,313,1,1,1.0,1.0,0.37046116951387376,0,6,3,4,8,2,1,nan,nan,nan,nan,nan,nan,nan,nan,nan,nan,nan,nan,0.0,nan,nan,nan,nan,nan,nan,nan,nan,nan,nan,nan,nan,nan,nan,nan,nan,nan,nan,172.0195310729323,649.540532550076,nan,649.9109937195899,nan,nan,nan,nan
1,314,1,1,1.0,1.0,0.30631562473718077,0,5,2,8,1,0,6,nan,nan,nan,nan,nan,nan,nan,nan,nan,nan,nan,nan,0.0,nan,nan,nan,nan,nan,nan,nan,nan,nan,nan,nan,nan,nan,nan,nan,nan,nan,nan,172.0195310729323,650.5406719640596,nan,650.8469875887968,nan,nan,nan,nan
1,315,1,1,1.0,1.0,0.162180092651397,0,2,5,7,0,1,4,nan,nan,nan,nan,nan,nan,nan,nan,nan,nan,nan,nan,0.0,nan,nan,nan,nan,nan,nan,nan,nan,nan,nan,nan,nan,nan,nan,nan,nan,nan,nan,172.0195310729323,651.5408125184476,nan,651.702992611099,nan,nan,nan,nan
1,316,1,1,1.0,1.0,0.16202300251461565,0,0,8,4,5,6,7,nan,nan,nan,nan,nan,nan,nan,nan,nan,nan,nan,nan,0.0,nan,nan,nan,nan,nan,nan,nan,nan,nan,nan,nan,nan,nan,nan,nan,nan,nan,nan,172.0195310729323,652.5409493665211,nan,652.7029723690357,nan,nan,nan,nan
1,317,1,1,1.0,1.0,0.06589320895727724,0,7,6,0,8,2,5,nan,nan,nan,nan,nan,nan,nan,nan,nan,nan,nan,nan,0.0,nan,nan,nan,nan,nan,nan,nan,nan,nan,nan,nan,nan,nan,nan,nan,nan,nan,nan,172.0195310729323,653.5410847890889,nan,653.6069779980462,nan,nan,nan,nan
1,318,0,0,nan,nan,nan,0,6,2,7,0,8,3,nan,nan,nan,nan,nan,nan,nan,nan,nan,nan,nan,nan,0.0,nan,nan,nan,nan,nan,nan,nan,nan,nan,nan,nan,nan,nan,nan,nan,nan,nan,nan,172.0195310729323,654.5412176457467,nan,nan,nan,nan,nan,nan
1,319,1,1,1.0,1.0,0.3775900995824486,0,1,3,2,8,6,5,nan,nan,nan,nan,nan,nan,nan,nan,nan,nan,nan,nan,0.0,nan,nan,nan,nan,nan,nan,nan,nan,nan,nan,nan,nan,nan,nan,nan,nan,nan,nan,172.0195310729323,655.5413616213482,nan,655.9189517209306,nan,nan,nan,nan
1,320,1,1,1.0,1.0,0.19343562540598214,0,5,6,0,1,8,2,nan,nan,nan,nan,nan,nan,nan,nan,nan,nan,nan,nan,0.0,nan,nan,nan,nan,nan,nan,nan,nan,nan,nan,nan,nan,nan,nan,nan,nan,nan,nan,172.0195310729323,656.5414984694216,nan,656.7349340948276,nan,nan,nan,nan
1,321,0,0,0.0,1.0,0.4572818720480427,0,0,8,7,5,1,4,nan,nan,nan,nan,nan,nan,nan,nan,nan,nan,nan,nan,0.0,nan,nan,nan,nan,nan,nan,nan,nan,nan,nan,nan,nan,nan,nan,nan,nan,nan,nan,172.0195310729323,657.5416384536074,nan,657.9989203256555,nan,nan,nan,nan
1,322,1,1,1.0,1.0,0.2011572786141187,0,5,7,3,4,8,0,nan,nan,nan,nan,nan,nan,nan,nan,nan,nan,nan,nan,0.0,nan,nan,nan,nan,nan,nan,nan,nan,nan,nan,nan,nan,nan,nan,nan,nan,nan,nan,172.0195310729323,658.5417673189659,nan,658.74292459758,nan,nan,nan,nan
1,323,1,1,1.0,1.0,0.24100772652309388,0,8,0,7,5,2,6,nan,nan,nan,nan,nan,nan,nan,nan,nan,nan,nan,nan,0.0,nan,nan,nan,nan,nan,nan,nan,nan,nan,nan,nan,nan,nan,nan,nan,nan,nan,nan,172.0195310729323,659.5419064478483,nan,659.7829141743714,nan,nan,nan,nan
1,324,1,1,1.0,1.0,0.2968625579960644,0,4,3,0,2,7,8,nan,nan,nan,nan,nan,nan,nan,nan,nan,nan,nan,nan,0.0,nan,nan,nan,nan,nan,nan,nan,nan,nan,nan,nan,nan,nan,nan,nan,nan,nan,nan,172.0195310729323,660.5420418704161,nan,660.8389044284122,nan,nan,nan,nan
1,325,1,1,1.0,1.0,0.28871525020804256,1,6,4,2,0,3,5,1.0,1.0,1.0,1.0,1.0,1.0,0.0,1.0,1.0,0.0,0.0,0.0,2.0,8.0,4.0,2.0,3.0,0.0,6.0,6.0,2.0,1.0,3.0,4.0,5.0,7.051936414674856,2.3807920595863834,1.109434278565459,3.588464732747525,4.523602160974406,5.795964349992573,172.0195310729323,661.5421835652087,662.3506067929557,661.8308988154167,670.4600447778357,671.4665199731244,663.3674336906988,670.4517172867199
1,326,1,1,nan,nan,nan,0,0,1,3,7,4,2,nan,nan,nan,nan,nan,nan,nan,nan,nan,nan,nan,nan,0.0,nan,nan,nan,nan,nan,nan,nan,nan,nan,nan,nan,nan,nan,nan,nan,nan,nan,nan,172.0195310729323,671.6685830150964,nan,nan,nan,nan,nan,nan
1,327,1,1,1.0,1.0,0.5379948733607307,0,1,8,2,0,7,4,nan,nan,nan,nan,nan,nan,nan,nan,nan,nan,nan,nan,0.0,nan,nan,nan,nan,nan,nan,nan,nan,nan,nan,nan,nan,nan,nan,nan,nan,nan,nan,172.0195310729323,672.6687574964017,nan,673.2067523697624,nan,nan,nan,nan
1,328,1,1,1.0,1.0,0.32191288541071117,0,0,1,3,5,4,6,nan,nan,nan,nan,nan,nan,nan,nan,nan,nan,nan,nan,0.0,nan,nan,nan,nan,nan,nan,nan,nan,nan,nan,nan,nan,nan,nan,nan,nan,nan,nan,172.0195310729323,673.66885842185,nan,673.9907713072607,nan,nan,nan,nan
1,329,1,1,1.0,1.0,0.01779908931348473,0,5,2,0,4,7,1,nan,nan,nan,nan,nan,nan,nan,nan,nan,nan,nan,nan,0.0,nan,nan,nan,nan,nan,nan,nan,nan,nan,nan,nan,nan,nan,nan,nan,nan,nan,nan,172.0195310729323,674.6689687556354,nan,674.6867678449489,nan,nan,nan,nan
1,330,1,1,1.0,1.0,0.24964084499515593,1,4,3,1,0,6,2,1.0,1.0,1.0,1.0,1.0,1.0,0.0,1.0,0.0,0.0,0.0,0.0,1.0,7.0,3.0,0.0,6.0,2.0,1.0,6.0,1.0,2.0,3.0,4.0,5.0,5.724044978618622,0.9747783275088295,1.8125472019892186,2.645424612564966,3.9564589303918183,5.076258881250396,172.0195310729323,675.6691192885628,676.4775513544446,675.918760133558,683.2617989422288,684.2584179391852,677.5026874968316,683.2534688852029
1,331,1,1,1.0,1.0,0.43269340693950653,0,1,8,0,2,4,3,nan,nan,nan,nan,nan,nan,nan,nan,nan,nan,nan,nan,0.0,nan,nan,nan,nan,nan,nan,nan,nan,nan,nan,nan,nan,nan,nan,nan,nan,nan,nan,172.0195310729323,684.4620014204411,nan,684.8946948273806,nan,nan,nan,nan
1,332,1,1,1.0,1.0,0.36053512163925916,0,7,3,1,5,2,6,nan,nan,nan,nan,nan,nan,nan,nan,nan,nan,nan,nan,0.0,nan,nan,nan,nan,nan,nan,nan,nan,nan,nan,nan,nan,nan,nan,nan,nan,nan,nan,172.0195310729323,685.4621325664921,nan,685.8226676881313,nan,nan,nan,nan
1,333,1,1,1.0,1.0,0.37638041947502643,0,1,8,3,4,6,7,nan,nan,nan,nan,nan,nan,nan,nan,nan,nan,nan,nan,0.0,nan,nan,nan,nan,nan,nan,nan,nan,nan,nan,nan,nan,nan,nan,nan,nan,nan,nan,172.0195310729323,686.4622759718914,nan,686.8386563913664,nan,nan,nan,nan
1,334,1,1,1.0,1.0,0.2882211715914309,0,4,0,7,6,8,5,nan,nan,nan,nan,nan,nan,nan,nan,nan,nan,nan,nan,0.0,nan,nan,nan,nan,nan,nan,nan,nan,nan,nan,nan,nan,nan,nan,nan,nan,nan,nan,172.0195310729323,687.4624133901671,nan,687.7506345617585,nan,nan,nan,nan
1,335,1,1,1.0,1.0,0.15208070387598127,0,8,2,6,4,7,0,nan,nan,nan,nan,nan,nan,nan,nan,nan,nan,nan,nan,0.0,nan,nan,nan,nan,nan,nan,nan,nan,nan,nan,nan,nan,nan,nan,nan,nan,nan,nan,172.0195310729323,688.462551378645,nan,688.614632082521,nan,nan,nan,nan
1,336,1,1,1.0,1.0,0.03994709684047848,0,6,8,5,2,0,1,nan,nan,nan,nan,nan,nan,nan,nan,nan,nan,nan,nan,0.0,nan,nan,nan,nan,nan,nan,nan,nan,nan,nan,nan,nan,nan,nan,nan,nan,nan,nan,172.0195310729323,689.4626887969207,nan,689.5026358937612,nan,nan,nan,nan
1,337,1,1,1.0,1.0,0.6797566612949595,0,1,3,0,5,2,8,nan,nan,nan,nan,nan,nan,nan,nan,nan,nan,nan,nan,0.0,nan,nan,nan,nan,nan,nan,nan,nan,nan,nan,nan,nan,nan,nan,nan,nan,nan,nan,172.0195310729323,690.4628179472638,nan,691.1425746085588,nan,nan,nan,nan
1,338,1,1,1.0,1.0,0.35965473228134215,0,0,1,8,3,4,6,nan,nan,nan,nan,nan,nan,nan,nan,nan,nan,nan,nan,0.0,nan,nan,nan,nan,nan,nan,nan,nan,nan,nan,nan,nan,nan,nan,nan,nan,nan,nan,172.0195310729323,691.4629422510043,nan,691.8225969832856,nan,nan,nan,nan
1,339,1,1,1.0,1.0,0.2954929367406294,0,3,0,4,7,2,1,nan,nan,nan,nan,nan,nan,nan,nan,nan,nan,nan,nan,0.0,nan,nan,nan,nan,nan,nan,nan,nan,nan,nan,nan,nan,nan,nan,nan,nan,nan,nan,172.0195310729323,692.4630927839316,nan,692.7585857206723,nan,nan,nan,nan
1,340,1,1,1.0,1.0,0.20736219896934927,0,1,8,0,3,7,2,nan,nan,nan,nan,nan,nan,nan,nan,nan,nan,nan,nan,0.0,nan,nan,nan,nan,nan,nan,nan,nan,nan,nan,nan,nan,nan,nan,nan,nan,nan,nan,172.0195310729323,693.4632302022073,nan,693.6705924011767,nan,nan,nan,nan
1,341,1,1,1.0,1.0,0.007211038842797279,0,7,5,2,4,6,8,nan,nan,nan,nan,nan,nan,nan,nan,nan,nan,nan,nan,0.0,nan,nan,nan,nan,nan,nan,nan,nan,nan,nan,nan,nan,nan,nan,nan,nan,nan,nan,172.0195310729323,694.4633758884156,nan,694.4705869272584,nan,nan,nan,nan
1,342,1,1,1.0,1.0,0.19107300019823015,0,3,7,6,8,0,2,nan,nan,nan,nan,nan,nan,nan,nan,nan,nan,nan,nan,0.0,nan,nan,nan,nan,nan,nan,nan,nan,nan,nan,nan,nan,nan,nan,nan,nan,nan,nan,172.0195310729323,695.4635016175453,nan,695.6545746177435,nan,nan,nan,nan
1,343,0,0,1.0,0.0,0.19892465916927904,0,8,3,4,5,2,6,nan,nan,nan,nan,nan,nan,nan,nan,nan,nan,nan,nan,0.0,nan,nan,nan,nan,nan,nan,nan,nan,nan,nan,nan,nan,nan,nan,nan,nan,nan,nan,172.0195310729323,696.46364388254,nan,696.6625685417093,nan,nan,nan,nan
1,344,1,1,1.0,1.0,0.6787283049197868,0,1,0,7,6,4,8,nan,nan,nan,nan,nan,nan,nan,nan,nan,nan,nan,nan,0.0,nan,nan,nan,nan,nan,nan,nan,nan,nan,nan,nan,nan,nan,nan,nan,nan,nan,nan,172.0195310729323,697.4637755987933,nan,698.1425039037131,nan,nan,nan,nan
1,345,1,1,1.0,1.0,0.3746284788940102,0,7,5,0,2,8,6,nan,nan,nan,nan,nan,nan,nan,nan,nan,nan,nan,nan,0.0,nan,nan,nan,nan,nan,nan,nan,nan,nan,nan,nan,nan,nan,nan,nan,nan,nan,nan,172.0195310729323,698.4639155829791,nan,698.8385440618731,nan,nan,nan,nan
1,346,1,1,1.0,1.0,0.3184757175622508,0,8,4,6,5,3,7,nan,nan,nan,nan,nan,nan,nan,nan,nan,nan,nan,nan,0.0,nan,nan,nan,nan,nan,nan,nan,nan,nan,nan,nan,nan,nan,nan,nan,nan,nan,nan,172.0195310729323,699.4640472993487,nan,699.782523016911,nan,nan,nan,nan
1,347,1,1,1.0,1.0,0.2703445350052789,0,7,2,4,0,6,5,nan,nan,nan,nan,nan,nan,nan,nan,nan,nan,nan,nan,0.0,nan,nan,nan,nan,nan,nan,nan,nan,nan,nan,nan,nan,nan,nan,nan,nan,nan,nan,172.0195310729323,700.4641864282312,nan,700.7345309632365,nan,nan,nan,nan
1,348,1,1,1.0,1.0,0.28618356061633676,0,5,6,8,7,2,3,nan,nan,nan,nan,nan,nan,nan,nan,nan,nan,nan,nan,0.0,nan,nan,nan,nan,nan,nan,nan,nan,nan,nan,nan,nan,nan,nan,nan,nan,nan,nan,172.0195310729323,701.4643221359001,nan,701.7505056965165,nan,nan,nan,nan
1,349,1,1,1.0,1.0,0.3100424542790279,0,4,8,2,6,0,5,nan,nan,nan,nan,nan,nan,nan,nan,nan,nan,nan,nan,0.0,nan,nan,nan,nan,nan,nan,nan,nan,nan,nan,nan,nan,nan,nan,nan,nan,nan,nan,172.0195310729323,702.4644658264006,nan,702.7745082806796,nan,nan,nan,nan
1,350,1,1,1.0,1.0,0.14188381074927747,0,6,2,1,3,4,0,nan,nan,nan,nan,nan,nan,nan,nan,nan,nan,nan,nan,0.0,nan,nan,nan,nan,nan,nan,nan,nan,nan,nan,nan,nan,nan,nan,nan,nan,nan,nan,172.0195310729323,703.4646103722043,nan,703.6064941829536,nan,nan,nan,nan
1,351,0,0,nan,nan,nan,0,8,5,3,7,0,4,nan,nan,nan,nan,nan,nan,nan,nan,nan,nan,nan,nan,0.0,nan,nan,nan,nan,nan,nan,nan,nan,nan,nan,nan,nan,nan,nan,nan,nan,nan,nan,172.0195310729323,704.4647318248171,nan,nan,nan,nan,nan,nan
1,352,1,1,1.0,1.0,0.3815946166869253,0,7,2,6,1,4,8,nan,nan,nan,nan,nan,nan,nan,nan,nan,nan,nan,nan,0.0,nan,nan,nan,nan,nan,nan,nan,nan,nan,nan,nan,nan,nan,nan,nan,nan,nan,nan,172.0195310729323,705.4648729494074,nan,705.8464675660944,nan,nan,nan,nan
1,353,1,1,1.0,1.0,0.1654601702466607,0,4,8,7,0,2,3,nan,nan,nan,nan,nan,nan,nan,nan,nan,nan,nan,nan,0.0,nan,nan,nan,nan,nan,nan,nan,nan,nan,nan,nan,nan,nan,nan,nan,nan,nan,nan,172.0195310729323,706.4650046656607,nan,706.6304648359073,nan,nan,nan,nan
1,354,1,1,1.0,1.0,0.07730177766643465,0,1,0,4,6,3,5,nan,nan,nan,nan,nan,nan,nan,nan,nan,nan,nan,nan,0.0,nan,nan,nan,nan,nan,nan,nan,nan,nan,nan,nan,nan,nan,nan,nan,nan,nan,nan,172.0195310729323,707.4651543432847,nan,707.5424561209511,nan,nan,nan,nan
1,355,1,1,1.0,1.0,0.48511164099909365,0,7,5,6,0,2,3,nan,nan,nan,nan,nan,nan,nan,nan,nan,nan,nan,nan,0.0,nan,nan,nan,nan,nan,nan,nan,nan,nan,nan,nan,nan,nan,nan,nan,nan,nan,nan,172.0195310729323,708.4652943274705,nan,708.9504059684696,nan,nan,nan,nan
1,356,1,1,1.0,1.0,0.3490090916166082,0,4,8,1,5,0,6,nan,nan,nan,nan,nan,nan,nan,nan,nan,nan,nan,nan,0.0,nan,nan,nan,nan,nan,nan,nan,nan,nan,nan,nan,nan,nan,nan,nan,nan,nan,nan,172.0195310729323,709.4654229076114,nan,709.814431999228,nan,nan,nan,nan
1,357,1,1,1.0,1.0,0.3328615875216201,0,0,7,3,6,2,4,nan,nan,nan,nan,nan,nan,nan,nan,nan,nan,nan,nan,0.0,nan,nan,nan,nan,nan,nan,nan,nan,nan,nan,nan,nan,nan,nan,nan,nan,nan,nan,172.0195310729323,710.465559185599,nan,710.7984207731206,nan,nan,nan,nan
1,358,1,1,1.0,1.0,0.3087304232176393,0,1,0,5,7,8,6,nan,nan,nan,nan,nan,nan,nan,nan,nan,nan,nan,nan,0.0,nan,nan,nan,nan,nan,nan,nan,nan,nan,nan,nan,nan,nan,nan,nan,nan,nan,nan,172.0195310729323,711.4656957485713,nan,711.774426171789,nan,nan,nan,nan
1,359,1,1,1.0,1.0,0.26061064458917826,0,0,4,3,2,5,7,nan,nan,nan,nan,nan,nan,nan,nan,nan,nan,nan,nan,0.0,nan,nan,nan,nan,nan,nan,nan,nan,nan,nan,nan,nan,nan,nan,nan,nan,nan,nan,172.0195310729323,712.4657989548286,nan,712.7264095994178,nan,nan,nan,nan
1,360,1,1,1.0,1.0,0.3164252770366147,0,4,5,2,7,1,0,nan,nan,nan,nan,nan,nan,nan,nan,nan,nan,nan,nan,0.0,nan,nan,nan,nan,nan,nan,nan,nan,nan,nan,nan,nan,nan,nan,nan,nan,nan,nan,172.0195310729323,713.4659748616396,nan,713.7824001386762,nan,nan,nan,nan
1,361,1,1,1.0,1.0,0.18827160575892776,0,2,7,4,1,0,6,nan,nan,nan,nan,nan,nan,nan,nan,nan,nan,nan,nan,0.0,nan,nan,nan,nan,nan,nan,nan,nan,nan,nan,nan,nan,nan,nan,nan,nan,nan,nan,172.0195310729323,714.4661131352186,nan,714.6543847409775,nan,nan,nan,nan
1,362,1,1,1.0,1.0,0.11613242223393172,0,5,8,2,4,6,3,nan,nan,nan,nan,nan,nan,nan,nan,nan,nan,nan,nan,0.0,nan,nan,nan,nan,nan,nan,nan,nan,nan,nan,nan,nan,nan,nan,nan,nan,nan,nan,172.0195310729323,715.4662477024831,nan,715.582380124717,nan,nan,nan,nan
1,363,1,1,1.0,1.0,0.06799354194663465,0,1,4,0,2,5,8,nan,nan,nan,nan,nan,nan,nan,nan,nan,nan,nan,nan,0.0,nan,nan,nan,nan,nan,nan,nan,nan,nan,nan,nan,nan,nan,nan,nan,nan,nan,nan,172.0195310729323,716.46638797177,nan,716.5343815137167,nan,nan,nan,nan
1,364,1,1,1.0,1.0,0.27585038961842656,0,2,1,3,7,4,6,nan,nan,nan,nan,nan,nan,nan,nan,nan,nan,nan,nan,0.0,nan,nan,nan,nan,nan,nan,nan,nan,nan,nan,nan,nan,nan,nan,nan,nan,nan,nan,172.0195310729323,717.466504292679,nan,717.7423546822974,nan,nan,nan,nan
1,365,0,0,0.0,1.0,0.3956600340316072,0,5,4,7,3,0,8,nan,nan,nan,nan,nan,nan,nan,nan,nan,nan,nan,nan,0.0,nan,nan,nan,nan,nan,nan,nan,nan,nan,nan,nan,nan,nan,nan,nan,nan,nan,nan,172.0195310729323,718.4666933140252,nan,718.8623533480568,nan,nan,nan,nan
1,366,1,1,1.0,1.0,0.17955324240028858,0,8,2,3,0,5,1,nan,nan,nan,nan,nan,nan,nan,nan,nan,nan,nan,nan,0.0,nan,nan,nan,nan,nan,nan,nan,nan,nan,nan,nan,nan,nan,nan,nan,nan,nan,nan,172.0195310729323,719.4667988010915,nan,719.6463520434918,nan,nan,nan,nan
1,367,1,1,1.0,1.0,0.29938797547947615,0,2,3,8,6,0,4,nan,nan,nan,nan,nan,nan,nan,nan,nan,nan,nan,nan,0.0,nan,nan,nan,nan,nan,nan,nan,nan,nan,nan,nan,nan,nan,nan,nan,nan,nan,nan,172.0195310729323,720.4669387852773,nan,720.7663267607568,nan,nan,nan,nan
1,368,1,1,1.0,1.0,0.24323606956750154,0,6,1,5,8,7,2,nan,nan,nan,nan,nan,nan,nan,nan,nan,nan,nan,nan,0.0,nan,nan,nan,nan,nan,nan,nan,nan,nan,nan,nan,nan,nan,nan,nan,nan,nan,nan,172.0195310729323,721.4670773439575,nan,721.710313413525,nan,nan,nan,nan
1,369,1,1,1.0,1.0,0.25109628145582974,0,4,3,2,0,8,6,nan,nan,nan,nan,nan,nan,nan,nan,nan,nan,nan,nan,0.0,nan,nan,nan,nan,nan,nan,nan,nan,nan,nan,nan,nan,nan,nan,nan,nan,nan,nan,172.0195310729323,722.4672093454283,nan,722.7183056268841,nan,nan,nan,nan
1,370,0,0,1.0,0.0,0.19496832392178476,0,2,6,8,3,0,4,nan,nan,nan,nan,nan,nan,nan,nan,nan,nan,nan,nan,0.0,nan,nan,nan,nan,nan,nan,nan,nan,nan,nan,nan,nan,nan,nan,nan,nan,nan,nan,172.0195310729323,723.4673493296141,nan,723.6623176535359,nan,nan,nan,nan
1,371,1,1,1.0,1.0,0.2588336152257398,0,3,5,6,1,4,0,nan,nan,nan,nan,nan,nan,nan,nan,nan,nan,nan,nan,0.0,nan,nan,nan,nan,nan,nan,nan,nan,nan,nan,nan,nan,nan,nan,nan,nan,nan,nan,172.0195310729323,724.4674707822269,nan,724.7263043974526,nan,nan,nan,nan
1,372,1,1,1.0,1.0,0.30664976208936423,0,8,7,2,0,5,6,nan,nan,nan,nan,nan,nan,nan,nan,nan,nan,nan,nan,0.0,nan,nan,nan,nan,nan,nan,nan,nan,nan,nan,nan,nan,nan,nan,nan,nan,nan,nan,172.0195310729323,725.4676224555587,nan,725.7742722176481,nan,nan,nan,nan
1,373,1,1,1.0,1.0,0.1705044477712363,0,6,2,4,8,0,7,nan,nan,nan,nan,nan,nan,nan,nan,nan,nan,nan,nan,0.0,nan,nan,nan,nan,nan,nan,nan,nan,nan,nan,nan,nan,nan,nan,nan,nan,nan,nan,172.0195310729323,726.4677578781266,nan,726.6382623258978,nan,nan,nan,nan
1,374,1,1,1.0,1.0,0.23437030927743763,0,1,0,6,7,5,2,nan,nan,nan,nan,nan,nan,nan,nan,nan,nan,nan,nan,0.0,nan,nan,nan,nan,nan,nan,nan,nan,nan,nan,nan,nan,nan,nan,nan,nan,nan,nan,172.0195310729323,727.4678890241776,nan,727.702259333455,nan,nan,nan,nan
1,375,1,1,1.0,1.0,0.27421534014865756,0,5,2,1,6,7,0,nan,nan,nan,nan,nan,nan,nan,nan,nan,nan,nan,nan,0.0,nan,nan,nan,nan,nan,nan,nan,nan,nan,nan,nan,nan,nan,nan,nan,nan,nan,nan,172.0195310729323,728.4680358507903,nan,728.742251190939,nan,nan,nan,nan
1,376,1,1,1.0,1.0,0.29006291879341006,0,8,5,4,3,0,6,nan,nan,nan,nan,nan,nan,nan,nan,nan,nan,nan,nan,0.0,nan,nan,nan,nan,nan,nan,nan,nan,nan,nan,nan,nan,nan,nan,nan,nan,nan,nan,172.0195310729323,729.4681729839649,nan,729.7582359027583,nan,nan,nan,nan
1,377,1,1,1.0,1.0,0.27392852946650237,0,0,8,5,7,4,2,nan,nan,nan,nan,nan,nan,nan,nan,nan,nan,nan,nan,0.0,nan,nan,nan,nan,nan,nan,nan,nan,nan,nan,nan,nan,nan,nan,nan,nan,nan,nan,172.0195310729323,730.4683078363305,nan,730.742236365797,nan,nan,nan,nan
1,378,1,1,1.0,1.0,0.2577647747239098,0,2,4,7,1,6,0,nan,nan,nan,nan,nan,nan,nan,nan,nan,nan,nan,nan,0.0,nan,nan,nan,nan,nan,nan,nan,nan,nan,nan,nan,nan,nan,nan,nan,nan,nan,nan,172.0195310729323,731.4684472503141,nan,731.726212025038,nan,nan,nan,nan
1,379,1,1,1.0,1.0,0.28962500486522913,0,8,6,5,3,1,4,nan,nan,nan,nan,nan,nan,nan,nan,nan,nan,nan,nan,0.0,nan,nan,nan,nan,nan,nan,nan,nan,nan,nan,nan,nan,nan,nan,nan,nan,nan,nan,172.0195310729323,732.4685855240095,nan,732.7582105288748,nan,nan,nan,nan
1,380,1,1,1.0,1.0,0.31348560913465917,0,4,8,6,0,2,7,nan,nan,nan,nan,nan,nan,nan,nan,nan,nan,nan,nan,0.0,nan,nan,nan,nan,nan,nan,nan,nan,nan,nan,nan,nan,nan,nan,nan,nan,nan,nan,172.0195310729323,733.468724652892,nan,733.7822102620266,nan,nan,nan,nan
1,381,1,1,1.0,1.0,0.05733592691831291,0,2,6,3,1,8,0,nan,nan,nan,nan,nan,nan,nan,nan,nan,nan,nan,nan,0.0,nan,nan,nan,nan,nan,nan,nan,nan,nan,nan,nan,nan,nan,nan,nan,nan,nan,nan,172.0195310729323,734.4688615009654,nan,734.5261974278837,nan,nan,nan,nan
1,382,1,1,nan,nan,nan,0,5,3,7,2,0,6,nan,nan,nan,nan,nan,nan,nan,nan,nan,nan,nan,nan,0.0,nan,nan,nan,nan,nan,nan,nan,nan,nan,nan,nan,nan,nan,nan,nan,nan,nan,nan,172.0195310729323,735.4690140294842,nan,nan,nan,nan,nan,nan
1,383,1,1,nan,nan,nan,0,2,7,8,6,3,5,nan,nan,nan,nan,nan,nan,nan,nan,nan,nan,nan,nan,0.0,nan,nan,nan,nan,nan,nan,nan,nan,nan,nan,nan,nan,nan,nan,nan,nan,nan,nan,172.0195310729323,736.4690978489816,nan,nan,nan,nan,nan,nan
1,384,1,1,1.0,1.0,0.6728871724335477,0,8,6,3,7,5,1,nan,nan,nan,nan,nan,nan,nan,nan,nan,nan,nan,nan,0.0,nan,nan,nan,nan,nan,nan,nan,nan,nan,nan,nan,nan,nan,nan,nan,nan,nan,nan,172.0195310729323,737.4692652027588,nan,738.1421523751924,nan,nan,nan,nan
1,385,1,1,1.0,1.0,0.3527490356937051,0,4,7,0,3,8,2,nan,nan,nan,nan,nan,nan,nan,nan,nan,nan,nan,nan,0.0,nan,nan,nan,nan,nan,nan,nan,nan,nan,nan,nan,nan,nan,nan,nan,nan,nan,nan,172.0195310729323,738.4694091783604,nan,738.8221582140541,nan,nan,nan,nan
1,386,1,1,1.0,1.0,0.20059734187088907,0,3,8,1,6,7,5,nan,nan,nan,nan,nan,nan,nan,nan,nan,nan,nan,nan,0.0,nan,nan,nan,nan,nan,nan,nan,nan,nan,nan,nan,nan,nan,nan,nan,nan,nan,nan,172.0195310729323,739.4695503029507,nan,739.6701476448216,nan,nan,nan,nan
