block,trial,time,setsize,freqtrials,trials_colorind,trials_colordeg,colorrgb0,colorrgb1,colorrgb2,correct_response,actual_response,acc,rts,probe_trials,rt_triggered_fast,rt_triggered_slow,rt_strailingavg,rts_runningavg,rts_runningstd,rts_runningslowthresh,rts_runningfastthresh,wm_respdeg,wm_respind,wm_resprgb0,wm_resprgb1,wm_resprgb2,wm_respcolorminusorigcolor,wm_rts,time_blockstart,time_encarray_onset,time_response,time_encarray_offest,time_memprobe_onset,time_memprobe_offset
0,0,1203,6,1,79,55,1.0,-0.184296021705,-0.724170777997,1,1.0,1.0,0.402393902652,0,nan,nan,nan,nan,nan,nan,nan,nan,nan,0.0,0.0,0.0,nan,nan,309.136508725,310.150090461,310.552484363,310.650128379,nan,nan
0,1,1204,6,1,186,130,1.0,-0.0967386681424,0.377881386018,1,1.0,1.0,0.272580965422,0,nan,nan,nan,nan,nan,nan,nan,nan,nan,0.0,0.0,0.0,nan,nan,309.136508725,311.191899083,311.464480048,311.691933864,nan,nan
0,2,1205,6,1,37,26,1.0,0.0358565504353,-1.0,1,1.0,1.0,0.320081264712,0,nan,nan,nan,nan,nan,nan,nan,nan,nan,0.0,0.0,0.0,nan,nan,309.136508725,312.200365038,312.520446302,312.700397254,nan,nan
0,3,1206,6,1,269,189,0.34171296506,0.305888347675,0.643262349404,1,1.0,1.0,0.319583198987,0,nan,nan,nan,nan,nan,nan,nan,nan,nan,0.0,0.0,0.0,nan,nan,309.136508725,313.208848955,313.528432154,313.708889154,nan,nan
0,4,1207,6,0,2,1,0.863024578927,0.203622855609,-1.0,0,0.0,1.0,0.471446678974,0,nan,nan,nan,nan,nan,nan,nan,nan,nan,0.0,0.0,0.0,nan,nan,309.136508725,314.208972117,314.680418796,314.709023149,nan,nan
0,5,1208,6,1,427,300,0.163265173604,0.444863218481,-0.840208708629,1,1.0,1.0,0.535267354921,0,nan,nan,nan,nan,nan,nan,nan,nan,nan,0.0,0.0,0.0,nan,nan,309.136508725,315.209109534,315.744376888,315.709184229,nan,nan
0,6,1209,6,1,382,268,-0.1011887567,0.478291136399,-0.199732273247,1,1.0,1.0,0.390853459947,0,nan,nan,nan,nan,nan,nan,nan,nan,nan,0.0,0.0,0.0,nan,nan,309.136508725,316.217539852,316.608393312,316.717602288,nan,nan
0,7,1210,6,1,278,195,0.248285521772,0.335802812283,0.621962573991,1,1.0,1.0,0.326331160963,0,nan,nan,nan,nan,nan,nan,nan,nan,nan,0.0,0.0,0.0,nan,nan,309.136508725,317.22601208,317.552343241,317.726080788,nan,nan
0,8,1211,6,1,212,149,0.93926288676,0.0467731277665,0.543851001166,1,1.0,1.0,0.365845890716,0,nan,nan,nan,nan,nan,nan,nan,nan,nan,0.0,0.0,0.0,nan,nan,309.136508725,318.234506261,318.600352151,318.734513103,nan,nan
0,9,1212,6,1,362,254,-0.164239727892,0.476000155386,0.0174578511848,1,1.0,1.0,0.387339070439,0,nan,nan,nan,nan,nan,nan,nan,nan,nan,0.0,0.0,0.0,nan,nan,309.136508725,319.292991916,319.680330986,319.792999044,nan,nan
0,10,1213,6,1,38,26,1.0,0.0306259494545,-1.0,1,1.0,1.0,0.427197341807,0,nan,nan,nan,nan,nan,nan,nan,nan,nan,0.0,0.0,0.0,nan,nan,309.136508725,320.29307545,320.720272792,320.793110802,nan,nan
0,11,1214,6,1,409,287,0.0429436170054,0.464793150178,-0.529461854507,1,1.0,1.0,0.474706478417,0,nan,nan,nan,nan,nan,nan,nan,nan,nan,0.0,0.0,0.0,nan,nan,309.136508725,321.301547677,321.776254156,321.801575902,nan,nan
0,12,1215,6,1,191,134,1.0,-0.0691479807067,0.414571651978,1,1.0,1.0,0.314277544618,0,nan,nan,nan,nan,nan,nan,nan,nan,nan,0.0,0.0,0.0,nan,nan,309.136508725,322.309993106,322.624270651,322.810061529,nan,nan
0,13,1216,6,1,80,56,1.0,-0.189075709245,-0.708965549488,1,1.0,1.0,0.36207690835,0,nan,nan,nan,nan,nan,nan,nan,nan,nan,0.0,0.0,0.0,nan,nan,309.136508725,323.310131378,323.672208287,323.810180985,nan,nan
0,14,1217,6,1,413,290,0.0683106243366,0.461143133648,-0.585495598612,1,1.0,1.0,0.393595809117,0,nan,nan,nan,nan,nan,nan,nan,nan,nan,0.0,0.0,0.0,nan,nan,309.136508725,324.318607883,324.712203692,324.818650362,nan,nan
0,15,1218,6,1,80,56,1.0,-0.189075709245,-0.708965549488,1,1.0,1.0,0.345114776865,0,nan,nan,nan,nan,nan,nan,nan,nan,nan,0.0,0.0,0.0,nan,nan,309.136508725,325.327070132,325.672184909,325.827101777,nan,nan
0,16,1219,6,1,20,14,1.0,0.121558187834,-1.0,1,1.0,1.0,0.336552458815,0,nan,nan,nan,nan,nan,nan,nan,nan,nan,0.0,0.0,0.0,nan,nan,309.136508725,326.335589685,326.672142144,326.835566022,nan,nan
0,17,1220,6,1,222,156,0.841778467246,0.0997291618919,0.589484691865,1,1.0,1.0,0.408148299903,0,nan,nan,nan,nan,nan,nan,nan,nan,nan,0.0,0.0,0.0,nan,nan,309.136508725,327.343997767,327.752146067,327.844064195,nan,nan
0,18,1227,6,1,414,291,0.0747837862165,0.460162189034,-0.600089175003,1,1.0,1.0,0.399678924121,1,nan,nan,nan,nan,nan,nan,nan,-34.1213952335,177.0,1.0,-0.145192147526,0.306921212481,-166.972354766,4.15085452143,309.136508725,328.352451463,328.752130387,328.85248596,330.177662763,334.336533071
0,19,1228,6,1,469,329,0.489482198204,0.360453357602,-1.0,1,1.0,1.0,0.790564885363,0,nan,nan,nan,nan,nan,nan,nan,nan,nan,0.0,0.0,0.0,nan,nan,309.136508725,335.553388976,336.343953862,336.053467093,nan,nan
0,20,1229,6,1,218,153,0.881467392804,0.0788246127756,0.572559633417,1,1.0,1.0,0.454447199591,0,nan,nan,nan,nan,nan,nan,nan,nan,nan,0.0,0.0,0.0,nan,nan,309.136508725,336.553513849,337.007961049,337.053544355,nan,nan
0,21,1230,6,1,58,40,1.0,-0.0760896648475,-1.0,1,1.0,1.0,0.422279134393,0,nan,nan,nan,nan,nan,nan,nan,nan,nan,0.0,0.0,0.0,nan,nan,309.136508725,337.553650125,337.975929259,338.053705149,nan,nan
0,22,1231,6,1,317,222,-0.077772836126,0.429938605076,0.420733606481,1,1.0,1.0,0.374126248993,0,nan,nan,nan,nan,nan,nan,nan,nan,nan,0.0,0.0,0.0,nan,nan,309.136508725,338.553776993,338.927903242,339.053809495,nan,nan
0,23,1232,6,1,377,265,-0.121259861678,0.478700828387,-0.143695900877,1,1.0,1.0,0.357966950163,0,nan,nan,nan,nan,nan,nan,nan,nan,nan,0.0,0.0,0.0,nan,nan,309.136508725,339.553934937,339.911901888,340.053944916,nan,nan
0,24,1233,6,1,426,299,0.156193047225,0.446210853967,-0.81485970128,1,1.0,1.0,0.381503988989,0,nan,nan,nan,nan,nan,nan,nan,nan,nan,0.0,0.0,0.0,nan,nan,309.136508725,340.562382647,340.943886636,341.062405169,nan,nan
0,25,1234,6,1,368,258,-0.150457169737,0.477793263397,-0.0457341785459,1,1.0,1.0,0.349342765287,0,nan,nan,nan,nan,nan,nan,nan,nan,nan,0.0,0.0,0.0,nan,nan,309.136508725,341.562512366,341.911855131,342.06253831,nan,nan
0,26,1235,6,1,178,125,1.0,-0.139919655122,0.315097826042,1,1.0,1.0,0.308852718212,0,nan,nan,nan,nan,nan,nan,nan,nan,nan,0.0,0.0,0.0,nan,nan,309.136508725,342.570975185,342.879827904,343.070997423,nan,nan
0,27,1240,6,1,294,206,0.0948761993654,0.381212130724,0.559858230992,1,1.0,1.0,0.380706572905,1,nan,nan,nan,nan,nan,nan,nan,-121.093875414,300.0,0.0433537089178,0.395748422077,0.528951029102,4.37512541401,1.87550839968,309.136508725,343.571098062,343.951804635,344.071129138,345.396326467,347.279875173
0,28,1241,6,1,497,349,0.723174939644,0.271260599794,-1.0,1,1.0,1.0,0.527288630605,0,nan,nan,nan,nan,nan,nan,nan,nan,nan,0.0,0.0,0.0,nan,nan,309.136508725,348.488401968,349.015690599,348.988476379,nan,nan
0,29,1242,6,1,367,258,-0.15309091083,0.477560897992,-0.0350816338538,1,1.0,1.0,0.326808127575,0,nan,nan,nan,nan,nan,nan,nan,nan,nan,0.0,0.0,0.0,nan,nan,309.136508725,349.496867069,349.823675197,349.996900995,nan,nan
0,30,1243,6,1,154,108,1.0,-0.251813147593,0.102138173725,1,1.0,1.0,0.334663690999,0,nan,nan,nan,nan,nan,nan,nan,nan,nan,0.0,0.0,0.0,nan,nan,309.136508725,350.497005056,350.831668747,350.997028434,nan,nan
0,31,1244,6,1,268,188,0.35230222188,0.302367520405,0.645005310408,1,1.0,1.0,0.278503000736,0,nan,nan,nan,nan,nan,nan,nan,nan,nan,0.0,0.0,0.0,nan,nan,309.136508725,351.497124512,351.775627512,351.997157012,nan,nan
0,32,1245,6,1,30,21,1.0,0.071945658744,-1.0,1,1.0,1.0,0.318356142379,0,nan,nan,nan,nan,nan,nan,nan,nan,nan,0.0,0.0,0.0,nan,nan,309.136508725,352.49725423,352.815610372,352.997291578,nan,nan
0,33,1246,6,1,421,296,0.121471671064,0.452518040197,-0.712610339232,1,1.0,1.0,0.325874149799,0,nan,nan,nan,nan,nan,nan,nan,nan,nan,0.0,0.0,0.0,nan,nan,309.136508725,353.505712204,353.831586353,354.005772644,nan,nan
0,34,1247,6,1,236,165,0.697004556276,0.169301754335,0.634065852989,1,1.0,1.0,0.340356223285,0,nan,nan,nan,nan,nan,nan,nan,nan,nan,0.0,0.0,0.0,nan,nan,309.136508725,354.539203689,354.879559913,355.03923505,nan,nan
0,35,1248,6,1,306,215,-0.00395437407881,0.408974006242,0.494128827808,1,1.0,1.0,0.412236591801,0,nan,nan,nan,nan,nan,nan,nan,nan,nan,0.0,0.0,0.0,nan,nan,309.136508725,355.539314592,355.951551184,356.039350799,nan,nan
0,36,1249,6,1,50,35,1.0,-0.033148730948,-1.0,1,1.0,1.0,0.428078861907,0,nan,nan,nan,nan,nan,nan,nan,nan,nan,0.0,0.0,0.0,nan,nan,309.136508725,356.539450299,356.967529161,357.039472821,nan,nan
0,37,1250,6,1,346,243,-0.174317561957,0.466431294057,0.176670174816,1,1.0,1.0,0.403926013969,0,nan,nan,nan,nan,nan,nan,nan,nan,nan,0.0,0.0,0.0,nan,nan,309.136508725,357.539593987,357.943520001,358.039605676,nan,nan
0,38,1251,6,1,27,18,1.0,0.0870912575778,-1.0,1,1.0,1.0,0.531429379247,0,nan,nan,nan,nan,nan,nan,nan,nan,nan,0.0,0.0,0.0,nan,nan,309.136508725,358.548042553,359.079471932,359.048118673,nan,nan
0,39,1252,6,1,356,250,-0.17284377641,0.473239407326,0.0788368070227,1,1.0,1.0,0.483306144364,0,nan,nan,nan,nan,nan,nan,nan,nan,nan,0.0,0.0,0.0,nan,nan,309.136508725,359.548172557,360.031478701,360.048197645,nan,nan
0,40,1253,6,0,71,49,1.0,-0.144504067012,-0.877980773838,0,1.0,0.0,0.347134119831,0,0.0,0.0,nan,nan,nan,nan,nan,nan,nan,0.0,0.0,0.0,nan,nan,309.136508725,360.548335061,360.895469181,361.048362716,nan,nan
0,41,1254,6,1,410,288,0.0492046846968,0.463921527344,-0.54316189137,1,1.0,1.0,0.522984520532,0,nan,nan,nan,nan,nan,nan,nan,nan,nan,0.0,0.0,0.0,nan,nan,309.136508725,361.54843285,362.071417371,362.048509541,nan,nan
0,42,1255,6,1,132,92,1.0,-0.307426825298,-0.115555361894,1,1.0,1.0,0.378841183148,0,nan,nan,nan,nan,nan,nan,nan,nan,nan,0.0,0.0,0.0,nan,nan,309.136508725,362.548570837,362.92741202,363.048588513,nan,nan
0,43,1256,6,0,75,52,1.0,-0.164714458691,-0.791355921409,0,0.0,1.0,0.500254306942,0,nan,nan,nan,nan,nan,nan,nan,nan,nan,0.0,0.0,0.0,nan,nan,309.136508725,363.548719943,364.04897425,364.048782093,nan,nan
0,44,1257,6,1,486,341,0.631151757674,0.309603058574,-1.0,1,1.0,1.0,0.354207945988,0,nan,nan,nan,nan,nan,nan,nan,nan,nan,0.0,0.0,0.0,nan,nan,309.136508725,364.557162235,364.911370181,365.057180482,nan,nan
0,45,1258,6,1,118,82,1.0,-0.308588151016,-0.261285249573,1,1.0,1.0,0.402068321593,0,nan,nan,nan,nan,nan,nan,nan,nan,nan,0.0,0.0,0.0,nan,nan,309.136508725,365.557289104,365.959357426,366.057313337,nan,nan
0,46,1259,6,1,165,116,1.0,-0.205056383665,0.203745440608,1,1.0,1.0,0.425894163549,0,nan,nan,nan,nan,nan,nan,nan,nan,nan,0.0,0.0,0.0,nan,nan,309.136508725,366.557436214,366.983330377,367.057470996,nan,nan
0,47,1300,6,1,342,240,-0.170052622031,0.462913557708,0.21407524247,1,1.0,1.0,0.513407827355,0,nan,nan,nan,nan,nan,nan,nan,nan,nan,0.0,0.0,0.0,nan,nan,309.136508725,367.565881643,368.07928947,368.065949496,nan,nan
0,48,1301,6,1,431,303,0.191957257768,0.43918128748,-0.982298765802,1,1.0,1.0,0.336943327449,0,nan,nan,nan,nan,nan,nan,nan,nan,nan,0.0,0.0,0.0,nan,nan,309.136508725,368.574347313,368.91129064,369.074388367,nan,nan
0,49,1307,6,1,165,116,1.0,-0.205056383665,0.203745440608,1,1.0,1.0,0.320821946487,1,nan,nan,nan,nan,nan,nan,nan,-10.9620872623,144.0,1.0,-0.284423189345,0.00519445478499,-15.0535377377,2.74234927911,309.136508725,369.574462777,369.895284723,370.074511529,371.399674932,374.1500591
0,50,1308,6,1,222,156,0.841778467246,0.0997291618919,0.589484691865,1,1.0,1.0,0.656535648741,0,nan,nan,nan,nan,nan,nan,nan,nan,nan,0.0,0.0,0.0,nan,nan,309.136508725,375.358587892,376.015123541,375.858635218,nan,nan
0,51,1309,6,1,84,59,1.0,-0.20765784414,-0.652191087791,1,1.0,1.0,0.432439706288,0,nan,nan,nan,nan,nan,nan,nan,nan,nan,0.0,0.0,0.0,nan,nan,309.136508725,376.358680548,376.791120254,376.858713619,nan,nan
0,52,1310,6,1,437,307,0.23613482661,0.429770237144,-1.0,1,1.0,1.0,0.336303284392,0,nan,nan,nan,nan,nan,nan,nan,nan,nan,0.0,0.0,0.0,nan,nan,309.136508725,377.358823381,377.695126666,377.858844479,nan,nan
0,53,1311,6,1,299,210,0.0516645560415,0.393417669654,0.534378752182,1,1.0,1.0,0.359834620729,0,nan,nan,nan,nan,nan,nan,nan,nan,nan,0.0,0.0,0.0,nan,nan,309.136508725,378.367268525,378.727103146,378.867313855,nan,nan
0,54,1312,6,1,169,118,1.0,-0.185917379452,0.239118302078,1,1.0,1.0,0.319596598856,0,nan,nan,nan,nan,nan,nan,nan,nan,nan,0.0,0.0,0.0,nan,nan,309.136508725,379.367457259,379.687053858,379.867455834,nan,nan
0,55,1313,6,1,286,201,0.169078956243,0.359734776014,0.594698705761,1,1.0,1.0,0.383512783796,0,nan,nan,nan,nan,nan,nan,nan,nan,nan,0.0,0.0,0.0,nan,nan,309.136508725,380.367543358,380.751056142,380.867571013,nan,nan
0,56,1314,6,1,342,240,-0.170052622031,0.462913557708,0.21407524247,1,1.0,1.0,0.349313400686,0,nan,nan,nan,nan,nan,nan,nan,nan,nan,0.0,0.0,0.0,nan,nan,309.136508725,381.417720147,381.767033548,381.91772813,nan,nan
0,57,1315,6,1,6,4,0.895129075663,0.186272780825,-1.0,1,1.0,1.0,0.380895592272,0,nan,nan,nan,nan,nan,nan,nan,nan,nan,0.0,0.0,0.0,nan,nan,309.136508725,382.426121386,382.807016978,382.926193801,nan,nan
0,58,1316,6,1,162,113,1.0,-0.218739557155,0.176632971453,1,1.0,1.0,0.492708358914,0,nan,nan,nan,nan,nan,nan,nan,nan,nan,0.0,0.0,0.0,nan,nan,309.136508725,383.426269636,383.918977995,383.934629821,nan,nan
0,59,1317,6,1,414,291,0.0747837862165,0.460162189034,-0.600089175003,1,1.0,1.0,0.452543891966,0,nan,nan,nan,nan,nan,nan,nan,nan,nan,0.0,0.0,0.0,nan,nan,309.136508725,384.426415891,384.878959783,384.926428435,nan,nan
0,60,1318,6,1,241,169,0.64365311028,0.192605941253,0.644254782112,1,nan,nan,nan,0,nan,nan,nan,nan,nan,nan,nan,nan,nan,0.0,0.0,0.0,nan,nan,309.136508725,385.434879852,nan,385.935007575,nan,nan
0,61,1319,6,1,75,52,1.0,-0.164714458691,-0.791355921409,1,1.0,1.0,0.427914931439,0,nan,nan,nan,nan,nan,nan,nan,nan,nan,0.0,0.0,0.0,nan,nan,309.136508725,386.435003868,386.8629188,386.93503523,nan,nan
0,62,1320,6,1,158,111,1.0,-0.235949227405,0.139764106,1,1.0,1.0,0.323485322297,0,nan,nan,nan,nan,nan,nan,nan,nan,nan,0.0,0.0,0.0,nan,nan,309.136508725,387.443473531,387.766958853,387.9435009,nan,nan
0,63,1327,6,1,258,181,0.459642287315,0.26499291187,0.655490062901,1,1.0,1.0,0.322975283489,1,nan,nan,nan,nan,nan,nan,nan,-147.449996508,338.0,-0.162891363375,0.458928707883,0.250399161362,56.0437465078,3.75081380922,309.136508725,388.451914398,388.774889681,388.95195146,390.277123987,394.035968694
0,64,1328,6,0,23,16,1.0,0.106943944166,-1.0,0,0.0,1.0,0.754204182886,0,nan,nan,nan,nan,nan,nan,nan,nan,nan,0.0,0.0,0.0,nan,nan,309.136508725,395.244493779,395.998697962,395.744561632,nan,nan
0,65,1329,6,1,295,207,0.0860222946478,0.38372732295,0.554986075565,1,1.0,1.0,0.473783048801,0,nan,nan,nan,nan,nan,nan,nan,nan,nan,0.0,0.0,0.0,nan,nan,309.136508725,396.252933506,396.726716555,396.752955743,nan,nan
0,66,1330,6,1,485,341,0.622774561467,0.312875618285,-1.0,1,1.0,1.0,0.35331302695,0,nan,nan,nan,nan,nan,nan,nan,nan,nan,0.0,0.0,0.0,nan,nan,309.136508725,397.261385776,397.614698803,397.76142512,nan,nan
0,67,1331,6,0,193,135,1.0,-0.0580453890011,0.428658791268,0,1.0,0.0,0.28112019226,0,0.0,0.0,nan,nan,nan,nan,nan,nan,nan,0.0,0.0,0.0,nan,nan,309.136508725,398.261555694,398.542675886,398.76158563,nan,nan
0,68,1332,6,1,249,175,0.557275547736,0.228026269286,0.654084877906,1,1.0,1.0,0.360638595186,0,nan,nan,nan,nan,nan,nan,nan,nan,nan,0.0,0.0,0.0,nan,nan,309.136508725,399.269996561,399.630635156,399.770027922,nan,nan
0,69,1333,6,1,35,24,1.0,0.0462653595507,-1.0,1,1.0,1.0,0.320506057702,0,nan,nan,nan,nan,nan,nan,nan,nan,nan,0.0,0.0,0.0,nan,nan,309.136508725,400.270122005,400.590628062,400.770169616,nan,nan
0,70,1334,6,0,498,350,0.731507943485,0.267561876527,-1.0,0,1.0,0.0,0.400330940261,0,0.0,0.0,nan,nan,nan,nan,nan,nan,nan,0.0,0.0,0.0,nan,nan,309.136508725,401.270281089,401.670612029,401.770307602,nan,nan
0,71,1335,6,1,415,291,0.0813077335083,0.459153678902,-0.614968023274,1,1.0,1.0,0.399878776632,0,nan,nan,nan,nan,nan,nan,nan,nan,nan,0.0,0.0,0.0,nan,nan,309.136508725,402.27870485,402.678583627,402.778747045,nan,nan
0,72,1336,6,1,151,106,1.0,-0.262720288689,0.0734626651272,1,1.0,1.0,0.375749591738,0,nan,nan,nan,nan,nan,nan,nan,nan,nan,0.0,0.0,0.0,nan,nan,309.136508725,403.278852245,403.654601837,403.778880185,nan,nan
0,73,1337,6,1,98,68,1.0,-0.263822910468,-0.480217789416,1,1.0,1.0,0.359226508997,0,nan,nan,nan,nan,nan,nan,nan,nan,nan,0.0,0.0,0.0,nan,nan,309.136508725,404.287321052,404.646547561,404.787356404,nan,nan
0,74,1338,6,1,162,113,1.0,-0.218739557155,0.176632971453,1,1.0,1.0,0.374777411111,0,nan,nan,nan,nan,nan,nan,nan,nan,nan,0.0,0.0,0.0,nan,nan,309.136508725,405.295771897,405.670549308,405.795810386,nan,nan
0,75,1339,6,1,66,46,1.0,-0.118568705386,-1.0,1,1.0,1.0,0.406565156765,0,nan,nan,nan,nan,nan,nan,nan,nan,nan,0.0,0.0,0.0,nan,nan,309.136508725,406.295943811,406.702508967,406.795924709,nan,nan
0,76,1340,6,1,227,159,0.791019951953,0.125257787881,0.608066708266,1,1.0,1.0,0.430464554578,0,nan,nan,nan,nan,nan,nan,nan,nan,nan,0.0,0.0,0.0,nan,nan,309.136508725,407.296035897,407.726500452,407.796060415,nan,nan
0,77,1341,6,1,280,196,0.228089347314,0.342018854333,0.61587222022,1,nan,nan,nan,0,nan,nan,nan,nan,nan,nan,nan,nan,nan,0.0,0.0,0.0,nan,nan,309.136508725,408.29616476,nan,408.796240597,nan,nan
0,78,1342,6,1,194,136,1.0,-0.0524864644427,0.435571704399,1,1.0,1.0,0.470164597966,0,nan,nan,nan,nan,nan,nan,nan,nan,nan,0.0,0.0,0.0,nan,nan,309.136508725,409.296287637,409.766452235,409.796316147,nan,nan
0,79,1343,6,1,50,35,1.0,-0.033148730948,-1.0,1,1.0,1.0,0.325989614241,0,nan,nan,nan,nan,nan,nan,nan,nan,nan,0.0,0.0,0.0,nan,nan,309.136508725,410.296423629,410.622413243,410.796449003,nan,nan
0,80,1344,6,0,327,229,-0.128086156831,0.445480682368,0.344176439252,0,1.0,0.0,0.30180911161,0,0.0,0.0,0.365987774606,0.400141259655,0.0921852945185,0.492326554174,0.307955965137,nan,nan,0.0,0.0,0.0,nan,nan,309.136508725,411.296612078,411.59842119,411.796641443,nan,nan
0,81,1345,6,1,394,277,-0.0437090198531,0.474655926729,-0.339401417396,1,1.0,1.0,0.325735023245,0,0.0,0.0,0.317844583032,0.398896548921,0.0922572655878,0.491153814508,0.306639283333,nan,nan,0.0,0.0,0.0,nan,nan,309.136508725,412.296674799,412.622409822,412.796742653,nan,nan
0,82,1346,6,1,471,331,0.506014005179,0.354993781952,-1.0,1,1.0,1.0,0.373572305776,0,0.0,0.0,0.33370548021,0.39798202985,0.0920384798925,0.490020509742,0.305943549957,nan,nan,0.0,0.0,0.0,nan,nan,309.136508725,413.296807654,413.67037996,413.796841866,nan,nan
0,83,1347,6,0,250,175,0.546428449327,0.232286661223,0.654747725831,0,0.0,1.0,0.573360022157,0,0.0,0.0,0.424222450393,0.397680675231,0.0915082820997,0.489188957331,0.306172393132,nan,nan,0.0,0.0,0.0,nan,nan,309.136508725,414.296978713,414.870338735,414.797016346,nan,nan
0,84,1348,6,1,87,61,1.0,-0.220959007447,-0.612675615602,1,1.0,1.0,0.292911234312,0,0.0,0.0,0.413281187415,0.399823106292,0.0929700891558,0.492793195447,0.306853017136,nan,nan,0.0,0.0,0.0,nan,nan,309.136508725,415.305410457,415.598321691,415.805443243,nan,nan
0,85,1349,6,0,349,245,-0.175656888649,0.468768509344,0.147945183432,0,0.0,1.0,0.404783016071,0,0.0,0.0,0.423684757513,0.398535011448,0.0931415756757,0.491676587124,0.305393435773,nan,nan,0.0,0.0,0.0,nan,nan,309.136508725,416.305526776,416.710309792,416.805595485,nan,nan
0,86,1350,6,1,203,142,1.0,-0.00249325098487,0.493674673203,1,1.0,1.0,0.292636686005,0,0.0,0.0,0.330110312129,0.398609392456,0.0925879814358,0.491197373892,0.30602141102,nan,nan,0.0,0.0,0.0,nan,nan,309.136508725,417.305661912,417.598298598,417.805693558,nan,nan
0,87,1351,6,1,325,228,-0.119404900653,0.442631039184,0.360186421743,1,1.0,1.0,0.436464705504,0,0.0,0.0,0.377961469193,0.397362654733,0.0927482979756,0.490110952708,0.304614356757,nan,nan,0.0,0.0,0.0,nan,nan,309.136508725,418.305804176,418.742268882,418.805818716,nan,nan
0,88,1352,6,0,499,350,0.739831889234,0.263827757734,-1.0,0,0.0,1.0,0.420309399255,0,0.0,0.0,0.383136930255,0.397817329742,0.0923027228633,0.490120052605,0.305514606879,nan,nan,0.0,0.0,0.0,nan,nan,309.136508725,419.305948149,419.726257549,419.805981792,nan,nan
0,89,1353,6,1,373,262,-0.135407706169,0.478559568072,-0.0996974893599,1,1.0,1.0,0.316156619228,0,0.0,0.0,0.390976907996,0.398075859276,0.0918020262499,0.489877885526,0.306273833027,nan,nan,0.0,0.0,0.0,nan,nan,309.136508725,420.30605221,420.622208829,420.806087277,nan,nan
0,90,1354,6,1,167,117,1.0,-0.195605812978,0.221546716301,1,1.0,1.0,0.508028901182,0,0.0,0.0,0.414831639888,0.397144958821,0.091690979858,0.488835938679,0.305453978963,nan,nan,0.0,0.0,0.0,nan,nan,309.136508725,421.306199036,421.814227937,421.806261756,nan,nan
0,91,1355,6,1,493,346,0.689769084006,0.285700779988,-1.0,1,1.0,1.0,0.46752260346,0,0.0,0.0,0.430569374623,0.398390845814,0.0919204497975,0.490311295612,0.306470396017,nan,nan,0.0,0.0,0.0,nan,nan,309.136508725,422.314652447,422.78217505,422.814672974,nan,nan
0,92,1356,6,1,58,40,1.0,-0.0760896648475,-1.0,1,1.0,1.0,0.403394878842,0,0.0,0.0,0.459648794495,0.399158976455,0.091695143867,0.490854120322,0.307463832588,nan,nan,0.0,0.0,0.0,nan,nan,309.136508725,423.314776463,423.718171342,423.814813811,nan,nan
0,93,1357,6,1,261,183,0.427225806086,0.276617811781,0.653674462902,1,1.0,1.0,0.451231304556,0,0.0,0.0,0.440716262286,0.399205524833,0.0911910018506,0.490396526683,0.308014522982,nan,nan,0.0,0.0,0.0,nan,nan,309.136508725,424.314946952,424.766178257,424.814942676,nan,nan
0,94,1358,6,1,125,87,1.0,-0.311567427947,-0.187805059354,1,1.0,1.0,0.500273978338,0,0.0,0.0,0.451633387245,0.399771022438,0.0908543359849,0.490625358423,0.308916686453,nan,nan,0.0,0.0,0.0,nan,nan,309.136508725,425.323360165,425.823634143,425.823471922,nan,nan
0,95,1359,6,1,407,286,0.0305886347219,0.46645515455,-0.502577406972,1,1.0,1.0,0.418578575365,0,0.0,0.0,0.45669461942,0.400851699383,0.0909571083311,0.491808807715,0.309894591052,nan,nan,0.0,0.0,0.0,nan,nan,309.136508725,426.323514687,426.742093262,426.823526376,nan,nan
0,96,1400,6,1,107,75,1.0,-0.290089771429,-0.379592780214,1,1.0,1.0,0.346446750686,0,0.0,0.0,0.421766434796,0.40104028317,0.0904902772393,0.49153056041,0.310550005931,nan,nan,0.0,0.0,0.0,nan,nan,309.136508725,427.323629866,427.670076617,427.823668354,nan,nan
0,97,1401,6,1,499,350,0.739831889234,0.263827757734,-1.0,1,1.0,1.0,0.330297715962,0,0.0,0.0,0.365107680671,0.400465614407,0.0901850242222,0.49065063863,0.310280590185,nan,nan,0.0,0.0,0.0,nan,nan,309.136508725,428.323760156,428.654057872,428.823801495,nan,nan
0,98,1402,6,1,359,252,-0.169222339917,0.474741883077,0.0483828026834,1,1.0,1.0,0.361796088517,0,0.0,0.0,0.346180185055,0.399734698799,0.0899964937735,0.489731192572,0.309738205025,nan,nan,0.0,0.0,0.0,nan,nan,309.136508725,429.332238941,429.694035029,429.832256617,nan,nan
0,99,1403,6,1,88,61,1.0,-0.225257592204,-0.599932847766,1,1.0,1.0,0.361639000475,0,0.0,0.0,0.351244268318,0.399343579105,0.0896133684568,0.488956947562,0.309730210648,nan,nan,0.0,0.0,0.0,nan,nan,309.136508725,430.332390327,430.694029327,430.832382915,nan,nan
0,100,1404,6,1,408,286,0.036737934283,0.465637664749,-0.515938449969,1,1.0,1.0,0.36950169038,0,0.0,0.0,0.364312259791,0.398958838507,0.0892354739775,0.488194312484,0.309723364529,nan,nan,0.0,0.0,0.0,nan,nan,309.136508725,431.332483839,431.70198553,431.832508927,nan,nan
0,101,1405,6,1,500,351,0.748145934353,0.260058294274,-1.0,1,1.0,1.0,0.433018738404,0,0.0,0.0,0.388053143087,0.398661291556,0.0888324947745,0.48749378633,0.309828796782,nan,nan,0.0,0.0,0.0,nan,nan,309.136508725,432.340960913,432.773979652,432.841013657,nan,nan
0,102,1406,6,1,301,211,0.0351599448551,0.39804275895,0.523414514543,1,1.0,1.0,0.408857622184,0,0.0,0.0,0.403792683656,0.399004866024,0.0884533001346,0.487458166159,0.31055156589,nan,nan,0.0,0.0,0.0,nan,nan,309.136508725,433.341084931,433.749942553,433.841103177,nan,nan
0,103,1407,6,1,22,15,1.0,0.111842423158,-1.0,1,1.0,1.0,0.568726910278,0,0.0,0.0,0.470201090289,0.399102418066,0.0880197292306,0.487122147296,0.311082688835,nan,nan,0.0,0.0,0.0,nan,nan,309.136508725,434.341205527,434.909932437,434.841305881,nan,nan
0,104,1408,6,1,333,234,-0.149813480994,0.453275949072,0.294183738108,1,1.0,1.0,0.312587488443,0,0.0,0.0,0.430057340302,0.400765403283,0.089167452706,0.489932855989,0.311597950577,nan,nan,0.0,0.0,0.0,nan,nan,309.136508725,435.341332681,435.653920169,435.841380007,nan,nan
0,105,1409,6,1,266,187,0.373577590308,0.295207490188,0.648113769863,1,1.0,1.0,0.280412010849,0,0.0,0.0,0.387242136523,0.399909307023,0.0891537881152,0.489063095138,0.310755518908,nan,nan,0.0,0.0,0.0,nan,nan,309.136508725,436.341468101,436.621880112,436.841513147,nan,nan
0,106,1410,6,1,450,316,0.335949728395,0.405598329481,-1.0,1,1.0,1.0,0.263927986845,0,1.0,0.0,0.285642495379,0.39876029456,0.0894871760927,0.488247470652,0.309273118467,nan,nan,0.0,0.0,0.0,nan,nan,309.136508725,437.349930066,437.613858053,437.849962852,nan,nan
0,107,1417,6,1,358,251,-0.170583909915,0.474268316859,0.0585874414746,1,1.0,1.0,0.295782730915,1,0.0,0.0,0.280040909536,0.397476177343,0.0900176648252,0.487493842169,0.307458512518,-164.969569477,363.0,-0.162287729338,0.476365729747,0.00704812682028,3.25081947657,3.5841235742,309.136508725,438.350062636,438.645845367,438.850092,440.175261106,443.767423561
0,108,1418,6,1,95,66,1.0,-0.253175017597,-0.514975443931,1,nan,nan,nan,0,0.0,0.0,0.27985535888,0.396516805207,0.0901297750494,0.486646580257,0.306387030158,nan,nan,0.0,0.0,0.0,nan,nan,309.136508725,444.984258369,nan,445.484354446,nan,nan
0,109,1419,6,1,479,336,0.572572153349,0.331768222426,-1.0,1,1.0,1.0,0.381305562332,0,0.0,0.0,0.338544146623,0.396516805207,0.0901297750494,0.486646580257,0.306387030158,nan,nan,0.0,0.0,0.0,nan,nan,309.136508725,445.984389513,446.365695075,446.484447958,nan,nan
0,110,1420,6,1,9,6,0.918933560847,0.172916688009,-1.0,1,1.0,1.0,0.277179010212,0,0.0,0.0,0.329242286272,0.396374644059,0.0897195585326,0.486094202591,0.306655085526,nan,nan,0.0,0.0,0.0,nan,nan,309.136508725,446.984506973,447.261685983,447.484548312,nan,nan
0,111,1421,6,1,86,60,1.0,-0.21659106269,-0.625617802914,1,1.0,1.0,0.220715262927,0,1.0,0.0,0.293066611824,0.395270980782,0.0900299929393,0.485300973722,0.305240987843,nan,nan,0.0,0.0,0.0,nan,nan,309.136508725,447.992970648,448.213685911,448.493037361,nan,nan
0,112,1426,6,1,321,225,-0.0999433513493,0.43654647086,0.391174984052,1,1.0,1.0,0.236195460893,1,0.0,0.0,0.244696578011,0.393669552178,0.0911482973522,0.48481784953,0.302521254826,169.875328345,398.0,-0.0220377755791,0.472608796233,-0.387943383198,54.4215466554,2.10056711547,309.136508725,449.001436603,449.237632064,449.501540379,450.826645337,452.935245631
0,113,1427,6,0,133,93,1.0,-0.306259573676,-0.105336427414,0,0.0,1.0,0.669686889276,0,0.0,0.0,0.375532537699,0.39223796953,0.0919558180601,0.48419378759,0.30028215147,nan,nan,0.0,0.0,0.0,nan,nan,309.136508725,454.143818897,454.813505786,454.643851683,nan,nan
0,114,1428,6,1,336,236,-0.158211608236,0.456758111158,0.268135266647,1,1.0,1.0,0.405269105919,0,0.0,0.0,0.437050485363,0.394737509348,0.0952204829159,0.489957992264,0.299517026432,nan,nan,0.0,0.0,0.0,nan,nan,309.136508725,455.152234675,455.557503781,455.652268318,nan,nan
0,115,1429,6,1,32,22,1.0,0.061735800531,-1.0,1,1.0,1.0,0.381120818667,0,0.0,0.0,0.485358937954,0.39483154146,0.0947996150217,0.489631156482,0.300031926438,nan,nan,0.0,0.0,0.0,nan,nan,309.136508725,456.152374659,456.533495477,456.652422555,nan,nan
0,116,1430,6,1,346,243,-0.174317561957,0.466431294057,0.176670174816,1,1.0,1.0,0.291283329949,0,0.0,0.0,0.359224418178,0.39471020763,0.0943879503929,0.489098158023,0.300322257237,nan,nan,0.0,0.0,0.0,nan,nan,309.136508725,457.194190977,457.485474307,457.694218061,nan,nan
0,117,1431,6,1,389,273,-0.0691208065164,0.476626077068,-0.280234315682,1,1.0,1.0,0.379155360162,0,0.0,0.0,0.350519836259,0.393802954317,0.0944666426748,0.488269596992,0.299336311642,nan,nan,0.0,0.0,0.0,nan,nan,309.136508725,458.194312428,458.573467788,458.694335806,nan,nan
0,118,1432,6,1,222,156,0.841778467246,0.0997291618919,0.589484691865,1,1.0,1.0,0.363004899584,0,0.0,0.0,0.344481196565,0.393675583933,0.0940648525713,0.487740436504,0.299610731362,nan,nan,0.0,0.0,0.0,nan,nan,309.136508725,459.19444785,459.557452749,459.694462105,nan,nan
0,119,1433,6,1,376,264,-0.124962824795,0.478704673615,-0.132627625282,1,1.0,1.0,0.354860533029,0,0.0,0.0,0.365673597592,0.393411181482,0.0937014323732,0.487112613855,0.299709749109,nan,nan,0.0,0.0,0.0,nan,nan,309.136508725,460.194556187,460.54941672,460.694593819,nan,nan
0,120,1434,6,0,293,206,0.103830259013,0.378659598285,0.564617056734,0,0.0,1.0,0.418660397641,0,0.0,0.0,0.378841943418,0.39308168876,0.0933676048835,0.486449293643,0.299714083876,nan,nan,0.0,0.0,0.0,nan,nan,309.136508725,461.194710424,461.613370822,461.694744635,nan,nan
0,121,1435,6,1,198,139,1.0,-0.0302354974571,0.462326941081,1,1.0,1.0,0.282539119944,0,0.0,0.0,0.352020016871,0.393298457479,0.0930006995491,0.486299157028,0.30029775793,nan,nan,0.0,0.0,0.0,nan,nan,309.136508725,462.194827884,462.477367003,462.694850122,nan,nan
0,122,1436,6,1,375,263,-0.128556699755,0.478682433309,-0.121605159467,1,1.0,1.0,0.330044264905,0,0.0,0.0,0.343747927497,0.392367706744,0.0931593870143,0.485527093758,0.299208319729,nan,nan,0.0,0.0,0.0,nan,nan,309.136508725,463.203292129,463.533336394,463.703315507,nan,nan
0,123,1437,6,0,160,112,1.0,-0.227501418013,0.158297521075,0,1.0,0.0,0.345873420127,0,0.0,0.0,0.319485601659,0.391848344728,0.0929432505283,0.484791595257,0.2989050942,nan,nan,0.0,0.0,0.0,nan,nan,309.136508725,464.203440379,464.549313799,464.703482574,nan,nan
0,124,1438,6,1,93,65,1.0,-0.245614297951,-0.538619881923,1,1.0,1.0,0.35375293158,0,0.0,0.0,0.343223538871,0.391468386674,0.0926519285434,0.484120315217,0.29881645813,nan,nan,0.0,0.0,0.0,nan,nan,309.136508725,465.203549286,465.557302218,465.703566678,nan,nan
0,125,1439,6,1,317,222,-0.077772836126,0.429938605076,0.420733606481,1,1.0,1.0,0.40160418395,0,0.0,0.0,0.367076845219,0.391159243599,0.0923340673628,0.483493310962,0.298825176236,nan,nan,0.0,0.0,0.0,nan,nan,309.136508725,466.203666177,466.605270361,466.703703524,nan,nan
0,126,1440,6,1,79,55,1.0,-0.184296021705,-0.724170777997,1,1.0,1.0,0.681446570903,0,0.0,0.0,0.478934562144,0.391244161813,0.0919627429551,0.483206904769,0.299281418858,nan,nan,0.0,0.0,0.0,nan,nan,309.136508725,467.203797036,467.885243607,467.703871446,nan,nan
0,127,1441,6,1,29,20,1.0,0.0770173926463,-1.0,1,1.0,1.0,0.432966565713,0,0.0,1.0,0.505339106855,0.393584503822,0.095197893827,0.488782397649,0.298386609995,nan,nan,0.0,0.0,0.0,nan,nan,309.136508725,468.212259855,468.645226421,468.712326854,nan,nan
0,128,1448,6,1,498,350,0.731507943485,0.267561876527,-1.0,1,1.0,1.0,0.392811222002,1,0.0,0.0,0.502408119539,0.393899560317,0.0948812214876,0.488780781805,0.29901833883,98.8646233884,499.0,0.739831889234,0.263827757734,-1.0,0.979126611589,3.69245787244,309.136508725,469.21240611,469.605217332,469.712424926,471.037596027,474.738069688
0,129,1449,6,1,441,310,0.266287261384,0.422891888867,-1.0,1,1.0,1.0,0.714468216524,0,0.0,0.0,0.513415334746,0.393890922712,0.0945040080174,0.488394930729,0.299386914694,nan,nan,0.0,0.0,0.0,nan,nan,309.136508725,475.94658793,476.661056147,476.446674029,nan,nan
0,130,1450,6,1,301,211,0.0351599448551,0.39804275895,0.523414514543,1,1.0,1.0,0.402352278121,0,0.0,0.0,0.503210572215,0.396415153372,0.0983032244176,0.494718377789,0.298111928954,nan,nan,0.0,0.0,0.0,nan,nan,309.136508725,476.946736466,477.349088744,477.446759844,nan,nan
0,131,1451,6,1,354,248,-0.174470673547,0.472100788149,0.0988677247603,1,1.0,1.0,0.28184946999,0,0.0,0.0,0.466223321545,0.396461537159,0.0979198697153,0.494381406874,0.298541667443,nan,nan,0.0,0.0,0.0,nan,nan,309.136508725,477.955194724,478.237044194,478.455229791,nan,nan
0,132,1452,6,1,184,129,1.0,-0.107671891867,0.362640045218,1,1.0,1.0,0.241691845469,0,0.0,0.0,0.30863119786,0.395573071522,0.098056170042,0.493629241564,0.29751690148,nan,nan,0.0,0.0,0.0,nan,nan,309.136508725,478.955327294,479.197019139,479.455370629,nan,nan
0,133,1453,6,1,309,217,-0.0258396312562,0.415106541901,0.475305697888,1,1.0,1.0,0.337546876632,0,1.0,0.0,0.287029397363,0.394389369783,0.0985991844483,0.492988554231,0.295790185335,nan,nan,0.0,0.0,0.0,nan,nan,309.136508725,479.955444754,480.292991631,480.45547925,nan,nan
0,134,1459,6,1,194,136,1.0,-0.0524864644427,0.435571704399,1,1.0,1.0,0.313045069575,1,0.0,0.0,0.297427930559,0.393955457621,0.0983466488282,0.49230210645,0.295608808793,-28.9557331368,169.0,1.0,-0.185917379452,0.239118302078,-17.4505168632,3.47573596425,309.136508725,480.963920973,481.276966043,481.463944351,482.789118873,486.272905977
0,135,1500,6,1,9,6,0.918933560847,0.172916688009,-1.0,1,1.0,1.0,0.411386718042,0,0.0,0.0,0.353992888083,0.393342500136,0.0982242792784,0.491566779415,0.295118220858,nan,nan,0.0,0.0,0.0,nan,nan,309.136508725,487.481424789,487.892811507,487.981462992,nan,nan
0,136,1501,6,1,334,234,-0.152796554809,0.454467054946,0.285576400052,1,1.0,1.0,0.306916624308,0,0.0,0.0,0.343782803975,0.393478170948,0.0978667322716,0.491344903219,0.295611438676,nan,nan,0.0,0.0,0.0,nan,nan,309.136508725,488.489891886,488.79680851,488.989927523,nan,nan
0,137,1502,6,1,271,190,0.320642857732,0.312811632898,0.639400143054,1,1.0,1.0,0.322485486977,0,0.0,0.0,0.346929609776,0.392832189256,0.0977850720819,0.490617261338,0.295047117174,nan,nan,0.0,0.0,0.0,nan,nan,309.136508725,489.498365824,489.820851311,489.9983969,nan,nan
0,138,1503,6,1,344,241,-0.172543464245,0.464730234515,0.195503824632,1,1.0,1.0,0.361967716366,0,0.0,0.0,0.330456609217,0.392311102573,0.0976087930521,0.489919895625,0.294702309521,nan,nan,0.0,0.0,0.0,nan,nan,309.136508725,490.506830639,490.868798356,491.006852306,nan,nan
0,139,1504,6,1,497,349,0.723174939644,0.271260599794,-1.0,1,1.0,1.0,0.313818253577,0,0.0,0.0,0.332757152307,0.392087989439,0.0972838205227,0.489371809961,0.294804168916,nan,nan,0.0,0.0,0.0,nan,nan,309.136508725,491.506985446,491.8208037,492.00700968,nan,nan
0,140,1505,6,1,343,241,-0.171388175652,0.463836419185,0.204822810802,1,1.0,1.0,0.337636968121,0,0.0,0.0,0.337807646021,0.391516677498,0.0971568342748,0.488673511773,0.294359843223,nan,nan,0.0,0.0,0.0,nan,nan,309.136508725,492.507096919,492.844733887,493.007110034,nan,nan
0,141,1506,6,1,48,33,1.0,-0.0224273256894,-1.0,1,1.0,1.0,0.401502404362,0,0.0,0.0,0.350985875353,0.391126244822,0.0969119837427,0.488038228564,0.294214261079,nan,nan,0.0,0.0,0.0,nan,nan,309.136508725,493.50721666,493.908719065,494.007240608,nan,nan
0,142,1507,6,1,176,123,1.0,-0.150429669724,0.298675466069,1,1.0,1.0,0.361039155163,0,0.0,0.0,0.366726175882,0.391200893451,0.0965667319849,0.487767625436,0.294634161466,nan,nan,0.0,0.0,0.0,nan,nan,309.136508725,494.515670072,494.876709227,495.015703999,nan,nan
0,143,1508,6,1,327,229,-0.128086156831,0.445480682368,0.344176439252,1,1.0,1.0,0.384899494238,0,0.0,0.0,0.382480351254,0.390985452464,0.0962547520285,0.487240204492,0.294730700435,nan,nan,0.0,0.0,0.0,nan,nan,309.136508725,495.515807204,495.900706698,496.015839134,nan,nan
0,144,1509,6,1,496,348,0.714833717156,0.274923884212,-1.0,1,1.0,1.0,0.376408736221,0,0.0,0.0,0.374115795208,0.390942289639,0.095914175456,0.486856465095,0.295028114183,nan,nan,0.0,0.0,0.0,nan,nan,309.136508725,496.524273159,496.900681895,497.024297393,nan,nan
0,145,1510,6,1,180,126,1.0,-0.129278616986,0.331238955499,1,1.0,1.0,0.416197729297,0,0.0,0.0,0.392501986586,0.390839940672,0.0955835794288,0.4864235201,0.295256361243,nan,nan,0.0,0.0,0.0,nan,nan,309.136508725,497.52443766,497.94063539,498.02442084,nan,nan
0,146,1511,6,1,236,165,0.697004556276,0.169301754335,0.634065852989,1,1.0,1.0,0.37607659772,0,0.0,0.0,0.38956102108,0.391017267865,0.0952722214605,0.486289489325,0.295745046404,nan,nan,0.0,0.0,0.0,nan,nan,309.136508725,498.524536589,498.900613187,499.024587336,nan,nan
0,147,1512,6,0,0,0,0.846831709088,0.212097570855,-1.0,0,1.0,0.0,0.38358462695,0,0.0,0.0,0.391952984656,0.390913513211,0.0949489456194,0.48586245883,0.295964567592,nan,nan,0.0,0.0,0.0,nan,nan,309.136508725,499.53301794,499.916602567,500.033051866,nan,nan
0,148,1513,6,1,414,291,0.0747837862165,0.460162189034,-0.600089175003,1,1.0,1.0,0.463451988995,0,0.0,0.0,0.407704404555,0.390862969168,0.0946229129367,0.485485882105,0.296240056231,nan,nan,0.0,0.0,0.0,nan,nan,309.136508725,500.533120289,500.996572278,501.033146803,nan,nan
0,149,1514,6,1,36,25,1.0,0.0410699577143,-1.0,1,1.0,1.0,0.407298996113,0,0.0,0.0,0.418111870686,0.391360154235,0.0944881649926,0.485848319228,0.296871989243,nan,nan,0.0,0.0,0.0,nan,nan,309.136508725,501.53325172,501.940550716,502.033277663,nan,nan
0,150,1515,6,1,160,112,1.0,-0.227501418013,0.158297521075,1,1.0,1.0,0.463136957027,0,0.0,0.0,0.444629314045,0.391468581731,0.0941753417373,0.485643923468,0.297293239994,nan,nan,0.0,0.0,0.0,nan,nan,309.136508725,502.533392272,502.996529229,503.033408808,nan,nan
0,151,1516,6,1,271,190,0.320642857732,0.312811632898,0.639400143054,1,1.0,1.0,0.486666012555,0,0.0,0.0,0.452367321899,0.39195282751,0.0940400976379,0.485992925148,0.297912729872,nan,nan,0.0,0.0,0.0,nan,nan,309.136508725,503.541853381,504.028519394,504.041900422,nan,nan
0,152,1517,6,1,330,232,-0.139766326074,0.449518327743,0.319540245599,1,1.0,1.0,0.542506823316,0,0.0,1.0,0.497436597633,0.39258848647,0.0940424827881,0.486630969258,0.298546003682,nan,nan,0.0,0.0,0.0,nan,nan,309.136508725,504.541969131,505.084475954,505.042048958,nan,nan
0,153,1518,6,0,130,91,1.0,-0.309333154106,-0.136071487739,0,1.0,0.0,0.44633989688,0,0.0,0.0,0.491837577584,0.393587942049,0.094519132729,0.488107074778,0.29906880932,nan,nan,0.0,0.0,0.0,nan,nan,309.136508725,505.542135912,505.988475809,506.04215815,nan,nan
0,154,1519,6,1,388,272,-0.0739633693698,0.476941921698,-0.268577162136,1,1.0,1.0,0.406227031723,0,0.0,0.0,0.465024583973,0.393937292743,0.0943027500102,0.488240042753,0.299634542733,nan,nan,0.0,0.0,0.0,nan,nan,309.136508725,506.542228854,506.948455886,507.042268197,nan,nan
0,155,1520,6,0,480,337,0.580928072941,0.32870764083,-1.0,0,0.0,1.0,0.534025472589,0,0.0,0.0,0.462197467064,0.394018146289,0.0939972827014,0.488015428991,0.300020863588,nan,nan,0.0,0.0,0.0,nan,nan,309.136508725,507.542390219,508.076415692,508.042434979,nan,nan
0,156,1521,6,1,255,179,0.492159363509,0.253017189294,0.656163111527,1,1.0,1.0,0.341591548175,0,0.0,0.0,0.427281350829,0.394933226853,0.0943664213097,0.489299648163,0.300566805543,nan,nan,0.0,0.0,0.0,nan,nan,309.136508725,508.550828805,508.892420353,509.050862161,nan,nan
0,157,1522,6,1,189,132,1.0,-0.0802194643608,0.400143472992,1,1.0,1.0,0.325416854583,0,0.0,0.0,0.400344625115,0.394586852316,0.0941570649499,0.488743917266,0.300429787366,nan,nan,0.0,0.0,0.0,nan,nan,309.136508725,509.550978767,509.876395621,510.050987319,nan,nan
0,158,1523,6,1,90,63,1.0,-0.233635786423,-0.574971871003,1,1.0,1.0,0.291598076932,0,0.0,0.0,0.31953549323,0.394140594266,0.0940160852551,0.488156679521,0.300124509011,nan,nan,0.0,0.0,0.0,nan,nan,309.136508725,510.592764295,510.884362372,511.092783111,nan,nan
0,159,1524,6,0,27,18,1.0,0.0870912575778,-1.0,0,1.0,0.0,0.53945001401,0,0.0,0.0,0.385488315175,0.393483270437,0.0940709064489,0.487554176886,0.299412363988,nan,nan,0.0,0.0,0.0,nan,nan,309.136508725,511.592913115,512.132363129,512.092959872,nan,nan
0,160,1525,6,1,350,246,-0.175756816429,0.469490941964,0.138247479403,1,1.0,1.0,0.434999307618,0,0.0,0.0,0.42201579952,0.394412994919,0.0944871140081,0.488900108927,0.299925880911,nan,nan,0.0,0.0,0.0,nan,nan,309.136508725,512.601349136,513.036348443,513.101382777,nan,nan
0,161,1526,6,1,41,28,1.0,0.0148395037771,-1.0,1,0.0,0.0,0.570820093155,0,0.0,0.0,0.515089804928,0.394669870315,0.0942426081843,0.4889124785,0.300427262131,nan,nan,0.0,0.0,0.0,nan,nan,309.136508725,513.601481991,514.172302084,514.101556402,nan,nan
0,162,1527,6,1,91,63,1.0,-0.237709898716,-0.562722318432,1,1.0,1.0,0.450682493858,0,0.0,0.0,0.485500631543,0.395777733352,0.0949722728114,0.490750006164,0.300805460541,nan,nan,0.0,0.0,0.0,nan,nan,309.136508725,514.601617127,515.052299621,515.101636514,nan,nan
0,163,1528,6,1,409,287,0.0429436170054,0.464793150178,-0.529461854507,1,1.0,1.0,0.394526080228,0,0.0,0.0,0.472009555747,0.396120888105,0.0947738484422,0.490894736548,0.301347039663,nan,nan,0.0,0.0,0.0,nan,nan,309.136508725,515.601745706,515.996271786,516.101773646,nan,nan
0,164,1529,6,1,172,120,1.0,-0.170984061773,0.265024678188,1,1.0,1.0,0.354385562241,0,0.0,0.0,0.399864712109,0.396110982466,0.0944791443476,0.490590126814,0.301631838119,nan,nan,0.0,0.0,0.0,nan,nan,309.136508725,516.601868012,516.956253574,517.101920471,nan,nan
0,165,1530,6,1,406,285,0.0244967455079,0.467245700284,-0.489366101921,1,1.0,1.0,0.39421047736,0,0.0,0.0,0.38104070661,0.395853418144,0.0942437726631,0.490097190807,0.301609645481,nan,nan,0.0,0.0,0.0,nan,nan,309.136508725,517.60200543,517.996215907,518.102031373,nan,nan
0,166,1531,6,1,217,152,0.891250405156,0.0735373331823,0.568048345461,1,1.0,1.0,0.50024603866,0,0.0,0.0,0.416280692754,0.395843338753,0.0939543241654,0.489797662918,0.301889014587,nan,nan,0.0,0.0,0.0,nan,nan,309.136508725,518.610454564,519.110700603,519.110540093,nan,nan
0,167,1532,6,1,372,261,-0.138660017671,0.478458869494,-0.0888123791441,1,1.0,1.0,0.513578885235,0,0.0,0.0,0.469345133752,0.396479940581,0.0940193970188,0.4904993376,0.302460543563,nan,nan,0.0,0.0,0.0,nan,nan,309.136508725,519.610590556,520.124169441,520.110668672,nan,nan
0,168,1533,6,1,485,341,0.622774561467,0.312875618285,-1.0,1,1.0,1.0,0.48943858128,0,0.0,1.0,0.501087835059,0.397189631155,0.094173636194,0.491363267349,0.303015994961,nan,nan,0.0,0.0,0.0,nan,nan,309.136508725,520.610714572,521.100153154,521.1190816,nan,nan
0,169,1541,6,1,78,54,1.0,-0.179467652321,-0.739907630878,1,1.0,1.0,0.480940979905,1,0.0,0.0,0.494652815474,0.397745347722,0.0941605196325,0.491905867355,0.30358482809,45.0,64.0,1.0,-0.108036866323,-1.0,-9.84375,5.0509602353,309.136508725,521.619208753,522.100149733,522.119209608,523.444392683,528.50337954
0,170,1542,6,1,272,191,0.310166696092,0.316214117232,0.637281430288,1,1.0,1.0,0.524055629969,0,0.0,0.0,0.498145063718,0.39824352516,0.0940973454724,0.492340870633,0.304146179688,nan,nan,0.0,0.0,0.0,nan,nan,309.136508725,529.711908616,530.235964246,530.211968771,nan,nan
0,171,1543,6,1,335,235,-0.155595990888,0.455627721073,0.276893227044,1,1.0,1.0,0.331574095413,0,0.0,0.0,0.445523568429,0.398992406737,0.0943147058521,0.493307112589,0.304677700884,nan,nan,0.0,0.0,0.0,nan,nan,309.136508725,530.720362312,531.051936408,531.220426459,nan,nan
0,172,1544,6,1,473,332,0.522594813828,0.349396171415,-1.0,1,1.0,1.0,0.187433892861,0,0.0,0.0,0.347687872748,0.398593481817,0.0941773048382,0.492770786656,0.304416176979,nan,nan,0.0,0.0,0.0,nan,nan,309.136508725,531.720489466,531.907923358,532.220523678,nan,nan
0,173,1545,6,0,252,177,0.524721685615,0.240693665738,0.655694012224,0,1.0,0.0,0.163302712142,0,0.0,0.0,0.227436900139,0.397351366588,0.0952781911235,0.492629557712,0.302073175465,nan,nan,0.0,0.0,0.0,nan,nan,309.136508725,532.72064969,532.883952403,533.220696446,nan,nan
0,174,1546,6,1,138,97,1.0,-0.29832987918,-0.0546508148191,1,1.0,1.0,0.251167614013,0,0.0,0.0,0.200634739672,0.395982661007,0.0966608334171,0.492643494424,0.29932182759,nan,nan,0.0,0.0,0.0,nan,nan,309.136508725,533.720748334,533.971915948,534.220812481,nan,nan
0,175,1547,6,1,378,265,-0.117450136118,0.478670924818,-0.154810124165,1,1.0,1.0,0.234992636368,0,0.0,0.0,0.216487654174,0.395140713059,0.0970062521868,0.492146965246,0.298134460872,nan,nan,0.0,0.0,0.0,nan,nan,309.136508725,534.720884325,534.955876961,535.220909984,nan,nan
0,176,1548,6,1,255,179,0.492159363509,0.253017189294,0.656163111527,1,1.0,1.0,0.314819798805,0,1.0,0.0,0.266993349728,0.394215001633,0.0974844225071,0.49169942414,0.296730579126,nan,nan,0.0,0.0,0.0,nan,nan,309.136508725,535.721009768,536.035829566,536.221041699,nan,nan
0,177,1553,6,1,24,16,1.0,0.102019060141,-1.0,1,1.0,1.0,0.458690013736,1,0.0,0.0,0.33616748297,0.393758707364,0.0973889923892,0.491147699753,0.296369714975,62.1821592964,40.0,1.0,0.0201165467467,-1.0,10.9428407036,1.76718864124,309.136508725,536.721139202,537.179829216,537.221171132,538.54634537,540.321587431
0,178,1554,6,1,371,260,-0.14179360683,0.478331938097,-0.0779732583494,1,1.0,1.0,0.441262888722,0,0.0,0.0,0.404924233754,0.3941297434,0.0972335961517,0.491363339552,0.296896147249,nan,nan,0.0,0.0,0.0,nan,nan,309.136508725,541.538435638,541.979698527,542.038457306,nan,nan
0,179,1555,6,1,76,53,1.0,-0.169674511773,-0.773365826749,1,1.0,1.0,0.393129389733,0,0.0,0.0,0.431027430731,0.394397545362,0.0970216719477,0.49141921731,0.297375873415,nan,nan,0.0,0.0,0.0,nan,nan,309.136508725,542.538574195,542.931703585,543.038620382,nan,nan
0,180,1556,6,0,433,304,0.206536295144,0.436163724167,-1.0,0,0.0,1.0,0.472951706499,0,0.0,0.0,0.435781328318,0.394390380641,0.0967472579146,0.491137638556,0.297643122727,nan,nan,0.0,0.0,0.0,nan,nan,309.136508725,543.538735275,544.011686982,544.038747249,nan,nan
0,181,1557,6,1,120,84,1.0,-0.310161497659,-0.240162905937,1,1.0,1.0,0.320511190221,0,0.0,0.0,0.395530762151,0.394831736405,0.0966536402008,0.491485376605,0.298178096204,nan,nan,0.0,0.0,0.0,nan,nan,309.136508725,544.547163313,544.867674503,545.047182415,nan,nan
0,182,1558,6,1,8,5,0.91102658764,0.177400941622,-1.0,1,1.0,1.0,0.360348651186,0,0.0,0.0,0.384603849302,0.394416537823,0.0965423328284,0.490958870651,0.297874204994,nan,nan,0.0,0.0,0.0,nan,nan,309.136508725,545.547293887,545.907642539,546.047335227,nan,nan
0,183,1559,6,1,506,355,0.797774742377,0.236703125255,-1.0,1,1.0,1.0,0.35222766269,0,0.0,0.0,0.344362501365,0.394227271786,0.0963070816598,0.490534353446,0.297920190126,nan,nan,0.0,0.0,0.0,nan,nan,309.136508725,546.547421041,546.899648704,547.04746124,nan,nan
0,184,1600,6,1,145,101,1.0,-0.281667413287,0.0150551701241,1,1.0,1.0,0.623793683015,0,0.0,0.0,0.44545666563,0.393995229747,0.096091115183,0.49008634493,0.297904114564,nan,nan,0.0,0.0,0.0,nan,nan,309.136508725,547.555871031,548.179664714,548.055969104,nan,nan
0,185,1601,6,1,315,221,-0.0657111424032,0.426434809442,0.434956515233,1,1.0,1.0,0.495603804477,0,0.0,0.0,0.490541716727,0.395257858611,0.0973207316851,0.492578590296,0.297937126926,nan,nan,0.0,0.0,0.0,nan,nan,309.136508725,548.556016145,549.05161995,549.072703158,nan,nan
0,186,1602,6,1,464,326,0.448404880525,0.373503555275,-1.0,1,1.0,1.0,0.543416853994,0,0.0,1.0,0.554271447162,0.395806197113,0.0973359738891,0.493142171002,0.298470223224,nan,nan,0.0,0.0,0.0,nan,nan,309.136508725,549.55614615,550.099563004,550.056212862,nan,nan
0,187,1608,6,1,286,201,0.169078956243,0.359734776014,0.594698705761,1,1.0,1.0,0.526925701648,1,0.0,0.0,0.52198212004,0.396608428944,0.0976758695287,0.494284298472,0.298932559415,-124.743180158,305.0,0.00361192545304,0.406859252708,0.500196907155,13.6494301583,2.37562956475,309.136508725,550.564606974,551.091532676,551.064675682,552.389803449,554.773477026
0,188,1609,6,1,509,357,0.822386376617,0.224555004187,-1.0,1,1.0,1.0,0.589096806943,0,0.0,0.0,0.553146454195,0.397312846634,0.0978790396246,0.495191886258,0.299433807009,nan,nan,0.0,0.0,0.0,nan,nan,309.136508725,555.990290451,556.579387258,556.490376265,nan,nan
0,189,1610,6,1,33,23,1.0,0.0565990290419,-1.0,1,1.0,1.0,0.252629307099,0,0.0,0.0,0.456217271897,0.398343943195,0.098617868543,0.496961811738,0.299726074652,nan,nan,0.0,0.0,0.0,nan,nan,309.136508725,556.998815422,557.251444729,557.498850774,nan,nan
0,190,1611,6,1,139,97,1.0,-0.296335611021,-0.0445992895203,1,1.0,1.0,0.268488683738,0,0.0,0.0,0.37007159926,0.397564720542,0.0989263009392,0.496491021481,0.298638419602,nan,nan,0.0,0.0,0.0,nan,nan,309.136508725,557.998894678,558.267383362,558.498953124,nan,nan
0,191,1612,6,1,346,243,-0.174317561957,0.466431294057,0.176670174816,1,1.0,1.0,0.27632600069,0,1.0,0.0,0.265814663842,0.396878145878,0.0991085595745,0.495986705452,0.297769586303,nan,nan,0.0,0.0,0.0,nan,nan,309.136508725,558.999034376,559.275360377,559.499065452,nan,nan
0,192,1617,6,1,278,195,0.248285521772,0.335802812283,0.621962573991,1,1.0,1.0,0.284168734215,1,0.0,0.0,0.276327806214,0.39624030384,0.099232162277,0.495472466117,0.297008141563,-104.34362131,276.0,0.268710435127,0.329430325417,0.627563005949,-1.12512868957,2.73399251513,309.136508725,559.999160389,560.283329124,560.49919289,561.824359715,564.566385409
0,193,1618,6,1,406,285,0.0244967455079,0.467245700284,-0.489366101921,1,1.0,1.0,0.364345710725,0,0.0,0.0,0.308280148543,0.395650453473,0.0993023319534,0.494952785427,0.29634812152,nan,nan,0.0,0.0,0.0,nan,nan,309.136508725,565.774907643,566.139253354,566.274932446,nan,nan
0,194,1619,6,1,269,189,0.34171296506,0.305888347675,0.643262349404,1,1.0,1.0,0.404253590852,0,0.0,0.0,0.350922678597,0.395486554297,0.0990678003346,0.494554354631,0.296418753962,nan,nan,0.0,0.0,0.0,nan,nan,309.136508725,566.775026813,567.179280404,567.275060454,nan,nan
0,195,1620,6,1,34,23,1.0,0.0514419701458,-1.0,1,1.0,1.0,0.444024053402,0,0.0,0.0,0.404207784993,0.395532215945,0.0988114896025,0.494343705548,0.296720726343,nan,nan,0.0,0.0,0.0,nan,nan,309.136508725,567.77517877,568.219202823,568.275209845,nan,nan
0,196,1621,6,1,351,246,-0.175686286722,0.4701852659,0.128489978773,1,1.0,1.0,0.451867926866,0,0.0,0.0,0.43338185704,0.395783468989,0.0986166410788,0.494400110068,0.29716682791,nan,nan,0.0,0.0,0.0,nan,nan,309.136508725,568.775307634,569.227175561,569.275327875,nan,nan
0,197,1622,6,1,140,98,1.0,-0.294209249228,-0.0345777392028,1,1.0,1.0,0.483722671866,0,0.0,0.0,0.459871550711,0.396072564133,0.0984441057311,0.494516669864,0.297628458402,nan,nan,0.0,0.0,0.0,nan,nan,309.136508725,569.775426804,570.259149476,570.275450182,nan,nan
0,198,1623,6,0,462,324,0.432089675478,0.378486360879,-1.0,0,0.0,1.0,0.500210401602,0,0.0,0.0,0.478600333445,0.396522051865,0.0983907459339,0.494912797799,0.298131305931,nan,nan,0.0,0.0,0.0,nan,nan,309.136508725,570.783913572,571.284123974,571.283962608,nan,nan
0,199,1624,6,1,399,280,-0.0164460389312,0.472031251936,-0.400274523968,1,1.0,1.0,0.371062026359,0,0.0,0.0,0.451665033276,0.397051074057,0.0984170764356,0.495468150493,0.298633997622,nan,nan,0.0,0.0,0.0,nan,nan,309.136508725,571.784036449,572.155098476,572.284070375,nan,nan
0,200,1625,6,1,69,48,1.0,-0.134207199312,-0.939648005704,1,1.0,1.0,0.522590232082,0,0.0,0.0,0.464620886681,0.396919149957,0.0981843419317,0.495103491889,0.298734808026,nan,nan,0.0,0.0,0.0,nan,nan,309.136508725,572.792483588,573.31507382,573.292554007,nan,nan
0,201,1626,6,1,123,86,1.0,-0.311441137266,-0.208672863777,1,1.0,1.0,0.402452346869,0,0.0,0.0,0.432034868437,0.397553852392,0.098340419936,0.495894272328,0.299213432456,nan,nan,0.0,0.0,0.0,nan,nan,309.136508725,573.792616444,574.195068791,574.292634975,nan,nan
0,202,1627,6,1,363,255,-0.162287729338,0.476365729747,0.00704812682028,1,1.0,1.0,0.41029194463,0,0.0,0.0,0.44511150786,0.397578467943,0.098093633787,0.49567210173,0.299484834156,nan,nan,0.0,0.0,0.0,nan,nan,309.136508725,574.79275443,575.203046375,575.292780944,nan,nan
0,203,1628,6,1,251,176,0.535576518695,0.236509187076,0.655284151108,1,1.0,1.0,0.378125874326,0,0.0,0.0,0.396956721942,0.397642035326,0.0978522013356,0.495494236662,0.29978983399,nan,nan,0.0,0.0,0.0,nan,nan,309.136508725,575.792890992,576.171016866,576.292903251,nan,nan
0,204,1629,6,1,186,130,1.0,-0.0967386681424,0.377881386018,1,1.0,1.0,0.362004208378,0,0.0,0.0,0.383474009112,0.397544939998,0.0976181424002,0.495163082398,0.299926797597,nan,nan,0.0,0.0,0.0,nan,nan,309.136508725,576.792996763,577.155000972,577.293038957,nan,nan
0,205,1630,6,1,271,190,0.320642857732,0.312811632898,0.639400143054,1,1.0,1.0,0.401847086847,0,0.0,0.0,0.380659056517,0.397368995782,0.0974081577407,0.494777153522,0.299960838041,nan,nan,0.0,0.0,0.0,nan,nan,309.136508725,577.793130758,578.194977845,578.293179225,nan,nan
0,206,1631,6,1,52,36,1.0,-0.0438860552364,-1.0,1,1.0,1.0,0.433696129359,0,0.0,0.0,0.399182474862,0.397391055344,0.0971684457842,0.494559501128,0.300222609559,nan,nan,0.0,0.0,0.0,nan,nan,309.136508725,578.793265609,579.226961738,579.293285566,nan,nan
0,207,1632,6,1,413,290,0.0683106243366,0.461143133648,-0.585495598612,1,1.0,1.0,0.489551479928,0,0.0,0.0,0.441698232045,0.397569021393,0.0969631547447,0.494532176137,0.300605866648,nan,nan,0.0,0.0,0.0,nan,nan,309.136508725,579.793389912,580.282941392,580.301747531,nan,nan
0,208,1633,6,1,191,134,1.0,-0.0691479807067,0.414571651978,1,1.0,1.0,0.473066885024,0,0.0,0.0,0.465438164771,0.398017716312,0.0969384413602,0.494956157673,0.301079274952,nan,nan,0.0,0.0,0.0,nan,nan,309.136508725,580.801851021,581.274917906,581.301876394,nan,nan
0,209,1634,6,1,491,345,0.673033477965,0.292707709811,-1.0,1,1.0,1.0,0.400585247204,0,0.0,0.0,0.454401204052,0.398382032665,0.0968434485311,0.495225481196,0.301538584134,nan,nan,0.0,0.0,0.0,nan,nan,309.136508725,581.810312415,582.210897662,582.310374851,nan,nan
0,210,1635,6,1,318,223,-0.0835627602325,0.431640264478,0.413481556053,1,1.0,1.0,0.424432757311,0,0.0,0.0,0.43269496318,0.398392676214,0.0966093647386,0.495002040952,0.301783311475,nan,nan,0.0,0.0,0.0,nan,nan,309.136508725,582.810440423,583.23487318,583.31047378,nan,nan
0,211,1636,6,1,484,340,0.614398947124,0.316112737715,-1.0,1,1.0,1.0,0.424306173809,0,0.0,0.0,0.416441392774,0.398517868911,0.096393681027,0.494911549938,0.302124187884,nan,nan,0.0,0.0,0.0,nan,nan,309.136508725,583.810577555,584.234883728,584.310602359,nan,nan
0,212,1637,6,1,54,37,1.0,-0.0546292063271,-1.0,1,1.0,1.0,0.584134408273,0,0.0,0.0,0.477624446464,0.39864125793,0.0961792618824,0.494820519813,0.302461996048,nan,nan,0.0,0.0,0.0,nan,nan,309.136508725,584.810704423,585.394838831,585.310780259,nan,nan
0,213,1638,6,1,211,148,0.948675772315,0.0413606888024,0.538689155053,1,1.0,1.0,0.439977956004,0,0.0,0.0,0.482806179362,0.399524558646,0.0967960054171,0.496320564063,0.302728553229,nan,nan,0.0,0.0,0.0,nan,nan,309.136508725,585.810831862,586.250809818,586.31085695,nan,nan
0,214,1639,6,1,340,239,-0.166837174664,0.460980112934,0.232376404312,1,1.0,1.0,0.271841709502,0,0.0,0.0,0.43198469126,0.399716280908,0.0966063179552,0.496322598864,0.303109962953,nan,nan,0.0,0.0,0.0,nan,nan,309.136508725,586.810961581,587.08280329,587.310992371,nan,nan
0,215,1640,6,0,152,106,1.0,-0.259184487343,0.0830625546756,0,0.0,1.0,0.407651375979,0,0.0,0.0,0.373157013829,0.399113098968,0.0967756473614,0.495888746329,0.302337451606,nan,nan,0.0,0.0,0.0,nan,nan,309.136508725,587.811121806,588.218773182,588.311153166,nan,nan
0,216,1641,6,1,458,322,0.399688045963,0.388050214986,-1.0,1,1.0,1.0,0.263530846685,0,0.0,0.0,0.314341310722,0.399153184775,0.0965499713817,0.495703156157,0.302603213394,nan,nan,0.0,0.0,0.0,nan,nan,309.136508725,588.811237555,589.074768402,589.31126578,nan,nan
0,217,1642,6,1,128,90,1.0,-0.310663006781,-0.156689791083,1,1.0,1.0,0.32704504393,0,0.0,0.0,0.332742422198,0.398519435532,0.0967671722415,0.495286607773,0.30175226329,nan,nan,0.0,0.0,0.0,nan,nan,309.136508725,589.8196884,590.146733444,590.319727173,nan,nan
0,218,1643,6,1,187,131,1.0,-0.0912463489427,0.385383214542,1,1.0,1.0,0.390891378745,0,0.0,0.0,0.327155756454,0.398186996501,0.0966642800055,0.494851276507,0.301522716496,nan,nan,0.0,0.0,0.0,nan,nan,309.136508725,590.819829809,591.210721187,591.319847769,nan,nan
0,219,1644,6,1,259,182,0.44882283482,0.268906983076,0.655011783756,1,1.0,1.0,0.398752643727,0,0.0,0.0,0.372229688801,0.398153220493,0.0964415321546,0.494594752648,0.301711688338,nan,nan,0.0,0.0,0.0,nan,nan,309.136508725,591.819941851,592.218694495,592.319972072,nan,nan
0,220,1645,6,1,31,21,1.0,0.0668515730764,-1.0,1,1.0,1.0,0.286609449424,0,0.0,0.0,0.358751157299,0.398155982812,0.0962190686071,0.494375051419,0.301936914205,nan,nan,0.0,0.0,0.0,nan,nan,309.136508725,592.820073566,593.106683016,593.320101221,nan,nan
0,221,1646,6,1,412,289,0.0618891196837,0.462096609288,-0.571158935758,1,1.0,1.0,0.318451363593,0,0.0,0.0,0.334604485581,0.397644301466,0.0962935887559,0.493937890222,0.30135071271,nan,nan,0.0,0.0,0.0,nan,nan,309.136508725,593.820203001,594.138654364,594.320238923,nan,nan
0,222,1647,6,1,331,232,-0.143297839787,0.450801753776,0.311166711333,1,1.0,1.0,0.246297872625,0,1.0,0.0,0.283786228547,0.397282689878,0.0962217313208,0.493504421199,0.301060958557,nan,nan,0.0,0.0,0.0,nan,nan,309.136508725,594.820331294,595.066629167,595.320372063,nan,nan
0,223,1653,6,1,82,57,1.0,-0.198479155091,-0.679872484948,1,1.0,1.0,0.21417456679,1,0.0,0.0,0.25964126767,0.396596395254,0.096538520824,0.493134916078,0.30005787443,32.9177447294,81.0,1.0,-0.193804253699,-0.694219169772,-0.57399472936,2.90077398159,309.136508725,595.820461583,596.03463615,596.320522024,597.645675164,600.554377123
0,224,1654,6,0,429,301,0.177531820842,0.442080780324,-0.901885199234,0,0.0,1.0,0.647549676709,0,0.0,0.0,0.369340705375,0.395770957116,0.097094861163,0.492865818279,0.298676095953,nan,nan,0.0,0.0,0.0,nan,nan,309.136508725,601.762948393,602.41049807,602.262998286,nan,nan
0,225,1655,6,1,59,41,1.0,-0.0814409933332,-1.0,1,1.0,1.0,0.351481563412,0,0.0,0.0,0.404401935637,0.396905095493,0.0983321508082,0.495237246301,0.298572944684,nan,nan,0.0,0.0,0.0,nan,nan,309.136508725,602.763023374,603.114504937,603.263058726,nan,nan
0,226,1656,6,1,209,146,0.967301840512,0.0304835193525,0.52804999659,1,1.0,1.0,0.303298173472,0,0.0,0.0,0.434109804531,0.396701402524,0.0981583575215,0.494859760045,0.298543045002,nan,nan,0.0,0.0,0.0,nan,nan,309.136508725,603.763156514,604.066454687,604.26318816,nan,nan
0,227,1657,6,1,361,253,-0.166047812515,0.475607712818,0.0278173107143,1,1.0,1.0,0.255130748264,0,0.0,0.0,0.303303495049,0.396284423823,0.0981367554101,0.494421179233,0.298147668412,nan,nan,0.0,0.0,0.0,nan,nan,309.136508725,604.763287944,605.018418692,605.2633213,nan,nan
0,228,1658,6,1,61,42,1.0,-0.0921163965413,-1.0,1,1.0,1.0,0.302962043323,0,1.0,0.0,0.287130321686,0.395657074153,0.0983675670623,0.494024641216,0.297289507091,nan,nan,0.0,0.0,0.0,nan,nan,309.136508725,605.763431063,606.066393106,606.263452159,nan,nan
0,229,1659,6,0,468,329,0.481236483515,0.363131620867,-1.0,0,1.0,0.0,0.238786421716,0,0.0,0.0,0.265626404434,0.39524691915,0.0983423327227,0.493589251872,0.296904586427,nan,nan,0.0,0.0,0.0,nan,nan,309.136508725,606.763601266,607.002387688,607.263629205,nan,nan
0,230,1700,6,1,48,33,1.0,-0.0224273256894,-1.0,1,1.0,1.0,0.278711407445,0,0.0,0.0,0.273486624161,0.394557665857,0.0986710483349,0.493228714192,0.295886617522,nan,nan,0.0,0.0,0.0,nan,nan,309.136508725,607.763675961,608.042387368,608.263712454,nan,nan
0,231,1701,6,1,193,135,1.0,-0.0580453890011,0.428658791268,1,1.0,1.0,0.294562515803,0,0.0,0.0,0.270686781655,0.394049568232,0.0987515932878,0.49280116152,0.295297974945,nan,nan,0.0,0.0,0.0,nan,nan,309.136508725,608.763807676,609.058370192,609.263831624,nan,nan
0,232,1702,6,1,397,279,-0.0275613476434,0.473159987783,-0.37569455347,1,1.0,1.0,0.302375314757,0,1.0,0.0,0.291883079335,0.393615126955,0.0987538612069,0.492368988162,0.294861265749,nan,nan,0.0,0.0,0.0,nan,nan,309.136508725,609.763938535,610.06631385,610.263975883,nan,nan
0,233,1708,6,1,474,333,0.530901762182,0.346545376391,-1.0,1,1.0,1.0,0.325926037505,1,0.0,0.0,0.307621289355,0.39321843212,0.0987216323066,0.491940064426,0.294496799813,102.076556385,495.0,0.706485112283,0.278551693791,-1.0,14.6421936147,2.43394843955,309.136508725,610.772395368,611.098321405,611.272434141,612.597601821,615.039586575
0,234,1709,6,1,363,255,-0.162287729338,0.476365729747,0.00704812682028,1,1.0,1.0,0.530006174929,0,0.0,0.0,0.386102509064,0.392927123052,0.0986067360937,0.491533859146,0.294320386959,nan,nan,0.0,0.0,0.0,nan,nan,309.136508725,616.248139314,616.778145489,616.74818436,nan,nan
0,235,1710,6,0,112,78,1.0,-0.300501516081,-0.325324861792,0,0.0,1.0,0.465895269997,0,0.0,0.0,0.440609160811,0.393517981034,0.0988029494297,0.492320930464,0.294715031605,nan,nan,0.0,0.0,0.0,nan,nan,309.136508725,617.248277586,617.714172856,617.748295832,nan,nan
0,236,1711,6,1,506,355,0.797774742377,0.236703125255,-1.0,1,1.0,1.0,0.305811017752,0,0.0,0.0,0.433904154226,0.393828613176,0.0987041637537,0.49253277693,0.295124449422,nan,nan,0.0,0.0,0.0,nan,nan,309.136508725,618.248363971,618.554174989,618.748402744,nan,nan
0,237,1712,6,1,244,171,0.611372359265,0.206163547436,0.648880721676,1,1.0,1.0,0.257373605855,0,0.0,0.0,0.343026631201,0.393452469606,0.0986602404442,0.49211271005,0.294792229162,nan,nan,0.0,0.0,0.0,nan,nan,309.136508725,619.256818523,619.514192129,619.75688438,nan,nan
0,238,1713,6,1,405,284,0.018463324075,0.468009379796,-0.476293327428,1,1.0,1.0,0.216802020557,0,1.0,0.0,0.259995548055,0.392873410611,0.0988477860982,0.491721196709,0.294025624513,nan,nan,0.0,0.0,0.0,nan,nan,309.136508725,620.265320116,620.482122136,620.765390249,nan,nan
0,239,1717,6,1,477,335,0.555879874869,0.337784025865,-1.0,1,1.0,1.0,0.304665213451,1,0.0,0.0,0.259613613288,0.392127345399,0.0992989772751,0.491426322674,0.292828368124,126.552472752,460.0,0.415848916989,0.383334931935,-1.0,-11.9430977521,1.46725176182,309.136508725,621.265435864,621.570101078,621.765455537,623.090627207,624.565849141
0,240,1718,6,1,36,25,1.0,0.0410699577143,-1.0,1,1.0,1.0,0.523645946756,0,0.0,0.0,0.348371060255,0.391758306868,0.09925131238,0.491009619248,0.292506994488,nan,nan,0.0,0.0,0.0,nan,nan,309.136508725,625.774337448,626.297983395,626.274420412,nan,nan
0,241,1719,6,1,462,324,0.432089675478,0.378486360879,-1.0,1,1.0,1.0,0.347502180375,0,0.0,0.0,0.391937780194,0.392312456615,0.099409312526,0.491721769141,0.292903144089,nan,nan,0.0,0.0,0.0,nan,nan,309.136508725,626.77447458,627.12197676,627.274508792,nan,nan
0,242,1720,6,1,220,154,0.861731547614,0.0893272636146,0.581247684387,1,1.0,1.0,0.243351395242,0,0.0,0.0,0.371499840791,0.392124965919,0.0992432849571,0.491368250876,0.292881680962,nan,nan,0.0,0.0,0.0,nan,nan,309.136508725,627.774605155,628.01795655,628.274629388,nan,nan
0,243,1721,6,1,379,266,-0.113535935895,0.478614986251,-0.165970515924,1,1.0,1.0,0.211188175716,0,1.0,0.0,0.267347250444,0.391505076042,0.0994988950665,0.491003971108,0.292006180975,nan,nan,0.0,0.0,0.0,nan,nan,309.136508725,628.774749129,628.985937305,629.274764524,nan,nan
0,244,1726,6,1,290,203,0.131265381085,0.370776544741,0.578206616232,1,1.0,1.0,0.179071998224,1,0.0,0.0,0.211203856394,0.390756873136,0.0999665192828,0.490723392419,0.290790353853,-126.97276249,309.0,-0.0258396312562,0.415106541901,0.475305697888,13.0665124896,1.77551974542,309.136508725,629.77487172,629.953943718,630.27489795,631.600071331,633.383620264
0,245,1727,6,1,355,249,-0.173737462994,0.472683863687,0.0888799762457,1,1.0,1.0,0.561689861119,0,0.0,0.0,0.317316678353,0.389882142248,0.100679752052,0.4905618943,0.289202390195,nan,nan,0.0,0.0,0.0,nan,nan,309.136508725,634.592157323,635.153847184,635.092224036,nan,nan
0,246,1728,6,1,455,319,0.375608248681,0.394875365091,-1.0,1,1.0,1.0,0.425158043392,0,0.0,0.0,0.388639967578,0.390589169897,0.101072606384,0.491661776282,0.289516563513,nan,nan,0.0,0.0,0.0,nan,nan,309.136508725,635.600623564,636.025781607,636.100645231,nan,nan
0,247,1729,6,1,174,122,1.0,-0.160790688716,0.281981279739,1,1.0,1.0,0.313026824035,0,0.0,0.0,0.433291576182,0.390730845608,0.100889453125,0.491620298733,0.289841392483,nan,nan,0.0,0.0,0.0,nan,nan,309.136508725,636.600768393,636.913795217,637.100780653,nan,nan
0,248,1730,6,1,54,37,1.0,-0.0546292063271,-1.0,1,1.0,1.0,0.232540231198,0,0.0,0.0,0.323575032875,0.390413686337,0.10080515896,0.491218845297,0.289608527377,nan,nan,0.0,0.0,0.0,nan,nan,309.136508725,637.609215247,637.841755479,638.109298496,nan,nan
0,249,1731,6,1,155,108,1.0,-0.2479831371,0.111611878621,1,1.0,1.0,0.256402851082,0,1.0,0.0,0.267323302105,0.389771924324,0.101100335104,0.490872259428,0.288671589219,nan,nan,0.0,0.0,0.0,nan,nan,309.136508725,638.609344112,638.865746963,639.109372906,nan,nan
0,250,1735,6,1,289,203,0.140592130943,0.368073254824,0.582505265782,1,1.0,1.0,0.256230367348,1,0.0,0.0,0.248391149876,0.389231968562,0.10125027365,0.490482242212,0.287981694912,-125.277375688,306.0,-0.00395437407881,0.408974006242,0.494128827808,12.0742506881,1.12541930657,309.136508725,639.609469839,639.865700207,640.10950063,641.434683705,642.568153581
0,251,1736,6,0,174,122,1.0,-0.160790688716,0.281981279739,0,1.0,0.0,0.448915177025,0,0.0,0.0,0.320516131818,0.388695671783,0.101396851338,0.490092523121,0.287298820444,nan,nan,0.0,0.0,0.0,nan,nan,309.136508725,643.776699478,644.225614655,644.276733119,nan,nan
0,252,1737,6,1,466,327,0.464789014893,0.368385601135,-1.0,1,1.0,1.0,0.392798678018,0,0.0,0.0,0.365981407464,0.388937517185,0.10126468454,0.490202201725,0.287672832645,nan,nan,0.0,0.0,0.0,nan,nan,309.136508725,644.776812091,645.169610769,645.276841456,nan,nan
0,253,1738,6,1,268,188,0.35230222188,0.302367520405,0.645005310408,1,1.0,1.0,0.368643833324,0,0.0,0.0,0.403452562789,0.388952961829,0.101062246093,0.490015207922,0.287890715735,nan,nan,0.0,0.0,0.0,nan,nan,309.136508725,645.776946086,646.14558992,646.276961481,nan,nan
0,254,1739,6,1,451,317,0.343830962376,0.403518361206,-1.0,1,1.0,1.0,0.312513933517,0,0.0,0.0,0.35798548162,0.388872048966,0.100868839411,0.489740888377,0.288003209555,nan,nan,0.0,0.0,0.0,nan,nan,309.136508725,646.777059555,647.089573489,647.277088635,nan,nan
0,255,1740,6,1,70,49,1.0,-0.13936984996,-0.906436913284,1,1.0,1.0,0.368355886079,0,0.0,0.0,0.349837884307,0.388569040571,0.100782900383,0.489351940954,0.287786140188,nan,nan,0.0,0.0,0.0,nan,nan,309.136508725,647.777185853,648.145541739,648.277224055,nan,nan
0,256,1741,6,1,358,251,-0.170583909915,0.474268316859,0.0585874414746,1,1.0,1.0,0.368195376359,0,0.0,0.0,0.349688398652,0.38848914668,0.100591523133,0.489080669813,0.287897623547,nan,nan,0.0,0.0,0.0,nan,nan,309.136508725,648.777322699,649.145518076,649.277359477,nan,nan
0,257,1742,6,1,291,204,0.122027637739,0.373441943191,0.573791926984,1,1.0,1.0,0.430361920036,0,0.0,0.0,0.388971060825,0.388409249947,0.100401356197,0.488810606143,0.28800789375,nan,nan,0.0,0.0,0.0,nan,nan,309.136508725,649.819136167,650.249498087,650.319171234,nan,nan
0,258,1743,6,0,128,90,1.0,-0.310663006781,-0.156689791083,0,0.0,1.0,0.534196245484,0,0.0,0.0,0.444251180626,0.388573770221,0.100238596443,0.488812366664,0.288335173778,nan,nan,0.0,0.0,0.0,nan,nan,309.136508725,650.819276435,651.353472681,651.319316063,nan,nan
0,259,1744,6,1,203,142,1.0,-0.00249325098487,0.493674673203,1,1.0,1.0,0.350076320581,0,0.0,0.0,0.438211495367,0.389142608015,0.100454164086,0.489596772101,0.28868844393,nan,nan,0.0,0.0,0.0,nan,nan,309.136508725,651.819381636,652.169457956,652.319429532,nan,nan
0,260,1745,6,1,101,71,1.0,-0.273572672894,-0.446152610616,1,1.0,1.0,0.413947174326,0,0.0,0.0,0.432739913464,0.388990599115,0.10028803346,0.489278632575,0.288702565655,nan,nan,0.0,0.0,0.0,nan,nan,309.136508725,652.819518767,653.233465942,653.31954129,nan,nan
0,261,1746,6,1,350,246,-0.175756816429,0.469490941964,0.138247479403,1,1.0,1.0,0.389809436165,0,0.0,0.0,0.384610977024,0.389087330027,0.100105499737,0.489192829763,0.28898183029,nan,nan,0.0,0.0,0.0,nan,nan,309.136508725,653.819639933,654.209449369,654.319669584,nan,nan
0,262,1747,6,0,154,108,1.0,-0.251813147593,0.102138173725,0,1.0,0.0,0.405570453964,0,0.0,0.0,0.403109021485,0.389090118081,0.0999120690129,0.489002187094,0.289178049068,nan,nan,0.0,0.0,0.0,nan,nan,309.136508725,654.819854897,655.22542535,655.319840642,nan,nan
0,263,1748,6,1,428,300,0.170378320166,0.443486568519,-0.86866140055,1,1.0,1.0,0.38149172999,0,0.0,0.0,0.39229054004,0.389153503988,0.0997249628164,0.488878466805,0.289428541172,nan,nan,0.0,0.0,0.0,nan,nan,309.136508725,655.819899657,656.201391387,656.319926171,nan,nan
0,264,1749,6,1,134,94,1.0,-0.304950998219,-0.095144111098,1,1.0,1.0,0.461324594915,0,0.0,0.0,0.41612892629,0.389124148532,0.0995348609897,0.488659009522,0.289589287543,nan,nan,0.0,0.0,0.0,nan,nan,309.136508725,656.820030232,657.281354827,657.320056746,nan,nan
0,265,1750,6,1,212,149,0.93926288676,0.0467731277665,0.543851001166,1,nan,nan,nan,0,0.0,0.0,0.421408162452,0.389399722755,0.0994444342144,0.48884415697,0.289955288541,nan,nan,0.0,0.0,0.0,nan,nan,309.136508725,657.828488775,nan,658.328569457,nan,nan
0,266,1751,6,1,433,304,0.206536295144,0.436163724167,-1.0,1,1.0,1.0,0.468349955045,0,0.0,0.0,0.46483727498,0.389399722755,0.0994444342144,0.48884415697,0.289955288541,nan,nan,0.0,0.0,0.0,nan,nan,309.136508725,658.836971266,659.305321221,659.337011465,nan,nan
0,267,1752,6,1,145,101,1.0,-0.281667413287,0.0150551701241,1,1.0,1.0,0.331863182597,0,0.0,0.0,0.400106568821,0.389699913753,0.0993740611366,0.489073974889,0.290325852616,nan,nan,0.0,0.0,0.0,nan,nan,309.136508725,659.845428384,660.177291567,660.345458033,nan,nan
0,268,1753,6,1,449,315,0.328095008353,0.407646248688,-1.0,1,1.0,1.0,0.29971450381,0,0.0,0.0,0.36664254715,0.389480835225,0.0992492858482,0.488730121074,0.290231549377,nan,nan,0.0,0.0,0.0,nan,nan,309.136508725,660.845572358,661.145286862,661.345589749,nan,nan
0,269,1754,6,1,302,212,0.027086081288,0.400300843718,0.517770016443,1,1.0,1.0,0.507556782104,0,0.0,0.0,0.379711489504,0.389142094352,0.0992146265551,0.488356720907,0.289927467797,nan,nan,0.0,0.0,0.0,nan,nan,309.136508725,661.845692098,662.35324888,662.345759097,nan,nan
0,270,1755,6,1,228,160,0.780729811514,0.1302769546,0.611433142569,1,1.0,1.0,0.395422426052,0,0.0,0.0,0.400897903989,0.389587262351,0.0992927619723,0.488880024324,0.290294500379,nan,nan,0.0,0.0,0.0,nan,nan,309.136508725,662.84581526,663.241237686,663.345860591,nan,nan
0,271,1756,6,1,288,202,0.150005133015,0.365331945294,0.586687239957,1,1.0,1.0,0.379283653572,0,0.0,0.0,0.42742095391,0.389609116897,0.0991072870013,0.488716403898,0.290501829896,nan,nan,0.0,0.0,0.0,nan,nan,309.136508725,663.845927874,664.225211527,664.345971494,nan,nan
0,272,1758,6,1,203,142,1.0,-0.00249325098487,0.493674673203,1,1.0,1.0,0.361759596504,0,0.0,0.0,0.378821892043,0.389570589049,0.098924215779,0.488494804828,0.29064637327,nan,nan,0.0,0.0,0.0,nan,nan,309.136508725,664.879445018,665.241204615,665.37943504,nan,nan
0,273,1759,6,1,135,94,1.0,-0.303502321856,-0.0849788702499,1,1.0,1.0,0.449596843682,0,0.0,0.0,0.396880031253,0.389467202459,0.0987546752234,0.488221877683,0.290712527236,nan,nan,0.0,0.0,0.0,nan,nan,309.136508725,665.879564189,666.329161033,666.379562194,nan,nan
0,274,1800,6,1,358,251,-0.170583909915,0.474268316859,0.0585874414746,1,1.0,1.0,0.593445391394,0,0.0,0.0,0.468267277194,0.389689904834,0.0986392770551,0.488329181889,0.291050627779,nan,nan,0.0,0.0,0.0,nan,nan,309.136508725,666.879674807,667.473120199,667.37974152,nan,nan
0,275,1801,6,1,462,324,0.432089675478,0.378486360879,-1.0,1,1.0,1.0,0.425302302465,0,0.0,0.0,0.48944817918,0.390441770098,0.0992292062425,0.489670976341,0.291212563856,nan,nan,0.0,0.0,0.0,nan,nan,309.136508725,667.87981821,668.305120513,668.379842158,nan,nan
0,276,1802,6,1,273,191,0.299732959835,0.319577193062,0.635038033336,1,1.0,1.0,0.321219086647,0,0.0,0.0,0.446655593502,0.39056993382,0.099069100486,0.489639034306,0.291500833334,nan,nan,0.0,0.0,0.0,nan,nan,309.136508725,668.879936811,669.201155897,669.379985848,nan,nan
0,277,1803,6,1,141,99,1.0,-0.291952736687,-0.024586852943,1,1.0,1.0,0.361009220593,0,0.0,0.0,0.369176869902,0.390315901413,0.0989762005134,0.489292101926,0.2913397009,nan,nan,0.0,0.0,0.0,nan,nan,309.136508725,669.880070237,670.241079457,670.380081926,nan,nan
0,278,1804,6,1,485,341,0.622774561467,0.312875618285,-1.0,1,1.0,1.0,0.360880071297,0,0.0,0.0,0.347702792846,0.390208942724,0.0988112268681,0.489020169592,0.291397715856,nan,nan,0.0,0.0,0.0,nan,nan,309.136508725,670.880185416,671.241065487,671.380211645,nan,nan
0,279,1805,6,1,161,113,1.0,-0.223158351501,0.167490545043,1,1.0,1.0,0.440754845738,0,0.0,0.0,0.387548045876,0.390102292282,0.0986472042433,0.488749496526,0.291455088039,nan,nan,0.0,0.0,0.0,nan,nan,309.136508725,671.880302875,672.321057721,672.380338512,nan,nan
0,280,1806,6,0,502,352,0.764740937618,0.25241357569,-1.0,0,1.0,0.0,0.368564290926,0,0.0,0.0,0.390066402654,0.390285816027,0.098515353841,0.488801169868,0.291770462186,nan,nan,0.0,0.0,0.0,nan,nan,309.136508725,672.880486478,673.249050769,673.380528958,nan,nan
0,281,1807,6,1,444,312,0.289241202529,0.417409780569,-1.0,1,1.0,1.0,0.320419674739,0,0.0,0.0,0.376579603801,0.390207398969,0.0983459965511,0.48855339552,0.291861402418,nan,nan,0.0,0.0,0.0,nan,nan,309.136508725,673.880572862,674.200992537,674.380599377,nan,nan
0,282,1808,6,1,182,127,1.0,-0.118523835432,0.347089474713,1,1.0,1.0,0.336296726018,0,0.0,0.0,0.341760230561,0.389956363989,0.0982578243487,0.488214188338,0.291698539641,nan,nan,0.0,0.0,0.0,nan,nan,309.136508725,674.880696595,675.216993321,675.380736508,nan,nan
0,283,1809,6,1,291,204,0.122027637739,0.373441943191,0.573791926984,1,1.0,1.0,0.296128268354,0,0.0,0.0,0.317614889704,0.389764035538,0.0981339850885,0.487898020626,0.291630050449,nan,nan,0.0,0.0,0.0,nan,nan,309.136508725,675.880829735,676.176958003,676.380877346,nan,nan
0,284,1810,6,1,499,350,0.739831889234,0.263827757734,-1.0,1,1.0,1.0,0.35969178658,0,0.0,0.0,0.330705593651,0.389429622084,0.0981177170732,0.487547339157,0.29131190501,nan,nan,0.0,0.0,0.0,nan,nan,309.136508725,676.889307095,677.248998881,677.389329902,nan,nan
0,285,1811,6,1,122,85,1.0,-0.311159539646,-0.219144224573,1,1.0,1.0,0.407172128558,0,0.0,0.0,0.354330727831,0.389323793488,0.0979589823517,0.487282775839,0.291364811136,nan,nan,0.0,0.0,0.0,nan,nan,309.136508725,677.897761646,678.304933774,678.397809543,nan,nan
0,286,1812,6,1,209,146,0.967301840512,0.0304835193525,0.52804999659,1,1.0,1.0,0.414663622156,0,0.0,0.0,0.393842512431,0.389387085456,0.0977908975259,0.487177982982,0.29159618793,nan,nan,0.0,0.0,0.0,nan,nan,309.136508725,678.906234159,679.320897781,679.406273503,nan,nan
0,287,1813,6,1,291,204,0.122027637739,0.373441943191,0.573791926984,1,1.0,1.0,0.414520503953,0,0.0,0.0,0.412118751556,0.38947640184,0.0976294911397,0.48710589298,0.2918469107,nan,nan,0.0,0.0,0.0,nan,nan,309.136508725,679.906357891,680.320878395,680.406375567,nan,nan
0,288,1814,6,1,96,67,1.0,-0.25681952169,-0.503302481145,1,1.0,1.0,0.486378064379,0,0.0,0.0,0.438520730163,0.389564585298,0.09746874657,0.487033331868,0.292095838728,nan,nan,0.0,0.0,0.0,nan,nan,309.136508725,680.906486755,681.39286482,681.406513269,nan,nan
0,289,1815,6,1,349,245,-0.175656888649,0.468768509344,0.147945183432,1,1.0,1.0,0.454227104783,0,0.0,0.0,0.451708557705,0.389904281716,0.0974658631196,0.487370144836,0.292438418596,nan,nan,0.0,0.0,0.0,nan,nan,309.136508725,681.906609917,682.360837022,682.406637001,nan,nan
0,290,1816,6,1,508,357,0.814199817736,0.228638933499,-1.0,1,1.0,1.0,0.382083021104,0,0.0,0.0,0.440896063422,0.390129186692,0.0973693742872,0.487498560979,0.292759812405,nan,nan,0.0,0.0,0.0,nan,nan,309.136508725,682.906730513,683.288813534,683.406770997,nan,nan
0,291,1817,6,1,239,168,0.665069831863,0.183388857662,0.640549267122,1,1.0,1.0,0.341965311207,0,0.0,0.0,0.392758479031,0.390101151272,0.0972007495426,0.487301900814,0.292900401729,nan,nan,0.0,0.0,0.0,nan,nan,309.136508725,683.906863938,684.248829249,684.406895869,nan,nan
0,292,1818,6,1,298,209,0.0600896634305,0.391050340636,0.53969689008,1,1.0,1.0,0.341448144056,0,0.0,0.0,0.355165492122,0.389934012938,0.0970731559936,0.487007168932,0.292860856944,nan,nan,0.0,0.0,0.0,nan,nan,309.136508725,684.915323908,685.256772052,685.415365246,nan,nan
0,293,1819,6,0,483,339,0.606025706087,0.319314454546,-1.0,0,0.0,1.0,0.64523839578,0,0.0,0.0,0.442883950348,0.389766241765,0.0969468812203,0.486713122986,0.292819360545,nan,nan,0.0,0.0,0.0,nan,nan,309.136508725,685.915491259,686.560729655,686.415543431,nan,nan
0,294,1820,6,1,392,275,-0.0541067903503,0.475522277549,-0.315549842675,1,1.0,1.0,0.389150861651,0,0.0,0.0,0.458612467162,0.390647180227,0.0979314437225,0.48857862395,0.292715736505,nan,nan,0.0,0.0,0.0,nan,nan,309.136508725,686.915590188,687.304741049,687.415623829,nan,nan
0,295,1821,6,1,306,215,-0.00395437407881,0.408974006242,0.494128827808,1,1.0,1.0,0.213014792651,0,0.0,0.0,0.415801350027,0.390642038239,0.0977630710441,0.488405109283,0.292878967195,nan,nan,0.0,0.0,0.0,nan,nan,309.136508725,687.915744996,688.128759788,688.415750127,nan,nan
0,296,1822,6,1,440,309,0.258699398066,0.424657399123,-1.0,1,1.0,1.0,0.252877911553,0,1.0,0.0,0.285014521951,0.390033725754,0.0981456535886,0.488179379343,0.291888072166,nan,nan,0.0,0.0,0.0,nan,nan,309.136508725,688.915846775,689.168724687,689.415881556,nan,nan
0,297,1827,6,1,151,106,1.0,-0.262720288689,0.0734626651272,1,1.0,1.0,0.276706890203,1,0.0,0.0,0.247533198136,0.389565617173,0.0983040098014,0.487869626975,0.291261607372,-11.7064367292,145.0,1.0,-0.281667413287,0.0150551701241,-4.46543827085,2.25058231037,309.136508725,689.915993315,690.192700205,690.416014412,691.741184087,693.999804708
0,298,1828,6,0,0,0,0.846831709088,0.212097570855,-1.0,0,0.0,1.0,0.656165308319,0,0.0,0.0,0.395250036692,0.389181743952,0.0983564170413,0.487538160994,0.290825326911,nan,nan,0.0,0.0,0.0,nan,nan,309.136508725,695.208359729,695.864525037,695.708409335,nan,nan
0,299,1829,6,1,365,256,-0.157962026257,0.477016591838,-0.0139196855225,1,1.0,1.0,0.351757252589,0,0.0,0.0,0.428209817037,0.390086772984,0.0994082511851,0.489495024169,0.290678521799,nan,nan,0.0,0.0,0.0,nan,nan,309.136508725,696.216793183,696.568550436,696.716845926,nan,nan
0,300,1830,6,1,27,18,1.0,0.0870912575778,-1.0,1,1.0,1.0,0.279598344117,0,0.0,0.0,0.429173635008,0.389957281361,0.0992651089301,0.489222390291,0.290692172431,nan,nan,0.0,0.0,0.0,nan,nan,309.136508725,697.216930885,697.496529229,697.716960535,nan,nan
0,301,1831,6,1,472,331,0.51429864939,0.352212277195,-1.0,1,1.0,1.0,0.327111470513,0,0.0,0.0,0.319489022406,0.389585702448,0.0993038461393,0.488889548587,0.290281856309,nan,nan,0.0,0.0,0.0,nan,nan,309.136508725,698.225386863,698.552498333,698.725438179,nan,nan
0,302,1832,6,1,204,143,1.0,0.00303256528985,0.499654420455,1,1.0,1.0,0.326949535869,0,0.0,0.0,0.3112197835,0.389376057374,0.0992029025082,0.488578959883,0.290173154866,nan,nan,0.0,0.0,0.0,nan,nan,309.136508725,699.225524564,699.5524741,699.725553929,nan,nan
0,303,1833,6,1,122,85,1.0,-0.311159539646,-0.219144224573,1,1.0,1.0,0.310403360985,0,0.0,0.0,0.321488122456,0.389167273022,0.0991024328188,0.48826970584,0.290064840203,nan,nan,0.0,0.0,0.0,nan,nan,309.136508725,700.274066322,700.584469683,700.77569394,nan,nan
0,304,1834,6,1,78,54,1.0,-0.179467652321,-0.739907630878,1,1.0,1.0,0.396635227837,0,0.0,0.0,0.34466270823,0.388904726648,0.0990412277732,0.487945954421,0.289863498875,nan,nan,0.0,0.0,0.0,nan,nan,309.136508725,701.275790303,701.672425531,701.775814251,nan,nan
0,305,1835,6,1,229,161,0.770397026975,0.135265939772,0.614681466938,1,1.0,1.0,0.396151703782,0,0.0,0.0,0.367730097535,0.388930409376,0.0988775712294,0.487807980606,0.290052838147,nan,nan,0.0,0.0,0.0,nan,nan,309.136508725,702.28426025,702.680411953,702.784309002,nan,nan
0,306,1836,6,1,323,227,-0.11001989341,0.43965344528,0.375855360355,1,1.0,1.0,0.387992226519,0,0.0,0.0,0.393593052713,0.388954320947,0.0987146026118,0.487668923559,0.290239718335,nan,nan,0.0,0.0,0.0,nan,nan,309.136508725,703.28440508,703.672397306,703.78440508,nan,nan
0,307,1837,6,1,258,181,0.459642287315,0.26499291187,0.655490062901,1,1.0,1.0,0.363901529461,0,0.0,0.0,0.382681819921,0.388951145718,0.0985515880512,0.487502733769,0.290399557667,nan,nan,0.0,0.0,0.0,nan,nan,309.136508725,704.284506859,704.648408389,704.784546202,nan,nan
0,308,1838,6,1,492,345,0.681403316433,0.289222019555,-1.0,1,1.0,1.0,0.363415438682,0,0.0,0.0,0.371769731554,0.388868745665,0.0983998174396,0.487268563104,0.290468928225,nan,nan,0.0,0.0,0.0,nan,nan,309.136508725,705.29295913,705.656374569,705.793005316,nan,nan
0,309,1839,6,1,89,62,1.0,-0.229484098413,-0.587370487375,1,1.0,1.0,0.363266618922,0,0.0,0.0,0.363527862355,0.388785292199,0.0982491490741,0.487034441273,0.290536143125,nan,nan,0.0,0.0,0.0,nan,nan,309.136508725,706.293101679,706.656368298,706.793128762,nan,nan
0,310,1840,6,1,259,182,0.44882283482,0.268906983076,0.655011783756,1,1.0,1.0,0.315106036142,0,0.0,0.0,0.347262697915,0.388701897842,0.0980992917562,0.486801189598,0.290602606086,nan,nan,0.0,0.0,0.0,nan,nan,309.136508725,707.293232253,707.608338289,707.793265894,nan,nan
0,311,1841,6,1,170,119,1.0,-0.180990482069,0.247815061387,1,1.0,1.0,0.28295422066,0,0.0,0.0,0.320442291908,0.388462171908,0.098029126284,0.486491298192,0.290433045624,nan,nan,0.0,0.0,0.0,nan,nan,309.136508725,708.29336853,708.57632275,708.793389056,nan,nan
0,312,1842,6,1,41,28,1.0,0.0148395037771,-1.0,1,1.0,1.0,0.30650437437,0,0.0,0.0,0.301521543724,0.388119613625,0.0980537328235,0.486173346448,0.290065880801,nan,nan,0.0,0.0,0.0,nan,nan,309.136508725,709.301805405,709.608309779,709.801857008,nan,nan
0,313,1843,6,1,125,87,1.0,-0.311567427947,-0.187805059354,1,1.0,1.0,0.330339624546,0,0.0,0.0,0.306599406525,0.387855486637,0.0980046251277,0.485860111765,0.289850861509,nan,nan,0.0,0.0,0.0,nan,nan,309.136508725,710.301943677,710.632283302,710.801986442,nan,nan
0,314,1844,6,1,14,9,0.95801504718,0.150023555696,-1.0,1,1.0,1.0,0.266165427864,0,0.0,0.0,0.30100314226,0.387669951598,0.0979007648662,0.485570716464,0.289769186732,nan,nan,0.0,0.0,0.0,nan,nan,309.136508725,711.302090502,711.56825593,711.802121293,nan,nan
0,315,1845,6,1,263,184,0.405698801511,0.284171736334,0.651829885785,1,1.0,1.0,0.281989452429,0,0.0,0.0,0.292831501613,0.387279261811,0.0979849946636,0.485264256475,0.289294267147,nan,nan,0.0,0.0,0.0,nan,nan,309.136508725,712.302220222,712.584209674,712.80224417,nan,nan
0,316,1846,6,1,110,77,1.0,-0.296722754836,-0.346921960777,1,1.0,1.0,0.233497587033,0,1.0,0.0,0.260550822442,0.386941794473,0.0980086962525,0.484950490726,0.288933098221,nan,nan,0.0,0.0,0.0,nan,nan,309.136508725,713.310682471,713.544180058,713.810717538,nan,nan
0,317,1851,6,1,154,108,1.0,-0.251813147593,0.102138173725,1,1.0,1.0,0.249356963672,1,0.0,0.0,0.254948001044,0.386451557389,0.0982344089294,0.484685966318,0.288217148459,0.254646232273,128.0,1.0,-0.310663006781,-0.156689791083,-18.5358962323,2.21725104935,309.136508725,714.310806488,714.560163451,714.810840129,716.136003532,718.361292036
0,318,1852,6,1,338,237,-0.162891363375,0.458928707883,0.250399161362,1,nan,nan,nan,0,0.0,0.0,0.241427275352,0.386014950402,0.0983815655916,0.484396515994,0.287633384811,nan,nan,0.0,0.0,0.0,nan,nan,309.136508725,719.569831947,nan,720.069895809,nan,nan
0,319,1853,6,1,210,147,0.958022500947,0.0359304984579,0.533421856807,1,1.0,1.0,0.774060049094,0,0.0,0.0,0.511708506383,0.386014950402,0.0983815655916,0.484396515994,0.287633384811,nan,nan,0.0,0.0,0.0,nan,nan,309.136508725,720.569958244,721.344018294,721.070023247,nan,nan
0,320,1854,6,0,467,328,0.473005185182,0.365775667588,-1.0,0,0.0,1.0,0.589561230503,0,0.0,0.0,0.681810639799,0.387246839605,0.100621651222,0.487868490826,0.286625188383,nan,nan,0.0,0.0,0.0,nan,nan,309.136508725,721.578441591,722.168002822,722.078492624,nan,nan
0,321,1855,6,1,289,203,0.140592130943,0.368073254824,0.582505265782,1,1.0,1.0,0.341432464309,0,0.0,0.0,0.568351247969,0.387887075019,0.101102895054,0.488989970073,0.286784179964,nan,nan,0.0,0.0,0.0,nan,nan,309.136508725,722.578536528,722.919968992,723.07857188,nan,nan
0,322,1856,6,1,6,4,0.895129075663,0.186272780825,-1.0,1,1.0,1.0,0.357310942374,0,0.0,0.0,0.429434879062,0.387740530506,0.100976909094,0.488717439599,0.286763621412,nan,nan,0.0,0.0,0.0,nan,nan,309.136508725,723.578694472,723.936005414,724.078707872,nan,nan
0,323,1857,6,1,497,349,0.723174939644,0.271260599794,-1.0,1,1.0,1.0,0.33314611949,0,0.0,0.0,0.343963175391,0.387644839977,0.100832409902,0.488477249878,0.286812430075,nan,nan,0.0,0.0,0.0,nan,nan,309.136508725,724.578800528,724.911946648,725.078857263,nan,nan
0,324,1858,6,1,324,227,-0.114799643766,0.441158325109,0.368064040095,1,1.0,1.0,0.220660523511,0,0.0,0.0,0.303705861792,0.387473997593,0.100720327488,0.48819432508,0.286753670105,nan,nan,0.0,0.0,0.0,nan,nan,309.136508725,725.587264203,725.807924727,726.087294424,nan,nan
0,325,1859,6,1,475,333,0.539218753276,0.343659807328,-1.0,1,1.0,1.0,0.260566407815,0,1.0,0.0,0.271457683605,0.386952705486,0.100992917301,0.487945622787,0.285959788186,nan,nan,0.0,0.0,0.0,nan,nan,309.136508725,726.58738822,726.847954628,727.087438112,nan,nan
0,326,1904,6,1,210,147,0.958022500947,0.0359304984579,0.533421856807,1,1.0,1.0,0.244370046072,1,0.0,0.0,0.241865659133,0.386558978702,0.101081163603,0.487640142305,0.2854778151,-48.3018656744,197.0,1.0,-0.035797595552,0.455774741445,-9.35438432556,1.883885975,309.136508725,727.587519365,727.831889411,728.087561845,729.412724677,731.304633567
0,327,1905,6,1,21,14,1.0,0.116713997928,-1.0,1,1.0,1.0,0.526610099711,0,0.0,0.0,0.343848851199,0.386117398166,0.101233707065,0.487351105231,0.284883691102,nan,nan,0.0,0.0,0.0,nan,nan,309.136508725,732.51315067,733.039760769,733.013233063,nan,nan
0,328,1906,6,1,74,52,1.0,-0.159715158178,-0.810443278181,1,1.0,1.0,0.350492847152,0,0.0,0.0,0.373824330978,0.38655236009,0.101377782873,0.487930142963,0.285174577218,nan,nan,0.0,0.0,0.0,nan,nan,309.136508725,733.513317737,733.863810584,734.013324579,nan,nan
0,329,1907,6,1,172,120,1.0,-0.170984061773,0.265024678188,1,1.0,1.0,0.230338712223,0,0.0,0.0,0.369147219695,0.386441065297,0.101240975746,0.487682041043,0.285200089552,nan,nan,0.0,0.0,0.0,nan,nan,309.136508725,734.513432915,734.743771628,735.013450022,nan,nan
0,330,1908,6,1,442,310,0.273907262724,0.421095538958,-1.0,1,1.0,1.0,0.214213055559,0,1.0,0.0,0.265014871644,0.385960750365,0.101454152759,0.487414903124,0.284506597606,nan,nan,0.0,0.0,0.0,nan,nan,309.136508725,735.51354895,735.727762005,736.013581166,nan,nan
0,331,1913,6,1,225,158,0.81146624694,0.115131125244,0.600981946568,1,1.0,1.0,0.198061169125,1,0.0,0.0,0.214204312302,0.385433916945,0.101742697687,0.487176614633,0.283691219258,-66.6337804166,223.0,0.83172397378,0.104890589731,0.593432239612,-1.56934458339,1.8255602587,309.136508725,736.513675818,736.711736987,737.013709744,738.338885407,740.172472002
0,332,1914,6,0,99,69,1.0,-0.267176270739,-0.468793303331,0,0.0,1.0,0.642599822953,0,0.0,0.0,0.351624682546,0.3848609116,0.102112475174,0.486973386775,0.282748436426,nan,nan,0.0,0.0,0.0,nan,nan,309.136508725,741.381000508,742.023600331,741.88104983,nan,nan
0,333,1915,6,1,492,345,0.681403316433,0.289222019555,-1.0,1,1.0,1.0,0.408457345329,0,0.0,0.0,0.416372779136,0.385646700964,0.102942115345,0.488588816309,0.282704585619,nan,nan,0.0,0.0,0.0,nan,nan,309.136508725,742.431134247,742.839591593,742.931138238,nan,nan
0,334,1916,6,1,161,113,1.0,-0.223158351501,0.167490545043,1,1.0,1.0,0.344346441329,0,0.0,0.0,0.465134536537,0.38571603423,0.102793219009,0.488509253238,0.282922815221,nan,nan,0.0,0.0,0.0,nan,nan,309.136508725,743.431251707,743.775598148,743.931282497,nan,nan
0,335,1917,6,1,486,341,0.631151757674,0.309603058574,-1.0,1,1.0,1.0,0.280171673745,0,0.0,0.0,0.344325153468,0.385590671827,0.102662538528,0.488253210355,0.282928133299,nan,nan,0.0,0.0,0.0,nan,nan,309.136508725,744.431387983,744.711559657,744.931404519,nan,nan
0,336,1918,6,1,24,16,1.0,0.102019060141,-1.0,1,1.0,1.0,0.296087499708,0,0.0,0.0,0.30686853826,0.385272185428,0.102670483676,0.487942669104,0.282601701752,nan,nan,0.0,0.0,0.0,nan,nan,309.136508725,745.431513141,745.727600641,745.931528251,nan,nan
0,337,1919,6,0,510,358,0.830554458933,0.220436700166,-1.0,0,1.0,0.0,0.247900688089,0,0.0,0.0,0.274719953847,0.385003556856,0.102632172949,0.487635729806,0.282371383907,nan,nan,0.0,0.0,0.0,nan,nan,309.136508725,746.431627179,746.679527868,746.931690756,nan,nan
0,338,1920,6,1,351,246,-0.175686286722,0.4701852659,0.128489978773,1,1.0,1.0,0.303741783835,0,0.0,0.0,0.282576657211,0.38459183653,0.102752176269,0.487344012799,0.28183966026,nan,nan,0.0,0.0,0.0,nan,nan,309.136508725,747.431754618,747.735496402,747.931793677,nan,nan
0,339,1921,6,1,40,28,1.0,0.0201165467467,-1.0,1,1.0,1.0,0.311561995186,0,0.0,0.0,0.28773482237,0.384349770504,0.10269328788,0.487043058383,0.281656482624,nan,nan,0.0,0.0,0.0,nan,nan,309.136508725,748.431912847,748.743474842,748.931924536,nan,nan
0,340,1922,6,0,467,328,0.473005185182,0.365775667588,-1.0,0,0.0,1.0,0.647388597019,0,0.0,0.0,0.42089745868,0.384132493563,0.102616757593,0.486749251156,0.281515735969,nan,nan,0.0,0.0,0.0,nan,nan,309.136508725,749.432043421,750.079432018,749.932087041,nan,nan
0,341,1923,6,1,367,258,-0.15309091083,0.477560897992,-0.0350816338538,1,1.0,1.0,0.24727803655,0,0.0,0.0,0.402076209585,0.38491599387,0.10346258467,0.48837857854,0.281453409201,nan,nan,0.0,0.0,0.0,nan,nan,309.136508725,750.43214235,750.679420386,750.932181694,nan,nan
0,342,1924,6,1,153,107,1.0,-0.255547855702,0.0926213922694,1,1.0,1.0,0.319133886136,0,0.0,0.0,0.404600173235,0.384507572632,0.10357987145,0.488087444082,0.280927701182,nan,nan,0.0,0.0,0.0,nan,nan,309.136508725,751.432276346,751.751410232,751.932309417,nan,nan
0,343,1925,6,1,65,45,1.0,-0.113312155659,-1.0,1,1.0,1.0,0.374976978637,0,0.0,0.0,0.313796300441,0.384314159358,0.10348746068,0.487801620039,0.280826698678,nan,nan,0.0,0.0,0.0,nan,nan,309.136508725,752.43240806,752.807385039,752.93243771,nan,nan
0,344,1926,6,1,15,10,0.965734432428,0.145352784795,-1.0,1,1.0,1.0,0.382823988795,0,0.0,0.0,0.358978284523,0.384286616052,0.103335952287,0.487622568339,0.280950663766,nan,nan,0.0,0.0,0.0,nan,nan,309.136508725,753.432539775,753.815363764,753.932567145,nan,nan
0,345,1927,6,1,376,264,-0.124962824795,0.478704673615,-0.132627625282,1,1.0,1.0,0.38266091235,0,0.0,0.0,0.380153959927,0.384282314208,0.103183906147,0.487466220355,0.28109840806,nan,nan,0.0,0.0,0.0,nan,nan,309.136508725,754.432680613,754.815341526,754.932697434,nan,nan
0,346,1928,6,1,17,11,0.981069150956,0.135921910835,-1.0,1,1.0,1.0,0.397634493187,0,0.0,0.0,0.387706464777,0.384277559363,0.103032536317,0.48731009568,0.281245023047,nan,nan,0.0,0.0,0.0,nan,nan,309.136508725,755.43368558,755.831320073,755.932821166,nan,nan
0,347,1929,6,1,268,188,0.35230222188,0.302367520405,0.645005310408,1,1.0,1.0,0.422377492301,0,0.0,0.0,0.400890965946,0.384316614726,0.102884321476,0.487200936202,0.281432293249,nan,nan,0.0,0.0,0.0,nan,nan,309.136508725,756.432934349,756.855311842,756.93295174,nan,nan
0,348,1930,6,1,509,357,0.822386376617,0.224555004187,-1.0,1,1.0,1.0,0.446235835552,0,0.0,0.0,0.422082607013,0.384427579383,0.102754727926,0.487182307309,0.281672851457,nan,nan,0.0,0.0,0.0,nan,nan,309.136508725,757.433064069,757.879299904,757.933101417,nan,nan
0,349,1931,6,1,383,269,-0.0968787136249,0.478131214543,-0.211081409456,1,1.0,1.0,0.357704090886,0,0.0,0.0,0.408772472913,0.384607254546,0.102659212072,0.487266466619,0.281948042474,nan,nan,0.0,0.0,0.0,nan,nan,309.136508725,758.441579632,758.799283722,758.941548555,nan,nan
0,350,1932,6,0,94,66,1.0,-0.249439013202,-0.526745155233,0,0.0,1.0,0.573677334934,0,0.0,0.0,0.459205753791,0.384529274362,0.102520525163,0.487049799525,0.282008749198,nan,nan,0.0,0.0,0.0,nan,nan,309.136508725,759.44164948,760.015326815,759.941717903,nan,nan
0,351,1933,6,1,357,251,-0.1717918326,0.473767524415,0.068739031695,1,1.0,1.0,0.317475477234,0,0.0,0.0,0.416285634351,0.385075945057,0.102874602727,0.487950547784,0.28220134233,nan,nan,0.0,0.0,0.0,nan,nan,309.136508725,760.441772642,760.759248119,760.941807139,nan,nan
0,352,1934,6,1,460,323,0.415848916989,0.383334931935,-1.0,1,1.0,1.0,0.260986641049,0,0.0,0.0,0.384046484406,0.384881131029,0.102790156942,0.487671287971,0.282090974087,nan,nan,0.0,0.0,0.0,nan,nan,309.136508725,761.450231185,761.711217826,761.950270243,nan,nan
0,353,1935,6,1,317,222,-0.077772836126,0.429938605076,0.420733606481,1,1.0,1.0,0.33282567095,0,0.0,0.0,0.303762596411,0.38452511238,0.102856389314,0.487381501693,0.281668723066,nan,nan,0.0,0.0,0.0,nan,nan,309.136508725,762.450360334,762.783186004,762.950397681,nan,nan
0,354,1936,6,1,79,55,1.0,-0.184296021705,-0.724170777997,1,1.0,1.0,0.348671362735,0,0.0,0.0,0.314161224912,0.384376976444,0.102746094091,0.487123070535,0.281630882353,nan,nan,0.0,0.0,0.0,nan,nan,309.136508725,763.450492904,763.799164266,763.950557336,nan,nan
0,355,1937,6,1,380,267,-0.109519508899,0.478533032186,-0.177177385375,1,1.0,1.0,0.348535940982,0,0.0,0.0,0.343344324889,0.384274960405,0.102616908051,0.486891868456,0.281658052354,nan,nan,0.0,0.0,0.0,nan,nan,309.136508725,764.450618917,764.799154858,764.950660541,nan,nan
0,356,1938,6,0,486,341,0.631151757674,0.309603058574,-1.0,0,1.0,0.0,0.460354410112,0,0.0,0.0,0.38585390461,0.384173139837,0.102488329887,0.486661469724,0.28168480995,nan,nan,0.0,0.0,0.0,nan,nan,309.136508725,765.450757474,765.911111884,765.950833309,nan,nan
0,357,1939,6,1,19,13,0.99625917486,0.126374530333,-1.0,1,1.0,1.0,0.412221197039,0,0.0,0.0,0.407037182711,0.3843895639,0.102422936292,0.486812500192,0.281966627608,nan,nan,0.0,0.0,0.0,nan,nan,309.136508725,766.450882061,766.863103258,766.950915418,nan,nan
0,358,1940,6,1,65,45,1.0,-0.113312155659,-1.0,1,1.0,1.0,0.348066671751,0,0.0,0.0,0.406880759634,0.384468407054,0.102288454799,0.486756861853,0.282179952254,nan,nan,0.0,0.0,0.0,nan,nan,309.136508725,767.451012066,767.799078737,767.951070226,nan,nan
0,359,1941,6,1,134,94,1.0,-0.304950998219,-0.095144111098,1,1.0,1.0,0.379581009969,0,0.0,0.0,0.37995629292,0.384365577293,0.102162147096,0.486527724389,0.282203430197,nan,nan,0.0,0.0,0.0,nan,nan,309.136508725,768.459470609,768.839051619,768.959511378,nan,nan
0,360,1942,6,1,178,125,1.0,-0.139919655122,0.315097826042,1,1.0,1.0,0.34609151911,0,0.0,0.0,0.357913066943,0.384352099638,0.102018470428,0.486370570067,0.28233362921,nan,nan,0.0,0.0,0.0,nan,nan,309.136508725,769.492964091,769.83905561,769.992979201,nan,nan
0,361,1943,6,0,306,215,-0.00395437407881,0.408974006242,0.494128827808,0,0.0,1.0,0.537895664573,0,0.0,0.0,0.421189397884,0.384244626098,0.101895208198,0.486139834296,0.282349417899,nan,nan,0.0,0.0,0.0,nan,nan,309.136508725,770.493101792,771.030997457,770.993150829,nan,nan
0,362,1944,6,1,41,28,1.0,0.0148395037771,-1.0,1,1.0,1.0,0.32977228146,0,0.0,0.0,0.404586488381,0.384675021163,0.102075931814,0.486750952978,0.282599089349,nan,nan,0.0,0.0,0.0,nan,nan,309.136508725,771.493205283,771.822977564,771.993246336,nan,nan
0,363,1945,6,1,171,120,1.0,-0.176011872558,0.256450910142,1,1.0,1.0,0.361300019547,0,0.0,0.0,0.409655988527,0.384521661555,0.101974445143,0.486496106698,0.282547216412,nan,nan,0.0,0.0,0.0,nan,nan,309.136508725,772.501684068,772.862984087,773.001712007,nan,nan
0,364,1946,6,1,120,84,1.0,-0.310161497659,-0.240162905937,1,1.0,1.0,0.415788900107,0,0.0,0.0,0.368953733705,0.384456977316,0.101839674836,0.486296652151,0.28261730248,nan,nan,0.0,0.0,0.0,nan,nan,309.136508725,773.535154742,773.950943642,774.035170993,nan,nan
0,365,1947,6,1,172,120,1.0,-0.170984061773,0.265024678188,1,1.0,1.0,0.359684659168,0,0.0,0.0,0.378924526274,0.384544010435,0.101711501269,0.486255511703,0.282832509166,nan,nan,0.0,0.0,0.0,nan,nan,309.136508725,774.535258518,774.894943177,775.035300141,nan,nan
0,366,1948,6,1,122,85,1.0,-0.311159539646,-0.219144224573,1,1.0,1.0,0.399510146119,0,0.0,0.0,0.391661235131,0.384475147966,0.101578932261,0.486054080226,0.282896215705,nan,nan,0.0,0.0,0.0,nan,nan,309.136508725,775.535391658,775.934901804,776.035421878,nan,nan
0,367,1949,6,0,336,236,-0.158211608236,0.456758111158,0.268135266647,0,0.0,1.0,0.479359261692,0,0.0,0.0,0.412851355659,0.38451668111,0.101441602267,0.485958283377,0.283075078843,nan,nan,0.0,0.0,0.0,nan,nan,309.136508725,776.535554163,777.014913425,777.035582673,nan,nan
0,368,1950,6,1,195,137,1.0,-0.0469245268387,0.442396054288,1,1.0,1.0,0.287235237658,0,0.0,0.0,0.388701548489,0.384777955436,0.101423676387,0.486201631824,0.283354279049,nan,nan,0.0,0.0,0.0,nan,nan,309.136508725,777.535651096,777.822886334,778.035683882,nan,nan
0,369,1951,6,1,284,199,0.188465149253,0.353984098999,0.602236276499,1,1.0,1.0,0.24711524602,0,0.0,0.0,0.337903248457,0.384509980937,0.101412863814,0.485922844751,0.283097117123,nan,nan,0.0,0.0,0.0,nan,nan,309.136508725,778.535787372,778.782902618,779.035821299,nan,nan
0,370,1952,6,1,83,58,1.0,-0.203097876184,-0.665876706514,1,1.0,1.0,0.254587354138,0,1.0,0.0,0.262979279272,0.384133557006,0.101528168589,0.485661725595,0.282605388417,nan,nan,0.0,0.0,0.0,nan,nan,309.136508725,779.544233086,779.79882044,780.044282692,nan,nan
0,371,1958,6,1,476,334,0.547545041103,0.340739382997,-1.0,1,1.0,1.0,0.294450758025,1,0.0,0.0,0.265384452728,0.383779605632,0.101614629568,0.4853942352,0.282164976064,119.104731627,471.0,0.506014005179,0.354993781952,-1.0,-3.79223162742,3.10070994869,309.136508725,780.544379625,780.838830383,781.04440614,782.369579522,785.478325499
0,372,1959,6,1,370,260,-0.144805996584,0.478178727438,-0.0671803333712,1,1.0,1.0,0.503786372952,0,0.0,0.0,0.350941495039,0.383536202777,0.101582880578,0.485119083356,0.281953322199,nan,nan,0.0,0.0,0.0,nan,nan,309.136508725,786.686865695,787.190652068,787.186876813,nan,nan
0,373,2000,6,1,164,115,1.0,-0.209685835145,0.194761549991,1,1.0,1.0,0.359646741301,0,0.0,0.0,0.385961290759,0.383862969544,0.101637727379,0.485500696923,0.282225242165,nan,nan,0.0,0.0,0.0,nan,nan,309.136508725,787.686971466,788.046618207,788.186996269,nan,nan
0,374,2001,6,1,50,35,1.0,-0.033148730948,-1.0,1,1.0,1.0,0.391515741125,0,0.0,0.0,0.418316285126,0.383797342909,0.101507720655,0.485305063564,0.282289622254,nan,nan,0.0,0.0,0.0,nan,nan,309.136508725,788.687100614,789.078616356,789.187127413,nan,nan
0,375,2002,6,1,478,336,0.56422249903,0.334793662244,-1.0,1,1.0,1.0,0.383385344408,0,0.0,0.0,0.378182608945,0.383818203445,0.101371247267,0.485189450711,0.282446956178,nan,nan,0.0,0.0,0.0,nan,nan,309.136508725,789.687225202,790.070610547,790.187261409,nan,nan
0,376,2003,6,1,374,262,-0.132039125116,0.478634076427,-0.110628443238,1,1.0,1.0,0.327216957696,0,0.0,0.0,0.367372681076,0.383817036709,0.101234538637,0.485051575346,0.282582498072,nan,nan,0.0,0.0,0.0,nan,nan,309.136508725,790.687370601,791.014587559,791.187385141,nan,nan
0,377,2004,6,1,234,164,0.71814774995,0.15974031316,0.62913160129,1,1.0,1.0,0.199101488106,0,0.0,0.0,0.303234596737,0.383664885959,0.101140846644,0.484805732603,0.282524039315,nan,nan,0.0,0.0,0.0,nan,nan,309.136508725,791.687509159,791.886610647,792.18754166,nan,nan
0,378,2005,6,1,398,279,-0.0220377755791,0.472608796233,-0.387943383198,1,1.0,1.0,0.262605422176,0,1.0,0.0,0.262974622659,0.383170077922,0.101455037443,0.484625115365,0.281715040479,nan,nan,0.0,0.0,0.0,nan,nan,309.136508725,792.69596485,792.958570273,793.196005334,nan,nan
0,379,2006,6,0,465,326,0.456588679398,0.37096152752,-1.0,0,1.0,0.0,0.214411768131,0,0.0,0.0,0.225372892804,0.382847712532,0.101510417454,0.484358129986,0.281337295078,nan,nan,0.0,0.0,0.0,nan,nan,309.136508725,793.696129637,793.910541405,794.196142752,nan,nan
0,380,2007,6,1,73,51,1.0,-0.1546788618,-0.830916872461,1,1.0,1.0,0.190375809558,0,0.0,0.0,0.222464333288,0.382398550014,0.101746449135,0.484144999148,0.280652100879,nan,nan,0.0,0.0,0.0,nan,nan,309.136508725,794.696220012,794.886595822,795.196248237,nan,nan
0,381,2008,6,1,151,106,1.0,-0.262720288689,0.0734626651272,1,1.0,1.0,0.286183799617,0,0.0,0.0,0.230323792435,0.381887851236,0.102091194812,0.483979046048,0.279796656424,nan,nan,0.0,0.0,0.0,nan,nan,309.136508725,795.696347451,795.98253125,796.196393352,nan,nan
0,382,2009,6,1,383,269,-0.0968787136249,0.478131214543,-0.211081409456,1,1.0,1.0,0.381647108123,0,0.0,0.0,0.286068905766,0.381633994335,0.102074465774,0.483708460109,0.279559528561,nan,nan,0.0,0.0,0.0,nan,nan,309.136508725,796.704805994,797.086453103,797.20485503,nan,nan
0,383,2010,6,1,198,139,1.0,-0.0302354974571,0.462326941081,1,1.0,1.0,0.333532426506,0,0.0,0.0,0.333787778082,0.381634029028,0.101939357225,0.483573386252,0.279694671803,nan,nan,0.0,0.0,0.0,nan,nan,309.136508725,797.70492716,798.038459587,798.205007843,nan,nan
0,384,2011,6,1,339,238,-0.164955840019,0.45996923152,0.241423096872,1,1.0,1.0,0.349422878586,0,0.0,0.0,0.354867471072,0.381507111871,0.101834683711,0.483341795582,0.27967242816,nan,nan,0.0,0.0,0.0,nan,nan,309.136508725,798.705056024,799.054478902,799.205113899,nan,nan
0,385,2012,6,1,113,79,1.0,-0.302191989669,-0.314576349441,1,1.0,1.0,0.394804050215,0,0.0,0.0,0.359253118436,0.381422679678,0.101713884742,0.48313656442,0.279708794936,nan,nan,0.0,0.0,0.0,nan,nan,309.136508725,799.763614095,800.158418145,800.263570189,nan,nan
0,386,2013,6,1,378,265,-0.117450136118,0.478670924818,-0.154810124165,1,1.0,1.0,0.370722190477,0,0.0,0.0,0.371649706426,0.381457801385,0.101582621479,0.483040422864,0.279875179906,nan,nan,0.0,0.0,0.0,nan,nan,309.136508725,800.763670544,801.134392735,801.263696203,nan,nan
