block,trial,freq_trials,correct_response,actual_response,acc,rts,probe_trials,fast_rt_trigger,slow_rt_trigger,rt_triggered,rts_runningavg,rts_runningstd,rts_runningfastthresh,rts_runningslowthresh,rts_runningstd,rts_trailingavg,trials_colorind,trials_colorrgb0,trials_colorrgb1,trials_colorrgb2,wm_respdeg,wm_respdeg_in_colorspace,wm_respcolorminusorigcolor,wm_resptexind,wm_resptexrgb0,wm_resptexrgb1,wm_resptexrgb2,wm_rts,time_blockstart,time_encarray_offset,time_encarray_onset,time_response,time_iti_offset,time_iti_onset,time_memprobe_offset,time_memprobe_onset
1,1,1,1,1.0,1.0,0.402393902652,0,nan,nan,nan,nan,nan,nan,nan,nan,nan,79,1.0,-0.184296021705,-0.724170777997,nan,nan,nan,nan,0.0,0.0,0.0,nan,309.136508725,310.150090461,310.650128379,310.552484363,nan,nan,nan,nan
1,2,1,1,1.0,1.0,0.272580965422,0,nan,nan,nan,nan,nan,nan,nan,nan,nan,186,1.0,-0.0967386681424,0.377881386018,nan,nan,nan,nan,0.0,0.0,0.0,nan,309.136508725,311.191899083,311.691933864,311.464480048,nan,nan,nan,nan
1,3,1,1,1.0,1.0,0.320081264712,0,nan,nan,nan,nan,nan,nan,nan,nan,nan,37,1.0,0.0358565504353,-1.0,nan,nan,nan,nan,0.0,0.0,0.0,nan,309.136508725,312.200365038,312.700397254,312.520446302,nan,nan,nan,nan
1,4,1,1,1.0,1.0,0.319583198987,0,nan,nan,nan,nan,nan,nan,nan,nan,nan,269,0.34171296506,0.305888347675,0.643262349404,nan,nan,nan,nan,0.0,0.0,0.0,nan,309.136508725,313.208848955,313.708889154,313.528432154,nan,nan,nan,nan
1,5,0,0,0.0,1.0,0.471446678974,0,nan,nan,nan,nan,nan,nan,nan,nan,nan,2,0.863024578927,0.203622855609,-1.0,nan,nan,nan,nan,0.0,0.0,0.0,nan,309.136508725,314.208972117,314.709023149,314.680418796,nan,nan,nan,nan
1,6,1,1,1.0,1.0,0.535267354921,0,nan,nan,nan,nan,nan,nan,nan,nan,nan,427,0.163265173604,0.444863218481,-0.840208708629,nan,nan,nan,nan,0.0,0.0,0.0,nan,309.136508725,315.209109534,315.709184229,315.744376888,nan,nan,nan,nan
1,7,1,1,1.0,1.0,0.390853459947,0,nan,nan,nan,nan,nan,nan,nan,nan,nan,382,-0.1011887567,0.478291136399,-0.199732273247,nan,nan,nan,nan,0.0,0.0,0.0,nan,309.136508725,316.217539852,316.717602288,316.608393312,nan,nan,nan,nan
1,8,1,1,1.0,1.0,0.326331160963,0,nan,nan,nan,nan,nan,nan,nan,nan,nan,278,0.248285521772,0.335802812283,0.621962573991,nan,nan,nan,nan,0.0,0.0,0.0,nan,309.136508725,317.22601208,317.726080788,317.552343241,nan,nan,nan,nan
1,9,1,1,1.0,1.0,0.365845890716,0,nan,nan,nan,nan,nan,nan,nan,nan,nan,212,0.93926288676,0.0467731277665,0.543851001166,nan,nan,nan,nan,0.0,0.0,0.0,nan,309.136508725,318.234506261,318.734513103,318.600352151,nan,nan,nan,nan
1,10,1,1,1.0,1.0,0.387339070439,0,nan,nan,nan,nan,nan,nan,nan,nan,nan,362,-0.164239727892,0.476000155386,0.0174578511848,nan,nan,nan,nan,0.0,0.0,0.0,nan,309.136508725,319.292991916,319.792999044,319.680330986,nan,nan,nan,nan
1,11,1,1,1.0,1.0,0.427197341807,0,nan,nan,nan,nan,nan,nan,nan,nan,nan,38,1.0,0.0306259494545,-1.0,nan,nan,nan,nan,0.0,0.0,0.0,nan,309.136508725,320.29307545,320.793110802,320.720272792,nan,nan,nan,nan
1,12,1,1,1.0,1.0,0.474706478417,0,nan,nan,nan,nan,nan,nan,nan,nan,nan,409,0.0429436170054,0.464793150178,-0.529461854507,nan,nan,nan,nan,0.0,0.0,0.0,nan,309.136508725,321.301547677,321.801575902,321.776254156,nan,nan,nan,nan
1,13,1,1,1.0,1.0,0.314277544618,0,nan,nan,nan,nan,nan,nan,nan,nan,nan,191,1.0,-0.0691479807067,0.414571651978,nan,nan,nan,nan,0.0,0.0,0.0,nan,309.136508725,322.309993106,322.810061529,322.624270651,nan,nan,nan,nan
1,14,1,1,1.0,1.0,0.36207690835,0,nan,nan,nan,nan,nan,nan,nan,nan,nan,80,1.0,-0.189075709245,-0.708965549488,nan,nan,nan,nan,0.0,0.0,0.0,nan,309.136508725,323.310131378,323.810180985,323.672208287,nan,nan,nan,nan
1,15,1,1,1.0,1.0,0.393595809117,0,nan,nan,nan,nan,nan,nan,nan,nan,nan,413,0.0683106243366,0.461143133648,-0.585495598612,nan,nan,nan,nan,0.0,0.0,0.0,nan,309.136508725,324.318607883,324.818650362,324.712203692,nan,nan,nan,nan
1,16,1,1,1.0,1.0,0.345114776865,0,nan,nan,nan,nan,nan,nan,nan,nan,nan,80,1.0,-0.189075709245,-0.708965549488,nan,nan,nan,nan,0.0,0.0,0.0,nan,309.136508725,325.327070132,325.827101777,325.672184909,nan,nan,nan,nan
1,17,1,1,1.0,1.0,0.336552458815,0,nan,nan,nan,nan,nan,nan,nan,nan,nan,20,1.0,0.121558187834,-1.0,nan,nan,nan,nan,0.0,0.0,0.0,nan,309.136508725,326.335589685,326.835566022,326.672142144,nan,nan,nan,nan
1,18,1,1,1.0,1.0,0.408148299903,0,nan,nan,nan,nan,nan,nan,nan,nan,nan,222,0.841778467246,0.0997291618919,0.589484691865,nan,nan,nan,nan,0.0,0.0,0.0,nan,309.136508725,327.343997767,327.844064195,327.752146067,nan,nan,nan,nan
1,19,1,1,1.0,1.0,0.399678924121,1,nan,nan,nan,nan,nan,nan,nan,nan,nan,414,0.0747837862165,0.460162189034,-0.600089175003,-34.1213952335,124.121395234,-166.972354766,177.0,1.0,-0.145192147526,0.306921212481,4.15085452143,309.136508725,328.352451463,328.85248596,328.752130387,334.344867598,335.344997317,330.177662763,334.336533071
1,20,1,1,1.0,1.0,0.790564885363,0,nan,nan,nan,nan,nan,nan,nan,nan,nan,469,0.489482198204,0.360453357602,-1.0,nan,nan,nan,nan,0.0,0.0,0.0,nan,309.136508725,335.553388976,336.053467093,336.343953862,nan,nan,nan,nan
1,21,1,1,1.0,1.0,0.454447199591,0,nan,nan,nan,nan,nan,nan,nan,nan,nan,218,0.881467392804,0.0788246127756,0.572559633417,nan,nan,nan,nan,0.0,0.0,0.0,nan,309.136508725,336.553513849,337.053544355,337.007961049,nan,nan,nan,nan
1,22,1,1,1.0,1.0,0.422279134393,0,nan,nan,nan,nan,nan,nan,nan,nan,nan,58,1.0,-0.0760896648475,-1.0,nan,nan,nan,nan,0.0,0.0,0.0,nan,309.136508725,337.553650125,338.053705149,337.975929259,nan,nan,nan,nan
1,23,1,1,1.0,1.0,0.374126248993,0,nan,nan,nan,nan,nan,nan,nan,nan,nan,317,-0.077772836126,0.429938605076,0.420733606481,nan,nan,nan,nan,0.0,0.0,0.0,nan,309.136508725,338.553776993,339.053809495,338.927903242,nan,nan,nan,nan
1,24,1,1,1.0,1.0,0.357966950163,0,nan,nan,nan,nan,nan,nan,nan,nan,nan,377,-0.121259861678,0.478700828387,-0.143695900877,nan,nan,nan,nan,0.0,0.0,0.0,nan,309.136508725,339.553934937,340.053944916,339.911901888,nan,nan,nan,nan
1,25,1,1,1.0,1.0,0.381503988989,0,nan,nan,nan,nan,nan,nan,nan,nan,nan,426,0.156193047225,0.446210853967,-0.81485970128,nan,nan,nan,nan,0.0,0.0,0.0,nan,309.136508725,340.562382647,341.062405169,340.943886636,nan,nan,nan,nan
1,26,1,1,1.0,1.0,0.349342765287,0,nan,nan,nan,nan,nan,nan,nan,nan,nan,368,-0.150457169737,0.477793263397,-0.0457341785459,nan,nan,nan,nan,0.0,0.0,0.0,nan,309.136508725,341.562512366,342.06253831,341.911855131,nan,nan,nan,nan
1,27,1,1,1.0,1.0,0.308852718212,0,nan,nan,nan,nan,nan,nan,nan,nan,nan,178,1.0,-0.139919655122,0.315097826042,nan,nan,nan,nan,0.0,0.0,0.0,nan,309.136508725,342.570975185,343.070997423,342.879827904,nan,nan,nan,nan
1,28,1,1,1.0,1.0,0.380706572905,1,nan,nan,nan,nan,nan,nan,nan,nan,nan,294,0.0948761993654,0.381212130724,0.559858230992,-121.093875414,211.093875414,4.37512541401,300.0,0.0433537089178,0.395748422077,0.528951029102,1.87550839968,309.136508725,343.571098062,344.071129138,343.951804635,347.288205707,348.287436801,345.396326467,347.279875173
1,29,1,1,1.0,1.0,0.527288630605,0,nan,nan,nan,nan,nan,nan,nan,nan,nan,497,0.723174939644,0.271260599794,-1.0,nan,nan,nan,nan,0.0,0.0,0.0,nan,309.136508725,348.488401968,348.988476379,349.015690599,nan,nan,nan,nan
1,30,1,1,1.0,1.0,0.326808127575,0,nan,nan,nan,nan,nan,nan,nan,nan,nan,367,-0.15309091083,0.477560897992,-0.0350816338538,nan,nan,nan,nan,0.0,0.0,0.0,nan,309.136508725,349.496867069,349.996900995,349.823675197,nan,nan,nan,nan
1,31,1,1,1.0,1.0,0.334663690999,0,nan,nan,nan,nan,nan,nan,nan,nan,nan,154,1.0,-0.251813147593,0.102138173725,nan,nan,nan,nan,0.0,0.0,0.0,nan,309.136508725,350.497005056,350.997028434,350.831668747,nan,nan,nan,nan
1,32,1,1,1.0,1.0,0.278503000736,0,nan,nan,nan,nan,nan,nan,nan,nan,nan,268,0.35230222188,0.302367520405,0.645005310408,nan,nan,nan,nan,0.0,0.0,0.0,nan,309.136508725,351.497124512,351.997157012,351.775627512,nan,nan,nan,nan
1,33,1,1,1.0,1.0,0.318356142379,0,nan,nan,nan,nan,nan,nan,nan,nan,nan,30,1.0,0.071945658744,-1.0,nan,nan,nan,nan,0.0,0.0,0.0,nan,309.136508725,352.49725423,352.997291578,352.815610372,nan,nan,nan,nan
1,34,1,1,1.0,1.0,0.325874149799,0,nan,nan,nan,nan,nan,nan,nan,nan,nan,421,0.121471671064,0.452518040197,-0.712610339232,nan,nan,nan,nan,0.0,0.0,0.0,nan,309.136508725,353.505712204,354.005772644,353.831586353,nan,nan,nan,nan
1,35,1,1,1.0,1.0,0.340356223285,0,nan,nan,nan,nan,nan,nan,nan,nan,nan,236,0.697004556276,0.169301754335,0.634065852989,nan,nan,nan,nan,0.0,0.0,0.0,nan,309.136508725,354.539203689,355.03923505,354.879559913,nan,nan,nan,nan
1,36,1,1,1.0,1.0,0.412236591801,0,nan,nan,nan,nan,nan,nan,nan,nan,nan,306,-0.00395437407881,0.408974006242,0.494128827808,nan,nan,nan,nan,0.0,0.0,0.0,nan,309.136508725,355.539314592,356.039350799,355.951551184,nan,nan,nan,nan
1,37,1,1,1.0,1.0,0.428078861907,0,nan,nan,nan,nan,nan,nan,nan,nan,nan,50,1.0,-0.033148730948,-1.0,nan,nan,nan,nan,0.0,0.0,0.0,nan,309.136508725,356.539450299,357.039472821,356.967529161,nan,nan,nan,nan
1,38,1,1,1.0,1.0,0.403926013969,0,nan,nan,nan,nan,nan,nan,nan,nan,nan,346,-0.174317561957,0.466431294057,0.176670174816,nan,nan,nan,nan,0.0,0.0,0.0,nan,309.136508725,357.539593987,358.039605676,357.943520001,nan,nan,nan,nan
1,39,1,1,1.0,1.0,0.531429379247,0,nan,nan,nan,nan,nan,nan,nan,nan,nan,27,1.0,0.0870912575778,-1.0,nan,nan,nan,nan,0.0,0.0,0.0,nan,309.136508725,358.548042553,359.048118673,359.079471932,nan,nan,nan,nan
1,40,1,1,1.0,1.0,0.483306144364,0,nan,nan,nan,nan,nan,nan,nan,nan,nan,356,-0.17284377641,0.473239407326,0.0788368070227,nan,nan,nan,nan,0.0,0.0,0.0,nan,309.136508725,359.548172557,360.048197645,360.031478701,nan,nan,nan,nan
1,41,0,0,1.0,0.0,0.347134119831,0,0.0,0.0,0.0,nan,nan,nan,nan,nan,nan,71,1.0,-0.144504067012,-0.877980773838,nan,nan,nan,nan,0.0,0.0,0.0,nan,309.136508725,360.548335061,361.048362716,360.895469181,nan,nan,nan,nan
1,42,1,1,1.0,1.0,0.522984520532,0,nan,nan,nan,nan,nan,nan,nan,nan,nan,410,0.0492046846968,0.463921527344,-0.54316189137,nan,nan,nan,nan,0.0,0.0,0.0,nan,309.136508725,361.54843285,362.048509541,362.071417371,nan,nan,nan,nan
1,43,1,1,1.0,1.0,0.378841183148,0,nan,nan,nan,nan,nan,nan,nan,nan,nan,132,1.0,-0.307426825298,-0.115555361894,nan,nan,nan,nan,0.0,0.0,0.0,nan,309.136508725,362.548570837,363.048588513,362.92741202,nan,nan,nan,nan
1,44,0,0,0.0,1.0,0.500254306942,0,nan,nan,nan,nan,nan,nan,nan,nan,nan,75,1.0,-0.164714458691,-0.791355921409,nan,nan,nan,nan,0.0,0.0,0.0,nan,309.136508725,363.548719943,364.048782093,364.04897425,nan,nan,nan,nan
1,45,1,1,1.0,1.0,0.354207945988,0,nan,nan,nan,nan,nan,nan,nan,nan,nan,486,0.631151757674,0.309603058574,-1.0,nan,nan,nan,nan,0.0,0.0,0.0,nan,309.136508725,364.557162235,365.057180482,364.911370181,nan,nan,nan,nan
1,46,1,1,1.0,1.0,0.402068321593,0,nan,nan,nan,nan,nan,nan,nan,nan,nan,118,1.0,-0.308588151016,-0.261285249573,nan,nan,nan,nan,0.0,0.0,0.0,nan,309.136508725,365.557289104,366.057313337,365.959357426,nan,nan,nan,nan
1,47,1,1,1.0,1.0,0.425894163549,0,nan,nan,nan,nan,nan,nan,nan,nan,nan,165,1.0,-0.205056383665,0.203745440608,nan,nan,nan,nan,0.0,0.0,0.0,nan,309.136508725,366.557436214,367.057470996,366.983330377,nan,nan,nan,nan
1,48,1,1,1.0,1.0,0.513407827355,0,nan,nan,nan,nan,nan,nan,nan,nan,nan,342,-0.170052622031,0.462913557708,0.21407524247,nan,nan,nan,nan,0.0,0.0,0.0,nan,309.136508725,367.565881643,368.065949496,368.07928947,nan,nan,nan,nan
1,49,1,1,1.0,1.0,0.336943327449,0,nan,nan,nan,nan,nan,nan,nan,nan,nan,431,0.191957257768,0.43918128748,-0.982298765802,nan,nan,nan,nan,0.0,0.0,0.0,nan,309.136508725,368.574347313,369.074388367,368.91129064,nan,nan,nan,nan
1,50,1,1,1.0,1.0,0.320821946487,1,nan,nan,nan,nan,nan,nan,nan,nan,nan,165,1.0,-0.205056383665,0.203745440608,-10.9620872623,100.962087262,-15.0535377377,144.0,1.0,-0.284423189345,0.00519445478499,2.74234927911,309.136508725,369.574462777,370.074511529,369.895284723,374.15838821,375.158357989,371.399674932,374.1500591
1,51,1,1,1.0,1.0,0.656535648741,0,nan,nan,nan,nan,nan,nan,nan,nan,nan,222,0.841778467246,0.0997291618919,0.589484691865,nan,nan,nan,nan,0.0,0.0,0.0,nan,309.136508725,375.358587892,375.858635218,376.015123541,nan,nan,nan,nan
1,52,1,1,1.0,1.0,0.432439706288,0,nan,nan,nan,nan,nan,nan,nan,nan,nan,84,1.0,-0.20765784414,-0.652191087791,nan,nan,nan,nan,0.0,0.0,0.0,nan,309.136508725,376.358680548,376.858713619,376.791120254,nan,nan,nan,nan
1,53,1,1,1.0,1.0,0.336303284392,0,nan,nan,nan,nan,nan,nan,nan,nan,nan,437,0.23613482661,0.429770237144,-1.0,nan,nan,nan,nan,0.0,0.0,0.0,nan,309.136508725,377.358823381,377.858844479,377.695126666,nan,nan,nan,nan
1,54,1,1,1.0,1.0,0.359834620729,0,nan,nan,nan,nan,nan,nan,nan,nan,nan,299,0.0516645560415,0.393417669654,0.534378752182,nan,nan,nan,nan,0.0,0.0,0.0,nan,309.136508725,378.367268525,378.867313855,378.727103146,nan,nan,nan,nan
1,55,1,1,1.0,1.0,0.319596598856,0,nan,nan,nan,nan,nan,nan,nan,nan,nan,169,1.0,-0.185917379452,0.239118302078,nan,nan,nan,nan,0.0,0.0,0.0,nan,309.136508725,379.367457259,379.867455834,379.687053858,nan,nan,nan,nan
1,56,1,1,1.0,1.0,0.383512783796,0,nan,nan,nan,nan,nan,nan,nan,nan,nan,286,0.169078956243,0.359734776014,0.594698705761,nan,nan,nan,nan,0.0,0.0,0.0,nan,309.136508725,380.367543358,380.867571013,380.751056142,nan,nan,nan,nan
1,57,1,1,1.0,1.0,0.349313400686,0,nan,nan,nan,nan,nan,nan,nan,nan,nan,342,-0.170052622031,0.462913557708,0.21407524247,nan,nan,nan,nan,0.0,0.0,0.0,nan,309.136508725,381.417720147,381.91772813,381.767033548,nan,nan,nan,nan
1,58,1,1,1.0,1.0,0.380895592272,0,nan,nan,nan,nan,nan,nan,nan,nan,nan,6,0.895129075663,0.186272780825,-1.0,nan,nan,nan,nan,0.0,0.0,0.0,nan,309.136508725,382.426121386,382.926193801,382.807016978,nan,nan,nan,nan
1,59,1,1,1.0,1.0,0.492708358914,0,nan,nan,nan,nan,nan,nan,nan,nan,nan,162,1.0,-0.218739557155,0.176632971453,nan,nan,nan,nan,0.0,0.0,0.0,nan,309.136508725,383.426269636,383.934629821,383.918977995,nan,nan,nan,nan
1,60,1,1,1.0,1.0,0.452543891966,0,nan,nan,nan,nan,nan,nan,nan,nan,nan,414,0.0747837862165,0.460162189034,-0.600089175003,nan,nan,nan,nan,0.0,0.0,0.0,nan,309.136508725,384.426415891,384.926428435,384.878959783,nan,nan,nan,nan
1,61,1,1,nan,nan,nan,0,nan,nan,nan,nan,nan,nan,nan,nan,nan,241,0.64365311028,0.192605941253,0.644254782112,nan,nan,nan,nan,0.0,0.0,0.0,nan,309.136508725,385.434879852,385.935007575,nan,nan,nan,nan,nan
1,62,1,1,1.0,1.0,0.427914931439,0,nan,nan,nan,nan,nan,nan,nan,nan,nan,75,1.0,-0.164714458691,-0.791355921409,nan,nan,nan,nan,0.0,0.0,0.0,nan,309.136508725,386.435003868,386.93503523,386.8629188,nan,nan,nan,nan
1,63,1,1,1.0,1.0,0.323485322297,0,nan,nan,nan,nan,nan,nan,nan,nan,nan,158,1.0,-0.235949227405,0.139764106,nan,nan,nan,nan,0.0,0.0,0.0,nan,309.136508725,387.443473531,387.9435009,387.766958853,nan,nan,nan,nan
1,64,1,1,1.0,1.0,0.322975283489,1,nan,nan,nan,nan,nan,nan,nan,nan,nan,258,0.459642287315,0.26499291187,0.655490062901,-147.449996508,237.449996508,56.0437465078,338.0,-0.162891363375,0.458928707883,0.250399161362,3.75081380922,309.136508725,388.451914398,388.95195146,388.774889681,394.044298658,395.044083695,390.277123987,394.035968694
1,65,0,0,0.0,1.0,0.754204182886,0,nan,nan,nan,nan,nan,nan,nan,nan,nan,23,1.0,0.106943944166,-1.0,nan,nan,nan,nan,0.0,0.0,0.0,nan,309.136508725,395.244493779,395.744561632,395.998697962,nan,nan,nan,nan
1,66,1,1,1.0,1.0,0.473783048801,0,nan,nan,nan,nan,nan,nan,nan,nan,nan,295,0.0860222946478,0.38372732295,0.554986075565,nan,nan,nan,nan,0.0,0.0,0.0,nan,309.136508725,396.252933506,396.752955743,396.726716555,nan,nan,nan,nan
1,67,1,1,1.0,1.0,0.35331302695,0,nan,nan,nan,nan,nan,nan,nan,nan,nan,485,0.622774561467,0.312875618285,-1.0,nan,nan,nan,nan,0.0,0.0,0.0,nan,309.136508725,397.261385776,397.76142512,397.614698803,nan,nan,nan,nan
1,68,0,0,1.0,0.0,0.28112019226,0,0.0,0.0,0.0,nan,nan,nan,nan,nan,nan,193,1.0,-0.0580453890011,0.428658791268,nan,nan,nan,nan,0.0,0.0,0.0,nan,309.136508725,398.261555694,398.76158563,398.542675886,nan,nan,nan,nan
1,69,1,1,1.0,1.0,0.360638595186,0,nan,nan,nan,nan,nan,nan,nan,nan,nan,249,0.557275547736,0.228026269286,0.654084877906,nan,nan,nan,nan,0.0,0.0,0.0,nan,309.136508725,399.269996561,399.770027922,399.630635156,nan,nan,nan,nan
1,70,1,1,1.0,1.0,0.320506057702,0,nan,nan,nan,nan,nan,nan,nan,nan,nan,35,1.0,0.0462653595507,-1.0,nan,nan,nan,nan,0.0,0.0,0.0,nan,309.136508725,400.270122005,400.770169616,400.590628062,nan,nan,nan,nan
1,71,0,0,1.0,0.0,0.400330940261,0,0.0,0.0,0.0,nan,nan,nan,nan,nan,nan,498,0.731507943485,0.267561876527,-1.0,nan,nan,nan,nan,0.0,0.0,0.0,nan,309.136508725,401.270281089,401.770307602,401.670612029,nan,nan,nan,nan
1,72,1,1,1.0,1.0,0.399878776632,0,nan,nan,nan,nan,nan,nan,nan,nan,nan,415,0.0813077335083,0.459153678902,-0.614968023274,nan,nan,nan,nan,0.0,0.0,0.0,nan,309.136508725,402.27870485,402.778747045,402.678583627,nan,nan,nan,nan
1,73,1,1,1.0,1.0,0.375749591738,0,nan,nan,nan,nan,nan,nan,nan,nan,nan,151,1.0,-0.262720288689,0.0734626651272,nan,nan,nan,nan,0.0,0.0,0.0,nan,309.136508725,403.278852245,403.778880185,403.654601837,nan,nan,nan,nan
1,74,1,1,1.0,1.0,0.359226508997,0,nan,nan,nan,nan,nan,nan,nan,nan,nan,98,1.0,-0.263822910468,-0.480217789416,nan,nan,nan,nan,0.0,0.0,0.0,nan,309.136508725,404.287321052,404.787356404,404.646547561,nan,nan,nan,nan
1,75,1,1,1.0,1.0,0.374777411111,0,nan,nan,nan,nan,nan,nan,nan,nan,nan,162,1.0,-0.218739557155,0.176632971453,nan,nan,nan,nan,0.0,0.0,0.0,nan,309.136508725,405.295771897,405.795810386,405.670549308,nan,nan,nan,nan
1,76,1,1,1.0,1.0,0.406565156765,0,nan,nan,nan,nan,nan,nan,nan,nan,nan,66,1.0,-0.118568705386,-1.0,nan,nan,nan,nan,0.0,0.0,0.0,nan,309.136508725,406.295943811,406.795924709,406.702508967,nan,nan,nan,nan
1,77,1,1,1.0,1.0,0.430464554578,0,nan,nan,nan,nan,nan,nan,nan,nan,nan,227,0.791019951953,0.125257787881,0.608066708266,nan,nan,nan,nan,0.0,0.0,0.0,nan,309.136508725,407.296035897,407.796060415,407.726500452,nan,nan,nan,nan
1,78,1,1,nan,nan,nan,0,nan,nan,nan,nan,nan,nan,nan,nan,nan,280,0.228089347314,0.342018854333,0.61587222022,nan,nan,nan,nan,0.0,0.0,0.0,nan,309.136508725,408.29616476,408.796240597,nan,nan,nan,nan,nan
1,79,1,1,1.0,1.0,0.470164597966,0,nan,nan,nan,nan,nan,nan,nan,nan,nan,194,1.0,-0.0524864644427,0.435571704399,nan,nan,nan,nan,0.0,0.0,0.0,nan,309.136508725,409.296287637,409.796316147,409.766452235,nan,nan,nan,nan
1,80,1,1,1.0,1.0,0.325989614241,0,nan,nan,nan,nan,nan,nan,nan,nan,nan,50,1.0,-0.033148730948,-1.0,nan,nan,nan,nan,0.0,0.0,0.0,nan,309.136508725,410.296423629,410.796449003,410.622413243,nan,nan,nan,nan
1,81,0,0,1.0,0.0,0.30180911161,0,0.0,0.0,0.0,0.400141259655,0.0921852945185,0.307955965137,0.492326554174,0.0921852945185,0.365987774606,327,-0.128086156831,0.445480682368,0.344176439252,nan,nan,nan,nan,0.0,0.0,0.0,nan,309.136508725,411.296612078,411.796641443,411.59842119,nan,nan,nan,nan
1,82,1,1,1.0,1.0,0.325735023245,0,0.0,0.0,0.0,0.398896548921,0.0922572655878,0.306639283333,0.491153814508,0.0922572655878,0.317844583032,394,-0.0437090198531,0.474655926729,-0.339401417396,nan,nan,nan,nan,0.0,0.0,0.0,nan,309.136508725,412.296674799,412.796742653,412.622409822,nan,nan,nan,nan
1,83,1,1,1.0,1.0,0.373572305776,0,0.0,0.0,0.0,0.39798202985,0.0920384798925,0.305943549957,0.490020509742,0.0920384798925,0.33370548021,471,0.506014005179,0.354993781952,-1.0,nan,nan,nan,nan,0.0,0.0,0.0,nan,309.136508725,413.296807654,413.796841866,413.67037996,nan,nan,nan,nan
1,84,0,0,0.0,1.0,0.573360022157,0,0.0,0.0,0.0,0.397680675231,0.0915082820997,0.306172393132,0.489188957331,0.0915082820997,0.424222450393,250,0.546428449327,0.232286661223,0.654747725831,nan,nan,nan,nan,0.0,0.0,0.0,nan,309.136508725,414.296978713,414.797016346,414.870338735,nan,nan,nan,nan
1,85,1,1,1.0,1.0,0.292911234312,0,0.0,0.0,0.0,0.399823106292,0.0929700891558,0.306853017136,0.492793195447,0.0929700891558,0.413281187415,87,1.0,-0.220959007447,-0.612675615602,nan,nan,nan,nan,0.0,0.0,0.0,nan,309.136508725,415.305410457,415.805443243,415.598321691,nan,nan,nan,nan
1,86,0,0,0.0,1.0,0.404783016071,0,0.0,0.0,0.0,0.398535011448,0.0931415756757,0.305393435773,0.491676587124,0.0931415756757,0.423684757513,349,-0.175656888649,0.468768509344,0.147945183432,nan,nan,nan,nan,0.0,0.0,0.0,nan,309.136508725,416.305526776,416.805595485,416.710309792,nan,nan,nan,nan
1,87,1,1,1.0,1.0,0.292636686005,0,0.0,0.0,0.0,0.398609392456,0.0925879814358,0.30602141102,0.491197373892,0.0925879814358,0.330110312129,203,1.0,-0.00249325098487,0.493674673203,nan,nan,nan,nan,0.0,0.0,0.0,nan,309.136508725,417.305661912,417.805693558,417.598298598,nan,nan,nan,nan
1,88,1,1,1.0,1.0,0.436464705504,0,0.0,0.0,0.0,0.397362654733,0.0927482979756,0.304614356757,0.490110952708,0.0927482979756,0.377961469193,325,-0.119404900653,0.442631039184,0.360186421743,nan,nan,nan,nan,0.0,0.0,0.0,nan,309.136508725,418.305804176,418.805818716,418.742268882,nan,nan,nan,nan
1,89,0,0,0.0,1.0,0.420309399255,0,0.0,0.0,0.0,0.397817329742,0.0923027228633,0.305514606879,0.490120052605,0.0923027228633,0.383136930255,499,0.739831889234,0.263827757734,-1.0,nan,nan,nan,nan,0.0,0.0,0.0,nan,309.136508725,419.305948149,419.805981792,419.726257549,nan,nan,nan,nan
1,90,1,1,1.0,1.0,0.316156619228,0,0.0,0.0,0.0,0.398075859276,0.0918020262499,0.306273833027,0.489877885526,0.0918020262499,0.390976907996,373,-0.135407706169,0.478559568072,-0.0996974893599,nan,nan,nan,nan,0.0,0.0,0.0,nan,309.136508725,420.30605221,420.806087277,420.622208829,nan,nan,nan,nan
1,91,1,1,1.0,1.0,0.508028901182,0,0.0,0.0,0.0,0.397144958821,0.091690979858,0.305453978963,0.488835938679,0.091690979858,0.414831639888,167,1.0,-0.195605812978,0.221546716301,nan,nan,nan,nan,0.0,0.0,0.0,nan,309.136508725,421.306199036,421.806261756,421.814227937,nan,nan,nan,nan
1,92,1,1,1.0,1.0,0.46752260346,0,0.0,0.0,0.0,0.398390845814,0.0919204497975,0.306470396017,0.490311295612,0.0919204497975,0.430569374623,493,0.689769084006,0.285700779988,-1.0,nan,nan,nan,nan,0.0,0.0,0.0,nan,309.136508725,422.314652447,422.814672974,422.78217505,nan,nan,nan,nan
1,93,1,1,1.0,1.0,0.403394878842,0,0.0,0.0,0.0,0.399158976455,0.091695143867,0.307463832588,0.490854120322,0.091695143867,0.459648794495,58,1.0,-0.0760896648475,-1.0,nan,nan,nan,nan,0.0,0.0,0.0,nan,309.136508725,423.314776463,423.814813811,423.718171342,nan,nan,nan,nan
1,94,1,1,1.0,1.0,0.451231304556,0,0.0,0.0,0.0,0.399205524833,0.0911910018506,0.308014522982,0.490396526683,0.0911910018506,0.440716262286,261,0.427225806086,0.276617811781,0.653674462902,nan,nan,nan,nan,0.0,0.0,0.0,nan,309.136508725,424.314946952,424.814942676,424.766178257,nan,nan,nan,nan
1,95,1,1,1.0,1.0,0.500273978338,0,0.0,0.0,0.0,0.399771022438,0.0908543359849,0.308916686453,0.490625358423,0.0908543359849,0.451633387245,125,1.0,-0.311567427947,-0.187805059354,nan,nan,nan,nan,0.0,0.0,0.0,nan,309.136508725,425.323360165,425.823471922,425.823634143,nan,nan,nan,nan
1,96,1,1,1.0,1.0,0.418578575365,0,0.0,0.0,0.0,0.400851699383,0.0909571083311,0.309894591052,0.491808807715,0.0909571083311,0.45669461942,407,0.0305886347219,0.46645515455,-0.502577406972,nan,nan,nan,nan,0.0,0.0,0.0,nan,309.136508725,426.323514687,426.823526376,426.742093262,nan,nan,nan,nan
1,97,1,1,1.0,1.0,0.346446750686,0,0.0,0.0,0.0,0.40104028317,0.0904902772393,0.310550005931,0.49153056041,0.0904902772393,0.421766434796,107,1.0,-0.290089771429,-0.379592780214,nan,nan,nan,nan,0.0,0.0,0.0,nan,309.136508725,427.323629866,427.823668354,427.670076617,nan,nan,nan,nan
1,98,1,1,1.0,1.0,0.330297715962,0,0.0,0.0,0.0,0.400465614407,0.0901850242222,0.310280590185,0.49065063863,0.0901850242222,0.365107680671,499,0.739831889234,0.263827757734,-1.0,nan,nan,nan,nan,0.0,0.0,0.0,nan,309.136508725,428.323760156,428.823801495,428.654057872,nan,nan,nan,nan
1,99,1,1,1.0,1.0,0.361796088517,0,0.0,0.0,0.0,0.399734698799,0.0899964937735,0.309738205025,0.489731192572,0.0899964937735,0.346180185055,359,-0.169222339917,0.474741883077,0.0483828026834,nan,nan,nan,nan,0.0,0.0,0.0,nan,309.136508725,429.332238941,429.832256617,429.694035029,nan,nan,nan,nan
1,100,1,1,1.0,1.0,0.361639000475,0,0.0,0.0,0.0,0.399343579105,0.0896133684568,0.309730210648,0.488956947562,0.0896133684568,0.351244268318,88,1.0,-0.225257592204,-0.599932847766,nan,nan,nan,nan,0.0,0.0,0.0,nan,309.136508725,430.332390327,430.832382915,430.694029327,nan,nan,nan,nan
1,101,1,1,1.0,1.0,0.36950169038,0,0.0,0.0,0.0,0.398958838507,0.0892354739775,0.309723364529,0.488194312484,0.0892354739775,0.364312259791,408,0.036737934283,0.465637664749,-0.515938449969,nan,nan,nan,nan,0.0,0.0,0.0,nan,309.136508725,431.332483839,431.832508927,431.70198553,nan,nan,nan,nan
1,102,1,1,1.0,1.0,0.433018738404,0,0.0,0.0,0.0,0.398661291556,0.0888324947745,0.309828796782,0.48749378633,0.0888324947745,0.388053143087,500,0.748145934353,0.260058294274,-1.0,nan,nan,nan,nan,0.0,0.0,0.0,nan,309.136508725,432.340960913,432.841013657,432.773979652,nan,nan,nan,nan
1,103,1,1,1.0,1.0,0.408857622184,0,0.0,0.0,0.0,0.399004866024,0.0884533001346,0.31055156589,0.487458166159,0.0884533001346,0.403792683656,301,0.0351599448551,0.39804275895,0.523414514543,nan,nan,nan,nan,0.0,0.0,0.0,nan,309.136508725,433.341084931,433.841103177,433.749942553,nan,nan,nan,nan
1,104,1,1,1.0,1.0,0.568726910278,0,0.0,0.0,0.0,0.399102418066,0.0880197292306,0.311082688835,0.487122147296,0.0880197292306,0.470201090289,22,1.0,0.111842423158,-1.0,nan,nan,nan,nan,0.0,0.0,0.0,nan,309.136508725,434.341205527,434.841305881,434.909932437,nan,nan,nan,nan
1,105,1,1,1.0,1.0,0.312587488443,0,0.0,0.0,0.0,0.400765403283,0.089167452706,0.311597950577,0.489932855989,0.089167452706,0.430057340302,333,-0.149813480994,0.453275949072,0.294183738108,nan,nan,nan,nan,0.0,0.0,0.0,nan,309.136508725,435.341332681,435.841380007,435.653920169,nan,nan,nan,nan
1,106,1,1,1.0,1.0,0.280412010849,0,0.0,0.0,0.0,0.399909307023,0.0891537881152,0.310755518908,0.489063095138,0.0891537881152,0.387242136523,266,0.373577590308,0.295207490188,0.648113769863,nan,nan,nan,nan,0.0,0.0,0.0,nan,309.136508725,436.341468101,436.841513147,436.621880112,nan,nan,nan,nan
1,107,1,1,1.0,1.0,0.263927986845,0,1.0,0.0,0.0,0.39876029456,0.0894871760927,0.309273118467,0.488247470652,0.0894871760927,0.285642495379,450,0.335949728395,0.405598329481,-1.0,nan,nan,nan,nan,0.0,0.0,0.0,nan,309.136508725,437.349930066,437.849962852,437.613858053,nan,nan,nan,nan
1,108,1,1,1.0,1.0,0.295782730915,1,0.0,0.0,1.0,0.397476177343,0.0900176648252,0.306387030158,0.486646580257,0.0900176648252,0.280040909536,358,-0.170583909915,0.474268316859,0.0585874414746,-164.969569477,254.969569477,3.25081947657,363.0,-0.162287729338,0.476365729747,0.00704812682028,3.5841235742,309.136508725,438.350062636,438.850092,438.645845367,443.775741551,444.775890943,440.175261106,443.767423561
1,109,1,1,nan,nan,nan,0,0.0,0.0,0.0,0.396516805207,0.0901297750494,0.306387030158,0.486646580257,0.0901297750494,0.27985535888,95,1.0,-0.253175017597,-0.514975443931,nan,nan,nan,nan,0.0,0.0,0.0,nan,309.136508725,444.984258369,445.484354446,nan,nan,nan,nan,nan
1,110,1,1,1.0,1.0,0.381305562332,0,0.0,0.0,0.0,0.396516805207,0.0901297750494,0.306387030158,0.486646580257,0.0901297750494,0.338544146623,479,0.572572153349,0.331768222426,-1.0,nan,nan,nan,nan,0.0,0.0,0.0,nan,309.136508725,445.984389513,446.484447958,446.365695075,nan,nan,nan,nan
1,111,1,1,1.0,1.0,0.277179010212,0,0.0,0.0,0.0,0.396374644059,0.0897195585326,0.306655085526,0.486094202591,0.0897195585326,0.329242286272,9,0.918933560847,0.172916688009,-1.0,nan,nan,nan,nan,0.0,0.0,0.0,nan,309.136508725,446.984506973,447.484548312,447.261685983,nan,nan,nan,nan
1,112,1,1,1.0,1.0,0.220715262927,0,1.0,0.0,0.0,0.395270980782,0.0900299929393,0.305240987843,0.485300973722,0.0900299929393,0.293066611824,86,1.0,-0.21659106269,-0.625617802914,nan,nan,nan,nan,0.0,0.0,0.0,nan,309.136508725,447.992970648,448.493037361,448.213685911,nan,nan,nan,nan
1,113,1,1,1.0,1.0,0.236195460893,1,0.0,0.0,1.0,0.393669552178,0.0911482973522,0.302521254826,0.48481784953,0.0911482973522,0.244696578011,321,-0.0999433513493,0.43654647086,0.391174984052,169.875328345,280.124671655,54.4215466554,398.0,-0.0220377755791,0.472608796233,-0.387943383198,2.10056711547,309.136508725,449.001436603,449.501540379,449.237632064,452.94357702,453.943191284,450.826645337,452.935245631
1,114,0,0,0.0,1.0,0.669686889276,0,0.0,0.0,0.0,0.39223796953,0.0919558180601,0.30028215147,0.48419378759,0.0919558180601,0.375532537699,133,1.0,-0.306259573676,-0.105336427414,nan,nan,nan,nan,0.0,0.0,0.0,nan,309.136508725,454.143818897,454.643851683,454.813505786,nan,nan,nan,nan
1,115,1,1,1.0,1.0,0.405269105919,0,0.0,0.0,0.0,0.394737509348,0.0952204829159,0.299517026432,0.489957992264,0.0952204829159,0.437050485363,336,-0.158211608236,0.456758111158,0.268135266647,nan,nan,nan,nan,0.0,0.0,0.0,nan,309.136508725,455.152234675,455.652268318,455.557503781,nan,nan,nan,nan
1,116,1,1,1.0,1.0,0.381120818667,0,0.0,0.0,0.0,0.39483154146,0.0947996150217,0.300031926438,0.489631156482,0.0947996150217,0.485358937954,32,1.0,0.061735800531,-1.0,nan,nan,nan,nan,0.0,0.0,0.0,nan,309.136508725,456.152374659,456.652422555,456.533495477,nan,nan,nan,nan
1,117,1,1,1.0,1.0,0.291283329949,0,0.0,0.0,0.0,0.39471020763,0.0943879503929,0.300322257237,0.489098158023,0.0943879503929,0.359224418178,346,-0.174317561957,0.466431294057,0.176670174816,nan,nan,nan,nan,0.0,0.0,0.0,nan,309.136508725,457.194190977,457.694218061,457.485474307,nan,nan,nan,nan
1,118,1,1,1.0,1.0,0.379155360162,0,0.0,0.0,0.0,0.393802954317,0.0944666426748,0.299336311642,0.488269596992,0.0944666426748,0.350519836259,389,-0.0691208065164,0.476626077068,-0.280234315682,nan,nan,nan,nan,0.0,0.0,0.0,nan,309.136508725,458.194312428,458.694335806,458.573467788,nan,nan,nan,nan
1,119,1,1,1.0,1.0,0.363004899584,0,0.0,0.0,0.0,0.393675583933,0.0940648525713,0.299610731362,0.487740436504,0.0940648525713,0.344481196565,222,0.841778467246,0.0997291618919,0.589484691865,nan,nan,nan,nan,0.0,0.0,0.0,nan,309.136508725,459.19444785,459.694462105,459.557452749,nan,nan,nan,nan
1,120,1,1,1.0,1.0,0.354860533029,0,0.0,0.0,0.0,0.393411181482,0.0937014323732,0.299709749109,0.487112613855,0.0937014323732,0.365673597592,376,-0.124962824795,0.478704673615,-0.132627625282,nan,nan,nan,nan,0.0,0.0,0.0,nan,309.136508725,460.194556187,460.694593819,460.54941672,nan,nan,nan,nan
1,121,0,0,0.0,1.0,0.418660397641,0,0.0,0.0,0.0,0.39308168876,0.0933676048835,0.299714083876,0.486449293643,0.0933676048835,0.378841943418,293,0.103830259013,0.378659598285,0.564617056734,nan,nan,nan,nan,0.0,0.0,0.0,nan,309.136508725,461.194710424,461.694744635,461.613370822,nan,nan,nan,nan
1,122,1,1,1.0,1.0,0.282539119944,0,0.0,0.0,0.0,0.393298457479,0.0930006995491,0.30029775793,0.486299157028,0.0930006995491,0.352020016871,198,1.0,-0.0302354974571,0.462326941081,nan,nan,nan,nan,0.0,0.0,0.0,nan,309.136508725,462.194827884,462.694850122,462.477367003,nan,nan,nan,nan
1,123,1,1,1.0,1.0,0.330044264905,0,0.0,0.0,0.0,0.392367706744,0.0931593870143,0.299208319729,0.485527093758,0.0931593870143,0.343747927497,375,-0.128556699755,0.478682433309,-0.121605159467,nan,nan,nan,nan,0.0,0.0,0.0,nan,309.136508725,463.203292129,463.703315507,463.533336394,nan,nan,nan,nan
1,124,0,0,1.0,0.0,0.345873420127,0,0.0,0.0,0.0,0.391848344728,0.0929432505283,0.2989050942,0.484791595257,0.0929432505283,0.319485601659,160,1.0,-0.227501418013,0.158297521075,nan,nan,nan,nan,0.0,0.0,0.0,nan,309.136508725,464.203440379,464.703482574,464.549313799,nan,nan,nan,nan
1,125,1,1,1.0,1.0,0.35375293158,0,0.0,0.0,0.0,0.391468386674,0.0926519285434,0.29881645813,0.484120315217,0.0926519285434,0.343223538871,93,1.0,-0.245614297951,-0.538619881923,nan,nan,nan,nan,0.0,0.0,0.0,nan,309.136508725,465.203549286,465.703566678,465.557302218,nan,nan,nan,nan
1,126,1,1,1.0,1.0,0.40160418395,0,0.0,0.0,0.0,0.391159243599,0.0923340673628,0.298825176236,0.483493310962,0.0923340673628,0.367076845219,317,-0.077772836126,0.429938605076,0.420733606481,nan,nan,nan,nan,0.0,0.0,0.0,nan,309.136508725,466.203666177,466.703703524,466.605270361,nan,nan,nan,nan
1,127,1,1,1.0,1.0,0.681446570903,0,0.0,0.0,0.0,0.391244161813,0.0919627429551,0.299281418858,0.483206904769,0.0919627429551,0.478934562144,79,1.0,-0.184296021705,-0.724170777997,nan,nan,nan,nan,0.0,0.0,0.0,nan,309.136508725,467.203797036,467.703871446,467.885243607,nan,nan,nan,nan
1,128,1,1,1.0,1.0,0.432966565713,0,0.0,1.0,0.0,0.393584503822,0.095197893827,0.298386609995,0.488782397649,0.095197893827,0.505339106855,29,1.0,0.0770173926463,-1.0,nan,nan,nan,nan,0.0,0.0,0.0,nan,309.136508725,468.212259855,468.712326854,468.645226421,nan,nan,nan,nan
1,129,1,1,1.0,1.0,0.392811222002,1,0.0,0.0,1.0,0.393899560317,0.0948812214876,0.29901833883,0.488780781805,0.0948812214876,0.502408119539,498,0.731507943485,0.267561876527,-1.0,98.8646233884,351.135376612,0.979126611589,499.0,0.739831889234,0.263827757734,-1.0,3.69245787244,309.136508725,469.21240611,469.712424926,469.605217332,474.746403359,475.746001942,471.037596027,474.738069688
1,130,1,1,1.0,1.0,0.714468216524,0,0.0,0.0,0.0,0.393890922712,0.0945040080174,0.299386914694,0.488394930729,0.0945040080174,0.513415334746,441,0.266287261384,0.422891888867,-1.0,nan,nan,nan,nan,0.0,0.0,0.0,nan,309.136508725,475.94658793,476.446674029,476.661056147,nan,nan,nan,nan
1,131,1,1,1.0,1.0,0.402352278121,0,0.0,0.0,0.0,0.396415153372,0.0983032244176,0.298111928954,0.494718377789,0.0983032244176,0.503210572215,301,0.0351599448551,0.39804275895,0.523414514543,nan,nan,nan,nan,0.0,0.0,0.0,nan,309.136508725,476.946736466,477.446759844,477.349088744,nan,nan,nan,nan
1,132,1,1,1.0,1.0,0.28184946999,0,0.0,0.0,0.0,0.396461537159,0.0979198697153,0.298541667443,0.494381406874,0.0979198697153,0.466223321545,354,-0.174470673547,0.472100788149,0.0988677247603,nan,nan,nan,nan,0.0,0.0,0.0,nan,309.136508725,477.955194724,478.455229791,478.237044194,nan,nan,nan,nan
1,133,1,1,1.0,1.0,0.241691845469,0,0.0,0.0,0.0,0.395573071522,0.098056170042,0.29751690148,0.493629241564,0.098056170042,0.30863119786,184,1.0,-0.107671891867,0.362640045218,nan,nan,nan,nan,0.0,0.0,0.0,nan,309.136508725,478.955327294,479.455370629,479.197019139,nan,nan,nan,nan
1,134,1,1,1.0,1.0,0.337546876632,0,1.0,0.0,0.0,0.394389369783,0.0985991844483,0.295790185335,0.492988554231,0.0985991844483,0.287029397363,309,-0.0258396312562,0.415106541901,0.475305697888,nan,nan,nan,nan,0.0,0.0,0.0,nan,309.136508725,479.955444754,480.45547925,480.292991631,nan,nan,nan,nan
1,135,1,1,1.0,1.0,0.313045069575,1,0.0,0.0,1.0,0.393955457621,0.0983466488282,0.295608808793,0.49230210645,0.0983466488282,0.297427930559,194,1.0,-0.0524864644427,0.435571704399,-28.9557331368,118.955733137,-17.4505168632,169.0,1.0,-0.185917379452,0.239118302078,3.47573596425,309.136508725,480.963920973,481.463944351,481.276966043,486.281231664,487.281426671,482.789118873,486.272905977
1,136,1,1,1.0,1.0,0.411386718042,0,0.0,0.0,0.0,0.393342500136,0.0982242792784,0.295118220858,0.491566779415,0.0982242792784,0.353992888083,9,0.918933560847,0.172916688009,-1.0,nan,nan,nan,nan,0.0,0.0,0.0,nan,309.136508725,487.481424789,487.981462992,487.892811507,nan,nan,nan,nan
1,137,1,1,1.0,1.0,0.306916624308,0,0.0,0.0,0.0,0.393478170948,0.0978667322716,0.295611438676,0.491344903219,0.0978667322716,0.343782803975,334,-0.152796554809,0.454467054946,0.285576400052,nan,nan,nan,nan,0.0,0.0,0.0,nan,309.136508725,488.489891886,488.989927523,488.79680851,nan,nan,nan,nan
1,138,1,1,1.0,1.0,0.322485486977,0,0.0,0.0,0.0,0.392832189256,0.0977850720819,0.295047117174,0.490617261338,0.0977850720819,0.346929609776,271,0.320642857732,0.312811632898,0.639400143054,nan,nan,nan,nan,0.0,0.0,0.0,nan,309.136508725,489.498365824,489.9983969,489.820851311,nan,nan,nan,nan
1,139,1,1,1.0,1.0,0.361967716366,0,0.0,0.0,0.0,0.392311102573,0.0976087930521,0.294702309521,0.489919895625,0.0976087930521,0.330456609217,344,-0.172543464245,0.464730234515,0.195503824632,nan,nan,nan,nan,0.0,0.0,0.0,nan,309.136508725,490.506830639,491.006852306,490.868798356,nan,nan,nan,nan
1,140,1,1,1.0,1.0,0.313818253577,0,0.0,0.0,0.0,0.392087989439,0.0972838205227,0.294804168916,0.489371809961,0.0972838205227,0.332757152307,497,0.723174939644,0.271260599794,-1.0,nan,nan,nan,nan,0.0,0.0,0.0,nan,309.136508725,491.506985446,492.00700968,491.8208037,nan,nan,nan,nan
1,141,1,1,1.0,1.0,0.337636968121,0,0.0,0.0,0.0,0.391516677498,0.0971568342748,0.294359843223,0.488673511773,0.0971568342748,0.337807646021,343,-0.171388175652,0.463836419185,0.204822810802,nan,nan,nan,nan,0.0,0.0,0.0,nan,309.136508725,492.507096919,493.007110034,492.844733887,nan,nan,nan,nan
1,142,1,1,1.0,1.0,0.401502404362,0,0.0,0.0,0.0,0.391126244822,0.0969119837427,0.294214261079,0.488038228564,0.0969119837427,0.350985875353,48,1.0,-0.0224273256894,-1.0,nan,nan,nan,nan,0.0,0.0,0.0,nan,309.136508725,493.50721666,494.007240608,493.908719065,nan,nan,nan,nan
1,143,1,1,1.0,1.0,0.361039155163,0,0.0,0.0,0.0,0.391200893451,0.0965667319849,0.294634161466,0.487767625436,0.0965667319849,0.366726175882,176,1.0,-0.150429669724,0.298675466069,nan,nan,nan,nan,0.0,0.0,0.0,nan,309.136508725,494.515670072,495.015703999,494.876709227,nan,nan,nan,nan
1,144,1,1,1.0,1.0,0.384899494238,0,0.0,0.0,0.0,0.390985452464,0.0962547520285,0.294730700435,0.487240204492,0.0962547520285,0.382480351254,327,-0.128086156831,0.445480682368,0.344176439252,nan,nan,nan,nan,0.0,0.0,0.0,nan,309.136508725,495.515807204,496.015839134,495.900706698,nan,nan,nan,nan
1,145,1,1,1.0,1.0,0.376408736221,0,0.0,0.0,0.0,0.390942289639,0.095914175456,0.295028114183,0.486856465095,0.095914175456,0.374115795208,496,0.714833717156,0.274923884212,-1.0,nan,nan,nan,nan,0.0,0.0,0.0,nan,309.136508725,496.524273159,497.024297393,496.900681895,nan,nan,nan,nan
1,146,1,1,1.0,1.0,0.416197729297,0,0.0,0.0,0.0,0.390839940672,0.0955835794288,0.295256361243,0.4864235201,0.0955835794288,0.392501986586,180,1.0,-0.129278616986,0.331238955499,nan,nan,nan,nan,0.0,0.0,0.0,nan,309.136508725,497.52443766,498.02442084,497.94063539,nan,nan,nan,nan
1,147,1,1,1.0,1.0,0.37607659772,0,0.0,0.0,0.0,0.391017267865,0.0952722214605,0.295745046404,0.486289489325,0.0952722214605,0.38956102108,236,0.697004556276,0.169301754335,0.634065852989,nan,nan,nan,nan,0.0,0.0,0.0,nan,309.136508725,498.524536589,499.024587336,498.900613187,nan,nan,nan,nan
1,148,0,0,1.0,0.0,0.38358462695,0,0.0,0.0,0.0,0.390913513211,0.0949489456194,0.295964567592,0.48586245883,0.0949489456194,0.391952984656,0,0.846831709088,0.212097570855,-1.0,nan,nan,nan,nan,0.0,0.0,0.0,nan,309.136508725,499.53301794,500.033051866,499.916602567,nan,nan,nan,nan
1,149,1,1,1.0,1.0,0.463451988995,0,0.0,0.0,0.0,0.390862969168,0.0946229129367,0.296240056231,0.485485882105,0.0946229129367,0.407704404555,414,0.0747837862165,0.460162189034,-0.600089175003,nan,nan,nan,nan,0.0,0.0,0.0,nan,309.136508725,500.533120289,501.033146803,500.996572278,nan,nan,nan,nan
1,150,1,1,1.0,1.0,0.407298996113,0,0.0,0.0,0.0,0.391360154235,0.0944881649926,0.296871989243,0.485848319228,0.0944881649926,0.418111870686,36,1.0,0.0410699577143,-1.0,nan,nan,nan,nan,0.0,0.0,0.0,nan,309.136508725,501.53325172,502.033277663,501.940550716,nan,nan,nan,nan
1,151,1,1,1.0,1.0,0.463136957027,0,0.0,0.0,0.0,0.391468581731,0.0941753417373,0.297293239994,0.485643923468,0.0941753417373,0.444629314045,160,1.0,-0.227501418013,0.158297521075,nan,nan,nan,nan,0.0,0.0,0.0,nan,309.136508725,502.533392272,503.033408808,502.996529229,nan,nan,nan,nan
1,152,1,1,1.0,1.0,0.486666012555,0,0.0,0.0,0.0,0.39195282751,0.0940400976379,0.297912729872,0.485992925148,0.0940400976379,0.452367321899,271,0.320642857732,0.312811632898,0.639400143054,nan,nan,nan,nan,0.0,0.0,0.0,nan,309.136508725,503.541853381,504.041900422,504.028519394,nan,nan,nan,nan
1,153,1,1,1.0,1.0,0.542506823316,0,0.0,1.0,0.0,0.39258848647,0.0940424827881,0.298546003682,0.486630969258,0.0940424827881,0.497436597633,330,-0.139766326074,0.449518327743,0.319540245599,nan,nan,nan,nan,0.0,0.0,0.0,nan,309.136508725,504.541969131,505.042048958,505.084475954,nan,nan,nan,nan
1,154,0,0,1.0,0.0,0.44633989688,0,0.0,0.0,0.0,0.393587942049,0.094519132729,0.29906880932,0.488107074778,0.094519132729,0.491837577584,130,1.0,-0.309333154106,-0.136071487739,nan,nan,nan,nan,0.0,0.0,0.0,nan,309.136508725,505.542135912,506.04215815,505.988475809,nan,nan,nan,nan
1,155,1,1,1.0,1.0,0.406227031723,0,0.0,0.0,0.0,0.393937292743,0.0943027500102,0.299634542733,0.488240042753,0.0943027500102,0.465024583973,388,-0.0739633693698,0.476941921698,-0.268577162136,nan,nan,nan,nan,0.0,0.0,0.0,nan,309.136508725,506.542228854,507.042268197,506.948455886,nan,nan,nan,nan
1,156,0,0,0.0,1.0,0.534025472589,0,0.0,0.0,0.0,0.394018146289,0.0939972827014,0.300020863588,0.488015428991,0.0939972827014,0.462197467064,480,0.580928072941,0.32870764083,-1.0,nan,nan,nan,nan,0.0,0.0,0.0,nan,309.136508725,507.542390219,508.042434979,508.076415692,nan,nan,nan,nan
1,157,1,1,1.0,1.0,0.341591548175,0,0.0,0.0,0.0,0.394933226853,0.0943664213097,0.300566805543,0.489299648163,0.0943664213097,0.427281350829,255,0.492159363509,0.253017189294,0.656163111527,nan,nan,nan,nan,0.0,0.0,0.0,nan,309.136508725,508.550828805,509.050862161,508.892420353,nan,nan,nan,nan
1,158,1,1,1.0,1.0,0.325416854583,0,0.0,0.0,0.0,0.394586852316,0.0941570649499,0.300429787366,0.488743917266,0.0941570649499,0.400344625115,189,1.0,-0.0802194643608,0.400143472992,nan,nan,nan,nan,0.0,0.0,0.0,nan,309.136508725,509.550978767,510.050987319,509.876395621,nan,nan,nan,nan
1,159,1,1,1.0,1.0,0.291598076932,0,0.0,0.0,0.0,0.394140594266,0.0940160852551,0.300124509011,0.488156679521,0.0940160852551,0.31953549323,90,1.0,-0.233635786423,-0.574971871003,nan,nan,nan,nan,0.0,0.0,0.0,nan,309.136508725,510.592764295,511.092783111,510.884362372,nan,nan,nan,nan
1,160,0,0,1.0,0.0,0.53945001401,0,0.0,0.0,0.0,0.393483270437,0.0940709064489,0.299412363988,0.487554176886,0.0940709064489,0.385488315175,27,1.0,0.0870912575778,-1.0,nan,nan,nan,nan,0.0,0.0,0.0,nan,309.136508725,511.592913115,512.092959872,512.132363129,nan,nan,nan,nan
1,161,1,1,1.0,1.0,0.434999307618,0,0.0,0.0,0.0,0.394412994919,0.0944871140081,0.299925880911,0.488900108927,0.0944871140081,0.42201579952,350,-0.175756816429,0.469490941964,0.138247479403,nan,nan,nan,nan,0.0,0.0,0.0,nan,309.136508725,512.601349136,513.101382777,513.036348443,nan,nan,nan,nan
1,162,1,1,0.0,0.0,0.570820093155,0,0.0,0.0,0.0,0.394669870315,0.0942426081843,0.300427262131,0.4889124785,0.0942426081843,0.515089804928,41,1.0,0.0148395037771,-1.0,nan,nan,nan,nan,0.0,0.0,0.0,nan,309.136508725,513.601481991,514.101556402,514.172302084,nan,nan,nan,nan
1,163,1,1,1.0,1.0,0.450682493858,0,0.0,0.0,0.0,0.395777733352,0.0949722728114,0.300805460541,0.490750006164,0.0949722728114,0.485500631543,91,1.0,-0.237709898716,-0.562722318432,nan,nan,nan,nan,0.0,0.0,0.0,nan,309.136508725,514.601617127,515.101636514,515.052299621,nan,nan,nan,nan
1,164,1,1,1.0,1.0,0.394526080228,0,0.0,0.0,0.0,0.396120888105,0.0947738484422,0.301347039663,0.490894736548,0.0947738484422,0.472009555747,409,0.0429436170054,0.464793150178,-0.529461854507,nan,nan,nan,nan,0.0,0.0,0.0,nan,309.136508725,515.601745706,516.101773646,515.996271786,nan,nan,nan,nan
1,165,1,1,1.0,1.0,0.354385562241,0,0.0,0.0,0.0,0.396110982466,0.0944791443476,0.301631838119,0.490590126814,0.0944791443476,0.399864712109,172,1.0,-0.170984061773,0.265024678188,nan,nan,nan,nan,0.0,0.0,0.0,nan,309.136508725,516.601868012,517.101920471,516.956253574,nan,nan,nan,nan
1,166,1,1,1.0,1.0,0.39421047736,0,0.0,0.0,0.0,0.395853418144,0.0942437726631,0.301609645481,0.490097190807,0.0942437726631,0.38104070661,406,0.0244967455079,0.467245700284,-0.489366101921,nan,nan,nan,nan,0.0,0.0,0.0,nan,309.136508725,517.60200543,518.102031373,517.996215907,nan,nan,nan,nan
1,167,1,1,1.0,1.0,0.50024603866,0,0.0,0.0,0.0,0.395843338753,0.0939543241654,0.301889014587,0.489797662918,0.0939543241654,0.416280692754,217,0.891250405156,0.0735373331823,0.568048345461,nan,nan,nan,nan,0.0,0.0,0.0,nan,309.136508725,518.610454564,519.110540093,519.110700603,nan,nan,nan,nan
1,168,1,1,1.0,1.0,0.513578885235,0,0.0,0.0,0.0,0.396479940581,0.0940193970188,0.302460543563,0.4904993376,0.0940193970188,0.469345133752,372,-0.138660017671,0.478458869494,-0.0888123791441,nan,nan,nan,nan,0.0,0.0,0.0,nan,309.136508725,519.610590556,520.110668672,520.124169441,nan,nan,nan,nan
1,169,1,1,1.0,1.0,0.48943858128,0,0.0,1.0,0.0,0.397189631155,0.094173636194,0.303015994961,0.491363267349,0.094173636194,0.501087835059,485,0.622774561467,0.312875618285,-1.0,nan,nan,nan,nan,0.0,0.0,0.0,nan,309.136508725,520.610714572,521.1190816,521.100153154,nan,nan,nan,nan
1,170,1,1,1.0,1.0,0.480940979905,1,0.0,0.0,1.0,0.397745347722,0.0941605196325,0.30358482809,0.491905867355,0.0941605196325,0.494652815474,78,1.0,-0.179467652321,-0.739907630878,45.0,45.0,-9.84375,64.0,1.0,-0.108036866323,-1.0,5.0509602353,309.136508725,521.619208753,522.119209608,522.100149733,528.511708079,529.510925203,523.444392683,528.50337954
1,171,1,1,1.0,1.0,0.524055629969,0,0.0,0.0,0.0,0.39824352516,0.0940973454724,0.304146179688,0.492340870633,0.0940973454724,0.498145063718,272,0.310166696092,0.316214117232,0.637281430288,nan,nan,nan,nan,0.0,0.0,0.0,nan,309.136508725,529.711908616,530.211968771,530.235964246,nan,nan,nan,nan
1,172,1,1,1.0,1.0,0.331574095413,0,0.0,0.0,0.0,0.398992406737,0.0943147058521,0.304677700884,0.493307112589,0.0943147058521,0.445523568429,335,-0.155595990888,0.455627721073,0.276893227044,nan,nan,nan,nan,0.0,0.0,0.0,nan,309.136508725,530.720362312,531.220426459,531.051936408,nan,nan,nan,nan
1,173,1,1,1.0,1.0,0.187433892861,0,0.0,0.0,0.0,0.398593481817,0.0941773048382,0.304416176979,0.492770786656,0.0941773048382,0.347687872748,473,0.522594813828,0.349396171415,-1.0,nan,nan,nan,nan,0.0,0.0,0.0,nan,309.136508725,531.720489466,532.220523678,531.907923358,nan,nan,nan,nan
1,174,0,0,1.0,0.0,0.163302712142,0,0.0,0.0,0.0,0.397351366588,0.0952781911235,0.302073175465,0.492629557712,0.0952781911235,0.227436900139,252,0.524721685615,0.240693665738,0.655694012224,nan,nan,nan,nan,0.0,0.0,0.0,nan,309.136508725,532.72064969,533.220696446,532.883952403,nan,nan,nan,nan
1,175,1,1,1.0,1.0,0.251167614013,0,0.0,0.0,0.0,0.395982661007,0.0966608334171,0.29932182759,0.492643494424,0.0966608334171,0.200634739672,138,1.0,-0.29832987918,-0.0546508148191,nan,nan,nan,nan,0.0,0.0,0.0,nan,309.136508725,533.720748334,534.220812481,533.971915948,nan,nan,nan,nan
1,176,1,1,1.0,1.0,0.234992636368,0,0.0,0.0,0.0,0.395140713059,0.0970062521868,0.298134460872,0.492146965246,0.0970062521868,0.216487654174,378,-0.117450136118,0.478670924818,-0.154810124165,nan,nan,nan,nan,0.0,0.0,0.0,nan,309.136508725,534.720884325,535.220909984,534.955876961,nan,nan,nan,nan
1,177,1,1,1.0,1.0,0.314819798805,0,1.0,0.0,0.0,0.394215001633,0.0974844225071,0.296730579126,0.49169942414,0.0974844225071,0.266993349728,255,0.492159363509,0.253017189294,0.656163111527,nan,nan,nan,nan,0.0,0.0,0.0,nan,309.136508725,535.721009768,536.221041699,536.035829566,nan,nan,nan,nan
1,178,1,1,1.0,1.0,0.458690013736,1,0.0,0.0,1.0,0.393758707364,0.0973889923892,0.296369714975,0.491147699753,0.0973889923892,0.33616748297,24,1.0,0.102019060141,-1.0,62.1821592964,27.8178407036,10.9428407036,40.0,1.0,0.0201165467467,-1.0,1.76718864124,309.136508725,536.721139202,537.221171132,537.179829216,540.329909983,541.329336653,538.54634537,540.321587431
1,179,1,1,1.0,1.0,0.441262888722,0,0.0,0.0,0.0,0.3941297434,0.0972335961517,0.296896147249,0.491363339552,0.0972335961517,0.404924233754,371,-0.14179360683,0.478331938097,-0.0779732583494,nan,nan,nan,nan,0.0,0.0,0.0,nan,309.136508725,541.538435638,542.038457306,541.979698527,nan,nan,nan,nan
1,180,1,1,1.0,1.0,0.393129389733,0,0.0,0.0,0.0,0.394397545362,0.0970216719477,0.297375873415,0.49141921731,0.0970216719477,0.431027430731,76,1.0,-0.169674511773,-0.773365826749,nan,nan,nan,nan,0.0,0.0,0.0,nan,309.136508725,542.538574195,543.038620382,542.931703585,nan,nan,nan,nan
1,181,0,0,0.0,1.0,0.472951706499,0,0.0,0.0,0.0,0.394390380641,0.0967472579146,0.297643122727,0.491137638556,0.0967472579146,0.435781328318,433,0.206536295144,0.436163724167,-1.0,nan,nan,nan,nan,0.0,0.0,0.0,nan,309.136508725,543.538735275,544.038747249,544.011686982,nan,nan,nan,nan
1,182,1,1,1.0,1.0,0.320511190221,0,0.0,0.0,0.0,0.394831736405,0.0966536402008,0.298178096204,0.491485376605,0.0966536402008,0.395530762151,120,1.0,-0.310161497659,-0.240162905937,nan,nan,nan,nan,0.0,0.0,0.0,nan,309.136508725,544.547163313,545.047182415,544.867674503,nan,nan,nan,nan
1,183,1,1,1.0,1.0,0.360348651186,0,0.0,0.0,0.0,0.394416537823,0.0965423328284,0.297874204994,0.490958870651,0.0965423328284,0.384603849302,8,0.91102658764,0.177400941622,-1.0,nan,nan,nan,nan,0.0,0.0,0.0,nan,309.136508725,545.547293887,546.047335227,545.907642539,nan,nan,nan,nan
1,184,1,1,1.0,1.0,0.35222766269,0,0.0,0.0,0.0,0.394227271786,0.0963070816598,0.297920190126,0.490534353446,0.0963070816598,0.344362501365,506,0.797774742377,0.236703125255,-1.0,nan,nan,nan,nan,0.0,0.0,0.0,nan,309.136508725,546.547421041,547.04746124,546.899648704,nan,nan,nan,nan
1,185,1,1,1.0,1.0,0.623793683015,0,0.0,0.0,0.0,0.393995229747,0.096091115183,0.297904114564,0.49008634493,0.096091115183,0.44545666563,145,1.0,-0.281667413287,0.0150551701241,nan,nan,nan,nan,0.0,0.0,0.0,nan,309.136508725,547.555871031,548.055969104,548.179664714,nan,nan,nan,nan
1,186,1,1,1.0,1.0,0.495603804477,0,0.0,0.0,0.0,0.395257858611,0.0973207316851,0.297937126926,0.492578590296,0.0973207316851,0.490541716727,315,-0.0657111424032,0.426434809442,0.434956515233,nan,nan,nan,nan,0.0,0.0,0.0,nan,309.136508725,548.556016145,549.072703158,549.05161995,nan,nan,nan,nan
1,187,1,1,1.0,1.0,0.543416853994,0,0.0,1.0,0.0,0.395806197113,0.0973359738891,0.298470223224,0.493142171002,0.0973359738891,0.554271447162,464,0.448404880525,0.373503555275,-1.0,nan,nan,nan,nan,0.0,0.0,0.0,nan,309.136508725,549.55614615,550.056212862,550.099563004,nan,nan,nan,nan
1,188,1,1,1.0,1.0,0.526925701648,1,0.0,0.0,1.0,0.396608428944,0.0976758695287,0.298932559415,0.494284298472,0.0976758695287,0.52198212004,286,0.169078956243,0.359734776014,0.594698705761,-124.743180158,214.743180158,13.6494301583,305.0,0.00361192545304,0.406859252708,0.500196907155,2.37562956475,309.136508725,550.564606974,551.064675682,551.091532676,554.781801003,555.781828373,552.389803449,554.773477026
1,189,1,1,1.0,1.0,0.589096806943,0,0.0,0.0,0.0,0.397312846634,0.0978790396246,0.299433807009,0.495191886258,0.0978790396246,0.553146454195,509,0.822386376617,0.224555004187,-1.0,nan,nan,nan,nan,0.0,0.0,0.0,nan,309.136508725,555.990290451,556.490376265,556.579387258,nan,nan,nan,nan
1,190,1,1,1.0,1.0,0.252629307099,0,0.0,0.0,0.0,0.398343943195,0.098617868543,0.299726074652,0.496961811738,0.098617868543,0.456217271897,33,1.0,0.0565990290419,-1.0,nan,nan,nan,nan,0.0,0.0,0.0,nan,309.136508725,556.998815422,557.498850774,557.251444729,nan,nan,nan,nan
1,191,1,1,1.0,1.0,0.268488683738,0,0.0,0.0,0.0,0.397564720542,0.0989263009392,0.298638419602,0.496491021481,0.0989263009392,0.37007159926,139,1.0,-0.296335611021,-0.0445992895203,nan,nan,nan,nan,0.0,0.0,0.0,nan,309.136508725,557.998894678,558.498953124,558.267383362,nan,nan,nan,nan
1,192,1,1,1.0,1.0,0.27632600069,0,1.0,0.0,0.0,0.396878145878,0.0991085595745,0.297769586303,0.495986705452,0.0991085595745,0.265814663842,346,-0.174317561957,0.466431294057,0.176670174816,nan,nan,nan,nan,0.0,0.0,0.0,nan,309.136508725,558.999034376,559.499065452,559.275360377,nan,nan,nan,nan
1,193,1,1,1.0,1.0,0.284168734215,1,0.0,0.0,1.0,0.39624030384,0.099232162277,0.297008141563,0.495472466117,0.099232162277,0.276327806214,278,0.248285521772,0.335802812283,0.621962573991,-104.34362131,194.34362131,-1.12512868957,276.0,0.268710435127,0.329430325417,0.627563005949,2.73399251513,309.136508725,559.999160389,560.49919289,560.283329124,564.574717084,565.57420562,561.824359715,564.566385409
1,194,1,1,1.0,1.0,0.364345710725,0,0.0,0.0,0.0,0.395650453473,0.0993023319534,0.29634812152,0.494952785427,0.0993023319534,0.308280148543,406,0.0244967455079,0.467245700284,-0.489366101921,nan,nan,nan,nan,0.0,0.0,0.0,nan,309.136508725,565.774907643,566.274932446,566.139253354,nan,nan,nan,nan
1,195,1,1,1.0,1.0,0.404253590852,0,0.0,0.0,0.0,0.395486554297,0.0990678003346,0.296418753962,0.494554354631,0.0990678003346,0.350922678597,269,0.34171296506,0.305888347675,0.643262349404,nan,nan,nan,nan,0.0,0.0,0.0,nan,309.136508725,566.775026813,567.275060454,567.179280404,nan,nan,nan,nan
1,196,1,1,1.0,1.0,0.444024053402,0,0.0,0.0,0.0,0.395532215945,0.0988114896025,0.296720726343,0.494343705548,0.0988114896025,0.404207784993,34,1.0,0.0514419701458,-1.0,nan,nan,nan,nan,0.0,0.0,0.0,nan,309.136508725,567.77517877,568.275209845,568.219202823,nan,nan,nan,nan
1,197,1,1,1.0,1.0,0.451867926866,0,0.0,0.0,0.0,0.395783468989,0.0986166410788,0.29716682791,0.494400110068,0.0986166410788,0.43338185704,351,-0.175686286722,0.4701852659,0.128489978773,nan,nan,nan,nan,0.0,0.0,0.0,nan,309.136508725,568.775307634,569.275327875,569.227175561,nan,nan,nan,nan
1,198,1,1,1.0,1.0,0.483722671866,0,0.0,0.0,0.0,0.396072564133,0.0984441057311,0.297628458402,0.494516669864,0.0984441057311,0.459871550711,140,1.0,-0.294209249228,-0.0345777392028,nan,nan,nan,nan,0.0,0.0,0.0,nan,309.136508725,569.775426804,570.275450182,570.259149476,nan,nan,nan,nan
1,199,0,0,0.0,1.0,0.500210401602,0,0.0,0.0,0.0,0.396522051865,0.0983907459339,0.298131305931,0.494912797799,0.0983907459339,0.478600333445,462,0.432089675478,0.378486360879,-1.0,nan,nan,nan,nan,0.0,0.0,0.0,nan,309.136508725,570.783913572,571.283962608,571.284123974,nan,nan,nan,nan
1,200,1,1,1.0,1.0,0.371062026359,0,0.0,0.0,0.0,0.397051074057,0.0984170764356,0.298633997622,0.495468150493,0.0984170764356,0.451665033276,399,-0.0164460389312,0.472031251936,-0.400274523968,nan,nan,nan,nan,0.0,0.0,0.0,nan,309.136508725,571.784036449,572.284070375,572.155098476,nan,nan,nan,nan
1,201,1,1,1.0,1.0,0.522590232082,0,0.0,0.0,0.0,0.396919149957,0.0981843419317,0.298734808026,0.495103491889,0.0981843419317,0.464620886681,69,1.0,-0.134207199312,-0.939648005704,nan,nan,nan,nan,0.0,0.0,0.0,nan,309.136508725,572.792483588,573.292554007,573.31507382,nan,nan,nan,nan
1,202,1,1,1.0,1.0,0.402452346869,0,0.0,0.0,0.0,0.397553852392,0.098340419936,0.299213432456,0.495894272328,0.098340419936,0.432034868437,123,1.0,-0.311441137266,-0.208672863777,nan,nan,nan,nan,0.0,0.0,0.0,nan,309.136508725,573.792616444,574.292634975,574.195068791,nan,nan,nan,nan
1,203,1,1,1.0,1.0,0.41029194463,0,0.0,0.0,0.0,0.397578467943,0.098093633787,0.299484834156,0.49567210173,0.098093633787,0.44511150786,363,-0.162287729338,0.476365729747,0.00704812682028,nan,nan,nan,nan,0.0,0.0,0.0,nan,309.136508725,574.79275443,575.292780944,575.203046375,nan,nan,nan,nan
1,204,1,1,1.0,1.0,0.378125874326,0,0.0,0.0,0.0,0.397642035326,0.0978522013356,0.29978983399,0.495494236662,0.0978522013356,0.396956721942,251,0.535576518695,0.236509187076,0.655284151108,nan,nan,nan,nan,0.0,0.0,0.0,nan,309.136508725,575.792890992,576.292903251,576.171016866,nan,nan,nan,nan
1,205,1,1,1.0,1.0,0.362004208378,0,0.0,0.0,0.0,0.397544939998,0.0976181424002,0.299926797597,0.495163082398,0.0976181424002,0.383474009112,186,1.0,-0.0967386681424,0.377881386018,nan,nan,nan,nan,0.0,0.0,0.0,nan,309.136508725,576.792996763,577.293038957,577.155000972,nan,nan,nan,nan
1,206,1,1,1.0,1.0,0.401847086847,0,0.0,0.0,0.0,0.397368995782,0.0974081577407,0.299960838041,0.494777153522,0.0974081577407,0.380659056517,271,0.320642857732,0.312811632898,0.639400143054,nan,nan,nan,nan,0.0,0.0,0.0,nan,309.136508725,577.793130758,578.293179225,578.194977845,nan,nan,nan,nan
1,207,1,1,1.0,1.0,0.433696129359,0,0.0,0.0,0.0,0.397391055344,0.0971684457842,0.300222609559,0.494559501128,0.0971684457842,0.399182474862,52,1.0,-0.0438860552364,-1.0,nan,nan,nan,nan,0.0,0.0,0.0,nan,309.136508725,578.793265609,579.293285566,579.226961738,nan,nan,nan,nan
1,208,1,1,1.0,1.0,0.489551479928,0,0.0,0.0,0.0,0.397569021393,0.0969631547447,0.300605866648,0.494532176137,0.0969631547447,0.441698232045,413,0.0683106243366,0.461143133648,-0.585495598612,nan,nan,nan,nan,0.0,0.0,0.0,nan,309.136508725,579.793389912,580.301747531,580.282941392,nan,nan,nan,nan
1,209,1,1,1.0,1.0,0.473066885024,0,0.0,0.0,0.0,0.398017716312,0.0969384413602,0.301079274952,0.494956157673,0.0969384413602,0.465438164771,191,1.0,-0.0691479807067,0.414571651978,nan,nan,nan,nan,0.0,0.0,0.0,nan,309.136508725,580.801851021,581.301876394,581.274917906,nan,nan,nan,nan
1,210,1,1,1.0,1.0,0.400585247204,0,0.0,0.0,0.0,0.398382032665,0.0968434485311,0.301538584134,0.495225481196,0.0968434485311,0.454401204052,491,0.673033477965,0.292707709811,-1.0,nan,nan,nan,nan,0.0,0.0,0.0,nan,309.136508725,581.810312415,582.310374851,582.210897662,nan,nan,nan,nan
1,211,1,1,1.0,1.0,0.424432757311,0,0.0,0.0,0.0,0.398392676214,0.0966093647386,0.301783311475,0.495002040952,0.0966093647386,0.43269496318,318,-0.0835627602325,0.431640264478,0.413481556053,nan,nan,nan,nan,0.0,0.0,0.0,nan,309.136508725,582.810440423,583.31047378,583.23487318,nan,nan,nan,nan
1,212,1,1,1.0,1.0,0.424306173809,0,0.0,0.0,0.0,0.398517868911,0.096393681027,0.302124187884,0.494911549938,0.096393681027,0.416441392774,484,0.614398947124,0.316112737715,-1.0,nan,nan,nan,nan,0.0,0.0,0.0,nan,309.136508725,583.810577555,584.310602359,584.234883728,nan,nan,nan,nan
1,213,1,1,1.0,1.0,0.584134408273,0,0.0,0.0,0.0,0.39864125793,0.0961792618824,0.302461996048,0.494820519813,0.0961792618824,0.477624446464,54,1.0,-0.0546292063271,-1.0,nan,nan,nan,nan,0.0,0.0,0.0,nan,309.136508725,584.810704423,585.310780259,585.394838831,nan,nan,nan,nan
1,214,1,1,1.0,1.0,0.439977956004,0,0.0,0.0,0.0,0.399524558646,0.0967960054171,0.302728553229,0.496320564063,0.0967960054171,0.482806179362,211,0.948675772315,0.0413606888024,0.538689155053,nan,nan,nan,nan,0.0,0.0,0.0,nan,309.136508725,585.810831862,586.31085695,586.250809818,nan,nan,nan,nan
1,215,1,1,1.0,1.0,0.271841709502,0,0.0,0.0,0.0,0.399716280908,0.0966063179552,0.303109962953,0.496322598864,0.0966063179552,0.43198469126,340,-0.166837174664,0.460980112934,0.232376404312,nan,nan,nan,nan,0.0,0.0,0.0,nan,309.136508725,586.810961581,587.310992371,587.08280329,nan,nan,nan,nan
1,216,0,0,0.0,1.0,0.407651375979,0,0.0,0.0,0.0,0.399113098968,0.0967756473614,0.302337451606,0.495888746329,0.0967756473614,0.373157013829,152,1.0,-0.259184487343,0.0830625546756,nan,nan,nan,nan,0.0,0.0,0.0,nan,309.136508725,587.811121806,588.311153166,588.218773182,nan,nan,nan,nan
1,217,1,1,1.0,1.0,0.263530846685,0,0.0,0.0,0.0,0.399153184775,0.0965499713817,0.302603213394,0.495703156157,0.0965499713817,0.314341310722,458,0.399688045963,0.388050214986,-1.0,nan,nan,nan,nan,0.0,0.0,0.0,nan,309.136508725,588.811237555,589.31126578,589.074768402,nan,nan,nan,nan
1,218,1,1,1.0,1.0,0.32704504393,0,0.0,0.0,0.0,0.398519435532,0.0967671722415,0.30175226329,0.495286607773,0.0967671722415,0.332742422198,128,1.0,-0.310663006781,-0.156689791083,nan,nan,nan,nan,0.0,0.0,0.0,nan,309.136508725,589.8196884,590.319727173,590.146733444,nan,nan,nan,nan
1,219,1,1,1.0,1.0,0.390891378745,0,0.0,0.0,0.0,0.398186996501,0.0966642800055,0.301522716496,0.494851276507,0.0966642800055,0.327155756454,187,1.0,-0.0912463489427,0.385383214542,nan,nan,nan,nan,0.0,0.0,0.0,nan,309.136508725,590.819829809,591.319847769,591.210721187,nan,nan,nan,nan
1,220,1,1,1.0,1.0,0.398752643727,0,0.0,0.0,0.0,0.398153220493,0.0964415321546,0.301711688338,0.494594752648,0.0964415321546,0.372229688801,259,0.44882283482,0.268906983076,0.655011783756,nan,nan,nan,nan,0.0,0.0,0.0,nan,309.136508725,591.819941851,592.319972072,592.218694495,nan,nan,nan,nan
1,221,1,1,1.0,1.0,0.286609449424,0,0.0,0.0,0.0,0.398155982812,0.0962190686071,0.301936914205,0.494375051419,0.0962190686071,0.358751157299,31,1.0,0.0668515730764,-1.0,nan,nan,nan,nan,0.0,0.0,0.0,nan,309.136508725,592.820073566,593.320101221,593.106683016,nan,nan,nan,nan
1,222,1,1,1.0,1.0,0.318451363593,0,0.0,0.0,0.0,0.397644301466,0.0962935887559,0.30135071271,0.493937890222,0.0962935887559,0.334604485581,412,0.0618891196837,0.462096609288,-0.571158935758,nan,nan,nan,nan,0.0,0.0,0.0,nan,309.136508725,593.820203001,594.320238923,594.138654364,nan,nan,nan,nan
1,223,1,1,1.0,1.0,0.246297872625,0,1.0,0.0,0.0,0.397282689878,0.0962217313208,0.301060958557,0.493504421199,0.0962217313208,0.283786228547,331,-0.143297839787,0.450801753776,0.311166711333,nan,nan,nan,nan,0.0,0.0,0.0,nan,309.136508725,594.820331294,595.320372063,595.066629167,nan,nan,nan,nan
1,224,1,1,1.0,1.0,0.21417456679,1,0.0,0.0,1.0,0.396596395254,0.096538520824,0.30005787443,0.493134916078,0.096538520824,0.25964126767,82,1.0,-0.198479155091,-0.679872484948,32.9177447294,57.0822552706,-0.57399472936,81.0,1.0,-0.193804253699,-0.694219169772,2.90077398159,309.136508725,595.820461583,596.320522024,596.03463615,600.562701385,601.562519209,597.645675164,600.554377123
1,225,0,0,0.0,1.0,0.647549676709,0,0.0,0.0,0.0,0.395770957116,0.097094861163,0.298676095953,0.492865818279,0.097094861163,0.369340705375,429,0.177531820842,0.442080780324,-0.901885199234,nan,nan,nan,nan,0.0,0.0,0.0,nan,309.136508725,601.762948393,602.262998286,602.41049807,nan,nan,nan,nan
1,226,1,1,1.0,1.0,0.351481563412,0,0.0,0.0,0.0,0.396905095493,0.0983321508082,0.298572944684,0.495237246301,0.0983321508082,0.404401935637,59,1.0,-0.0814409933332,-1.0,nan,nan,nan,nan,0.0,0.0,0.0,nan,309.136508725,602.763023374,603.263058726,603.114504937,nan,nan,nan,nan
1,227,1,1,1.0,1.0,0.303298173472,0,0.0,0.0,0.0,0.396701402524,0.0981583575215,0.298543045002,0.494859760045,0.0981583575215,0.434109804531,209,0.967301840512,0.0304835193525,0.52804999659,nan,nan,nan,nan,0.0,0.0,0.0,nan,309.136508725,603.763156514,604.26318816,604.066454687,nan,nan,nan,nan
1,228,1,1,1.0,1.0,0.255130748264,0,0.0,0.0,0.0,0.396284423823,0.0981367554101,0.298147668412,0.494421179233,0.0981367554101,0.303303495049,361,-0.166047812515,0.475607712818,0.0278173107143,nan,nan,nan,nan,0.0,0.0,0.0,nan,309.136508725,604.763287944,605.2633213,605.018418692,nan,nan,nan,nan
1,229,1,1,1.0,1.0,0.302962043323,0,1.0,0.0,0.0,0.395657074153,0.0983675670623,0.297289507091,0.494024641216,0.0983675670623,0.287130321686,61,1.0,-0.0921163965413,-1.0,nan,nan,nan,nan,0.0,0.0,0.0,nan,309.136508725,605.763431063,606.263452159,606.066393106,nan,nan,nan,nan
1,230,0,0,1.0,0.0,0.238786421716,0,0.0,0.0,0.0,0.39524691915,0.0983423327227,0.296904586427,0.493589251872,0.0983423327227,0.265626404434,468,0.481236483515,0.363131620867,-1.0,nan,nan,nan,nan,0.0,0.0,0.0,nan,309.136508725,606.763601266,607.263629205,607.002387688,nan,nan,nan,nan
1,231,1,1,1.0,1.0,0.278711407445,0,0.0,0.0,0.0,0.394557665857,0.0986710483349,0.295886617522,0.493228714192,0.0986710483349,0.273486624161,48,1.0,-0.0224273256894,-1.0,nan,nan,nan,nan,0.0,0.0,0.0,nan,309.136508725,607.763675961,608.263712454,608.042387368,nan,nan,nan,nan
1,232,1,1,1.0,1.0,0.294562515803,0,0.0,0.0,0.0,0.394049568232,0.0987515932878,0.295297974945,0.49280116152,0.0987515932878,0.270686781655,193,1.0,-0.0580453890011,0.428658791268,nan,nan,nan,nan,0.0,0.0,0.0,nan,309.136508725,608.763807676,609.263831624,609.058370192,nan,nan,nan,nan
1,233,1,1,1.0,1.0,0.302375314757,0,1.0,0.0,0.0,0.393615126955,0.0987538612069,0.294861265749,0.492368988162,0.0987538612069,0.291883079335,397,-0.0275613476434,0.473159987783,-0.37569455347,nan,nan,nan,nan,0.0,0.0,0.0,nan,309.136508725,609.763938535,610.263975883,610.06631385,nan,nan,nan,nan
1,234,1,1,1.0,1.0,0.325926037505,1,0.0,0.0,1.0,0.39321843212,0.0987216323066,0.294496799813,0.491940064426,0.0987216323066,0.307621289355,474,0.530901762182,0.346545376391,-1.0,102.076556385,347.923443615,14.6421936147,495.0,0.706485112283,0.278551693791,-1.0,2.43394843955,309.136508725,610.772395368,611.272434141,611.098321405,615.04791882,616.048096435,612.597601821,615.039586575
1,235,1,1,1.0,1.0,0.530006174929,0,0.0,0.0,0.0,0.392927123052,0.0986067360937,0.294320386959,0.491533859146,0.0986067360937,0.386102509064,363,-0.162287729338,0.476365729747,0.00704812682028,nan,nan,nan,nan,0.0,0.0,0.0,nan,309.136508725,616.248139314,616.74818436,616.778145489,nan,nan,nan,nan
1,236,0,0,0.0,1.0,0.465895269997,0,0.0,0.0,0.0,0.393517981034,0.0988029494297,0.294715031605,0.492320930464,0.0988029494297,0.440609160811,112,1.0,-0.300501516081,-0.325324861792,nan,nan,nan,nan,0.0,0.0,0.0,nan,309.136508725,617.248277586,617.748295832,617.714172856,nan,nan,nan,nan
1,237,1,1,1.0,1.0,0.305811017752,0,0.0,0.0,0.0,0.393828613176,0.0987041637537,0.295124449422,0.49253277693,0.0987041637537,0.433904154226,506,0.797774742377,0.236703125255,-1.0,nan,nan,nan,nan,0.0,0.0,0.0,nan,309.136508725,618.248363971,618.748402744,618.554174989,nan,nan,nan,nan
1,238,1,1,1.0,1.0,0.257373605855,0,0.0,0.0,0.0,0.393452469606,0.0986602404442,0.294792229162,0.49211271005,0.0986602404442,0.343026631201,244,0.611372359265,0.206163547436,0.648880721676,nan,nan,nan,nan,0.0,0.0,0.0,nan,309.136508725,619.256818523,619.75688438,619.514192129,nan,nan,nan,nan
1,239,1,1,1.0,1.0,0.216802020557,0,1.0,0.0,0.0,0.392873410611,0.0988477860982,0.294025624513,0.491721196709,0.0988477860982,0.259995548055,405,0.018463324075,0.468009379796,-0.476293327428,nan,nan,nan,nan,0.0,0.0,0.0,nan,309.136508725,620.265320116,620.765390249,620.482122136,nan,nan,nan,nan
1,240,1,1,1.0,1.0,0.304665213451,1,0.0,0.0,1.0,0.392127345399,0.0992989772751,0.292828368124,0.491426322674,0.0992989772751,0.259613613288,477,0.555879874869,0.337784025865,-1.0,126.552472752,323.447527248,-11.9430977521,460.0,0.415848916989,0.383334931935,-1.0,1.46725176182,309.136508725,621.265435864,621.765455537,621.570101078,624.574167131,625.573364584,623.090627207,624.565849141
1,241,1,1,1.0,1.0,0.523645946756,0,0.0,0.0,0.0,0.391758306868,0.09925131238,0.292506994488,0.491009619248,0.09925131238,0.348371060255,36,1.0,0.0410699577143,-1.0,nan,nan,nan,nan,0.0,0.0,0.0,nan,309.136508725,625.774337448,626.274420412,626.297983395,nan,nan,nan,nan
1,242,1,1,1.0,1.0,0.347502180375,0,0.0,0.0,0.0,0.392312456615,0.099409312526,0.292903144089,0.491721769141,0.099409312526,0.391937780194,462,0.432089675478,0.378486360879,-1.0,nan,nan,nan,nan,0.0,0.0,0.0,nan,309.136508725,626.77447458,627.274508792,627.12197676,nan,nan,nan,nan
1,243,1,1,1.0,1.0,0.243351395242,0,0.0,0.0,0.0,0.392124965919,0.0992432849571,0.292881680962,0.491368250876,0.0992432849571,0.371499840791,220,0.861731547614,0.0893272636146,0.581247684387,nan,nan,nan,nan,0.0,0.0,0.0,nan,309.136508725,627.774605155,628.274629388,628.01795655,nan,nan,nan,nan
1,244,1,1,1.0,1.0,0.211188175716,0,1.0,0.0,0.0,0.391505076042,0.0994988950665,0.292006180975,0.491003971108,0.0994988950665,0.267347250444,379,-0.113535935895,0.478614986251,-0.165970515924,nan,nan,nan,nan,0.0,0.0,0.0,nan,309.136508725,628.774749129,629.274764524,628.985937305,nan,nan,nan,nan
1,245,1,1,1.0,1.0,0.179071998224,1,0.0,0.0,1.0,0.390756873136,0.0999665192828,0.290790353853,0.490723392419,0.0999665192828,0.211203856394,290,0.131265381085,0.370776544741,0.578206616232,-126.97276249,216.97276249,13.0665124896,309.0,-0.0258396312562,0.415106541901,0.475305697888,1.77551974542,309.136508725,629.77487172,630.27489795,629.953943718,633.39195308,634.391702765,631.600071331,633.383620264
1,246,1,1,1.0,1.0,0.561689861119,0,0.0,0.0,0.0,0.389882142248,0.100679752052,0.289202390195,0.4905618943,0.100679752052,0.317316678353,355,-0.173737462994,0.472683863687,0.0888799762457,nan,nan,nan,nan,0.0,0.0,0.0,nan,309.136508725,634.592157323,635.092224036,635.153847184,nan,nan,nan,nan
1,247,1,1,1.0,1.0,0.425158043392,0,0.0,0.0,0.0,0.390589169897,0.101072606384,0.289516563513,0.491661776282,0.101072606384,0.388639967578,455,0.375608248681,0.394875365091,-1.0,nan,nan,nan,nan,0.0,0.0,0.0,nan,309.136508725,635.600623564,636.100645231,636.025781607,nan,nan,nan,nan
1,248,1,1,1.0,1.0,0.313026824035,0,0.0,0.0,0.0,0.390730845608,0.100889453125,0.289841392483,0.491620298733,0.100889453125,0.433291576182,174,1.0,-0.160790688716,0.281981279739,nan,nan,nan,nan,0.0,0.0,0.0,nan,309.136508725,636.600768393,637.100780653,636.913795217,nan,nan,nan,nan
1,249,1,1,1.0,1.0,0.232540231198,0,0.0,0.0,0.0,0.390413686337,0.10080515896,0.289608527377,0.491218845297,0.10080515896,0.323575032875,54,1.0,-0.0546292063271,-1.0,nan,nan,nan,nan,0.0,0.0,0.0,nan,309.136508725,637.609215247,638.109298496,637.841755479,nan,nan,nan,nan
1,250,1,1,1.0,1.0,0.256402851082,0,1.0,0.0,0.0,0.389771924324,0.101100335104,0.288671589219,0.490872259428,0.101100335104,0.267323302105,155,1.0,-0.2479831371,0.111611878621,nan,nan,nan,nan,0.0,0.0,0.0,nan,309.136508725,638.609344112,639.109372906,638.865746963,nan,nan,nan,nan
1,251,1,1,1.0,1.0,0.256230367348,1,0.0,0.0,1.0,0.389231968562,0.10125027365,0.287981694912,0.490482242212,0.10125027365,0.248391149876,289,0.140592130943,0.368073254824,0.582505265782,-125.277375688,215.277375688,12.0742506881,306.0,-0.00395437407881,0.408974006242,0.494128827808,1.12541930657,309.136508725,639.609469839,640.10950063,639.865700207,642.576475563,643.575997169,641.434683705,642.568153581
1,252,0,0,1.0,0.0,0.448915177025,0,0.0,0.0,0.0,0.388695671783,0.101396851338,0.287298820444,0.490092523121,0.101396851338,0.320516131818,174,1.0,-0.160790688716,0.281981279739,nan,nan,nan,nan,0.0,0.0,0.0,nan,309.136508725,643.776699478,644.276733119,644.225614655,nan,nan,nan,nan
1,253,1,1,1.0,1.0,0.392798678018,0,0.0,0.0,0.0,0.388937517185,0.10126468454,0.287672832645,0.490202201725,0.10126468454,0.365981407464,466,0.464789014893,0.368385601135,-1.0,nan,nan,nan,nan,0.0,0.0,0.0,nan,309.136508725,644.776812091,645.276841456,645.169610769,nan,nan,nan,nan
1,254,1,1,1.0,1.0,0.368643833324,0,0.0,0.0,0.0,0.388952961829,0.101062246093,0.287890715735,0.490015207922,0.101062246093,0.403452562789,268,0.35230222188,0.302367520405,0.645005310408,nan,nan,nan,nan,0.0,0.0,0.0,nan,309.136508725,645.776946086,646.276961481,646.14558992,nan,nan,nan,nan
1,255,1,1,1.0,1.0,0.312513933517,0,0.0,0.0,0.0,0.388872048966,0.100868839411,0.288003209555,0.489740888377,0.100868839411,0.35798548162,451,0.343830962376,0.403518361206,-1.0,nan,nan,nan,nan,0.0,0.0,0.0,nan,309.136508725,646.777059555,647.277088635,647.089573489,nan,nan,nan,nan
1,256,1,1,1.0,1.0,0.368355886079,0,0.0,0.0,0.0,0.388569040571,0.100782900383,0.287786140188,0.489351940954,0.100782900383,0.349837884307,70,1.0,-0.13936984996,-0.906436913284,nan,nan,nan,nan,0.0,0.0,0.0,nan,309.136508725,647.777185853,648.277224055,648.145541739,nan,nan,nan,nan
1,257,1,1,1.0,1.0,0.368195376359,0,0.0,0.0,0.0,0.38848914668,0.100591523133,0.287897623547,0.489080669813,0.100591523133,0.349688398652,358,-0.170583909915,0.474268316859,0.0585874414746,nan,nan,nan,nan,0.0,0.0,0.0,nan,309.136508725,648.777322699,649.277359477,649.145518076,nan,nan,nan,nan
1,258,1,1,1.0,1.0,0.430361920036,0,0.0,0.0,0.0,0.388409249947,0.100401356197,0.28800789375,0.488810606143,0.100401356197,0.388971060825,291,0.122027637739,0.373441943191,0.573791926984,nan,nan,nan,nan,0.0,0.0,0.0,nan,309.136508725,649.819136167,650.319171234,650.249498087,nan,nan,nan,nan
1,259,0,0,0.0,1.0,0.534196245484,0,0.0,0.0,0.0,0.388573770221,0.100238596443,0.288335173778,0.488812366664,0.100238596443,0.444251180626,128,1.0,-0.310663006781,-0.156689791083,nan,nan,nan,nan,0.0,0.0,0.0,nan,309.136508725,650.819276435,651.319316063,651.353472681,nan,nan,nan,nan
1,260,1,1,1.0,1.0,0.350076320581,0,0.0,0.0,0.0,0.389142608015,0.100454164086,0.28868844393,0.489596772101,0.100454164086,0.438211495367,203,1.0,-0.00249325098487,0.493674673203,nan,nan,nan,nan,0.0,0.0,0.0,nan,309.136508725,651.819381636,652.319429532,652.169457956,nan,nan,nan,nan
1,261,1,1,1.0,1.0,0.413947174326,0,0.0,0.0,0.0,0.388990599115,0.10028803346,0.288702565655,0.489278632575,0.10028803346,0.432739913464,101,1.0,-0.273572672894,-0.446152610616,nan,nan,nan,nan,0.0,0.0,0.0,nan,309.136508725,652.819518767,653.31954129,653.233465942,nan,nan,nan,nan
1,262,1,1,1.0,1.0,0.389809436165,0,0.0,0.0,0.0,0.389087330027,0.100105499737,0.28898183029,0.489192829763,0.100105499737,0.384610977024,350,-0.175756816429,0.469490941964,0.138247479403,nan,nan,nan,nan,0.0,0.0,0.0,nan,309.136508725,653.819639933,654.319669584,654.209449369,nan,nan,nan,nan
1,263,0,0,1.0,0.0,0.405570453964,0,0.0,0.0,0.0,0.389090118081,0.0999120690129,0.289178049068,0.489002187094,0.0999120690129,0.403109021485,154,1.0,-0.251813147593,0.102138173725,nan,nan,nan,nan,0.0,0.0,0.0,nan,309.136508725,654.819854897,655.319840642,655.22542535,nan,nan,nan,nan
1,264,1,1,1.0,1.0,0.38149172999,0,0.0,0.0,0.0,0.389153503988,0.0997249628164,0.289428541172,0.488878466805,0.0997249628164,0.39229054004,428,0.170378320166,0.443486568519,-0.86866140055,nan,nan,nan,nan,0.0,0.0,0.0,nan,309.136508725,655.819899657,656.319926171,656.201391387,nan,nan,nan,nan
1,265,1,1,1.0,1.0,0.461324594915,0,0.0,0.0,0.0,0.389124148532,0.0995348609897,0.289955288541,0.48884415697,0.0995348609897,0.41612892629,134,1.0,-0.304950998219,-0.095144111098,nan,nan,nan,nan,0.0,0.0,0.0,nan,309.136508725,656.820030232,657.320056746,657.281354827,nan,nan,nan,nan
1,266,1,1,nan,nan,nan,0,0.0,0.0,0.0,0.389399722755,0.0994444342144,0.289955288541,0.48884415697,0.0994444342144,0.421408162452,212,0.93926288676,0.0467731277665,0.543851001166,nan,nan,nan,nan,0.0,0.0,0.0,nan,309.136508725,657.828488775,658.328569457,nan,nan,nan,nan,nan
1,267,1,1,1.0,1.0,0.468349955045,0,0.0,0.0,0.0,0.389399722755,0.0994444342144,0.289955288541,0.48884415697,0.0994444342144,0.46483727498,433,0.206536295144,0.436163724167,-1.0,nan,nan,nan,nan,0.0,0.0,0.0,nan,309.136508725,658.836971266,659.337011465,659.305321221,nan,nan,nan,nan
1,268,1,1,1.0,1.0,0.331863182597,0,0.0,0.0,0.0,0.389699913753,0.0993740611366,0.290325852616,0.489073974889,0.0993740611366,0.400106568821,145,1.0,-0.281667413287,0.0150551701241,nan,nan,nan,nan,0.0,0.0,0.0,nan,309.136508725,659.845428384,660.345458033,660.177291567,nan,nan,nan,nan
1,269,1,1,1.0,1.0,0.29971450381,0,0.0,0.0,0.0,0.389480835225,0.0992492858482,0.290231549377,0.488730121074,0.0992492858482,0.36664254715,449,0.328095008353,0.407646248688,-1.0,nan,nan,nan,nan,0.0,0.0,0.0,nan,309.136508725,660.845572358,661.345589749,661.145286862,nan,nan,nan,nan
1,270,1,1,1.0,1.0,0.507556782104,0,0.0,0.0,0.0,0.389142094352,0.0992146265551,0.289927467797,0.488356720907,0.0992146265551,0.379711489504,302,0.027086081288,0.400300843718,0.517770016443,nan,nan,nan,nan,0.0,0.0,0.0,nan,309.136508725,661.845692098,662.345759097,662.35324888,nan,nan,nan,nan
1,271,1,1,1.0,1.0,0.395422426052,0,0.0,0.0,0.0,0.389587262351,0.0992927619723,0.290294500379,0.488880024324,0.0992927619723,0.400897903989,228,0.780729811514,0.1302769546,0.611433142569,nan,nan,nan,nan,0.0,0.0,0.0,nan,309.136508725,662.84581526,663.345860591,663.241237686,nan,nan,nan,nan
1,272,1,1,1.0,1.0,0.379283653572,0,0.0,0.0,0.0,0.389609116897,0.0991072870013,0.290501829896,0.488716403898,0.0991072870013,0.42742095391,288,0.150005133015,0.365331945294,0.586687239957,nan,nan,nan,nan,0.0,0.0,0.0,nan,309.136508725,663.845927874,664.345971494,664.225211527,nan,nan,nan,nan
1,273,1,1,1.0,1.0,0.361759596504,0,0.0,0.0,0.0,0.389570589049,0.098924215779,0.29064637327,0.488494804828,0.098924215779,0.378821892043,203,1.0,-0.00249325098487,0.493674673203,nan,nan,nan,nan,0.0,0.0,0.0,nan,309.136508725,664.879445018,665.37943504,665.241204615,nan,nan,nan,nan
1,274,1,1,1.0,1.0,0.449596843682,0,0.0,0.0,0.0,0.389467202459,0.0987546752234,0.290712527236,0.488221877683,0.0987546752234,0.396880031253,135,1.0,-0.303502321856,-0.0849788702499,nan,nan,nan,nan,0.0,0.0,0.0,nan,309.136508725,665.879564189,666.379562194,666.329161033,nan,nan,nan,nan
1,275,1,1,1.0,1.0,0.593445391394,0,0.0,0.0,0.0,0.389689904834,0.0986392770551,0.291050627779,0.488329181889,0.0986392770551,0.468267277194,358,-0.170583909915,0.474268316859,0.0585874414746,nan,nan,nan,nan,0.0,0.0,0.0,nan,309.136508725,666.879674807,667.37974152,667.473120199,nan,nan,nan,nan
1,276,1,1,1.0,1.0,0.425302302465,0,0.0,0.0,0.0,0.390441770098,0.0992292062425,0.291212563856,0.489670976341,0.0992292062425,0.48944817918,462,0.432089675478,0.378486360879,-1.0,nan,nan,nan,nan,0.0,0.0,0.0,nan,309.136508725,667.87981821,668.379842158,668.305120513,nan,nan,nan,nan
1,277,1,1,1.0,1.0,0.321219086647,0,0.0,0.0,0.0,0.39056993382,0.099069100486,0.291500833334,0.489639034306,0.099069100486,0.446655593502,273,0.299732959835,0.319577193062,0.635038033336,nan,nan,nan,nan,0.0,0.0,0.0,nan,309.136508725,668.879936811,669.379985848,669.201155897,nan,nan,nan,nan
1,278,1,1,1.0,1.0,0.361009220593,0,0.0,0.0,0.0,0.390315901413,0.0989762005134,0.2913397009,0.489292101926,0.0989762005134,0.369176869902,141,1.0,-0.291952736687,-0.024586852943,nan,nan,nan,nan,0.0,0.0,0.0,nan,309.136508725,669.880070237,670.380081926,670.241079457,nan,nan,nan,nan
1,279,1,1,1.0,1.0,0.360880071297,0,0.0,0.0,0.0,0.390208942724,0.0988112268681,0.291397715856,0.489020169592,0.0988112268681,0.347702792846,485,0.622774561467,0.312875618285,-1.0,nan,nan,nan,nan,0.0,0.0,0.0,nan,309.136508725,670.880185416,671.380211645,671.241065487,nan,nan,nan,nan
1,280,1,1,1.0,1.0,0.440754845738,0,0.0,0.0,0.0,0.390102292282,0.0986472042433,0.291455088039,0.488749496526,0.0986472042433,0.387548045876,161,1.0,-0.223158351501,0.167490545043,nan,nan,nan,nan,0.0,0.0,0.0,nan,309.136508725,671.880302875,672.380338512,672.321057721,nan,nan,nan,nan
1,281,0,0,1.0,0.0,0.368564290926,0,0.0,0.0,0.0,0.390285816027,0.098515353841,0.291770462186,0.488801169868,0.098515353841,0.390066402654,502,0.764740937618,0.25241357569,-1.0,nan,nan,nan,nan,0.0,0.0,0.0,nan,309.136508725,672.880486478,673.380528958,673.249050769,nan,nan,nan,nan
1,282,1,1,1.0,1.0,0.320419674739,0,0.0,0.0,0.0,0.390207398969,0.0983459965511,0.291861402418,0.48855339552,0.0983459965511,0.376579603801,444,0.289241202529,0.417409780569,-1.0,nan,nan,nan,nan,0.0,0.0,0.0,nan,309.136508725,673.880572862,674.380599377,674.200992537,nan,nan,nan,nan
1,283,1,1,1.0,1.0,0.336296726018,0,0.0,0.0,0.0,0.389956363989,0.0982578243487,0.291698539641,0.488214188338,0.0982578243487,0.341760230561,182,1.0,-0.118523835432,0.347089474713,nan,nan,nan,nan,0.0,0.0,0.0,nan,309.136508725,674.880696595,675.380736508,675.216993321,nan,nan,nan,nan
1,284,1,1,1.0,1.0,0.296128268354,0,0.0,0.0,0.0,0.389764035538,0.0981339850885,0.291630050449,0.487898020626,0.0981339850885,0.317614889704,291,0.122027637739,0.373441943191,0.573791926984,nan,nan,nan,nan,0.0,0.0,0.0,nan,309.136508725,675.880829735,676.380877346,676.176958003,nan,nan,nan,nan
1,285,1,1,1.0,1.0,0.35969178658,0,0.0,0.0,0.0,0.389429622084,0.0981177170732,0.29131190501,0.487547339157,0.0981177170732,0.330705593651,499,0.739831889234,0.263827757734,-1.0,nan,nan,nan,nan,0.0,0.0,0.0,nan,309.136508725,676.889307095,677.389329902,677.248998881,nan,nan,nan,nan
1,286,1,1,1.0,1.0,0.407172128558,0,0.0,0.0,0.0,0.389323793488,0.0979589823517,0.291364811136,0.487282775839,0.0979589823517,0.354330727831,122,1.0,-0.311159539646,-0.219144224573,nan,nan,nan,nan,0.0,0.0,0.0,nan,309.136508725,677.897761646,678.397809543,678.304933774,nan,nan,nan,nan
1,287,1,1,1.0,1.0,0.414663622156,0,0.0,0.0,0.0,0.389387085456,0.0977908975259,0.29159618793,0.487177982982,0.0977908975259,0.393842512431,209,0.967301840512,0.0304835193525,0.52804999659,nan,nan,nan,nan,0.0,0.0,0.0,nan,309.136508725,678.906234159,679.406273503,679.320897781,nan,nan,nan,nan
1,288,1,1,1.0,1.0,0.414520503953,0,0.0,0.0,0.0,0.38947640184,0.0976294911397,0.2918469107,0.48710589298,0.0976294911397,0.412118751556,291,0.122027637739,0.373441943191,0.573791926984,nan,nan,nan,nan,0.0,0.0,0.0,nan,309.136508725,679.906357891,680.406375567,680.320878395,nan,nan,nan,nan
1,289,1,1,1.0,1.0,0.486378064379,0,0.0,0.0,0.0,0.389564585298,0.09746874657,0.292095838728,0.487033331868,0.09746874657,0.438520730163,96,1.0,-0.25681952169,-0.503302481145,nan,nan,nan,nan,0.0,0.0,0.0,nan,309.136508725,680.906486755,681.406513269,681.39286482,nan,nan,nan,nan
1,290,1,1,1.0,1.0,0.454227104783,0,0.0,0.0,0.0,0.389904281716,0.0974658631196,0.292438418596,0.487370144836,0.0974658631196,0.451708557705,349,-0.175656888649,0.468768509344,0.147945183432,nan,nan,nan,nan,0.0,0.0,0.0,nan,309.136508725,681.906609917,682.406637001,682.360837022,nan,nan,nan,nan
1,291,1,1,1.0,1.0,0.382083021104,0,0.0,0.0,0.0,0.390129186692,0.0973693742872,0.292759812405,0.487498560979,0.0973693742872,0.440896063422,508,0.814199817736,0.228638933499,-1.0,nan,nan,nan,nan,0.0,0.0,0.0,nan,309.136508725,682.906730513,683.406770997,683.288813534,nan,nan,nan,nan
1,292,1,1,1.0,1.0,0.341965311207,0,0.0,0.0,0.0,0.390101151272,0.0972007495426,0.292900401729,0.487301900814,0.0972007495426,0.392758479031,239,0.665069831863,0.183388857662,0.640549267122,nan,nan,nan,nan,0.0,0.0,0.0,nan,309.136508725,683.906863938,684.406895869,684.248829249,nan,nan,nan,nan
1,293,1,1,1.0,1.0,0.341448144056,0,0.0,0.0,0.0,0.389934012938,0.0970731559936,0.292860856944,0.487007168932,0.0970731559936,0.355165492122,298,0.0600896634305,0.391050340636,0.53969689008,nan,nan,nan,nan,0.0,0.0,0.0,nan,309.136508725,684.915323908,685.415365246,685.256772052,nan,nan,nan,nan
1,294,0,0,0.0,1.0,0.64523839578,0,0.0,0.0,0.0,0.389766241765,0.0969468812203,0.292819360545,0.486713122986,0.0969468812203,0.442883950348,483,0.606025706087,0.319314454546,-1.0,nan,nan,nan,nan,0.0,0.0,0.0,nan,309.136508725,685.915491259,686.415543431,686.560729655,nan,nan,nan,nan
1,295,1,1,1.0,1.0,0.389150861651,0,0.0,0.0,0.0,0.390647180227,0.0979314437225,0.292715736505,0.48857862395,0.0979314437225,0.458612467162,392,-0.0541067903503,0.475522277549,-0.315549842675,nan,nan,nan,nan,0.0,0.0,0.0,nan,309.136508725,686.915590188,687.415623829,687.304741049,nan,nan,nan,nan
1,296,1,1,1.0,1.0,0.213014792651,0,0.0,0.0,0.0,0.390642038239,0.0977630710441,0.292878967195,0.488405109283,0.0977630710441,0.415801350027,306,-0.00395437407881,0.408974006242,0.494128827808,nan,nan,nan,nan,0.0,0.0,0.0,nan,309.136508725,687.915744996,688.415750127,688.128759788,nan,nan,nan,nan
1,297,1,1,1.0,1.0,0.252877911553,0,1.0,0.0,0.0,0.390033725754,0.0981456535886,0.291888072166,0.488179379343,0.0981456535886,0.285014521951,440,0.258699398066,0.424657399123,-1.0,nan,nan,nan,nan,0.0,0.0,0.0,nan,309.136508725,688.915846775,689.415881556,689.168724687,nan,nan,nan,nan
1,298,1,1,1.0,1.0,0.276706890203,1,0.0,0.0,1.0,0.389565617173,0.0983040098014,0.291261607372,0.487869626975,0.0983040098014,0.247533198136,151,1.0,-0.262720288689,0.0734626651272,-11.7064367292,101.706436729,-4.46543827085,145.0,1.0,-0.281667413287,0.0150551701241,2.25058231037,309.136508725,689.915993315,690.416014412,690.192700205,694.008136953,695.007843303,691.741184087,693.999804708
1,299,0,0,0.0,1.0,0.656165308319,0,0.0,0.0,0.0,0.389181743952,0.0983564170413,0.290825326911,0.487538160994,0.0983564170413,0.395250036692,0,0.846831709088,0.212097570855,-1.0,nan,nan,nan,nan,0.0,0.0,0.0,nan,309.136508725,695.208359729,695.708409335,695.864525037,nan,nan,nan,nan
1,300,1,1,1.0,1.0,0.351757252589,0,0.0,0.0,0.0,0.390086772984,0.0994082511851,0.290678521799,0.489495024169,0.0994082511851,0.428209817037,365,-0.157962026257,0.477016591838,-0.0139196855225,nan,nan,nan,nan,0.0,0.0,0.0,nan,309.136508725,696.216793183,696.716845926,696.568550436,nan,nan,nan,nan
1,301,1,1,1.0,1.0,0.279598344117,0,0.0,0.0,0.0,0.389957281361,0.0992651089301,0.290692172431,0.489222390291,0.0992651089301,0.429173635008,27,1.0,0.0870912575778,-1.0,nan,nan,nan,nan,0.0,0.0,0.0,nan,309.136508725,697.216930885,697.716960535,697.496529229,nan,nan,nan,nan
1,302,1,1,1.0,1.0,0.327111470513,0,0.0,0.0,0.0,0.389585702448,0.0993038461393,0.290281856309,0.488889548587,0.0993038461393,0.319489022406,472,0.51429864939,0.352212277195,-1.0,nan,nan,nan,nan,0.0,0.0,0.0,nan,309.136508725,698.225386863,698.725438179,698.552498333,nan,nan,nan,nan
1,303,1,1,1.0,1.0,0.326949535869,0,0.0,0.0,0.0,0.389376057374,0.0992029025082,0.290173154866,0.488578959883,0.0992029025082,0.3112197835,204,1.0,0.00303256528985,0.499654420455,nan,nan,nan,nan,0.0,0.0,0.0,nan,309.136508725,699.225524564,699.725553929,699.5524741,nan,nan,nan,nan
1,304,1,1,1.0,1.0,0.310403360985,0,0.0,0.0,0.0,0.389167273022,0.0991024328188,0.290064840203,0.48826970584,0.0991024328188,0.321488122456,122,1.0,-0.311159539646,-0.219144224573,nan,nan,nan,nan,0.0,0.0,0.0,nan,309.136508725,700.274066322,700.77569394,700.584469683,nan,nan,nan,nan
1,305,1,1,1.0,1.0,0.396635227837,0,0.0,0.0,0.0,0.388904726648,0.0990412277732,0.289863498875,0.487945954421,0.0990412277732,0.34466270823,78,1.0,-0.179467652321,-0.739907630878,nan,nan,nan,nan,0.0,0.0,0.0,nan,309.136508725,701.275790303,701.775814251,701.672425531,nan,nan,nan,nan
1,306,1,1,1.0,1.0,0.396151703782,0,0.0,0.0,0.0,0.388930409376,0.0988775712294,0.290052838147,0.487807980606,0.0988775712294,0.367730097535,229,0.770397026975,0.135265939772,0.614681466938,nan,nan,nan,nan,0.0,0.0,0.0,nan,309.136508725,702.28426025,702.784309002,702.680411953,nan,nan,nan,nan
1,307,1,1,1.0,1.0,0.387992226519,0,0.0,0.0,0.0,0.388954320947,0.0987146026118,0.290239718335,0.487668923559,0.0987146026118,0.393593052713,323,-0.11001989341,0.43965344528,0.375855360355,nan,nan,nan,nan,0.0,0.0,0.0,nan,309.136508725,703.28440508,703.78440508,703.672397306,nan,nan,nan,nan
1,308,1,1,1.0,1.0,0.363901529461,0,0.0,0.0,0.0,0.388951145718,0.0985515880512,0.290399557667,0.487502733769,0.0985515880512,0.382681819921,258,0.459642287315,0.26499291187,0.655490062901,nan,nan,nan,nan,0.0,0.0,0.0,nan,309.136508725,704.284506859,704.784546202,704.648408389,nan,nan,nan,nan
1,309,1,1,1.0,1.0,0.363415438682,0,0.0,0.0,0.0,0.388868745665,0.0983998174396,0.290468928225,0.487268563104,0.0983998174396,0.371769731554,492,0.681403316433,0.289222019555,-1.0,nan,nan,nan,nan,0.0,0.0,0.0,nan,309.136508725,705.29295913,705.793005316,705.656374569,nan,nan,nan,nan
1,310,1,1,1.0,1.0,0.363266618922,0,0.0,0.0,0.0,0.388785292199,0.0982491490741,0.290536143125,0.487034441273,0.0982491490741,0.363527862355,89,1.0,-0.229484098413,-0.587370487375,nan,nan,nan,nan,0.0,0.0,0.0,nan,309.136508725,706.293101679,706.793128762,706.656368298,nan,nan,nan,nan
1,311,1,1,1.0,1.0,0.315106036142,0,0.0,0.0,0.0,0.388701897842,0.0980992917562,0.290602606086,0.486801189598,0.0980992917562,0.347262697915,259,0.44882283482,0.268906983076,0.655011783756,nan,nan,nan,nan,0.0,0.0,0.0,nan,309.136508725,707.293232253,707.793265894,707.608338289,nan,nan,nan,nan
1,312,1,1,1.0,1.0,0.28295422066,0,0.0,0.0,0.0,0.388462171908,0.098029126284,0.290433045624,0.486491298192,0.098029126284,0.320442291908,170,1.0,-0.180990482069,0.247815061387,nan,nan,nan,nan,0.0,0.0,0.0,nan,309.136508725,708.29336853,708.793389056,708.57632275,nan,nan,nan,nan
1,313,1,1,1.0,1.0,0.30650437437,0,0.0,0.0,0.0,0.388119613625,0.0980537328235,0.290065880801,0.486173346448,0.0980537328235,0.301521543724,41,1.0,0.0148395037771,-1.0,nan,nan,nan,nan,0.0,0.0,0.0,nan,309.136508725,709.301805405,709.801857008,709.608309779,nan,nan,nan,nan
1,314,1,1,1.0,1.0,0.330339624546,0,0.0,0.0,0.0,0.387855486637,0.0980046251277,0.289850861509,0.485860111765,0.0980046251277,0.306599406525,125,1.0,-0.311567427947,-0.187805059354,nan,nan,nan,nan,0.0,0.0,0.0,nan,309.136508725,710.301943677,710.801986442,710.632283302,nan,nan,nan,nan
1,315,1,1,1.0,1.0,0.266165427864,0,0.0,0.0,0.0,0.387669951598,0.0979007648662,0.289769186732,0.485570716464,0.0979007648662,0.30100314226,14,0.95801504718,0.150023555696,-1.0,nan,nan,nan,nan,0.0,0.0,0.0,nan,309.136508725,711.302090502,711.802121293,711.56825593,nan,nan,nan,nan
1,316,1,1,1.0,1.0,0.281989452429,0,0.0,0.0,0.0,0.387279261811,0.0979849946636,0.289294267147,0.485264256475,0.0979849946636,0.292831501613,263,0.405698801511,0.284171736334,0.651829885785,nan,nan,nan,nan,0.0,0.0,0.0,nan,309.136508725,712.302220222,712.80224417,712.584209674,nan,nan,nan,nan
1,317,1,1,1.0,1.0,0.233497587033,0,1.0,0.0,0.0,0.386941794473,0.0980086962525,0.288933098221,0.484950490726,0.0980086962525,0.260550822442,110,1.0,-0.296722754836,-0.346921960777,nan,nan,nan,nan,0.0,0.0,0.0,nan,309.136508725,713.310682471,713.810717538,713.544180058,nan,nan,nan,nan
1,318,1,1,1.0,1.0,0.249356963672,1,0.0,0.0,1.0,0.386451557389,0.0982344089294,0.287633384811,0.484396515994,0.0982344089294,0.254948001044,154,1.0,-0.251813147593,0.102138173725,0.254646232273,89.7453537677,-18.5358962323,128.0,1.0,-0.310663006781,-0.156689791083,2.21725104935,309.136508725,714.310806488,714.810840129,714.560163451,718.369625137,719.369732618,716.136003532,718.361292036
1,319,1,1,nan,nan,nan,0,0.0,0.0,0.0,0.386014950402,0.0983815655916,0.287633384811,0.484396515994,0.0983815655916,0.241427275352,338,-0.162891363375,0.458928707883,0.250399161362,nan,nan,nan,nan,0.0,0.0,0.0,nan,309.136508725,719.569831947,720.069895809,nan,nan,nan,nan,nan
1,320,1,1,1.0,1.0,0.774060049094,0,0.0,0.0,0.0,0.386014950402,0.0983815655916,0.287633384811,0.484396515994,0.0983815655916,0.511708506383,210,0.958022500947,0.0359304984579,0.533421856807,nan,nan,nan,nan,0.0,0.0,0.0,nan,309.136508725,720.569958244,721.070023247,721.344018294,nan,nan,nan,nan
1,321,0,0,0.0,1.0,0.589561230503,0,0.0,0.0,0.0,0.387246839605,0.100621651222,0.286625188383,0.487868490826,0.100621651222,0.681810639799,467,0.473005185182,0.365775667588,-1.0,nan,nan,nan,nan,0.0,0.0,0.0,nan,309.136508725,721.578441591,722.078492624,722.168002822,nan,nan,nan,nan
1,322,1,1,1.0,1.0,0.341432464309,0,0.0,0.0,0.0,0.387887075019,0.101102895054,0.286784179964,0.488989970073,0.101102895054,0.568351247969,289,0.140592130943,0.368073254824,0.582505265782,nan,nan,nan,nan,0.0,0.0,0.0,nan,309.136508725,722.578536528,723.07857188,722.919968992,nan,nan,nan,nan
1,323,1,1,1.0,1.0,0.357310942374,0,0.0,0.0,0.0,0.387740530506,0.100976909094,0.286763621412,0.488717439599,0.100976909094,0.429434879062,6,0.895129075663,0.186272780825,-1.0,nan,nan,nan,nan,0.0,0.0,0.0,nan,309.136508725,723.578694472,724.078707872,723.936005414,nan,nan,nan,nan
1,324,1,1,1.0,1.0,0.33314611949,0,0.0,0.0,0.0,0.387644839977,0.100832409902,0.286812430075,0.488477249878,0.100832409902,0.343963175391,497,0.723174939644,0.271260599794,-1.0,nan,nan,nan,nan,0.0,0.0,0.0,nan,309.136508725,724.578800528,725.078857263,724.911946648,nan,nan,nan,nan
1,325,1,1,1.0,1.0,0.220660523511,0,0.0,0.0,0.0,0.387473997593,0.100720327488,0.286753670105,0.48819432508,0.100720327488,0.303705861792,324,-0.114799643766,0.441158325109,0.368064040095,nan,nan,nan,nan,0.0,0.0,0.0,nan,309.136508725,725.587264203,726.087294424,725.807924727,nan,nan,nan,nan
1,326,1,1,1.0,1.0,0.260566407815,0,1.0,0.0,0.0,0.386952705486,0.100992917301,0.285959788186,0.487945622787,0.100992917301,0.271457683605,475,0.539218753276,0.343659807328,-1.0,nan,nan,nan,nan,0.0,0.0,0.0,nan,309.136508725,726.58738822,727.087438112,726.847954628,nan,nan,nan,nan
1,327,1,1,1.0,1.0,0.244370046072,1,0.0,0.0,1.0,0.386558978702,0.101081163603,0.2854778151,0.487640142305,0.101081163603,0.241865659133,210,0.958022500947,0.0359304984579,0.533421856807,-48.3018656744,138.301865674,-9.35438432556,197.0,1.0,-0.035797595552,0.455774741445,1.883885975,309.136508725,727.587519365,728.087561845,727.831889411,731.312963246,732.312161554,729.412724677,731.304633567
1,328,1,1,1.0,1.0,0.526610099711,0,0.0,0.0,0.0,0.386117398166,0.101233707065,0.284883691102,0.487351105231,0.101233707065,0.343848851199,21,1.0,0.116713997928,-1.0,nan,nan,nan,nan,0.0,0.0,0.0,nan,309.136508725,732.51315067,733.013233063,733.039760769,nan,nan,nan,nan
1,329,1,1,1.0,1.0,0.350492847152,0,0.0,0.0,0.0,0.38655236009,0.101377782873,0.285174577218,0.487930142963,0.101377782873,0.373824330978,74,1.0,-0.159715158178,-0.810443278181,nan,nan,nan,nan,0.0,0.0,0.0,nan,309.136508725,733.513317737,734.013324579,733.863810584,nan,nan,nan,nan
1,330,1,1,1.0,1.0,0.230338712223,0,0.0,0.0,0.0,0.386441065297,0.101240975746,0.285200089552,0.487682041043,0.101240975746,0.369147219695,172,1.0,-0.170984061773,0.265024678188,nan,nan,nan,nan,0.0,0.0,0.0,nan,309.136508725,734.513432915,735.013450022,734.743771628,nan,nan,nan,nan
1,331,1,1,1.0,1.0,0.214213055559,0,1.0,0.0,0.0,0.385960750365,0.101454152759,0.284506597606,0.487414903124,0.101454152759,0.265014871644,442,0.273907262724,0.421095538958,-1.0,nan,nan,nan,nan,0.0,0.0,0.0,nan,309.136508725,735.51354895,736.013581166,735.727762005,nan,nan,nan,nan
1,332,1,1,1.0,1.0,0.198061169125,1,0.0,0.0,1.0,0.385433916945,0.101742697687,0.283691219258,0.487176614633,0.101742697687,0.214204312302,225,0.81146624694,0.115131125244,0.600981946568,-66.6337804166,156.633780417,-1.56934458339,223.0,0.83172397378,0.104890589731,0.593432239612,1.8255602587,309.136508725,736.513675818,737.013709744,736.711736987,740.180794269,741.180498053,738.338885407,740.172472002
1,333,0,0,0.0,1.0,0.642599822953,0,0.0,0.0,0.0,0.3848609116,0.102112475174,0.282748436426,0.486973386775,0.102112475174,0.351624682546,99,1.0,-0.267176270739,-0.468793303331,nan,nan,nan,nan,0.0,0.0,0.0,nan,309.136508725,741.381000508,741.88104983,742.023600331,nan,nan,nan,nan
1,334,1,1,1.0,1.0,0.408457345329,0,0.0,0.0,0.0,0.385646700964,0.102942115345,0.282704585619,0.488588816309,0.102942115345,0.416372779136,492,0.681403316433,0.289222019555,-1.0,nan,nan,nan,nan,0.0,0.0,0.0,nan,309.136508725,742.431134247,742.931138238,742.839591593,nan,nan,nan,nan
1,335,1,1,1.0,1.0,0.344346441329,0,0.0,0.0,0.0,0.38571603423,0.102793219009,0.282922815221,0.488509253238,0.102793219009,0.465134536537,161,1.0,-0.223158351501,0.167490545043,nan,nan,nan,nan,0.0,0.0,0.0,nan,309.136508725,743.431251707,743.931282497,743.775598148,nan,nan,nan,nan
1,336,1,1,1.0,1.0,0.280171673745,0,0.0,0.0,0.0,0.385590671827,0.102662538528,0.282928133299,0.488253210355,0.102662538528,0.344325153468,486,0.631151757674,0.309603058574,-1.0,nan,nan,nan,nan,0.0,0.0,0.0,nan,309.136508725,744.431387983,744.931404519,744.711559657,nan,nan,nan,nan
1,337,1,1,1.0,1.0,0.296087499708,0,0.0,0.0,0.0,0.385272185428,0.102670483676,0.282601701752,0.487942669104,0.102670483676,0.30686853826,24,1.0,0.102019060141,-1.0,nan,nan,nan,nan,0.0,0.0,0.0,nan,309.136508725,745.431513141,745.931528251,745.727600641,nan,nan,nan,nan
1,338,0,0,1.0,0.0,0.247900688089,0,0.0,0.0,0.0,0.385003556856,0.102632172949,0.282371383907,0.487635729806,0.102632172949,0.274719953847,510,0.830554458933,0.220436700166,-1.0,nan,nan,nan,nan,0.0,0.0,0.0,nan,309.136508725,746.431627179,746.931690756,746.679527868,nan,nan,nan,nan
1,339,1,1,1.0,1.0,0.303741783835,0,0.0,0.0,0.0,0.38459183653,0.102752176269,0.28183966026,0.487344012799,0.102752176269,0.282576657211,351,-0.175686286722,0.4701852659,0.128489978773,nan,nan,nan,nan,0.0,0.0,0.0,nan,309.136508725,747.431754618,747.931793677,747.735496402,nan,nan,nan,nan
1,340,1,1,1.0,1.0,0.311561995186,0,0.0,0.0,0.0,0.384349770504,0.10269328788,0.281656482624,0.487043058383,0.10269328788,0.28773482237,40,1.0,0.0201165467467,-1.0,nan,nan,nan,nan,0.0,0.0,0.0,nan,309.136508725,748.431912847,748.931924536,748.743474842,nan,nan,nan,nan
1,341,0,0,0.0,1.0,0.647388597019,0,0.0,0.0,0.0,0.384132493563,0.102616757593,0.281515735969,0.486749251156,0.102616757593,0.42089745868,467,0.473005185182,0.365775667588,-1.0,nan,nan,nan,nan,0.0,0.0,0.0,nan,309.136508725,749.432043421,749.932087041,750.079432018,nan,nan,nan,nan
1,342,1,1,1.0,1.0,0.24727803655,0,0.0,0.0,0.0,0.38491599387,0.10346258467,0.281453409201,0.48837857854,0.10346258467,0.402076209585,367,-0.15309091083,0.477560897992,-0.0350816338538,nan,nan,nan,nan,0.0,0.0,0.0,nan,309.136508725,750.43214235,750.932181694,750.679420386,nan,nan,nan,nan
1,343,1,1,1.0,1.0,0.319133886136,0,0.0,0.0,0.0,0.384507572632,0.10357987145,0.280927701182,0.488087444082,0.10357987145,0.404600173235,153,1.0,-0.255547855702,0.0926213922694,nan,nan,nan,nan,0.0,0.0,0.0,nan,309.136508725,751.432276346,751.932309417,751.751410232,nan,nan,nan,nan
1,344,1,1,1.0,1.0,0.374976978637,0,0.0,0.0,0.0,0.384314159358,0.10348746068,0.280826698678,0.487801620039,0.10348746068,0.313796300441,65,1.0,-0.113312155659,-1.0,nan,nan,nan,nan,0.0,0.0,0.0,nan,309.136508725,752.43240806,752.93243771,752.807385039,nan,nan,nan,nan
1,345,1,1,1.0,1.0,0.382823988795,0,0.0,0.0,0.0,0.384286616052,0.103335952287,0.280950663766,0.487622568339,0.103335952287,0.358978284523,15,0.965734432428,0.145352784795,-1.0,nan,nan,nan,nan,0.0,0.0,0.0,nan,309.136508725,753.432539775,753.932567145,753.815363764,nan,nan,nan,nan
1,346,1,1,1.0,1.0,0.38266091235,0,0.0,0.0,0.0,0.384282314208,0.103183906147,0.28109840806,0.487466220355,0.103183906147,0.380153959927,376,-0.124962824795,0.478704673615,-0.132627625282,nan,nan,nan,nan,0.0,0.0,0.0,nan,309.136508725,754.432680613,754.932697434,754.815341526,nan,nan,nan,nan
1,347,1,1,1.0,1.0,0.397634493187,0,0.0,0.0,0.0,0.384277559363,0.103032536317,0.281245023047,0.48731009568,0.103032536317,0.387706464777,17,0.981069150956,0.135921910835,-1.0,nan,nan,nan,nan,0.0,0.0,0.0,nan,309.136508725,755.43368558,755.932821166,755.831320073,nan,nan,nan,nan
1,348,1,1,1.0,1.0,0.422377492301,0,0.0,0.0,0.0,0.384316614726,0.102884321476,0.281432293249,0.487200936202,0.102884321476,0.400890965946,268,0.35230222188,0.302367520405,0.645005310408,nan,nan,nan,nan,0.0,0.0,0.0,nan,309.136508725,756.432934349,756.93295174,756.855311842,nan,nan,nan,nan
1,349,1,1,1.0,1.0,0.446235835552,0,0.0,0.0,0.0,0.384427579383,0.102754727926,0.281672851457,0.487182307309,0.102754727926,0.422082607013,509,0.822386376617,0.224555004187,-1.0,nan,nan,nan,nan,0.0,0.0,0.0,nan,309.136508725,757.433064069,757.933101417,757.879299904,nan,nan,nan,nan
1,350,1,1,1.0,1.0,0.357704090886,0,0.0,0.0,0.0,0.384607254546,0.102659212072,0.281948042474,0.487266466619,0.102659212072,0.408772472913,383,-0.0968787136249,0.478131214543,-0.211081409456,nan,nan,nan,nan,0.0,0.0,0.0,nan,309.136508725,758.441579632,758.941548555,758.799283722,nan,nan,nan,nan
1,351,0,0,0.0,1.0,0.573677334934,0,0.0,0.0,0.0,0.384529274362,0.102520525163,0.282008749198,0.487049799525,0.102520525163,0.459205753791,94,1.0,-0.249439013202,-0.526745155233,nan,nan,nan,nan,0.0,0.0,0.0,nan,309.136508725,759.44164948,759.941717903,760.015326815,nan,nan,nan,nan
1,352,1,1,1.0,1.0,0.317475477234,0,0.0,0.0,0.0,0.385075945057,0.102874602727,0.28220134233,0.487950547784,0.102874602727,0.416285634351,357,-0.1717918326,0.473767524415,0.068739031695,nan,nan,nan,nan,0.0,0.0,0.0,nan,309.136508725,760.441772642,760.941807139,760.759248119,nan,nan,nan,nan
1,353,1,1,1.0,1.0,0.260986641049,0,0.0,0.0,0.0,0.384881131029,0.102790156942,0.282090974087,0.487671287971,0.102790156942,0.384046484406,460,0.415848916989,0.383334931935,-1.0,nan,nan,nan,nan,0.0,0.0,0.0,nan,309.136508725,761.450231185,761.950270243,761.711217826,nan,nan,nan,nan
1,354,1,1,1.0,1.0,0.33282567095,0,0.0,0.0,0.0,0.38452511238,0.102856389314,0.281668723066,0.487381501693,0.102856389314,0.303762596411,317,-0.077772836126,0.429938605076,0.420733606481,nan,nan,nan,nan,0.0,0.0,0.0,nan,309.136508725,762.450360334,762.950397681,762.783186004,nan,nan,nan,nan
1,355,1,1,1.0,1.0,0.348671362735,0,0.0,0.0,0.0,0.384376976444,0.102746094091,0.281630882353,0.487123070535,0.102746094091,0.314161224912,79,1.0,-0.184296021705,-0.724170777997,nan,nan,nan,nan,0.0,0.0,0.0,nan,309.136508725,763.450492904,763.950557336,763.799164266,nan,nan,nan,nan
1,356,1,1,1.0,1.0,0.348535940982,0,0.0,0.0,0.0,0.384274960405,0.102616908051,0.281658052354,0.486891868456,0.102616908051,0.343344324889,380,-0.109519508899,0.478533032186,-0.177177385375,nan,nan,nan,nan,0.0,0.0,0.0,nan,309.136508725,764.450618917,764.950660541,764.799154858,nan,nan,nan,nan
1,357,0,0,1.0,0.0,0.460354410112,0,0.0,0.0,0.0,0.384173139837,0.102488329887,0.28168480995,0.486661469724,0.102488329887,0.38585390461,486,0.631151757674,0.309603058574,-1.0,nan,nan,nan,nan,0.0,0.0,0.0,nan,309.136508725,765.450757474,765.950833309,765.911111884,nan,nan,nan,nan
1,358,1,1,1.0,1.0,0.412221197039,0,0.0,0.0,0.0,0.3843895639,0.102422936292,0.281966627608,0.486812500192,0.102422936292,0.407037182711,19,0.99625917486,0.126374530333,-1.0,nan,nan,nan,nan,0.0,0.0,0.0,nan,309.136508725,766.450882061,766.950915418,766.863103258,nan,nan,nan,nan
1,359,1,1,1.0,1.0,0.348066671751,0,0.0,0.0,0.0,0.384468407054,0.102288454799,0.282179952254,0.486756861853,0.102288454799,0.406880759634,65,1.0,-0.113312155659,-1.0,nan,nan,nan,nan,0.0,0.0,0.0,nan,309.136508725,767.451012066,767.951070226,767.799078737,nan,nan,nan,nan
1,360,1,1,1.0,1.0,0.379581009969,0,0.0,0.0,0.0,0.384365577293,0.102162147096,0.282203430197,0.486527724389,0.102162147096,0.37995629292,134,1.0,-0.304950998219,-0.095144111098,nan,nan,nan,nan,0.0,0.0,0.0,nan,309.136508725,768.459470609,768.959511378,768.839051619,nan,nan,nan,nan
