block,trial,freq_trials,correct_response,actual_response,acc,rts,probe_trials,fast_rt_trigger,slow_rt_trigger,rt_triggered,rts_runningavg,rts_runningstd,rts_runningfastthresh,rts_runningslowthresh,rts_runningstd,rts_trailingavg,trials_colorind,trials_colorrgb0,trials_colorrgb1,trials_colorrgb2,wm_respdeg,wm_respdeg_in_colorspace,wm_respcolorminusorigcolor,wm_resptexind,wm_resptexrgb0,wm_resptexrgb1,wm_resptexrgb2,wm_rts,time_blockstart,time_encarray_offset,time_encarray_onset,time_response,time_iti_offset,time_iti_onset,time_memprobe_offset,time_memprobe_onset
1,1,1,1,1.0,1.0,0.649685195182,0,nan,nan,nan,nan,nan,nan,nan,nan,nan,154,1.0,-0.251813147593,0.102138173725,nan,nan,nan,nan,0.0,0.0,0.0,nan,344.372445524,345.394722497,345.894775526,346.044407692,nan,nan,nan,nan
1,2,1,1,1.0,1.0,0.368879805319,0,nan,nan,nan,nan,nan,nan,nan,nan,nan,496,0.714833717156,0.274923884212,-1.0,nan,nan,nan,nan,0.0,0.0,0.0,nan,344.372445524,346.411564651,346.911551537,346.780444456,nan,nan,nan,nan
1,3,1,1,1.0,1.0,0.344789038878,0,nan,nan,nan,nan,nan,nan,nan,nan,nan,146,1.0,-0.278792578557,0.0248813210997,nan,nan,nan,nan,0.0,0.0,0.0,nan,344.372445524,347.411624236,347.911659589,347.756413275,nan,nan,nan,nan
1,4,1,1,1.0,1.0,0.461857332382,0,nan,nan,nan,nan,nan,nan,nan,nan,nan,423,0.135229581944,0.450080889006,-0.750039916123,nan,nan,nan,nan,0.0,0.0,0.0,nan,344.372445524,348.542549425,349.04514467,349.004406757,nan,nan,nan,nan
1,5,1,1,1.0,1.0,0.363172716927,1,nan,nan,nan,nan,nan,nan,nan,nan,nan,125,1.0,-0.311567427947,-0.187805059354,-15.4559990703,105.45599907,17.5653740703,150.0,1.0,-0.266152531622,0.0638227105866,2.47560531972,344.372445524,349.545227919,350.045264126,349.908400636,353.870737502,354.873283141,351.378772414,353.862401812
1,6,1,1,1.0,1.0,0.701332091354,0,nan,nan,nan,nan,nan,nan,nan,nan,nan,6,0.895129075663,0.186272780825,-1.0,nan,nan,nan,nan,0.0,0.0,0.0,nan,344.372445524,355.070931768,355.571000762,355.772263859,nan,nan,nan,nan
1,7,1,1,1.0,1.0,0.357179105282,0,nan,nan,nan,nan,nan,nan,nan,nan,nan,229,0.770397026975,0.135265939772,0.614681466938,nan,nan,nan,nan,0.0,0.0,0.0,nan,344.372445524,356.071071466,356.571090568,356.428250571,nan,nan,nan,nan
1,8,1,1,1.0,1.0,0.389056748245,0,nan,nan,nan,nan,nan,nan,nan,nan,nan,295,0.0860222946478,0.38372732295,0.554986075565,nan,nan,nan,nan,0.0,0.0,0.0,nan,344.372445524,357.071193203,357.571211734,357.460249951,nan,nan,nan,nan
1,9,1,1,1.0,1.0,0.308899214491,0,nan,nan,nan,nan,nan,nan,nan,nan,nan,171,1.0,-0.176011872558,0.256450910142,nan,nan,nan,nan,0.0,0.0,0.0,nan,344.372445524,358.071324063,358.571363977,358.380223277,nan,nan,nan,nan
1,10,1,1,1.0,1.0,0.308762937784,0,nan,nan,nan,nan,nan,nan,nan,nan,nan,416,0.087881616042,0.458117504295,-0.630165317015,nan,nan,nan,nan,0.0,0.0,0.0,nan,344.372445524,359.071450646,359.571476305,359.380213584,nan,nan,nan,nan
1,11,1,1,1.0,1.0,0.29263381334,0,nan,nan,nan,nan,nan,nan,nan,nan,nan,368,-0.150457169737,0.477793263397,-0.0457341785459,nan,nan,nan,nan,0.0,0.0,0.0,nan,344.372445524,360.071575804,360.571614292,360.364209617,nan,nan,nan,nan
1,12,1,1,1.0,1.0,0.664611776359,0,nan,nan,nan,nan,nan,nan,nan,nan,nan,460,0.415848916989,0.383334931935,-1.0,nan,nan,nan,nan,0.0,0.0,0.0,nan,344.372445524,361.13154157,361.630106102,361.796153346,nan,nan,nan,nan
1,13,0,0,1.0,0.0,0.377972715069,0,0.0,0.0,0.0,nan,nan,nan,nan,nan,nan,416,0.087881616042,0.458117504295,-0.630165317015,nan,nan,nan,nan,0.0,0.0,0.0,nan,344.372445524,362.13018593,362.630220711,362.508158645,nan,nan,nan,nan
1,14,1,1,1.0,1.0,0.385847116821,0,nan,nan,nan,nan,nan,nan,nan,nan,nan,493,0.689769084006,0.285700779988,-1.0,nan,nan,nan,nan,0.0,0.0,0.0,nan,344.372445524,363.130300824,363.630322491,363.516147941,nan,nan,nan,nan
1,15,1,1,1.0,1.0,0.342567841988,0,nan,nan,nan,nan,nan,nan,nan,nan,nan,202,1.0,-0.00802826454356,0.487596984314,nan,nan,nan,nan,0.0,0.0,0.0,nan,344.372445524,364.173555295,364.672121253,364.516123137,nan,nan,nan,nan
1,16,1,1,1.0,1.0,0.367887664586,0,nan,nan,nan,nan,nan,nan,nan,nan,nan,507,0.805995650865,0.232688349973,-1.0,nan,nan,nan,nan,0.0,0.0,0.0,nan,344.372445524,365.172224174,365.67224356,365.540111838,nan,nan,nan,nan
1,17,1,1,0.0,0.0,0.455758519936,0,0.0,0.0,0.0,nan,nan,nan,nan,nan,nan,271,0.320642857732,0.312811632898,0.639400143054,nan,nan,nan,nan,0.0,0.0,0.0,nan,344.372445524,366.172331085,366.672380977,366.628089605,nan,nan,nan,nan
1,18,1,1,1.0,1.0,0.40485886531,0,nan,nan,nan,nan,nan,nan,nan,nan,nan,349,-0.175656888649,0.468768509344,0.147945183432,nan,nan,nan,nan,0.0,0.0,0.0,nan,344.372445524,367.239185669,367.739172555,367.644044535,nan,nan,nan,nan
1,19,1,1,1.0,1.0,0.332785280421,0,nan,nan,nan,nan,nan,nan,nan,nan,nan,226,0.801265930663,0.120208988367,0.60458276857,nan,nan,nan,nan,0.0,0.0,0.0,nan,344.372445524,368.239262361,368.739300849,368.572047641,nan,nan,nan,nan
1,20,1,1,1.0,1.0,0.332621918991,1,nan,nan,nan,nan,nan,nan,nan,nan,nan,488,0.647907709101,0.302951493728,-1.0,93.5923298462,356.407670154,13.2826701538,507.0,0.805995650865,0.232688349973,-1.0,1.9088747534,344.372445524,369.239402629,369.73944853,369.572024548,372.989853369,373.998561396,371.064602026,372.981508555
1,21,1,1,1.0,1.0,0.757574193645,0,nan,nan,nan,nan,nan,nan,nan,nan,nan,270,0.331159066004,0.309369715406,0.641393874915,nan,nan,nan,nan,0.0,0.0,0.0,nan,344.372445524,374.198353674,374.698439774,374.955927868,nan,nan,nan,nan
1,22,1,1,1.0,1.0,0.397447747644,0,nan,nan,nan,nan,nan,nan,nan,nan,nan,396,-0.0330153705648,0.473684876347,-0.363523780775,nan,nan,nan,nan,0.0,0.0,0.0,nan,344.372445524,375.198482253,375.698516465,375.595930001,nan,nan,nan,nan
1,23,1,1,1.0,1.0,0.31725799758,0,nan,nan,nan,nan,nan,nan,nan,nan,nan,109,1.0,-0.294638327523,-0.357773695079,nan,nan,nan,nan,0.0,0.0,0.0,nan,344.372445524,376.198659014,376.698655308,376.515917012,nan,nan,nan,nan
1,24,1,1,1.0,1.0,0.221129283775,0,nan,nan,nan,nan,nan,nan,nan,nan,nan,324,-0.114799643766,0.441158325109,0.368064040095,nan,nan,nan,nan,0.0,0.0,0.0,nan,344.372445524,377.198752526,377.698776474,377.41988181,nan,nan,nan,nan
1,25,1,1,1.0,1.0,0.236996117979,0,nan,nan,nan,nan,nan,nan,nan,nan,nan,499,0.739831889234,0.263827757734,-1.0,nan,nan,nan,nan,0.0,0.0,0.0,nan,344.372445524,378.198883386,378.698910755,378.435879504,nan,nan,nan,nan
1,26,0,0,1.0,0.0,0.212836358696,0,0.0,0.0,0.0,nan,nan,nan,nan,nan,nan,367,-0.15309091083,0.477560897992,-0.0350816338538,nan,nan,nan,nan,0.0,0.0,0.0,nan,344.372445524,379.199032777,379.699060147,379.411869136,nan,nan,nan,nan
1,27,1,1,1.0,1.0,0.220723589882,0,nan,nan,nan,nan,nan,nan,nan,nan,nan,448,0.32026743599,0.409662251776,-1.0,nan,nan,nan,nan,0.0,0.0,0.0,nan,344.372445524,380.199116881,380.69915708,380.419840471,nan,nan,nan,nan
1,28,1,1,1.0,1.0,0.412569906097,0,nan,nan,nan,nan,nan,nan,nan,nan,nan,248,0.568115903494,0.223728204869,0.653295769881,nan,nan,nan,nan,0.0,0.0,0.0,nan,344.372445524,381.199250307,381.699285659,381.611820213,nan,nan,nan,nan
1,29,0,0,0.0,1.0,0.460397061426,0,nan,nan,nan,nan,nan,nan,nan,nan,nan,364,-0.160194321586,0.476704516321,-0.00341124574885,nan,nan,nan,nan,0.0,0.0,0.0,nan,344.372445524,382.199408821,382.699443318,382.659805883,nan,nan,nan,nan
1,30,1,1,1.0,1.0,0.324282808229,0,nan,nan,nan,nan,nan,nan,nan,nan,nan,188,1.0,-0.0857393506835,0.392804289229,nan,nan,nan,nan,0.0,0.0,0.0,nan,344.372445524,383.199499767,383.699538541,383.523782576,nan,nan,nan,nan
1,31,1,1,1.0,1.0,0.516123137437,0,nan,nan,nan,nan,nan,nan,nan,nan,nan,305,0.00361192545304,0.406859252708,0.500196907155,nan,nan,nan,nan,0.0,0.0,0.0,nan,344.372445524,384.199645452,384.699715871,384.71576859,nan,nan,nan,nan
1,32,1,1,1.0,1.0,0.412003702018,0,nan,nan,nan,nan,nan,nan,nan,nan,nan,225,0.81146624694,0.115131125244,0.600981946568,nan,nan,nan,nan,0.0,0.0,0.0,nan,344.372445524,385.199759206,385.699796839,385.611762908,nan,nan,nan,nan
1,33,1,1,1.0,1.0,0.331834763754,0,nan,nan,nan,nan,nan,nan,nan,nan,nan,462,0.432089675478,0.378486360879,-1.0,nan,nan,nan,nan,0.0,0.0,0.0,nan,344.372445524,386.199893203,386.699926844,386.531727966,nan,nan,nan,nan
1,34,1,1,1.0,1.0,0.355663240422,0,nan,nan,nan,nan,nan,nan,nan,nan,nan,391,-0.0591907973189,0.475916278612,-0.303718712187,nan,nan,nan,nan,0.0,0.0,0.0,nan,344.372445524,387.200059414,387.70007424,387.555722655,nan,nan,nan,nan
1,35,1,1,1.0,1.0,0.347561900504,0,nan,nan,nan,nan,nan,nan,nan,nan,nan,450,0.335949728395,0.405598329481,-1.0,nan,nan,nan,nan,0.0,0.0,0.0,nan,344.372445524,388.200161194,388.700202249,388.547723095,nan,nan,nan,nan
1,36,0,0,0.0,1.0,0.339390996844,0,nan,nan,nan,nan,nan,nan,nan,nan,nan,218,0.881467392804,0.0788246127756,0.572559633417,nan,nan,nan,nan,0.0,0.0,0.0,nan,344.372445524,389.200300607,389.700335959,389.539691604,nan,nan,nan,nan
1,37,1,1,1.0,1.0,0.323234788142,0,nan,nan,nan,nan,nan,nan,nan,nan,nan,313,-0.0530221528698,0.42279583272,0.448797959603,nan,nan,nan,nan,0.0,0.0,0.0,nan,344.372445524,390.200415787,390.700459122,390.523650575,nan,nan,nan,nan
1,38,1,1,1.0,1.0,0.379104553722,0,nan,nan,nan,nan,nan,nan,nan,nan,nan,168,1.0,-0.190790017254,0.230361799274,nan,nan,nan,nan,0.0,0.0,0.0,nan,344.372445524,391.200545506,391.700585135,391.57965006,nan,nan,nan,nan
1,39,1,1,1.0,1.0,0.346955497283,0,nan,nan,nan,nan,nan,nan,nan,nan,nan,257,0.470472903111,0.261039853404,0.655841377839,nan,nan,nan,nan,0.0,0.0,0.0,nan,344.372445524,392.200663252,392.700712003,392.547618749,nan,nan,nan,nan
1,40,1,1,1.0,1.0,0.346803825349,0,nan,nan,nan,nan,nan,nan,nan,nan,nan,53,1.0,-0.049257555853,-1.0,nan,nan,nan,nan,0.0,0.0,0.0,nan,344.372445524,393.200800098,393.700837446,393.547603924,nan,nan,nan,nan
1,41,1,1,1.0,1.0,0.378647826612,0,nan,nan,nan,nan,nan,nan,nan,nan,nan,299,0.0516645560415,0.393417669654,0.534378752182,nan,nan,nan,nan,0.0,0.0,0.0,nan,344.372445524,394.20093438,394.700941792,394.579582206,nan,nan,nan,nan
1,42,1,1,1.0,1.0,0.306520643644,0,nan,nan,nan,nan,nan,nan,nan,nan,nan,60,1.0,-0.0867837676833,-1.0,nan,nan,nan,nan,0.0,0.0,0.0,nan,344.372445524,395.201045283,395.701074078,395.507565926,nan,nan,nan,nan
1,43,1,1,1.0,1.0,0.35437801946,0,nan,nan,nan,nan,nan,nan,nan,nan,nan,122,1.0,-0.311159539646,-0.219144224573,nan,nan,nan,nan,0.0,0.0,0.0,nan,344.372445524,396.20118384,396.701235158,396.55556186,nan,nan,nan,nan
1,44,1,1,1.0,1.0,0.314259623643,0,nan,nan,nan,nan,nan,nan,nan,nan,nan,60,1.0,-0.0867837676833,-1.0,nan,nan,nan,nan,0.0,0.0,0.0,nan,344.372445524,397.201283624,397.701334372,397.515543248,nan,nan,nan,nan
1,45,1,1,1.0,1.0,0.370133380406,0,nan,nan,nan,nan,nan,nan,nan,nan,nan,219,0.871627318206,0.0840881726889,0.576959667802,nan,nan,nan,nan,0.0,0.0,0.0,nan,344.372445524,398.201425603,398.701450692,398.571558984,nan,nan,nan,nan
1,46,1,1,1.0,1.0,0.297948321793,0,nan,nan,nan,nan,nan,nan,nan,nan,nan,152,1.0,-0.259184487343,0.0830625546756,nan,nan,nan,nan,0.0,0.0,0.0,nan,344.372445524,399.20156131,399.701584403,399.499509632,nan,nan,nan,nan
1,47,1,1,1.0,1.0,0.233810435049,1,nan,nan,nan,nan,nan,nan,nan,nan,nan,291,0.122027637739,0.373441943191,0.573791926984,-110.924501745,200.924501745,-3.68487325508,286.0,0.169078956243,0.359734776014,0.594698705761,1.7255212157,344.372445524,400.201672213,400.701710131,400.435482648,403.777101399,404.776843386,402.035209296,403.768774547
1,48,1,1,1.0,1.0,0.594086273108,0,nan,nan,nan,nan,nan,nan,nan,nan,nan,54,1.0,-0.0546292063271,-1.0,nan,nan,nan,nan,0.0,0.0,0.0,nan,344.372445524,404.977274282,405.47736751,405.571360555,nan,nan,nan,nan
1,49,1,1,1.0,1.0,0.234020552132,0,nan,nan,nan,nan,nan,nan,nan,nan,nan,212,0.93926288676,0.0467731277665,0.543851001166,nan,nan,nan,nan,0.0,0.0,0.0,nan,344.372445524,405.977425099,406.477448477,406.211445651,nan,nan,nan,nan
1,50,0,0,1.0,0.0,0.201821319293,0,0.0,0.0,0.0,nan,nan,nan,nan,nan,nan,19,0.99625917486,0.126374530333,-1.0,nan,nan,nan,nan,0.0,0.0,0.0,nan,344.372445524,406.977571639,407.477599294,407.179392959,nan,nan,nan,nan
1,51,1,1,1.0,1.0,0.265705469064,0,nan,nan,nan,nan,nan,nan,nan,nan,nan,157,1.0,-0.240048375319,0.130425901556,nan,nan,nan,nan,0.0,0.0,0.0,nan,344.372445524,407.977653462,408.477701644,408.243358932,nan,nan,nan,nan
1,52,1,1,1.0,1.0,0.345537420828,0,nan,nan,nan,nan,nan,nan,nan,nan,nan,20,1.0,0.121558187834,-1.0,nan,nan,nan,nan,0.0,0.0,0.0,nan,344.372445524,408.977803424,409.477830508,409.323340845,nan,nan,nan,nan
1,53,1,1,1.0,1.0,0.473369582556,1,nan,nan,nan,nan,nan,nan,nan,nan,nan,257,0.470472903111,0.261039853404,0.655841377839,-67.319440393,157.319440393,-23.383684607,224.0,0.821619416966,0.11002478857,0.597264883709,1.93381596589,344.372445524,409.977930008,410.477952815,410.45129959,413.761721227,414.760656672,411.811457112,413.753388673
1,54,1,1,1.0,1.0,0.513304374646,0,nan,nan,nan,nan,nan,nan,nan,nan,nan,131,1.0,-0.308451667147,-0.125800503078,nan,nan,nan,nan,0.0,0.0,0.0,nan,344.372445524,414.961905799,415.461967951,415.475210174,nan,nan,nan,nan
1,55,1,1,1.0,1.0,0.321208027657,0,nan,nan,nan,nan,nan,nan,nan,nan,nan,260,0.438016636947,0.272781976488,0.654406567654,nan,nan,nan,nan,0.0,0.0,0.0,nan,344.372445524,415.962034949,416.462073151,416.283242976,nan,nan,nan,nan
1,56,1,1,1.0,1.0,0.281018642709,0,nan,nan,nan,nan,nan,nan,nan,nan,nan,336,-0.158211608236,0.456758111158,0.268135266647,nan,nan,nan,nan,0.0,0.0,0.0,nan,344.372445524,416.962160392,417.462201446,417.243179034,nan,nan,nan,nan
1,57,0,0,1.0,0.0,0.22486691596,0,0.0,0.0,0.0,nan,nan,nan,nan,nan,nan,18,0.988682696815,0.131162580546,-1.0,nan,nan,nan,nan,0.0,0.0,0.0,nan,344.372445524,417.96230009,418.462333731,418.187167006,nan,nan,nan,nan
1,58,1,1,1.0,1.0,0.304705710616,0,nan,nan,nan,nan,nan,nan,nan,nan,nan,465,0.456588679398,0.37096152752,-1.0,nan,nan,nan,nan,0.0,0.0,0.0,nan,344.372445524,418.962411563,419.462472003,419.267117274,nan,nan,nan,nan
1,59,1,1,1.0,1.0,0.368583873846,0,nan,nan,nan,nan,nan,nan,nan,nan,nan,334,-0.152796554809,0.454467054946,0.285576400052,nan,nan,nan,nan,0.0,0.0,0.0,nan,344.372445524,419.962544988,420.462557818,420.331128862,nan,nan,nan,nan
1,60,1,1,1.0,1.0,0.312453243881,0,nan,nan,nan,nan,nan,nan,nan,nan,nan,289,0.140592130943,0.368073254824,0.582505265782,nan,nan,nan,nan,0.0,0.0,0.0,nan,344.372445524,420.962672712,421.462685257,421.275125956,nan,nan,nan,nan
1,61,1,1,1.0,1.0,0.280309034511,0,nan,nan,nan,nan,nan,nan,nan,nan,nan,467,0.473005185182,0.365775667588,-1.0,nan,nan,nan,nan,0.0,0.0,0.0,nan,344.372445524,421.962799296,422.462838639,422.24310833,nan,nan,nan,nan
1,62,1,1,1.0,1.0,0.384156486951,0,nan,nan,nan,nan,nan,nan,nan,nan,nan,191,1.0,-0.0691479807067,0.414571651978,nan,nan,nan,nan,0.0,0.0,0.0,nan,344.372445524,422.962923028,423.462939279,423.347079515,nan,nan,nan,nan
1,63,1,1,1.0,1.0,0.3440044499,0,nan,nan,nan,nan,nan,nan,nan,nan,nan,118,1.0,-0.308588151016,-0.261285249573,nan,nan,nan,nan,0.0,0.0,0.0,nan,344.372445524,423.963049042,424.463068428,424.307053491,nan,nan,nan,nan
1,64,1,1,1.0,1.0,0.423884583171,0,nan,nan,nan,nan,nan,nan,nan,nan,nan,455,0.375608248681,0.394875365091,-1.0,nan,nan,nan,nan,0.0,0.0,0.0,nan,344.372445524,424.963179331,425.463215539,425.387063914,nan,nan,nan,nan
1,65,1,1,1.0,1.0,0.31172995083,0,nan,nan,nan,nan,nan,nan,nan,nan,nan,71,1.0,-0.144504067012,-0.877980773838,nan,nan,nan,nan,0.0,0.0,0.0,nan,344.372445524,425.963310761,426.463326157,426.275040712,nan,nan,nan,nan
1,66,1,1,1.0,1.0,0.223617047537,0,nan,nan,nan,nan,nan,nan,nan,nan,nan,354,-0.174470673547,0.472100788149,0.0988677247603,nan,nan,nan,nan,0.0,0.0,0.0,nan,344.372445524,426.963432783,427.463459297,427.187049831,nan,nan,nan,nan
1,67,0,0,1.0,0.0,0.263429817744,0,0.0,0.0,0.0,nan,nan,nan,nan,nan,nan,5,0.88714030954,0.190659852496,-1.0,nan,nan,nan,nan,0.0,0.0,0.0,nan,344.372445524,427.963572481,428.463608974,428.227002299,nan,nan,nan,nan
1,68,1,1,1.0,1.0,0.455310631078,0,nan,nan,nan,nan,nan,nan,nan,nan,nan,97,1.0,-0.260369742894,-0.491718830742,nan,nan,nan,nan,0.0,0.0,0.0,nan,344.372445524,428.963666278,429.463706477,429.418976909,nan,nan,nan,nan
1,69,1,1,1.0,1.0,0.407137366943,0,nan,nan,nan,nan,nan,nan,nan,nan,nan,463,0.440238315199,0.376011795327,-1.0,nan,nan,nan,nan,0.0,0.0,0.0,nan,344.372445524,429.963807402,430.463832776,430.370944769,nan,nan,nan,nan
1,70,0,0,0.0,1.0,0.622883148491,0,nan,nan,nan,nan,nan,nan,nan,nan,nan,240,0.654373017221,0.188015059697,0.642463954019,nan,nan,nan,nan,0.0,0.0,0.0,nan,344.372445524,430.964043178,431.463999558,431.586926326,nan,nan,nan,nan
1,71,1,1,1.0,1.0,0.446855199989,0,nan,nan,nan,nan,nan,nan,nan,nan,nan,50,1.0,-0.033148730948,-1.0,nan,nan,nan,nan,0.0,0.0,0.0,nan,344.372445524,431.964070262,432.464083091,432.410925462,nan,nan,nan,nan
1,72,1,1,1.0,1.0,0.390728561673,0,nan,nan,nan,nan,nan,nan,nan,nan,nan,222,0.841778467246,0.0997291618919,0.589484691865,nan,nan,nan,nan,0.0,0.0,0.0,nan,344.372445524,432.964174893,433.464212241,433.354903454,nan,nan,nan,nan
1,73,1,1,1.0,1.0,0.374567221384,0,nan,nan,nan,nan,nan,nan,nan,nan,nan,399,-0.0164460389312,0.472031251936,-0.400274523968,nan,nan,nan,nan,0.0,0.0,0.0,nan,344.372445524,433.964302902,434.464337969,434.338870123,nan,nan,nan,nan
1,74,1,1,1.0,1.0,0.326410492882,0,nan,nan,nan,nan,nan,nan,nan,nan,nan,442,0.273907262724,0.421095538958,-1.0,nan,nan,nan,nan,0.0,0.0,0.0,nan,344.372445524,434.964433191,435.464473675,435.290843684,nan,nan,nan,nan
1,75,1,1,1.0,1.0,0.350269474555,0,nan,nan,nan,nan,nan,nan,nan,nan,nan,203,1.0,-0.00249325098487,0.493674673203,nan,nan,nan,nan,0.0,0.0,0.0,nan,344.372445524,435.964577166,436.464627628,436.31484664,nan,nan,nan,nan
1,76,1,1,1.0,1.0,0.302060287911,0,nan,nan,nan,nan,nan,nan,nan,nan,nan,56,1.0,-0.0653675053377,-1.0,nan,nan,nan,nan,0.0,0.0,0.0,nan,344.372445524,436.964773598,437.464725417,437.266833886,nan,nan,nan,nan
1,77,1,1,1.0,1.0,0.349996065721,0,nan,nan,nan,nan,nan,nan,nan,nan,nan,432,0.199227897075,0.437687328843,-1.0,nan,nan,nan,nan,0.0,0.0,0.0,nan,344.372445524,437.964817218,438.464852856,438.314813284,nan,nan,nan,nan
1,78,1,1,1.0,1.0,0.373833094724,0,nan,nan,nan,nan,nan,nan,nan,nan,nan,249,0.557275547736,0.228026269286,0.654084877906,nan,nan,nan,nan,0.0,0.0,0.0,nan,344.372445524,438.964959767,439.464975447,439.338792862,nan,nan,nan,nan
1,79,1,1,1.0,1.0,0.453697547782,0,nan,nan,nan,nan,nan,nan,nan,nan,nan,143,1.0,-0.287057525782,-0.00469998909502,nan,nan,nan,nan,0.0,0.0,0.0,nan,344.372445524,439.965068104,440.465104882,440.418765652,nan,nan,nan,nan
1,80,1,1,1.0,1.0,0.397555514239,0,nan,nan,nan,nan,nan,nan,nan,nan,nan,232,0.739158239773,0.150046616059,0.623712016981,nan,nan,nan,nan,0.0,0.0,0.0,nan,344.372445524,440.965208943,441.465232891,441.362764457,nan,nan,nan,nan
1,81,1,1,1.0,1.0,0.421389977448,0,0.0,0.0,0.0,0.37062333505,0.108650873276,0.261972461774,0.479274208326,0.108650873276,0.42421434649,418,0.101175887384,0.455961754156,-0.661679309199,nan,nan,nan,nan,0.0,0.0,0.0,nan,344.372445524,441.965334956,442.465356338,442.386724933,nan,nan,nan,nan
1,82,1,1,1.0,1.0,0.469223690219,0,0.0,0.0,0.0,0.371250083722,0.10812352419,0.263126559532,0.479373607912,0.10812352419,0.429389727302,119,1.0,-0.309446327048,-0.250710895617,nan,nan,nan,nan,0.0,0.0,0.0,nan,344.372445524,442.965486343,443.465485202,443.434710033,nan,nan,nan,nan
1,83,1,1,1.0,1.0,0.421104594134,0,0.0,0.0,0.0,0.372444883801,0.107998881196,0.264446002605,0.480443764997,0.107998881196,0.4372394206,21,1.0,0.116713997928,-1.0,nan,nan,nan,nan,0.0,0.0,0.0,nan,344.372445524,443.965600382,444.465619768,444.386704976,nan,nan,nan,nan
1,84,1,1,1.0,1.0,0.468969952781,0,0.0,0.0,0.0,0.373031145371,0.107477508094,0.265553637277,0.480508653466,0.107477508094,0.453099412378,261,0.427225806086,0.276617811781,0.653674462902,nan,nan,nan,nan,0.0,0.0,0.0,nan,344.372445524,444.965718983,445.465756045,445.434688936,nan,nan,nan,nan
1,85,1,1,1.0,1.0,0.468826263677,0,0.0,0.0,0.0,0.374173274031,0.107341361588,0.266831912443,0.481514635619,0.107341361588,0.452966936864,319,-0.0891891826932,0.433308674125,0.406137099325,nan,nan,nan,nan,0.0,0.0,0.0,nan,344.372445524,445.965849557,446.465874646,446.434675821,nan,nan,nan,nan
1,86,1,1,1.0,1.0,0.468654064927,0,0.0,0.0,0.0,0.375286838615,0.107195033383,0.268091805232,0.482481871998,0.107195033383,0.468816760462,42,1.0,0.00954878589686,-1.0,nan,nan,nan,nan,0.0,0.0,0.0,nan,344.372445524,446.965984979,447.466004936,447.434639044,nan,nan,nan,nan
1,87,1,1,1.0,1.0,0.388520194218,0,0.0,0.0,0.0,0.376372504037,0.107039004185,0.269333499852,0.483411508222,0.107039004185,0.442000174274,161,1.0,-0.223158351501,0.167490545043,nan,nan,nan,nan,0.0,0.0,0.0,nan,344.372445524,447.966107001,448.466126957,448.354627195,nan,nan,nan,nan
1,88,1,1,1.0,1.0,0.396369222086,0,0.0,0.0,0.0,0.37651213266,0.1064299367,0.27008219596,0.48294206936,0.1064299367,0.417847827077,44,1.0,-0.00106984144607,-1.0,nan,nan,nan,nan,0.0,0.0,0.0,nan,344.372445524,448.966237005,449.466257247,449.362606227,nan,nan,nan,nan
1,89,0,0,0.0,1.0,0.508216519374,0,0.0,0.0,0.0,0.376737781403,0.10584442149,0.270893359913,0.482582202894,0.10584442149,0.431035311893,399,-0.0164460389312,0.472031251936,-0.400274523968,nan,nan,nan,nan,0.0,0.0,0.0,nan,344.372445524,449.966380124,450.466428876,450.474596644,nan,nan,nan,nan
1,90,1,1,1.0,1.0,0.388110508211,0,0.0,0.0,0.0,0.378215070594,0.1061565562,0.272058514394,0.484371626794,0.1061565562,0.43089874989,84,1.0,-0.20765784414,-0.652191087791,nan,nan,nan,nan,0.0,0.0,0.0,nan,344.372445524,450.966487892,451.466507278,451.3545984,nan,nan,nan,nan
1,91,1,1,1.0,1.0,0.379964693449,0,0.0,0.0,0.0,0.378325019901,0.105570245989,0.272754773912,0.48389526589,0.105570245989,0.425430573678,246,0.589768841079,0.215019897151,0.651339528662,nan,nan,nan,nan,0.0,0.0,0.0,nan,344.372445524,451.966612194,452.466631866,452.346576888,nan,nan,nan,nan
1,92,0,0,0.0,1.0,0.41177277267,0,0.0,0.0,0.0,0.378343038292,0.104988726471,0.27335431182,0.483331764763,0.104988726471,0.39328265811,142,1.0,-0.289568116499,-0.0146273521697,nan,nan,nan,nan,0.0,0.0,0.0,nan,344.372445524,452.966768998,453.466794657,453.37854177,nan,nan,nan,nan
1,93,1,1,1.0,1.0,0.347669097129,0,0.0,0.0,0.0,0.37870640497,0.104474095724,0.274232309246,0.483180500694,0.104474095724,0.379802187749,89,1.0,-0.229484098413,-0.587370487375,nan,nan,nan,nan,0.0,0.0,0.0,nan,344.372445524,453.966870493,454.466895581,454.31453959,nan,nan,nan,nan
1,94,1,1,1.0,1.0,0.443511002231,0,0.0,0.0,0.0,0.378372670477,0.103960183165,0.274412487312,0.482332853641,0.103960183165,0.400984290677,27,1.0,0.0870912575778,-1.0,nan,nan,nan,nan,0.0,0.0,0.0,nan,344.372445524,454.967001923,455.467039271,455.410512925,nan,nan,nan,nan
1,95,1,1,1.0,1.0,0.379352588672,0,0.0,0.0,0.0,0.379065631453,0.103621436341,0.275444195112,0.482687067794,0.103621436341,0.390177562678,112,1.0,-0.300501516081,-0.325324861792,nan,nan,nan,nan,0.0,0.0,0.0,nan,344.372445524,455.967142476,456.467155876,456.346495064,nan,nan,nan,nan
1,96,1,1,1.0,1.0,0.283223019447,0,0.0,0.0,0.0,0.379068652055,0.103074621717,0.275994030338,0.482143273772,0.103074621717,0.368695536784,8,0.91102658764,0.177400941622,-1.0,nan,nan,nan,nan,0.0,0.0,0.0,nan,344.372445524,456.967264213,457.467275617,457.250487232,nan,nan,nan,nan
1,97,1,1,1.0,1.0,0.363092604559,0,0.0,0.0,0.0,0.378070260049,0.102997095922,0.275073164126,0.481067355971,0.102997095922,0.341889404226,176,1.0,-0.150429669724,0.298675466069,nan,nan,nan,nan,0.0,0.0,0.0,nan,344.372445524,457.967363141,458.4674022,458.330455746,nan,nan,nan,nan
1,98,1,1,1.0,1.0,0.314904515166,0,0.0,0.0,0.0,0.377915851229,0.102475975925,0.275439875304,0.480391827154,0.102475975925,0.320406713057,511,0.838703193994,0.216284169582,-1.0,nan,nan,nan,nan,0.0,0.0,0.0,nan,344.372445524,458.967526217,459.467531065,459.282430733,nan,nan,nan,nan
1,99,1,1,1.0,1.0,0.282769428566,0,0.0,0.0,0.0,0.377272878412,0.102148276637,0.275124601775,0.479421155049,0.102148276637,0.320255516097,63,1.0,-0.102744642793,-1.0,nan,nan,nan,nan,0.0,0.0,0.0,nan,344.372445524,459.967636836,460.467659358,460.250406264,nan,nan,nan,nan
1,100,1,1,1.0,1.0,0.266631466802,0,0.0,0.0,0.0,0.376318298111,0.102069455064,0.274248843047,0.478387753175,0.102069455064,0.288101803511,222,0.841778467246,0.0997291618919,0.589484691865,nan,nan,nan,nan,0.0,0.0,0.0,nan,344.372445524,460.967760568,461.467792214,461.234392035,nan,nan,nan,nan
1,101,1,1,1.0,1.0,0.242469996214,0,1.0,0.0,0.0,0.375221429798,0.102142551417,0.27307887838,0.477363981215,0.102142551417,0.263956963861,51,1.0,-0.0385160204876,-1.0,nan,nan,nan,nan,0.0,0.0,0.0,nan,344.372445524,461.967885156,462.467910815,462.210355152,nan,nan,nan,nan
1,102,1,1,1.0,1.0,0.354361483827,1,0.0,0.0,1.0,0.373907059168,0.102481997431,0.271425061737,0.476389056599,0.102481997431,0.287820982281,425,0.149162615564,0.447529597292,-0.791715667876,175.827015524,274.172984476,-24.6551405239,390.0,-0.0641960347588,0.476284203309,-0.291947553613,1.16701942775,344.372445524,462.968018011,463.46805764,463.322379495,465.97668356,466.972992683,464.793209711,465.968353001
1,103,1,1,1.0,1.0,0.433384327684,0,0.0,0.0,0.0,0.373715435881,0.101996579319,0.271718856562,0.4757120152,0.101996579319,0.343405269242,297,0.0686262056446,0.388646276542,0.544904663634,nan,nan,nan,nan,0.0,0.0,0.0,nan,344.372445524,467.176920305,467.676921445,467.610304633,nan,nan,nan,nan
1,104,1,1,1.0,1.0,0.248573940713,0,0.0,0.0,0.0,0.37429474551,0.101668728835,0.272626016675,0.475963474344,0.101668728835,0.345439917408,86,1.0,-0.21659106269,-0.625617802914,nan,nan,nan,nan,0.0,0.0,0.0,nan,344.372445524,468.193721405,468.693727392,468.442295345,nan,nan,nan,nan
1,105,1,1,1.0,1.0,0.280466693919,0,0.0,0.0,0.0,0.373085891617,0.101919858044,0.271166033574,0.475005749661,0.101919858044,0.320808320772,426,0.156193047225,0.446210853967,-0.81485970128,nan,nan,nan,nan,0.0,0.0,0.0,nan,344.372445524,469.193806079,469.693838295,469.474272773,nan,nan,nan,nan
1,106,0,0,1.0,0.0,0.280301907565,0,0.0,0.0,0.0,0.37220380402,0.101831466451,0.270372337569,0.474035270472,0.101831466451,0.269780847399,56,1.0,-0.0653675053377,-1.0,nan,nan,nan,nan,0.0,0.0,0.0,nan,344.372445524,470.193957751,470.693989967,470.474259658,nan,nan,nan,nan
1,107,1,1,1.0,1.0,0.304149199743,0,0.0,0.0,0.0,0.371336804997,0.101738625227,0.269598179771,0.473075430224,0.101738625227,0.288305933742,340,-0.166837174664,0.460980112934,0.232376404312,nan,nan,nan,nan,0.0,0.0,0.0,nan,344.372445524,471.194069794,471.694112844,471.498218994,nan,nan,nan,nan
1,108,1,1,1.0,1.0,0.456012256909,0,0.0,0.0,0.0,0.370708883453,0.101468251986,0.269240631467,0.472177135439,0.101468251986,0.346821121406,258,0.459642287315,0.26499291187,0.655490062901,nan,nan,nan,nan,0.0,0.0,0.0,nan,344.372445524,472.194196948,472.694218616,472.650209205,nan,nan,nan,nan
1,109,1,1,1.0,1.0,0.375860140193,0,0.0,0.0,0.0,0.371498729503,0.1013273275,0.270171402003,0.472826057004,0.1013273275,0.378673865615,481,0.589289488337,0.325611856148,-1.0,nan,nan,nan,nan,0.0,0.0,0.0,nan,344.372445524,473.194328663,473.694364585,473.570188803,nan,nan,nan,nan
1,110,1,1,1.0,1.0,0.359691102523,0,0.0,0.0,0.0,0.371538742445,0.100862309434,0.270676433011,0.472401051879,0.100862309434,0.397187833209,32,1.0,0.061735800531,-1.0,nan,nan,nan,nan,0.0,0.0,0.0,nan,344.372445524,474.194476629,474.694467791,474.554167731,nan,nan,nan,nan
1,111,1,1,1.0,1.0,0.423629135359,0,0.0,0.0,0.0,0.371431036628,0.100409094396,0.271021942231,0.471840131024,0.100409094396,0.386393459359,210,0.958022500947,0.0359304984579,0.533421856807,nan,nan,nan,nan,0.0,0.0,0.0,nan,344.372445524,475.194562444,475.694599221,475.618191579,nan,nan,nan,nan
1,112,1,1,1.0,1.0,0.431436254643,0,0.0,0.0,0.0,0.37190128977,0.100077383632,0.271823906138,0.471978673401,0.100077383632,0.404918830842,24,1.0,0.102019060141,-1.0,nan,nan,nan,nan,0.0,0.0,0.0,nan,344.372445524,476.194701856,476.694726659,476.626138111,nan,nan,nan,nan
1,113,0,0,0.0,1.0,0.487304023467,0,0.0,0.0,0.0,0.372432851956,0.099786886611,0.272645965345,0.472219738567,0.099786886611,0.447456471156,179,1.0,-0.13461441766,0.323204131591,nan,nan,nan,nan,0.0,0.0,0.0,nan,344.372445524,477.194822168,477.69488774,477.682126191,nan,nan,nan,nan
1,114,1,1,1.0,1.0,0.271136582363,0,0.0,0.0,0.0,0.373449410996,0.0999251914672,0.273524219529,0.473374602463,0.0999251914672,0.396625620158,394,-0.0437090198531,0.474655926729,-0.339401417396,nan,nan,nan,nan,0.0,0.0,0.0,nan,344.372445524,478.194961295,478.694986384,478.466097877,nan,nan,nan,nan
1,115,1,1,1.0,1.0,0.407018195838,0,0.0,0.0,0.0,0.372551930043,0.0999423540264,0.272609576017,0.472494284069,0.0999423540264,0.388486267223,114,1.0,-0.303747463913,-0.303859371662,nan,nan,nan,nan,0.0,0.0,0.0,nan,344.372445524,479.195071058,479.695109261,479.602089254,nan,nan,nan,nan
1,116,1,1,1.0,1.0,0.310848713387,0,0.0,0.0,0.0,0.372851636702,0.0995583134492,0.273293323253,0.472409950151,0.0995583134492,0.329667830529,429,0.177531820842,0.442080780324,-0.901885199234,nan,nan,nan,nan,0.0,0.0,0.0,nan,344.372445524,480.195213037,480.695256372,480.50606175,nan,nan,nan,nan
1,117,1,1,1.0,1.0,0.309339975938,0,0.0,0.0,0.0,0.372317128742,0.0992938370914,0.273023291651,0.471610965834,0.0992938370914,0.342402295054,45,1.0,-0.0063957592436,-1.0,nan,nan,nan,nan,0.0,0.0,0.0,nan,344.372445524,481.228698346,481.728702622,481.538038322,nan,nan,nan,nan
1,118,1,1,1.0,1.0,0.309244752862,0,0.0,0.0,0.0,0.371778862479,0.0990384147641,0.272740447715,0.470817277243,0.0990384147641,0.309811147396,291,0.122027637739,0.373441943191,0.573791926984,nan,nan,nan,nan,0.0,0.0,0.0,nan,344.372445524,482.228787867,482.728852869,482.53803262,nan,nan,nan,nan
1,119,1,1,1.0,1.0,0.365089429542,0,0.0,0.0,0.0,0.371248912398,0.0987843252503,0.272464587147,0.470033237648,0.0987843252503,0.327891386114,95,1.0,-0.253175017597,-0.514975443931,nan,nan,nan,nan,0.0,0.0,0.0,nan,344.372445524,483.228936403,483.728976602,483.594025832,nan,nan,nan,nan
1,120,1,1,1.0,1.0,0.500913738273,0,0.0,0.0,0.0,0.371197152038,0.0983699962968,0.272827155741,0.469567148334,0.0983699962968,0.391749306892,411,0.0555201669072,0.463022710015,-0.557054760163,nan,nan,nan,nan,0.0,0.0,0.0,nan,344.372445524,484.229070684,484.729129414,484.729984422,nan,nan,nan,nan
1,121,1,1,1.0,1.0,0.388800730463,0,0.0,0.0,0.0,0.37227812359,0.098666452303,0.273611671287,0.470944575893,0.098666452303,0.418267966093,241,0.64365311028,0.192605941253,0.644254782112,nan,nan,nan,nan,0.0,0.0,0.0,nan,344.372445524,485.229181587,485.729226347,485.617982317,nan,nan,nan,nan
1,122,1,1,1.0,1.0,0.420655565336,0,0.0,0.0,0.0,0.37241467406,0.0982692791244,0.274145394935,0.470683953184,0.0982692791244,0.436790011358,64,1.0,-0.108036866323,-1.0,nan,nan,nan,nan,0.0,0.0,0.0,nan,344.372445524,486.229303894,486.729329553,486.649959459,nan,nan,nan,nan
1,123,1,1,1.0,1.0,0.476475723553,0,0.0,0.0,0.0,0.372810091201,0.0979623173575,0.274847773844,0.470772408559,0.0979623173575,0.428644006451,156,1.0,-0.244060613314,0.121041471254,nan,nan,nan,nan,0.0,0.0,0.0,nan,344.372445524,487.229459557,487.729470961,487.705935281,nan,nan,nan,nan
1,124,1,1,1.0,1.0,0.484328172635,0,0.0,0.0,0.0,0.37365290122,0.0980064001058,0.275646501115,0.471659301326,0.0980064001058,0.460486487175,308,-0.0186828559465,0.413097475488,0.481682330771,nan,nan,nan,nan,0.0,0.0,0.0,nan,344.372445524,488.229593268,488.729606953,488.713921441,nan,nan,nan,nan
1,125,1,1,1.0,1.0,0.388184349053,0,0.0,0.0,0.0,0.374545443732,0.0981110517971,0.276434391935,0.472656495529,0.0981110517971,0.449662748414,264,0.394966959701,0.287889713878,0.650717615019,nan,nan,nan,nan,0.0,0.0,0.0,nan,344.372445524,489.229725268,489.729724413,489.617909617,nan,nan,nan,nan
1,126,1,1,1.0,1.0,0.412036487833,0,0.0,0.0,0.0,0.374654554974,0.0977253729054,0.276929182069,0.47237992788,0.0977253729054,0.428183003174,346,-0.174317561957,0.466431294057,0.176670174816,nan,nan,nan,nan,0.0,0.0,0.0,nan,344.372445524,490.229838452,490.729843584,490.64187494,nan,nan,nan,nan
1,127,1,1,1.0,1.0,0.50023891218,0,0.0,0.0,0.0,0.374951236981,0.0973933027115,0.27755793427,0.472344539693,0.0973933027115,0.433486583022,483,0.606025706087,0.319314454546,-1.0,nan,nan,nan,nan,0.0,0.0,0.0,nan,344.372445524,491.229938522,491.730022055,491.730177434,nan,nan,nan,nan
1,128,0,0,0.0,1.0,0.547735068947,0,0.0,0.0,0.0,0.375937754109,0.0976390905793,0.278298663529,0.473576844688,0.0976390905793,0.48667015632,32,1.0,0.061735800531,-1.0,nan,nan,nan,nan,0.0,0.0,0.0,nan,344.372445524,492.230101597,492.730146358,492.777836666,nan,nan,nan,nan
1,129,1,1,1.0,1.0,0.411616253667,0,0.0,0.0,0.0,0.377279920631,0.098426071636,0.278853848995,0.475705992267,0.098426071636,0.486530078265,422,0.128328379107,0.451313674078,-0.730894888444,nan,nan,nan,nan,0.0,0.0,0.0,nan,344.372445524,493.230216492,493.730235308,493.641832746,nan,nan,nan,nan
1,130,1,1,1.0,1.0,0.323474270757,0,0.0,0.0,0.0,0.377546093755,0.0980900696007,0.279456024154,0.475636163356,0.0980900696007,0.427608531124,37,1.0,0.0358565504353,-1.0,nan,nan,nan,nan,0.0,0.0,0.0,nan,344.372445524,494.230335378,494.730360181,494.553809648,nan,nan,nan,nan
1,131,1,1,1.0,1.0,0.275332652032,0,0.0,0.0,0.0,0.377130156655,0.0978262053088,0.279303951346,0.474956361964,0.0978262053088,0.336807725485,508,0.814199817736,0.228638933499,-1.0,nan,nan,nan,nan,0.0,0.0,0.0,nan,344.372445524,495.230468519,495.7305033,495.505801171,nan,nan,nan,nan
1,132,0,0,0.0,1.0,0.403159682173,0,0.0,0.0,0.0,0.376353076467,0.097854045581,0.278499030886,0.474207122048,0.097854045581,0.333988868321,296,0.0772713571413,0.386205321608,0.550001308524,nan,nan,nan,nan,0.0,0.0,0.0,nan,344.372445524,496.230611638,496.730642998,496.63377132,nan,nan,nan,nan
1,133,1,1,1.0,1.0,0.251034334768,0,0.0,0.0,0.0,0.376556156813,0.0975103885376,0.279045768276,0.474066545351,0.0975103885376,0.309842222991,426,0.156193047225,0.446210853967,-0.81485970128,nan,nan,nan,nan,0.0,0.0,0.0,nan,344.372445524,497.230729098,497.730759318,497.481763433,nan,nan,nan,nan
1,134,1,1,1.0,1.0,0.328862619586,0,0.0,0.0,0.0,0.375612383715,0.0977463988489,0.277865984866,0.473358782564,0.0977463988489,0.327685545509,480,0.580928072941,0.32870764083,-1.0,nan,nan,nan,nan,0.0,0.0,0.0,nan,344.372445524,498.280875524,498.780872388,498.609738144,nan,nan,nan,nan
1,135,1,1,1.0,1.0,0.264764931053,0,0.0,0.0,0.0,0.375263504879,0.0974640733403,0.277799431538,0.472727578219,0.0974640733403,0.281553961802,414,0.0747837862165,0.460162189034,-0.600089175003,nan,nan,nan,nan,0.0,0.0,0.0,nan,344.372445524,499.28096647,499.781007525,499.545731402,nan,nan,nan,nan
1,136,1,1,1.0,1.0,0.272591151297,0,0.0,0.0,0.0,0.374444996924,0.097563593703,0.276881403221,0.472008590627,0.097563593703,0.288739567312,364,-0.160194321586,0.476704516321,-0.00341124574885,nan,nan,nan,nan,0.0,0.0,0.0,nan,344.372445524,500.281113581,500.781133823,500.553704732,nan,nan,nan,nan
1,137,1,1,1.0,1.0,0.280448162463,0,1.0,0.0,0.0,0.373696071589,0.0975929543751,0.276103117214,0.471289025964,0.0975929543751,0.272601414938,470,0.497741612616,0.357740777197,-1.0,nan,nan,nan,nan,0.0,0.0,0.0,nan,344.372445524,501.281251853,501.781284354,501.561700016,nan,nan,nan,nan
1,138,0,0,0.0,1.0,0.45628081914,1,0.0,0.0,1.0,0.373015429916,0.0975595655324,0.275455864384,0.470574995449,0.0975595655324,0.3364400443,256,0.481312611765,0.257047908656,0.656065722404,-76.5347919052,166.534791905,-13.4652080948,237.0,0.686387300223,0.174031846447,0.636349816437,1.31721950928,344.372445524,502.281386419,502.781411508,502.737667238,505.448403566,506.455911617,504.114889576,505.440056472
1,139,1,1,1.0,1.0,0.520684132352,0,0.0,0.0,0.0,0.373618802302,0.0974616578005,0.276157144502,0.471080460103,0.0974616578005,0.419137704652,420,0.1146601879,0.45369410126,-0.695047497311,nan,nan,nan,nan,0.0,0.0,0.0,nan,344.372445524,506.656918127,507.156991682,507.177602259,nan,nan,nan,nan
1,140,1,1,1.0,1.0,0.256547271274,0,0.0,0.0,0.0,0.374676826259,0.0979025916922,0.276774234567,0.472579417951,0.0979025916922,0.411170740922,9,0.918933560847,0.172916688009,-1.0,nan,nan,nan,nan,0.0,0.0,0.0,nan,344.372445524,507.657031026,508.157066378,507.913578297,nan,nan,nan,nan
1,141,1,1,1.0,1.0,0.296359756961,0,0.0,0.0,0.0,0.373833043724,0.0980582349952,0.275774808728,0.471891278719,0.0980582349952,0.357863720196,148,1.0,-0.272695592461,0.0444264621409,nan,nan,nan,nan,0.0,0.0,0.0,nan,344.372445524,508.657159035,509.157194387,508.953518792,nan,nan,nan,nan
1,142,1,1,1.0,1.0,0.256243357435,0,1.0,0.0,0.0,0.373283587789,0.0979259376045,0.275357650185,0.471209525394,0.0979259376045,0.269716795223,6,0.895129075663,0.186272780825,-1.0,nan,nan,nan,nan,0.0,0.0,0.0,nan,344.372445524,509.657285048,510.157335795,509.913528405,nan,nan,nan,nan
1,143,1,1,1.0,1.0,0.280098632444,1,0.0,0.0,1.0,0.372459360815,0.0980701076072,0.274389253208,0.470529468422,0.0980701076072,0.277567248947,387,-0.0787219327085,0.477231755363,-0.256974454483,92.489552922,357.510447078,85.401072078,508.0,0.814199817736,0.228638933499,-1.0,2.41726119071,344.372445524,510.657425886,511.157453826,510.937524518,514.907931365,515.9093617,512.474291874,514.899601091
1,144,1,1,1.0,1.0,0.533290302381,0,0.0,0.0,0.0,0.371813481595,0.098029208689,0.273784272906,0.469842690284,0.098029208689,0.35654409742,95,1.0,-0.253175017597,-0.514975443931,nan,nan,nan,nan,0.0,0.0,0.0,nan,344.372445524,516.108122494,516.60819719,516.641412796,nan,nan,nan,nan
1,145,0,0,1.0,0.0,0.261150176171,0,0.0,0.0,0.0,0.372934848406,0.0986043043361,0.27433054407,0.471539152743,0.0986043043361,0.358179703665,367,-0.15309091083,0.477560897992,-0.0350816338538,nan,nan,nan,nan,0.0,0.0,0.0,nan,344.372445524,517.10827217,517.608307523,517.369422346,nan,nan,nan,nan
1,146,1,1,1.0,1.0,0.293019550852,0,0.0,0.0,0.0,0.372163919632,0.0986982201902,0.273465699442,0.470862139823,0.0986982201902,0.362486676468,117,1.0,-0.307587969795,-0.271886539361,nan,nan,nan,nan,0.0,0.0,0.0,nan,344.372445524,518.108377371,518.608405311,518.401396922,nan,nan,nan,nan
1,147,1,1,1.0,1.0,0.356925938278,0,0.0,0.0,0.0,0.371621834915,0.0985759923508,0.273045842564,0.470197827266,0.0985759923508,0.303698555101,330,-0.139766326074,0.449518327743,0.319540245599,nan,nan,nan,nan,0.0,0.0,0.0,nan,344.372445524,519.108488275,519.608574944,519.465414213,nan,nan,nan,nan
1,148,0,0,0.0,1.0,0.468699680641,0,0.0,0.0,0.0,0.371521862829,0.0982475540302,0.273274308799,0.469769416859,0.0982475540302,0.372881723257,10,0.926811495151,0.168400576072,-1.0,nan,nan,nan,nan,0.0,0.0,0.0,nan,344.372445524,520.108657052,520.608685562,520.577356733,nan,nan,nan,nan
1,149,1,1,1.0,1.0,0.292577364016,0,0.0,0.0,0.0,0.372178469706,0.0982381708707,0.273940298835,0.470416640577,0.0982381708707,0.372734327645,280,0.228089347314,0.342018854333,0.61587222022,nan,nan,nan,nan,0.0,0.0,0.0,nan,344.372445524,521.108746003,521.608794184,521.401323367,nan,nan,nan,nan
1,150,1,1,1.0,1.0,0.476443222258,0,0.0,0.0,0.0,0.371644234097,0.0981234350109,0.273520799086,0.469767669108,0.0981234350109,0.412573422305,332,-0.146647089803,0.45205423783,0.302714191958,nan,nan,nan,nan,0.0,0.0,0.0,nan,344.372445524,522.108885986,522.608902807,522.585329208,nan,nan,nan,nan
1,151,1,1,1.0,1.0,0.395924469456,0,0.0,0.0,0.0,0.372342894018,0.0981669555848,0.274175938433,0.470509849603,0.0981669555848,0.388315018577,136,1.0,-0.301914900238,-0.074841205769,nan,nan,nan,nan,0.0,0.0,0.0,nan,344.372445524,523.117349685,523.617376484,523.513274155,nan,nan,nan,nan
1,152,1,1,1.0,1.0,0.347801952623,0,0.0,0.0,0.0,0.372499063392,0.0978600529104,0.274639010482,0.470359116302,0.0978600529104,0.406723214779,424,0.142174562463,0.448819569244,-0.770229420881,nan,nan,nan,nan,0.0,0.0,0.0,nan,344.372445524,524.117490239,524.617518463,524.465292191,nan,nan,nan,nan
1,153,1,1,1.0,1.0,0.331673969049,0,0.0,0.0,0.0,0.3723365824,0.0975580467482,0.274778535652,0.469894629148,0.0975580467482,0.358466797043,55,1.0,-0.0599996532909,-1.0,nan,nan,nan,nan,0.0,0.0,0.0,nan,344.372445524,525.11761283,525.617653884,525.449286799,nan,nan,nan,nan
1,154,1,1,1.0,1.0,0.371484458912,0,0.0,0.0,0.0,0.372070813685,0.0972938967597,0.274776916926,0.469364710445,0.0972938967597,0.350320126861,141,1.0,-0.291952736687,-0.024586852943,nan,nan,nan,nan,0.0,0.0,0.0,nan,344.372445524,526.117738843,526.617759086,526.489223302,nan,nan,nan,nan
1,155,0,0,0.0,1.0,0.443358189892,0,0.0,0.0,0.0,0.372067006187,0.0969775044414,0.275089501746,0.469044510628,0.0969775044414,0.382172205951,49,1.0,-0.027785429985,-1.0,nan,nan,nan,nan,0.0,0.0,0.0,nan,344.372445524,527.117880252,527.617913038,527.561238442,nan,nan,nan,nan
1,156,1,1,1.0,1.0,0.363263662905,0,0.0,0.0,0.0,0.372526949308,0.0968325339758,0.275694415332,0.469359483283,0.0968325339758,0.392702103903,154,1.0,-0.251813147593,0.102138173725,nan,nan,nan,nan,0.0,0.0,0.0,nan,344.372445524,528.117966922,528.618012252,528.481230585,nan,nan,nan,nan
1,157,1,1,1.0,1.0,0.315053050872,0,0.0,0.0,0.0,0.372467569267,0.0965245053922,0.275943063874,0.468992074659,0.0965245053922,0.373891634556,239,0.665069831863,0.183388857662,0.640549267122,nan,nan,nan,nan,0.0,0.0,0.0,nan,344.372445524,529.118132279,529.618140261,529.43318533,nan,nan,nan,nan
1,158,1,1,1.0,1.0,0.322938286699,0,0.0,0.0,0.0,0.372101871697,0.0963249652674,0.27577690643,0.468426836965,0.0963249652674,0.333751666825,152,1.0,-0.259184487343,0.0830625546756,nan,nan,nan,nan,0.0,0.0,0.0,nan,344.372445524,530.118235199,530.61826827,530.441173485,nan,nan,nan,nan
1,159,1,1,1.0,1.0,0.338808256667,0,0.0,0.0,0.0,0.371790709767,0.0960987787187,0.275691931048,0.467889488486,0.0960987787187,0.325599864746,428,0.170378320166,0.443486568519,-0.86866140055,nan,nan,nan,nan,0.0,0.0,0.0,nan,344.372445524,531.118355225,531.618411389,531.457163482,nan,nan,nan,nan
1,160,1,1,1.0,1.0,0.370638573542,0,0.0,0.0,0.0,0.371583272955,0.0958315835758,0.275751689379,0.467414856531,0.0958315835758,0.344128372303,488,0.647907709101,0.302951493728,-1.0,nan,nan,nan,nan,0.0,0.0,0.0,nan,344.372445524,532.118494638,532.618520582,532.489133211,nan,nan,nan,nan
1,161,1,1,1.0,1.0,0.354504602496,0,0.0,0.0,0.0,0.371577368584,0.0955316694927,0.276045699091,0.467109038076,0.0955316694927,0.354650477568,252,0.524721685615,0.240693665738,0.655694012224,nan,nan,nan,nan,0.0,0.0,0.0,nan,344.372445524,533.118605256,533.618648876,533.473109859,nan,nan,nan,nan
1,162,1,1,1.0,1.0,0.362364179455,0,0.0,0.0,0.0,0.371471326558,0.0952439707774,0.276227355781,0.466715297336,0.0952439707774,0.362502451831,24,1.0,0.102019060141,-1.0,nan,nan,nan,nan,0.0,0.0,0.0,nan,344.372445524,534.118736401,534.618787718,534.48110058,nan,nan,nan,nan
1,163,1,1,1.0,1.0,0.394206470344,0,0.0,0.0,0.0,0.371415109601,0.0949522322154,0.276462877385,0.466367341816,0.0949522322154,0.370358417432,461,0.423959648591,0.380927367285,-1.0,nan,nan,nan,nan,0.0,0.0,0.0,nan,344.372445524,535.118873533,535.618941956,535.513080003,nan,nan,nan,nan
1,164,1,1,1.0,1.0,0.362055418547,0,0.0,0.0,0.0,0.3715549339,0.0946772475623,0.276877686337,0.466232181462,0.0946772475623,0.372875356115,304,0.0113092810281,0.404708921832,0.506160370659,nan,nan,nan,nan,0.0,0.0,0.0,nan,344.372445524,536.119021499,536.619030337,536.481076917,nan,nan,nan,nan
1,165,1,1,1.0,1.0,0.321929040365,0,0.0,0.0,0.0,0.371497010026,0.0943910530562,0.277105956969,0.465888063082,0.0943910530562,0.359396976419,7,0.9030914636,0.181853060355,-1.0,nan,nan,nan,nan,0.0,0.0,0.0,nan,344.372445524,537.119135823,537.619158631,537.441064863,nan,nan,nan,nan
1,166,1,1,1.0,1.0,0.321805022657,0,0.0,0.0,0.0,0.371196598088,0.0941831909317,0.277013407157,0.46537978902,0.0941831909317,0.335263160523,88,1.0,-0.225257592204,-0.599932847766,nan,nan,nan,nan,0.0,0.0,0.0,nan,344.372445524,538.119241024,538.61928778,538.441046047,nan,nan,nan,nan
1,167,1,1,1.0,1.0,0.345642907079,0,0.0,0.0,0.0,0.370899058477,0.0939768284596,0.276922230018,0.464875886937,0.0939768284596,0.329792323367,147,1.0,-0.275801134503,0.0346720467303,nan,nan,nan,nan,0.0,0.0,0.0,nan,344.372445524,539.119389845,539.619411798,539.465032752,nan,nan,nan,nan
1,168,1,1,1.0,1.0,0.393578399904,0,0.0,0.0,0.0,0.370747824038,0.0937152971389,0.277032526899,0.464463121177,0.0937152971389,0.353675443213,378,-0.117450136118,0.478670924818,-0.154810124165,nan,nan,nan,nan,0.0,0.0,0.0,nan,344.372445524,540.119515858,540.619547504,540.513094258,nan,nan,nan,nan
1,169,1,1,1.0,1.0,0.377366882283,0,0.0,0.0,0.0,0.370883720323,0.0934524687527,0.27743125157,0.464336189075,0.0934524687527,0.372196063089,218,0.881467392804,0.0788246127756,0.572559633417,nan,nan,nan,nan,0.0,0.0,0.0,nan,344.372445524,541.119625906,541.619668956,541.496992788,nan,nan,nan,nan
1,170,1,1,1.0,1.0,0.298061505891,0,0.0,0.0,0.0,0.370922082228,0.0931768986456,0.277745183582,0.464098980873,0.0931768986456,0.356335596026,285,0.178734351563,0.356878681702,0.598527012995,nan,nan,nan,nan,0.0,0.0,0.0,nan,344.372445524,542.150893725,542.653134308,542.44895523,nan,nan,nan,nan
1,171,1,1,1.0,1.0,0.367741409689,0,0.0,0.0,0.0,0.370493490602,0.0930693718722,0.27742411873,0.463562862474,0.0930693718722,0.347723265955,433,0.206536295144,0.436163724167,-1.0,nan,nan,nan,nan,0.0,0.0,0.0,nan,344.372445524,543.153220693,543.653264313,543.520962103,nan,nan,nan,nan
1,172,1,1,1.0,1.0,0.335539895575,0,0.0,0.0,0.0,0.370477396562,0.0927970774386,0.277680319123,0.463274474,0.0927970774386,0.333780937052,111,1.0,-0.298677811705,-0.336106236365,nan,nan,nan,nan,0.0,0.0,0.0,nan,344.372445524,544.153391181,544.653416555,544.488931077,nan,nan,nan,nan
1,173,1,1,1.0,1.0,0.343388353474,0,0.0,0.0,0.0,0.370274271556,0.0925650437144,0.277709227842,0.46283931527,0.0925650437144,0.348889886246,473,0.522594813828,0.349396171415,-1.0,nan,nan,nan,nan,0.0,0.0,0.0,nan,344.372445524,545.153519476,545.653544849,545.496907829,nan,nan,nan,nan
1,174,1,1,1.0,1.0,0.455277559813,0,0.0,0.0,0.0,0.370118861625,0.0923196286383,0.277799232987,0.462438490263,0.0923196286383,0.378068602954,324,-0.114799643766,0.441158325109,0.368064040095,nan,nan,nan,nan,0.0,0.0,0.0,nan,344.372445524,546.153624107,546.653646344,546.608901666,nan,nan,nan,nan
1,175,1,1,1.0,1.0,0.415133790579,0,0.0,0.0,0.0,0.370608279431,0.0922787636563,0.278329515774,0.462887043087,0.0922787636563,0.404599901289,404,0.0124894593597,0.468746268022,-0.463349101315,nan,nan,nan,nan,0.0,0.0,0.0,nan,344.372445524,547.153751831,547.65378091,547.568885621,nan,nan,nan,nan
1,176,1,1,1.0,1.0,0.422942334786,0,0.0,0.0,0.0,0.370862710923,0.0920759193295,0.278786791593,0.462938630253,0.0920759193295,0.431117895059,185,1.0,-0.102214474652,0.370299946716,nan,nan,nan,nan,0.0,0.0,0.0,nan,344.372445524,548.15391063,548.653908064,548.576852965,nan,nan,nan,nan
1,177,1,1,1.0,1.0,0.470839054324,0,0.0,0.0,0.0,0.371158617877,0.0918973762969,0.27926124158,0.463055994174,0.0918973762969,0.436305059896,41,1.0,0.0148395037771,-1.0,nan,nan,nan,nan,0.0,0.0,0.0,nan,344.372445524,549.154006708,549.654049187,549.624845762,nan,nan,nan,nan
1,178,1,1,1.0,1.0,0.478701482061,0,0.0,0.0,0.0,0.371721784184,0.0919414742705,0.279780309914,0.463663258455,0.0919414742705,0.45749429039,471,0.506014005179,0.354993781952,-1.0,nan,nan,nan,nan,0.0,0.0,0.0,nan,344.372445524,550.154132436,550.654188315,550.632833918,nan,nan,nan,nan
1,179,1,1,1.0,1.0,0.478513317648,0,0.0,1.0,0.0,0.372322793723,0.0920308601225,0.2802919336,0.464353653846,0.0920308601225,0.476017951344,31,1.0,0.0668515730764,-1.0,nan,nan,nan,nan,0.0,0.0,0.0,nan,344.372445524,551.154290095,551.6542747,551.632803413,nan,nan,nan,nan
1,180,1,1,1.0,1.0,0.414393391926,1,0.0,0.0,1.0,0.372916036873,0.0921141000866,0.280801936787,0.46503013696,0.0921141000866,0.457202730545,447,0.312467642152,0.411646472288,-1.0,178.430645195,271.569354805,-42.7275201953,386.0,-0.0833946583454,0.477495592553,-0.245424736514,1.1006093109,344.372445524,552.154398147,552.654446329,552.568791539,555.104750927,556.109869288,553.987916984,555.096417803
1,181,1,1,1.0,1.0,0.471487366594,0,0.0,0.0,0.0,0.373146466624,0.0919095915738,0.28123687505,0.465056058197,0.0919095915738,0.45479802539,370,-0.144805996584,0.478178727438,-0.0671803333712,nan,nan,nan,nan,0.0,0.0,0.0,nan,344.372445524,556.313236408,556.813270049,556.784723775,nan,nan,nan,nan
1,182,1,1,1.0,1.0,0.327327652834,0,0.0,0.0,0.0,0.373689786513,0.0919447541976,0.281745032315,0.465634540711,0.0919447541976,0.404402803785,64,1.0,-0.108036866323,-1.0,nan,nan,nan,nan,0.0,0.0,0.0,nan,344.372445524,557.313369833,557.813435121,557.640697486,nan,nan,nan,nan
1,183,1,1,1.0,1.0,0.327178831678,0,0.0,0.0,0.0,0.373435049515,0.0917558359229,0.281679213592,0.465190885438,0.0917558359229,0.375331283702,499,0.739831889234,0.263827757734,-1.0,nan,nan,nan,nan,0.0,0.0,0.0,nan,344.372445524,558.313502689,558.813543458,558.640681521,nan,nan,nan,nan
1,184,1,1,1.0,1.0,0.439034111798,0,0.0,0.0,0.0,0.373182283297,0.0915683097518,0.281613973545,0.464750593049,0.0915683097518,0.364513532103,188,1.0,-0.0857393506835,0.392804289229,nan,nan,nan,nan,0.0,0.0,0.0,nan,344.372445524,559.313625851,559.81366377,559.752659963,nan,nan,nan,nan
1,185,0,0,0.0,1.0,0.598867363296,0,0.0,0.0,0.0,0.373540173669,0.0914473929543,0.282092780715,0.464987566624,0.0914473929543,0.455026768924,65,1.0,-0.113312155659,-1.0,nan,nan,nan,nan,0.0,0.0,0.0,nan,344.372445524,560.313775528,560.813828841,560.912642891,nan,nan,nan,nan
1,186,1,1,1.0,1.0,0.262727336958,0,0.0,0.0,0.0,0.374758158478,0.0926843239338,0.282073834544,0.467442482412,0.0926843239338,0.433542937351,496,0.714833717156,0.274923884212,-1.0,nan,nan,nan,nan,0.0,0.0,0.0,nan,344.372445524,561.313883865,561.813908098,561.576611202,nan,nan,nan,nan
1,187,1,1,1.0,1.0,0.406585417688,0,0.0,0.0,0.0,0.374155842233,0.0927971672102,0.281358675023,0.466953009444,0.0927971672102,0.422726705981,166,1.0,-0.20036215083,0.21267421211,nan,nan,nan,nan,0.0,0.0,0.0,nan,344.372445524,562.314017291,562.814039528,562.720602708,nan,nan,nan,nan
1,188,1,1,1.0,1.0,0.286491950974,0,0.0,0.0,0.0,0.374329262423,0.0925789301192,0.281750332304,0.466908192542,0.0925789301192,0.31860156854,321,-0.0999433513493,0.43654647086,0.391174984052,nan,nan,nan,nan,0.0,0.0,0.0,nan,344.372445524,563.314138457,563.814183788,563.600630408,nan,nan,nan,nan
1,189,1,1,1.0,1.0,0.278310783673,0,0.0,0.0,0.0,0.373862042681,0.092553172079,0.281308870602,0.46641521476,0.092553172079,0.323796050778,57,1.0,-0.0707313323512,-1.0,nan,nan,nan,nan,0.0,0.0,0.0,nan,344.372445524,564.314273879,564.814314648,564.592584663,nan,nan,nan,nan
1,190,1,1,1.0,1.0,0.350146597251,0,0.0,0.0,0.0,0.373356480464,0.0925679099328,0.280788570531,0.465924390397,0.0925679099328,0.304983110633,231,0.749609680972,0.145151270079,0.620821461523,nan,nan,nan,nan,0.0,0.0,0.0,nan,344.372445524,565.314407875,565.814462328,565.664554472,nan,nan,nan,nan
1,191,1,1,1.0,1.0,0.278017133009,0,0.0,0.0,0.0,0.373234323184,0.0923392616458,0.280895061538,0.46557358483,0.0923392616458,0.302158171311,281,0.218083397074,0.345068392493,0.612644422055,nan,nan,nan,nan,0.0,0.0,0.0,nan,344.372445524,566.314531322,566.814572946,566.592548455,nan,nan,nan,nan
1,192,1,1,1.0,1.0,0.27787401434,0,0.0,0.0,0.0,0.372735803864,0.0923532173885,0.280382586475,0.465089021252,0.0923532173885,0.302012581533,234,0.71814774995,0.15974031316,0.62913160129,nan,nan,nan,nan,0.0,0.0,0.0,nan,344.372445524,567.314658761,567.814702095,567.592532775,nan,nan,nan,nan
1,193,1,1,1.0,1.0,0.301719596144,0,0.0,0.0,0.0,0.372241732044,0.0923651379523,0.279876594091,0.464606869996,0.0923651379523,0.285870247831,39,1.0,0.0253789930673,-1.0,nan,nan,nan,nan,0.0,0.0,0.0,nan,344.372445524,568.314786199,568.814828679,568.616505796,nan,nan,nan,nan
1,194,0,0,1.0,0.0,0.285546281841,0,0.0,0.0,0.0,0.371876332376,0.0922645665095,0.279611765866,0.464140898885,0.0922645665095,0.288379964108,218,0.881467392804,0.0788246127756,0.572559633417,nan,nan,nan,nan,0.0,0.0,0.0,nan,344.372445524,569.314935306,569.814965526,569.600481587,nan,nan,nan,nan
1,195,1,1,1.0,1.0,0.237445432227,0,0.0,0.0,0.0,0.371431332115,0.0922338817739,0.279197450341,0.463665213889,0.0922338817739,0.274903770071,448,0.32026743599,0.409662251776,-1.0,nan,nan,nan,nan,0.0,0.0,0.0,nan,344.372445524,570.315039651,570.815084412,570.552485084,nan,nan,nan,nan
1,196,1,1,1.0,1.0,0.221284661908,0,0.0,0.0,0.0,0.370744224936,0.0924935317054,0.278250693231,0.463237756642,0.0924935317054,0.248092125325,261,0.427225806086,0.276617811781,0.653674462902,nan,nan,nan,nan,0.0,0.0,0.0,nan,344.372445524,571.315166235,571.81519617,571.536450897,nan,nan,nan,nan
1,197,1,1,1.0,1.0,0.301123456098,0,1.0,0.0,0.0,0.369981676145,0.0928697685153,0.27711190763,0.462851444661,0.0928697685153,0.253284516744,359,-0.169222339917,0.474741883077,0.0483828026834,nan,nan,nan,nan,0.0,0.0,0.0,nan,344.372445524,572.315290253,572.81531306,572.616413709,nan,nan,nan,nan
1,198,1,1,1.0,1.0,0.308992441744,1,0.0,0.0,1.0,0.369632142033,0.0927629201086,0.276869221925,0.462395062142,0.0927629201086,0.277133519916,225,0.81146624694,0.115131125244,0.600981946568,-30.4016272981,120.401627298,-37.8014977019,171.0,1.0,-0.176011872558,0.256450910142,1.40879692137,344.372445524,573.315407143,573.815439929,573.624399584,576.565797156,577.575136676,575.140613382,576.557464602
1,199,1,1,1.0,1.0,0.34602066176,0,0.0,0.0,0.0,0.369325880921,0.0926281692718,0.276697711649,0.461954050193,0.0926281692718,0.318712186534,174,1.0,-0.160790688716,0.281981279739,nan,nan,nan,nan,0.0,0.0,0.0,nan,344.372445524,577.774308581,578.274357332,578.120329243,nan,nan,nan,nan
1,200,1,1,1.0,1.0,0.345863287337,0,0.0,0.0,0.0,0.369208769267,0.0924098364581,0.276798932809,0.461618605725,0.0924098364581,0.333625463614,472,0.51429864939,0.352212277195,-1.0,nan,nan,nan,nan,0.0,0.0,0.0,nan,344.372445524,578.774451415,579.274471086,579.120314702,nan,nan,nan,nan
1,201,1,1,1.0,1.0,0.40170454327,0,0.0,0.0,0.0,0.369092041857,0.0921932286949,0.276898813162,0.461285270552,0.0921932286949,0.364529497456,281,0.218083397074,0.345068392493,0.612644422055,nan,nan,nan,nan,0.0,0.0,0.0,nan,344.372445524,579.774574577,580.274601662,580.17627912,nan,nan,nan,nan
1,202,1,1,1.0,1.0,0.345589878969,0,0.0,0.0,0.0,0.369254293108,0.0919922278587,0.277262065249,0.461246520967,0.0919922278587,0.364385903192,454,0.367627362238,0.397084843583,-1.0,nan,nan,nan,nan,0.0,0.0,0.0,nan,344.372445524,580.774685765,581.274753619,581.120275644,nan,nan,nan,nan
1,203,1,1,1.0,1.0,0.33743693633,0,0.0,0.0,0.0,0.369137142543,0.091779271357,0.277357871186,0.4609164139,0.091779271357,0.361577119523,117,1.0,-0.307587969795,-0.271886539361,nan,nan,nan,nan,0.0,0.0,0.0,nan,344.372445524,581.774838008,582.27487564,582.112274944,nan,nan,nan,nan
1,204,1,1,1.0,1.0,0.313297988847,0,0.0,0.0,0.0,0.368980983892,0.091579832795,0.277401151097,0.460560816687,0.091579832795,0.332108268049,479,0.572572153349,0.331768222426,-1.0,nan,nan,nan,nan,0.0,0.0,0.0,nan,344.372445524,582.774953472,583.274992816,583.088251461,nan,nan,nan,nan
1,205,0,0,0.0,1.0,0.500200423412,0,0.0,0.0,0.0,0.368708028033,0.0914378378048,0.277270190229,0.460145865838,0.0914378378048,0.383645116196,23,1.0,0.106943944166,-1.0,nan,nan,nan,nan,0.0,0.0,0.0,nan,344.372445524,583.775109991,584.275153611,584.275310414,nan,nan,nan,nan
1,206,1,1,1.0,1.0,0.281012086198,0,0.0,0.0,0.0,0.369349454352,0.091673467624,0.277675986728,0.461022921976,0.091673467624,0.364836832819,505,0.789537956352,0.240683140511,-1.0,nan,nan,nan,nan,0.0,0.0,0.0,nan,344.372445524,584.775195235,585.275236289,585.056207321,nan,nan,nan,nan
1,207,1,1,1.0,1.0,0.248867876362,0,0.0,0.0,0.0,0.368920632177,0.0916565631251,0.277264069052,0.460577195302,0.0916565631251,0.343360128657,455,0.375608248681,0.394875365091,-1.0,nan,nan,nan,nan,0.0,0.0,0.0,nan,344.372445524,585.775323529,586.275395374,586.024191406,nan,nan,nan,nan
1,208,1,1,1.0,1.0,0.344700373244,0,0.0,0.0,0.0,0.368340667173,0.0918130242396,0.276527642933,0.460153691413,0.0918130242396,0.291526778601,154,1.0,-0.251813147593,0.102138173725,nan,nan,nan,nan,0.0,0.0,0.0,nan,344.372445524,586.775476057,587.275493733,587.12017643,nan,nan,nan,nan
1,209,1,1,1.0,1.0,0.296575861052,0,0.0,0.0,0.0,0.368227011914,0.0916066497156,0.276620362198,0.459833661629,0.0916066497156,0.296714703552,209,0.967301840512,0.0304835193525,0.52804999659,nan,nan,nan,nan,0.0,0.0,0.0,nan,344.372445524,587.775605491,588.275645405,588.072181352,nan,nan,nan,nan
1,210,0,0,0.0,1.0,0.480388976168,0,0.0,0.0,0.0,0.367884183441,0.0915208869398,0.276363296501,0.45940507038,0.0915208869398,0.373888403488,58,1.0,-0.0760896648475,-1.0,nan,nan,nan,nan,0.0,0.0,0.0,nan,344.372445524,588.77574975,589.275771988,589.256138727,nan,nan,nan,nan
1,211,1,1,1.0,1.0,0.264016834553,0,0.0,0.0,0.0,0.368419920549,0.0916306316884,0.276789288861,0.460050552237,0.0916306316884,0.346993890591,186,1.0,-0.0967386681424,0.377881386018,nan,nan,nan,nan,0.0,0.0,0.0,nan,344.372445524,589.776123228,590.275879185,590.040140063,nan,nan,nan,nan
1,212,1,1,1.0,1.0,0.264112057164,0,0.0,0.0,0.0,0.367925119193,0.0916940256297,0.276231093564,0.459619144823,0.0916940256297,0.336172622629,493,0.689769084006,0.285700779988,-1.0,nan,nan,nan,nan,0.0,0.0,0.0,nan,344.372445524,590.775981535,591.276016602,591.040093592,nan,nan,nan,nan
1,213,1,1,1.0,1.0,0.271965361666,0,1.0,0.0,0.0,0.367435434939,0.0917536416727,0.275681793266,0.459189076611,0.0917536416727,0.266698084461,432,0.199227897075,0.437687328843,-1.0,nan,nan,nan,nan,0.0,0.0,0.0,nan,344.372445524,591.776111254,592.276135773,592.048076616,nan,nan,nan,nan
1,214,1,1,1.0,1.0,0.231833566446,1,0.0,0.0,1.0,0.366987218632,0.0917703467815,0.275216871851,0.458757565414,0.0917703467815,0.255970328425,199,1.0,-0.0246761787097,0.468786302982,-25.6315976504,115.63159765,-24.2902773496,164.0,1.0,-0.209685835145,0.194761549991,0.992081693374,344.372445524,592.776235557,593.276267488,593.008069124,595.618223225,596.622400193,594.609763517,595.609885824
1,215,0,0,1.0,0.0,0.405546521302,0,0.0,0.0,0.0,0.36635565951,0.0920184819151,0.274337177595,0.458374141425,0.0920184819151,0.303115149805,511,0.838703193994,0.216284169582,-1.0,nan,nan,nan,nan,0.0,0.0,0.0,nan,344.372445524,596.818434026,597.318467953,597.223980547,nan,nan,nan,nan
1,216,1,1,1.0,1.0,0.227395448834,0,0.0,0.0,0.0,0.366537942588,0.0918429548589,0.274694987729,0.458380897447,0.0918429548589,0.288258512194,351,-0.175686286722,0.4701852659,0.128489978773,nan,nan,nan,nan,0.0,0.0,0.0,nan,344.372445524,597.868572755,598.368600979,598.095968204,nan,nan,nan,nan
1,217,1,1,1.0,1.0,0.131278994493,0,0.0,0.0,0.0,0.365893764376,0.0921156579214,0.273778106455,0.458009422297,0.0921156579214,0.254740321543,507,0.805995650865,0.232688349973,-1.0,nan,nan,nan,nan,0.0,0.0,0.0,nan,344.372445524,598.868688219,599.368739822,598.999967214,nan,nan,nan,nan
1,218,1,1,1.0,1.0,0.315136299469,0,1.0,0.0,0.0,0.364812590321,0.0932667258978,0.271545864424,0.458079316219,0.0932667258978,0.224603580932,161,1.0,-0.223158351501,0.167490545043,nan,nan,nan,nan,0.0,0.0,0.0,nan,344.372445524,599.868803114,600.368827062,600.183939413,nan,nan,nan,nan
1,219,1,1,1.0,1.0,0.340004527476,1,0.0,0.0,1.0,0.364584717427,0.0931130920013,0.271471625426,0.457697809429,0.0931130920013,0.262139940479,415,0.0813077335083,0.459153678902,-0.614968023274,-178.458781356,268.458781356,-23.3380936437,382.0,-0.1011887567,0.478291136399,-0.199732273247,0.808728440665,344.372445524,600.883895052,601.385630443,601.22389958,603.535900373,604.547061383,602.710797909,603.527571525
1,220,1,1,1.0,1.0,0.455438069999,0,0.0,0.0,0.0,0.364472479117,0.0929150412138,0.271557437903,0.457387520331,0.0929150412138,0.370192965648,61,1.0,-0.0921163965413,-1.0,nan,nan,nan,nan,0.0,0.0,0.0,nan,344.372445524,604.744418355,605.244456843,605.199856425,nan,nan,nan,nan
1,221,0,0,0.0,1.0,0.527240526862,0,0.0,0.0,0.0,0.364885959076,0.0929053525178,0.271980606558,0.457791311594,0.0929053525178,0.440894374779,473,0.522594813828,0.349396171415,-1.0,nan,nan,nan,nan,0.0,0.0,0.0,nan,344.372445524,605.744572593,606.244620774,606.27181312,nan,nan,nan,nan
1,222,1,1,1.0,1.0,0.33511880599,0,0.0,0.0,0.0,0.365620595129,0.0933331678781,0.272287427251,0.458953763007,0.0933331678781,0.43926580095,121,1.0,-0.310732805591,-0.229640808446,nan,nan,nan,nan,0.0,0.0,0.0,nan,344.372445524,606.744681215,607.244717993,607.079800021,nan,nan,nan,nan
1,223,1,1,1.0,1.0,0.39898271393,0,0.0,0.0,0.0,0.365483199683,0.093145118259,0.272338081424,0.458628317942,0.093145118259,0.420447348927,34,1.0,0.0514419701458,-1.0,nan,nan,nan,nan,0.0,0.0,0.0,nan,344.372445524,607.744807798,608.244833172,608.143790512,nan,nan,nan,nan
1,224,0,0,0.0,1.0,0.486813940573,0,0.0,0.0,0.0,0.36563342172,0.0929629870752,0.272670434644,0.458596408795,0.0929629870752,0.406971820164,212,0.93926288676,0.0467731277665,0.543851001166,nan,nan,nan,nan,0.0,0.0,0.0,nan,344.372445524,608.744953483,609.244993112,609.231767424,nan,nan,nan,nan
1,225,1,1,1.0,1.0,0.294725290965,0,0.0,0.0,0.0,0.366174406179,0.0931063918316,0.273068014347,0.45928079801,0.0931063918316,0.393507315156,509,0.822386376617,0.224555004187,-1.0,nan,nan,nan,nan,0.0,0.0,0.0,nan,344.372445524,609.745054123,610.245120266,610.039779414,nan,nan,nan,nan
1,226,1,1,1.0,1.0,0.29456364084,0,0.0,0.0,0.0,0.365856854556,0.0930207511392,0.272836103416,0.458877605695,0.0930207511392,0.35870095746,196,1.0,-0.0413610816081,0.449130757868,nan,nan,nan,nan,0.0,0.0,0.0,nan,344.372445524,610.745193821,611.245242573,611.039757462,nan,nan,nan,nan
1,227,1,1,1.0,1.0,0.286412123591,0,0.0,0.0,0.0,0.365541397858,0.0929352654247,0.272606132433,0.458476663282,0.0929352654247,0.291900351799,258,0.459642287315,0.26499291187,0.655490062901,nan,nan,nan,nan,0.0,0.0,0.0,nan,344.372445524,611.745325251,612.245347204,612.031737375,nan,nan,nan,nan
1,228,1,1,1.0,1.0,0.358292697463,0,0.0,0.0,0.0,0.365192810746,0.0928782923729,0.272314518373,0.458071103119,0.0928782923729,0.313089487298,472,0.51429864939,0.352212277195,-1.0,nan,nan,nan,nan,0.0,0.0,0.0,nan,344.372445524,612.745429882,613.245472647,613.103722579,nan,nan,nan,nan
1,229,1,1,1.0,1.0,0.430127370637,0,0.0,0.0,0.0,0.365162547092,0.092675509781,0.272487037311,0.457838056873,0.092675509781,0.35827739723,363,-0.162287729338,0.476365729747,0.00704812682028,nan,nan,nan,nan,0.0,0.0,0.0,nan,344.372445524,613.745573286,614.245612345,614.175700657,nan,nan,nan,nan
1,230,1,1,1.0,1.0,0.325899882708,0,0.0,0.0,0.0,0.365446236277,0.0925721015884,0.272874134689,0.458018337866,0.0925721015884,0.371439983603,27,1.0,0.0870912575778,-1.0,nan,nan,nan,nan,0.0,0.0,0.0,nan,344.372445524,614.745764302,615.245727809,615.071664184,nan,nan,nan,nan
1,231,1,1,1.0,1.0,0.389839341398,0,0.0,0.0,0.0,0.36527429561,0.0924072775869,0.272867018023,0.457681573197,0.0924072775869,0.381955531581,271,0.320642857732,0.312811632898,0.639400143054,nan,nan,nan,nan,0.0,0.0,0.0,nan,344.372445524,615.745823602,616.245850401,616.135662944,nan,nan,nan,nan
1,232,1,1,1.0,1.0,0.341697723139,0,0.0,0.0,0.0,0.365380637799,0.0922211479045,0.273159489895,0.457601785704,0.0922211479045,0.352478982415,360,-0.167709501072,0.475188317955,0.0381258551808,nan,nan,nan,nan,0.0,0.0,0.0,nan,344.372445524,616.745962445,617.246003499,617.087660168,nan,nan,nan,nan
1,233,1,1,1.0,1.0,0.333502301481,0,0.0,0.0,0.0,0.365278556271,0.0920352591442,0.273243297126,0.457313815415,0.0920352591442,0.355013122006,59,1.0,-0.0814409933332,-1.0,nan,nan,nan,nan,0.0,0.0,0.0,nan,344.372445524,617.746108415,618.246130652,618.079610716,nan,nan,nan,nan
1,234,1,1,1.0,1.0,0.357353585307,0,0.0,0.0,0.0,0.365142177495,0.091861035829,0.273281141666,0.457003213324,0.091861035829,0.344184536642,490,0.664660387652,0.296157848571,-1.0,nan,nan,nan,nan,0.0,0.0,0.0,nan,344.372445524,618.7462407,619.246246687,619.103594285,nan,nan,nan,nan
1,235,1,1,1.0,1.0,0.341239571106,0,0.0,0.0,0.0,0.365108892913,0.0916659494252,0.273442943487,0.456774842338,0.0916659494252,0.344031819298,359,-0.169222339917,0.474741883077,0.0483828026834,nan,nan,nan,nan,0.0,0.0,0.0,nan,344.372445524,619.746336778,620.246368424,620.087576349,nan,nan,nan,nan
1,236,1,1,1.0,1.0,0.405088938773,0,0.0,0.0,0.0,0.36500732133,0.0914839027938,0.273523418537,0.456491224124,0.0914839027938,0.367894031728,75,1.0,-0.164714458691,-0.791355921409,nan,nan,nan,nan,0.0,0.0,0.0,nan,344.372445524,620.746478472,621.246491586,621.151567411,nan,nan,nan,nan
1,237,1,1,1.0,1.0,0.364922932349,0,0.0,0.0,0.0,0.365177158693,0.0913269939683,0.273850164724,0.456504152661,0.0913269939683,0.370417147409,225,0.81146624694,0.115131125244,0.600981946568,nan,nan,nan,nan,0.0,0.0,0.0,nan,344.372445524,621.746622161,622.246618455,622.111545093,nan,nan,nan,nan
1,238,1,1,1.0,1.0,0.348818611819,0,0.0,0.0,0.0,0.365176086008,0.0911341188036,0.274041967204,0.456310204811,0.0911341188036,0.372943494314,68,1.0,-0.129018143495,-0.972903198114,nan,nan,nan,nan,0.0,0.0,0.0,nan,344.372445524,622.746725651,623.24678039,623.095544263,nan,nan,nan,nan
1,239,1,1,1.0,1.0,0.340670230798,0,0.0,0.0,0.0,0.365107357124,0.0909486138582,0.274158743266,0.456055970983,0.0909486138582,0.351470591656,146,1.0,-0.278792578557,0.0248813210997,nan,nan,nan,nan,0.0,0.0,0.0,nan,344.372445524,623.746847103,624.246876753,624.087517334,nan,nan,nan,nan
1,240,1,1,1.0,1.0,0.340525401291,0,0.0,0.0,0.0,0.365005109734,0.0907718520514,0.274233257682,0.455776961785,0.0907718520514,0.343338081303,475,0.539218753276,0.343659807328,-1.0,nan,nan,nan,nan,0.0,0.0,0.0,nan,344.372445524,624.746976823,625.247004192,625.087502224,nan,nan,nan,nan
1,241,1,1,1.0,1.0,0.308395161759,0,0.0,0.0,0.0,0.364903110949,0.0905962706201,0.274306840329,0.455499381569,0.0905962706201,0.329863597949,202,1.0,-0.00802826454356,0.487596984314,nan,nan,nan,nan,0.0,0.0,0.0,nan,344.372445524,625.747087155,626.247128495,626.055482317,nan,nan,nan,nan
1,242,1,1,1.0,1.0,0.300252767745,0,0.0,0.0,0.0,0.36466863813,0.0904810591767,0.274187578954,0.455149697307,0.0904810591767,0.316391110265,393,-0.0489456633786,0.475102171109,-0.327443230616,nan,nan,nan,nan,0.0,0.0,0.0,nan,344.372445524,626.747234551,627.247258214,627.047487319,nan,nan,nan,nan
1,243,1,1,1.0,1.0,0.33209391823,0,0.0,0.0,0.0,0.364402456848,0.0903884266541,0.274014030194,0.454790883502,0.0903884266541,0.313580615912,455,0.375608248681,0.394875365091,-1.0,nan,nan,nan,nan,0.0,0.0,0.0,nan,344.372445524,627.747359139,628.247387649,628.079453057,nan,nan,nan,nan
1,244,1,1,1.0,1.0,0.32393299276,0,0.0,0.0,0.0,0.364269499899,0.0902259605796,0.274043539319,0.454495460478,0.0902259605796,0.318759892912,365,-0.157962026257,0.477016591838,-0.0139196855225,nan,nan,nan,nan,0.0,0.0,0.0,nan,344.372445524,628.747489999,629.24752079,629.071422992,nan,nan,nan,nan
1,245,1,1,1.0,1.0,0.355801227503,0,0.0,0.0,0.0,0.364104186345,0.0900777507628,0.274026435582,0.454181937108,0.0900777507628,0.337276046164,466,0.464789014893,0.368385601135,-1.0,nan,nan,nan,nan,0.0,0.0,0.0,nan,344.372445524,629.747620003,630.247659347,630.103421231,nan,nan,nan,nan
1,246,1,1,1.0,1.0,0.347663680092,0,0.0,0.0,0.0,0.364070296717,0.0898952893426,0.274175007374,0.45396558606,0.0898952893426,0.342465966785,309,-0.0258396312562,0.415106541901,0.475305697888,nan,nan,nan,nan,0.0,0.0,0.0,nan,344.372445524,630.747738889,631.247792773,631.09540257,nan,nan,nan,nan
1,247,1,1,1.0,1.0,0.379499698989,0,0.0,0.0,0.0,0.364003603154,0.0897184627454,0.274285140408,0.453722065899,0.0897184627454,0.360988202194,413,0.0683106243366,0.461143133648,-0.585495598612,nan,nan,nan,nan,0.0,0.0,0.0,nan,344.372445524,631.747876021,632.247917646,632.12737572,nan,nan,nan,nan
1,248,1,1,1.0,1.0,0.467349457089,0,0.0,0.0,0.0,0.364066340384,0.0895420690472,0.274524271336,0.453608409431,0.0895420690472,0.39817094539,305,0.00361192545304,0.406859252708,0.500196907155,nan,nan,nan,nan,0.0,0.0,0.0,nan,344.372445524,632.748008307,633.248022276,633.215357764,nan,nan,nan,nan
1,249,1,1,1.0,1.0,0.459237283561,0,0.0,0.0,0.0,0.364482804564,0.0896007401684,0.274882064396,0.454083544732,0.0896007401684,0.435362146546,83,1.0,-0.203097876184,-0.665876706514,nan,nan,nan,nan,0.0,0.0,0.0,nan,344.372445524,633.74810524,634.248145724,634.207342524,nan,nan,nan,nan
1,250,1,1,1.0,1.0,0.500209832098,0,0.0,1.0,0.0,0.36486334464,0.0896212227406,0.2752421219,0.454484567381,0.0896212227406,0.475598857583,131,1.0,-0.308451667147,-0.125800503078,nan,nan,nan,nan,0.0,0.0,0.0,nan,344.372445524,634.748284281,635.248331037,635.248494113,nan,nan,nan,nan
1,251,1,1,1.0,1.0,0.418918464333,1,0.0,0.0,1.0,0.36540473059,0.089848858085,0.275555872505,0.455253588675,0.089848858085,0.459455193331,273,0.299732959835,0.319577193062,0.635038033336,-83.8655900561,173.865590056,-18.0875349439,247.0,0.578947625354,0.219392674348,0.6523805853,1.10053261975,344.372445524,635.748379219,636.248413146,636.167297683,638.6904137,639.693271235,637.573578331,638.682047219
1,252,1,1,1.0,1.0,0.388629386202,0,0.0,0.0,0.0,0.365617932717,0.0897330399972,0.275884892719,0.455350972714,0.0897330399972,0.435919227544,453,0.359670421306,0.39926174925,-1.0,nan,nan,nan,nan,0.0,0.0,0.0,nan,344.372445524,639.89057746,640.390602834,640.279206846,nan,nan,nan,nan
1,253,1,1,1.0,1.0,0.260466796346,0,0.0,0.0,0.0,0.365709248008,0.0895665058602,0.276142742148,0.455275753868,0.0895665058602,0.356004882293,92,1.0,-0.241703663401,-0.55060883727,nan,nan,nan,nan,0.0,0.0,0.0,nan,344.372445524,640.890708035,641.390731983,641.151174831,nan,nan,nan,nan
1,254,1,1,1.0,1.0,0.260313699022,0,0.0,0.0,0.0,0.365293269938,0.0896328976879,0.27566037225,0.454926167626,0.0896328976879,0.30313662719,318,-0.0835627602325,0.431640264478,0.413481556053,nan,nan,nan,nan,0.0,0.0,0.0,nan,344.372445524,641.890837469,642.390858851,642.151151168,nan,nan,nan,nan
1,255,1,1,1.0,1.0,0.252176151611,0,1.0,0.0,0.0,0.364879964541,0.0896975139385,0.275182450603,0.45457747848,0.0896975139385,0.25765221566,435,0.221263830514,0.433027056876,-1.0,nan,nan,nan,nan,0.0,0.0,0.0,nan,344.372445524,642.890963768,643.391009383,643.143139919,nan,nan,nan,nan
1,256,1,1,1.0,1.0,0.300056335516,1,0.0,0.0,1.0,0.364437988804,0.0897981596128,0.274639829191,0.454236148417,0.0897981596128,0.270848728716,261,0.427225806086,0.276617811781,0.653674462902,-66.2864051137,156.286405114,-27.2292198863,222.0,0.841778467246,0.0997291618919,0.589484691865,0.858842936344,344.372445524,643.891096908,644.391115155,644.191153244,646.591396375,647.602362663,645.716281766,646.58305983
1,257,1,1,1.0,1.0,0.295190000441,0,0.0,0.0,0.0,0.364186497971,0.0897125339778,0.274473963993,0.453899031949,0.0897125339778,0.282474162523,44,1.0,-0.00106984144607,-1.0,nan,nan,nan,nan,0.0,0.0,0.0,nan,344.372445524,647.799915782,648.299962538,648.095105783,nan,nan,nan,nan
1,258,1,1,1.0,1.0,0.335027004592,0,0.0,0.0,0.0,0.363918029109,0.0896408031823,0.274277225927,0.453558832291,0.0896408031823,0.310091113516,329,-0.136053278316,0.448203788942,0.3278337444,nan,nan,nan,nan,0.0,0.0,0.0,nan,344.372445524,648.800057761,649.300071446,649.135084765,nan,nan,nan,nan
1,259,1,1,1.0,1.0,0.310920557939,0,0.0,0.0,0.0,0.363806048394,0.0894849207776,0.274321127616,0.453290969171,0.0894849207776,0.313712520991,190,1.0,-0.0746884387243,0.407399635172,nan,nan,nan,nan,0.0,0.0,0.0,nan,344.372445524,649.800157545,650.300208863,650.111078103,nan,nan,nan,nan
1,260,1,1,1.0,1.0,0.278743277304,0,0.0,0.0,0.0,0.363601857311,0.0893722043626,0.274229652948,0.452974061673,0.0893722043626,0.308230279945,42,1.0,0.00954878589686,-1.0,nan,nan,nan,nan,0.0,0.0,0.0,nan,344.372445524,650.800307507,651.300351412,651.079050784,nan,nan,nan,nan
1,261,0,0,1.0,0.0,0.25457467977,0,0.0,0.0,0.0,0.363275478157,0.0893546849725,0.273920793184,0.45263016313,0.0893546849725,0.281412838337,420,0.1146601879,0.45369410126,-0.695047497311,nan,nan,nan,nan,0.0,0.0,0.0,nan,344.372445524,651.800454332,652.300485693,652.055029012,nan,nan,nan,nan
1,262,1,1,1.0,1.0,0.254453228321,0,0.0,0.0,0.0,0.362859000002,0.0894358247403,0.273423175262,0.452294824743,0.0894358247403,0.262590395131,189,1.0,-0.0802194643608,0.400143472992,nan,nan,nan,nan,0.0,0.0,0.0,nan,344.372445524,652.800567516,653.300607429,653.055020744,nan,nan,nan,nan
1,263,1,1,1.0,1.0,0.246307983063,0,0.0,0.0,0.0,0.362445237515,0.0895149157697,0.272930321745,0.451960153285,0.0895149157697,0.251778630385,236,0.697004556276,0.169301754335,0.634065852989,nan,nan,nan,nan,0.0,0.0,0.0,nan,344.372445524,653.800693529,654.300734298,654.047001512,nan,nan,nan,nan
1,264,1,1,1.0,1.0,0.246140345465,0,1.0,0.0,0.0,0.362003650996,0.0896300307682,0.272373620228,0.451633681764,0.0896300307682,0.248967185616,285,0.178734351563,0.356878681702,0.598527012995,nan,nan,nan,nan,0.0,0.0,0.0,nan,344.372445524,654.800828381,655.30084235,655.046968726,nan,nan,nan,nan
1,265,1,1,1.0,1.0,0.372773386072,1,0.0,0.0,1.0,0.361564774839,0.0897427955918,0.271821979247,0.451307570431,0.0897427955918,0.2884072382,443,0.281558783006,0.419268214519,-1.0,167.103190862,282.896809138,-28.5875658623,402.0,0.000724920831492,0.470139955471,-0.437811562499,1.55043808138,344.372445524,655.826173577,656.325971727,656.198946963,659.218008318,660.222554203,657.651146322,659.209666641
1,266,1,1,1.0,1.0,0.5247527631,0,0.0,0.0,0.0,0.361607071485,0.0895759458549,0.27203112563,0.45118301734,0.0895759458549,0.381222164879,63,1.0,-0.102744642793,-1.0,nan,nan,nan,nan,0.0,0.0,0.0,nan,344.372445524,660.418179776,660.918269297,660.942932539,nan,nan,nan,nan
1,267,1,1,1.0,1.0,0.428549353965,0,0.0,0.0,0.0,0.362220401153,0.0899631654925,0.27225723566,0.452183566645,0.0899631654925,0.442025167712,374,-0.132039125116,0.478634076427,-0.110628443238,nan,nan,nan,nan,0.0,0.0,0.0,nan,344.372445524,661.418310351,661.918358817,661.846859705,nan,nan,nan,nan
1,268,1,1,1.0,1.0,0.420406959951,0,0.0,1.0,0.0,0.362468824197,0.0898858988959,0.272582925301,0.452354723093,0.0898858988959,0.457903025672,128,1.0,-0.310663006781,-0.156689791083,nan,nan,nan,nan,0.0,0.0,0.0,nan,344.372445524,662.418433798,662.91846744,662.838840758,nan,nan,nan,nan
1,269,1,1,1.0,1.0,0.324233770836,1,0.0,0.0,1.0,0.362685011271,0.0897875618635,0.272897449407,0.452472573134,0.0897875618635,0.391063361584,457,0.391639248186,0.390358177281,-1.0,-146.309932474,236.309932474,-85.018192526,336.0,-0.158211608236,0.456758111158,0.268135266647,1.06712086545,344.372445524,663.418583475,663.918610559,663.742817245,666.327243264,667.336041383,665.243773749,666.318913275
1,270,1,1,1.0,1.0,0.526970824227,0,0.0,0.0,0.0,0.362542069856,0.0896510600485,0.272891009808,0.452193129905,0.0896510600485,0.423870518338,260,0.438016636947,0.272781976488,0.654406567654,nan,nan,nan,nan,0.0,0.0,0.0,nan,344.372445524,667.535768658,668.03583195,668.062739482,nan,nan,nan,nan
1,271,1,1,1.0,1.0,0.350855350494,0,0.0,0.0,0.0,0.363151065243,0.0900406031795,0.273110462063,0.453191668422,0.0900406031795,0.400686648519,162,1.0,-0.218739557155,0.176632971453,nan,nan,nan,nan,0.0,0.0,0.0,nan,344.372445524,668.535887544,669.035924322,668.886742894,nan,nan,nan,nan
1,272,1,1,1.0,1.0,0.446689273231,0,0.0,0.0,0.0,0.363105693602,0.0898774152122,0.27322827839,0.452983108814,0.0898774152122,0.441505149317,378,-0.117450136118,0.478670924818,-0.154810124165,nan,nan,nan,nan,0.0,0.0,0.0,nan,344.372445524,669.536016123,670.036047484,669.982705396,nan,nan,nan,nan
1,273,1,1,1.0,1.0,0.510530088097,0,0.0,0.0,0.0,0.363412986174,0.0898545580644,0.27355842811,0.453267544238,0.0898545580644,0.436024903941,71,1.0,-0.144504067012,-0.877980773838,nan,nan,nan,nan,0.0,0.0,0.0,nan,344.372445524,670.53615411,671.036228236,671.046684199,nan,nan,nan,nan
1,274,1,1,1.0,1.0,0.614393220749,0,0.0,1.0,0.0,0.363951876657,0.0901291112614,0.273822765396,0.454080987919,0.0901291112614,0.523870860692,224,0.821619416966,0.11002478857,0.597264883709,nan,nan,nan,nan,0.0,0.0,0.0,nan,344.372445524,671.536275277,672.036352253,672.150668498,nan,nan,nan,nan
1,275,1,1,1.0,1.0,0.45425348822,1,0.0,0.0,1.0,0.364865896161,0.0912232569906,0.273642639171,0.456089153152,0.0912232569906,0.526392265689,340,-0.166837174664,0.460980112934,0.232376404312,-135.903643988,225.903643988,-13.1588560125,321.0,-0.0999433513493,0.43654647086,0.391174984052,1.23377992958,344.372445524,672.536405567,673.036437782,672.990659055,675.620091186,676.61784376,674.369936948,675.611761483
1,276,1,1,1.0,1.0,0.538276663516,0,0.0,0.0,0.0,0.36519094195,0.0912160696235,0.273974872327,0.456407011574,0.0912160696235,0.535641124162,471,0.506014005179,0.354993781952,-1.0,nan,nan,nan,nan,0.0,0.0,0.0,nan,344.372445524,676.820276898,677.320362428,677.358553562,nan,nan,nan,nan
1,277,1,1,1.0,1.0,0.3301438489,0,0.0,0.0,0.0,0.36581806413,0.0916426630848,0.274175401045,0.457460727215,0.0916426630848,0.440891333545,5,0.88714030954,0.190659852496,-1.0,nan,nan,nan,nan,0.0,0.0,0.0,nan,344.372445524,677.82041289,678.320442826,678.150556739,nan,nan,nan,nan
1,278,1,1,1.0,1.0,0.217971255537,0,0.0,0.0,0.0,0.365689276349,0.0915021117839,0.274187164566,0.457191388133,0.0915021117839,0.362130589318,279,0.238157575771,0.338930353633,0.618978422254,nan,nan,nan,nan,0.0,0.0,0.0,nan,344.372445524,678.82057397,679.320576536,679.038545226,nan,nan,nan,nan
1,279,1,1,1.0,1.0,0.380748142488,0,0.0,0.0,0.0,0.365157916562,0.0917645254793,0.273393391083,0.456922442042,0.0917645254793,0.309621082308,72,1.0,-0.149607777062,-0.853203742106,nan,nan,nan,nan,0.0,0.0,0.0,nan,344.372445524,679.849771123,680.354067548,680.230519266,nan,nan,nan,nan
1,280,1,1,1.0,1.0,0.368685938418,0,0.0,0.0,0.0,0.365213795508,0.091604663408,0.2736091321,0.456818458916,0.091604663408,0.322468445481,471,0.506014005179,0.354993781952,-1.0,nan,nan,nan,nan,0.0,0.0,0.0,nan,344.372445524,680.845821663,681.345846752,681.214507602,nan,nan,nan,nan
1,281,1,1,1.0,1.0,0.352509772871,0,0.0,0.0,0.0,0.365226196019,0.0914411719286,0.27378502409,0.456667367947,0.0914411719286,0.367314617926,259,0.44882283482,0.268906983076,0.655011783756,nan,nan,nan,nan,0.0,0.0,0.0,nan,344.372445524,681.845960791,682.345959366,682.198470564,nan,nan,nan,nan
1,282,1,1,1.0,1.0,0.288380153943,0,0.0,0.0,0.0,0.365180941844,0.0912814612186,0.273899480625,0.456462403062,0.0912814612186,0.33652528841,321,-0.0999433513493,0.43654647086,0.391174984052,nan,nan,nan,nan,0.0,0.0,0.0,nan,344.372445524,682.8460888,683.346084808,683.134468954,nan,nan,nan,nan
1,283,1,1,1.0,1.0,0.440256895963,0,0.0,0.0,0.0,0.364908598624,0.0912337655903,0.273674833034,0.456142364215,0.0912337655903,0.360382274259,489,0.656284860842,0.299572439858,-1.0,nan,nan,nan,nan,0.0,0.0,0.0,nan,344.372445524,683.84619001,684.346208826,684.286446906,nan,nan,nan,nan
1,284,1,1,1.0,1.0,0.421943352092,0,0.0,0.0,0.0,0.365174847025,0.0911821169152,0.27399273011,0.45635696394,0.0911821169152,0.383526800666,158,1.0,-0.235949227405,0.139764106,nan,nan,nan,nan,0.0,0.0,0.0,nan,344.372445524,684.888489689,685.388025549,685.310433041,nan,nan,nan,nan
1,285,1,1,1.0,1.0,0.510298018344,0,0.0,1.0,0.0,0.365374736127,0.0910835364859,0.274291199641,0.456458272613,0.0910835364859,0.457499422133,24,1.0,0.102019060141,-1.0,nan,nan,nan,nan,0.0,0.0,0.0,nan,344.372445524,685.888113074,686.388185774,686.398411093,nan,nan,nan,nan
1,286,1,1,1.0,1.0,0.446180658415,1,0.0,0.0,1.0,0.365883238872,0.0913265373239,0.274556701548,0.457209776196,0.0913265373239,0.459474009617,341,-0.168535884224,0.46196150489,0.223260112086,-104.036243468,194.036243468,-45.7293815321,276.0,0.268710435127,0.329430325417,0.627563005949,3.41738292715,344.372445524,686.888226544,687.388263606,687.334407202,692.15554424,693.15360586,688.721794988,692.147214252
1,287,1,1,1.0,1.0,0.434547526762,0,0.0,0.0,0.0,0.36616399908,0.0912898636145,0.274874135465,0.457453862694,0.0912898636145,0.463675401174,251,0.535576518695,0.236509187076,0.655284151108,nan,nan,nan,nan,0.0,0.0,0.0,nan,344.372445524,693.355728243,693.855757893,693.790275769,nan,nan,nan,nan
1,288,0,0,1.0,0.0,0.330392454285,0,0.0,0.0,0.0,0.366402269211,0.091219725997,0.275182543214,0.457621995208,0.091219725997,0.403706879821,7,0.9030914636,0.181853060355,-1.0,nan,nan,nan,nan,0.0,0.0,0.0,nan,344.372445524,694.355885047,694.855913556,694.686277501,nan,nan,nan,nan
1,289,1,1,1.0,1.0,0.289900865406,0,0.0,0.0,0.0,0.366277235132,0.0910858536603,0.275191381471,0.457363088792,0.0910858536603,0.351613615484,180,1.0,-0.129278616986,0.331238955499,nan,nan,nan,nan,0.0,0.0,0.0,nan,344.372445524,695.364321376,695.864349315,695.654222242,nan,nan,nan,nan
1,290,0,0,0.0,1.0,0.401754435152,0,0.0,0.0,0.0,0.366012957036,0.0910386699372,0.274974287099,0.457051626973,0.0910386699372,0.340682584948,90,1.0,-0.233635786423,-0.574971871003,nan,nan,nan,nan,0.0,0.0,0.0,nan,344.372445524,696.364471052,696.864497852,696.766225487,nan,nan,nan,nan
1,291,1,1,1.0,1.0,0.361651150044,0,0.0,0.0,0.0,0.366136203512,0.0909057192875,0.275230484224,0.457041922799,0.0909057192875,0.351102150201,200,1.0,-0.0191209939188,0.47515178387,nan,nan,nan,nan,0.0,0.0,0.0,nan,344.372445524,697.364562854,697.864600202,697.726214004,nan,nan,nan,nan
1,292,1,1,1.0,1.0,0.361508885864,0,0.0,0.0,0.0,0.366120790957,0.0907497690272,0.27537102193,0.456870559984,0.0907497690272,0.374971490353,405,0.018463324075,0.468009379796,-0.476293327428,nan,nan,nan,nan,0.0,0.0,0.0,nan,344.372445524,698.364693714,698.864728781,698.7262026,nan,nan,nan,nan
1,293,1,1,1.0,1.0,0.370336655062,0,0.0,0.0,0.0,0.366104996762,0.0905946429584,0.275510353803,0.45669963972,0.0905946429584,0.36449889699,487,0.639529740128,0.306295026098,-1.0,nan,nan,nan,nan,0.0,0.0,0.0,nan,344.372445524,699.411850604,699.914872356,699.782187259,nan,nan,nan,nan
1,294,0,0,0.0,1.0,0.479525699746,0,0.0,0.0,0.0,0.366119439281,0.0904402491831,0.275679190098,0.456559688464,0.0904402491831,0.403790413557,323,-0.11001989341,0.43965344528,0.375855360355,nan,nan,nan,nan,0.0,0.0,0.0,nan,344.372445524,700.406641297,700.906682066,700.886166997,nan,nan,nan,nan
1,295,1,1,1.0,1.0,0.32737013232,0,0.0,0.0,0.0,0.366505174861,0.0905274184434,0.275977756418,0.457032593305,0.0905274184434,0.392410829042,389,-0.0691208065164,0.476626077068,-0.280234315682,nan,nan,nan,nan,0.0,0.0,0.0,nan,344.372445524,701.406770161,701.906830031,701.734140293,nan,nan,nan,nan
1,296,1,1,1.0,1.0,0.295221361332,0,0.0,0.0,0.0,0.3663725137,0.0904024734535,0.275970040246,0.456774987154,0.0904024734535,0.367372397799,178,1.0,-0.139919655122,0.315097826042,nan,nan,nan,nan,0.0,0.0,0.0,nan,344.372445524,702.406905583,702.906937798,702.702126944,nan,nan,nan,nan
1,297,0,0,0.0,1.0,0.479062986095,0,0.0,0.0,0.0,0.366132138185,0.0903440217254,0.27578811646,0.456476159911,0.0903440217254,0.367218159915,239,0.665069831863,0.183388857662,0.640549267122,nan,nan,nan,nan,0.0,0.0,0.0,nan,344.372445524,703.407047276,703.907070369,703.886110262,nan,nan,nan,nan
1,298,1,1,1.0,1.0,0.350928050466,0,0.0,0.0,0.0,0.36651237673,0.0904287383397,0.276083638391,0.45694111507,0.0904287383397,0.375070799297,288,0.150005133015,0.365331945294,0.586687239957,nan,nan,nan,nan,0.0,0.0,0.0,nan,344.372445524,704.407151907,704.907191535,704.758079958,nan,nan,nan,nan
1,299,1,1,1.0,1.0,0.326787962578,0,0.0,0.0,0.0,0.366460080334,0.0902813834218,0.276178696912,0.456741463755,0.0902813834218,0.385592999713,236,0.697004556276,0.169301754335,0.634065852989,nan,nan,nan,nan,0.0,0.0,0.0,nan,344.372445524,705.407279346,705.907293031,705.734067308,nan,nan,nan,nan
1,300,1,1,1.0,1.0,0.32666308945,0,0.0,0.0,0.0,0.366327397665,0.0901593834816,0.276168014184,0.456486781147,0.0901593834816,0.334793034165,417,0.0945046041228,0.457053563907,-0.645720198395,nan,nan,nan,nan,0.0,0.0,0.0,nan,344.372445524,706.407388253,706.907421609,706.734051343,nan,nan,nan,nan
1,301,1,1,1.0,1.0,0.318473654799,0,0.0,0.0,0.0,0.366195183305,0.0900380221103,0.276157161194,0.456233205415,0.0900380221103,0.323974902276,312,-0.0464483572634,0.420925197877,0.455573212045,nan,nan,nan,nan,0.0,0.0,0.0,nan,344.372445524,707.407555891,707.907566439,707.726029546,nan,nan,nan,nan
1,302,1,1,1.0,1.0,0.270371094812,0,0.0,0.0,0.0,0.366036640021,0.0899302684091,0.276106371612,0.45596690843,0.0899302684091,0.305169279687,415,0.0813077335083,0.459153678902,-0.614968023274,nan,nan,nan,nan,0.0,0.0,0.0,nan,344.372445524,708.407652539,708.907681619,708.678023634,nan,nan,nan,nan
1,303,1,1,1.0,1.0,0.294206412975,0,0.0,0.0,0.0,0.365719866692,0.0899493050428,0.275770561649,0.455669171735,0.0899493050428,0.294350387529,162,1.0,-0.218739557155,0.176632971453,nan,nan,nan,nan,0.0,0.0,0.0,nan,344.372445524,709.407784539,709.907824453,709.701990952,nan,nan,nan,nan
1,304,1,1,1.0,1.0,0.366063038819,0,0.0,0.0,0.0,0.365483848693,0.0898943695095,0.275589479184,0.455378218203,0.0898943695095,0.310213515535,428,0.170378320166,0.443486568519,-0.86866140055,nan,nan,nan,nan,0.0,0.0,0.0,nan,344.372445524,710.407928513,710.907958164,710.773991552,nan,nan,nan,nan
1,305,1,1,1.0,1.0,0.421892034821,0,0.0,0.0,0.0,0.365485753924,0.089746401266,0.275739352658,0.45523215519,0.089746401266,0.360720495538,32,1.0,0.061735800531,-1.0,nan,nan,nan,nan,0.0,0.0,0.0,nan,344.372445524,711.408080756,711.908054812,711.829972791,nan,nan,nan,nan
1,306,1,1,1.0,1.0,0.477806844749,0,0.0,0.0,0.0,0.36567069255,0.0896571587488,0.276013533801,0.455327851298,0.0896571587488,0.421920639463,115,1.0,-0.305166285737,-0.293172749504,nan,nan,nan,nan,0.0,0.0,0.0,nan,344.372445524,712.408130933,712.908189378,712.885937778,nan,nan,nan,nan
1,307,1,1,1.0,1.0,0.405612093396,0,0.0,0.0,0.0,0.366037150563,0.089739042306,0.276298108257,0.455776192869,0.089739042306,0.435103657655,290,0.131265381085,0.370776544741,0.578206616232,nan,nan,nan,nan,0.0,0.0,0.0,nan,344.372445524,713.408321093,713.908350173,713.813933187,nan,nan,nan,nan
1,308,1,1,1.0,1.0,0.349494863767,0,0.0,0.0,0.0,0.366166059172,0.089621141843,0.276544917329,0.455787201015,0.089621141843,0.410971267304,24,1.0,0.102019060141,-1.0,nan,nan,nan,nan,0.0,0.0,0.0,nan,344.372445524,714.408419167,714.908441975,714.75791403,nan,nan,nan,nan
1,309,1,1,1.0,1.0,0.317341816146,0,0.0,0.0,0.0,0.366111931914,0.0894805607094,0.276631371205,0.455592492624,0.0894805607094,0.357482924437,303,0.0191349273956,0.402522842081,0.512018356663,nan,nan,nan,nan,0.0,0.0,0.0,nan,344.372445524,715.408548886,715.908590796,715.725890703,nan,nan,nan,nan
1,310,1,1,1.0,1.0,0.363166444935,0,0.0,0.0,0.0,0.365954099824,0.0893785849282,0.276575514896,0.455332684753,0.0893785849282,0.343334374949,370,-0.144805996584,0.478178727438,-0.0671803333712,nan,nan,nan,nan,0.0,0.0,0.0,nan,344.372445524,716.458698734,716.958727814,716.821865179,nan,nan,nan,nan
1,311,0,0,0.0,1.0,0.491020843852,0,0.0,0.0,0.0,0.365945107389,0.0892344494825,0.276710657907,0.455179556872,0.0892344494825,0.390509701644,315,-0.0657111424032,0.426434809442,0.434956515233,nan,nan,nan,nan,0.0,0.0,0.0,nan,344.372445524,717.458828453,717.967197785,717.949849297,nan,nan,nan,nan
1,312,1,1,1.0,1.0,0.298890570179,0,0.0,0.0,0.0,0.366347280175,0.0893718270612,0.276975453114,0.455719107236,0.0893718270612,0.384359286322,400,-0.0107874812989,0.471427301814,-0.412692688905,nan,nan,nan,nan,0.0,0.0,0.0,nan,344.372445524,718.458945058,718.958957603,718.757835628,nan,nan,nan,nan
1,313,0,0,0.0,1.0,0.500212112907,0,0.0,0.0,0.0,0.366131072771,0.0893099153006,0.276821157471,0.455440988072,0.0893099153006,0.430041175646,123,1.0,-0.311441137266,-0.208672863777,nan,nan,nan,nan,0.0,0.0,0.0,nan,344.372445524,719.459101007,719.95915318,719.95931312,nan,nan,nan,nan
1,314,1,1,1.0,1.0,0.306606742553,0,0.0,0.0,0.0,0.366559446702,0.0894876026443,0.277071844057,0.456047049346,0.0894876026443,0.368569808546,8,0.91102658764,0.177400941622,-1.0,nan,nan,nan,nan,0.0,0.0,0.0,nan,344.372445524,720.459180549,720.959235288,720.765787292,nan,nan,nan,nan
1,315,0,0,1.0,0.0,0.394450229127,0,0.0,0.0,0.0,0.366368514523,0.0894088261237,0.276959688399,0.455777340646,0.0894088261237,0.400423028196,409,0.0429436170054,0.464793150178,-0.529461854507,nan,nan,nan,nan,0.0,0.0,0.0,nan,344.372445524,721.45934334,721.959380118,721.853793569,nan,nan,nan,nan
1,316,1,1,1.0,1.0,0.458301877603,0,0.0,0.0,0.0,0.366457662823,0.0892807711491,0.277176891674,0.455738433972,0.0892807711491,0.386452949761,73,1.0,-0.1546788618,-0.830916872461,nan,nan,nan,nan,0.0,0.0,0.0,nan,344.372445524,722.459452818,722.959505275,722.917754695,nan,nan,nan,nan
1,317,1,1,1.0,1.0,0.370186408516,0,0.0,0.0,0.0,0.366748309072,0.089288526347,0.277459782725,0.456036835419,0.089288526347,0.407646171749,232,0.739158239773,0.150046616059,0.623712016981,nan,nan,nan,nan,0.0,0.0,0.0,nan,344.372445524,723.459567142,723.959598788,723.82975355,nan,nan,nan,nan
1,318,1,1,1.0,1.0,0.330016980413,0,0.0,0.0,0.0,0.366759154812,0.0891477899466,0.277611364865,0.455906944759,0.0891477899466,0.386168422177,18,0.988682696815,0.131162580546,-1.0,nan,nan,nan,nan,0.0,0.0,0.0,nan,344.372445524,724.459720524,724.959730218,724.789737505,nan,nan,nan,nan
1,319,1,1,1.0,1.0,0.30588972196,0,0.0,0.0,0.0,0.366643613383,0.0890312795986,0.277612333784,0.455674892982,0.0890312795986,0.335364370296,405,0.018463324075,0.468009379796,-0.476293327428,nan,nan,nan,nan,0.0,0.0,0.0,nan,344.372445524,725.45982316,725.959875333,725.765712881,nan,nan,nan,nan
1,320,1,1,1.0,1.0,0.465728960931,0,0.0,0.0,0.0,0.366453162313,0.0889564777917,0.277496684521,0.455409640104,0.0889564777917,0.367211887768,307,-0.0113868739462,0.411053355611,0.487957006857,nan,nan,nan,nan,0.0,0.0,0.0,nan,344.372445524,726.459966849,726.959982244,726.92569581,nan,nan,nan,nan
1,321,1,1,1.0,1.0,0.337568366434,0,0.0,0.0,0.0,0.366763399183,0.088990048801,0.277773350382,0.455753447984,0.088990048801,0.369729016442,199,1.0,-0.0246761787097,0.468786302982,nan,nan,nan,nan,0.0,0.0,0.0,nan,344.372445524,727.460093718,727.960109968,727.797662084,nan,nan,nan,nan
1,322,1,1,1.0,1.0,0.353442898486,0,0.0,0.0,0.0,0.366672448926,0.0888662214497,0.277806227476,0.455538670375,0.0888662214497,0.385580075284,54,1.0,-0.0546292063271,-1.0,nan,nan,nan,nan,0.0,0.0,0.0,nan,344.372445524,728.460237692,728.960240258,728.81368059,nan,nan,nan,nan
1,323,1,1,1.0,1.0,0.433345269412,0,0.0,0.0,0.0,0.366631363365,0.0887311765271,0.277900186838,0.455362539892,0.0887311765271,0.374785511444,369,-0.147694689129,0.477999187239,-0.0564338676883,nan,nan,nan,nan,0.0,0.0,0.0,nan,344.372445524,729.460332915,729.960382237,729.893678184,nan,nan,nan,nan
1,324,0,0,0.0,1.0,0.465140233748,0,0.0,0.0,0.0,0.366837907966,0.0886712079818,0.278166699984,0.455509115948,0.0886712079818,0.417309467215,120,1.0,-0.310161497659,-0.240162905937,nan,nan,nan,nan,0.0,0.0,0.0,nan,344.372445524,730.460489718,730.960519939,730.925629952,nan,nan,nan,nan
1,325,1,1,1.0,1.0,0.337001021951,0,0.0,0.0,0.0,0.367141310206,0.0887020235734,0.278439286633,0.455843333779,0.0887020235734,0.411828841704,460,0.415848916989,0.383334931935,-1.0,nan,nan,nan,nan,0.0,0.0,0.0,nan,344.372445524,731.460607463,731.960627991,731.797608485,nan,nan,nan,nan
1,326,1,1,1.0,1.0,0.368839036208,0,0.0,0.0,0.0,0.367048570858,0.088581184202,0.278467386656,0.45562975506,0.088581184202,0.390326763969,230,0.760023132926,0.140224214653,0.61781109556,nan,nan,nan,nan,0.0,0.0,0.0,nan,344.372445524,732.460736043,732.960749157,732.829575079,nan,nan,nan,nan
1,327,1,1,1.0,1.0,0.288739092182,0,0.0,0.0,0.0,0.367054063083,0.0884452745634,0.278608788519,0.455499337646,0.0884452745634,0.331526383447,454,0.367627362238,0.397084843583,-1.0,nan,nan,nan,nan,0.0,0.0,0.0,nan,344.372445524,733.460835542,733.960892847,733.749574634,nan,nan,nan,nan
1,328,1,1,1.0,1.0,0.344575215597,0,0.0,0.0,0.0,0.366814567759,0.0884157400122,0.278398827747,0.455230307771,0.0884157400122,0.334051114662,250,0.546428449327,0.232286661223,0.654747725831,nan,nan,nan,nan,0.0,0.0,0.0,nan,344.372445524,734.460979231,734.961005745,734.805554447,nan,nan,nan,nan
1,329,1,1,1.0,1.0,0.312430150807,0,0.0,0.0,0.0,0.366746764856,0.0882893709019,0.278457393954,0.455036135758,0.0882893709019,0.315248152862,335,-0.155595990888,0.455627721073,0.276893227044,nan,nan,nan,nan,0.0,0.0,0.0,nan,344.372445524,735.461113513,735.961153711,735.773543663,nan,nan,nan,nan
1,330,1,1,1.0,1.0,0.336278869305,0,0.0,0.0,0.0,0.366581668764,0.0882057830844,0.27837588568,0.454787451849,0.0882057830844,0.331094745236,253,0.513865899396,0.244839928328,0.655977188727,nan,nan,nan,nan,0.0,0.0,0.0,nan,344.372445524,736.461243517,736.961315932,736.797522386,nan,nan,nan,nan
1,331,1,1,1.0,1.0,0.312139351387,0,0.0,0.0,0.0,0.366489842099,0.088087784604,0.278402057495,0.454577626703,0.088087784604,0.320282790499,472,0.51429864939,0.352212277195,-1.0,nan,nan,nan,nan,0.0,0.0,0.0,nan,344.372445524,737.461373521,737.961392908,737.773512873,nan,nan,nan,nan
1,332,1,1,1.0,1.0,0.375982732046,0,0.0,0.0,0.0,0.366325641221,0.0880051859957,0.278320455225,0.454330827217,0.0880051859957,0.341466984246,90,1.0,-0.233635786423,-0.574971871003,nan,nan,nan,nan,0.0,0.0,0.0,nan,344.372445524,738.461498395,738.961512649,738.837481127,nan,nan,nan,nan
1,333,1,1,1.0,1.0,0.303822477814,0,0.0,0.0,0.0,0.366354728844,0.087874141631,0.278480587213,0.454228870475,0.087874141631,0.330648187082,497,0.723174939644,0.271260599794,-1.0,nan,nan,nan,nan,0.0,0.0,0.0,nan,344.372445524,739.461633245,739.961643224,739.765455723,nan,nan,nan,nan
1,334,1,1,1.0,1.0,0.335663342383,0,0.0,0.0,0.0,0.366166944307,0.0878087883478,0.278358155959,0.453975732654,0.0878087883478,0.338489517414,389,-0.0691208065164,0.476626077068,-0.280234315682,nan,nan,nan,nan,0.0,0.0,0.0,nan,344.372445524,740.461788339,740.961766956,740.797451681,nan,nan,nan,nan
1,335,1,1,1.0,1.0,0.31953336345,0,0.0,0.0,0.0,0.366075616157,0.0876930774225,0.278382538735,0.453768693579,0.0876930774225,0.319673061216,451,0.343830962376,0.403518361206,-1.0,nan,nan,nan,nan,0.0,0.0,0.0,nan,344.372445524,741.461884132,741.961899527,741.781417495,nan,nan,nan,nan
1,336,1,1,1.0,1.0,0.279397291597,0,0.0,0.0,0.0,0.365936684059,0.0875989000402,0.278337784019,0.4535355841,0.0875989000402,0.311531332477,263,0.405698801511,0.284171736334,0.651829885785,nan,nan,nan,nan,0.0,0.0,0.0,nan,344.372445524,742.462012711,742.962026395,742.741410003,nan,nan,nan,nan
1,337,1,1,1.0,1.0,0.335258788895,0,0.0,0.0,0.0,0.365679126344,0.0875953871082,0.278083739236,0.453274513452,0.0875953871082,0.311396481314,460,0.415848916989,0.383334931935,-1.0,nan,nan,nan,nan,0.0,0.0,0.0,nan,344.372445524,743.462119623,743.962149843,743.797378412,nan,nan,nan,nan
1,338,1,1,1.0,1.0,0.327126374003,0,0.0,0.0,0.0,0.36558885828,0.0874809766531,0.278107881627,0.453069834933,0.0874809766531,0.313927484831,75,1.0,-0.164714458691,-0.791355921409,nan,nan,nan,nan,0.0,0.0,0.0,nan,344.372445524,744.462249342,744.962282984,744.789375716,nan,nan,nan,nan
1,339,0,0,0.0,1.0,0.478957214858,0,0.0,0.0,0.0,0.365475063948,0.0873764462588,0.278098617689,0.452851510207,0.0873764462588,0.380447459252,490,0.664660387652,0.296157848571,-1.0,nan,nan,nan,nan,0.0,0.0,0.0,nan,344.372445524,745.462405005,745.962434086,745.94136222,nan,nan,nan,nan
1,340,1,1,1.0,1.0,0.294840470422,0,0.0,0.0,0.0,0.365809819555,0.0874642727861,0.278345546769,0.453274092341,0.0874642727861,0.366974686428,191,1.0,-0.0691479807067,0.414571651978,nan,nan,nan,nan,0.0,0.0,0.0,nan,344.372445524,746.462503364,746.962540712,746.757343835,nan,nan,nan,nan
1,341,1,1,1.0,1.0,0.222679075785,0,0.0,0.0,0.0,0.365601086176,0.0874200727486,0.278181013427,0.453021158924,0.0874200727486,0.332158920355,482,0.597655625539,0.322480811492,-1.0,nan,nan,nan,nan,0.0,0.0,0.0,nan,344.372445524,747.462644203,747.962664729,747.685323278,nan,nan,nan,nan
1,342,1,1,1.0,1.0,0.446556702722,0,0.0,0.0,0.0,0.365181960045,0.0876332383026,0.277548721743,0.452815198348,0.0876332383026,0.321358749643,227,0.791019951953,0.125257787881,0.608066708266,nan,nan,nan,nan,0.0,0.0,0.0,nan,344.372445524,748.462757101,748.962791598,748.909313804,nan,nan,nan,nan
1,343,1,1,1.0,1.0,0.358401319478,0,0.0,0.0,0.0,0.365419897889,0.0876152671999,0.277804630689,0.453035165089,0.0876152671999,0.342545699328,158,1.0,-0.235949227405,0.139764106,nan,nan,nan,nan,0.0,0.0,0.0,nan,344.372445524,749.46289908,749.962918466,749.821300399,nan,nan,nan,nan
1,344,1,1,1.0,1.0,0.270237953868,0,0.0,0.0,0.0,0.365399435562,0.0874882733122,0.277911162249,0.452887708874,0.0874882733122,0.358398658689,390,-0.0641960347588,0.476284203309,-0.291947553613,nan,nan,nan,nan,0.0,0.0,0.0,nan,344.372445524,750.463017111,750.96304391,750.733255065,nan,nan,nan,nan
1,345,1,1,1.0,1.0,0.278102092445,0,0.0,0.0,0.0,0.365122803347,0.0875111169948,0.277611686353,0.452633920342,0.0875111169948,0.30224712193,328,-0.132159558243,0.44685796506,0.336046158271,nan,nan,nan,nan,0.0,0.0,0.0,nan,344.372445524,751.463141983,751.963177906,751.741244076,nan,nan,nan,nan
1,346,1,1,1.0,1.0,0.261949019972,0,1.0,0.0,0.0,0.364870569403,0.0875093359848,0.277361233418,0.452379905388,0.0875093359848,0.270096355428,494,0.698129958021,0.282143999684,-1.0,nan,nan,nan,nan,0.0,0.0,0.0,nan,344.372445524,752.46327769,752.963303064,752.72522671,nan,nan,nan,nan
1,347,1,1,1.0,1.0,0.309829773847,1,0.0,0.0,1.0,0.364573108277,0.0875572838142,0.277015824463,0.452130392092,0.0875572838142,0.283293628755,47,1.0,-0.0170755915744,-1.0,69.5671713206,20.4328286794,-12.6140463206,29.0,1.0,0.0770173926463,-1.0,1.14210358867,344.372445524,753.463409975,753.963444187,753.773239749,756.447088695,757.45571433,755.288621347,756.438754431
1,348,1,1,1.0,1.0,0.349540479481,0,0.0,0.0,0.0,0.364415346507,0.0874802631769,0.27693508333,0.451895609683,0.0874802631769,0.307106424433,501,0.7564492333,0.256253544744,-1.0,nan,nan,nan,nan,0.0,0.0,0.0,nan,344.372445524,757.655593847,758.15562977,758.005134327,nan,nan,nan,nan
1,349,1,1,1.0,1.0,0.32540666312,0,0.0,0.0,0.0,0.364372602636,0.0873581114349,0.277014491201,0.451730714071,0.0873581114349,0.328258972149,71,1.0,-0.144504067012,-0.877980773838,nan,nan,nan,nan,0.0,0.0,0.0,nan,344.372445524,758.655723567,759.155757494,758.98113023,nan,nan,nan,nan
1,350,1,1,1.0,1.0,0.301269141492,0,0.0,0.0,0.0,0.364260952379,0.0872577282286,0.277003224151,0.451518680608,0.0872577282286,0.325405428031,167,1.0,-0.195605812978,0.221546716301,nan,nan,nan,nan,0.0,0.0,0.0,nan,344.372445524,759.655850721,760.155902323,759.957119862,nan,nan,nan,nan
1,351,1,1,1.0,1.0,0.261141622905,0,0.0,0.0,0.0,0.364080975777,0.0871978311906,0.276883144586,0.451278806967,0.0871978311906,0.295939142505,508,0.814199817736,0.228638933499,-1.0,nan,nan,nan,nan,0.0,0.0,0.0,nan,344.372445524,760.655998971,761.156034038,760.917140594,nan,nan,nan,nan
1,352,1,1,1.0,1.0,0.484950826503,0,0.0,0.0,0.0,0.363787701267,0.0872462203101,0.276541480957,0.451033921577,0.0872462203101,0.3491205303,21,1.0,0.116713997928,-1.0,nan,nan,nan,nan,0.0,0.0,0.0,nan,344.372445524,761.656122419,762.15614095,762.141073245,nan,nan,nan,nan
1,353,1,1,1.0,1.0,0.372822423,0,0.0,0.0,0.0,0.364131914691,0.0873605501666,0.276771364525,0.451492464858,0.0873605501666,0.372971624136,284,0.188465149253,0.353984098999,0.602236276499,nan,nan,nan,nan,0.0,0.0,0.0,nan,344.372445524,762.656247577,763.156291482,763.02907,nan,nan,nan,nan
1,354,0,0,0.0,1.0,0.396636073943,0,0.0,0.0,0.0,0.364156533695,0.0872379450397,0.276918588655,0.451394478735,0.0872379450397,0.418136441149,141,1.0,-0.291952736687,-0.024586852943,nan,nan,nan,nan,0.0,0.0,0.0,nan,344.372445524,763.656394687,764.156426618,764.053030761,nan,nan,nan,nan
1,355,1,1,1.0,1.0,0.292536880355,0,0.0,0.0,0.0,0.364248283809,0.0871316943842,0.277116589424,0.451379978193,0.0871316943842,0.353998459099,185,1.0,-0.102214474652,0.370299946716,nan,nan,nan,nan,0.0,0.0,0.0,nan,344.372445524,764.656483638,765.156522696,764.949020518,nan,nan,nan,nan
1,356,1,1,1.0,1.0,0.257663429249,0,0.0,0.0,0.0,0.364046279855,0.0870918573878,0.276954422467,0.451138137243,0.0870918573878,0.315612127849,464,0.448404880525,0.373503555275,-1.0,nan,nan,nan,nan,0.0,0.0,0.0,nan,344.372445524,765.723321116,766.223332805,765.980984545,nan,nan,nan,nan
1,357,0,0,1.0,0.0,0.249533009715,0,0.0,0.0,0.0,0.363747451623,0.0871515138587,0.276595937764,0.450898965482,0.0871515138587,0.266577773107,275,0.279002393219,0.326185254474,0.630178474337,nan,nan,nan,nan,0.0,0.0,0.0,nan,344.372445524,766.723453972,767.223486473,766.972986981,nan,nan,nan,nan
1,358,1,1,1.0,1.0,0.178704732098,0,0.0,0.0,0.0,0.363427523214,0.0872384597885,0.276189063426,0.450665983003,0.0872384597885,0.228633723687,107,1.0,-0.290089771429,-0.379592780214,nan,nan,nan,nan,0.0,0.0,0.0,nan,344.372445524,767.754279889,768.256952681,767.932984621,nan,nan,nan,nan
1,359,1,1,1.0,1.0,0.271917180158,0,0.0,0.0,0.0,0.362911537764,0.0876603580953,0.275251179669,0.45057189586,0.0876603580953,0.23338497399,445,0.296953900578,0.415520102116,-1.0,nan,nan,nan,nan,0.0,0.0,0.0,nan,344.372445524,768.757030798,769.257047618,769.028947978,nan,nan,nan,nan
1,360,1,1,1.0,1.0,0.279778182507,0,1.0,0.0,0.0,0.362658071587,0.0876694546919,0.274988616895,0.450327526279,0.0876694546919,0.243466698254,242,0.632911854383,0.197161183215,0.645921401967,nan,nan,nan,nan,0.0,0.0,0.0,nan,344.372445524,769.757159377,770.257179618,770.036937559,nan,nan,nan,nan
