block,trial,freq_trials,correct_response,actual_response,acc,rts,probe_trials,fast_rt_trigger,slow_rt_trigger,rt_triggered,rts_runningavg,rts_runningstd,rts_runningfastthresh,rts_runningslowthresh,rts_runningstd,rts_trailingavg,trials_colorind,trials_colorrgb0,trials_colorrgb1,trials_colorrgb2,wm_respdeg,wm_respdeg_in_colorspace,wm_respcolorminusorigcolor,wm_resptexind,wm_resptexrgb0,wm_resptexrgb1,wm_resptexrgb2,wm_rts,time_blockstart,time_encarray_offset,time_encarray_onset,time_response,time_iti_offset,time_iti_onset,time_memprobe_offset,time_memprobe_onset
1,1,1,1,1.0,1.0,0.328447801992,0,nan,nan,nan,nan,nan,nan,nan,nan,nan,440,0.258699398066,0.424657399123,-1.0,nan,nan,nan,nan,0.0,0.0,0.0,nan,284.295652999,285.319203789,285.819241137,285.647651591,nan,nan,nan,nan
1,2,1,1,1.0,1.0,0.271915469319,0,nan,nan,nan,nan,nan,nan,nan,nan,nan,87,1.0,-0.220959007447,-0.612675615602,nan,nan,nan,nan,0.0,0.0,0.0,nan,284.295652999,286.327715956,286.827709683,286.599631425,nan,nan,nan,nan
1,3,1,1,1.0,1.0,0.367797859013,0,nan,nan,nan,nan,nan,nan,nan,nan,nan,166,1.0,-0.20036215083,0.21267421211,nan,nan,nan,nan,0.0,0.0,0.0,nan,284.295652999,287.327812889,287.827828569,287.695610748,nan,nan,nan,nan
1,4,0,0,0.0,1.0,0.319623739459,0,nan,nan,nan,nan,nan,nan,nan,nan,nan,310,-0.032854544558,0.417080732083,0.468828018046,nan,nan,nan,nan,0.0,0.0,0.0,nan,284.295652999,288.32796399,288.82799079,288.64758773,nan,nan,nan,nan
1,5,1,1,1.0,1.0,0.455510484986,0,nan,nan,nan,nan,nan,nan,nan,nan,nan,265,0.384259149088,0.291568309415,0.649478858709,nan,nan,nan,nan,0.0,0.0,0.0,nan,284.295652999,289.328060068,289.82809371,289.783570553,nan,nan,nan,nan
1,6,1,1,1.0,1.0,0.367373918183,0,nan,nan,nan,nan,nan,nan,nan,nan,nan,82,1.0,-0.198479155091,-0.679872484948,nan,nan,nan,nan,0.0,0.0,0.0,nan,284.295652999,290.328186367,290.828253365,290.695560285,nan,nan,nan,nan
1,7,1,1,1.0,1.0,0.399181141518,0,nan,nan,nan,nan,nan,nan,nan,nan,nan,455,0.375608248681,0.394875365091,-1.0,nan,nan,nan,nan,0.0,0.0,0.0,nan,284.295652999,291.328349728,291.828360276,291.72753087,nan,nan,nan,nan
1,8,0,0,0.0,1.0,0.383045461029,0,nan,nan,nan,nan,nan,nan,nan,nan,nan,388,-0.0739633693698,0.476941921698,-0.268577162136,nan,nan,nan,nan,0.0,0.0,0.0,nan,284.295652999,292.328475171,292.828497124,292.711520632,nan,nan,nan,nan
1,9,1,1,1.0,1.0,0.446927330457,0,nan,nan,nan,nan,nan,nan,nan,nan,nan,219,0.871627318206,0.0840881726889,0.576959667802,nan,nan,nan,nan,0.0,0.0,0.0,nan,284.295652999,293.328567257,293.828621712,293.775494588,nan,nan,nan,nan
1,10,1,1,1.0,1.0,0.374758807011,0,nan,nan,nan,nan,nan,nan,nan,nan,nan,3,0.871087178923,0.199335109687,-1.0,nan,nan,nan,nan,0.0,0.0,0.0,nan,284.295652999,294.328695836,294.82872121,294.703454643,nan,nan,nan,nan
1,11,1,1,1.0,1.0,0.294613532722,1,nan,nan,nan,nan,nan,nan,nan,nan,nan,375,-0.128556699755,0.478682433309,-0.121605159467,-153.21287327,243.21287327,-20.4590017298,346.0,-0.174317561957,0.466431294057,0.176670174816,2.60066946596,284.295652999,295.328845228,295.828845228,295.623458761,299.779368781,300.782676486,297.162341258,299.771026249
1,12,1,1,1.0,1.0,0.595797714777,0,nan,nan,nan,nan,nan,nan,nan,nan,nan,186,1.0,-0.0967386681424,0.377881386018,nan,nan,nan,nan,0.0,0.0,0.0,nan,284.295652999,300.979550788,301.47960125,301.575348503,nan,nan,nan,nan
1,13,1,1,1.0,1.0,0.307683272287,0,nan,nan,nan,nan,nan,nan,nan,nan,nan,506,0.797774742377,0.236703125255,-1.0,nan,nan,nan,nan,0.0,0.0,0.0,nan,284.295652999,301.979667963,302.479685069,302.287351236,nan,nan,nan,nan
1,14,1,1,1.0,1.0,0.307544144802,0,nan,nan,nan,nan,nan,nan,nan,nan,nan,350,-0.175756816429,0.469490941964,0.138247479403,nan,nan,nan,nan,0.0,0.0,0.0,nan,284.295652999,302.979795687,303.479834461,303.287339832,nan,nan,nan,nan
1,15,1,1,1.0,1.0,0.315392603166,0,nan,nan,nan,nan,nan,nan,nan,nan,nan,52,1.0,-0.0438860552364,-1.0,nan,nan,nan,nan,0.0,0.0,0.0,nan,284.295652999,303.979925121,304.479959903,304.295317724,nan,nan,nan,nan
1,16,1,1,1.0,1.0,0.283240695484,0,nan,nan,nan,nan,nan,nan,nan,nan,nan,358,-0.170583909915,0.474268316859,0.0585874414746,nan,nan,nan,nan,0.0,0.0,0.0,nan,284.295652999,304.980049424,305.480085347,305.263290119,nan,nan,nan,nan
1,17,1,1,1.0,1.0,0.307105093263,0,nan,nan,nan,nan,nan,nan,nan,nan,nan,176,1.0,-0.150429669724,0.298675466069,nan,nan,nan,nan,0.0,0.0,0.0,nan,284.295652999,305.980179429,306.480229036,306.287284522,nan,nan,nan,nan
1,18,1,1,1.0,1.0,0.458945058286,0,nan,nan,nan,nan,nan,nan,nan,nan,nan,128,1.0,-0.310663006781,-0.156689791083,nan,nan,nan,nan,0.0,0.0,0.0,nan,284.295652999,306.980308007,307.480318842,307.439253066,nan,nan,nan,nan
1,19,1,1,1.0,1.0,0.32279431168,0,nan,nan,nan,nan,nan,nan,nan,nan,nan,425,0.149162615564,0.447529597292,-0.791715667876,nan,nan,nan,nan,0.0,0.0,0.0,nan,284.295652999,307.980430885,308.48045854,308.303225197,nan,nan,nan,nan
1,20,1,1,1.0,1.0,0.346652437933,1,nan,nan,nan,nan,nan,nan,nan,nan,nan,198,1.0,-0.0302354974571,0.462326941081,-18.3545901386,108.354590139,-30.8641598614,154.0,1.0,-0.251813147593,0.102138173725,2.07556802873,284.295652999,308.980573434,309.480578566,309.327225872,312.906016077,313.902096267,310.814080012,312.897686373
1,21,0,0,0.0,1.0,0.525226595812,0,nan,nan,nan,nan,nan,nan,nan,nan,nan,418,0.101175887384,0.455961754156,-0.661679309199,nan,nan,nan,nan,0.0,0.0,0.0,nan,284.295652999,314.097894609,314.597944216,314.623121205,nan,nan,nan,nan
1,22,1,1,1.0,1.0,0.341138646938,0,nan,nan,nan,nan,nan,nan,nan,nan,nan,248,0.568115903494,0.223728204869,0.653295769881,nan,nan,nan,nan,0.0,0.0,0.0,nan,284.295652999,315.097979568,315.598047136,315.439118215,nan,nan,nan,nan
1,23,1,1,1.0,1.0,0.388956394047,0,nan,nan,nan,nan,nan,nan,nan,nan,nan,166,1.0,-0.20036215083,0.21267421211,nan,nan,nan,nan,0.0,0.0,0.0,nan,284.295652999,316.098133806,316.598171724,316.4870902,nan,nan,nan,nan
1,24,1,1,1.0,1.0,0.340821618214,0,nan,nan,nan,nan,nan,nan,nan,nan,nan,102,1.0,-0.276610342793,-0.434926949461,nan,nan,nan,nan,0.0,0.0,0.0,nan,284.295652999,317.098256683,317.598282628,317.439078301,nan,nan,nan,nan
1,25,1,1,1.0,1.0,0.292639800347,0,nan,nan,nan,nan,nan,nan,nan,nan,nan,6,0.895129075663,0.186272780825,-1.0,nan,nan,nan,nan,0.0,0.0,0.0,nan,284.295652999,318.098410066,318.598404935,318.391049867,nan,nan,nan,nan
1,26,1,1,1.0,1.0,0.292524621822,0,nan,nan,nan,nan,nan,nan,nan,nan,nan,369,-0.147694689129,0.477999187239,-0.0564338676883,nan,nan,nan,nan,0.0,0.0,0.0,nan,284.295652999,319.098516977,319.598533228,319.391041599,nan,nan,nan,nan
1,27,1,1,1.0,1.0,0.388385058381,0,nan,nan,nan,nan,nan,nan,nan,nan,nan,510,0.830554458933,0.220436700166,-1.0,nan,nan,nan,nan,0.0,0.0,0.0,nan,284.295652999,320.098634153,320.598664658,320.487019211,nan,nan,nan,nan
1,28,1,1,1.0,1.0,0.332235896029,0,nan,nan,nan,nan,nan,nan,nan,nan,nan,168,1.0,-0.190790017254,0.230361799274,nan,nan,nan,nan,0.0,0.0,0.0,nan,284.295652999,321.09875475,321.59878668,321.430990646,nan,nan,nan,nan
1,29,1,1,1.0,1.0,0.372075751424,0,nan,nan,nan,nan,nan,nan,nan,nan,nan,251,0.535576518695,0.236509187076,0.655284151108,nan,nan,nan,nan,0.0,0.0,0.0,nan,284.295652999,322.098889031,322.598921532,322.470964782,nan,nan,nan,nan
1,30,1,1,1.0,1.0,0.355924960226,0,nan,nan,nan,nan,nan,nan,nan,nan,nan,428,0.170378320166,0.443486568519,-0.86866140055,nan,nan,nan,nan,0.0,0.0,0.0,nan,284.295652999,323.099034715,323.599042698,323.454959676,nan,nan,nan,nan
1,31,0,0,0.0,1.0,0.451785681769,0,nan,nan,nan,nan,nan,nan,nan,nan,nan,304,0.0113092810281,0.404708921832,0.506160370659,nan,nan,nan,nan,0.0,0.0,0.0,nan,284.295652999,324.099166431,324.599199502,324.550952112,nan,nan,nan,nan
1,32,1,1,1.0,1.0,0.403656607494,0,nan,nan,nan,nan,nan,nan,nan,nan,nan,451,0.343830962376,0.403518361206,-1.0,nan,nan,nan,nan,0.0,0.0,0.0,nan,284.295652999,325.099281325,325.599320669,325.502937932,nan,nan,nan,nan
1,33,0,0,0.0,1.0,0.451507710852,0,nan,nan,nan,nan,nan,nan,nan,nan,nan,370,-0.144805996584,0.478178727438,-0.0671803333712,nan,nan,nan,nan,0.0,0.0,0.0,nan,284.295652999,326.099409334,326.599448677,326.550917045,nan,nan,nan,nan
1,34,1,1,1.0,1.0,0.443354198709,0,nan,nan,nan,nan,nan,nan,nan,nan,nan,440,0.258699398066,0.424657399123,-1.0,nan,nan,nan,nan,0.0,0.0,0.0,nan,284.295652999,327.09953107,327.599571555,327.542885269,nan,nan,nan,nan
1,35,1,1,1.0,1.0,0.403206152841,0,nan,nan,nan,nan,nan,nan,nan,nan,nan,100,1.0,-0.270427092546,-0.457439896749,nan,nan,nan,nan,0.0,0.0,0.0,nan,284.295652999,328.09967533,328.599695572,328.502881483,nan,nan,nan,nan
1,36,1,1,1.0,1.0,0.323085111566,0,nan,nan,nan,nan,nan,nan,nan,nan,nan,404,0.0124894593597,0.468746268022,-0.463349101315,nan,nan,nan,nan,0.0,0.0,0.0,nan,284.295652999,329.099792791,329.599823296,329.422877902,nan,nan,nan,nan
1,37,1,1,1.0,1.0,0.29894160293,0,nan,nan,nan,nan,nan,nan,nan,nan,nan,180,1.0,-0.129278616986,0.331238955499,nan,nan,nan,nan,0.0,0.0,0.0,nan,284.295652999,330.099918518,330.599958432,330.398860121,nan,nan,nan,nan
1,38,1,1,1.0,1.0,0.298790786415,0,nan,nan,nan,nan,nan,nan,nan,nan,nan,63,1.0,-0.102744642793,-1.0,nan,nan,nan,nan,0.0,0.0,0.0,nan,284.295652999,331.100042821,331.600083306,331.398833607,nan,nan,nan,nan
1,39,1,1,1.0,1.0,0.305322662927,0,nan,nan,nan,nan,nan,nan,nan,nan,nan,301,0.0351599448551,0.39804275895,0.523414514543,nan,nan,nan,nan,0.0,0.0,0.0,nan,284.295652999,332.133517867,332.633548657,332.43884053,nan,nan,nan,nan
1,40,1,1,1.0,1.0,0.337154689245,0,nan,nan,nan,nan,nan,nan,nan,nan,nan,435,0.221263830514,0.433027056876,-1.0,nan,nan,nan,nan,0.0,0.0,0.0,nan,284.295652999,333.133638179,333.63365785,333.470792868,nan,nan,nan,nan
1,41,1,1,1.0,1.0,0.360987441614,0,nan,nan,nan,nan,nan,nan,nan,nan,nan,183,1.0,-0.113108999915,0.354902835149,nan,nan,nan,nan,0.0,0.0,0.0,nan,284.295652999,334.133777591,334.63378757,334.494765033,nan,nan,nan,nan
1,42,1,1,1.0,1.0,0.328841237351,0,nan,nan,nan,nan,nan,nan,nan,nan,nan,34,1.0,0.0514419701458,-1.0,nan,nan,nan,nan,0.0,0.0,0.0,nan,284.295652999,335.133907596,335.633929264,335.462748833,nan,nan,nan,nan
1,43,1,1,1.0,1.0,0.304715404287,0,nan,nan,nan,nan,nan,nan,nan,nan,nan,398,-0.0220377755791,0.472608796233,-0.387943383198,nan,nan,nan,nan,0.0,0.0,0.0,nan,284.295652999,336.134018213,336.634059838,336.438733618,nan,nan,nan,nan
1,44,1,1,1.0,1.0,0.360559795052,0,nan,nan,nan,nan,nan,nan,nan,nan,nan,491,0.673033477965,0.292707709811,-1.0,nan,nan,nan,nan,0.0,0.0,0.0,nan,284.295652999,337.134144227,337.634185567,337.494704022,nan,nan,nan,nan
1,45,1,1,1.0,1.0,0.28842719458,0,nan,nan,nan,nan,nan,nan,nan,nan,nan,42,1.0,0.00954878589686,-1.0,nan,nan,nan,nan,0.0,0.0,0.0,nan,284.295652999,338.134272521,338.634296469,338.422699716,nan,nan,nan,nan
1,46,1,1,1.0,1.0,0.368347812444,0,nan,nan,nan,nan,nan,nan,nan,nan,nan,110,1.0,-0.296722754836,-0.346921960777,nan,nan,nan,nan,0.0,0.0,0.0,nan,284.295652999,339.13439882,339.634421912,339.502746632,nan,nan,nan,nan
1,47,1,1,1.0,1.0,0.320128647611,0,nan,nan,nan,nan,nan,nan,nan,nan,nan,422,0.128328379107,0.451313674078,-0.730894888444,nan,nan,nan,nan,0.0,0.0,0.0,nan,284.295652999,340.134520556,340.634550491,340.454649203,nan,nan,nan,nan
1,48,1,1,1.0,1.0,0.4479933111,0,nan,nan,nan,nan,nan,nan,nan,nan,nan,208,0.97651257568,0.025020743352,0.522574479073,nan,nan,nan,nan,0.0,0.0,0.0,nan,284.295652999,341.134656548,341.634673083,341.582649859,nan,nan,nan,nan
1,49,1,1,1.0,1.0,0.343844224699,0,nan,nan,nan,nan,nan,nan,nan,nan,nan,346,-0.174317561957,0.466431294057,0.176670174816,nan,nan,nan,nan,0.0,0.0,0.0,nan,284.295652999,342.134776004,342.634804513,342.478620228,nan,nan,nan,nan
1,50,1,1,1.0,1.0,0.367716035806,0,nan,nan,nan,nan,nan,nan,nan,nan,nan,158,1.0,-0.235949227405,0.139764106,nan,nan,nan,nan,0.0,0.0,0.0,nan,284.295652999,343.134904583,343.634930527,343.502620619,nan,nan,nan,nan
1,51,1,1,1.0,1.0,0.335550159216,0,nan,nan,nan,nan,nan,nan,nan,nan,nan,413,0.0683106243366,0.461143133648,-0.585495598612,nan,nan,nan,nan,0.0,0.0,0.0,nan,284.295652999,344.135034302,344.635058821,344.470584461,nan,nan,nan,nan
1,52,1,1,1.0,1.0,0.30340965651,0,nan,nan,nan,nan,nan,nan,nan,nan,nan,315,-0.0657111424032,0.426434809442,0.434956515233,nan,nan,nan,nan,0.0,0.0,0.0,nan,284.295652999,345.135160886,345.63518626,345.438570542,nan,nan,nan,nan
1,53,1,1,1.0,1.0,0.351272447966,0,nan,nan,nan,nan,nan,nan,nan,nan,nan,407,0.0305886347219,0.46645515455,-0.502577406972,nan,nan,nan,nan,0.0,0.0,0.0,nan,284.295652999,346.135290891,346.635313698,346.486563339,nan,nan,nan,nan
1,54,1,1,1.0,1.0,0.367114194669,0,nan,nan,nan,nan,nan,nan,nan,nan,nan,217,0.891250405156,0.0735373331823,0.568048345461,nan,nan,nan,nan,0.0,0.0,0.0,nan,284.295652999,347.135433439,347.63546195,347.502547634,nan,nan,nan,nan
1,55,1,1,1.0,1.0,0.342974961735,0,nan,nan,nan,nan,nan,nan,nan,nan,nan,144,1.0,-0.284423189345,0.00519445478499,nan,nan,nan,nan,0.0,0.0,0.0,nan,284.295652999,348.135547764,348.635570857,348.478522725,nan,nan,nan,nan
1,56,1,1,1.0,1.0,0.293465728872,0,nan,nan,nan,nan,nan,nan,nan,nan,nan,39,1.0,0.0253789930673,-1.0,nan,nan,nan,nan,0.0,0.0,0.0,nan,284.295652999,349.169027086,349.669028226,349.462492815,nan,nan,nan,nan
1,57,1,1,1.0,1.0,0.277364259586,0,nan,nan,nan,nan,nan,nan,nan,nan,nan,109,1.0,-0.294638327523,-0.357773695079,nan,nan,nan,nan,0.0,0.0,0.0,nan,284.295652999,350.169137704,350.669157661,350.446501964,nan,nan,nan,nan
1,58,0,0,1.0,0.0,0.269217018969,0,0.0,0.0,0.0,nan,nan,nan,nan,nan,nan,53,1.0,-0.049257555853,-1.0,nan,nan,nan,nan,0.0,0.0,0.0,nan,284.295652999,351.169283104,351.669316745,351.438500123,nan,nan,nan,nan
1,59,1,1,1.0,1.0,0.333062110469,0,nan,nan,nan,nan,nan,nan,nan,nan,nan,269,0.34171296506,0.305888347675,0.643262349404,nan,nan,nan,nan,0.0,0.0,0.0,nan,284.295652999,352.169370344,352.669409403,352.502432454,nan,nan,nan,nan
1,60,1,1,1.0,1.0,0.30143620912,1,nan,nan,nan,nan,nan,nan,nan,nan,nan,452,0.351738073422,0.401406211611,-1.0,151.267418076,298.732581924,-19.079918076,425.0,0.149162615564,0.447529597292,-0.791715667876,1.60885234457,284.295652999,353.184990568,353.686207936,353.486426777,356.636587515,357.643856655,355.011373407,356.6282504
1,61,1,1,nan,nan,nan,0,nan,nan,nan,nan,nan,nan,nan,nan,nan,156,1.0,-0.244060613314,0.121041471254,nan,nan,nan,nan,0.0,0.0,0.0,nan,284.295652999,357.84511462,358.34517449,nan,nan,nan,nan,nan
1,62,1,1,1.0,1.0,0.441092518158,0,nan,nan,nan,nan,nan,nan,nan,nan,nan,38,1.0,0.0306259494545,-1.0,nan,nan,nan,nan,0.0,0.0,0.0,nan,284.295652999,358.845237212,359.345289385,359.28632973,nan,nan,nan,nan
1,63,1,1,1.0,1.0,0.312948743813,0,nan,nan,nan,nan,nan,nan,nan,nan,nan,487,0.639529740128,0.306295026098,-1.0,nan,nan,nan,nan,0.0,0.0,0.0,nan,284.295652999,359.845364081,360.345388029,360.158312825,nan,nan,nan,nan
1,64,1,1,1.0,1.0,0.288822910748,0,nan,nan,nan,nan,nan,nan,nan,nan,nan,237,0.686387300223,0.174031846447,0.636349816437,nan,nan,nan,nan,0.0,0.0,0.0,nan,284.295652999,360.845487243,361.345526301,361.134310154,nan,nan,nan,nan
1,65,1,1,1.0,1.0,0.288660120219,0,nan,nan,nan,nan,nan,nan,nan,nan,nan,187,1.0,-0.0912463489427,0.385383214542,nan,nan,nan,nan,0.0,0.0,0.0,nan,284.295652999,361.84562409,362.345651174,362.13428421,nan,nan,nan,nan
1,66,1,1,1.0,1.0,0.344522473402,0,nan,nan,nan,nan,nan,nan,nan,nan,nan,115,1.0,-0.305166285737,-0.293172749504,nan,nan,nan,nan,0.0,0.0,0.0,nan,284.295652999,362.845744971,363.345767494,363.190267445,nan,nan,nan,nan
1,67,1,1,1.0,1.0,0.264385180548,0,nan,nan,nan,nan,nan,nan,nan,nan,nan,398,-0.0220377755791,0.472608796233,-0.387943383198,nan,nan,nan,nan,0.0,0.0,0.0,nan,284.295652999,363.84585559,364.345896929,364.110240771,nan,nan,nan,nan
1,68,1,1,1.0,1.0,0.304248413071,0,nan,nan,nan,nan,nan,nan,nan,nan,nan,337,-0.160643365934,0.457858386897,0.259303564052,nan,nan,nan,nan,0.0,0.0,0.0,nan,284.295652999,364.845998709,365.3460295,365.150247122,nan,nan,nan,nan
1,69,1,1,1.0,1.0,0.28802891355,0,nan,nan,nan,nan,nan,nan,nan,nan,nan,135,1.0,-0.303502321856,-0.0849788702499,nan,nan,nan,nan,0.0,0.0,0.0,nan,284.295652999,365.846193145,366.346155797,366.134222059,nan,nan,nan,nan
1,70,1,1,nan,nan,nan,0,nan,nan,nan,nan,nan,nan,nan,nan,nan,82,1.0,-0.198479155091,-0.679872484948,nan,nan,nan,nan,0.0,0.0,0.0,nan,284.295652999,366.846240186,367.346330563,nan,nan,nan,nan,nan
1,71,1,1,1.0,1.0,0.303780567832,0,nan,nan,nan,nan,nan,nan,nan,nan,nan,379,-0.113535935895,0.478614986251,-0.165970515924,nan,nan,nan,nan,0.0,0.0,0.0,nan,284.295652999,367.846375608,368.346426926,368.150156176,nan,nan,nan,nan
1,72,1,1,1.0,1.0,0.327640404925,0,nan,nan,nan,nan,nan,nan,nan,nan,nan,235,0.707591924495,0.164537776567,0.631659631194,nan,nan,nan,nan,0.0,0.0,0.0,nan,284.295652999,368.846520723,369.346558926,369.174161128,nan,nan,nan,nan
1,73,0,0,0.0,1.0,0.367488812655,0,nan,nan,nan,nan,nan,nan,nan,nan,nan,180,1.0,-0.129278616986,0.331238955499,nan,nan,nan,nan,0.0,0.0,0.0,nan,284.295652999,369.846646165,370.346688075,370.214134978,nan,nan,nan,nan
1,74,1,1,1.0,1.0,0.31138156075,1,nan,nan,nan,nan,nan,nan,nan,nan,nan,36,1.0,0.0410699577143,-1.0,-149.598372702,239.598372702,-145.714127298,341.0,-0.168535884224,0.46196150489,0.223260112086,4.69257531129,284.295652999,370.846753078,371.346792421,371.158134638,377.389240921,378.391398827,372.680299569,377.380910933
1,75,1,1,1.0,1.0,0.504565271549,0,nan,nan,nan,nan,nan,nan,nan,nan,nan,356,-0.17284377641,0.473239407326,0.0788368070227,nan,nan,nan,nan,0.0,0.0,0.0,nan,284.295652999,378.589421787,379.089484794,379.093987059,nan,nan,nan,nan
1,76,1,1,1.0,1.0,0.68839948345,0,nan,nan,nan,nan,nan,nan,nan,nan,nan,199,1.0,-0.0246761787097,0.468786302982,nan,nan,nan,nan,0.0,0.0,0.0,nan,284.295652999,379.58954666,380.089610807,380.277946143,nan,nan,nan,nan
1,77,1,1,1.0,1.0,0.416277603246,0,nan,nan,nan,nan,nan,nan,nan,nan,nan,27,1.0,0.0870912575778,-1.0,nan,nan,nan,nan,0.0,0.0,0.0,nan,284.295652999,380.589678945,381.089716863,381.005956548,nan,nan,nan,nan
1,78,1,1,1.0,1.0,0.328114807606,0,nan,nan,nan,nan,nan,nan,nan,nan,nan,263,0.405698801511,0.284171736334,0.651829885785,nan,nan,nan,nan,0.0,0.0,0.0,nan,284.295652999,381.589819213,382.089833183,381.917934021,nan,nan,nan,nan
1,79,0,0,0.0,1.0,0.319982392713,0,nan,nan,nan,nan,nan,nan,nan,nan,nan,504,0.78128615449,0.244628286196,-1.0,nan,nan,nan,nan,0.0,0.0,0.0,nan,284.295652999,382.58994209,383.089977442,382.909924483,nan,nan,nan,nan
1,80,1,1,1.0,1.0,0.279860005714,0,nan,nan,nan,nan,nan,nan,nan,nan,nan,285,0.178734351563,0.356878681702,0.598527012995,nan,nan,nan,nan,0.0,0.0,0.0,nan,284.295652999,383.590035602,384.090082929,383.869895608,nan,nan,nan,nan
1,81,1,1,1.0,1.0,0.271704782732,0,0.0,0.0,0.0,0.354457864884,0.0738120991162,0.280645765768,0.428269964,0.0738120991162,0.290515727053,41,1.0,0.0148395037771,-1.0,nan,nan,nan,nan,0.0,0.0,0.0,nan,284.295652999,384.5901887,385.090220346,384.861893483,nan,nan,nan,nan
1,82,1,1,1.0,1.0,0.311528386548,0,0.0,0.0,0.0,0.353410357515,0.0739246121522,0.279485745363,0.427334969667,0.0739246121522,0.287697724998,169,1.0,-0.185917379452,0.239118302078,nan,nan,nan,nan,0.0,0.0,0.0,nan,284.295652999,385.590316994,386.090332675,385.901845381,nan,nan,nan,nan
1,83,1,1,1.0,1.0,0.381387331523,0,0.0,0.0,0.0,0.352886832878,0.0736083544439,0.279278478434,0.426495187322,0.0736083544439,0.321540166934,380,-0.109519508899,0.478533032186,-0.177177385375,nan,nan,nan,nan,0.0,0.0,0.0,nan,284.295652999,386.640460284,387.140471119,387.021847616,nan,nan,nan,nan
1,84,1,1,1.0,1.0,0.333250274882,0,0.0,0.0,0.0,0.353238690886,0.0732202358362,0.28001845505,0.426458926722,0.0732202358362,0.342055330984,213,0.929785093221,0.0521668813814,0.548906519778,nan,nan,nan,nan,0.0,0.0,0.0,nan,284.295652999,387.64058088,388.140602263,387.973831155,nan,nan,nan,nan
1,85,1,1,1.0,1.0,0.451115416363,0,0.0,0.0,0.0,0.352994929715,0.0728054626555,0.28018946706,0.425800392371,0.0728054626555,0.388584340923,14,0.95801504718,0.150023555696,-1.0,nan,nan,nan,nan,0.0,0.0,0.0,nan,284.295652999,388.690684257,389.190734434,389.141799673,nan,nan,nan,nan
1,86,1,1,1.0,1.0,0.354976724833,0,0.0,0.0,0.0,0.354177104253,0.0731530609051,0.281024043348,0.427330165158,0.0731530609051,0.379780805359,343,-0.171388175652,0.463836419185,0.204822810802,nan,nan,nan,nan,0.0,0.0,0.0,nan,284.295652999,389.690810841,390.190865864,390.045787565,nan,nan,nan,nan
1,87,1,1,1.0,1.0,0.402817564085,0,0.0,0.0,0.0,0.354186623546,0.0727163740259,0.28147024952,0.426902997572,0.0727163740259,0.40296990176,101,1.0,-0.273572672894,-0.446152610616,nan,nan,nan,nan,0.0,0.0,0.0,nan,284.295652999,390.690962798,391.190980759,391.093780362,nan,nan,nan,nan
1,88,1,1,1.0,1.0,0.354676515795,0,0.0,0.0,0.0,0.354758752258,0.0724772997764,0.282281452482,0.427236052034,0.0724772997764,0.370823601571,184,1.0,-0.107671891867,0.362640045218,nan,nan,nan,nan,0.0,0.0,0.0,nan,284.295652999,391.691072561,392.191114755,392.045749077,nan,nan,nan,nan
1,89,1,1,1.0,1.0,0.282500010915,0,0.0,0.0,0.0,0.35475779602,0.0720546885511,0.282703107469,0.426812484571,0.0720546885511,0.346664696932,356,-0.17284377641,0.473239407326,0.0788368070227,nan,nan,nan,nan,0.0,0.0,0.0,nan,284.295652999,392.69124476,393.191233071,392.973744771,nan,nan,nan,nan
1,90,1,1,1.0,1.0,0.273010815494,0,0.0,0.0,0.0,0.353927246766,0.0720522395168,0.281875007249,0.425979486283,0.0720522395168,0.303395780735,235,0.707591924495,0.164537776567,0.631659631194,nan,nan,nan,nan,0.0,0.0,0.0,nan,284.295652999,393.724700704,394.22470327,393.99771152,nan,nan,nan,nan
1,91,1,1,1.0,1.0,0.256879980676,0,1.0,0.0,0.0,0.353007741865,0.0721532270968,0.280854514768,0.425160968962,0.0721532270968,0.270796935695,393,-0.0489456633786,0.475102171109,-0.327443230616,nan,nan,nan,nan,0.0,0.0,0.0,nan,284.295652999,394.724818164,395.224852091,394.981698145,nan,nan,nan,nan
1,92,1,1,1.0,1.0,0.352744408883,1,0.0,0.0,1.0,0.351927654661,0.0724586267061,0.279469027955,0.424386281367,0.0724586267061,0.294211735018,305,0.00361192545304,0.406859252708,0.500196907155,-171.175215791,261.175215791,46.7220907909,371.0,-0.14179360683,0.478331938097,-0.0779732583494,2.42571405601,284.295652999,395.724939045,396.224990078,396.077683454,399.992123602,400.995388542,397.550148992,399.983798746
1,93,1,1,1.0,1.0,0.604921700433,0,0.0,0.0,0.0,0.351936729708,0.0720550051977,0.27988172451,0.423991734905,0.0720550051977,0.404848696664,498,0.731507943485,0.267561876527,-1.0,nan,nan,nan,nan,0.0,0.0,0.0,nan,284.295652999,401.200634171,401.700698033,401.805555872,nan,nan,nan,nan
1,94,0,0,0.0,1.0,0.492731716484,0,0.0,0.0,0.0,0.354716784331,0.0763574030493,0.278359381282,0.43107418738,0.0763574030493,0.483465941933,185,1.0,-0.102214474652,0.370299946716,nan,nan,nan,nan,0.0,0.0,0.0,nan,284.295652999,402.20082034,402.709147478,402.693552056,nan,nan,nan,nan
1,95,1,1,1.0,1.0,0.340653125197,0,0.0,0.0,0.0,0.356216946637,0.0772778934963,0.278939053141,0.433494840133,0.0772778934963,0.479435514038,278,0.248285521772,0.335802812283,0.621962573991,nan,nan,nan,nan,0.0,0.0,0.0,nan,284.295652999,403.200899312,403.700932954,403.541552437,nan,nan,nan,nan
1,96,0,0,0.0,1.0,0.50048780255,0,0.0,0.0,0.0,0.356049593718,0.0768780578638,0.279171535855,0.432927651582,0.0768780578638,0.444624214744,199,1.0,-0.0246761787097,0.468786302982,nan,nan,nan,nan,0.0,0.0,0.0,nan,284.295652999,404.201031882,404.701078353,404.701519685,nan,nan,nan,nan
1,97,1,1,1.0,1.0,0.356374844909,0,0.0,0.0,0.0,0.357586170408,0.0778905658539,0.279695604554,0.435476736262,0.0778905658539,0.399171924219,53,1.0,-0.049257555853,-1.0,nan,nan,nan,nan,0.0,0.0,0.0,nan,284.295652999,405.201144496,405.701186121,405.557519341,nan,nan,nan,nan
1,98,1,1,1.0,1.0,0.340216070414,0,0.0,0.0,0.0,0.357573419613,0.0774796295996,0.280093790014,0.435053049213,0.0774796295996,0.399026239291,168,1.0,-0.190790017254,0.230361799274,nan,nan,nan,nan,0.0,0.0,0.0,nan,284.295652999,406.201271079,406.701295883,406.54148715,nan,nan,nan,nan
1,99,1,1,1.0,1.0,0.316077692434,0,0.0,0.0,0.0,0.357392613892,0.0770951775498,0.280297436343,0.434487791442,0.0770951775498,0.337556202585,505,0.789537956352,0.240683140511,-1.0,nan,nan,nan,nan,0.0,0.0,0.0,nan,284.295652999,407.201399944,407.701425603,407.517477636,nan,nan,nan,nan
1,100,1,1,1.0,1.0,0.323556093499,0,0.0,0.0,0.0,0.356966686867,0.0768102025635,0.280156484304,0.433776889431,0.0768102025635,0.326616618782,217,0.891250405156,0.0735373331823,0.568048345461,nan,nan,nan,nan,0.0,0.0,0.0,nan,284.295652999,408.209892438,408.709886736,408.533448531,nan,nan,nan,nan
1,101,1,1,1.0,1.0,0.283484454267,0,0.0,0.0,0.0,0.356625762445,0.0764910410515,0.280134721393,0.433116803497,0.0764910410515,0.307706080067,506,0.797774742377,0.236703125255,-1.0,nan,nan,nan,nan,0.0,0.0,0.0,nan,284.295652999,409.209971695,409.710035557,409.493456149,nan,nan,nan,nan
1,102,1,1,1.0,1.0,0.291313240305,0,0.0,0.0,0.0,0.355886961352,0.0764543695349,0.279432591817,0.432341330887,0.0764543695349,0.29945126269,367,-0.15309091083,0.477560897992,-0.0350816338538,nan,nan,nan,nan,0.0,0.0,0.0,nan,284.295652999,410.210117095,410.710143609,410.501430335,nan,nan,nan,nan
1,103,1,1,1.0,1.0,0.339142106473,0,0.0,0.0,0.0,0.355241224142,0.0763419844693,0.278899239672,0.431583208611,0.0763419844693,0.304646600348,246,0.589768841079,0.215019897151,0.651339528662,nan,nan,nan,nan,0.0,0.0,0.0,nan,284.295652999,411.210252802,411.710274754,411.549394908,nan,nan,nan,nan
1,104,1,1,1.0,1.0,0.331001708284,0,0.0,0.0,0.0,0.355081826937,0.0759798354377,0.279101991499,0.431061662375,0.0759798354377,0.320485685021,457,0.391639248186,0.390358177281,-1.0,nan,nan,nan,nan,0.0,0.0,0.0,nan,284.295652999,412.210376249,412.710390504,412.541377957,nan,nan,nan,nan
1,105,1,1,1.0,1.0,0.338868127204,0,0.0,0.0,0.0,0.354845747343,0.0756436849869,0.279202062356,0.430489432329,0.0756436849869,0.336337313987,131,1.0,-0.308451667147,-0.125800503078,nan,nan,nan,nan,0.0,0.0,0.0,nan,284.295652999,413.210510815,413.710528491,413.549378943,nan,nan,nan,nan
1,106,1,1,1.0,1.0,0.298712669872,0,0.0,0.0,0.0,0.354690624817,0.0752918881803,0.279398736637,0.429982512997,0.0752918881803,0.32286083512,175,1.0,-0.155629953633,0.290361762956,nan,nan,nan,nan,0.0,0.0,0.0,nan,284.295652999,414.210625424,414.710650513,414.509338094,nan,nan,nan,nan
1,107,1,1,1.0,1.0,0.274579993449,0,0.0,0.0,0.0,0.35415237525,0.0751278941067,0.279024481143,0.429280269357,0.0751278941067,0.304053596842,16,0.973419431522,0.140652110383,-1.0,nan,nan,nan,nan,0.0,0.0,0.0,nan,284.295652999,415.210760561,415.710783369,415.485340554,nan,nan,nan,nan
1,108,1,1,1.0,1.0,0.298473472707,0,0.0,0.0,0.0,0.353394543042,0.0751676418867,0.278226901156,0.428562184929,0.0751676418867,0.290588712009,240,0.654373017221,0.188015059697,0.642463954019,nan,nan,nan,nan,0.0,0.0,0.0,nan,284.295652999,416.210892561,416.710908527,416.509366034,nan,nan,nan,nan
1,109,1,1,1.0,1.0,0.346271262504,0,0.0,0.0,0.0,0.352876419737,0.0750003885962,0.277876031141,0.427876808334,0.0750003885962,0.30644157622,398,-0.0220377755791,0.472608796233,-0.387943383198,nan,nan,nan,nan,0.0,0.0,0.0,nan,284.295652999,417.211017434,417.711055637,417.557288696,nan,nan,nan,nan
1,110,1,1,1.0,1.0,0.354193560779,0,0.0,0.0,0.0,0.352814689296,0.0746518022554,0.278162887041,0.427466491551,0.0746518022554,0.332979431997,5,0.88714030954,0.190659852496,-1.0,nan,nan,nan,nan,0.0,0.0,0.0,nan,284.295652999,418.2111386,418.711181365,418.565332161,nan,nan,nan,nan
1,111,1,1,1.0,1.0,0.369987410493,0,0.0,0.0,0.0,0.352827456625,0.0743055056743,0.27852195095,0.427132962299,0.0743055056743,0.356817411259,244,0.611372359265,0.206163547436,0.648880721676,nan,nan,nan,nan,0.0,0.0,0.0,nan,284.295652999,419.21126775,419.711321348,419.58125516,nan,nan,nan,nan
1,112,1,1,1.0,1.0,0.353853724897,0,0.0,0.0,0.0,0.352984887394,0.0739819619258,0.279002925468,0.42696684932,0.0739819619258,0.359344898723,317,-0.077772836126,0.429938605076,0.420733606481,nan,nan,nan,nan,0.0,0.0,0.0,nan,284.295652999,420.211390627,420.711420277,420.565244352,nan,nan,nan,nan
1,113,1,1,1.0,1.0,0.385702572763,0,0.0,0.0,0.0,0.352992785917,0.0736449586788,0.279347827238,0.426637744596,0.0736449586788,0.369847902718,371,-0.14179360683,0.478331938097,-0.0779732583494,nan,nan,nan,nan,0.0,0.0,0.0,nan,284.295652999,421.211526903,421.71154401,421.597229476,nan,nan,nan,nan
1,114,1,1,1.0,1.0,0.39357583411,0,0.0,0.0,0.0,0.353287468681,0.0733775921569,0.279909876524,0.426665060838,0.0733775921569,0.37771071059,219,0.871627318206,0.0840881726889,0.576959667802,nan,nan,nan,nan,0.0,0.0,0.0,nan,284.295652999,422.211643224,422.711673729,422.605219058,nan,nan,nan,nan
1,115,1,1,1.0,1.0,0.409415298142,0,0.0,0.0,0.0,0.35364718623,0.07314752366,0.28049966257,0.42679470989,0.07314752366,0.396231235005,20,1.0,0.121558187834,-1.0,nan,nan,nan,nan,0.0,0.0,0.0,nan,284.295652999,423.211778645,423.711815422,423.621193944,nan,nan,nan,nan
1,116,1,1,1.0,1.0,0.4412789708,0,0.0,0.0,0.0,0.354140709344,0.0730102007556,0.281130508588,0.427150910099,0.0730102007556,0.414756701017,444,0.289241202529,0.417409780569,-1.0,nan,nan,nan,nan,0.0,0.0,0.0,nan,284.295652999,424.211905229,424.71195284,424.6531842,nan,nan,nan,nan
1,117,1,1,1.0,1.0,0.369123278186,0,0.0,0.0,0.0,0.354905080058,0.0731420016672,0.281763078391,0.428047081726,0.0731420016672,0.406605849043,91,1.0,-0.237709898716,-0.562722318432,nan,nan,nan,nan,0.0,0.0,0.0,nan,284.295652999,425.212032097,425.71206973,425.581155376,nan,nan,nan,nan
1,118,0,0,0.0,1.0,0.488960727118,0,0.0,0.0,0.0,0.355028716564,0.0728352622297,0.282193454334,0.427863978794,0.0728352622297,0.433120992035,167,1.0,-0.195605812978,0.221546716301,nan,nan,nan,nan,0.0,0.0,0.0,nan,284.295652999,426.212176356,426.720542267,426.701137084,nan,nan,nan,nan
1,119,1,1,1.0,1.0,0.390817227773,0,0.0,0.0,0.0,0.356183302862,0.0735700066061,0.282613296256,0.429753309468,0.0735700066061,0.416300411026,76,1.0,-0.169674511773,-0.773365826749,nan,nan,nan,nan,0.0,0.0,0.0,nan,284.295652999,427.262304251,427.762319077,427.653121479,nan,nan,nan,nan
1,120,1,1,1.0,1.0,0.430689297616,0,0.0,0.0,0.0,0.356479319314,0.0733242755303,0.283155043784,0.429803594844,0.0733242755303,0.436822417503,140,1.0,-0.294209249228,-0.0345777392028,nan,nan,nan,nan,0.0,0.0,0.0,nan,284.295652999,428.262410878,428.76242941,428.693100176,nan,nan,nan,nan
1,121,1,1,1.0,1.0,0.398544233292,0,0.0,0.0,0.0,0.357108217435,0.0733291296468,0.283779087788,0.430437347082,0.0733291296468,0.406683586227,320,-0.0946500390753,0.43494401576,0.398701238857,nan,nan,nan,nan,0.0,0.0,0.0,nan,284.295652999,429.262533755,429.76259277,429.661077988,nan,nan,nan,nan
1,122,1,1,1.0,1.0,0.366381207481,0,0.0,0.0,0.0,0.357456419249,0.0731182732093,0.28433814604,0.430574692458,0.0731182732093,0.39853824613,82,1.0,-0.198479155091,-0.679872484948,nan,nan,nan,nan,0.0,0.0,0.0,nan,284.295652999,430.262682577,430.762719069,430.629063784,nan,nan,nan,nan
1,123,0,0,0.0,1.0,0.406221632846,0,0.0,0.0,0.0,0.357530792484,0.0728174962638,0.284713296221,0.430348288748,0.0728174962638,0.390382357873,463,0.440238315199,0.376011795327,-1.0,nan,nan,nan,nan,0.0,0.0,0.0,nan,284.295652999,431.262835674,431.762849644,431.669057307,nan,nan,nan,nan
1,124,1,1,1.0,1.0,0.334110414609,0,0.0,0.0,0.0,0.357933196124,0.0726498301329,0.285283365991,0.430583026257,0.0726498301329,0.368904418312,175,1.0,-0.155629953633,0.290361762956,nan,nan,nan,nan,0.0,0.0,0.0,nan,284.295652999,432.262927475,432.762951708,432.59703789,nan,nan,nan,nan
1,125,1,1,1.0,1.0,0.285943137482,0,0.0,0.0,0.0,0.357737927423,0.072383349293,0.28535457813,0.430121276716,0.072383349293,0.342091728312,349,-0.175656888649,0.468768509344,0.147945183432,nan,nan,nan,nan,0.0,0.0,0.0,nan,284.295652999,433.26307259,433.763074871,433.549015728,nan,nan,nan,nan
1,126,1,1,1.0,1.0,0.261873183772,0,0.0,0.0,0.0,0.357154229944,0.0723762299007,0.284778000043,0.429530459844,0.0723762299007,0.293975578621,459,0.407758158413,0.385709174134,-1.0,nan,nan,nan,nan,0.0,0.0,0.0,nan,284.295652999,434.263180927,434.763216849,434.525054111,nan,nan,nan,nan
1,127,1,1,1.0,1.0,0.349674190395,0,0.0,0.0,0.0,0.35638583441,0.0725857923286,0.283800042081,0.428971626739,0.0725857923286,0.299163503883,163,1.0,-0.214247802105,0.185723682048,nan,nan,nan,nan,0.0,0.0,0.0,nan,284.295652999,435.263301238,435.763327182,435.612975429,nan,nan,nan,nan
1,128,1,1,1.0,1.0,0.301550818607,0,0.0,0.0,0.0,0.356332141258,0.0722973385151,0.284034802743,0.428629479773,0.0722973385151,0.304366064258,298,0.0600896634305,0.391050340636,0.53969689008,nan,nan,nan,nan,0.0,0.0,0.0,nan,284.295652999,436.263404729,436.763484271,436.564955547,nan,nan,nan,nan
1,129,1,1,1.0,1.0,0.277448077686,0,0.0,0.0,0.0,0.355897368856,0.0721737498146,0.283723619041,0.42807111867,0.0721737498146,0.309557695563,190,1.0,-0.0746884387243,0.407399635172,nan,nan,nan,nan,0.0,0.0,0.0,nan,284.295652999,437.263546708,437.76361,437.540994786,nan,nan,nan,nan
1,130,1,1,1.0,1.0,0.26123884134,0,1.0,0.0,0.0,0.355279657902,0.0722226518411,0.283057006061,0.427502309743,0.0722226518411,0.280079245878,136,1.0,-0.301914900238,-0.074841205769,nan,nan,nan,nan,0.0,0.0,0.0,nan,284.295652999,438.263690397,438.763722043,438.524929238,nan,nan,nan,nan
1,131,1,1,1.0,1.0,0.621059947647,1,0.0,0.0,1.0,0.354544964022,0.072414860392,0.28213010363,0.426959824414,0.072414860392,0.386582288891,70,1.0,-0.13936984996,-0.906436913284,53.6261573146,36.3738426854,-12.8449073146,52.0,1.0,-0.0438860552364,-1.0,2.3006119905,284.295652999,439.263816981,439.763849767,439.884876928,443.405990133,444.409476879,441.0890064,443.397657009
1,132,0,0,0.0,1.0,0.566619949415,0,0.0,0.0,0.0,0.356610971647,0.0758262166125,0.280784755035,0.43243718826,0.0758262166125,0.482972912801,455,0.375608248681,0.394875365091,-1.0,nan,nan,nan,nan,0.0,0.0,0.0,nan,284.295652999,444.606185824,445.106231155,445.172805773,nan,nan,nan,nan
1,133,1,1,1.0,1.0,0.326513698325,0,0.0,0.0,0.0,0.358226425322,0.0777305435558,0.280495881767,0.435956968878,0.0777305435558,0.504731198462,179,1.0,-0.13461441766,0.323204131591,nan,nan,nan,nan,0.0,0.0,0.0,nan,284.295652999,445.6062762,446.106323526,445.932789898,nan,nan,nan,nan
1,134,1,1,1.0,1.0,0.342339763418,0,0.0,0.0,0.0,0.357984343437,0.0774824718996,0.280501871537,0.435466815337,0.0774824718996,0.411824470386,450,0.335949728395,0.405598329481,-1.0,nan,nan,nan,nan,0.0,0.0,0.0,nan,284.295652999,446.606424166,447.106443837,446.948763929,nan,nan,nan,nan
1,135,0,0,0.0,1.0,0.438234127127,0,0.0,0.0,0.0,0.357865823891,0.0772003385956,0.280665485296,0.435066162487,0.0772003385956,0.36902919629,110,1.0,-0.296722754836,-0.346921960777,nan,nan,nan,nan,0.0,0.0,0.0,nan,284.295652999,447.606529937,448.106600641,448.044764064,nan,nan,nan,nan
1,136,1,1,1.0,1.0,0.350065628998,0,0.0,0.0,0.0,0.358470096848,0.077222278557,0.281247818291,0.435692375405,0.077222278557,0.376879839847,50,1.0,-0.033148730948,-1.0,nan,nan,nan,nan,0.0,0.0,0.0,nan,284.295652999,448.606679899,449.106720952,448.956745528,nan,nan,nan,nan
1,137,1,1,1.0,1.0,0.349917949177,0,0.0,0.0,0.0,0.358407376939,0.0769369963501,0.281470380589,0.435344373289,0.0769369963501,0.379405901767,124,1.0,-0.311577186586,-0.198226518473,nan,nan,nan,nan,0.0,0.0,0.0,nan,284.295652999,449.60681475,450.106848962,449.956732699,nan,nan,nan,nan
1,138,1,1,1.0,1.0,0.349761145189,0,0.0,0.0,0.0,0.358344492289,0.0766549713359,0.281689520953,0.434999463625,0.0766549713359,0.349914907788,463,0.440238315199,0.376011795327,-1.0,nan,nan,nan,nan,0.0,0.0,0.0,nan,284.295652999,450.606938482,451.106976685,450.956699627,nan,nan,nan,nan
1,139,1,1,1.0,1.0,0.333609498106,0,0.0,0.0,0.0,0.358281379442,0.0763761520201,0.281905227422,0.434657531462,0.0763761520201,0.344429530824,375,-0.128556699755,0.478682433309,-0.121605159467,nan,nan,nan,nan,0.0,0.0,0.0,nan,284.295652999,451.607066492,452.107105834,451.94067599,nan,nan,nan,nan
1,140,1,1,1.0,1.0,0.389472991228,0,0.0,0.0,0.0,0.358101292717,0.0761258713659,0.281975421351,0.434227164083,0.0761258713659,0.357614544841,266,0.373577590308,0.295207490188,0.648113769863,nan,nan,nan,nan,0.0,0.0,0.0,nan,284.295652999,452.607189938,453.107209611,452.99666293,nan,nan,nan,nan
1,141,1,1,1.0,1.0,0.381355971098,0,0.0,0.0,0.0,0.358328623866,0.0758962090478,0.282432414818,0.434224832914,0.0758962090478,0.368146153477,371,-0.14179360683,0.478331938097,-0.0779732583494,nan,nan,nan,nan,0.0,0.0,0.0,nan,284.295652999,453.607299701,454.107343892,453.988655672,nan,nan,nan,nan
1,142,1,1,1.0,1.0,0.285186488181,0,0.0,0.0,0.0,0.358494288234,0.0756477453581,0.282846542876,0.434142033593,0.0756477453581,0.352005150169,433,0.206536295144,0.436163724167,-1.0,nan,nan,nan,nan,0.0,0.0,0.0,nan,284.295652999,454.607445671,455.107460496,454.892632159,nan,nan,nan,nan
1,143,1,1,1.0,1.0,0.413032050245,0,0.0,0.0,0.0,0.357970661091,0.0756294755041,0.282341185587,0.433600136595,0.0756294755041,0.359858169841,126,1.0,-0.311411754845,-0.177408431044,nan,nan,nan,nan,0.0,0.0,0.0,nan,284.295652999,455.607577386,456.107592212,456.020609437,nan,nan,nan,nan
1,144,1,1,1.0,1.0,0.332891621627,0,0.0,0.0,0.0,0.358361167397,0.0755023231928,0.282858844204,0.43386349059,0.0755023231928,0.343703386684,345,-0.173519535469,0.465595146217,0.186119282857,nan,nan,nan,nan,0.0,0.0,0.0,nan,284.295652999,456.607726778,457.107722786,456.9406184,nan,nan,nan,nan
1,145,1,1,1.0,1.0,0.380743865855,0,0.0,0.0,0.0,0.358181804399,0.0752661401589,0.28291566424,0.433447944558,0.0752661401589,0.375555845909,124,1.0,-0.311577186586,-0.198226518473,nan,nan,nan,nan,0.0,0.0,0.0,nan,284.295652999,457.607830268,458.107840816,457.988574134,nan,nan,nan,nan
1,146,1,1,1.0,1.0,0.396640635096,0,0.0,0.0,0.0,0.358339581052,0.0750260714675,0.283313509585,0.43336565252,0.0750260714675,0.370092040859,489,0.656284860842,0.299572439858,-1.0,nan,nan,nan,nan,0.0,0.0,0.0,nan,284.295652999,458.607930623,459.107987072,459.004571258,nan,nan,nan,nan
1,147,1,1,1.0,1.0,0.380443657748,0,0.0,0.0,0.0,0.358605560594,0.0748327354106,0.283772825184,0.433438296005,0.0748327354106,0.385942719566,378,-0.117450136118,0.478670924818,-0.154810124165,nan,nan,nan,nan,0.0,0.0,0.0,nan,284.295652999,459.60808372,460.108106528,459.988527378,nan,nan,nan,nan
1,148,1,1,1.0,1.0,0.364320805296,0,0.0,0.0,0.0,0.358756168161,0.0745961414888,0.284160026672,0.43335230965,0.0745961414888,0.380468366047,35,1.0,0.0462653595507,-1.0,nan,nan,nan,nan,0.0,0.0,0.0,nan,284.295652999,460.608191487,461.108222278,460.972512293,nan,nan,nan,nan
1,149,1,1,1.0,1.0,0.372154723853,0,0.0,0.0,0.0,0.358794282114,0.0743416530041,0.28445262911,0.433135935118,0.0743416530041,0.372306395633,259,0.44882283482,0.268906983076,0.655011783756,nan,nan,nan,nan,0.0,0.0,0.0,nan,284.295652999,461.60834544,462.108350001,461.980500164,nan,nan,nan,nan
1,150,1,1,1.0,1.0,0.364018031396,0,0.0,0.0,0.0,0.358885169473,0.0740964974491,0.284788672024,0.432981666922,0.0740964974491,0.366831186848,469,0.489482198204,0.360453357602,-1.0,nan,nan,nan,nan,0.0,0.0,0.0,nan,284.295652999,462.608460905,463.108488559,462.972478936,nan,nan,nan,nan
1,151,1,1,1.0,1.0,0.403908633627,0,0.0,0.0,0.0,0.358919850972,0.0738469443268,0.285072906645,0.432766795299,0.0738469443268,0.380027129625,274,0.289344050657,0.322900892411,0.632670269059,nan,nan,nan,nan,0.0,0.0,0.0,nan,284.295652999,463.608571808,464.108631678,464.012480441,nan,nan,nan,nan
1,152,1,1,1.0,1.0,0.411725730635,0,0.0,0.0,0.0,0.359221789111,0.0736903252974,0.285531463813,0.432912114408,0.0736903252974,0.393217465219,382,-0.1011887567,0.478291136399,-0.199732273247,nan,nan,nan,nan,0.0,0.0,0.0,nan,284.295652999,464.608726046,465.108742867,465.020451777,nan,nan,nan,nan
1,153,0,0,0.0,1.0,0.547550610267,0,0.0,0.0,0.0,0.359571815388,0.0735684546727,0.286003360715,0.43314027006,0.0735684546727,0.45439499151,230,0.760023132926,0.140224214653,0.61781109556,nan,nan,nan,nan,0.0,0.0,0.0,nan,284.295652999,465.608872301,466.108909934,466.156422911,nan,nan,nan,nan
1,154,1,1,1.0,1.0,0.403447060846,0,0.0,0.0,0.0,0.360816708069,0.0748928436416,0.285923864427,0.435709551711,0.0748928436416,0.454241133916,32,1.0,0.061735800531,-1.0,nan,nan,nan,nan,0.0,0.0,0.0,nan,284.295652999,466.608975221,467.109025398,467.012422282,nan,nan,nan,nan
1,155,1,1,1.0,1.0,0.276139194146,0,0.0,0.0,0.0,0.361097170916,0.0747255959585,0.286371574958,0.435822766875,0.0747255959585,0.409045621753,298,0.0600896634305,0.391050340636,0.53969689008,nan,nan,nan,nan,0.0,0.0,0.0,nan,284.295652999,467.640274686,468.142468513,467.91641388,nan,nan,nan,nan
1,156,1,1,1.0,1.0,0.305847812444,0,0.0,0.0,0.0,0.360541890022,0.0747949578602,0.285746932162,0.435336847882,0.0747949578602,0.328478022479,446,0.304696255059,0.41359904426,-1.0,nan,nan,nan,nan,0.0,0.0,0.0,nan,284.295652999,468.642549481,469.142589965,468.948397294,nan,nan,nan,nan
1,157,1,1,1.0,1.0,0.313676883467,0,0.0,0.0,0.0,0.360186733674,0.0746810417942,0.28550569188,0.434867775469,0.0746810417942,0.298554630019,262,0.416452475899,0.2804144186,0.652815538838,nan,nan,nan,nan,0.0,0.0,0.0,nan,284.295652999,469.642700013,470.142721965,469.956376896,nan,nan,nan,nan
1,158,1,1,1.0,1.0,0.329543433152,0,0.0,0.0,0.0,0.359886670125,0.0745328220745,0.28535384805,0.434419492199,0.0745328220745,0.316356043021,157,1.0,-0.240048375319,0.130425901556,nan,nan,nan,nan,0.0,0.0,0.0,nan,284.295652999,470.64282403,471.142843987,470.972367464,nan,nan,nan,nan
1,159,0,0,0.0,1.0,0.465367456898,0,0.0,0.0,0.0,0.359692162195,0.0743330064736,0.285359155722,0.434025168669,0.0743330064736,0.369529257839,370,-0.144805996584,0.478178727438,-0.0671803333712,nan,nan,nan,nan,0.0,0.0,0.0,nan,284.295652999,471.642961447,472.142992808,472.108328904,nan,nan,nan,nan
1,160,1,1,1.0,1.0,0.361242604442,0,0.0,0.0,0.0,0.360365253244,0.0745712966943,0.28579395655,0.434936549939,0.0745712966943,0.385384498164,276,0.268710435127,0.329430325417,0.627563005949,nan,nan,nan,nan,0.0,0.0,0.0,nan,284.295652999,472.643074347,473.143096584,473.004316951,nan,nan,nan,nan
1,161,1,1,1.0,1.0,0.281067965552,0,0.0,0.0,0.0,0.3603708061,0.0743349695595,0.286035836541,0.43470577566,0.0743349695595,0.369226008964,216,0.900975005756,0.0682271079607,0.563426584804,nan,nan,nan,nan,0.0,0.0,0.0,nan,284.295652999,473.643235711,474.143222597,473.924303677,nan,nan,nan,nan
1,162,1,1,1.0,1.0,0.296637442894,0,0.0,0.0,0.0,0.359872046097,0.0743655785298,0.285506467567,0.434237624626,0.0743655785298,0.312982670963,450,0.335949728395,0.405598329481,-1.0,nan,nan,nan,nan,0.0,0.0,0.0,nan,284.295652999,474.651646382,475.151704827,474.948283825,nan,nan,nan,nan
1,163,1,1,1.0,1.0,0.272461432032,0,1.0,0.0,0.0,0.359476829827,0.0743001374343,0.285176692392,0.433776967261,0.0743001374343,0.283388946826,405,0.018463324075,0.468009379796,-0.476293327428,nan,nan,nan,nan,0.0,0.0,0.0,nan,284.295652999,475.651796059,476.151810599,475.924257491,nan,nan,nan,nan
1,164,1,1,1.0,1.0,0.448354814202,1,0.0,0.0,1.0,0.358936361517,0.0743838591165,0.284552502401,0.433320220634,0.0743838591165,0.339151229709,52,1.0,-0.0438860552364,-1.0,-23.5286316761,113.528631676,76.9661316761,161.0,1.0,-0.223158351501,0.167490545043,2.60894357599,284.295652999,476.65190069,477.151936327,477.100255504,481.102439924,482.098444848,478.477132874,481.094108795
1,165,1,1,1.0,1.0,0.621831137687,0,0.0,0.0,0.0,0.359488327275,0.0744839290722,0.285004398202,0.433972256347,0.0744839290722,0.447549127974,453,0.359670421306,0.39926174925,-1.0,nan,nan,nan,nan,0.0,0.0,0.0,nan,284.295652999,482.294295933,482.794371485,482.916127071,nan,nan,nan,nan
1,166,1,1,1.0,1.0,0.45369241666,0,0.0,0.0,0.0,0.361097792369,0.0770289619807,0.284068830388,0.43812675435,0.0770289619807,0.507959456183,381,-0.105403061426,0.478425078289,-0.188431136224,nan,nan,nan,nan,0.0,0.0,0.0,nan,284.295652999,483.294425082,483.794457014,483.748117499,nan,nan,nan,nan
1,167,1,1,1.0,1.0,0.29355353862,0,0.0,1.0,0.0,0.361662393737,0.0771313271018,0.284531066635,0.438793720839,0.0771313271018,0.456359030989,221,0.851781464038,0.0945411604707,0.585422935822,nan,nan,nan,nan,0.0,0.0,0.0,nan,284.295652999,484.294555088,484.794588444,484.588108626,nan,nan,nan,nan
1,168,1,1,1.0,1.0,0.261408474296,1,0.0,0.0,1.0,0.361249612797,0.0770787211869,0.28417089161,0.438328333984,0.0770787211869,0.336218143192,499,0.739831889234,0.263827757734,-1.0,121.22498168,328.77501832,-22.0843566803,468.0,0.481236483515,0.363131620867,-1.0,2.05054670293,284.295652999,485.294692504,485.794734129,485.556100979,489.186800655,490.194706132,487.119878503,489.178467245
1,169,1,1,1.0,1.0,0.432673294097,0,0.0,0.0,0.0,0.360648160155,0.0772335891676,0.283414570988,0.437881749323,0.0772335891676,0.329211769005,326,-0.12383419111,0.444071765824,0.352223541474,nan,nan,nan,nan,0.0,0.0,0.0,nan,284.295652999,490.395332321,490.89535684,490.828005615,nan,nan,nan,nan
1,170,1,1,1.0,1.0,0.304524388164,0,0.0,0.0,0.0,0.361079448382,0.0772022418858,0.283877206497,0.438281690268,0.0772022418858,0.332868718853,463,0.440238315199,0.376011795327,-1.0,nan,nan,nan,nan,0.0,0.0,0.0,nan,284.295652999,491.395468598,491.895527328,491.699992986,nan,nan,nan,nan
1,171,0,0,0.0,1.0,0.504350878298,0,0.0,0.0,0.0,0.360742811119,0.0770949678624,0.283647843257,0.437837778982,0.0770949678624,0.413849520187,351,-0.175686286722,0.4701852659,0.128489978773,nan,nan,nan,nan,0.0,0.0,0.0,nan,284.295652999,492.395606585,492.895654767,492.899957463,nan,nan,nan,nan
1,172,1,1,1.0,1.0,0.392215346918,0,0.0,0.0,0.0,0.361592562996,0.0776516180366,0.283940944959,0.439244181033,0.0776516180366,0.400363537793,398,-0.0220377755791,0.472608796233,-0.387943383198,nan,nan,nan,nan,0.0,0.0,0.0,nan,284.295652999,493.395725471,493.895762819,493.787940818,nan,nan,nan,nan
1,173,1,1,1.0,1.0,0.432064610533,0,0.0,0.0,0.0,0.361772697019,0.0774583002857,0.284314396733,0.439230997305,0.0774583002857,0.44287694525,55,1.0,-0.0599996532909,-1.0,nan,nan,nan,nan,0.0,0.0,0.0,nan,284.295652999,494.395850629,494.895895389,494.827915239,nan,nan,nan,nan
1,174,1,1,1.0,1.0,0.39992781356,0,0.0,0.0,0.0,0.362183760841,0.0774172286452,0.284766532196,0.439600989486,0.0774172286452,0.408069257004,268,0.35230222188,0.302367520405,0.645005310408,nan,nan,nan,nan,0.0,0.0,0.0,nan,284.295652999,495.395979778,495.89600002,495.795907591,nan,nan,nan,nan
1,175,0,0,0.0,1.0,0.487773580477,0,0.0,0.0,0.0,0.362403203008,0.0772451698519,0.285158033156,0.43964837286,0.0772451698519,0.439922001523,17,0.981069150956,0.135921910835,-1.0,nan,nan,nan,nan,0.0,0.0,0.0,nan,284.295652999,496.396120331,496.904483961,496.883893912,nan,nan,nan,nan
1,176,1,1,1.0,1.0,0.591619322076,0,0.0,0.0,0.0,0.363127887271,0.0776057650585,0.285522122212,0.440733652329,0.0776057650585,0.493106905371,65,1.0,-0.113312155659,-1.0,nan,nan,nan,nan,0.0,0.0,0.0,nan,284.295652999,497.39623323,497.896296807,497.987852552,nan,nan,nan,nan
1,177,1,1,1.0,1.0,0.463503202423,0,0.0,0.0,0.0,0.364441056436,0.079286602307,0.285154454129,0.443727658743,0.079286602307,0.514298701659,488,0.647907709101,0.302951493728,-1.0,nan,nan,nan,nan,0.0,0.0,0.0,nan,284.295652999,498.396359813,498.896406,498.859863016,nan,nan,nan,nan
1,178,1,1,1.0,1.0,0.311416627839,0,0.0,1.0,0.0,0.365007125842,0.0794115787115,0.28559554713,0.444418704553,0.0794115787115,0.45551305078,337,-0.160643365934,0.457858386897,0.259303564052,nan,nan,nan,nan,0.0,0.0,0.0,nan,284.295652999,499.396488108,499.896530587,499.707904736,nan,nan,nan,nan
1,179,1,1,1.0,1.0,0.271201870404,1,0.0,0.0,1.0,0.364702634376,0.0792880400345,0.284800652725,0.443548110219,0.0792880400345,0.348707233556,459,0.407758158413,0.385709174134,-1.0,138.089156375,311.910843625,-10.8235313753,444.0,0.289241202529,0.417409780569,-1.0,0.775390242226,284.295652999,500.396613835,500.896640065,500.667815706,503.013564954,504.016066117,502.221804965,503.005233255
1,180,1,1,nan,nan,nan,0,0.0,0.0,0.0,0.364174381472,0.0793737287471,0.284800652725,0.443548110219,0.0793737287471,0.291309249122,221,0.851781464038,0.0945411604707,0.585422935822,nan,nan,nan,nan,0.0,0.0,0.0,nan,284.295652999,504.213758934,504.713838192,nan,nan,nan,nan,nan
1,181,1,1,1.0,1.0,0.333853541873,0,0.0,0.0,0.0,0.364174381472,0.0793737287471,0.284800652725,0.443548110219,0.0793737287471,0.302527706139,475,0.539218753276,0.343659807328,-1.0,nan,nan,nan,nan,0.0,0.0,0.0,nan,284.295652999,505.213873544,505.713911177,505.547727086,nan,nan,nan,nan
1,182,1,1,1.0,1.0,0.349680177867,0,0.0,0.0,0.0,0.364004039677,0.0791828920031,0.284821147673,0.44318693168,0.0791828920031,0.34176685987,212,0.93926288676,0.0467731277665,0.543851001166,nan,nan,nan,nan,0.0,0.0,0.0,nan,284.295652999,506.214024075,506.714042607,506.563704253,nan,nan,nan,nan
1,183,1,1,1.0,1.0,0.349554734305,0,0.0,0.0,0.0,0.363924018102,0.0789686181748,0.284955399927,0.442892636277,0.0789686181748,0.344362818015,376,-0.124962824795,0.478704673615,-0.132627625282,nan,nan,nan,nan,0.0,0.0,0.0,nan,284.295652999,507.214146667,507.714173752,507.563701401,nan,nan,nan,nan
1,184,1,1,1.0,1.0,0.333401376382,0,0.0,0.0,0.0,0.363844188748,0.0787561978065,0.285087990941,0.442600386554,0.0787561978065,0.344212096184,36,1.0,0.0410699577143,-1.0,nan,nan,nan,nan,0.0,0.0,0.0,nan,284.295652999,508.214277242,508.714297485,508.547678619,nan,nan,nan,nan
1,185,0,0,1.0,0.0,0.293244208209,0,0.0,0.0,0.0,0.363675996414,0.0785707482613,0.285105248153,0.442246744676,0.0785707482613,0.325400106298,321,-0.0999433513493,0.43654647086,0.391174984052,nan,nan,nan,nan,0.0,0.0,0.0,nan,284.295652999,509.214420646,509.714451437,509.507664855,nan,nan,nan,nan
1,186,1,1,1.0,1.0,0.485119033605,0,0.0,0.0,0.0,0.363289008567,0.0785273799052,0.284761628662,0.441816388472,0.0785273799052,0.370588206065,240,0.654373017221,0.188015059697,0.642463954019,nan,nan,nan,nan,0.0,0.0,0.0,nan,284.295652999,510.214520146,510.71454723,510.69963918,nan,nan,nan,nan
1,187,1,1,1.0,1.0,0.340644856915,0,0.0,0.0,0.0,0.363954746409,0.0788258590476,0.285128887361,0.442780605456,0.0788258590476,0.373002699576,396,-0.0330153705648,0.473684876347,-0.363523780775,nan,nan,nan,nan,0.0,0.0,0.0,nan,284.295652999,511.22298584,511.723015776,511.563630697,nan,nan,nan,nan
1,188,1,1,1.0,1.0,0.292486132123,0,0.0,0.0,0.0,0.363828062227,0.0786300444551,0.285198017772,0.442458106682,0.0786300444551,0.372750007547,36,1.0,0.0410699577143,-1.0,nan,nan,nan,nan,0.0,0.0,0.0,nan,284.295652999,512.223120977,512.723144925,512.515607109,nan,nan,nan,nan
1,189,1,1,1.0,1.0,0.31632743869,0,0.0,0.0,0.0,0.363442430172,0.0785915199057,0.284850910266,0.442033950078,0.0785915199057,0.316486142576,310,-0.032854544558,0.417080732083,0.468828018046,nan,nan,nan,nan,0.0,0.0,0.0,nan,284.295652999,513.22326039,513.72327721,513.539587828,nan,nan,nan,nan
1,190,1,1,1.0,1.0,0.356189530343,0,0.0,0.0,0.0,0.363189123766,0.0784556543154,0.284733469451,0.441644778082,0.0784556543154,0.321667700385,220,0.861731547614,0.0893272636146,0.581247684387,nan,nan,nan,nan,0.0,0.0,0.0,nan,284.295652999,514.223386688,514.723398092,514.579576219,nan,nan,nan,nan
1,191,1,1,1.0,1.0,0.324017667212,0,0.0,0.0,0.0,0.363151692785,0.0782472638944,0.284904428891,0.44139895668,0.0782472638944,0.332178212081,385,-0.0879796604702,0.477733444059,-0.233926720364,nan,nan,nan,nan,0.0,0.0,0.0,nan,284.295652999,515.223521254,515.723532943,515.547538921,nan,nan,nan,nan
1,192,1,1,1.0,1.0,0.363892588764,0,0.0,0.0,0.0,0.362943533075,0.0780907798665,0.284852753208,0.441034312941,0.0780907798665,0.348033262106,318,-0.0835627602325,0.431640264478,0.413481556053,nan,nan,nan,nan,0.0,0.0,0.0,nan,284.295652999,516.223632728,516.723652114,516.587525317,nan,nan,nan,nan
1,193,1,1,1.0,1.0,0.379762274213,0,0.0,0.0,0.0,0.362948554533,0.0778839469428,0.285064607591,0.440832501476,0.0778839469428,0.355890843396,122,1.0,-0.311159539646,-0.219144224573,nan,nan,nan,nan,0.0,0.0,0.0,nan,284.295652999,517.22375646,517.723774991,517.603518734,nan,nan,nan,nan
1,194,1,1,1.0,1.0,0.31560186483,0,0.0,0.0,0.0,0.363037047795,0.0776882450785,0.285348802717,0.440725292873,0.0776882450785,0.353085575936,314,-0.0594438881467,0.42463230952,0.441925406839,nan,nan,nan,nan,0.0,0.0,0.0,nan,284.295652999,518.22390357,518.723907562,518.539505435,nan,nan,nan,nan
1,195,1,1,1.0,1.0,0.339470254257,0,0.0,0.0,0.0,0.362788696052,0.0775601899832,0.285228506069,0.440348886035,0.0775601899832,0.344944797767,499,0.739831889234,0.263827757734,-1.0,nan,nan,nan,nan,0.0,0.0,0.0,nan,284.295652999,519.224012477,519.724038422,519.563482732,nan,nan,nan,nan
1,196,0,0,0.0,1.0,0.539289331064,0,0.0,0.0,0.0,0.362667245834,0.0773761538724,0.285291091962,0.440043399706,0.0773761538724,0.398120483384,109,1.0,-0.294638327523,-0.357773695079,nan,nan,nan,nan,0.0,0.0,0.0,nan,284.295652999,520.224159588,520.724203208,520.763448919,nan,nan,nan,nan
1,197,1,1,1.0,1.0,0.35516460333,0,0.0,0.0,0.0,0.363582386172,0.0782102590274,0.285372127145,0.441792645199,0.0782102590274,0.411308062884,306,-0.00395437407881,0.408974006242,0.494128827808,nan,nan,nan,nan,0.0,0.0,0.0,nan,284.295652999,521.224275623,521.724302422,521.579440227,nan,nan,nan,nan
1,198,1,1,1.0,1.0,0.275056107901,0,0.0,0.0,0.0,0.363538995539,0.0780107547741,0.285528240765,0.441549750313,0.0780107547741,0.389836680765,118,1.0,-0.308588151016,-0.261285249573,nan,nan,nan,nan,0.0,0.0,0.0,nan,284.295652999,522.224401636,522.724443831,522.499457744,nan,nan,nan,nan
1,199,1,1,1.0,1.0,0.410881841555,0,0.0,0.0,0.0,0.363085237141,0.0780667228253,0.285018514315,0.441151959966,0.0780667228253,0.347034184262,344,-0.172543464245,0.464730234515,0.195503824632,nan,nan,nan,nan,0.0,0.0,0.0,nan,284.295652999,523.224531356,523.724567278,523.635413198,nan,nan,nan,nan
1,200,1,1,1.0,1.0,0.394743024372,0,0.0,0.0,0.0,0.363329097367,0.0779417442113,0.285387353156,0.441270841579,0.0779417442113,0.360226991276,101,1.0,-0.273572672894,-0.446152610616,nan,nan,nan,nan,0.0,0.0,0.0,nan,284.295652999,524.224657369,524.724677896,524.619400393,nan,nan,nan,nan
1,201,1,1,1.0,1.0,0.30658365041,0,0.0,0.0,0.0,0.363488558926,0.0777757175601,0.285712841366,0.441264276486,0.0777757175601,0.370736172112,273,0.299732959835,0.319577193062,0.635038033336,nan,nan,nan,nan,0.0,0.0,0.0,nan,284.295652999,525.224783667,525.724825292,525.531367318,nan,nan,nan,nan
1,202,1,1,1.0,1.0,0.282455536537,0,0.0,0.0,0.0,0.363201160398,0.0776838671257,0.285517293272,0.440885027524,0.0776838671257,0.327927403773,158,1.0,-0.235949227405,0.139764106,nan,nan,nan,nan,0.0,0.0,0.0,nan,284.295652999,526.224916237,526.724951875,526.507371774,nan,nan,nan,nan
1,203,1,1,1.0,1.0,0.258307466283,0,1.0,0.0,0.0,0.362795403494,0.0776984949887,0.285096908505,0.440493898483,0.0776984949887,0.28244888441,406,0.0244967455079,0.467245700284,-0.489366101921,nan,nan,nan,nan,0.0,0.0,0.0,nan,284.295652999,527.225038259,527.725055081,527.483345726,nan,nan,nan,nan
1,204,1,1,1.0,1.0,0.250238911249,1,0.0,0.0,1.0,0.362272963808,0.0778536225539,0.284419341254,0.440126586362,0.0778536225539,0.26366730469,285,0.178734351563,0.356878681702,0.598527012995,-105.345277212,195.345277212,-5.04534778833,278.0,0.248285521772,0.335802812283,0.621962573991,1.58383187465,284.295652999,528.225163133,528.725181093,528.475402044,531.650550181,532.657191535,530.050353407,531.642216487
1,205,1,1,1.0,1.0,0.472122849897,0,0.0,0.0,0.0,0.361715580462,0.0780587383111,0.283656842151,0.439774318773,0.0780587383111,0.326889742476,36,1.0,0.0410699577143,-1.0,nan,nan,nan,nan,0.0,0.0,0.0,nan,284.295652999,532.859131739,533.359110928,533.331254589,nan,nan,nan,nan
1,206,1,1,1.0,1.0,0.344032389112,0,0.0,0.0,0.0,0.362262151103,0.0782499141727,0.28401223693,0.440512065275,0.0782499141727,0.355464716752,178,1.0,-0.139919655122,0.315097826042,nan,nan,nan,nan,0.0,0.0,0.0,nan,284.295652999,533.859212138,534.359242928,534.203244527,nan,nan,nan,nan
1,207,1,1,1.0,1.0,0.279875970446,0,0.0,0.0,0.0,0.362172349319,0.0780673764483,0.284104972871,0.440239725768,0.0780673764483,0.365343736485,233,0.728670395113,0.154909781369,0.626482233315,nan,nan,nan,nan,0.0,0.0,0.0,nan,284.295652999,534.859329313,535.359366375,535.139205283,nan,nan,nan,nan
1,208,0,0,1.0,0.0,0.231686741114,0,0.0,0.0,0.0,0.361768935697,0.078087623401,0.283681312296,0.439856559098,0.078087623401,0.28519836689,303,0.0191349273956,0.402522842081,0.512018356663,nan,nan,nan,nan,0.0,0.0,0.0,nan,284.295652999,535.859517192,536.359526316,536.091203934,nan,nan,nan,nan
1,209,1,1,1.0,1.0,0.327572836541,0,0.0,0.0,0.0,0.361134388407,0.0784223999683,0.282711988439,0.439556788375,0.0784223999683,0.279711849367,253,0.513865899396,0.244839928328,0.655977188727,nan,nan,nan,nan,0.0,0.0,0.0,nan,284.295652999,536.859588467,537.359620398,537.187161303,nan,nan,nan,nan
1,210,1,1,1.0,1.0,0.351421554573,0,0.0,0.0,0.0,0.360971468252,0.0782665918807,0.282704876371,0.439238060133,0.0782665918807,0.303560377409,143,1.0,-0.287057525782,-0.00469998909502,nan,nan,nan,nan,0.0,0.0,0.0,nan,284.295652999,537.859724458,538.359741564,538.211146013,nan,nan,nan,nan
1,211,1,1,1.0,1.0,0.359302228317,0,0.0,0.0,0.0,0.360925333403,0.0780801210457,0.282845212358,0.439005454449,0.0780801210457,0.346098873143,362,-0.164239727892,0.476000155386,0.0174578511848,nan,nan,nan,nan,0.0,0.0,0.0,nan,284.295652999,538.859853323,539.359876131,539.219155551,nan,nan,nan,nan
1,212,1,1,1.0,1.0,0.319170719013,0,0.0,0.0,0.0,0.360917530014,0.077892283223,0.283025246791,0.438809813237,0.077892283223,0.343298167301,121,1.0,-0.310732805591,-0.229640808446,nan,nan,nan,nan,0.0,0.0,0.0,nan,284.295652999,539.859987319,540.360018964,540.179158038,nan,nan,nan,nan
1,213,1,1,1.0,1.0,0.359016845934,0,0.0,0.0,0.0,0.360717784506,0.077759095436,0.28295868907,0.438476879942,0.077759095436,0.345829931088,452,0.351738073422,0.401406211611,-1.0,nan,nan,nan,nan,0.0,0.0,0.0,nan,284.295652999,540.860090239,541.360139846,541.219107085,nan,nan,nan,nan
1,214,1,1,1.0,1.0,0.350845657289,0,0.0,0.0,0.0,0.360709684799,0.0775738221778,0.283135862621,0.438283506977,0.0775738221778,0.343011074079,234,0.71814774995,0.15974031316,0.62913160129,nan,nan,nan,nan,0.0,0.0,0.0,nan,284.295652999,541.86024191,542.360272701,542.211087568,nan,nan,nan,nan
1,215,1,1,1.0,1.0,0.366701942869,0,0.0,0.0,0.0,0.360662935853,0.0773927447472,0.283270191106,0.438055680601,0.0773927447472,0.358854815364,451,0.343830962376,0.403518361206,-1.0,nan,nan,nan,nan,0.0,0.0,0.0,nan,284.295652999,542.860368779,543.36038389,543.227070722,nan,nan,nan,nan
1,216,1,1,1.0,1.0,0.542552274652,0,0.0,0.0,0.0,0.360691421736,0.0772111076858,0.28348031405,0.437902529421,0.0772111076858,0.420033291603,9,0.918933560847,0.172916688009,-1.0,nan,nan,nan,nan,0.0,0.0,0.0,nan,284.295652999,543.860491087,544.360556944,544.403043361,nan,nan,nan,nan
1,217,1,1,1.0,1.0,0.430419595912,0,0.0,1.0,0.0,0.361545228557,0.0780263524642,0.283518876093,0.439571581021,0.0780263524642,0.446557937811,129,1.0,-0.310070485259,-0.146368003411,nan,nan,nan,nan,0.0,0.0,0.0,nan,284.295652999,544.860621946,545.360670413,545.291041542,nan,nan,nan,nan
1,218,1,1,1.0,1.0,0.390255299397,1,0.0,0.0,1.0,0.361867071395,0.0779854197779,0.283881651617,0.439852491173,0.0779854197779,0.454409056654,455,0.375608248681,0.394875365091,-1.0,163.849366364,286.150633636,-33.7712413637,407.0,0.0305886347219,0.46645515455,-0.502577406972,1.39221506193,284.295652999,545.860753947,546.36080612,546.251009246,549.10281996,550.113289322,547.694265941,549.094488545
1,219,1,1,1.0,1.0,0.331625501625,0,0.0,0.0,0.0,0.361999109665,0.0778278195767,0.284171290088,0.439826929241,0.0778278195767,0.384100132311,218,0.881467392804,0.0788246127756,0.572559633417,nan,nan,nan,nan,0.0,0.0,0.0,nan,284.295652999,550.311293751,550.811332239,550.642919253,nan,nan,nan,nan
1,220,1,1,1.0,1.0,0.323481112719,0,0.0,0.0,0.0,0.361858491109,0.0776748245443,0.284183666565,0.439533315653,0.0776748245443,0.348453971247,327,-0.128086156831,0.445480682368,0.344176439252,nan,nan,nan,nan,0.0,0.0,0.0,nan,284.295652999,551.311455687,551.811461673,551.634936799,nan,nan,nan,nan
1,221,1,1,1.0,1.0,0.30729981605,0,0.0,0.0,0.0,0.361681636831,0.0775392204446,0.284142416386,0.439220857275,0.0775392204446,0.320802143464,204,1.0,0.00303256528985,0.499654420455,nan,nan,nan,nan,0.0,0.0,0.0,nan,284.295652999,552.311599661,552.811592533,552.618899477,nan,nan,nan,nan
1,222,1,1,1.0,1.0,0.283181965351,0,0.0,0.0,0.0,0.361432178937,0.0774484018797,0.283983777057,0.438880580817,0.0774484018797,0.30465429804,372,-0.138660017671,0.478458869494,-0.0888123791441,nan,nan,nan,nan,0.0,0.0,0.0,nan,284.295652999,553.311691462,553.811715125,553.594873427,nan,nan,nan,nan
1,223,1,1,1.0,1.0,0.267042293213,0,0.0,0.0,0.0,0.361074872026,0.0774512578051,0.283623614221,0.438526129831,0.0774512578051,0.285841358205,506,0.797774742377,0.236703125255,-1.0,nan,nan,nan,nan,0.0,0.0,0.0,nan,284.295652999,554.311823177,554.811843419,554.57886547,nan,nan,nan,nan
1,224,1,1,1.0,1.0,0.28292366676,0,1.0,0.0,0.0,0.360647451213,0.07753347227,0.283113978943,0.438180923483,0.07753347227,0.277715975108,368,-0.150457169737,0.477793263397,-0.0457341785459,nan,nan,nan,nan,0.0,0.0,0.0,nan,284.295652999,555.311948906,555.81197656,555.594872572,nan,nan,nan,nan
1,225,1,1,1.0,1.0,0.330743124709,1,0.0,0.0,1.0,0.360295759881,0.0775335368331,0.282762223048,0.437829296714,0.0775335368331,0.293569694894,194,1.0,-0.0524864644427,0.435571704399,-51.2613263043,141.261326304,4.8550763043,201.0,1.0,-0.0135712615467,0.48142235136,2.3255740162,284.295652999,556.312082902,556.812123955,556.642826026,560.487561181,561.48548852,558.145606015,560.479228057
1,226,1,1,1.0,1.0,0.419029367156,0,0.0,0.0,0.0,0.360162639902,0.0773840232766,0.282778616626,0.437546663179,0.0773840232766,0.344232052875,132,1.0,-0.307426825298,-0.115555361894,nan,nan,nan,nan,0.0,0.0,0.0,nan,284.295652999,561.687754877,562.187812182,562.106784244,nan,nan,nan,nan
1,227,1,1,1.0,1.0,0.402506522834,0,0.0,0.0,0.0,0.360426616258,0.0773104358665,0.283116180391,0.437737052124,0.0773104358665,0.3840930049,89,1.0,-0.229484098413,-0.587370487375,nan,nan,nan,nan,0.0,0.0,0.0,nan,284.295652999,562.696206887,563.196252503,563.09871341,nan,nan,nan,nan
1,228,1,1,1.0,1.0,0.290336210281,0,0.0,0.0,0.0,0.360614472984,0.0771886688077,0.283425804176,0.437803141791,0.0771886688077,0.370624033424,481,0.589289488337,0.325611856148,-1.0,nan,nan,nan,nan,0.0,0.0,0.0,nan,284.295652999,563.696350291,564.196404745,563.986686502,nan,nan,nan,nan
1,229,1,1,1.0,1.0,0.289200380445,0,0.0,0.0,0.0,0.360302125149,0.0771586929105,0.283143432239,0.43746081806,0.0771586929105,0.32734770452,310,-0.032854544558,0.417080732083,0.468828018046,nan,nan,nan,nan,0.0,0.0,0.0,nan,284.295652999,564.72151217,565.221509319,565.01071255,nan,nan,nan,nan
1,230,1,1,1.0,1.0,0.289038729854,0,0.0,0.0,0.0,0.359987515659,0.0771322982646,0.282855217395,0.437119813924,0.0771322982646,0.28952510686,380,-0.109519508899,0.478533032186,-0.177177385375,nan,nan,nan,nan,0.0,0.0,0.0,nan,284.295652999,565.72161509,566.221656145,566.01065382,nan,nan,nan,nan
1,231,1,1,1.0,1.0,0.360906760208,0,0.0,0.0,0.0,0.359674965942,0.0771055121139,0.282569453828,0.436780478056,0.0771055121139,0.313048623502,143,1.0,-0.287057525782,-0.00469998909502,nan,nan,nan,nan,0.0,0.0,0.0,nan,284.295652999,566.721747375,567.221780732,567.082654135,nan,nan,nan,nan
1,232,1,1,1.0,1.0,0.376763899811,0,0.0,0.0,0.0,0.359680368549,0.0769362783237,0.282744090225,0.436616646872,0.0769362783237,0.342236463291,72,1.0,-0.149607777062,-0.853203742106,nan,nan,nan,nan,0.0,0.0,0.0,nan,284.295652999,567.721872534,568.221912447,568.098636433,nan,nan,nan,nan
1,233,1,1,1.0,1.0,0.384604090825,0,0.0,0.0,0.0,0.359754969122,0.0767763752921,0.28297859383,0.436531344414,0.0767763752921,0.374091583615,4,0.879126049628,0.195014037372,-1.0,nan,nan,nan,nan,0.0,0.0,0.0,nan,284.295652999,568.721998261,569.222037605,569.106602352,nan,nan,nan,nan
1,234,1,1,1.0,1.0,0.376457420178,0,0.0,0.0,0.0,0.359863008781,0.0766267321116,0.28323627667,0.436489740893,0.0766267321116,0.379275136938,179,1.0,-0.13461441766,0.323204131591,nan,nan,nan,nan,0.0,0.0,0.0,nan,284.295652999,569.722127126,570.222169605,570.098584546,nan,nan,nan,nan
1,235,1,1,1.0,1.0,0.416313525289,0,0.0,0.0,0.0,0.35993484606,0.0764684548445,0.283466391216,0.436403300905,0.0764684548445,0.392458345431,249,0.557275547736,0.228026269286,0.654084877906,nan,nan,nan,nan,0.0,0.0,0.0,nan,284.295652999,570.722274806,571.222275376,571.138588332,nan,nan,nan,nan
1,236,1,1,1.0,1.0,0.464146098122,0,0.0,0.0,0.0,0.360177857609,0.0763928123943,0.283785045214,0.436570670003,0.0763928123943,0.418972347863,115,1.0,-0.305166285737,-0.293172749504,nan,nan,nan,nan,0.0,0.0,0.0,nan,284.295652999,571.722412509,572.222405666,572.186558607,nan,nan,nan,nan
1,237,1,1,1.0,1.0,0.424042812549,0,0.0,0.0,0.0,0.360624073233,0.0765310937684,0.284092979465,0.437155167002,0.0765310937684,0.43483414532,459,0.407758158413,0.385709174134,-1.0,nan,nan,nan,nan,0.0,0.0,0.0,nan,284.295652999,572.722494047,573.222531394,573.14653686,nan,nan,nan,nan
1,238,0,0,0.0,1.0,0.567849290557,0,0.0,0.0,0.0,0.360895093487,0.0764793610993,0.284415732387,0.437374454586,0.0764793610993,0.485346067076,32,1.0,0.061735800531,-1.0,nan,nan,nan,nan,0.0,0.0,0.0,nan,284.295652999,573.722649995,574.222698462,574.290499286,nan,nan,nan,nan
1,239,1,1,1.0,1.0,0.471760204993,0,0.0,0.0,0.0,0.361775749644,0.0774963408869,0.284279408758,0.439272090531,0.0774963408869,0.4878841027,317,-0.077772836126,0.429938605076,0.420733606481,nan,nan,nan,nan,0.0,0.0,0.0,nan,284.295652999,574.722752346,575.222779999,575.194512551,nan,nan,nan,nan
1,240,0,0,0.0,1.0,0.455580618232,0,0.0,0.0,0.0,0.362241785472,0.0776612808899,0.284580504582,0.439903066362,0.0776612808899,0.498396704594,105,1.0,-0.285049837405,-0.401580786678,nan,nan,nan,nan,0.0,0.0,0.0,nan,284.295652999,575.722907154,576.222933668,576.178487772,nan,nan,nan,nan
1,241,1,1,1.0,1.0,0.383455146104,0,0.0,0.0,0.0,0.36263562021,0.0777330759878,0.284902544222,0.440368696197,0.0777330759878,0.436931989777,364,-0.160194321586,0.476704516321,-0.00341124574885,nan,nan,nan,nan,0.0,0.0,0.0,nan,284.295652999,576.723022048,577.223036017,577.106477194,nan,nan,nan,nan
1,242,0,0,1.0,0.0,0.439292410389,0,0.0,0.0,0.0,0.362723097209,0.0775812884269,0.285141808782,0.440304385636,0.0775812884269,0.426109391575,172,1.0,-0.170984061773,0.265024678188,nan,nan,nan,nan,0.0,0.0,0.0,nan,284.295652999,577.723169443,578.223193677,578.162461854,nan,nan,nan,nan
1,243,1,1,1.0,1.0,0.407179561444,0,0.0,0.0,0.0,0.363043470904,0.0775764201885,0.285467050716,0.440619891093,0.0775764201885,0.409975705979,266,0.373577590308,0.295207490188,0.648113769863,nan,nan,nan,nan,0.0,0.0,0.0,nan,284.295652999,578.723249556,579.223297453,579.130429117,nan,nan,nan,nan
1,244,1,1,1.0,1.0,0.495012498461,0,0.0,0.0,0.0,0.363227371282,0.0774668211101,0.285760550171,0.440694192392,0.0774668211101,0.447161490098,103,1.0,-0.279537473278,-0.423758835275,nan,nan,nan,nan,0.0,0.0,0.0,nan,284.295652999,579.723409496,580.231754594,580.218421995,nan,nan,nan,nan
1,245,1,1,1.0,1.0,0.446854914539,0,0.0,1.0,0.0,0.363774197535,0.077768708725,0.286005488811,0.44154290626,0.077768708725,0.449682324814,2,0.863024578927,0.203622855609,-1.0,nan,nan,nan,nan,0.0,0.0,0.0,nan,284.295652999,580.72355062,581.223551759,581.170405534,nan,nan,nan,nan
1,246,1,1,1.0,1.0,0.422704278491,1,0.0,0.0,1.0,0.364117506283,0.0777906479772,0.286326858306,0.441908154261,0.0777906479772,0.454857230497,65,1.0,-0.113312155659,-1.0,54.6106796691,35.3893203309,-10.3138046691,50.0,1.0,-0.033148730948,-1.0,1.05045091081,284.295652999,581.723664658,582.223677488,582.146368937,584.607312245,585.618336408,583.540506698,584.598978266
1,247,0,0,0.0,1.0,0.450444011018,0,0.0,0.0,0.0,0.364358604111,0.0777209695611,0.28663763455,0.442079573673,0.0777209695611,0.440001068016,114,1.0,-0.303747463913,-0.303859371662,nan,nan,nan,nan,0.0,0.0,0.0,nan,284.295652999,585.815861873,586.315886106,586.266305884,nan,nan,nan,nan
1,248,1,1,1.0,1.0,0.298344323412,0,0.0,0.0,0.0,0.364711413156,0.077756285898,0.286955127258,0.442467699054,0.077756285898,0.39049753764,282,0.208142307666,0.34807905204,0.609295500931,nan,nan,nan,nan,0.0,0.0,0.0,nan,284.295652999,586.815952534,587.315987886,587.114296857,nan,nan,nan,nan
1,249,1,1,1.0,1.0,0.346171478741,0,0.0,0.0,0.0,0.364440527076,0.0777127198336,0.286727807242,0.442153246909,0.0777127198336,0.36498660439,200,1.0,-0.0191209939188,0.47515178387,nan,nan,nan,nan,0.0,0.0,0.0,nan,284.295652999,587.81608653,588.316117035,588.162258008,nan,nan,nan,nan
1,250,1,1,1.0,1.0,0.266031051055,0,0.0,0.0,0.0,0.364366262651,0.0775633172572,0.286802945394,0.441929579909,0.0775633172572,0.303515617736,313,-0.0530221528698,0.42279583272,0.448797959603,nan,nan,nan,nan,0.0,0.0,0.0,nan,284.295652999,588.816215394,589.316252742,589.082246445,nan,nan,nan,nan
1,251,1,1,1.0,1.0,0.28988290485,0,0.0,0.0,0.0,0.363968144386,0.0776575957542,0.286310548632,0.44162574014,0.0776575957542,0.300695144882,239,0.665069831863,0.183388857662,0.640549267122,nan,nan,nan,nan,0.0,0.0,0.0,nan,284.295652999,589.816351386,590.316373909,590.106234291,nan,nan,nan,nan
1,252,1,1,1.0,1.0,0.281737090088,0,1.0,0.0,0.0,0.363669413581,0.0776429464533,0.286026467128,0.441312360035,0.0776429464533,0.279217015331,390,-0.0641960347588,0.476284203309,-0.291947553613,nan,nan,nan,nan,0.0,0.0,0.0,nan,284.295652999,590.81649479,591.316527576,591.09823188,nan,nan,nan,nan
1,253,1,1,1.0,1.0,0.281595965847,1,0.0,0.0,1.0,0.363340368105,0.0776599496051,0.2856804185,0.44100031771,0.0776599496051,0.284405320262,111,1.0,-0.298677811705,-0.336106236365,13.3924977538,76.6075022462,-1.43937275375,109.0,1.0,-0.294638327523,-0.357773695079,2.58393279929,284.295652999,591.816614817,592.316645322,592.098210783,596.233794469,597.240095701,593.633491068,596.225465336
1,254,1,1,1.0,1.0,0.391808511689,0,0.0,0.0,0.0,0.363013390496,0.0776760270381,0.285337363458,0.440689417534,0.0776760270381,0.318380522542,247,0.578947625354,0.219392674348,0.6523805853,nan,nan,nan,nan,0.0,0.0,0.0,nan,284.295652999,597.442303043,597.942351224,597.834111555,nan,nan,nan,nan
1,255,1,1,1.0,1.0,0.239686015993,0,0.0,0.0,0.0,0.363128112095,0.0775423582916,0.285585753803,0.440670470386,0.0775423582916,0.304363497843,400,-0.0107874812989,0.471427301814,-0.412692688905,nan,nan,nan,nan,0.0,0.0,0.0,nan,284.295652999,598.442434758,598.942476382,598.682120774,nan,nan,nan,nan
1,256,0,0,0.0,1.0,0.351476293989,0,0.0,0.0,0.0,0.362638262507,0.0777765070601,0.284861755447,0.440414769567,0.0777765070601,0.327656940557,320,-0.0946500390753,0.43494401576,0.398701238857,nan,nan,nan,nan,0.0,0.0,0.0,nan,284.295652999,599.442594698,599.942629765,599.794070992,nan,nan,nan,nan
1,257,1,1,1.0,1.0,0.271334440447,0,0.0,0.0,0.0,0.362594144054,0.0776258058282,0.284968338226,0.440219949883,0.0776258058282,0.28749891681,2,0.863024578927,0.203622855609,-1.0,nan,nan,nan,nan,0.0,0.0,0.0,nan,284.295652999,600.44271615,600.942758914,600.71405059,nan,nan,nan,nan
1,258,1,1,1.0,1.0,0.2711670883,0,0.0,0.0,0.0,0.362234853883,0.0776833435718,0.284551510311,0.439918197455,0.0776833435718,0.297992607579,205,1.0,0.00854800403903,0.505535240796,nan,nan,nan,nan,0.0,0.0,0.0,nan,284.295652999,601.442852996,601.942857558,601.714020085,nan,nan,nan,nan
1,259,1,1,1.0,1.0,0.351049786434,0,0.0,0.0,0.0,0.36187772539,0.0777395119874,0.284138213403,0.439617237378,0.0777395119874,0.297850438394,86,1.0,-0.21659106269,-0.625617802914,nan,nan,nan,nan,0.0,0.0,0.0,nan,284.295652999,602.442971597,602.943007804,602.794021384,nan,nan,nan,nan
1,260,0,0,0.0,1.0,0.438895269297,0,0.0,0.0,0.0,0.361835428754,0.077590468263,0.284244960491,0.439425897017,0.077590468263,0.35370404801,1,0.854939129564,0.207877072944,-1.0,nan,nan,nan,nan,0.0,0.0,0.0,nan,284.295652999,603.443109584,603.943139805,603.882004853,nan,nan,nan,nan
1,261,1,1,1.0,1.0,0.429380414076,0,0.0,0.0,0.0,0.362135272491,0.0775878312148,0.284547441276,0.439723103706,0.0775878312148,0.406441823269,74,1.0,-0.159715158178,-0.810443278181,nan,nan,nan,nan,0.0,0.0,0.0,nan,284.295652999,604.476596319,604.976576933,604.905976733,nan,nan,nan,nan
1,262,1,1,1.0,1.0,0.357280599885,0,0.0,0.0,0.0,0.362395912575,0.0775499681703,0.284845944405,0.439945880745,0.0775499681703,0.408518761086,387,-0.0787219327085,0.477231755363,-0.256974454483,nan,nan,nan,nan,0.0,0.0,0.0,nan,284.295652999,605.476678427,605.976706367,605.833959027,nan,nan,nan,nan
1,263,1,1,1.0,1.0,0.365128203295,0,0.0,0.0,0.0,0.362376162333,0.0774007631357,0.284975399197,0.439776925469,0.0774007631357,0.383929739085,273,0.299732959835,0.319577193062,0.635038033336,nan,nan,nan,nan,0.0,0.0,0.0,nan,284.295652999,606.476812708,606.976852908,606.841940911,nan,nan,nan,nan
1,264,1,1,1.0,1.0,0.292955404148,0,0.0,0.0,0.0,0.362386747106,0.077251959928,0.285134787178,0.439638707034,0.077251959928,0.338454735776,400,-0.0107874812989,0.471427301814,-0.412692688905,nan,nan,nan,nan,0.0,0.0,0.0,nan,284.295652999,607.476932164,607.976965521,607.769887568,nan,nan,nan,nan
1,265,1,1,1.0,1.0,0.256012712605,0,0.0,0.0,0.0,0.362120726635,0.0772230491501,0.284897677485,0.439343775785,0.0772230491501,0.304698773349,211,0.948675772315,0.0413606888024,0.538689155053,nan,nan,nan,nan,0.0,0.0,0.0,nan,284.295652999,608.505887555,609.010427168,608.761900268,nan,nan,nan,nan
1,266,1,1,1.0,1.0,0.31567285303,0,0.0,0.0,0.0,0.361715734215,0.0773527451126,0.284362989102,0.439068479327,0.0773527451126,0.288213656594,270,0.331159066004,0.309369715406,0.641393874915,nan,nan,nan,nan,0.0,0.0,0.0,nan,284.295652999,609.50221578,610.002243149,609.817888633,nan,nan,nan,nan
1,267,1,1,1.0,1.0,0.363537927158,0,0.0,0.0,0.0,0.361540666225,0.0772575330474,0.284283133178,0.438798199273,0.0772575330474,0.311741164265,462,0.432089675478,0.378486360879,-1.0,nan,nan,nan,nan,0.0,0.0,0.0,nan,284.295652999,610.502328108,611.002371443,610.865866035,nan,nan,nan,nan
1,268,1,1,1.0,1.0,0.500188449398,0,0.0,0.0,0.0,0.361548231608,0.077111170742,0.284437060866,0.43865940235,0.077111170742,0.393133076529,122,1.0,-0.311159539646,-0.219144224573,nan,nan,nan,nan,0.0,0.0,0.0,nan,284.295652999,611.502491754,612.002520834,612.002680204,nan,nan,nan,nan
1,269,1,1,1.0,1.0,0.371289166622,0,0.0,0.0,0.0,0.362071402241,0.077433540535,0.284637861706,0.439504942776,0.077433540535,0.411671847726,205,1.0,0.00854800403903,0.505535240796,nan,nan,nan,nan,0.0,0.0,0.0,nan,284.295652999,612.50257985,613.002624325,612.873869017,nan,nan,nan,nan
1,270,1,1,1.0,1.0,0.297738205642,0,0.0,0.0,0.0,0.36210605549,0.0772899103828,0.284816145108,0.439395965873,0.0772899103828,0.38973860722,143,1.0,-0.287057525782,-0.00469998909502,nan,nan,nan,nan,0.0,0.0,0.0,nan,284.295652999,613.536071146,614.03606687,613.833809352,nan,nan,nan,nan
1,271,1,1,1.0,1.0,0.47362103872,0,0.0,0.0,0.0,0.361864977401,0.0772451699789,0.284619807422,0.43911014738,0.0772451699789,0.380882803661,271,0.320642857732,0.312811632898,0.639400143054,nan,nan,nan,nan,0.0,0.0,0.0,nan,284.295652999,614.536179769,615.036217117,615.009800808,nan,nan,nan,nan
1,272,1,1,1.0,1.0,0.37746181991,0,0.0,0.0,0.0,0.36228197763,0.0774014241416,0.284880553488,0.439683401772,0.0774014241416,0.382940354757,143,1.0,-0.287057525782,-0.00469998909502,nan,nan,nan,nan,0.0,0.0,0.0,nan,284.295652999,615.536307492,616.036326594,615.913769312,nan,nan,nan,nan
1,273,0,0,0.0,1.0,0.393354883417,0,0.0,0.0,0.0,0.36233840827,0.077262944418,0.285075463852,0.439601352688,0.077262944418,0.414812580682,191,1.0,-0.0691479807067,0.414571651978,nan,nan,nan,nan,0.0,0.0,0.0,nan,284.295652999,616.536460305,617.036486248,616.929815188,nan,nan,nan,nan
1,274,1,1,1.0,1.0,0.561186839826,0,0.0,0.0,0.0,0.362453284104,0.0771427438978,0.285310540206,0.439596028002,0.0771427438978,0.444001181051,108,1.0,-0.292426609412,-0.368663285579,nan,nan,nan,nan,0.0,0.0,0.0,nan,284.295652999,617.536542698,618.036624806,618.097729538,nan,nan,nan,nan
1,275,1,1,1.0,1.0,0.305039560422,0,0.0,0.0,0.0,0.363186618258,0.077937435425,0.285249182833,0.441124053683,0.077937435425,0.419860427889,185,1.0,-0.102214474652,0.370299946716,nan,nan,nan,nan,0.0,0.0,0.0,nan,284.295652999,618.536689524,619.03672231,618.841729084,nan,nan,nan,nan
1,276,1,1,1.0,1.0,0.352896936238,0,0.0,0.0,0.0,0.36297284231,0.0778735950374,0.285099247273,0.440846437348,0.0778735950374,0.406374445496,313,-0.0530221528698,0.42279583272,0.448797959603,nan,nan,nan,nan,0.0,0.0,0.0,nan,284.295652999,619.536820954,620.036859157,619.88971789,nan,nan,nan,nan
1,277,0,0,0.0,1.0,0.592706969939,0,0.0,0.0,0.0,0.362935934229,0.0777332218732,0.285202712356,0.440669156103,0.0777332218732,0.416881155533,383,-0.0968787136249,0.478131214543,-0.211081409456,nan,nan,nan,nan,0.0,0.0,0.0,nan,284.295652999,620.536962362,621.037006837,621.129669332,nan,nan,nan,nan
1,278,1,1,1.0,1.0,0.424587064423,0,0.0,0.0,0.0,0.363774514652,0.0788186482172,0.284955866434,0.442593162869,0.0788186482172,0.456730323533,37,1.0,0.0358565504353,-1.0,nan,nan,nan,nan,0.0,0.0,0.0,nan,284.295652999,621.537075831,622.037106907,621.961662895,nan,nan,nan,nan
1,279,1,1,1.0,1.0,0.39244798664,0,0.0,0.0,0.0,0.363995651196,0.0787603187674,0.285235332429,0.442755969964,0.0787603187674,0.469914007001,304,0.0113092810281,0.404708921832,0.506160370659,nan,nan,nan,nan,0.0,0.0,0.0,nan,284.295652999,622.537202985,623.037239192,622.929650972,nan,nan,nan,nan
1,280,1,1,1.0,1.0,0.360304917209,0,0.0,0.0,0.0,0.364098739368,0.0786360920078,0.28546264736,0.442734831376,0.0786360920078,0.392446656091,446,0.304696255059,0.41359904426,-1.0,nan,nan,nan,nan,0.0,0.0,0.0,nan,284.295652999,623.537327858,624.037364635,623.897632775,nan,nan,nan,nan
1,281,1,1,1.0,1.0,0.352176493034,0,0.0,0.0,0.0,0.364085043259,0.0784943510537,0.285590692206,0.442579394313,0.0784943510537,0.368309798961,246,0.589768841079,0.215019897151,0.651339528662,nan,nan,nan,nan,0.0,0.0,0.0,nan,284.295652999,624.537442182,625.037493499,624.889618675,nan,nan,nan,nan
1,282,1,1,1.0,1.0,0.312075774185,0,0.0,0.0,0.0,0.364042206748,0.0783562904707,0.285685916277,0.442398497218,0.0783562904707,0.341519061476,200,1.0,-0.0191209939188,0.47515178387,nan,nan,nan,nan,0.0,0.0,0.0,nan,284.295652999,625.537583306,626.037607823,625.84965908,nan,nan,nan,nan
1,283,1,1,1.0,1.0,0.335838963278,0,0.0,0.0,0.0,0.363855947133,0.0782773702204,0.285578576912,0.442133317353,0.0782773702204,0.333363743499,105,1.0,-0.285049837405,-0.401580786678,nan,nan,nan,nan,0.0,0.0,0.0,nan,284.295652999,626.537725569,627.037733837,626.873564532,nan,nan,nan,nan
1,284,1,1,1.0,1.0,0.295703176409,0,0.0,0.0,0.0,0.363755886476,0.0781553369467,0.285600549529,0.441911223423,0.0781553369467,0.314539304624,159,1.0,-0.231765974528,0.149055008463,nan,nan,nan,nan,0.0,0.0,0.0,nan,284.295652999,627.537863271,628.03785928,627.833566448,nan,nan,nan,nan
1,285,1,1,1.0,1.0,0.287580169737,0,0.0,0.0,0.0,0.363513706013,0.0781213255802,0.285392380433,0.441635031594,0.0781213255802,0.306374103141,415,0.0813077335083,0.459153678902,-0.614968023274,nan,nan,nan,nan,0.0,0.0,0.0,nan,284.295652999,628.537953647,629.037985293,628.825533817,nan,nan,nan,nan
1,286,1,1,1.0,1.0,0.27142481599,0,1.0,0.0,0.0,0.363244438154,0.0781132116189,0.285131226535,0.441357649773,0.0781132116189,0.284902720712,29,1.0,0.0770173926463,-1.0,nan,nan,nan,nan,0.0,0.0,0.0,nan,284.295652999,629.538089069,630.038111021,629.809513885,nan,nan,nan,nan
1,287,1,1,1.0,1.0,0.341946613044,1,0.0,0.0,1.0,0.362919987193,0.0781652022373,0.284754784955,0.44108518943,0.0781652022373,0.30031719959,307,-0.0113868739462,0.411053355611,0.487957006857,-143.181350802,233.181350802,17.3219758016,332.0,-0.146647089803,0.45205423783,0.302714191958,2.17558120098,284.295652999,630.57156326,631.071576374,630.913509873,634.597025061,635.599874043,632.405089794,634.588692507
1,288,1,1,1.0,1.0,0.540195941925,0,0.0,0.0,0.0,0.362846137284,0.0780373557506,0.284808781533,0.440883493034,0.0780373557506,0.384522456986,191,1.0,-0.0691479807067,0.414571651978,nan,nan,nan,nan,0.0,0.0,0.0,nan,284.295652999,635.797222747,636.297288035,636.337418689,nan,nan,nan,nan
1,289,1,1,1.0,1.0,0.308051618747,0,0.0,0.0,0.0,0.3634684173,0.0786030220715,0.284865395228,0.442071439371,0.0786030220715,0.396731391239,314,-0.0594438881467,0.42463230952,0.441925406839,nan,nan,nan,nan,0.0,0.0,0.0,nan,284.295652999,636.797354463,637.297393521,637.105406081,nan,nan,nan,nan
1,290,1,1,1.0,1.0,0.259924540296,0,0.0,0.0,0.0,0.36327465227,0.0785336389814,0.284741013288,0.441808291251,0.0785336389814,0.369390700323,145,1.0,-0.281667413287,0.0150551701241,nan,nan,nan,nan,0.0,0.0,0.0,nan,284.295652999,637.797479906,638.297520675,638.057404446,nan,nan,nan,nan
1,291,1,1,1.0,1.0,0.251745083369,0,1.0,0.0,0.0,0.36291454735,0.0786328811617,0.284281666188,0.441547428512,0.0786328811617,0.273240414138,304,0.0113092810281,0.404708921832,0.506160370659,nan,nan,nan,nan,0.0,0.0,0.0,nan,284.295652999,638.797607345,639.297631863,639.049352428,nan,nan,nan,nan
1,292,1,1,1.0,1.0,0.251653566957,1,0.0,0.0,1.0,0.362528542267,0.078768164741,0.283760377526,0.441296707008,0.078768164741,0.254441063541,6,0.895129075663,0.186272780825,-1.0,56.6649203698,33.3350796302,29.1163296302,47.0,1.0,-0.0170755915744,-1.0,1.33388832398,284.295652999,639.797711976,640.297760727,640.049365543,642.973118411,643.976937296,641.622917645,642.964756777
1,293,1,1,1.0,1.0,0.475645232946,0,0.0,0.0,0.0,0.362144891833,0.0789008569471,0.283244034886,0.44104574878,0.0789008569471,0.326347961091,264,0.394966959701,0.287889713878,0.650717615019,nan,nan,nan,nan,0.0,0.0,0.0,nan,284.295652999,644.181596764,644.681642665,644.657241997,nan,nan,nan,nan
1,294,1,1,1.0,1.0,0.371512969024,0,0.0,0.0,0.0,0.36253627232,0.0790452222424,0.283491050077,0.441581494562,0.0790452222424,0.366270589642,492,0.681403316433,0.289222019555,-1.0,nan,nan,nan,nan,0.0,0.0,0.0,nan,284.295652999,645.181745585,645.681780082,645.553258554,nan,nan,nan,nan
1,295,1,1,1.0,1.0,0.291327495128,0,0.0,0.0,0.0,0.362567120075,0.0789110373942,0.283656082681,0.441478157469,0.0789110373942,0.379495232366,436,0.228681708805,0.431413732101,-1.0,nan,nan,nan,nan,0.0,0.0,0.0,nan,284.295652999,646.181890415,646.68190524,646.47321791,nan,nan,nan,nan
1,296,1,1,1.0,1.0,0.227229236625,0,0.0,0.0,0.0,0.362323148757,0.0788856612343,0.283437487522,0.441208809991,0.0788856612343,0.296689900259,216,0.900975005756,0.0682271079607,0.563426584804,nan,nan,nan,nan,0.0,0.0,0.0,nan,284.295652999,647.182003029,647.682033534,647.409232265,nan,nan,nan,nan
1,297,1,1,1.0,1.0,0.275042707101,0,1.0,0.0,0.0,0.361862077384,0.079144072224,0.28271800516,0.441006149608,0.079144072224,0.264533146285,476,0.547545041103,0.340739382997,-1.0,nan,nan,nan,nan,0.0,0.0,0.0,nan,284.295652999,648.182131893,648.682155271,648.4571746,nan,nan,nan,nan
1,298,0,0,1.0,0.0,0.242966922,0,0.0,0.0,0.0,0.361566773404,0.0791708891011,0.282395884302,0.440737662505,0.0791708891011,0.248412955242,58,1.0,-0.0760896648475,-1.0,nan,nan,nan,nan,0.0,0.0,0.0,nan,284.295652999,649.182243366,649.682308083,649.425210288,nan,nan,nan,nan
1,299,1,1,1.0,1.0,0.330781042576,0,0.0,0.0,0.0,0.361164740009,0.07933663462,0.281828105389,0.440501374629,0.07933663462,0.282930223892,184,1.0,-0.107671891867,0.362640045218,nan,nan,nan,nan,0.0,0.0,0.0,nan,284.295652999,650.182388481,650.682434096,650.513169523,nan,nan,nan,nan
1,300,1,1,1.0,1.0,0.306650077924,0,0.0,0.0,0.0,0.361062092382,0.0792221265703,0.281839965812,0.440284218953,0.0792221265703,0.293466014167,341,-0.168535884224,0.46196150489,0.223260112086,nan,nan,nan,nan,0.0,0.0,0.0,nan,284.295652999,651.182518485,651.682566382,651.489168563,nan,nan,nan,nan
1,301,1,1,1.0,1.0,0.402483999729,0,0.0,0.0,0.0,0.360878886947,0.079151427962,0.281727458985,0.440030314909,0.079151427962,0.34663837341,158,1.0,-0.235949227405,0.139764106,nan,nan,nan,nan,0.0,0.0,0.0,nan,284.295652999,652.182643929,652.682662745,652.585127928,nan,nan,nan,nan
1,302,1,1,1.0,1.0,0.40232006833,0,0.0,0.0,0.0,0.361018501419,0.0790551352843,0.281963366135,0.440073636703,0.0790551352843,0.370484715328,44,1.0,-0.00106984144607,-1.0,nan,nan,nan,nan,0.0,0.0,0.0,nan,284.295652999,653.182784197,653.682807289,653.585104265,nan,nan,nan,nan
1,303,1,1,1.0,1.0,0.313926629722,0,0.0,0.0,0.0,0.36115663375,0.078958839664,0.282197794086,0.440115473414,0.078958839664,0.372910232594,415,0.0813077335083,0.459153678902,-0.614968023274,nan,nan,nan,nan,0.0,0.0,0.0,nan,284.295652999,654.1831591,654.682969796,654.49708573,nan,nan,nan,nan
1,304,1,1,1.0,1.0,0.266087785363,0,0.0,0.0,0.0,0.360999200403,0.0788741243515,0.282125076052,0.439873324755,0.0788741243515,0.327444827805,165,1.0,-0.205056383665,0.203745440608,nan,nan,nan,nan,0.0,0.0,0.0,nan,284.295652999,655.183023393,655.683053329,655.449111179,nan,nan,nan,nan
1,305,1,1,1.0,1.0,0.225930901244,0,1.0,0.0,0.0,0.360683880087,0.0789321693926,0.281751710695,0.43961604948,0.0789321693926,0.268648438777,317,-0.077772836126,0.429938605076,0.420733606481,nan,nan,nan,nan,0.0,0.0,0.0,nan,284.295652999,656.183141424,656.683175351,656.409072326,nan,nan,nan,nan
1,306,1,1,1.0,1.0,0.200406378135,1,0.0,0.0,1.0,0.360237678171,0.079180712397,0.281056965774,0.439418390568,0.079180712397,0.230808354914,461,0.423959648591,0.380927367285,-1.0,129.289406863,320.710593137,-3.4300318625,456.0,0.383612429175,0.392633185378,-1.0,1.23379247449,284.295652999,657.216642129,657.716638423,657.417048507,660.300310642,661.308236361,659.050145855,660.291977233
1,307,1,1,1.0,1.0,0.580099374056,0,0.0,0.0,0.0,0.359710182131,0.0795796810816,0.280130501049,0.439289863212,0.0795796810816,0.335478884478,132,1.0,-0.307426825298,-0.115555361894,nan,nan,nan,nan,0.0,0.0,0.0,nan,284.295652999,661.508842023,662.008898187,662.088941397,nan,nan,nan,nan
1,308,0,0,0.0,1.0,0.4679530086,0,0.0,0.0,0.0,0.360435146578,0.0804446542912,0.279990492287,0.440879800869,0.0804446542912,0.416152920264,275,0.279002393219,0.326185254474,0.630178474337,nan,nan,nan,nan,0.0,0.0,0.0,nan,284.295652999,662.508978586,663.009011086,662.976931594,nan,nan,nan,nan
1,309,1,1,1.0,1.0,0.307837224565,0,0.0,0.0,0.0,0.360787664158,0.0805475173787,0.28024014678,0.441335181537,0.0805475173787,0.451963202407,372,-0.138660017671,0.478458869494,-0.0888123791441,nan,nan,nan,nan,0.0,0.0,0.0,nan,284.295652999,663.50909348,664.00913938,663.816930705,nan,nan,nan,nan
1,310,0,0,0.0,1.0,0.363666220568,0,0.0,0.0,0.0,0.360614623506,0.0804725598914,0.280142063615,0.441087183398,0.0804725598914,0.379818817911,111,1.0,-0.298677811705,-0.336106236365,nan,nan,nan,nan,0.0,0.0,0.0,nan,284.295652999,664.509232323,665.00926796,664.872898543,nan,nan,nan,nan
1,311,1,1,1.0,1.0,0.299562260509,0,0.0,0.0,0.0,0.360624563562,0.0803415783483,0.280282985213,0.44096614191,0.0803415783483,0.323688568547,256,0.481312611765,0.257047908656,0.656065722404,nan,nan,nan,nan,0.0,0.0,0.0,nan,284.295652999,665.509335528,666.009386846,665.808897789,nan,nan,nan,nan
1,312,1,1,1.0,1.0,0.339411809109,0,0.0,0.0,0.0,0.360426309331,0.0802862299761,0.280140079355,0.440712539307,0.0802862299761,0.334213430062,389,-0.0691208065164,0.476626077068,-0.280234315682,nan,nan,nan,nan,0.0,0.0,0.0,nan,284.295652999,666.509491476,667.009501169,666.848903285,nan,nan,nan,nan
1,313,1,1,1.0,1.0,0.307277577929,0,0.0,0.0,0.0,0.36035830124,0.0801650971794,0.28019320406,0.440523398419,0.0801650971794,0.315417215849,322,-0.105067232891,0.43811622051,0.383559350674,nan,nan,nan,nan,0.0,0.0,0.0,nan,284.295652999,667.509591831,668.009626613,667.816869409,nan,nan,nan,nan
1,314,1,1,1.0,1.0,0.3471026076,0,0.0,0.0,0.0,0.3601870731,0.0800922714096,0.28009480169,0.44027934451,0.0800922714096,0.331263998213,66,1.0,-0.118568705386,-1.0,nan,nan,nan,nan,0.0,0.0,0.0,nan,284.295652999,668.509709291,669.009758328,668.856811899,nan,nan,nan,nan
1,315,1,1,1.0,1.0,0.362930954434,0,0.0,0.0,0.0,0.360145000864,0.0799668330364,0.280178167827,0.4401118339,0.0799668330364,0.339103713321,487,0.639529740128,0.306295026098,-1.0,nan,nan,nan,nan,0.0,0.0,0.0,nan,284.295652999,669.50988149,670.009893749,669.872812444,nan,nan,nan,nan
1,316,1,1,1.0,1.0,0.426786024123,0,0.0,0.0,0.0,0.360153930202,0.0798387335039,0.280315196698,0.439992663706,0.0798387335039,0.378939862053,174,1.0,-0.160790688716,0.281981279739,nan,nan,nan,nan,0.0,0.0,0.0,nan,284.295652999,670.510010354,671.010020618,670.936796378,nan,nan,nan,nan
1,317,0,0,0.0,1.0,0.482648376375,0,0.0,0.0,0.0,0.360366812291,0.0797997361976,0.280567076094,0.440166548489,0.0797997361976,0.424121784978,331,-0.143297839787,0.450801753776,0.311166711333,nan,nan,nan,nan,0.0,0.0,0.0,nan,284.295652999,671.510132946,672.010162312,671.992781322,nan,nan,nan,nan
1,318,1,1,1.0,1.0,0.45853594318,0,0.0,0.0,0.0,0.360756244024,0.0799699087997,0.280786335224,0.440726152824,0.0799699087997,0.45599011456,119,1.0,-0.309446327048,-0.250710895617,nan,nan,nan,nan,0.0,0.0,0.0,nan,284.295652999,672.51023102,673.01028918,672.968766963,nan,nan,nan,nan
1,319,1,1,1.0,1.0,0.490383650176,0,0.0,0.0,0.0,0.361066655767,0.0800321169662,0.281034538801,0.441098772734,0.0800321169662,0.477189323244,367,-0.15309091083,0.477560897992,-0.0350816338538,nan,nan,nan,nan,0.0,0.0,0.0,nan,284.295652999,673.510364731,674.018722088,674.000748381,nan,nan,nan,nan
1,320,1,1,1.0,1.0,0.474220884964,0,0.0,1.0,0.0,0.361475886762,0.0802348014816,0.281241085281,0.441710688244,0.0802348014816,0.47438015944,234,0.71814774995,0.15974031316,0.62913160129,nan,nan,nan,nan,0.0,0.0,0.0,nan,284.295652999,674.510505854,675.010539781,674.984726739,nan,nan,nan,nan
1,321,1,1,1.0,1.0,0.458119414747,1,0.0,0.0,1.0,0.361831549217,0.0803572527884,0.281474296429,0.442188802006,0.0803572527884,0.474241316629,436,0.228681708805,0.431413732101,-1.0,-39.5767814032,129.576781403,-176.985718597,184.0,1.0,-0.107671891867,0.362640045218,2.87565857638,284.295652999,675.510599936,676.010643842,675.968719351,680.236193568,681.244674657,677.344143292,680.227843623
1,322,1,1,1.0,1.0,0.48391820211,0,0.0,0.0,0.0,0.362134341247,0.0804117258465,0.281722615401,0.442546067094,0.0804117258465,0.472086167273,481,0.589289488337,0.325611856148,-1.0,nan,nan,nan,nan,0.0,0.0,0.0,nan,284.295652999,681.444695869,681.944734642,681.928614071,nan,nan,nan,nan
1,323,1,1,1.0,1.0,0.331754936837,0,0.0,0.0,0.0,0.362516108836,0.0805737134707,0.281942395365,0.443089822307,0.0805737134707,0.424597517898,402,0.000724920831492,0.470139955471,-0.437811562499,nan,nan,nan,nan,0.0,0.0,0.0,nan,284.295652999,682.444844119,682.944888595,682.776599056,nan,nan,nan,nan
1,324,1,1,1.0,1.0,0.323628508486,0,0.0,0.0,0.0,0.362419980174,0.0804660375981,0.281953942576,0.442886017772,0.0804660375981,0.379767215811,101,1.0,-0.273572672894,-0.446152610616,nan,nan,nan,nan,0.0,0.0,0.0,nan,284.295652999,683.444958159,683.944993511,683.768586667,nan,nan,nan,nan
1,325,1,1,1.0,1.0,0.355456545018,0,0.0,0.0,0.0,0.362299134467,0.0803696816072,0.28192945286,0.442668816075,0.0803696816072,0.336946663447,157,1.0,-0.240048375319,0.130425901556,nan,nan,nan,nan,0.0,0.0,0.0,nan,284.295652999,684.445098141,684.945138626,684.800554686,nan,nan,nan,nan
1,326,1,1,1.0,1.0,0.331322728656,0,0.0,0.0,0.0,0.36227788419,0.0802456901238,0.282032194066,0.442523574313,0.0802456901238,0.336802594053,49,1.0,-0.027785429985,-1.0,nan,nan,nan,nan,0.0,0.0,0.0,nan,284.295652999,685.445228146,685.94525409,685.776550875,nan,nan,nan,nan
1,327,1,1,1.0,1.0,0.275190958753,0,0.0,0.0,0.0,0.362182047795,0.0801398284056,0.282042219389,0.4423218762,0.0801398284056,0.320656744142,118,1.0,-0.308588151016,-0.261285249573,nan,nan,nan,nan,0.0,0.0,0.0,nan,284.295652999,686.445350453,686.945382099,686.720541412,nan,nan,nan,nan
1,328,1,1,1.0,1.0,0.291053801775,0,0.0,0.0,0.0,0.361913556779,0.0801614254955,0.281752131284,0.442074982275,0.0801614254955,0.299189163061,182,1.0,-0.118523835432,0.347089474713,nan,nan,nan,nan,0.0,0.0,0.0,nan,284.295652999,687.445482453,687.945526644,687.736536255,nan,nan,nan,nan
1,329,0,0,0.0,1.0,0.458857533522,0,0.0,0.0,0.0,0.361695526764,0.0801341643432,0.281561362421,0.441829691107,0.0801341643432,0.341700764683,428,0.170378320166,0.443486568519,-0.86866140055,nan,nan,nan,nan,0.0,0.0,0.0,nan,284.295652999,688.445623862,688.945652086,688.904481395,nan,nan,nan,nan
1,330,1,1,1.0,1.0,0.330725449137,0,0.0,0.0,0.0,0.361993569729,0.080191371814,0.281802197915,0.442184941543,0.080191371814,0.360212261478,250,0.546428449327,0.232286661223,0.654747725831,nan,nan,nan,nan,0.0,0.0,0.0,nan,284.295652999,689.44573619,689.945757573,689.776461639,nan,nan,nan,nan
1,331,1,1,1.0,1.0,0.338584170677,0,0.0,0.0,0.0,0.361897948565,0.0800872727033,0.281810675862,0.441985221269,0.0800872727033,0.376055717779,125,1.0,-0.311567427947,-0.187805059354,nan,nan,nan,nan,0.0,0.0,0.0,nan,284.295652999,690.445879309,690.945909815,690.78446348,nan,nan,nan,nan
1,332,1,1,1.0,1.0,0.37044869829,0,0.0,0.0,0.0,0.361826869974,0.0799754244564,0.281851445518,0.441802294431,0.0799754244564,0.346586106035,279,0.238157575771,0.338930353633,0.618978422254,nan,nan,nan,nan,0.0,0.0,0.0,nan,284.295652999,691.445993349,691.946020148,691.816442047,nan,nan,nan,nan
1,333,1,1,1.0,1.0,0.313944591209,0,0.0,0.0,0.0,0.361853076139,0.0798551991891,0.28199787695,0.441708275329,0.0798551991891,0.340992486725,151,1.0,-0.262720288689,0.0734626651272,nan,nan,nan,nan,0.0,0.0,0.0,nan,284.295652999,692.45447729,692.954493255,692.768421881,nan,nan,nan,nan
1,334,1,1,1.0,1.0,0.305825574324,0,0.0,0.0,0.0,0.361707898912,0.0797775857345,0.281930313178,0.441485484647,0.0797775857345,0.330072954608,68,1.0,-0.129018143495,-0.972903198114,nan,nan,nan,nan,0.0,0.0,0.0,nan,284.295652999,693.454588763,693.95462269,693.760414338,nan,nan,nan,nan
1,335,1,1,1.0,1.0,0.273664830253,0,0.0,0.0,0.0,0.361539070137,0.079716003672,0.281823066465,0.441255073809,0.079716003672,0.297811665262,1,0.854939129564,0.207877072944,-1.0,nan,nan,nan,nan,0.0,0.0,0.0,nan,284.295652999,694.454712495,694.954752694,694.728377325,nan,nan,nan,nan
1,336,1,1,1.0,1.0,0.353515028022,0,0.0,0.0,0.0,0.361274388692,0.0797413906345,0.281532998057,0.441015779326,0.0797413906345,0.311001810866,135,1.0,-0.303502321856,-0.0849788702499,nan,nan,nan,nan,0.0,0.0,0.0,nan,284.295652999,695.454836798,695.954876142,695.808351826,nan,nan,nan,nan
1,337,1,1,1.0,1.0,0.28938056156,0,0.0,0.0,0.0,0.361251087308,0.07962270077,0.281628386538,0.440873788078,0.07962270077,0.305520139945,394,-0.0437090198531,0.474655926729,-0.339401417396,nan,nan,nan,nan,0.0,0.0,0.0,nan,284.295652999,696.454964237,696.954998448,696.744344799,nan,nan,nan,nan
1,338,1,1,1.0,1.0,0.249251903966,0,0.0,0.0,0.0,0.361035906093,0.0796003266405,0.281435579453,0.440636232734,0.0796003266405,0.29738249785,496,0.714833717156,0.274923884212,-1.0,nan,nan,nan,nan,0.0,0.0,0.0,nan,284.295652999,697.455083122,697.955110777,697.704335026,nan,nan,nan,nan
1,339,1,1,1.0,1.0,0.265106762759,0,1.0,0.0,0.0,0.360702222505,0.0797150367109,0.280987185794,0.440417259216,0.0797150367109,0.267913076095,38,1.0,0.0306259494545,-1.0,nan,nan,nan,nan,0.0,0.0,0.0,nan,284.295652999,698.455201724,698.955243348,698.720308486,nan,nan,nan,nan
1,340,0,0,0.0,1.0,0.500245184638,1,0.0,0.0,1.0,0.360417712208,0.0797664833149,0.280651228893,0.440184195523,0.0797664833149,0.338201283788,185,1.0,-0.102214474652,0.370299946716,-25.4077181089,115.407718109,-14.6704068911,164.0,1.0,-0.209685835145,0.194761549991,1.30044549424,284.295652999,699.455331728,699.955417543,699.955576912,702.60572311,703.614707968,701.288870522,702.597365468
1,341,1,1,1.0,1.0,0.401990495622,0,0.0,0.0,0.0,0.360832630524,0.080010351151,0.280822279373,0.440842981675,0.080010351151,0.389114147673,366,-0.155593376329,0.477302029306,-0.0244766492797,nan,nan,nan,nan,0.0,0.0,0.0,nan,284.295652999,703.814240237,704.314258483,704.216230732,nan,nan,nan,nan
1,342,1,1,1.0,1.0,0.273892623372,0,0.0,0.0,0.0,0.360954399356,0.079923171842,0.281031227514,0.440877571198,0.079923171842,0.392042767877,471,0.506014005179,0.354993781952,-1.0,nan,nan,nan,nan,0.0,0.0,0.0,nan,284.295652999,704.814362544,705.314381075,705.088255167,nan,nan,nan,nan
1,343,1,1,1.0,1.0,0.313688857481,0,0.0,0.0,0.0,0.360697579957,0.0799447545598,0.280752825398,0.440642334517,0.0799447545598,0.329857325492,308,-0.0186828559465,0.413097475488,0.481682330771,nan,nan,nan,nan,0.0,0.0,0.0,nan,284.295652999,705.814476868,706.314511364,706.128165726,nan,nan,nan,nan
1,344,1,1,1.0,1.0,0.361519719474,0,0.0,0.0,0.0,0.360559319009,0.0798676817965,0.280691637212,0.440427000806,0.0798676817965,0.316367066776,201,1.0,-0.0135712615467,0.48142235136,nan,nan,nan,nan,0.0,0.0,0.0,nan,284.295652999,706.814625119,707.314664748,707.176144838,nan,nan,nan,nan
1,345,1,1,1.0,1.0,0.353363926522,0,0.0,0.0,0.0,0.360562135433,0.079750504685,0.280811630748,0.440312640118,0.079750504685,0.342857501159,484,0.614398947124,0.316112737715,-1.0,nan,nan,nan,nan,0.0,0.0,0.0,nan,284.295652999,707.814771659,708.31477394,708.168135585,nan,nan,nan,nan
1,346,1,1,1.0,1.0,0.425253337249,0,0.0,0.0,0.0,0.360541088038,0.0796347734894,0.280906314549,0.440175861528,0.0796347734894,0.380045661082,172,1.0,-0.170984061773,0.265024678188,nan,nan,nan,nan,0.0,0.0,0.0,nan,284.295652999,708.814875435,709.314896532,709.240128772,nan,nan,nan,nan
1,347,1,1,1.0,1.0,0.359074150212,0,0.0,0.0,0.0,0.360729753488,0.0795951104446,0.281134643043,0.440324863932,0.0795951104446,0.379230471328,66,1.0,-0.118568705386,-1.0,nan,nan,nan,nan,0.0,0.0,0.0,nan,284.295652999,709.865020435,710.365050941,710.224094586,nan,nan,nan,nan
1,348,1,1,1.0,1.0,0.34291965235,0,0.0,0.0,0.0,0.360724940688,0.0794793856582,0.281245555029,0.440204326346,0.0794793856582,0.375749046604,251,0.535576518695,0.236509187076,0.655284151108,nan,nan,nan,nan,0.0,0.0,0.0,nan,284.295652999,710.865160704,711.365155857,711.208080356,nan,nan,nan,nan
1,349,1,1,1.0,1.0,0.382795429789,0,0.0,0.0,0.0,0.360673331156,0.0793698868446,0.281303444312,0.440043218001,0.0793698868446,0.361596410784,397,-0.0275613476434,0.473159987783,-0.37569455347,nan,nan,nan,nan,0.0,0.0,0.0,nan,284.295652999,711.865265905,712.365307814,712.248061335,nan,nan,nan,nan
1,350,1,1,1.0,1.0,0.398619784042,0,0.0,0.0,0.0,0.360737267857,0.079264004367,0.28147326349,0.440001272224,0.079264004367,0.374778288727,107,1.0,-0.290089771429,-0.379592780214,nan,nan,nan,nan,0.0,0.0,0.0,nan,284.295652999,712.865421568,713.365432116,713.264041352,nan,nan,nan,nan
1,351,1,1,1.0,1.0,0.526507825591,0,0.0,0.0,0.0,0.360846439374,0.0791757548779,0.281670684496,0.440022194252,0.0791757548779,0.435974346474,448,0.32026743599,0.409662251776,-1.0,nan,nan,nan,nan,0.0,0.0,0.0,nan,284.295652999,713.865523063,714.36560289,714.392030888,nan,nan,nan,nan
1,352,1,1,1.0,1.0,0.49436589703,0,0.0,1.0,0.0,0.36132247784,0.0795576580003,0.28176481984,0.44088013584,0.0795576580003,0.473164502221,501,0.7564492333,0.256253544744,-1.0,nan,nan,nan,nan,0.0,0.0,0.0,nan,284.295652999,714.865652497,715.374022114,715.360018394,nan,nan,nan,nan
1,353,1,1,1.0,1.0,0.454229540192,1,0.0,0.0,1.0,0.361703691075,0.0797612541189,0.281942436957,0.441464945194,0.0797612541189,0.491701087604,263,0.405698801511,0.284171736334,0.651829885785,-102.716574105,192.716574105,7.79469910466,274.0,0.289344050657,0.322900892411,0.632670269059,1.77560320962,284.295652999,715.86577566,716.365809301,716.3200052,719.474523943,720.478008694,717.682629389,719.466189679
1,354,0,0,1.0,0.0,0.469173798338,0,0.0,0.0,0.0,0.361968050644,0.0798001950502,0.282167855594,0.441768245695,0.0798001950502,0.472589745186,356,-0.17284377641,0.473239407326,0.0788368070227,nan,nan,nan,nan,0.0,0.0,0.0,nan,284.295652999,720.67473674,721.174767531,721.143910538,nan,nan,nan,nan
1,355,1,1,1.0,1.0,0.317032199353,0,0.0,0.0,0.0,0.362273480125,0.0798910444664,0.282382435659,0.442164524591,0.0798910444664,0.413478512627,58,1.0,-0.0760896648475,-1.0,nan,nan,nan,nan,0.0,0.0,0.0,nan,284.295652999,721.674847929,722.17489668,721.991880128,nan,nan,nan,nan
1,356,1,1,1.0,1.0,0.468892691657,0,0.0,0.0,0.0,0.362144953759,0.0798138135766,0.282331140182,0.441958767336,0.0798138135766,0.418366229783,283,0.19826868328,0.351050922538,0.605825948857,nan,nan,nan,nan,0.0,0.0,0.0,nan,284.295652999,722.674978788,723.174997604,723.14387148,nan,nan,nan,nan
1,357,1,1,1.0,1.0,0.396753819659,0,0.0,0.0,0.0,0.362447355283,0.0799023657359,0.282544989547,0.442349721019,0.0799023657359,0.39422623689,451,0.343830962376,0.403518361206,-1.0,nan,nan,nan,nan,0.0,0.0,0.0,nan,284.295652999,723.675103376,724.175145855,724.071857195,nan,nan,nan,nan
1,358,1,1,1.0,1.0,0.396564799361,0,0.0,0.0,0.0,0.362544266199,0.0798102019473,0.282734064252,0.442354468147,0.0798102019473,0.420737103559,59,1.0,-0.0814409933332,-1.0,nan,nan,nan,nan,0.0,0.0,0.0,nan,284.295652999,724.675256759,725.175252482,725.071821558,nan,nan,nan,nan
1,359,1,1,1.0,1.0,0.308477840386,0,0.0,0.0,0.0,0.362640098687,0.0797181077023,0.282921990985,0.442358206389,0.0797181077023,0.367265486469,107,1.0,-0.290089771429,-0.379592780214,nan,nan,nan,nan,0.0,0.0,0.0,nan,284.295652999,725.675344854,726.175378496,725.983822694,nan,nan,nan,nan
1,360,1,1,1.0,1.0,0.28433547169,0,0.0,0.0,0.0,0.362487957512,0.079657660022,0.28283029749,0.442145617534,0.079657660022,0.329792703812,43,1.0,0.00424534395127,-1.0,nan,nan,nan,nan,0.0,0.0,0.0,nan,284.295652999,726.675494815,727.175525891,726.959830287,nan,nan,nan,nan
