block,trial,freq_trials,correct_response,actual_response,acc,rts,probe_trials,trials_colorind0,trials_colorind1,trials_colorind2,trials_colorind3,trials_colorind4,trials_colorind5,wholereport_resp0,wholereport_resp1,wholereport_resp2,wholereport_resp3,wholereport_resp4,wholereport_resp5,wholereport_respacc0,wholereport_respacc1,wholereport_respacc2,wholereport_respacc3,wholereport_respacc4,wholereport_respacc5,wholereport_respacc_total,wholereport_respcolorind0,wholereport_respcolorind1,wholereport_respcolorind2,wholereport_respcolorind3,wholereport_respcolorind4,wholereport_respcolorind5,wholereport_resporder0,wholereport_resporder1,wholereport_resporder2,wholereport_resporder3,wholereport_resporder4,wholereport_resporder5,wholereport_rts0,wholereport_rts1,wholereport_rts2,wholereport_rts3,wholereport_rts4,wholereport_rts5,time_blockstart,time_encarray_offset,time_encarray_onset,time_response,time_iti_offset,time_iti_onset,time_memprobe_offset,time_memprobe_onset
1,1,1,1,1.0,1.0,0.38187762699089944,0,3,0,5,8,6,7,nan,nan,nan,nan,nan,nan,nan,nan,nan,nan,nan,nan,0.0,nan,nan,nan,nan,nan,nan,nan,nan,nan,nan,nan,nan,nan,nan,nan,nan,nan,nan,164.0238608479267,165.0419291096041,nan,165.423806736595,nan,nan,nan,nan
1,2,1,1,1.0,1.0,0.09333396435249597,0,5,3,8,4,0,1,nan,nan,nan,nan,nan,nan,nan,nan,nan,nan,nan,nan,0.0,nan,nan,nan,nan,nan,nan,nan,nan,nan,nan,nan,nan,nan,nan,nan,nan,nan,nan,164.0238608479267,166.05050052923616,nan,166.14383449358866,nan,nan,nan,nan
1,3,1,1,1.0,1.0,0.11691513285040855,0,4,2,7,8,1,0,nan,nan,nan,nan,nan,nan,nan,nan,nan,nan,nan,nan,0.0,nan,nan,nan,nan,nan,nan,nan,nan,nan,nan,nan,nan,nan,nan,nan,nan,nan,nan,164.0238608479267,167.0588703857502,nan,167.1757855186006,nan,nan,nan,nan
1,4,1,1,1.0,1.0,0.3804008283186704,0,0,8,5,6,3,7,nan,nan,nan,nan,nan,nan,nan,nan,nan,nan,nan,nan,0.0,nan,nan,nan,nan,nan,nan,nan,nan,nan,nan,nan,nan,nan,nan,nan,nan,nan,nan,164.0238608479267,168.06733803031966,nan,168.44773885863833,nan,nan,nan,nan
1,5,0,0,0.0,1.0,0.3319304696051404,0,4,3,0,7,1,8,nan,nan,nan,nan,nan,nan,nan,nan,nan,nan,nan,nan,0.0,nan,nan,nan,nan,nan,nan,nan,nan,nan,nan,nan,nan,nan,nan,nan,nan,nan,nan,164.0238608479267,169.07580054318532,nan,169.40773101279046,nan,nan,nan,nan
1,6,1,1,1.0,1.0,0.5314471173333004,0,6,5,7,1,2,4,nan,nan,nan,nan,nan,nan,nan,nan,nan,nan,nan,nan,0.0,nan,nan,nan,nan,nan,nan,nan,nan,nan,nan,nan,nan,nan,nan,nan,nan,nan,nan,164.0238608479267,170.0842567839427,nan,170.615703901276,nan,nan,nan,nan
1,7,1,1,1.0,1.0,0.6589330499991775,0,5,8,1,6,7,0,nan,nan,nan,nan,nan,nan,nan,nan,nan,nan,nan,nan,0.0,nan,nan,nan,nan,nan,nan,nan,nan,nan,nan,nan,nan,nan,nan,nan,nan,nan,nan,164.0238608479267,171.09272271790542,nan,171.7516557679046,nan,nan,nan,nan
1,8,1,1,1.0,1.0,0.6744650951586664,0,8,6,7,0,2,4,nan,nan,nan,nan,nan,nan,nan,nan,nan,nan,nan,nan,0.0,nan,nan,nan,nan,nan,nan,nan,nan,nan,nan,nan,nan,nan,nan,nan,nan,nan,nan,164.0238608479267,172.10117724805605,nan,172.7756423432147,nan,nan,nan,nan
1,9,1,1,1.0,1.0,0.6019844982074574,0,0,4,2,5,7,8,nan,nan,nan,nan,nan,nan,nan,nan,nan,nan,nan,nan,0.0,nan,nan,nan,nan,nan,nan,nan,nan,nan,nan,nan,nan,nan,nan,nan,nan,nan,nan,164.0238608479267,173.10964375222102,nan,173.71162825042848,nan,nan,nan,nan
1,10,1,1,1.0,1.0,0.4654903784394264,0,2,3,0,7,4,6,nan,nan,nan,nan,nan,nan,nan,nan,nan,nan,nan,nan,0.0,nan,nan,nan,nan,nan,nan,nan,nan,nan,nan,nan,nan,nan,nan,nan,nan,nan,nan,164.0238608479267,174.1181105414871,nan,174.58360091992654,nan,nan,nan,nan
1,11,1,1,1.0,1.0,0.6409919412108138,0,3,0,7,1,6,2,nan,nan,nan,nan,nan,nan,nan,nan,nan,nan,nan,nan,0.0,nan,nan,nan,nan,nan,nan,nan,nan,nan,nan,nan,nan,nan,nan,nan,nan,nan,nan,164.0238608479267,175.12657790095545,nan,175.76756984216627,nan,nan,nan,nan
1,12,1,1,1.0,1.0,0.5205424698069692,0,4,5,2,7,1,6,nan,nan,nan,nan,nan,nan,nan,nan,nan,nan,nan,nan,0.0,nan,nan,nan,nan,nan,nan,nan,nan,nan,nan,nan,nan,nan,nan,nan,nan,nan,nan,164.0238608479267,176.13502929499373,nan,176.6555717648007,nan,nan,nan,nan
1,13,0,0,0.0,1.0,0.584039683220908,0,0,4,6,3,5,2,nan,nan,nan,nan,nan,nan,nan,nan,nan,nan,nan,nan,0.0,nan,nan,nan,nan,nan,nan,nan,nan,nan,nan,nan,nan,nan,nan,nan,nan,nan,nan,164.0238608479267,177.14350292657036,nan,177.72754260979127,nan,nan,nan,nan
1,14,1,1,1.0,1.0,0.5995819917879999,0,6,7,0,8,2,5,nan,nan,nan,nan,nan,nan,nan,nan,nan,nan,nan,nan,0.0,nan,nan,nan,nan,nan,nan,nan,nan,nan,nan,nan,nan,nan,nan,nan,nan,nan,nan,164.0238608479267,178.1519346490968,nan,178.7515166408848,nan,nan,nan,nan
1,15,1,1,1.0,1.0,0.5590578365372494,0,7,8,2,3,5,1,nan,nan,nan,nan,nan,nan,nan,nan,nan,nan,nan,nan,0.0,nan,nan,nan,nan,nan,nan,nan,nan,nan,nan,nan,nan,nan,nan,nan,nan,nan,nan,164.0238608479267,179.1604228205979,nan,179.71948065713514,nan,nan,nan,nan
1,16,1,1,1.0,1.0,0.4945930065587163,0,8,1,4,5,6,7,nan,nan,nan,nan,nan,nan,nan,nan,nan,nan,nan,nan,0.0,nan,nan,nan,nan,nan,nan,nan,nan,nan,nan,nan,nan,nan,nan,nan,nan,nan,nan,164.0238608479267,180.16888162714895,nan,180.66347463370766,nan,nan,nan,nan
1,17,1,1,1.0,1.0,0.48607290419749916,0,2,7,3,6,0,1,nan,nan,nan,nan,nan,nan,nan,nan,nan,nan,nan,nan,0.0,nan,nan,nan,nan,nan,nan,nan,nan,nan,nan,nan,nan,nan,nan,nan,nan,nan,nan,164.0238608479267,181.1773643818451,nan,181.6634372860426,nan,nan,nan,nan
1,18,1,1,1.0,1.0,0.4536049996968359,0,5,3,0,2,8,7,nan,nan,nan,nan,nan,nan,nan,nan,nan,nan,nan,nan,0.0,nan,nan,nan,nan,nan,nan,nan,nan,nan,nan,nan,nan,nan,nan,nan,nan,nan,nan,164.0238608479267,182.1858095037751,nan,182.63941450347193,nan,nan,nan,nan
1,19,0,0,0.0,1.0,0.7971023955615237,0,7,5,1,4,6,8,nan,nan,nan,nan,nan,nan,nan,nan,nan,nan,nan,nan,0.0,nan,nan,nan,nan,nan,nan,nan,nan,nan,nan,nan,nan,nan,nan,nan,nan,nan,nan,164.0238608479267,183.19427372713108,nan,183.9913761226926,nan,nan,nan,nan
1,20,1,1,1.0,1.0,0.49230111751239747,0,6,1,2,3,7,4,nan,nan,nan,nan,nan,nan,nan,nan,nan,nan,nan,nan,0.0,nan,nan,nan,nan,nan,nan,nan,nan,nan,nan,nan,nan,nan,nan,nan,nan,nan,nan,164.0238608479267,184.21106931916438,nan,184.70337043667678,nan,nan,nan,nan
1,21,1,1,1.0,1.0,0.6838037089910358,0,3,2,0,5,8,1,nan,nan,nan,nan,nan,nan,nan,nan,nan,nan,nan,nan,0.0,nan,nan,nan,nan,nan,nan,nan,nan,nan,nan,nan,nan,nan,nan,nan,nan,nan,nan,164.0238608479267,185.219532687217,nan,185.90333639620803,nan,nan,nan,nan
1,22,1,1,1.0,1.0,0.4513273654738441,0,8,7,3,6,2,4,nan,nan,nan,nan,nan,nan,nan,nan,nan,nan,nan,nan,0.0,nan,nan,nan,nan,nan,nan,nan,nan,nan,nan,nan,nan,nan,nan,nan,nan,nan,nan,164.0238608479267,186.2279906385811,nan,186.67931800405495,nan,nan,nan,nan
1,23,1,1,1.0,1.0,0.4668468665331602,0,6,8,5,2,3,0,nan,nan,nan,nan,nan,nan,nan,nan,nan,nan,nan,nan,0.0,nan,nan,nan,nan,nan,nan,nan,nan,nan,nan,nan,nan,nan,nan,nan,nan,nan,nan,164.0238608479267,187.23644687922206,nan,187.70329374575522,nan,nan,nan,nan
1,24,1,1,1.0,1.0,0.5543577393982559,0,8,3,4,1,0,7,nan,nan,nan,nan,nan,nan,nan,nan,nan,nan,nan,nan,0.0,nan,nan,nan,nan,nan,nan,nan,nan,nan,nan,nan,nan,nan,nan,nan,nan,nan,nan,164.0238608479267,188.2449130982859,nan,188.79927083768416,nan,nan,nan,nan
1,25,1,1,1.0,1.0,0.49786961800418794,0,2,7,6,3,5,4,nan,nan,nan,nan,nan,nan,nan,nan,nan,nan,nan,nan,0.0,nan,nan,nan,nan,nan,nan,nan,nan,nan,nan,nan,nan,nan,nan,nan,nan,nan,nan,164.0238608479267,189.25337817706168,nan,189.75124779506586,nan,nan,nan,nan
1,26,1,1,1.0,1.0,0.3214041447499767,0,6,2,5,4,1,0,nan,nan,nan,nan,nan,nan,nan,nan,nan,nan,nan,nan,0.0,nan,nan,nan,nan,nan,nan,nan,nan,nan,nan,nan,nan,nan,nan,nan,nan,nan,nan,164.0238608479267,190.26184325572103,nan,190.583247400471,nan,nan,nan,nan
1,27,1,1,1.0,1.0,0.30490077659487724,0,7,5,6,8,4,3,nan,nan,nan,nan,nan,nan,nan,nan,nan,nan,nan,nan,0.0,nan,nan,nan,nan,nan,nan,nan,nan,nan,nan,nan,nan,nan,nan,nan,nan,nan,nan,164.0238608479267,191.2703086194815,nan,191.5752093960764,nan,nan,nan,nan
1,28,1,1,1.0,1.0,0.3844072862993926,0,3,7,4,5,2,0,nan,nan,nan,nan,nan,nan,nan,nan,nan,nan,nan,nan,0.0,nan,nan,nan,nan,nan,nan,nan,nan,nan,nan,nan,nan,nan,nan,nan,nan,nan,nan,164.0238608479267,192.27876543044113,nan,192.66317271674052,nan,nan,nan,nan
1,29,1,1,1.0,1.0,0.2639218927361071,0,7,2,8,4,3,6,nan,nan,nan,nan,nan,nan,nan,nan,nan,nan,nan,nan,0.0,nan,nan,nan,nan,nan,nan,nan,nan,nan,nan,nan,nan,nan,nan,nan,nan,nan,nan,164.0238608479267,193.2872345005162,nan,193.5511563932523,nan,nan,nan,nan
1,30,1,1,1.0,1.0,0.44743722677230835,0,0,6,5,2,8,1,nan,nan,nan,nan,nan,nan,nan,nan,nan,nan,nan,nan,0.0,nan,nan,nan,nan,nan,nan,nan,nan,nan,nan,nan,nan,nan,nan,nan,nan,nan,nan,164.0238608479267,194.2956861796556,nan,194.7431234064279,nan,nan,nan,nan
1,31,1,1,1.0,1.0,0.3989719998789951,0,1,8,0,7,3,6,nan,nan,nan,nan,nan,nan,nan,nan,nan,nan,nan,nan,0.0,nan,nan,nan,nan,nan,nan,nan,nan,nan,nan,nan,nan,nan,nan,nan,nan,nan,nan,164.0238608479267,195.3041541093262,nan,195.7031261092052,nan,nan,nan,nan
1,32,1,1,1.0,1.0,0.2784911679336801,0,6,1,7,5,4,2,nan,nan,nan,nan,nan,nan,nan,nan,nan,nan,nan,nan,0.0,nan,nan,nan,nan,nan,nan,nan,nan,nan,nan,nan,nan,nan,nan,nan,nan,nan,nan,164.0238608479267,196.31261320097838,nan,196.59110436891206,nan,nan,nan,nan
1,33,1,1,1.0,1.0,0.20599660102743655,0,8,3,4,1,0,6,nan,nan,nan,nan,nan,nan,nan,nan,nan,nan,nan,nan,0.0,nan,nan,nan,nan,nan,nan,nan,nan,nan,nan,nan,nan,nan,nan,nan,nan,nan,nan,164.0238608479267,197.32107856485527,nan,197.5270751658827,nan,nan,nan,nan
1,34,1,1,1.0,1.0,0.1014862924348563,0,2,4,8,6,1,5,nan,nan,nan,nan,nan,nan,nan,nan,nan,nan,nan,nan,0.0,nan,nan,nan,nan,nan,nan,nan,nan,nan,nan,nan,nan,nan,nan,nan,nan,nan,nan,164.0238608479267,198.32956417044625,nan,198.4310504628811,nan,nan,nan,nan
1,35,0,0,nan,nan,nan,0,5,7,2,0,4,6,nan,nan,nan,nan,nan,nan,nan,nan,nan,nan,nan,nan,0.0,nan,nan,nan,nan,nan,nan,nan,nan,nan,nan,nan,nan,nan,nan,nan,nan,nan,nan,164.0238608479267,199.33800045435783,nan,nan,nan,nan,nan,nan
1,36,1,1,1.0,1.0,0.6525209496030584,0,1,2,3,5,6,0,nan,nan,nan,nan,nan,nan,nan,nan,nan,nan,nan,nan,0.0,nan,nan,nan,nan,nan,nan,nan,nan,nan,nan,nan,nan,nan,nan,nan,nan,nan,nan,164.0238608479267,200.3464643927291,nan,200.99898534233216,nan,nan,nan,nan
1,37,1,1,1.0,1.0,0.5080472701229155,0,4,0,1,3,8,5,nan,nan,nan,nan,nan,nan,nan,nan,nan,nan,nan,nan,0.0,nan,nan,nan,nan,nan,nan,nan,nan,nan,nan,nan,nan,nan,nan,nan,nan,nan,nan,164.0238608479267,201.3549286160851,nan,201.862975886208,nan,nan,nan,nan
1,38,1,1,1.0,1.0,0.42757057771086693,0,1,6,2,7,5,4,nan,nan,nan,nan,nan,nan,nan,nan,nan,nan,nan,nan,0.0,nan,nan,nan,nan,nan,nan,nan,nan,nan,nan,nan,nan,nan,nan,nan,nan,nan,nan,164.0238608479267,202.36338628234807,nan,202.79095686005894,nan,nan,nan,nan
1,39,1,1,1.0,1.0,0.3070660828379914,0,2,1,4,8,0,5,nan,nan,nan,nan,nan,nan,nan,nan,nan,nan,nan,nan,0.0,nan,nan,nan,nan,nan,nan,nan,nan,nan,nan,nan,nan,nan,nan,nan,nan,nan,nan,164.0238608479267,203.37185706291348,nan,203.67892314575147,nan,nan,nan,nan
1,40,1,1,1.0,1.0,0.26658127072732896,0,3,0,2,4,6,8,nan,nan,nan,nan,nan,nan,nan,nan,nan,nan,nan,nan,0.0,nan,nan,nan,nan,nan,nan,nan,nan,nan,nan,nan,nan,nan,nan,nan,nan,nan,nan,164.0238608479267,204.3803090272704,nan,204.64689029799774,nan,nan,nan,nan
1,41,1,1,1.0,1.0,0.28208936797454953,0,1,7,3,8,2,0,nan,nan,nan,nan,nan,nan,nan,nan,nan,nan,nan,nan,0.0,nan,nan,nan,nan,nan,nan,nan,nan,nan,nan,nan,nan,nan,nan,nan,nan,nan,nan,164.0238608479267,205.38878009293694,nan,205.6708694609115,nan,nan,nan,nan
1,42,1,1,1.0,1.0,0.3936215980211273,0,4,1,0,6,8,3,nan,nan,nan,nan,nan,nan,nan,nan,nan,nan,nan,nan,0.0,nan,nan,nan,nan,nan,nan,nan,nan,nan,nan,nan,nan,nan,nan,nan,nan,nan,nan,164.0238608479267,206.397219798062,nan,206.79084139608312,nan,nan,nan,nan
1,43,1,1,1.0,1.0,0.38511974189896137,0,7,0,6,4,5,2,nan,nan,nan,nan,nan,nan,nan,nan,nan,nan,nan,nan,0.0,nan,nan,nan,nan,nan,nan,nan,nan,nan,nan,nan,nan,nan,nan,nan,nan,nan,nan,164.0238608479267,207.40569399984088,nan,207.79081374173984,nan,nan,nan,nan
1,44,0,0,1.0,0.0,0.26465658587403595,0,2,6,1,7,0,8,nan,nan,nan,nan,nan,nan,nan,nan,nan,nan,nan,nan,0.0,nan,nan,nan,nan,nan,nan,nan,nan,nan,nan,nan,nan,nan,nan,nan,nan,nan,nan,164.0238608479267,208.41414140257984,nan,208.67879798845388,nan,nan,nan,nan
1,45,1,1,0.0,0.0,0.10416562727186829,0,1,8,3,5,6,4,nan,nan,nan,nan,nan,nan,nan,nan,nan,nan,nan,nan,0.0,nan,nan,nan,nan,nan,nan,nan,nan,nan,nan,nan,nan,nan,nan,nan,nan,nan,nan,164.0238608479267,209.4226281485753,nan,209.52679377584718,nan,nan,nan,nan
1,46,1,1,1.0,1.0,0.4876426444388926,0,2,4,6,1,3,5,nan,nan,nan,nan,nan,nan,nan,nan,nan,nan,nan,nan,0.0,nan,nan,nan,nan,nan,nan,nan,nan,nan,nan,nan,nan,nan,nan,nan,nan,nan,nan,164.0238608479267,210.43110833736137,nan,210.91875098180026,nan,nan,nan,nan
1,47,1,1,1.0,1.0,0.36714299605228007,0,4,7,0,6,2,3,nan,nan,nan,nan,nan,nan,nan,nan,nan,nan,nan,nan,0.0,nan,nan,nan,nan,nan,nan,nan,nan,nan,nan,nan,nan,nan,nan,nan,nan,nan,nan,164.0238608479267,211.43959536845796,nan,211.80673836451024,nan,nan,nan,nan
1,48,1,1,1.0,1.0,0.3106999199371785,0,6,1,3,7,4,5,nan,nan,nan,nan,nan,nan,nan,nan,nan,nan,nan,nan,0.0,nan,nan,nan,nan,nan,nan,nan,nan,nan,nan,nan,nan,nan,nan,nan,nan,nan,nan,164.0238608479267,212.44801169575658,nan,212.75871161569376,nan,nan,nan,nan
1,49,1,1,1.0,1.0,0.3342143759364262,0,4,7,1,6,8,0,nan,nan,nan,nan,nan,nan,nan,nan,nan,nan,nan,nan,0.0,nan,nan,nan,nan,nan,nan,nan,nan,nan,nan,nan,nan,nan,nan,nan,nan,nan,nan,164.0238608479267,213.45647107250988,nan,213.7906854484463,nan,nan,nan,nan
1,50,1,1,1.0,1.0,0.5817306883400306,0,6,3,8,5,7,1,nan,nan,nan,nan,nan,nan,nan,nan,nan,nan,nan,nan,0.0,nan,nan,nan,nan,nan,nan,nan,nan,nan,nan,nan,nan,nan,nan,nan,nan,nan,nan,164.0238608479267,214.46493444067892,nan,215.04666512901895,nan,nan,nan,nan
1,51,1,1,1.0,1.0,0.6052574034547433,0,0,8,2,6,5,7,nan,nan,nan,nan,nan,nan,nan,nan,nan,nan,nan,nan,0.0,nan,nan,nan,nan,nan,nan,nan,nan,nan,nan,nan,nan,nan,nan,nan,nan,nan,nan,164.0238608479267,215.47340151504613,nan,216.07865891850088,nan,nan,nan,nan
1,52,1,1,1.0,1.0,0.5727430281694978,0,1,2,8,5,4,3,nan,nan,nan,nan,nan,nan,nan,nan,nan,nan,nan,nan,0.0,nan,nan,nan,nan,nan,nan,nan,nan,nan,nan,nan,nan,nan,nan,nan,nan,nan,nan,164.0238608479267,216.4818680192111,nan,217.0546110473806,nan,nan,nan,nan
1,53,1,1,1.0,1.0,0.5482680827844888,0,6,5,1,7,2,8,nan,nan,nan,nan,nan,nan,nan,nan,nan,nan,nan,nan,0.0,nan,nan,nan,nan,nan,nan,nan,nan,nan,nan,nan,nan,nan,nan,nan,nan,nan,nan,164.0238608479267,217.49032397486735,nan,218.03859205765184,nan,nan,nan,nan
1,54,1,1,1.0,1.0,0.6198035858105868,0,4,0,8,1,7,3,nan,nan,nan,nan,nan,nan,nan,nan,nan,nan,nan,nan,0.0,nan,nan,nan,nan,nan,nan,nan,nan,nan,nan,nan,nan,nan,nan,nan,nan,nan,nan,164.0238608479267,218.49877936020494,nan,219.11858294601552,nan,nan,nan,nan
1,55,1,1,1.0,1.0,0.5152955577941611,0,8,3,0,6,5,7,nan,nan,nan,nan,nan,nan,nan,nan,nan,nan,nan,nan,0.0,nan,nan,nan,nan,nan,nan,nan,nan,nan,nan,nan,nan,nan,nan,nan,nan,nan,nan,164.0238608479267,219.5072455793852,nan,220.02254113717936,nan,nan,nan,nan
1,56,1,1,1.0,1.0,0.3868217666167766,0,5,7,2,3,8,0,nan,nan,nan,nan,nan,nan,nan,nan,nan,nan,nan,nan,0.0,nan,nan,nan,nan,nan,nan,nan,nan,nan,nan,nan,nan,nan,nan,nan,nan,nan,nan,164.0238608479267,220.51570324553177,nan,220.90252501214854,nan,nan,nan,nan
1,57,1,1,nan,nan,nan,0,8,0,1,4,2,6,nan,nan,nan,nan,nan,nan,nan,nan,nan,nan,nan,nan,0.0,nan,nan,nan,nan,nan,nan,nan,nan,nan,nan,nan,nan,nan,nan,nan,nan,nan,nan,164.0238608479267,221.52417345601134,nan,nan,nan,nan,nan,nan
1,58,1,1,nan,nan,nan,0,2,6,3,0,5,8,nan,nan,nan,nan,nan,nan,nan,nan,nan,nan,nan,nan,0.0,nan,nan,nan,nan,nan,nan,nan,nan,nan,nan,nan,nan,nan,nan,nan,nan,nan,nan,164.0238608479267,222.53263397316914,nan,nan,nan,nan,nan,nan
1,59,1,1,1.0,1.0,0.7453477276721969,0,3,1,4,5,6,7,nan,nan,nan,nan,nan,nan,nan,nan,nan,nan,nan,nan,0.0,nan,nan,nan,nan,nan,nan,nan,nan,nan,nan,nan,nan,nan,nan,nan,nan,nan,nan,164.0238608479267,223.54109306482133,nan,224.28644079249352,nan,nan,nan,nan
1,60,1,1,1.0,1.0,0.6808629408478737,0,4,7,1,0,2,3,nan,nan,nan,nan,nan,nan,nan,nan,nan,nan,nan,nan,0.0,nan,nan,nan,nan,nan,nan,nan,nan,nan,nan,nan,nan,nan,nan,nan,nan,nan,nan,164.0238608479267,224.54956441558897,nan,225.23042735643685,nan,nan,nan,nan
1,61,1,1,1.0,1.0,0.728388775489293,0,8,0,4,1,3,6,nan,nan,nan,nan,nan,nan,nan,nan,nan,nan,nan,nan,0.0,nan,nan,nan,nan,nan,nan,nan,nan,nan,nan,nan,nan,nan,nan,nan,nan,nan,nan,164.0238608479267,225.55801951594185,nan,226.28640829143114,nan,nan,nan,nan
1,62,1,1,1.0,1.0,0.615883226855658,0,4,3,6,2,0,7,nan,nan,nan,nan,nan,nan,nan,nan,nan,nan,nan,nan,0.0,nan,nan,nan,nan,nan,nan,nan,nan,nan,nan,nan,nan,nan,nan,nan,nan,nan,nan,164.0238608479267,226.56649286241736,nan,227.18237608927302,nan,nan,nan,nan
1,63,1,1,1.0,1.0,0.4554070932790637,0,6,2,4,3,5,8,nan,nan,nan,nan,nan,nan,nan,nan,nan,nan,nan,nan,0.0,nan,nan,nan,nan,nan,nan,nan,nan,nan,nan,nan,nan,nan,nan,nan,nan,nan,nan,164.0238608479267,227.57494539686013,nan,228.0303524901392,nan,nan,nan,nan
1,64,0,0,0.0,1.0,0.4949339816812426,0,8,3,2,7,1,4,nan,nan,nan,nan,nan,nan,nan,nan,nan,nan,nan,nan,0.0,nan,nan,nan,nan,nan,nan,nan,nan,nan,nan,nan,nan,nan,nan,nan,nan,nan,nan,164.0238608479267,228.5834104756359,nan,229.07834445731714,nan,nan,nan,nan
1,65,1,1,1.0,1.0,0.46240278566256166,0,1,7,0,6,4,2,nan,nan,nan,nan,nan,nan,nan,nan,nan,nan,nan,nan,0.0,nan,nan,nan,nan,nan,nan,nan,nan,nan,nan,nan,nan,nan,nan,nan,nan,nan,nan,164.0238608479267,229.59191888896748,nan,230.05432167463005,nan,nan,nan,nan
1,66,0,0,0.0,1.0,0.6859584666090086,0,8,4,2,5,3,7,nan,nan,nan,nan,nan,nan,nan,nan,nan,nan,nan,nan,0.0,nan,nan,nan,nan,nan,nan,nan,nan,nan,nan,nan,nan,nan,nan,nan,nan,nan,nan,164.0238608479267,230.60032352723647,nan,231.28628199384548,nan,nan,nan,nan
1,67,1,1,1.0,1.0,0.6134596234187484,0,0,5,7,8,4,1,nan,nan,nan,nan,nan,nan,nan,nan,nan,nan,nan,nan,0.0,nan,nan,nan,nan,nan,nan,nan,nan,nan,nan,nan,nan,nan,nan,nan,nan,nan,nan,164.0238608479267,231.60880314582027,nan,232.22226276923902,nan,nan,nan,nan
1,68,1,1,1.0,1.0,0.4689987732563168,0,3,8,4,2,6,5,nan,nan,nan,nan,nan,nan,nan,nan,nan,nan,nan,nan,0.0,nan,nan,nan,nan,nan,nan,nan,nan,nan,nan,nan,nan,nan,nan,nan,nan,nan,nan,164.0238608479267,232.6172511187615,nan,233.0862498920178,nan,nan,nan,nan
1,69,1,1,1.0,1.0,0.316527858027257,0,0,3,6,1,7,4,nan,nan,nan,nan,nan,nan,nan,nan,nan,nan,nan,nan,0.0,nan,nan,nan,nan,nan,nan,nan,nan,nan,nan,nan,nan,nan,nan,nan,nan,nan,nan,164.0238608479267,233.625722184428,nan,233.94225004245527,nan,nan,nan,nan
1,70,0,0,0.0,1.0,0.5000072699040174,0,1,6,4,5,8,2,nan,nan,nan,nan,nan,nan,nan,nan,nan,nan,nan,nan,0.0,nan,nan,nan,nan,nan,nan,nan,nan,nan,nan,nan,nan,nan,nan,nan,nan,nan,nan,164.0238608479267,234.63418726320378,nan,235.1341945331078,nan,nan,nan,nan
1,71,1,1,1.0,1.0,0.6995019653113559,0,5,4,6,0,3,1,nan,nan,nan,nan,nan,nan,nan,nan,nan,nan,nan,nan,0.0,nan,nan,nan,nan,nan,nan,nan,nan,nan,nan,nan,nan,nan,nan,nan,nan,nan,nan,164.0238608479267,235.64266859239433,nan,236.34217055770569,nan,nan,nan,nan
1,72,1,1,1.0,1.0,0.5390457884641364,0,7,1,2,3,5,6,nan,nan,nan,nan,nan,nan,nan,nan,nan,nan,nan,nan,0.0,nan,nan,nan,nan,nan,nan,nan,nan,nan,nan,nan,nan,nan,nan,nan,nan,nan,nan,164.0238608479267,236.6511060167104,nan,237.19015180517454,nan,nan,nan,nan
1,73,1,1,1.0,1.0,0.5225772019475698,0,3,6,5,4,7,0,nan,nan,nan,nan,nan,nan,nan,nan,nan,nan,nan,nan,0.0,nan,nan,nan,nan,nan,nan,nan,nan,nan,nan,nan,nan,nan,nan,nan,nan,nan,nan,164.0238608479267,237.65957508678548,nan,238.18215228873305,nan,nan,nan,nan
1,74,1,1,1.0,1.0,0.4611053125699982,1,0,3,7,1,2,5,1.0,1.0,1.0,1.0,1.0,1.0,0.0,0.0,0.0,0.0,0.0,0.0,0.0,4.0,5.0,5.0,8.0,8.0,4.0,5.0,6.0,1.0,3.0,2.0,4.0,7.827743688132614,8.882743892027065,2.4201634912751615,5.091892232419923,4.24447633093223,6.7947169948602095,164.0238608479267,238.67300540220458,239.47644434764516,239.13411071477458,249.4110401252983,250.4137673563091,240.49325276887976,249.40271189273335
1,75,1,1,nan,nan,nan,0,2,1,5,4,0,7,nan,nan,nan,nan,nan,nan,nan,nan,nan,nan,nan,nan,0.0,nan,nan,nan,nan,nan,nan,nan,nan,nan,nan,nan,nan,nan,nan,nan,nan,nan,nan,164.0238608479267,250.6195672409376,nan,nan,nan,nan,nan,nan
1,76,1,1,1.0,1.0,0.009868037537671626,0,8,2,0,1,7,6,nan,nan,nan,nan,nan,nan,nan,nan,nan,nan,nan,nan,0.0,nan,nan,nan,nan,nan,nan,nan,nan,nan,nan,nan,nan,nan,nan,nan,nan,nan,nan,164.0238608479267,251.62799668253865,nan,251.63786472007632,nan,nan,nan,nan
1,77,1,1,1.0,1.0,0.42523991561029106,0,3,4,7,5,0,2,nan,nan,nan,nan,nan,nan,nan,nan,nan,nan,nan,nan,0.0,nan,nan,nan,nan,nan,nan,nan,nan,nan,nan,nan,nan,nan,nan,nan,nan,nan,nan,164.0238608479267,252.63652761850972,nan,253.06176753412,nan,nan,nan,nan
1,78,1,1,1.0,1.0,0.6647969101322815,0,4,7,1,0,5,6,nan,nan,nan,nan,nan,nan,nan,nan,nan,nan,nan,nan,0.0,nan,nan,nan,nan,nan,nan,nan,nan,nan,nan,nan,nan,nan,nan,nan,nan,nan,nan,164.0238608479267,253.64495763042942,nan,254.3097545405617,nan,nan,nan,nan
1,79,0,0,0.0,1.0,0.600309272413142,0,3,0,4,8,7,2,nan,nan,nan,nan,nan,nan,nan,nan,nan,nan,nan,nan,0.0,nan,nan,nan,nan,nan,nan,nan,nan,nan,nan,nan,nan,nan,nan,nan,nan,nan,nan,164.0238608479267,254.653415296576,nan,255.25372456898913,nan,nan,nan,nan
1,80,1,1,1.0,1.0,0.4478377870982513,0,4,2,6,1,0,3,nan,nan,nan,nan,nan,nan,nan,nan,nan,nan,nan,nan,0.0,nan,nan,nan,nan,nan,nan,nan,nan,nan,nan,nan,nan,nan,nan,nan,nan,nan,nan,164.0238608479267,255.66187638393603,nan,256.1097141710343,nan,nan,nan,nan
1,81,1,1,1.0,1.0,0.42335713980719447,0,6,5,4,3,2,0,nan,nan,nan,nan,nan,nan,nan,nan,nan,nan,nan,nan,0.0,nan,nan,nan,nan,nan,nan,nan,nan,nan,nan,nan,nan,nan,nan,nan,nan,nan,nan,164.0238608479267,256.67034089239314,nan,257.09369803220034,nan,nan,nan,nan
1,82,1,1,1.0,1.0,0.4948627076810226,0,0,8,6,4,3,7,nan,nan,nan,nan,nan,nan,nan,nan,nan,nan,nan,nan,0.0,nan,nan,nan,nan,nan,nan,nan,nan,nan,nan,nan,nan,nan,nan,nan,nan,nan,nan,164.0238608479267,257.6788082518615,nan,258.1736709595425,nan,nan,nan,nan
1,83,1,1,1.0,1.0,0.3103717740159482,0,4,3,5,0,7,8,nan,nan,nan,nan,nan,nan,nan,nan,nan,nan,nan,nan,0.0,nan,nan,nan,nan,nan,nan,nan,nan,nan,nan,nan,nan,nan,nan,nan,nan,nan,nan,164.0238608479267,258.6872664883267,nan,258.99763826234266,nan,nan,nan,nan
1,84,1,1,1.0,1.0,0.2779092864366248,0,0,1,2,7,6,5,nan,nan,nan,nan,nan,nan,nan,nan,nan,nan,nan,nan,0.0,nan,nan,nan,nan,nan,nan,nan,nan,nan,nan,nan,nan,nan,nan,nan,nan,nan,nan,164.0238608479267,259.6957218736643,nan,259.9736311601009,nan,nan,nan,nan
1,85,1,1,1.0,1.0,0.2694074301980436,0,5,0,7,4,3,6,nan,nan,nan,nan,nan,nan,nan,nan,nan,nan,nan,nan,0.0,nan,nan,nan,nan,nan,nan,nan,nan,nan,nan,nan,nan,nan,nan,nan,nan,nan,nan,164.0238608479267,260.70418695244007,nan,260.9735943826381,nan,nan,nan,nan
1,86,1,1,1.0,1.0,0.380920558818616,0,3,4,0,8,2,5,nan,nan,nan,nan,nan,nan,nan,nan,nan,nan,nan,nan,0.0,nan,nan,nan,nan,nan,nan,nan,nan,nan,nan,nan,nan,nan,nan,nan,nan,nan,nan,164.0238608479267,261.71265231620055,nan,262.09357287501916,nan,nan,nan,nan
1,87,1,1,1.0,1.0,0.7484401669353247,0,7,1,6,2,8,4,nan,nan,nan,nan,nan,nan,nan,nan,nan,nan,nan,nan,0.0,nan,nan,nan,nan,nan,nan,nan,nan,nan,nan,nan,nan,nan,nan,nan,nan,nan,nan,164.0238608479267,262.72110912716016,nan,263.4695492940955,nan,nan,nan,nan
1,88,1,1,1.0,1.0,0.7159480291884392,0,4,6,2,7,3,1,nan,nan,nan,nan,nan,nan,nan,nan,nan,nan,nan,nan,0.0,nan,nan,nan,nan,nan,nan,nan,nan,nan,nan,nan,nan,nan,nan,nan,nan,nan,nan,164.0238608479267,263.72957705683075,nan,264.4455250860192,nan,nan,nan,nan
1,89,1,1,1.0,1.0,0.6434702831320465,0,2,4,3,0,7,5,nan,nan,nan,nan,nan,nan,nan,nan,nan,nan,nan,nan,0.0,nan,nan,nan,nan,nan,nan,nan,nan,nan,nan,nan,nan,nan,nan,nan,nan,nan,nan,164.0238608479267,264.7380381441908,nan,265.38150842732284,nan,nan,nan,nan
1,90,1,1,1.0,1.0,0.4749855099944398,0,5,7,0,2,6,4,nan,nan,nan,nan,nan,nan,nan,nan,nan,nan,nan,nan,0.0,nan,nan,nan,nan,nan,nan,nan,nan,nan,nan,nan,nan,nan,nan,nan,nan,nan,nan,164.0238608479267,265.7465040781535,nan,266.22148958814796,nan,nan,nan,nan
1,91,0,0,0.0,1.0,0.5144915863638744,0,8,2,1,7,0,3,nan,nan,nan,nan,nan,nan,nan,nan,nan,nan,nan,nan,0.0,nan,nan,nan,nan,nan,nan,nan,nan,nan,nan,nan,nan,nan,nan,nan,nan,nan,nan,164.0238608479267,266.7549628847046,nan,267.26945447106846,nan,nan,nan,nan
1,92,1,1,1.0,1.0,0.38600354024674743,0,1,5,7,6,3,8,nan,nan,nan,nan,nan,nan,nan,nan,nan,nan,nan,nan,0.0,nan,nan,nan,nan,nan,nan,nan,nan,nan,nan,nan,nan,nan,nan,nan,nan,nan,nan,164.0238608479267,267.7634251124691,nan,268.14942865271587,nan,nan,nan,nan
1,93,1,1,1.0,1.0,0.5535563337616622,0,3,7,6,4,1,0,nan,nan,nan,nan,nan,nan,nan,nan,nan,nan,nan,nan,0.0,nan,nan,nan,nan,nan,nan,nan,nan,nan,nan,nan,nan,nan,nan,nan,nan,nan,nan,164.0238608479267,268.77186082617845,nan,269.3254171599401,nan,nan,nan,nan
1,94,1,1,1.0,1.0,0.4730154947610572,0,6,4,8,1,7,3,nan,nan,nan,nan,nan,nan,nan,nan,nan,nan,nan,nan,0.0,nan,nan,nan,nan,nan,nan,nan,nan,nan,nan,nan,nan,nan,nan,nan,nan,nan,nan,164.0238608479267,269.78037807752844,nan,270.2533935722895,nan,nan,nan,nan
1,95,1,1,1.0,1.0,0.504577363259159,0,7,1,5,8,2,6,nan,nan,nan,nan,nan,nan,nan,nan,nan,nan,nan,nan,0.0,nan,nan,nan,nan,nan,nan,nan,nan,nan,nan,nan,nan,nan,nan,nan,nan,nan,nan,164.0238608479267,270.7887810053071,nan,271.29335836856626,nan,nan,nan,nan
1,96,1,1,nan,nan,nan,0,0,5,4,1,7,8,nan,nan,nan,nan,nan,nan,nan,nan,nan,nan,nan,nan,0.0,nan,nan,nan,nan,nan,nan,nan,nan,nan,nan,nan,nan,nan,nan,nan,nan,nan,nan,164.0238608479267,271.79726746620145,nan,nan,nan,nan,nan,nan
1,97,1,1,1.0,1.0,0.7916165728820488,0,3,7,1,8,4,0,nan,nan,nan,nan,nan,nan,nan,nan,nan,nan,nan,nan,0.0,nan,nan,nan,nan,nan,nan,nan,nan,nan,nan,nan,nan,nan,nan,nan,nan,nan,nan,164.0238608479267,272.8057239919435,nan,273.5973405648256,nan,nan,nan,nan
1,98,1,1,1.0,1.0,0.7191237166989595,0,7,8,4,2,0,3,nan,nan,nan,nan,nan,nan,nan,nan,nan,nan,nan,nan,0.0,nan,nan,nan,nan,nan,nan,nan,nan,nan,nan,nan,nan,nan,nan,nan,nan,nan,nan,164.0238608479267,273.8141739605926,nan,274.53329767729156,nan,nan,nan,nan
1,99,1,1,1.0,1.0,0.6466091930633411,0,2,5,0,3,7,6,nan,nan,nan,nan,nan,nan,nan,nan,nan,nan,nan,nan,0.0,nan,nan,nan,nan,nan,nan,nan,nan,nan,nan,nan,nan,nan,nan,nan,nan,nan,nan,164.0238608479267,274.8226638427004,nan,275.46927303576376,nan,nan,nan,nan
1,100,1,1,1.0,1.0,0.6461231039138511,0,1,2,3,0,6,8,nan,nan,nan,nan,nan,nan,nan,nan,nan,nan,nan,nan,0.0,nan,nan,nan,nan,nan,nan,nan,nan,nan,nan,nan,nan,nan,nan,nan,nan,nan,nan,164.0238608479267,275.83112464495935,nan,276.4772477488732,nan,nan,nan,nan
1,101,1,1,1.0,1.0,0.6456284619634971,0,0,1,7,2,8,4,nan,nan,nan,nan,nan,nan,nan,nan,nan,nan,nan,nan,0.0,nan,nan,nan,nan,nan,nan,nan,nan,nan,nan,nan,nan,nan,nan,nan,nan,nan,nan,164.0238608479267,276.8395860173041,nan,277.4852144792676,nan,nan,nan,nan
1,102,1,1,1.0,1.0,0.5571844689548016,0,2,4,5,1,0,7,nan,nan,nan,nan,nan,nan,nan,nan,nan,nan,nan,nan,0.0,nan,nan,nan,nan,nan,nan,nan,nan,nan,nan,nan,nan,nan,nan,nan,nan,nan,nan,164.0238608479267,277.8480234417366,nan,278.4052079106914,nan,nan,nan,nan
1,103,1,1,1.0,1.0,0.500674395239912,0,4,3,1,7,8,0,nan,nan,nan,nan,nan,nan,nan,nan,nan,nan,nan,nan,0.0,nan,nan,nan,nan,nan,nan,nan,nan,nan,nan,nan,nan,nan,nan,nan,nan,nan,nan,164.0238608479267,278.8565133238444,nan,279.3571877190843,nan,nan,nan,nan
1,104,1,1,1.0,1.0,0.44417800614610314,0,3,0,4,6,2,8,nan,nan,nan,nan,nan,nan,nan,nan,nan,nan,nan,nan,0.0,nan,nan,nan,nan,nan,nan,nan,nan,nan,nan,nan,nan,nan,nan,nan,nan,nan,nan,164.0238608479267,279.86497469618917,nan,280.30915270233527,nan,nan,nan,nan
1,105,1,1,1.0,1.0,0.45969978789798915,0,0,6,1,8,4,2,nan,nan,nan,nan,nan,nan,nan,nan,nan,nan,nan,nan,0.0,nan,nan,nan,nan,nan,nan,nan,nan,nan,nan,nan,nan,nan,nan,nan,nan,nan,nan,164.0238608479267,280.87343635375146,nan,281.33313614164945,nan,nan,nan,nan
1,106,1,1,1.0,1.0,0.32321650185622275,0,4,8,6,2,3,1,nan,nan,nan,nan,nan,nan,nan,nan,nan,nan,nan,nan,0.0,nan,nan,nan,nan,nan,nan,nan,nan,nan,nan,nan,nan,nan,nan,nan,nan,nan,nan,164.0238608479267,281.88189943681937,nan,282.2051159386756,nan,nan,nan,nan
1,107,1,1,1.0,1.0,0.35473703138995916,0,6,0,1,5,4,7,nan,nan,nan,nan,nan,nan,nan,nan,nan,nan,nan,nan,0.0,nan,nan,nan,nan,nan,nan,nan,nan,nan,nan,nan,nan,nan,nan,nan,nan,nan,nan,164.0238608479267,282.8903616645839,nan,283.24509869597387,nan,nan,nan,nan
1,108,1,1,1.0,1.0,0.33025410340633243,0,3,7,6,0,8,2,nan,nan,nan,nan,nan,nan,nan,nan,nan,nan,nan,nan,0.0,nan,nan,nan,nan,nan,nan,nan,nan,nan,nan,nan,nan,nan,nan,nan,nan,nan,nan,164.0238608479267,283.8988207562361,nan,284.2290748596424,nan,nan,nan,nan
1,109,1,1,1.0,1.0,0.5537122813984752,0,1,2,7,6,5,8,nan,nan,nan,nan,nan,nan,nan,nan,nan,nan,nan,nan,0.0,nan,nan,nan,nan,nan,nan,nan,nan,nan,nan,nan,nan,nan,nan,nan,nan,nan,nan,164.0238608479267,284.90732232725713,nan,285.4610346086556,nan,nan,nan,nan
1,110,1,1,1.0,1.0,0.5612354018958285,0,7,6,5,4,2,0,nan,nan,nan,nan,nan,nan,nan,nan,nan,nan,nan,nan,0.0,nan,nan,nan,nan,nan,nan,nan,nan,nan,nan,nan,nan,nan,nan,nan,nan,nan,nan,164.0238608479267,285.9157720108051,nan,286.4770074127009,nan,nan,nan,nan
1,111,1,1,1.0,1.0,0.4327730145305395,0,4,5,1,0,7,3,nan,nan,nan,nan,nan,nan,nan,nan,nan,nan,nan,nan,0.0,nan,nan,nan,nan,nan,nan,nan,nan,nan,nan,nan,nan,nan,nan,nan,nan,nan,nan,164.0238608479267,286.9242316726595,nan,287.35700468719006,nan,nan,nan,nan
1,112,1,1,1.0,1.0,0.4002996932249516,0,1,8,4,2,3,6,nan,nan,nan,nan,nan,nan,nan,nan,nan,nan,nan,nan,0.0,nan,nan,nan,nan,nan,nan,nan,nan,nan,nan,nan,nan,nan,nan,nan,nan,nan,nan,164.0238608479267,287.93270530423615,nan,288.3330049974611,nan,nan,nan,nan
1,113,1,1,1.0,1.0,0.35180282057262957,1,6,3,5,8,4,7,1.0,1.0,1.0,1.0,1.0,1.0,0.0,0.0,1.0,1.0,0.0,0.0,2.0,3.0,4.0,5.0,8.0,0.0,2.0,6.0,3.0,1.0,2.0,4.0,5.0,7.200952107436024,3.3862304768990725,1.818066950305365,2.5614415265154094,5.209493592032231,6.19262159417849,164.0238608479267,288.94113531603944,289.7495551784523,289.29293813661207,298.00892836006824,299.0066889288137,290.7663447834784,298.00060497422237
1,114,1,1,nan,nan,nan,0,4,1,0,3,8,6,nan,nan,nan,nan,nan,nan,nan,nan,nan,nan,nan,nan,0.0,nan,nan,nan,nan,nan,nan,nan,nan,nan,nan,nan,nan,nan,nan,nan,nan,nan,nan,164.0238608479267,299.2091252475511,nan,nan,nan,nan,nan,nan
1,115,1,1,1.0,1.0,0.6030932376161218,0,3,5,4,7,0,8,nan,nan,nan,nan,nan,nan,nan,nan,nan,nan,nan,nan,0.0,nan,nan,nan,nan,nan,nan,nan,nan,nan,nan,nan,nan,nan,nan,nan,nan,nan,nan,164.0238608479267,300.21757350559346,nan,300.8206667432096,nan,nan,nan,nan
1,116,1,1,1.0,1.0,0.474601200199686,1,5,7,1,6,2,0,1.0,1.0,1.0,1.0,1.0,1.0,0.0,1.0,0.0,0.0,0.0,1.0,2.0,3.0,7.0,5.0,5.0,1.0,0.0,5.0,6.0,1.0,2.0,3.0,4.0,8.356303350417875,9.172017116099596,2.317720700870268,3.1652067361865193,6.667690637521446,7.53246690670494,164.0238608479267,301.2260656685103,302.0344575914787,301.70066686870996,312.25243450840935,313.2491761429701,303.0429232403403,312.2440948720323
1,117,1,1,nan,nan,nan,1,0,6,5,4,7,3,1.0,1.0,1.0,1.0,1.0,1.0,0.0,0.0,1.0,1.0,1.0,0.0,3.0,3.0,1.0,5.0,4.0,7.0,7.0,6.0,3.0,2.0,1.0,4.0,5.0,6.568756812019274,3.4974468202563003,2.946806736290455,1.5774890258908272,4.913727585342713,5.872871007886715,164.0238608479267,313.45259975013323,314.2610062130261,nan,321.88698156306054,322.8897598263575,315.27778840553947,321.87866045802366
1,118,1,1,nan,nan,nan,0,3,0,7,1,5,2,nan,nan,nan,nan,nan,nan,nan,nan,nan,nan,nan,nan,0.0,nan,nan,nan,nan,nan,nan,nan,nan,nan,nan,nan,nan,nan,nan,nan,nan,nan,nan,164.0238608479267,323.0955015512882,nan,nan,nan,nan,nan,nan
1,119,1,1,1.0,1.0,0.02022016840055585,1,0,3,5,2,8,4,1.0,1.0,1.0,1.0,1.0,1.0,0.0,1.0,1.0,1.0,0.0,1.0,4.0,1.0,3.0,5.0,2.0,4.0,4.0,6.0,3.0,2.0,1.0,4.0,5.0,9.564766889554448,3.6291718494612724,2.797121781972237,2.1191146506462246,6.28519064525608,7.3818653678754345,164.0238608479267,324.1039432521211,324.91238706267904,324.12416342052165,335.5304048053222,336.5394557568943,325.9291621276643,335.52207286655903
1,120,1,1,nan,nan,nan,0,5,0,2,4,7,3,nan,nan,nan,nan,nan,nan,nan,nan,nan,nan,nan,nan,0.0,nan,nan,nan,nan,nan,nan,nan,nan,nan,nan,nan,nan,nan,nan,nan,nan,nan,nan,164.0238608479267,336.747254451504,nan,nan,nan,nan,nan,nan
1,121,0,0,0.0,1.0,0.7920818499987945,0,8,5,0,7,4,1,nan,nan,nan,nan,nan,nan,nan,nan,nan,nan,nan,nan,0.0,nan,nan,nan,nan,nan,nan,nan,nan,nan,nan,nan,nan,nan,nan,nan,nan,nan,nan,164.0238608479267,337.7557152537629,nan,338.5477971037617,nan,nan,nan,nan
1,122,1,1,1.0,1.0,0.7436072148848325,0,3,8,5,0,7,6,nan,nan,nan,nan,nan,nan,nan,nan,nan,nan,nan,nan,0.0,nan,nan,nan,nan,nan,nan,nan,nan,nan,nan,nan,nan,nan,nan,nan,nan,nan,nan,164.0238608479267,338.76419772335794,nan,339.50780493824277,nan,nan,nan,nan
1,123,1,1,1.0,1.0,0.7270904470933601,0,1,0,3,4,2,8,nan,nan,nan,nan,nan,nan,nan,nan,nan,nan,nan,nan,0.0,nan,nan,nan,nan,nan,nan,nan,nan,nan,nan,nan,nan,nan,nan,nan,nan,nan,nan,164.0238608479267,339.77268903085496,nan,340.4997794779483,nan,nan,nan,nan
1,124,1,1,1.0,1.0,0.6466818926855922,0,2,6,8,7,3,0,nan,nan,nan,nan,nan,nan,nan,nan,nan,nan,nan,nan,0.0,nan,nan,nan,nan,nan,nan,nan,nan,nan,nan,nan,nan,nan,nan,nan,nan,nan,nan,164.0238608479267,340.7810768485069,nan,341.4277587411925,nan,nan,nan,nan
1,125,1,1,1.0,1.0,0.702163054025732,0,1,3,2,6,7,4,nan,nan,nan,nan,nan,nan,nan,nan,nan,nan,nan,nan,0.0,nan,nan,nan,nan,nan,nan,nan,nan,nan,nan,nan,nan,nan,nan,nan,nan,nan,nan,164.0238608479267,341.7895561819896,nan,342.49171923601534,nan,nan,nan,nan
1,126,1,1,1.0,1.0,0.6936700358055532,1,6,4,3,0,8,7,1.0,1.0,1.0,1.0,1.0,1.0,0.0,0.0,1.0,1.0,1.0,0.0,3.0,5.0,2.0,3.0,0.0,8.0,4.0,5.0,6.0,1.0,2.0,3.0,4.0,5.935760966152884,6.926929538720287,1.5348143895389512,2.585439220769331,3.5753331278683618,4.807155745569617,164.0238608479267,342.79802582226694,343.60643485106993,343.4916958580725,351.5824579689652,352.59149038919713,344.6149062018376,351.57408839743584
1,127,1,1,1.0,1.0,0.6601831971202046,0,0,3,7,5,6,4,nan,nan,nan,nan,nan,nan,nan,nan,nan,nan,nan,nan,0.0,nan,nan,nan,nan,nan,nan,nan,nan,nan,nan,nan,nan,nan,nan,nan,nan,nan,nan,164.0238608479267,352.7993016281398,nan,353.45948482526,nan,nan,nan,nan
1,128,1,1,1.0,1.0,0.5396690089255571,0,6,1,3,7,8,0,nan,nan,nan,nan,nan,nan,nan,nan,nan,nan,nan,nan,0.0,nan,nan,nan,nan,nan,nan,nan,nan,nan,nan,nan,nan,nan,nan,nan,nan,nan,nan,164.0238608479267,353.8077732640086,nan,354.34744227293413,nan,nan,nan,nan
1,129,1,1,1.0,1.0,0.459185189101845,0,8,5,4,0,2,3,nan,nan,nan,nan,nan,nan,nan,nan,nan,nan,nan,nan,0.0,nan,nan,nan,nan,nan,nan,nan,nan,nan,nan,nan,nan,nan,nan,nan,nan,nan,nan,164.0238608479267,354.81623834278435,nan,355.2754235318862,nan,nan,nan,nan
1,130,1,1,1.0,1.0,0.32272242999169976,0,3,4,1,7,5,2,nan,nan,nan,nan,nan,nan,nan,nan,nan,nan,nan,nan,0.0,nan,nan,nan,nan,nan,nan,nan,nan,nan,nan,nan,nan,nan,nan,nan,nan,nan,nan,164.0238608479267,355.8246868858114,nan,356.1474093158031,nan,nan,nan,nan
1,131,1,1,1.0,1.0,0.33020820294041187,0,0,1,7,8,6,5,nan,nan,nan,nan,nan,nan,nan,nan,nan,nan,nan,nan,0.0,nan,nan,nan,nan,nan,nan,nan,nan,nan,nan,nan,nan,nan,nan,nan,nan,nan,nan,164.0238608479267,356.8331616577925,nan,357.1633698607329,nan,nan,nan,nan
1,132,1,1,1.0,1.0,0.2657539213541895,0,2,4,1,7,0,6,nan,nan,nan,nan,nan,nan,nan,nan,nan,nan,nan,nan,0.0,nan,nan,nan,nan,nan,nan,nan,nan,nan,nan,nan,nan,nan,nan,nan,nan,nan,nan,164.0238608479267,357.84161846875213,nan,358.1073723901063,nan,nan,nan,nan
1,133,1,1,1.0,1.0,0.3052374752005562,0,3,5,8,4,6,1,nan,nan,nan,nan,nan,nan,nan,nan,nan,nan,nan,nan,0.0,nan,nan,nan,nan,nan,nan,nan,nan,nan,nan,nan,nan,nan,nan,nan,nan,nan,nan,164.0238608479267,358.85008554311935,nan,359.1553230183199,nan,nan,nan,nan
1,134,0,0,0.0,1.0,0.744742468232289,0,5,6,2,8,1,7,nan,nan,nan,nan,nan,nan,nan,nan,nan,nan,nan,nan,0.0,nan,nan,nan,nan,nan,nan,nan,nan,nan,nan,nan,nan,nan,nan,nan,nan,nan,nan,164.0238608479267,359.85855233238544,nan,360.60329480061773,nan,nan,nan,nan
1,135,1,1,1.0,1.0,0.5602617982076481,0,1,5,0,3,8,6,nan,nan,nan,nan,nan,nan,nan,nan,nan,nan,nan,nan,0.0,nan,nan,nan,nan,nan,nan,nan,nan,nan,nan,nan,nan,nan,nan,nan,nan,nan,nan,164.0238608479267,360.86701056873426,nan,361.4272723669419,nan,nan,nan,nan
1,136,1,1,1.0,1.0,0.5037845105398446,0,2,6,4,8,1,5,nan,nan,nan,nan,nan,nan,nan,nan,nan,nan,nan,nan,0.0,nan,nan,nan,nan,nan,nan,nan,nan,nan,nan,nan,nan,nan,nan,nan,nan,nan,nan,164.0238608479267,361.8754750773078,nan,362.3792595878476,nan,nan,nan,nan
1,137,1,1,nan,nan,nan,0,1,7,5,4,0,8,nan,nan,nan,nan,nan,nan,nan,nan,nan,nan,nan,nan,0.0,nan,nan,nan,nan,nan,nan,nan,nan,nan,nan,nan,nan,nan,nan,nan,nan,nan,nan,164.0238608479267,362.8839355944656,nan,nan,nan,nan,nan,nan
1,138,0,0,0.0,1.0,0.5588106581708416,0,6,0,8,7,2,1,nan,nan,nan,nan,nan,nan,nan,nan,nan,nan,nan,nan,0.0,nan,nan,nan,nan,nan,nan,nan,nan,nan,nan,nan,nan,nan,nan,nan,nan,nan,nan,164.0238608479267,363.8923847076949,nan,364.4511953658657,nan,nan,nan,nan
1,139,1,1,1.0,1.0,0.43836375267710537,0,0,8,5,4,1,6,nan,nan,nan,nan,nan,nan,nan,nan,nan,nan,nan,nan,0.0,nan,nan,nan,nan,nan,nan,nan,nan,nan,nan,nan,nan,nan,nan,nan,nan,nan,nan,164.0238608479267,364.90085263736546,nan,365.33921639004257,nan,nan,nan,nan
1,140,1,1,1.0,1.0,0.757829527836293,0,6,7,3,2,0,1,nan,nan,nan,nan,nan,nan,nan,nan,nan,nan,nan,nan,0.0,nan,nan,nan,nan,nan,nan,nan,nan,nan,nan,nan,nan,nan,nan,nan,nan,nan,nan,164.0238608479267,365.909325983841,nan,366.66715551167727,nan,nan,nan,nan
1,141,1,1,1.0,1.0,0.6773465633159503,0,7,1,4,5,8,2,nan,nan,nan,nan,nan,nan,nan,nan,nan,nan,nan,nan,0.0,nan,nan,nan,nan,nan,nan,nan,nan,nan,nan,nan,nan,nan,nan,nan,nan,nan,nan,164.0238608479267,366.9177845054073,nan,367.5951310687233,nan,nan,nan,nan
1,142,1,1,1.0,1.0,0.6768667462747544,0,3,4,2,8,1,0,nan,nan,nan,nan,nan,nan,nan,nan,nan,nan,nan,nan,0.0,nan,nan,nan,nan,nan,nan,nan,nan,nan,nan,nan,nan,nan,nan,nan,nan,nan,nan,164.0238608479267,367.92624388216063,nan,368.6031106284354,nan,nan,nan,nan
1,143,0,0,nan,nan,nan,0,5,2,3,4,6,1,nan,nan,nan,nan,nan,nan,nan,nan,nan,nan,nan,nan,0.0,nan,nan,nan,nan,nan,nan,nan,nan,nan,nan,nan,nan,nan,nan,nan,nan,nan,nan,164.0238608479267,368.93471238203347,nan,nan,nan,nan,nan,nan
1,144,1,1,1.0,1.0,0.7318891875911504,0,0,7,2,1,4,5,nan,nan,nan,nan,nan,nan,nan,nan,nan,nan,nan,nan,0.0,nan,nan,nan,nan,nan,nan,nan,nan,nan,nan,nan,nan,nan,nan,nan,nan,nan,nan,164.0238608479267,369.94315892946906,nan,370.6750481170602,nan,nan,nan,nan
1,145,1,1,1.0,1.0,0.6834082803688943,0,7,3,0,6,8,2,nan,nan,nan,nan,nan,nan,nan,nan,nan,nan,nan,nan,0.0,nan,nan,nan,nan,nan,nan,nan,nan,nan,nan,nan,nan,nan,nan,nan,nan,nan,nan,164.0238608479267,370.95162799954414,nan,371.63503627991304,nan,nan,nan,nan
1,146,0,0,0.0,1.0,0.6909245586721227,0,5,0,7,1,2,6,nan,nan,nan,nan,nan,nan,nan,nan,nan,nan,nan,nan,0.0,nan,nan,nan,nan,nan,nan,nan,nan,nan,nan,nan,nan,nan,nan,nan,nan,nan,nan,164.0238608479267,371.96009906521067,nan,372.6510236238828,nan,nan,nan,nan
1,147,1,1,1.0,1.0,0.4584456494776532,0,2,6,4,3,5,1,nan,nan,nan,nan,nan,nan,nan,nan,nan,nan,nan,nan,0.0,nan,nan,nan,nan,nan,nan,nan,nan,nan,nan,nan,nan,nan,nan,nan,nan,nan,nan,164.0238608479267,372.96855701645836,nan,373.427002665936,nan,nan,nan,nan
1,148,1,1,1.0,1.0,0.745955552905798,0,3,0,1,6,7,4,nan,nan,nan,nan,nan,nan,nan,nan,nan,nan,nan,nan,0.0,nan,nan,nan,nan,nan,nan,nan,nan,nan,nan,nan,nan,nan,nan,nan,nan,nan,nan,164.0238608479267,373.97702238033526,nan,374.72297793324105,nan,nan,nan,nan
1,149,0,0,0.0,1.0,0.7534609974827617,0,8,6,5,4,2,3,nan,nan,nan,nan,nan,nan,nan,nan,nan,nan,nan,nan,0.0,nan,nan,nan,nan,nan,nan,nan,nan,nan,nan,nan,nan,nan,nan,nan,nan,nan,nan,164.0238608479267,374.98549031000584,nan,375.7389513074886,nan,nan,nan,nan
1,150,1,1,1.0,1.0,0.6809858173364773,0,6,3,7,1,4,2,nan,nan,nan,nan,nan,nan,nan,nan,nan,nan,nan,nan,0.0,nan,nan,nan,nan,nan,nan,nan,nan,nan,nan,nan,nan,nan,nan,nan,nan,nan,nan,164.0238608479267,375.99394341465086,nan,376.67492923198733,nan,nan,nan,nan
1,151,1,1,1.0,1.0,0.5444919826695696,0,4,2,0,3,8,6,nan,nan,nan,nan,nan,nan,nan,nan,nan,nan,nan,nan,0.0,nan,nan,nan,nan,nan,nan,nan,nan,nan,nan,nan,nan,nan,nan,nan,nan,nan,nan,164.0238608479267,377.0024093486136,nan,377.54690133128315,nan,nan,nan,nan
1,152,1,1,1.0,1.0,0.5760113719152287,0,1,7,2,4,5,8,nan,nan,nan,nan,nan,nan,nan,nan,nan,nan,nan,nan,0.0,nan,nan,nan,nan,nan,nan,nan,nan,nan,nan,nan,nan,nan,nan,nan,nan,nan,nan,164.0238608479267,378.01087585277855,nan,378.5868872246938,nan,nan,nan,nan
1,153,1,1,1.0,1.0,0.5595330921933055,0,3,4,7,6,8,0,nan,nan,nan,nan,nan,nan,nan,nan,nan,nan,nan,nan,0.0,nan,nan,nan,nan,nan,nan,nan,nan,nan,nan,nan,nan,nan,nan,nan,nan,nan,nan,164.0238608479267,379.01933608483523,nan,379.57886917702854,nan,nan,nan,nan
1,154,0,0,0.0,1.0,0.6630341599229723,0,6,8,5,4,0,2,nan,nan,nan,nan,nan,nan,nan,nan,nan,nan,nan,nan,0.0,nan,nan,nan,nan,nan,nan,nan,nan,nan,nan,nan,nan,nan,nan,nan,nan,nan,nan,164.0238608479267,380.02780315920245,nan,380.6908373191254,nan,nan,nan,nan
1,155,1,1,1.0,1.0,0.5905629710759968,0,0,4,1,3,8,6,nan,nan,nan,nan,nan,nan,nan,nan,nan,nan,nan,nan,0.0,nan,nan,nan,nan,nan,nan,nan,nan,nan,nan,nan,nan,nan,nan,nan,nan,nan,nan,164.0238608479267,381.03626481676474,nan,381.62682778784074,nan,nan,nan,nan
1,156,1,1,1.0,1.0,0.5100720238406211,0,8,2,3,6,1,7,nan,nan,nan,nan,nan,nan,nan,nan,nan,nan,nan,nan,0.0,nan,nan,nan,nan,nan,nan,nan,nan,nan,nan,nan,nan,nan,nan,nan,nan,nan,nan,164.0238608479267,382.04472020221874,nan,382.55479222605936,nan,nan,nan,nan
1,157,1,1,1.0,1.0,0.3976058184634894,0,7,0,1,3,6,4,nan,nan,nan,nan,nan,nan,nan,nan,nan,nan,nan,nan,0.0,nan,nan,nan,nan,nan,nan,nan,nan,nan,nan,nan,nan,nan,nan,nan,nan,nan,nan,164.0238608479267,383.05316446884535,nan,383.45077028730884,nan,nan,nan,nan
1,158,1,1,1.0,1.0,0.38911593647208065,0,4,1,8,7,5,3,nan,nan,nan,nan,nan,nan,nan,nan,nan,nan,nan,nan,0.0,nan,nan,nan,nan,nan,nan,nan,nan,nan,nan,nan,nan,nan,nan,nan,nan,nan,nan,164.0238608479267,384.0616455129348,nan,384.45076144940685,nan,nan,nan,nan
1,159,1,1,1.0,1.0,0.3406227700179443,1,1,7,3,8,2,6,1.0,1.0,1.0,1.0,1.0,1.0,0.0,0.0,1.0,1.0,0.0,0.0,2.0,0.0,8.0,3.0,8.0,5.0,4.0,6.0,3.0,1.0,2.0,4.0,5.0,7.717776921926998,4.021883990382776,2.197737362002954,3.1432993679773062,4.973826736211777,6.9096073739929125,164.0238608479267,385.07010574499145,385.87852731801104,385.4107285150094,394.65463037695736,395.662142948946,386.89532975223847,394.64630898670293
1,160,0,0,nan,nan,nan,0,5,8,0,2,4,7,nan,nan,nan,nan,nan,nan,nan,nan,nan,nan,nan,nan,0.0,nan,nan,nan,nan,nan,nan,nan,nan,nan,nan,nan,nan,nan,nan,nan,nan,nan,nan,164.0238608479267,395.8714945630636,nan,nan,nan,nan,nan,nan
1,161,1,1,0.0,0.0,0.11452403024304658,0,6,3,5,1,2,4,nan,nan,nan,nan,nan,nan,nan,nan,nan,nan,nan,nan,0.0,nan,nan,nan,nan,nan,nan,nan,nan,nan,nan,nan,nan,nan,nan,nan,nan,nan,nan,164.0238608479267,396.8799422509037,nan,396.99446628114674,nan,nan,nan,nan
1,162,1,1,1.0,1.0,0.4819889001082629,0,5,4,3,6,1,8,nan,nan,nan,nan,nan,nan,nan,nan,nan,nan,nan,nan,0.0,nan,nan,nan,nan,nan,nan,nan,nan,nan,nan,nan,nan,nan,nan,nan,nan,nan,nan,164.0238608479267,397.88841987377964,nan,398.3704087738879,nan,nan,nan,nan
1,163,1,1,1.0,1.0,0.4575210821349174,0,3,6,1,8,2,5,nan,nan,nan,nan,nan,nan,nan,nan,nan,nan,nan,nan,0.0,nan,nan,nan,nan,nan,nan,nan,nan,nan,nan,nan,nan,nan,nan,nan,nan,nan,nan,164.0238608479267,398.8968823866453,nan,399.3544034687802,nan,nan,nan,nan
1,164,1,1,1.0,1.0,0.4650390710448846,0,5,7,6,2,3,0,nan,nan,nan,nan,nan,nan,nan,nan,nan,nan,nan,nan,0.0,nan,nan,nan,nan,nan,nan,nan,nan,nan,nan,nan,nan,nan,nan,nan,nan,nan,nan,164.0238608479267,399.9053429038031,nan,400.370381974848,nan,nan,nan,nan
1,165,1,1,1.0,1.0,0.3845347242895514,0,8,6,3,0,4,5,nan,nan,nan,nan,nan,nan,nan,nan,nan,nan,nan,nan,0.0,nan,nan,nan,nan,nan,nan,nan,nan,nan,nan,nan,nan,nan,nan,nan,nan,nan,nan,164.0238608479267,400.91380769736134,nan,401.2983424216509,nan,nan,nan,nan
1,166,1,1,1.0,1.0,0.37605852680280805,0,2,1,5,6,0,7,nan,nan,nan,nan,nan,nan,nan,nan,nan,nan,nan,nan,0.0,nan,nan,nan,nan,nan,nan,nan,nan,nan,nan,nan,nan,nan,nan,nan,nan,nan,nan,164.0238608479267,401.9222864607582,nan,402.298344987561,nan,nan,nan,nan
1,167,1,1,1.0,1.0,0.28757661604322493,0,3,0,1,4,8,6,nan,nan,nan,nan,nan,nan,nan,nan,nan,nan,nan,nan,0.0,nan,nan,nan,nan,nan,nan,nan,nan,nan,nan,nan,nan,nan,nan,nan,nan,nan,nan,164.0238608479267,402.9307284465758,nan,403.21830506261904,nan,nan,nan,nan
1,168,1,1,1.0,1.0,0.3110731110209599,0,2,3,5,8,1,7,nan,nan,nan,nan,nan,nan,nan,nan,nan,nan,nan,nan,0.0,nan,nan,nan,nan,nan,nan,nan,nan,nan,nan,nan,nan,nan,nan,nan,nan,nan,nan,164.0238608479267,403.93920350365806,nan,404.250276614679,nan,nan,nan,nan
1,169,1,1,1.0,1.0,0.2626161518273875,0,5,8,6,7,4,2,nan,nan,nan,nan,nan,nan,nan,nan,nan,nan,nan,nan,0.0,nan,nan,nan,nan,nan,nan,nan,nan,nan,nan,nan,nan,nan,nan,nan,nan,nan,nan,164.0238608479267,404.9476457746932,nan,405.2102619265206,nan,nan,nan,nan
1,170,1,1,1.0,1.0,0.36612520227208734,0,3,6,7,2,5,8,nan,nan,nan,nan,nan,nan,nan,nan,nan,nan,nan,nan,0.0,nan,nan,nan,nan,nan,nan,nan,nan,nan,nan,nan,nan,nan,nan,nan,nan,nan,nan,164.0238608479267,405.9561137043638,nan,406.3222389066359,nan,nan,nan,nan
1,171,1,1,1.0,1.0,0.33363334962632507,0,8,3,2,4,1,0,nan,nan,nan,nan,nan,nan,nan,nan,nan,nan,nan,nan,0.0,nan,nan,nan,nan,nan,nan,nan,nan,nan,nan,nan,nan,nan,nan,nan,nan,nan,nan,164.0238608479267,406.9645779277198,nan,407.2982112773461,nan,nan,nan,nan
1,172,1,1,1.0,1.0,0.20510995155200362,1,5,7,3,2,6,1,1.0,1.0,1.0,1.0,1.0,1.0,0.0,1.0,1.0,0.0,0.0,0.0,2.0,0.0,7.0,3.0,5.0,4.0,6.0,5.0,6.0,1.0,2.0,3.0,4.0,5.710317092598416,7.438378577702679,2.073110089637339,3.0556687546195462,4.134830868104473,4.7671712775481865,164.0238608479267,407.9730914728716,408.7814677155111,408.1782014244236,417.26587736804504,418.2659882705193,409.7899279475678,417.25754856539425
1,173,1,1,1.0,1.0,0.4955004679504782,0,2,3,4,0,1,8,nan,nan,nan,nan,nan,nan,nan,nan,nan,nan,nan,nan,0.0,nan,nan,nan,nan,nan,nan,nan,nan,nan,nan,nan,nan,nan,nan,nan,nan,nan,nan,164.0238608479267,418.47445123957004,nan,418.9699517075205,nan,nan,nan,nan
1,174,1,1,1.0,1.0,0.4790621016873047,0,4,6,5,7,3,0,nan,nan,nan,nan,nan,nan,nan,nan,nan,nan,nan,nan,0.0,nan,nan,nan,nan,nan,nan,nan,nan,nan,nan,nan,nan,nan,nan,nan,nan,nan,nan,164.0238608479267,419.48285901383497,nan,419.9619211155223,nan,nan,nan,nan
1,175,1,1,1.0,1.0,0.3585778485285118,0,0,3,8,4,5,6,nan,nan,nan,nan,nan,nan,nan,nan,nan,nan,nan,nan,0.0,nan,nan,nan,nan,nan,nan,nan,nan,nan,nan,nan,nan,nan,nan,nan,nan,nan,nan,164.0238608479267,420.49131211848,nan,420.8498899670085,nan,nan,nan,nan
1,176,1,1,1.0,1.0,0.3261002507060766,0,2,6,4,7,0,8,nan,nan,nan,nan,nan,nan,nan,nan,nan,nan,nan,nan,0.0,nan,nan,nan,nan,nan,nan,nan,nan,nan,nan,nan,nan,nan,nan,nan,nan,nan,nan,164.0238608479267,421.49977976304945,nan,421.8258800137555,nan,nan,nan,nan
1,177,1,1,1.0,1.0,0.26961269963067025,0,5,0,6,2,1,7,nan,nan,nan,nan,nan,nan,nan,nan,nan,nan,nan,nan,0.0,nan,nan,nan,nan,nan,nan,nan,nan,nan,nan,nan,nan,nan,nan,nan,nan,nan,nan,164.0238608479267,422.50824683741666,nan,422.77785953704733,nan,nan,nan,nan
1,178,0,0,0.0,1.0,0.7731149647152051,0,8,6,5,4,2,0,nan,nan,nan,nan,nan,nan,nan,nan,nan,nan,nan,nan,0.0,nan,nan,nan,nan,nan,nan,nan,nan,nan,nan,nan,nan,nan,nan,nan,nan,nan,nan,164.0238608479267,423.516705358983,nan,424.2898203236982,nan,nan,nan,nan
1,179,1,1,1.0,1.0,0.6286258901236579,0,0,8,4,7,5,2,nan,nan,nan,nan,nan,nan,nan,nan,nan,nan,nan,nan,0.0,nan,nan,nan,nan,nan,nan,nan,nan,nan,nan,nan,nan,nan,nan,nan,nan,nan,nan,164.0238608479267,424.5251781352563,nan,425.15380402537994,nan,nan,nan,nan
1,180,1,1,1.0,1.0,0.4601251515559852,0,4,3,8,2,6,5,nan,nan,nan,nan,nan,nan,nan,nan,nan,nan,nan,nan,0.0,nan,nan,nan,nan,nan,nan,nan,nan,nan,nan,nan,nan,nan,nan,nan,nan,nan,nan,164.0238608479267,425.53365604323335,nan,425.99378119478934,nan,nan,nan,nan
1,181,1,1,1.0,1.0,0.5316560928476974,0,1,7,6,8,0,4,nan,nan,nan,nan,nan,nan,nan,nan,nan,nan,nan,nan,0.0,nan,nan,nan,nan,nan,nan,nan,nan,nan,nan,nan,nan,nan,nan,nan,nan,nan,nan,164.0238608479267,426.5420928974636,nan,427.0737489903113,nan,nan,nan,nan
1,182,1,1,1.0,1.0,0.547156207379885,0,5,6,0,4,2,1,nan,nan,nan,nan,nan,nan,nan,nan,nan,nan,nan,nan,0.0,nan,nan,nan,nan,nan,nan,nan,nan,nan,nan,nan,nan,nan,nan,nan,nan,nan,nan,164.0238608479267,427.5505747968564,nan,428.09773100423627,nan,nan,nan,nan
1,183,1,1,1.0,1.0,0.5146999917924404,0,1,3,7,2,6,4,nan,nan,nan,nan,nan,nan,nan,nan,nan,nan,nan,nan,0.0,nan,nan,nan,nan,nan,nan,nan,nan,nan,nan,nan,nan,nan,nan,nan,nan,nan,nan,164.0238608479267,428.5590182081796,nan,429.07371819997206,nan,nan,nan,nan
1,184,1,1,1.0,1.0,0.4502137793460861,0,4,2,8,6,3,7,nan,nan,nan,nan,nan,nan,nan,nan,nan,nan,nan,nan,0.0,nan,nan,nan,nan,nan,nan,nan,nan,nan,nan,nan,nan,nan,nan,nan,nan,nan,nan,164.0238608479267,429.56748271675315,nan,430.01769649609923,nan,nan,nan,nan
1,185,1,1,1.0,1.0,0.5857149088988081,0,0,8,3,7,2,4,nan,nan,nan,nan,nan,nan,nan,nan,nan,nan,nan,nan,0.0,nan,nan,nan,nan,nan,nan,nan,nan,nan,nan,nan,nan,nan,nan,nan,nan,nan,nan,164.0238608479267,430.575944374199,nan,431.16165928309783,nan,nan,nan,nan
1,186,1,1,1.0,1.0,0.433231164352037,0,1,3,6,0,5,8,nan,nan,nan,nan,nan,nan,nan,nan,nan,nan,nan,nan,0.0,nan,nan,nan,nan,nan,nan,nan,nan,nan,nan,nan,nan,nan,nan,nan,nan,nan,nan,164.0238608479267,431.5844145846786,nan,432.01764574903063,nan,nan,nan,nan
1,187,1,1,1.0,1.0,0.4007626895327121,0,5,6,2,1,8,0,nan,nan,nan,nan,nan,nan,nan,nan,nan,nan,nan,nan,0.0,nan,nan,nan,nan,nan,nan,nan,nan,nan,nan,nan,nan,nan,nan,nan,nan,nan,nan,164.0238608479267,432.59286426822655,nan,432.99362695775926,nan,nan,nan,nan
1,188,1,1,1.0,1.0,0.2482823661994189,0,6,2,1,4,7,3,nan,nan,nan,nan,nan,nan,nan,nan,nan,nan,nan,nan,0.0,nan,nan,nan,nan,nan,nan,nan,nan,nan,nan,nan,nan,nan,nan,nan,nan,nan,nan,164.0238608479267,433.60132991708815,nan,433.84961228328757,nan,nan,nan,nan
1,189,1,1,1.0,1.0,0.28778388106729835,0,4,7,2,8,1,0,nan,nan,nan,nan,nan,nan,nan,nan,nan,nan,nan,nan,0.0,nan,nan,nan,nan,nan,nan,nan,nan,nan,nan,nan,nan,nan,nan,nan,nan,nan,nan,164.0238608479267,434.6098015529569,nan,434.8975854340242,nan,nan,nan,nan
1,190,1,1,1.0,1.0,0.3193004193017259,0,7,8,3,1,5,2,nan,nan,nan,nan,nan,nan,nan,nan,nan,nan,nan,nan,0.0,nan,nan,nan,nan,nan,nan,nan,nan,nan,nan,nan,nan,nan,nan,nan,nan,nan,nan,164.0238608479267,435.61825722351205,nan,435.9375576428138,nan,nan,nan,nan
1,191,1,1,1.0,1.0,0.2468346473760903,0,2,1,7,4,0,6,nan,nan,nan,nan,nan,nan,nan,nan,nan,nan,nan,nan,0.0,nan,nan,nan,nan,nan,nan,nan,nan,nan,nan,nan,nan,nan,nan,nan,nan,nan,nan,164.0238608479267,436.6266946478281,nan,436.8735292952042,nan,nan,nan,nan
1,192,1,1,1.0,1.0,0.2703131810994819,0,0,2,3,1,6,4,nan,nan,nan,nan,nan,nan,nan,nan,nan,nan,nan,nan,0.0,nan,nan,nan,nan,nan,nan,nan,nan,nan,nan,nan,nan,nan,nan,nan,nan,nan,nan,164.0238608479267,437.63518567034043,nan,437.9054988514399,nan,nan,nan,nan
1,193,0,0,0.0,1.0,0.6458260336657986,0,8,4,7,3,2,1,nan,nan,nan,nan,nan,nan,nan,nan,nan,nan,nan,nan,0.0,nan,nan,nan,nan,nan,nan,nan,nan,nan,nan,nan,nan,nan,nan,nan,nan,nan,nan,164.0238608479267,438.6436484683072,nan,439.289474501973,nan,nan,nan,nan
1,194,1,1,1.0,1.0,0.5733423006022349,0,4,2,3,8,5,0,nan,nan,nan,nan,nan,nan,nan,nan,nan,nan,nan,nan,0.0,nan,nan,nan,nan,nan,nan,nan,nan,nan,nan,nan,nan,nan,nan,nan,nan,nan,nan,164.0238608479267,439.65211098105647,nan,440.2254532816587,nan,nan,nan,nan
1,195,1,1,1.0,1.0,0.3328593132318929,0,0,7,1,4,3,8,nan,nan,nan,nan,nan,nan,nan,nan,nan,nan,nan,nan,0.0,nan,nan,nan,nan,nan,nan,nan,nan,nan,nan,nan,nan,nan,nan,nan,nan,nan,nan,164.0238608479267,440.66057235351764,nan,440.99343166674953,nan,nan,nan,nan
1,196,1,1,1.0,1.0,0.3243791244458407,0,5,1,3,0,6,7,nan,nan,nan,nan,nan,nan,nan,nan,nan,nan,nan,nan,0.0,nan,nan,nan,nan,nan,nan,nan,nan,nan,nan,nan,nan,nan,nan,nan,nan,nan,nan,164.0238608479267,441.6690414235927,nan,441.99342054803856,nan,nan,nan,nan
1,197,1,1,1.0,1.0,0.3479158178670332,0,7,8,1,4,0,2,nan,nan,nan,nan,nan,nan,nan,nan,nan,nan,nan,nan,0.0,nan,nan,nan,nan,nan,nan,nan,nan,nan,nan,nan,nan,nan,nan,nan,nan,nan,nan,164.0238608479267,442.67749595374335,nan,443.0254117716104,nan,nan,nan,nan
1,198,1,1,1.0,1.0,0.2673898038920015,0,3,0,6,5,1,4,nan,nan,nan,nan,nan,nan,nan,nan,nan,nan,nan,nan,0.0,nan,nan,nan,nan,nan,nan,nan,nan,nan,nan,nan,nan,nan,nan,nan,nan,nan,nan,164.0238608479267,443.68597186612897,nan,443.95336167002097,nan,nan,nan,nan
1,199,1,1,1.0,1.0,0.31492305104620755,0,6,5,8,2,4,7,nan,nan,nan,nan,nan,nan,nan,nan,nan,nan,nan,nan,0.0,nan,nan,nan,nan,nan,nan,nan,nan,nan,nan,nan,nan,nan,nan,nan,nan,nan,nan,164.0238608479267,444.69441584765445,nan,445.00933889870066,nan,nan,nan,nan
1,200,1,1,1.0,1.0,0.26645639864727855,0,8,1,2,4,0,5,nan,nan,nan,nan,nan,nan,nan,nan,nan,nan,nan,nan,0.0,nan,nan,nan,nan,nan,nan,nan,nan,nan,nan,nan,nan,nan,nan,nan,nan,nan,nan,164.0238608479267,445.7028743691044,nan,445.96933076775167,nan,nan,nan,nan
1,201,1,1,1.0,1.0,0.2819499559700489,1,6,5,1,7,3,4,1.0,1.0,1.0,1.0,1.0,1.0,0.0,1.0,1.0,1.0,1.0,1.0,5.0,8.0,5.0,1.0,7.0,3.0,4.0,4.0,3.0,2.0,1.0,6.0,5.0,6.091299802414142,4.9553992531728,4.020341904601082,2.250923213083297,8.33033592614811,7.634230312774889,164.0238608479267,446.71135056659114,447.5197621611878,446.9933005225612,456.9126222670311,457.92037432000507,448.54490594239905,456.90429374948144
1,202,1,1,nan,nan,nan,0,7,0,8,3,2,6,nan,nan,nan,nan,nan,nan,nan,nan,nan,nan,nan,nan,0.0,nan,nan,nan,nan,nan,nan,nan,nan,nan,nan,nan,nan,nan,nan,nan,nan,nan,nan,164.0238608479267,458.12944939068984,nan,nan,nan,nan,nan,nan
1,203,1,1,1.0,1.0,0.36708141525741667,0,6,3,5,8,1,2,nan,nan,nan,nan,nan,nan,nan,nan,nan,nan,nan,nan,0.0,nan,nan,nan,nan,nan,nan,nan,nan,nan,nan,nan,nan,nan,nan,nan,nan,nan,nan,164.0238608479267,459.1379395577824,nan,459.5050209730398,nan,nan,nan,nan
1,204,1,1,1.0,1.0,0.24660600011702627,0,0,5,7,2,3,6,nan,nan,nan,nan,nan,nan,nan,nan,nan,nan,nan,nan,0.0,nan,nan,nan,nan,nan,nan,nan,nan,nan,nan,nan,nan,nan,nan,nan,nan,nan,nan,164.0238608479267,460.1463889562292,nan,460.39299495634623,nan,nan,nan,nan
1,205,1,1,1.0,1.0,0.2861277566989884,0,5,6,1,4,2,8,nan,nan,nan,nan,nan,nan,nan,nan,nan,nan,nan,nan,0.0,nan,nan,nan,nan,nan,nan,nan,nan,nan,nan,nan,nan,nan,nan,nan,nan,nan,nan,164.0238608479267,461.1548520392971,nan,461.4409797959961,nan,nan,nan,nan
1,206,1,1,1.0,1.0,0.23763915186282247,0,8,5,2,3,6,0,nan,nan,nan,nan,nan,nan,nan,nan,nan,nan,nan,nan,0.0,nan,nan,nan,nan,nan,nan,nan,nan,nan,nan,nan,nan,nan,nan,nan,nan,nan,nan,164.0238608479267,462.16329801653046,nan,462.4009371683933,nan,nan,nan,nan
1,207,0,0,1.0,0.0,0.28514474479015917,0,6,8,5,4,1,3,nan,nan,nan,nan,nan,nan,nan,nan,nan,nan,nan,nan,0.0,nan,nan,nan,nan,nan,nan,nan,nan,nan,nan,nan,nan,nan,nan,nan,nan,nan,nan,164.0238608479267,463.17179131973535,nan,463.4569360645255,nan,nan,nan,nan
1,208,1,1,1.0,1.0,0.5246361673343927,0,0,5,1,3,2,6,nan,nan,nan,nan,nan,nan,nan,nan,nan,nan,nan,nan,0.0,nan,nan,nan,nan,nan,nan,nan,nan,nan,nan,nan,nan,nan,nan,nan,nan,nan,nan,164.0238608479267,464.1802575387992,nan,464.7048937061336,nan,nan,nan,nan
1,209,1,1,1.0,1.0,0.3321534148417413,0,8,3,5,0,6,4,nan,nan,nan,nan,nan,nan,nan,nan,nan,nan,nan,nan,0.0,nan,nan,nan,nan,nan,nan,nan,nan,nan,nan,nan,nan,nan,nan,nan,nan,nan,nan,164.0238608479267,465.18871976656374,nan,465.5208731814055,nan,nan,nan,nan
1,210,1,1,1.0,1.0,0.33166532998438925,0,1,8,0,6,3,7,nan,nan,nan,nan,nan,nan,nan,nan,nan,nan,nan,nan,0.0,nan,nan,nan,nan,nan,nan,nan,nan,nan,nan,nan,nan,nan,nan,nan,nan,nan,nan,164.0238608479267,466.1971760073211,nan,466.5288413373055,nan,nan,nan,nan
1,211,1,1,1.0,1.0,0.2831784358713776,0,2,4,3,0,6,8,nan,nan,nan,nan,nan,nan,nan,nan,nan,nan,nan,nan,0.0,nan,nan,nan,nan,nan,nan,nan,nan,nan,nan,nan,nan,nan,nan,nan,nan,nan,nan,164.0238608479267,467.20564479217865,nan,467.48882322805,nan,nan,nan,nan
1,212,1,1,1.0,1.0,0.2827085971366614,0,4,8,5,1,0,6,nan,nan,nan,nan,nan,nan,nan,nan,nan,nan,nan,nan,0.0,nan,nan,nan,nan,nan,nan,nan,nan,nan,nan,nan,nan,nan,nan,nan,nan,nan,nan,164.0238608479267,468.21410245844163,nan,468.4968110555783,nan,nan,nan,nan
1,213,1,1,1.0,1.0,0.12219825200736523,0,0,1,3,5,7,4,nan,nan,nan,nan,nan,nan,nan,nan,nan,nan,nan,nan,0.0,nan,nan,nan,nan,nan,nan,nan,nan,nan,nan,nan,nan,nan,nan,nan,nan,nan,nan,164.0238608479267,469.22258350253105,nan,469.3447817545384,nan,nan,nan,nan
1,214,1,1,1.0,1.0,0.3057475124951452,0,7,2,6,8,1,3,nan,nan,nan,nan,nan,nan,nan,nan,nan,nan,nan,nan,0.0,nan,nan,nan,nan,nan,nan,nan,nan,nan,nan,nan,nan,nan,nan,nan,nan,nan,nan,164.0238608479267,470.231020641746,nan,470.53676815424114,nan,nan,nan,nan
1,215,1,1,1.0,1.0,0.3372500811237842,0,8,3,1,0,6,5,nan,nan,nan,nan,nan,nan,nan,nan,nan,nan,nan,nan,0.0,nan,nan,nan,nan,nan,nan,nan,nan,nan,nan,nan,nan,nan,nan,nan,nan,nan,nan,164.0238608479267,471.23948714591097,nan,471.57673722703476,nan,nan,nan,nan
1,216,1,1,1.0,1.0,0.3367711192695424,0,6,1,7,3,2,0,nan,nan,nan,nan,nan,nan,nan,nan,nan,nan,nan,nan,0.0,nan,nan,nan,nan,nan,nan,nan,nan,nan,nan,nan,nan,nan,nan,nan,nan,nan,nan,164.0238608479267,472.2479456674773,nan,472.58471678674687,nan,nan,nan,nan
1,217,1,1,1.0,1.0,0.38427215069532394,0,2,7,8,4,5,3,nan,nan,nan,nan,nan,nan,nan,nan,nan,nan,nan,nan,0.0,nan,nan,nan,nan,nan,nan,nan,nan,nan,nan,nan,nan,nan,nan,nan,nan,nan,nan,164.0238608479267,473.25641046103556,nan,473.6406826117309,nan,nan,nan,nan
1,218,1,1,1.0,1.0,0.2957816869020462,0,3,8,0,1,7,6,nan,nan,nan,nan,nan,nan,nan,nan,nan,nan,nan,nan,0.0,nan,nan,nan,nan,nan,nan,nan,nan,nan,nan,nan,nan,nan,nan,nan,nan,nan,nan,164.0238608479267,474.2648815268185,nan,474.56066321372055,nan,nan,nan,nan
1,219,1,1,1.0,1.0,0.31129548605531454,0,0,6,1,3,4,7,nan,nan,nan,nan,nan,nan,nan,nan,nan,nan,nan,nan,0.0,nan,nan,nan,nan,nan,nan,nan,nan,nan,nan,nan,nan,nan,nan,nan,nan,nan,nan,164.0238608479267,475.2733500265749,nan,475.58464551263023,nan,nan,nan,nan
1,220,1,1,1.0,1.0,0.34281658579129726,0,8,4,7,5,6,0,nan,nan,nan,nan,nan,nan,nan,nan,nan,nan,nan,nan,0.0,nan,nan,nan,nan,nan,nan,nan,nan,nan,nan,nan,nan,nan,nan,nan,nan,nan,nan,164.0238608479267,476.2818037015386,nan,476.6246202873299,nan,nan,nan,nan
1,221,1,1,1.0,1.0,0.3743274222360924,0,3,2,5,8,0,7,nan,nan,nan,nan,nan,nan,nan,nan,nan,nan,nan,nan,0.0,nan,nan,nan,nan,nan,nan,nan,nan,nan,nan,nan,nan,nan,nan,nan,nan,nan,nan,164.0238608479267,477.29026108258404,nan,477.66458850482013,nan,nan,nan,nan
1,222,1,1,1.0,1.0,0.30984520132187754,0,5,4,1,2,7,8,nan,nan,nan,nan,nan,nan,nan,nan,nan,nan,nan,nan,0.0,nan,nan,nan,nan,nan,nan,nan,nan,nan,nan,nan,nan,nan,nan,nan,nan,nan,nan,164.0238608479267,478.29872701654676,nan,478.60857221786864,nan,nan,nan,nan
1,223,1,1,1.0,1.0,0.18935410573612899,0,2,3,8,7,6,5,nan,nan,nan,nan,nan,nan,nan,nan,nan,nan,nan,nan,0.0,nan,nan,nan,nan,nan,nan,nan,nan,nan,nan,nan,nan,nan,nan,nan,nan,nan,nan,164.0238608479267,479.3071918102214,nan,479.49654591595754,nan,nan,nan,nan
1,224,1,1,1.0,1.0,0.2528547402471304,1,0,4,5,2,1,8,1.0,1.0,1.0,1.0,1.0,1.0,1.0,0.0,1.0,0.0,0.0,0.0,2.0,0.0,8.0,5.0,8.0,8.0,3.0,6.0,3.0,1.0,2.0,4.0,5.0,6.7335393249522895,3.7432973152026534,1.8950418051099405,2.89536082779523,4.790206201607361,5.646622877800837,164.0238608479267,480.3156637311913,481.1240676281741,480.56851847143844,488.9167233770713,489.91523488936946,482.1408683519112,488.90839229361154
1,225,1,1,nan,nan,nan,0,3,2,6,1,7,5,nan,nan,nan,nan,nan,nan,nan,nan,nan,nan,nan,nan,0.0,nan,nan,nan,nan,nan,nan,nan,nan,nan,nan,nan,nan,nan,nan,nan,nan,nan,nan,164.0238608479267,490.12521770666353,nan,nan,nan,nan,nan,nan
1,226,1,1,1.0,1.0,0.354558561113663,0,5,8,0,2,1,3,nan,nan,nan,nan,nan,nan,nan,nan,nan,nan,nan,nan,0.0,nan,nan,nan,nan,nan,nan,nan,nan,nan,nan,nan,nan,nan,nan,nan,nan,nan,nan,164.0238608479267,491.1337118651718,nan,491.48827042628545,nan,nan,nan,nan
1,227,1,1,1.0,1.0,0.6900390496011823,0,6,2,5,7,0,4,nan,nan,nan,nan,nan,nan,nan,nan,nan,nan,nan,nan,0.0,nan,nan,nan,nan,nan,nan,nan,nan,nan,nan,nan,nan,nan,nan,nan,nan,nan,nan,164.0238608479267,492.14216411451343,nan,492.8322031641146,nan,nan,nan,nan
1,228,1,1,1.0,1.0,0.5295982679817826,0,7,0,4,3,2,5,nan,nan,nan,nan,nan,nan,nan,nan,nan,nan,nan,nan,0.0,nan,nan,nan,nan,nan,nan,nan,nan,nan,nan,nan,nan,nan,nan,nan,nan,nan,nan,164.0238608479267,493.1506063855486,nan,493.6802046535304,nan,nan,nan,nan
1,229,1,1,1.0,1.0,0.3131095536518842,0,4,3,8,6,0,7,nan,nan,nan,nan,nan,nan,nan,nan,nan,nan,nan,nan,0.0,nan,nan,nan,nan,nan,nan,nan,nan,nan,nan,nan,nan,nan,nan,nan,nan,nan,nan,164.0238608479267,494.1590908507351,nan,494.47220040438697,nan,nan,nan,nan
1,230,1,1,1.0,1.0,0.3046205268474296,0,7,0,1,5,3,4,nan,nan,nan,nan,nan,nan,nan,nan,nan,nan,nan,nan,0.0,nan,nan,nan,nan,nan,nan,nan,nan,nan,nan,nan,nan,nan,nan,nan,nan,nan,nan,164.0238608479267,495.16755450400524,nan,495.47217503085267,nan,nan,nan,nan
1,231,1,1,1.0,1.0,0.3361313632922247,0,4,1,8,0,6,5,nan,nan,nan,nan,nan,nan,nan,nan,nan,nan,nan,nan,0.0,nan,nan,nan,nan,nan,nan,nan,nan,nan,nan,nan,nan,nan,nan,nan,nan,nan,nan,164.0238608479267,496.17602300376166,nan,496.5121543670539,nan,nan,nan,nan
1,232,1,1,1.0,1.0,0.31164872040972114,1,7,6,4,3,1,8,1.0,1.0,1.0,1.0,1.0,1.0,0.0,0.0,1.0,0.0,0.0,0.0,1.0,4.0,8.0,4.0,2.0,7.0,0.0,6.0,3.0,1.0,2.0,4.0,5.0,7.176549576688558,4.242241176078096,1.8342199352337047,3.4350914176320657,5.3928361578146,6.113286712556146,164.0238608479267,497.18448323581833,497.99289254972246,497.49613195622806,506.22727732767817,507.23084644798655,499.0096964094555,506.2189428230049
1,233,1,1,nan,nan,nan,0,4,1,3,5,2,7,nan,nan,nan,nan,nan,nan,nan,nan,nan,nan,nan,nan,0.0,nan,nan,nan,nan,nan,nan,nan,nan,nan,nan,nan,nan,nan,nan,nan,nan,nan,nan,164.0238608479267,507.4357836312847,nan,nan,nan,nan,nan,nan
1,234,1,1,1.0,1.0,0.5475687417201698,1,3,7,2,6,1,4,1.0,1.0,1.0,1.0,1.0,1.0,0.0,1.0,1.0,1.0,0.0,0.0,3.0,5.0,7.0,2.0,6.0,8.0,5.0,6.0,3.0,2.0,1.0,4.0,5.0,7.460223794798367,3.7243891598191112,2.5899383251089603,1.4863406096119434,5.149635062436573,6.389241093653254,164.0238608479267,508.4442655306775,509.25268938438967,508.9918342723977,517.7704236558639,518.7745923337061,510.2694792745169,517.7620902917115
1,235,0,0,0.0,1.0,0.6287182612577453,0,5,2,8,3,7,6,nan,nan,nan,nan,nan,nan,nan,nan,nan,nan,nan,nan,0.0,nan,nan,nan,nan,nan,nan,nan,nan,nan,nan,nan,nan,nan,nan,nan,nan,nan,nan,164.0238608479267,518.978939367691,nan,519.6076576289488,nan,nan,nan,nan
1,236,1,1,1.0,1.0,0.476184910046868,0,1,6,0,5,3,2,nan,nan,nan,nan,nan,nan,nan,nan,nan,nan,nan,nan,0.0,nan,nan,nan,nan,nan,nan,nan,nan,nan,nan,nan,nan,nan,nan,nan,nan,nan,nan,164.0238608479267,519.9874064420583,nan,520.4635913521051,nan,nan,nan,nan
1,237,1,1,1.0,1.0,0.2997029011603445,0,2,4,6,1,8,0,nan,nan,nan,nan,nan,nan,nan,nan,nan,nan,nan,nan,0.0,nan,nan,nan,nan,nan,nan,nan,nan,nan,nan,nan,nan,nan,nan,nan,nan,nan,nan,164.0238608479267,520.9958686698228,nan,521.2955715709832,nan,nan,nan,nan
1,238,1,1,1.0,1.0,0.6352116140769795,0,1,8,7,0,2,5,nan,nan,nan,nan,nan,nan,nan,nan,nan,nan,nan,nan,0.0,nan,nan,nan,nan,nan,nan,nan,nan,nan,nan,nan,nan,nan,nan,nan,nan,nan,nan,164.0238608479267,522.0043286167784,nan,522.6395402308553,nan,nan,nan,nan
1,239,1,1,1.0,1.0,0.6107246947940439,0,8,1,2,6,4,3,nan,nan,nan,nan,nan,nan,nan,nan,nan,nan,nan,nan,0.0,nan,nan,nan,nan,nan,nan,nan,nan,nan,nan,nan,nan,nan,nan,nan,nan,nan,nan,164.0238608479267,523.0127928401344,nan,523.6235175349284,nan,nan,nan,nan
1,240,1,1,1.0,1.0,0.5142483992967755,0,2,5,8,3,7,6,nan,nan,nan,nan,nan,nan,nan,nan,nan,nan,nan,nan,0.0,nan,nan,nan,nan,nan,nan,nan,nan,nan,nan,nan,nan,nan,nan,nan,nan,nan,nan,164.0238608479267,524.0212559232023,nan,524.535504322499,nan,nan,nan,nan
1,241,0,0,0.0,1.0,0.5137694374425337,0,3,1,0,5,6,4,nan,nan,nan,nan,nan,nan,nan,nan,nan,nan,nan,nan,0.0,nan,nan,nan,nan,nan,nan,nan,nan,nan,nan,nan,nan,nan,nan,nan,nan,nan,nan,164.0238608479267,525.029718721169,nan,525.5434881586116,nan,nan,nan,nan
1,242,1,1,1.0,1.0,0.5292923597153276,0,7,2,3,0,8,1,nan,nan,nan,nan,nan,nan,nan,nan,nan,nan,nan,nan,0.0,nan,nan,nan,nan,nan,nan,nan,nan,nan,nan,nan,nan,nan,nan,nan,nan,nan,nan,164.0238608479267,526.0381766724167,nan,526.5674690321321,nan,nan,nan,nan
1,243,1,1,1.0,1.0,0.44878886826336384,1,5,3,7,6,4,0,1.0,1.0,1.0,1.0,1.0,1.0,0.0,1.0,1.0,1.0,0.0,0.0,3.0,8.0,3.0,7.0,6.0,2.0,5.0,4.0,3.0,2.0,1.0,6.0,5.0,5.907344279694371,3.5545533153926954,2.450592387234792,1.0836136067518964,7.305922846659087,6.618172264890745,164.0238608479267,527.0466377597768,527.8550599029986,527.4954266280401,536.2061231838306,537.2133902879432,528.863519564853,536.1977926705731
1,244,1,1,1.0,1.0,0.7522114205639809,0,7,5,2,0,6,4,nan,nan,nan,nan,nan,nan,nan,nan,nan,nan,nan,nan,0.0,nan,nan,nan,nan,nan,nan,nan,nan,nan,nan,nan,nan,nan,nan,nan,nan,nan,nan,164.0238608479267,537.4229725449113,nan,538.1751839654753,nan,nan,nan,nan
1,245,1,1,1.0,1.0,0.5677341716364026,1,0,7,8,2,3,1,1.0,1.0,1.0,1.0,1.0,1.0,0.0,1.0,1.0,1.0,1.0,0.0,4.0,1.0,7.0,8.0,2.0,3.0,5.0,4.0,3.0,2.0,1.0,6.0,5.0,5.24892012658529,3.753854145295918,2.3706964360317215,1.72965203714557,10.385183033184148,7.3694083710433915,164.0238608479267,538.431435057777,539.2398500735871,538.9991692294134,550.674640429439,551.6743031605147,540.2483299772721,550.6663079204736
1,246,1,1,1.0,1.0,0.47568884247448295,0,6,3,4,5,0,2,nan,nan,nan,nan,nan,nan,nan,nan,nan,nan,nan,nan,0.0,nan,nan,nan,nan,nan,nan,nan,nan,nan,nan,nan,nan,nan,nan,nan,nan,nan,nan,164.0238608479267,551.8831758128945,nan,552.358864655369,nan,nan,nan,nan
1,247,1,1,1.0,1.0,0.4912183219566941,0,3,8,5,6,4,0,nan,nan,nan,nan,nan,nan,nan,nan,nan,nan,nan,nan,0.0,nan,nan,nan,nan,nan,nan,nan,nan,nan,nan,nan,nan,nan,nan,nan,nan,nan,nan,164.0238608479267,552.891657997272,nan,553.3828763192287,nan,nan,nan,nan
1,248,1,1,1.0,1.0,0.39474145614076406,0,4,5,8,2,7,1,nan,nan,nan,nan,nan,nan,nan,nan,nan,nan,nan,nan,0.0,nan,nan,nan,nan,nan,nan,nan,nan,nan,nan,nan,nan,nan,nan,nan,nan,nan,nan,164.0238608479267,553.9000766053796,nan,554.2948180615203,nan,nan,nan,nan
1,249,0,0,nan,nan,nan,0,7,4,6,1,5,0,nan,nan,nan,nan,nan,nan,nan,nan,nan,nan,nan,nan,0.0,nan,nan,nan,nan,nan,nan,nan,nan,nan,nan,nan,nan,nan,nan,nan,nan,nan,nan,164.0238608479267,554.908553087851,nan,nan,nan,nan,nan,nan
1,250,1,1,1.0,1.0,0.617776551283896,0,5,1,0,8,6,2,nan,nan,nan,nan,nan,nan,nan,nan,nan,nan,nan,nan,0.0,nan,nan,nan,nan,nan,nan,nan,nan,nan,nan,nan,nan,nan,nan,nan,nan,nan,nan,164.0238608479267,555.916979108355,nan,556.5347556596389,nan,nan,nan,nan
1,251,1,1,1.0,1.0,0.521258631721139,0,6,2,7,3,5,1,nan,nan,nan,nan,nan,nan,nan,nan,nan,nan,nan,nan,0.0,nan,nan,nan,nan,nan,nan,nan,nan,nan,nan,nan,nan,nan,nan,nan,nan,nan,nan,164.0238608479267,556.9254741221666,nan,557.4467327538878,nan,nan,nan,nan
1,252,1,1,1.0,1.0,0.5687935893656686,0,5,8,3,7,1,0,nan,nan,nan,nan,nan,nan,nan,nan,nan,nan,nan,nan,0.0,nan,nan,nan,nan,nan,nan,nan,nan,nan,nan,nan,nan,nan,nan,nan,nan,nan,nan,164.0238608479267,557.9339255163213,nan,558.502719105687,nan,nan,nan,nan
1,253,1,1,1.0,1.0,0.4963115669088438,0,2,5,7,1,3,6,nan,nan,nan,nan,nan,nan,nan,nan,nan,nan,nan,nan,0.0,nan,nan,nan,nan,nan,nan,nan,nan,nan,nan,nan,nan,nan,nan,nan,nan,nan,nan,164.0238608479267,558.9423911651829,nan,559.4387027320918,nan,nan,nan,nan
1,254,1,1,1.0,1.0,0.5358073797542602,0,6,4,3,7,5,8,nan,nan,nan,nan,nan,nan,nan,nan,nan,nan,nan,nan,0.0,nan,nan,nan,nan,nan,nan,nan,nan,nan,nan,nan,nan,nan,nan,nan,nan,nan,nan,164.0238608479267,559.9508610905614,nan,560.4866684703156,nan,nan,nan,nan
1,255,1,1,1.0,1.0,0.49532085738610476,0,8,0,5,4,6,1,nan,nan,nan,nan,nan,nan,nan,nan,nan,nan,nan,nan,0.0,nan,nan,nan,nan,nan,nan,nan,nan,nan,nan,nan,nan,nan,nan,nan,nan,nan,nan,164.0238608479267,560.9593250288162,nan,561.4546458862023,nan,nan,nan,nan
1,256,1,1,1.0,1.0,0.3748602671548724,0,3,4,2,1,5,0,nan,nan,nan,nan,nan,nan,nan,nan,nan,nan,nan,nan,0.0,nan,nan,nan,nan,nan,nan,nan,nan,nan,nan,nan,nan,nan,nan,nan,nan,nan,nan,164.0238608479267,561.967782124877,nan,562.3426423920318,nan,nan,nan,nan
1,257,0,0,0.0,1.0,0.6303549990989268,0,6,5,4,2,3,7,nan,nan,nan,nan,nan,nan,nan,nan,nan,nan,nan,nan,0.0,nan,nan,nan,nan,nan,nan,nan,nan,nan,nan,nan,nan,nan,nan,nan,nan,nan,nan,164.0238608479267,562.9762452078285,nan,563.6066002069274,nan,nan,nan,nan
1,258,1,1,1.0,1.0,0.6218565640738234,0,7,8,3,6,5,2,nan,nan,nan,nan,nan,nan,nan,nan,nan,nan,nan,nan,0.0,nan,nan,nan,nan,nan,nan,nan,nan,nan,nan,nan,nan,nan,nan,nan,nan,nan,nan,164.0238608479267,563.9847151332069,nan,564.6065716972807,nan,nan,nan,nan
1,259,1,1,1.0,1.0,0.5253854002803564,0,6,1,5,0,2,4,nan,nan,nan,nan,nan,nan,nan,nan,nan,nan,nan,nan,0.0,nan,nan,nan,nan,nan,nan,nan,nan,nan,nan,nan,nan,nan,nan,nan,nan,nan,nan,164.0238608479267,564.9931699484587,nan,565.518555348739,nan,nan,nan,nan
1,260,1,1,1.0,1.0,0.5168895311653614,0,5,7,4,8,6,1,nan,nan,nan,nan,nan,nan,nan,nan,nan,nan,nan,nan,0.0,nan,nan,nan,nan,nan,nan,nan,nan,nan,nan,nan,nan,nan,nan,nan,nan,nan,nan,164.0238608479267,566.0016398737207,nan,566.5185294048861,nan,nan,nan,nan
1,261,0,0,0.0,1.0,0.6844115341082215,0,7,5,6,1,8,4,nan,nan,nan,nan,nan,nan,nan,nan,nan,nan,nan,nan,0.0,nan,nan,nan,nan,nan,nan,nan,nan,nan,nan,nan,nan,nan,nan,nan,nan,nan,nan,164.0238608479267,567.0100986803882,nan,567.6945102144964,nan,nan,nan,nan
1,262,1,1,1.0,1.0,0.6199193348875269,0,6,8,7,5,2,3,nan,nan,nan,nan,nan,nan,nan,nan,nan,nan,nan,nan,0.0,nan,nan,nan,nan,nan,nan,nan,nan,nan,nan,nan,nan,nan,nan,nan,nan,nan,nan,164.0238608479267,568.0185617633397,nan,568.6384810982272,nan,nan,nan,nan
1,263,0,0,0.0,1.0,0.6674329104134813,0,7,3,0,4,5,6,nan,nan,nan,nan,nan,nan,nan,nan,nan,nan,nan,nan,0.0,nan,nan,nan,nan,nan,nan,nan,nan,nan,nan,nan,nan,nan,nan,nan,nan,nan,nan,164.0238608479267,569.0270248464076,nan,569.6944577568211,nan,nan,nan,nan
1,264,1,1,1.0,1.0,0.6029421365819871,0,4,6,7,5,0,3,nan,nan,nan,nan,nan,nan,nan,nan,nan,nan,nan,nan,0.0,nan,nan,nan,nan,nan,nan,nan,nan,nan,nan,nan,nan,nan,nan,nan,nan,nan,nan,164.0238608479267,570.0354890697636,nan,570.6384312063456,nan,nan,nan,nan
1,265,1,1,1.0,1.0,0.5464409007690847,0,6,0,2,3,4,1,nan,nan,nan,nan,nan,nan,nan,nan,nan,nan,nan,nan,0.0,nan,nan,nan,nan,nan,nan,nan,nan,nan,nan,nan,nan,nan,nan,nan,nan,nan,nan,164.0238608479267,571.0439607057488,nan,571.5904016065178,nan,nan,nan,nan
1,266,1,1,1.0,1.0,0.4979688315652311,0,2,1,4,6,8,0,nan,nan,nan,nan,nan,nan,nan,nan,nan,nan,nan,nan,0.0,nan,nan,nan,nan,nan,nan,nan,nan,nan,nan,nan,nan,nan,nan,nan,nan,nan,nan,164.0238608479267,572.0524200825021,nan,572.5503889140673,nan,nan,nan,nan
1,267,1,1,1.0,1.0,0.3455024779541418,0,6,8,5,2,0,1,nan,nan,nan,nan,nan,nan,nan,nan,nan,nan,nan,nan,0.0,nan,nan,nan,nan,nan,nan,nan,nan,nan,nan,nan,nan,nan,nan,nan,nan,nan,nan,164.0238608479267,573.060870621237,nan,573.4063730991911,nan,nan,nan,nan
1,268,1,1,1.0,1.0,0.30500198574736714,0,1,2,6,7,3,8,nan,nan,nan,nan,nan,nan,nan,nan,nan,nan,nan,nan,0.0,nan,nan,nan,nan,nan,nan,nan,nan,nan,nan,nan,nan,nan,nan,nan,nan,nan,nan,164.0238608479267,574.0693382658064,nan,574.3743402515538,nan,nan,nan,nan
1,269,1,1,1.0,1.0,0.3365156729705632,0,6,3,1,0,4,7,nan,nan,nan,nan,nan,nan,nan,nan,nan,nan,nan,nan,0.0,nan,nan,nan,nan,nan,nan,nan,nan,nan,nan,nan,nan,nan,nan,nan,nan,nan,nan,164.0238608479267,575.077795076766,nan,575.4143107497366,nan,nan,nan,nan
1,270,1,1,1.0,1.0,0.32804574770852923,0,3,2,0,7,5,6,nan,nan,nan,nan,nan,nan,nan,nan,nan,nan,nan,nan,0.0,nan,nan,nan,nan,nan,nan,nan,nan,nan,nan,nan,nan,nan,nan,nan,nan,nan,nan,164.0238608479267,576.0862527429126,nan,576.4142984906211,nan,nan,nan,nan
1,271,1,1,1.0,1.0,0.47953678702469915,0,0,8,7,3,6,5,nan,nan,nan,nan,nan,nan,nan,nan,nan,nan,nan,nan,0.0,nan,nan,nan,nan,nan,nan,nan,nan,nan,nan,nan,nan,nan,nan,nan,nan,nan,nan,164.0238608479267,577.0947260893881,nan,577.5742628764128,nan,nan,nan,nan
1,272,1,1,1.0,1.0,0.38308272894937545,0,7,1,0,4,5,8,nan,nan,nan,nan,nan,nan,nan,nan,nan,nan,nan,nan,0.0,nan,nan,nan,nan,nan,nan,nan,nan,nan,nan,nan,nan,nan,nan,nan,nan,nan,nan,164.0238608479267,578.1031866065459,nan,578.4862693354953,nan,nan,nan,nan
1,273,1,1,1.0,1.0,0.2945771552622318,0,2,5,7,1,4,6,nan,nan,nan,nan,nan,nan,nan,nan,nan,nan,nan,nan,0.0,nan,nan,nan,nan,nan,nan,nan,nan,nan,nan,nan,nan,nan,nan,nan,nan,nan,nan,164.0238608479267,579.1116539660143,nan,579.4062311212765,nan,nan,nan,nan
1,274,1,1,1.0,1.0,0.534101078636013,0,8,2,5,3,0,1,nan,nan,nan,nan,nan,nan,nan,nan,nan,nan,nan,nan,0.0,nan,nan,nan,nan,nan,nan,nan,nan,nan,nan,nan,nan,nan,nan,nan,nan,nan,nan,164.0238608479267,580.1201184745878,nan,580.6542195532238,nan,nan,nan,nan
1,275,1,1,1.0,1.0,0.6056137738050893,0,7,4,2,0,1,6,nan,nan,nan,nan,nan,nan,nan,nan,nan,nan,nan,nan,0.0,nan,nan,nan,nan,nan,nan,nan,nan,nan,nan,nan,nan,nan,nan,nan,nan,nan,nan,164.0238608479267,581.1285570393084,nan,581.7341708131135,nan,nan,nan,nan
1,276,1,1,1.0,1.0,0.7331076891859993,0,8,1,0,6,3,7,nan,nan,nan,nan,nan,nan,nan,nan,nan,nan,nan,nan,0.0,nan,nan,nan,nan,nan,nan,nan,nan,nan,nan,nan,nan,nan,nan,nan,nan,nan,nan,164.0238608479267,582.1370360876899,nan,582.8701437768759,nan,nan,nan,nan
1,277,1,1,1.0,1.0,0.6686388676753268,0,6,4,7,1,5,8,nan,nan,nan,nan,nan,nan,nan,nan,nan,nan,nan,nan,0.0,nan,nan,nan,nan,nan,nan,nan,nan,nan,nan,nan,nan,nan,nan,nan,nan,nan,nan,164.0238608479267,583.1454812097363,nan,583.8141200774116,nan,nan,nan,nan
1,278,1,1,1.0,1.0,0.7561329199234024,0,1,8,5,7,3,2,nan,nan,nan,nan,nan,nan,nan,nan,nan,nan,nan,nan,0.0,nan,nan,nan,nan,nan,nan,nan,nan,nan,nan,nan,nan,nan,nan,nan,nan,nan,nan,164.0238608479267,584.1539645345183,nan,584.9100974544417,nan,nan,nan,nan
1,279,1,1,1.0,1.0,0.6836597352521494,0,5,1,7,2,8,6,nan,nan,nan,nan,nan,nan,nan,nan,nan,nan,nan,nan,0.0,nan,nan,nan,nan,nan,nan,nan,nan,nan,nan,nan,nan,nan,nan,nan,nan,nan,nan,164.0238608479267,585.1624413022073,nan,585.8461010374594,nan,nan,nan,nan
1,280,0,0,0.0,1.0,0.667171192006208,0,2,7,3,0,6,1,nan,nan,nan,nan,nan,nan,nan,nan,nan,nan,nan,nan,0.0,nan,nan,nan,nan,nan,nan,nan,nan,nan,nan,nan,nan,nan,nan,nan,nan,nan,nan,164.0238608479267,586.1708815775346,nan,586.8380527695408,nan,nan,nan,nan
1,281,1,1,1.0,1.0,0.6266952181467786,0,4,2,7,1,3,8,nan,nan,nan,nan,nan,nan,nan,nan,nan,nan,nan,nan,0.0,nan,nan,nan,nan,nan,nan,nan,nan,nan,nan,nan,nan,nan,nan,nan,nan,nan,nan,164.0238608479267,587.1793418095913,nan,587.8060370277381,nan,nan,nan,nan
1,282,0,0,0.0,1.0,0.7142197756329551,0,2,1,5,0,4,3,nan,nan,nan,nan,nan,nan,nan,nan,nan,nan,nan,nan,0.0,nan,nan,nan,nan,nan,nan,nan,nan,nan,nan,nan,nan,nan,nan,nan,nan,nan,nan,164.0238608479267,588.1878011863446,nan,588.9020209619775,nan,nan,nan,nan
1,283,1,1,1.0,1.0,0.6897026360966265,0,0,5,6,1,7,4,nan,nan,nan,nan,nan,nan,nan,nan,nan,nan,nan,nan,0.0,nan,nan,nan,nan,nan,nan,nan,nan,nan,nan,nan,nan,nan,nan,nan,nan,nan,nan,164.0238608479267,589.1962748179212,nan,589.8859774540178,nan,nan,nan,nan
1,284,1,1,1.0,1.0,0.6492685712873936,0,4,7,0,8,6,2,nan,nan,nan,nan,nan,nan,nan,nan,nan,nan,nan,nan,0.0,nan,nan,nan,nan,nan,nan,nan,nan,nan,nan,nan,nan,nan,nan,nan,nan,nan,nan,164.0238608479267,590.2047076807357,nan,590.8539762520231,nan,nan,nan,nan
1,285,1,1,1.0,1.0,0.5287481108680367,0,1,3,5,4,7,6,nan,nan,nan,nan,nan,nan,nan,nan,nan,nan,nan,nan,0.0,nan,nan,nan,nan,nan,nan,nan,nan,nan,nan,nan,nan,nan,nan,nan,nan,nan,nan,164.0238608479267,591.2131972777424,nan,591.7419453886105,nan,nan,nan,nan
1,286,1,1,1.0,1.0,0.608248348464258,0,8,5,4,2,3,7,nan,nan,nan,nan,nan,nan,nan,nan,nan,nan,nan,nan,0.0,nan,nan,nan,nan,nan,nan,nan,nan,nan,nan,nan,nan,nan,nan,nan,nan,nan,nan,164.0238608479267,592.2216669180198,nan,592.829915266484,nan,nan,nan,nan
1,287,0,0,0.0,1.0,0.7197643279796466,0,7,6,2,0,5,8,nan,nan,nan,nan,nan,nan,nan,nan,nan,nan,nan,nan,0.0,nan,nan,nan,nan,nan,nan,nan,nan,nan,nan,nan,nan,nan,nan,nan,nan,nan,nan,164.0238608479267,593.2301682039397,nan,593.9499325319193,nan,nan,nan,nan
1,288,1,1,1.0,1.0,0.7752859729807824,0,6,1,0,2,7,5,nan,nan,nan,nan,nan,nan,nan,nan,nan,nan,nan,nan,0.0,nan,nan,nan,nan,nan,nan,nan,nan,nan,nan,nan,nan,nan,nan,nan,nan,nan,nan,164.0238608479267,594.2385868119309,nan,595.0138727849117,nan,nan,nan,nan
1,289,1,1,1.0,1.0,0.782776877633296,0,4,2,5,1,6,3,nan,nan,nan,nan,nan,nan,nan,nan,nan,nan,nan,nan,0.0,nan,nan,nan,nan,nan,nan,nan,nan,nan,nan,nan,nan,nan,nan,nan,nan,nan,nan,164.0238608479267,595.247072702623,nan,596.0298495802563,nan,nan,nan,nan
1,290,1,1,1.0,1.0,0.6063045620685443,0,5,3,7,2,8,1,nan,nan,nan,nan,nan,nan,nan,nan,nan,nan,nan,nan,0.0,nan,nan,nan,nan,nan,nan,nan,nan,nan,nan,nan,nan,nan,nan,nan,nan,nan,nan,164.0238608479267,596.2555149736581,nan,596.8618195357267,nan,nan,nan,nan
1,291,1,1,1.0,1.0,0.5418294684495777,0,2,4,1,6,3,8,nan,nan,nan,nan,nan,nan,nan,nan,nan,nan,nan,nan,0.0,nan,nan,nan,nan,nan,nan,nan,nan,nan,nan,nan,nan,nan,nan,nan,nan,nan,nan,164.0238608479267,597.2639772014227,nan,597.8058066698723,nan,nan,nan,nan
1,292,1,1,1.0,1.0,0.4133508305530995,0,4,5,7,3,8,0,nan,nan,nan,nan,nan,nan,nan,nan,nan,nan,nan,nan,0.0,nan,nan,nan,nan,nan,nan,nan,nan,nan,nan,nan,nan,nan,nan,nan,nan,nan,nan,164.0238608479267,598.2724448459921,nan,598.6857956765452,nan,nan,nan,nan
1,293,1,1,nan,nan,nan,0,1,8,4,0,3,5,nan,nan,nan,nan,nan,nan,nan,nan,nan,nan,nan,nan,0.0,nan,nan,nan,nan,nan,nan,nan,nan,nan,nan,nan,nan,nan,nan,nan,nan,nan,nan,164.0238608479267,599.2808996611275,nan,nan,nan,nan,nan,nan
1,294,1,1,1.0,1.0,0.49236469401512295,0,7,6,3,1,8,4,nan,nan,nan,nan,nan,nan,nan,nan,nan,nan,nan,nan,0.0,nan,nan,nan,nan,nan,nan,nan,nan,nan,nan,nan,nan,nan,nan,nan,nan,nan,nan,164.0238608479267,600.2893576124916,nan,600.7817223065067,nan,nan,nan,nan
1,295,1,1,1.0,1.0,0.27592558634933084,0,2,5,6,7,4,0,nan,nan,nan,nan,nan,nan,nan,nan,nan,nan,nan,nan,0.0,nan,nan,nan,nan,nan,nan,nan,nan,nan,nan,nan,nan,nan,nan,nan,nan,nan,nan,164.0238608479267,601.297806155635,nan,601.5737317419844,nan,nan,nan,nan
1,296,1,1,1.0,1.0,0.35540558223146945,0,7,6,4,5,0,1,nan,nan,nan,nan,nan,nan,nan,nan,nan,nan,nan,nan,0.0,nan,nan,nan,nan,nan,nan,nan,nan,nan,nan,nan,nan,nan,nan,nan,nan,nan,nan,164.0238608479267,602.3062920463271,nan,602.6616976285586,nan,nan,nan,nan
1,297,1,1,1.0,1.0,0.2909264974296093,0,8,4,1,3,2,5,nan,nan,nan,nan,nan,nan,nan,nan,nan,nan,nan,nan,0.0,nan,nan,nan,nan,nan,nan,nan,nan,nan,nan,nan,nan,nan,nan,nan,nan,nan,nan,164.0238608479267,603.3147556994809,nan,603.6056821969105,nan,nan,nan,nan
1,298,1,1,1.0,1.0,0.2344278274103999,0,5,0,4,1,8,7,nan,nan,nan,nan,nan,nan,nan,nan,nan,nan,nan,nan,0.0,nan,nan,nan,nan,nan,nan,nan,nan,nan,nan,nan,nan,nan,nan,nan,nan,nan,nan,164.0238608479267,604.3232207782567,nan,604.557648605667,nan,nan,nan,nan
1,299,1,1,1.0,1.0,0.28995146800298244,0,3,5,0,7,6,4,nan,nan,nan,nan,nan,nan,nan,nan,nan,nan,nan,nan,0.0,nan,nan,nan,nan,nan,nan,nan,nan,nan,nan,nan,nan,nan,nan,nan,nan,nan,nan,164.0238608479267,605.3316827209201,nan,605.621634188923,nan,nan,nan,nan
1,300,1,1,1.0,1.0,0.305443599820137,0,6,8,4,0,2,1,nan,nan,nan,nan,nan,nan,nan,nan,nan,nan,nan,nan,0.0,nan,nan,nan,nan,nan,nan,nan,nan,nan,nan,nan,nan,nan,nan,nan,nan,nan,nan,164.0238608479267,606.3401503654895,nan,606.6455939653097,nan,nan,nan,nan
1,301,1,1,1.0,1.0,0.057007281575351954,0,7,2,5,3,6,8,nan,nan,nan,nan,nan,nan,nan,nan,nan,nan,nan,nan,0.0,nan,nan,nan,nan,nan,nan,nan,nan,nan,nan,nan,nan,nan,nan,nan,nan,nan,nan,164.0238608479267,607.3485772412969,nan,607.4055845228722,nan,nan,nan,nan
1,302,1,1,1.0,1.0,0.312493460602127,0,0,8,1,4,3,5,nan,nan,nan,nan,nan,nan,nan,nan,nan,nan,nan,nan,0.0,nan,nan,nan,nan,nan,nan,nan,nan,nan,nan,nan,nan,nan,nan,nan,nan,nan,nan,164.0238608479267,608.357063131989,nan,608.6695565925911,nan,nan,nan,nan
1,303,1,1,1.0,1.0,0.4400309956399724,0,2,0,3,5,4,6,nan,nan,nan,nan,nan,nan,nan,nan,nan,nan,nan,nan,0.0,nan,nan,nan,nan,nan,nan,nan,nan,nan,nan,nan,nan,nan,nan,nan,nan,nan,nan,164.0238608479267,609.3655019818107,nan,609.8055329774506,nan,nan,nan,nan
1,304,1,1,1.0,1.0,0.29551255609840155,0,4,3,6,7,1,0,nan,nan,nan,nan,nan,nan,nan,nan,nan,nan,nan,nan,0.0,nan,nan,nan,nan,nan,nan,nan,nan,nan,nan,nan,nan,nan,nan,nan,nan,nan,nan,164.0238608479267,610.3739895831095,nan,610.6695021392079,nan,nan,nan,nan
1,305,1,1,1.0,1.0,0.23902586020994931,0,5,6,0,1,7,3,nan,nan,nan,nan,nan,nan,nan,nan,nan,nan,nan,nan,0.0,nan,nan,nan,nan,nan,nan,nan,nan,nan,nan,nan,nan,nan,nan,nan,nan,nan,nan,164.0238608479267,611.3824563723756,nan,611.6214822325855,nan,nan,nan,nan
1,306,1,1,1.0,1.0,0.286555971368216,0,2,7,4,8,5,6,nan,nan,nan,nan,nan,nan,nan,nan,nan,nan,nan,nan,0.0,nan,nan,nan,nan,nan,nan,nan,nan,nan,nan,nan,nan,nan,nan,nan,nan,nan,nan,164.0238608479267,612.3909123280318,nan,612.6774682994001,nan,nan,nan,nan
1,307,1,1,1.0,1.0,0.23007241170853376,0,8,4,2,7,6,1,nan,nan,nan,nan,nan,nan,nan,nan,nan,nan,nan,nan,0.0,nan,nan,nan,nan,nan,nan,nan,nan,nan,nan,nan,nan,nan,nan,nan,nan,nan,nan,164.0238608479267,613.3993751258822,nan,613.6294475375907,nan,nan,nan,nan
1,308,1,1,1.0,1.0,0.22957121231593192,0,6,5,8,1,7,4,nan,nan,nan,nan,nan,nan,nan,nan,nan,nan,nan,nan,0.0,nan,nan,nan,nan,nan,nan,nan,nan,nan,nan,nan,nan,nan,nan,nan,nan,nan,nan,164.0238608479267,614.407840204658,nan,614.6374114169739,nan,nan,nan,nan
1,309,1,1,1.0,1.0,0.3170940593117848,0,4,0,7,2,1,8,nan,nan,nan,nan,nan,nan,nan,nan,nan,nan,nan,nan,0.0,nan,nan,nan,nan,nan,nan,nan,nan,nan,nan,nan,nan,nan,nan,nan,nan,nan,nan,164.0238608479267,615.4163041429128,nan,615.7333982022246,nan,nan,nan,nan
1,310,1,1,1.0,1.0,0.3566103990888223,0,1,2,5,4,8,6,nan,nan,nan,nan,nan,nan,nan,nan,nan,nan,nan,nan,0.0,nan,nan,nan,nan,nan,nan,nan,nan,nan,nan,nan,nan,nan,nan,nan,nan,nan,nan,164.0238608479267,616.4247603836702,nan,616.781370782759,nan,nan,nan,nan
1,311,1,1,1.0,1.0,0.3800920690409839,0,6,5,4,1,7,2,nan,nan,nan,nan,nan,nan,nan,nan,nan,nan,nan,nan,0.0,nan,nan,nan,nan,nan,nan,nan,nan,nan,nan,nan,nan,nan,nan,nan,nan,nan,nan,164.0238608479267,617.4332474147668,nan,617.8133394838078,nan,nan,nan,nan
1,312,1,1,1.0,1.0,0.3476278707385063,0,0,4,3,2,1,6,nan,nan,nan,nan,nan,nan,nan,nan,nan,nan,nan,nan,0.0,nan,nan,nan,nan,nan,nan,nan,nan,nan,nan,nan,nan,nan,nan,nan,nan,nan,nan,164.0238608479267,618.4417005194118,nan,618.7893283901503,nan,nan,nan,nan
1,313,1,1,1.0,1.0,0.3871778519824147,0,8,7,5,3,6,2,nan,nan,nan,nan,nan,nan,nan,nan,nan,nan,nan,nan,0.0,nan,nan,nan,nan,nan,nan,nan,nan,nan,nan,nan,nan,nan,nan,nan,nan,nan,nan,164.0238608479267,619.4501251144102,nan,619.8373029663926,nan,nan,nan,nan
1,314,1,1,1.0,1.0,0.4026491715339944,0,0,6,8,1,2,3,nan,nan,nan,nan,nan,nan,nan,nan,nan,nan,nan,nan,0.0,nan,nan,nan,nan,nan,nan,nan,nan,nan,nan,nan,nan,nan,nan,nan,nan,nan,nan,164.0238608479267,620.458619558136,nan,620.86126872967,nan,nan,nan,nan
1,315,1,1,1.0,1.0,0.4501718702958897,1,2,1,5,7,3,4,1.0,1.0,1.0,1.0,1.0,1.0,0.0,0.0,1.0,0.0,0.0,0.0,1.0,8.0,7.0,5.0,6.0,4.0,3.0,4.0,3.0,1.0,2.0,6.0,5.0,5.0681930341525,4.17946126498282,2.0452633106615394,2.9313488161424175,6.883415578864515,6.035545233869925,164.0238608479267,621.4670854920987,622.2754876784747,621.9172573623946,630.2181665059179,631.2168898447417,623.2922881171107,630.2098436902743
1,316,1,1,1.0,1.0,0.5943749933503568,0,4,7,0,1,2,5,nan,nan,nan,nan,nan,nan,nan,nan,nan,nan,nan,nan,0.0,nan,nan,nan,nan,nan,nan,nan,nan,nan,nan,nan,nan,nan,nan,nan,nan,nan,nan,164.0238608479267,631.4266579844989,nan,632.0210329778492,nan,nan,nan,nan
1,317,1,1,1.0,1.0,0.43384012999013066,0,6,0,2,5,4,1,nan,nan,nan,nan,nan,nan,nan,nan,nan,nan,nan,nan,0.0,nan,nan,nan,nan,nan,nan,nan,nan,nan,nan,nan,nan,nan,nan,nan,nan,nan,nan,164.0238608479267,632.4351527132094,nan,632.8689928431995,nan,nan,nan,nan
1,318,1,1,1.0,1.0,0.3133535960223526,0,4,8,7,1,5,6,nan,nan,nan,nan,nan,nan,nan,nan,nan,nan,nan,nan,0.0,nan,nan,nan,nan,nan,nan,nan,nan,nan,nan,nan,nan,nan,nan,nan,nan,nan,nan,164.0238608479267,633.4436163664795,nan,633.7569699625019,nan,nan,nan,nan
1,319,1,1,1.0,1.0,0.2648758249124512,0,0,7,3,8,4,2,nan,nan,nan,nan,nan,nan,nan,nan,nan,nan,nan,nan,0.0,nan,nan,nan,nan,nan,nan,nan,nan,nan,nan,nan,nan,nan,nan,nan,nan,nan,nan,164.0238608479267,634.4520791643299,nan,634.7169549892424,nan,nan,nan,nan
1,320,0,0,1.0,0.0,0.24839355365838856,0,1,8,2,6,3,0,nan,nan,nan,nan,nan,nan,nan,nan,nan,nan,nan,nan,0.0,nan,nan,nan,nan,nan,nan,nan,nan,nan,nan,nan,nan,nan,nan,nan,nan,nan,nan,164.0238608479267,635.4605305584846,nan,635.708924112143,nan,nan,nan,nan
1,321,1,1,1.0,1.0,0.6478887052508071,1,3,1,0,2,5,4,1.0,1.0,1.0,1.0,1.0,1.0,0.0,0.0,1.0,1.0,0.0,1.0,3.0,5.0,0.0,0.0,2.0,8.0,4.0,6.0,3.0,2.0,1.0,4.0,5.0,7.6645959173329175,4.1291189641924575,3.1529649870935827,1.417257505003363,5.313944030436687,6.21737935510464,164.0238608479267,636.4689999135444,637.2774066615384,637.1168886187952,645.9951901406748,647.0037330506602,638.2942190741887,645.9868428066839
1,322,1,1,1.0,1.0,0.5126076701562852,0,5,7,1,3,6,8,nan,nan,nan,nan,nan,nan,nan,nan,nan,nan,nan,nan,0.0,nan,nan,nan,nan,nan,nan,nan,nan,nan,nan,nan,nan,nan,nan,nan,nan,nan,nan,164.0238608479267,647.2120471993694,nan,647.7246548695257,nan,nan,nan,nan
1,323,1,1,1.0,1.0,0.47212656447663903,0,6,1,4,0,3,5,nan,nan,nan,nan,nan,nan,nan,nan,nan,nan,nan,nan,0.0,nan,nan,nan,nan,nan,nan,nan,nan,nan,nan,nan,nan,nan,nan,nan,nan,nan,nan,164.0238608479267,648.2205091420328,nan,648.6926357065095,nan,nan,nan,nan
1,324,1,1,1.0,1.0,0.4876395083265379,0,1,6,7,3,8,4,nan,nan,nan,nan,nan,nan,nan,nan,nan,nan,nan,nan,0.0,nan,nan,nan,nan,nan,nan,nan,nan,nan,nan,nan,nan,nan,nan,nan,nan,nan,nan,164.0238608479267,649.2289685187861,nan,649.7166080271127,nan,nan,nan,nan
1,325,0,0,1.0,0.0,0.3431567057268694,0,7,0,5,1,4,2,nan,nan,nan,nan,nan,nan,nan,nan,nan,nan,nan,nan,0.0,nan,nan,nan,nan,nan,nan,nan,nan,nan,nan,nan,nan,nan,nan,nan,nan,nan,nan,164.0238608479267,650.2374350229511,nan,650.580591728678,nan,nan,nan,nan
1,326,1,1,1.0,1.0,0.4866604876006022,0,5,3,4,0,6,8,nan,nan,nan,nan,nan,nan,nan,nan,nan,nan,nan,nan,0.0,nan,nan,nan,nan,nan,nan,nan,nan,nan,nan,nan,nan,nan,nan,nan,nan,nan,nan,164.0238608479267,651.2458841362968,nan,651.7325446238974,nan,nan,nan,nan
1,327,1,1,1.0,1.0,0.35818184982053936,0,0,5,7,6,2,3,nan,nan,nan,nan,nan,nan,nan,nan,nan,nan,nan,nan,0.0,nan,nan,nan,nan,nan,nan,nan,nan,nan,nan,nan,nan,nan,nan,nan,nan,nan,nan,164.0238608479267,652.2543577678734,nan,652.612539617694,nan,nan,nan,nan
1,328,1,1,1.0,1.0,0.16572162008378655,0,5,6,4,1,7,0,nan,nan,nan,nan,nan,nan,nan,nan,nan,nan,nan,nan,0.0,nan,nan,nan,nan,nan,nan,nan,nan,nan,nan,nan,nan,nan,nan,nan,nan,nan,nan,164.0238608479267,653.26281543402,nan,653.4285370541038,nan,nan,nan,nan
1,329,1,1,1.0,1.0,0.21320697106420994,1,1,4,7,3,6,5,1.0,1.0,1.0,1.0,1.0,1.0,0.0,0.0,1.0,1.0,0.0,0.0,2.0,2.0,8.0,7.0,3.0,0.0,1.0,4.0,3.0,2.0,1.0,6.0,5.0,4.575607675593346,3.4320679714437574,2.486917359405197,1.5349210154963657,6.1898915122728795,5.422938903560862,164.0238608479267,654.2712845040951,655.0796946733026,654.4844914751593,662.3222785349935,663.3209784959909,656.0964976777323,662.3139483068371
1,330,0,0,0.0,1.0,0.7058273963630199,0,0,6,5,4,7,8,nan,nan,nan,nan,nan,nan,nan,nan,nan,nan,nan,nan,0.0,nan,nan,nan,nan,nan,nan,nan,nan,nan,nan,nan,nan,nan,nan,nan,nan,nan,nan,164.0238608479267,663.5224796989933,nan,664.2283070953563,nan,nan,nan,nan
1,331,1,1,1.0,1.0,0.4973276499658823,0,4,7,2,0,3,6,nan,nan,nan,nan,nan,nan,nan,nan,nan,nan,nan,nan,0.0,nan,nan,nan,nan,nan,nan,nan,nan,nan,nan,nan,nan,nan,nan,nan,nan,nan,nan,164.0238608479267,664.5309259613277,nan,665.0282536112936,nan,nan,nan,nan
1,332,1,1,1.0,1.0,0.5208563607884571,0,7,2,8,3,6,1,nan,nan,nan,nan,nan,nan,nan,nan,nan,nan,nan,nan,0.0,nan,nan,nan,nan,nan,nan,nan,nan,nan,nan,nan,nan,nan,nan,nan,nan,nan,nan,164.0238608479267,665.5393628154416,nan,666.06021917623,nan,nan,nan,nan
1,333,1,1,1.0,1.0,0.5123519388725981,0,5,6,3,4,0,7,nan,nan,nan,nan,nan,nan,nan,nan,nan,nan,nan,nan,0.0,nan,nan,nan,nan,nan,nan,nan,nan,nan,nan,nan,nan,nan,nan,nan,nan,nan,nan,164.0238608479267,666.5478566888487,nan,667.0602086277213,nan,nan,nan,nan
1,334,1,1,1.0,1.0,0.5038845792878419,0,4,1,5,0,3,8,nan,nan,nan,nan,nan,nan,nan,nan,nan,nan,nan,nan,0.0,nan,nan,nan,nan,nan,nan,nan,nan,nan,nan,nan,nan,nan,nan,nan,nan,nan,nan,164.0238608479267,667.556296108989,nan,668.0601806882769,nan,nan,nan,nan
1,335,1,1,1.0,1.0,0.44737735658418387,0,7,6,0,8,5,2,nan,nan,nan,nan,nan,nan,nan,nan,nan,nan,nan,nan,0.0,nan,nan,nan,nan,nan,nan,nan,nan,nan,nan,nan,nan,nan,nan,nan,nan,nan,nan,164.0238608479267,668.5647800039733,nan,669.0121573605575,nan,nan,nan,nan
1,336,1,1,1.0,1.0,0.3268774230964482,0,5,7,6,0,4,8,nan,nan,nan,nan,nan,nan,nan,nan,nan,nan,nan,nan,0.0,nan,nan,nan,nan,nan,nan,nan,nan,nan,nan,nan,nan,nan,nan,nan,nan,nan,nan,164.0238608479267,669.5732516399585,nan,669.9001290630549,nan,nan,nan,nan
1,337,0,0,0.0,1.0,0.7343832098413259,0,3,1,5,6,8,4,nan,nan,nan,nan,nan,nan,nan,nan,nan,nan,nan,nan,0.0,nan,nan,nan,nan,nan,nan,nan,nan,nan,nan,nan,nan,nan,nan,nan,nan,nan,nan,164.0238608479267,670.5817221354228,nan,671.3161053452641,nan,nan,nan,nan
1,338,1,1,1.0,1.0,0.7339162221178412,0,8,5,4,1,3,7,nan,nan,nan,nan,nan,nan,nan,nan,nan,nan,nan,nan,0.0,nan,nan,nan,nan,nan,nan,nan,nan,nan,nan,nan,nan,nan,nan,nan,nan,nan,nan,164.0238608479267,671.590164691559,nan,672.3240809136769,nan,nan,nan,nan
1,339,1,1,1.0,1.0,0.7494385741883889,0,0,6,7,4,1,2,nan,nan,nan,nan,nan,nan,nan,nan,nan,nan,nan,nan,0.0,nan,nan,nan,nan,nan,nan,nan,nan,nan,nan,nan,nan,nan,nan,nan,nan,nan,nan,164.0238608479267,672.5986274894094,nan,673.3480660635978,nan,nan,nan,nan
1,340,1,1,1.0,1.0,0.5889151145238429,0,7,4,0,8,5,3,nan,nan,nan,nan,nan,nan,nan,nan,nan,nan,nan,nan,0.0,nan,nan,nan,nan,nan,nan,nan,nan,nan,nan,nan,nan,nan,nan,nan,nan,nan,nan,164.0238608479267,673.6071330518462,nan,674.19604816637,nan,nan,nan,nan
1,341,1,1,1.0,1.0,0.4844820669386536,0,0,3,1,4,6,7,nan,nan,nan,nan,nan,nan,nan,nan,nan,nan,nan,nan,0.0,nan,nan,nan,nan,nan,nan,nan,nan,nan,nan,nan,nan,nan,nan,nan,nan,nan,nan,164.0238608479267,674.6155613531591,nan,675.1000434200978,nan,nan,nan,nan
1,342,1,1,1.0,1.0,0.3399704697076231,0,4,8,7,0,2,3,nan,nan,nan,nan,nan,nan,nan,nan,nan,nan,nan,nan,0.0,nan,nan,nan,nan,nan,nan,nan,nan,nan,nan,nan,nan,nan,nan,nan,nan,nan,nan,164.0238608479267,675.6240184491035,nan,675.9639889188111,nan,nan,nan,nan
1,343,1,1,1.0,1.0,0.2834951776312664,0,1,6,4,8,7,0,nan,nan,nan,nan,nan,nan,nan,nan,nan,nan,nan,nan,0.0,nan,nan,nan,nan,nan,nan,nan,nan,nan,nan,nan,nan,nan,nan,nan,nan,nan,nan,164.0238608479267,676.632482957677,nan,676.9159781353083,nan,nan,nan,nan
1,344,0,0,1.0,0.0,0.363003398058936,0,6,0,5,3,8,1,nan,nan,nan,nan,nan,nan,nan,nan,nan,nan,nan,nan,0.0,nan,nan,nan,nan,nan,nan,nan,nan,nan,nan,nan,nan,nan,nan,nan,nan,nan,nan,164.0238608479267,677.6409446151229,nan,678.0039480131818,nan,nan,nan,nan
1,345,1,1,1.0,1.0,0.626505344058387,0,1,8,4,6,7,2,nan,nan,nan,nan,nan,nan,nan,nan,nan,nan,nan,nan,0.0,nan,nan,nan,nan,nan,nan,nan,nan,nan,nan,nan,nan,nan,nan,nan,nan,nan,nan,164.0238608479267,678.6494051322807,nan,679.275910476339,nan,nan,nan,nan
1,346,1,1,1.0,1.0,0.6100230728043243,1,7,1,6,2,5,0,1.0,1.0,1.0,1.0,1.0,1.0,1.0,0.0,1.0,1.0,0.0,1.0,4.0,7.0,8.0,6.0,2.0,3.0,0.0,4.0,3.0,2.0,1.0,6.0,5.0,4.7964278577128425,3.860373812611215,2.7796225724741817,2.0224464853527024,6.427516124327667,5.707510604872368,164.0238608479267,679.6578710663598,680.4662820907542,680.2678941391641,687.9422400641488,688.9512046314776,681.474753726623,687.9339069849811
1,347,1,1,1.0,1.0,0.5086243049008772,0,3,4,0,7,1,2,nan,nan,nan,nan,nan,nan,nan,nan,nan,nan,nan,nan,0.0,nan,nan,nan,nan,nan,nan,nan,nan,nan,nan,nan,nan,nan,nan,nan,nan,nan,nan,164.0238608479267,689.1590803022264,nan,689.6677046071272,nan,nan,nan,nan
1,348,1,1,1.0,1.0,0.43611092190258205,0,7,2,4,0,6,5,nan,nan,nan,nan,nan,nan,nan,nan,nan,nan,nan,nan,0.0,nan,nan,nan,nan,nan,nan,nan,nan,nan,nan,nan,nan,nan,nan,nan,nan,nan,nan,164.0238608479267,690.167543670279,nan,690.6036545921816,nan,nan,nan,nan
1,349,1,1,1.0,1.0,0.3476349980337545,0,1,6,5,7,3,8,nan,nan,nan,nan,nan,nan,nan,nan,nan,nan,nan,nan,0.0,nan,nan,nan,nan,nan,nan,nan,nan,nan,nan,nan,nan,nan,nan,nan,nan,nan,nan,164.0238608479267,691.1760064682458,nan,691.5236414662795,nan,nan,nan,nan
1,350,1,1,1.0,1.0,0.3151257545687258,0,4,3,2,6,1,7,nan,nan,nan,nan,nan,nan,nan,nan,nan,nan,nan,nan,0.0,nan,nan,nan,nan,nan,nan,nan,nan,nan,nan,nan,nan,nan,nan,nan,nan,nan,nan,164.0238608479267,692.1844929291401,nan,692.4996186837088,nan,nan,nan,nan
1,351,1,1,1.0,1.0,0.2906499538803473,0,5,1,0,7,8,4,nan,nan,nan,nan,nan,nan,nan,nan,nan,nan,nan,nan,0.0,nan,nan,nan,nan,nan,nan,nan,nan,nan,nan,nan,nan,nan,nan,nan,nan,nan,nan,164.0238608479267,693.1929357703775,nan,693.4835857242579,nan,nan,nan,nan
1,352,1,1,1.0,1.0,0.2821680544875562,0,7,5,2,1,4,3,nan,nan,nan,nan,nan,nan,nan,nan,nan,nan,nan,nan,0.0,nan,nan,nan,nan,nan,nan,nan,nan,nan,nan,nan,nan,nan,nan,nan,nan,nan,nan,164.0238608479267,694.2013965726364,nan,694.483564627124,nan,nan,nan,nan
1,353,0,0,0.0,1.0,0.7536645563086495,0,4,6,0,8,3,7,nan,nan,nan,nan,nan,nan,nan,nan,nan,nan,nan,nan,0.0,nan,nan,nan,nan,nan,nan,nan,nan,nan,nan,nan,nan,nan,nan,nan,nan,nan,nan,164.0238608479267,695.2098625065992,nan,695.9635270629078,nan,nan,nan,nan
1,354,1,1,1.0,1.0,0.5772093464620411,0,2,0,6,3,5,8,nan,nan,nan,nan,nan,nan,nan,nan,nan,nan,nan,nan,0.0,nan,nan,nan,nan,nan,nan,nan,nan,nan,nan,nan,nan,nan,nan,nan,nan,nan,nan,164.0238608479267,696.2183241641615,nan,696.7955335106235,nan,nan,nan,nan
1,355,1,1,1.0,1.0,0.5447012432850897,0,8,4,7,1,0,2,nan,nan,nan,nan,nan,nan,nan,nan,nan,nan,nan,nan,0.0,nan,nan,nan,nan,nan,nan,nan,nan,nan,nan,nan,nan,nan,nan,nan,nan,nan,nan,164.0238608479267,697.2267906683264,nan,697.7714919116115,nan,nan,nan,nan
1,356,1,1,1.0,1.0,0.5362327435286716,0,6,2,0,5,8,1,nan,nan,nan,nan,nan,nan,nan,nan,nan,nan,nan,nan,0.0,nan,nan,nan,nan,nan,nan,nan,nan,nan,nan,nan,nan,nan,nan,nan,nan,nan,nan,164.0238608479267,698.2352474791696,nan,698.7714802226983,nan,nan,nan,nan
1,357,1,1,1.0,1.0,0.4797469029435888,0,4,0,8,6,2,3,nan,nan,nan,nan,nan,nan,nan,nan,nan,nan,nan,nan,0.0,nan,nan,nan,nan,nan,nan,nan,nan,nan,nan,nan,nan,nan,nan,nan,nan,nan,nan,164.0238608479267,699.2437125579454,nan,699.723459460889,nan,nan,nan,nan
1,358,1,1,1.0,1.0,0.5912580357398838,0,1,7,3,0,5,4,nan,nan,nan,nan,nan,nan,nan,nan,nan,nan,nan,nan,0.0,nan,nan,nan,nan,nan,nan,nan,nan,nan,nan,nan,nan,nan,nan,nan,nan,nan,nan,164.0238608479267,700.2521733602043,nan,700.8434313959442,nan,nan,nan,nan
1,359,1,1,1.0,1.0,0.5107562550110742,0,0,8,2,4,6,7,nan,nan,nan,nan,nan,nan,nan,nan,nan,nan,nan,nan,0.0,nan,nan,nan,nan,nan,nan,nan,nan,nan,nan,nan,nan,nan,nan,nan,nan,nan,nan,164.0238608479267,701.2606372984592,nan,701.7713935534703,nan,nan,nan,nan
1,360,1,1,1.0,1.0,0.5182676865952089,0,7,0,4,3,5,8,nan,nan,nan,nan,nan,nan,nan,nan,nan,nan,nan,nan,0.0,nan,nan,nan,nan,nan,nan,nan,nan,nan,nan,nan,nan,nan,nan,nan,nan,nan,nan,164.0238608479267,702.2691217637621,nan,702.7873894503573,nan,nan,nan,nan
1,361,1,1,1.0,1.0,0.5017968192696571,0,2,4,7,8,1,5,nan,nan,nan,nan,nan,nan,nan,nan,nan,nan,nan,nan,0.0,nan,nan,nan,nan,nan,nan,nan,nan,nan,nan,nan,nan,nan,nan,nan,nan,nan,nan,164.0238608479267,703.2775683111977,nan,703.7793651304673,nan,nan,nan,nan
1,362,1,1,1.0,1.0,0.645300031057559,0,7,3,5,6,8,0,nan,nan,nan,nan,nan,nan,nan,nan,nan,nan,nan,nan,0.0,nan,nan,nan,nan,nan,nan,nan,nan,nan,nan,nan,nan,nan,nan,nan,nan,nan,nan,164.0238608479267,704.2860225562472,nan,704.9313225873047,nan,nan,nan,nan
1,363,1,1,1.0,1.0,0.5008269217796624,0,0,8,4,7,2,1,nan,nan,nan,nan,nan,nan,nan,nan,nan,nan,nan,nan,0.0,nan,nan,nan,nan,nan,nan,nan,nan,nan,nan,nan,nan,nan,nan,nan,nan,nan,nan,164.0238608479267,705.2944873498054,nan,705.7953142715851,nan,nan,nan,nan
1,364,0,0,0.0,1.0,0.5083303707651794,0,8,4,0,3,7,2,nan,nan,nan,nan,nan,nan,nan,nan,nan,nan,nan,nan,0.0,nan,nan,nan,nan,nan,nan,nan,nan,nan,nan,nan,nan,nan,nan,nan,nan,nan,nan,164.0238608479267,706.302952998667,nan,706.8112833694322,nan,nan,nan,nan
1,365,1,1,1.0,1.0,0.4118458073353395,0,5,3,8,2,6,1,nan,nan,nan,nan,nan,nan,nan,nan,nan,nan,nan,nan,0.0,nan,nan,nan,nan,nan,nan,nan,nan,nan,nan,nan,nan,nan,nan,nan,nan,nan,nan,164.0238608479267,707.3114120904356,nan,707.723257897771,nan,nan,nan,nan
1,366,1,1,1.0,1.0,0.33136540884152055,0,7,5,4,6,0,2,nan,nan,nan,nan,nan,nan,nan,nan,nan,nan,nan,nan,0.0,nan,nan,nan,nan,nan,nan,nan,nan,nan,nan,nan,nan,nan,nan,nan,nan,nan,nan,164.0238608479267,708.319880590192,nan,708.6512459990336,nan,nan,nan,nan
1,367,1,1,1.0,1.0,0.5468688303371891,0,3,1,2,0,4,5,nan,nan,nan,nan,nan,nan,nan,nan,nan,nan,nan,nan,0.0,nan,nan,nan,nan,nan,nan,nan,nan,nan,nan,nan,nan,nan,nan,nan,nan,nan,nan,164.0238608479267,709.328341392451,nan,709.8752102227882,nan,nan,nan,nan
1,368,0,0,0.0,1.0,0.5463756137760356,0,8,0,3,6,5,4,nan,nan,nan,nan,nan,nan,nan,nan,nan,nan,nan,nan,0.0,nan,nan,nan,nan,nan,nan,nan,nan,nan,nan,nan,nan,nan,nan,nan,nan,nan,nan,164.0238608479267,710.3368039053166,nan,710.8831795190927,nan,nan,nan,nan
1,369,1,1,1.0,1.0,0.2979105008998886,0,6,3,4,7,0,1,nan,nan,nan,nan,nan,nan,nan,nan,nan,nan,nan,nan,0.0,nan,nan,nan,nan,nan,nan,nan,nan,nan,nan,nan,nan,nan,nan,nan,nan,nan,nan,164.0238608479267,711.3452638522722,nan,711.6431743531721,nan,nan,nan,nan
1,370,1,1,1.0,1.0,0.4094227741006762,0,1,2,0,6,3,8,nan,nan,nan,nan,nan,nan,nan,nan,nan,nan,nan,nan,0.0,nan,nan,nan,nan,nan,nan,nan,nan,nan,nan,nan,nan,nan,nan,nan,nan,nan,nan,164.0238608479267,712.3537195228273,nan,712.763142296928,nan,nan,nan,nan
1,371,1,1,1.0,1.0,0.4089281321503222,0,3,4,7,5,8,1,nan,nan,nan,nan,nan,nan,nan,nan,nan,nan,nan,nan,0.0,nan,nan,nan,nan,nan,nan,nan,nan,nan,nan,nan,nan,nan,nan,nan,nan,nan,nan,164.0238608479267,713.3621905884938,nan,713.7711187206442,nan,nan,nan,nan
1,372,1,1,1.0,1.0,0.4404583550058305,0,2,6,1,4,0,7,nan,nan,nan,nan,nan,nan,nan,nan,nan,nan,nan,nan,0.0,nan,nan,nan,nan,nan,nan,nan,nan,nan,nan,nan,nan,nan,nan,nan,nan,nan,nan,164.0238608479267,714.3706451186445,nan,714.8111034736503,nan,nan,nan,nan
1,373,1,1,1.0,1.0,0.43196847289800644,0,8,0,3,7,5,2,nan,nan,nan,nan,nan,nan,nan,nan,nan,nan,nan,nan,0.0,nan,nan,nan,nan,nan,nan,nan,nan,nan,nan,nan,nan,nan,nan,nan,nan,nan,nan,164.0238608479267,715.3791087719146,nan,715.8110772448126,nan,nan,nan,nan
1,374,1,1,1.0,1.0,0.3754772156244144,0,4,2,0,6,7,5,nan,nan,nan,nan,nan,nan,nan,nan,nan,nan,nan,nan,0.0,nan,nan,nan,nan,nan,nan,nan,nan,nan,nan,nan,nan,nan,nan,nan,nan,nan,nan,164.0238608479267,716.3875658678589,nan,716.7630430834834,nan,nan,nan,nan
1,375,1,1,1.0,1.0,0.33498584642075,0,0,5,2,8,3,1,nan,nan,nan,nan,nan,nan,nan,nan,nan,nan,nan,nan,0.0,nan,nan,nan,nan,nan,nan,nan,nan,nan,nan,nan,nan,nan,nan,nan,nan,nan,nan,164.0238608479267,717.3960412100423,nan,717.7310270564631,nan,nan,nan,nan
1,376,1,1,1.0,1.0,0.2945021749474108,0,7,6,8,3,4,5,nan,nan,nan,nan,nan,nan,nan,nan,nan,nan,nan,nan,0.0,nan,nan,nan,nan,nan,nan,nan,nan,nan,nan,nan,nan,nan,nan,nan,nan,nan,nan,164.0238608479267,718.4045000165934,nan,718.6990021915408,nan,nan,nan,nan
1,377,1,1,1.0,1.0,0.24600843829102814,0,5,3,7,4,2,1,nan,nan,nan,nan,nan,nan,nan,nan,nan,nan,nan,nan,0.0,nan,nan,nan,nan,nan,nan,nan,nan,nan,nan,nan,nan,nan,nan,nan,nan,nan,nan,164.0238608479267,719.4129636698635,nan,719.6589721081546,nan,nan,nan,nan
1,378,1,1,1.0,1.0,0.2535287078935653,0,8,1,2,7,5,0,nan,nan,nan,nan,nan,nan,nan,nan,nan,nan,nan,nan,0.0,nan,nan,nan,nan,nan,nan,nan,nan,nan,nan,nan,nan,nan,nan,nan,nan,nan,nan,164.0238608479267,720.4214264678303,nan,720.6749551757239,nan,nan,nan,nan
1,379,1,1,1.0,1.0,0.21304589172359556,0,6,5,7,3,8,1,nan,nan,nan,nan,nan,nan,nan,nan,nan,nan,nan,nan,0.0,nan,nan,nan,nan,nan,nan,nan,nan,nan,nan,nan,nan,nan,nan,nan,nan,nan,nan,164.0238608479267,721.4298904060852,nan,721.6429362978088,nan,nan,nan,nan
1,380,1,1,1.0,1.0,0.2285619714530185,1,3,4,6,1,5,0,1.0,1.0,1.0,1.0,1.0,1.0,0.0,0.0,0.0,0.0,0.0,1.0,1.0,6.0,6.0,5.0,5.0,0.0,0.0,4.0,3.0,2.0,1.0,6.0,5.0,4.1977427788078785,3.461663816240616,2.6947599590057507,1.9676569675793871,5.76558671251405,4.893440419342369,164.0238608479267,722.4383600463625,723.2467528246343,722.6669220178155,730.0642969083274,731.0702619777294,724.2635683732806,730.0559783690842
1,381,1,1,1.0,1.0,0.689885952975601,0,6,8,5,2,0,7,nan,nan,nan,nan,nan,nan,nan,nan,nan,nan,nan,nan,0.0,nan,nan,nan,nan,nan,nan,nan,nan,nan,nan,nan,nan,nan,nan,nan,nan,nan,nan,164.0238608479267,731.2728126201546,nan,731.9626985731302,nan,nan,nan,nan
1,382,1,1,1.0,1.0,0.39338952966500074,0,4,1,0,7,2,6,nan,nan,nan,nan,nan,nan,nan,nan,nan,nan,nan,nan,0.0,nan,nan,nan,nan,nan,nan,nan,nan,nan,nan,nan,nan,nan,nan,nan,nan,nan,nan,164.0238608479267,732.2812845411245,nan,732.6746740707895,nan,nan,nan,nan
1,383,1,1,1.0,1.0,0.4169245124794543,0,3,7,6,0,5,4,nan,nan,nan,nan,nan,nan,nan,nan,nan,nan,nan,nan,0.0,nan,nan,nan,nan,nan,nan,nan,nan,nan,nan,nan,nan,nan,nan,nan,nan,nan,nan,164.0238608479267,733.2897367905825,nan,733.706661303062,nan,nan,nan,nan
1,384,0,0,0.0,1.0,0.6404576706700027,0,4,0,7,2,3,1,nan,nan,nan,nan,nan,nan,nan,nan,nan,nan,nan,nan,0.0,nan,nan,nan,nan,nan,nan,nan,nan,nan,nan,nan,nan,nan,nan,nan,nan,nan,nan,164.0238608479267,734.2981759255053,nan,734.9386335961754,nan,nan,nan,nan
1,385,1,1,1.0,1.0,0.5519295743433759,0,3,1,2,0,8,7,nan,nan,nan,nan,nan,nan,nan,nan,nan,nan,nan,nan,0.0,nan,nan,nan,nan,nan,nan,nan,nan,nan,nan,nan,nan,nan,nan,nan,nan,nan,nan,164.0238608479267,735.3066774965264,nan,735.8586070708698,nan,nan,nan,nan
