block,trial,freq_trials,correct_response,actual_response,acc,rts,probe_trials,trials_colorind0,trials_colorind1,trials_colorind2,trials_colorind3,trials_colorind4,trials_colorind5,wholereport_resp0,wholereport_resp1,wholereport_resp2,wholereport_resp3,wholereport_resp4,wholereport_resp5,wholereport_respacc0,wholereport_respacc1,wholereport_respacc2,wholereport_respacc3,wholereport_respacc4,wholereport_respacc5,wholereport_respacc_total,wholereport_respcolorind0,wholereport_respcolorind1,wholereport_respcolorind2,wholereport_respcolorind3,wholereport_respcolorind4,wholereport_respcolorind5,wholereport_resporder0,wholereport_resporder1,wholereport_resporder2,wholereport_resporder3,wholereport_resporder4,wholereport_resporder5,wholereport_rts0,wholereport_rts1,wholereport_rts2,wholereport_rts3,wholereport_rts4,wholereport_rts5,time_blockstart,time_encarray_offset,time_encarray_onset,time_response,time_iti_offset,time_iti_onset,time_memprobe_offset,time_memprobe_onset
1,1,1,1,nan,nan,nan,0,3,0,6,4,1,7,nan,nan,nan,nan,nan,nan,nan,nan,nan,nan,nan,nan,0.0,nan,nan,nan,nan,nan,nan,nan,nan,nan,nan,nan,nan,nan,nan,nan,nan,nan,nan,168.0564534637233,169.0697836724139,nan,nan,nan,nan,nan,nan
1,2,1,1,1.0,1.0,0.5464316453726497,0,7,6,4,1,3,2,nan,nan,nan,nan,nan,nan,nan,nan,nan,nan,nan,nan,0.0,nan,nan,nan,nan,nan,nan,nan,nan,nan,nan,nan,nan,nan,nan,nan,nan,nan,nan,168.0564534637233,170.06994674701127,nan,170.61637839238392,nan,nan,nan,nan
1,3,1,1,1.0,1.0,0.43431072612293065,0,6,3,8,0,7,4,nan,nan,nan,nan,nan,nan,nan,nan,nan,nan,nan,nan,0.0,nan,nan,nan,nan,nan,nan,nan,nan,nan,nan,nan,nan,nan,nan,nan,nan,nan,nan,168.0564534637233,171.070060785205,nan,171.50437151132792,nan,nan,nan,nan
1,4,1,1,0.0,0.0,0.554176548786927,0,1,8,3,4,0,2,nan,nan,nan,nan,nan,nan,nan,nan,nan,nan,nan,nan,0.0,nan,nan,nan,nan,nan,nan,nan,nan,nan,nan,nan,nan,nan,nan,nan,nan,nan,nan,168.0564534637233,172.07017909982824,nan,172.62435564861516,nan,nan,nan,nan
1,5,1,1,1.0,1.0,0.32201019671629183,0,4,0,1,3,5,6,nan,nan,nan,nan,nan,nan,nan,nan,nan,nan,nan,nan,0.0,nan,nan,nan,nan,nan,nan,nan,nan,nan,nan,nan,nan,nan,nan,nan,nan,nan,nan,168.0564534637233,173.07030938845128,nan,173.39231958516757,nan,nan,nan,nan
1,6,1,1,1.0,1.0,0.37785754748620093,0,2,7,5,1,4,8,nan,nan,nan,nan,nan,nan,nan,nan,nan,nan,nan,nan,0.0,nan,nan,nan,nan,nan,nan,nan,nan,nan,nan,nan,nan,nan,nan,nan,nan,nan,nan,168.0564534637233,174.07043996217544,nan,174.44829750966164,nan,nan,nan,nan
1,7,0,0,0.0,1.0,0.37736604289966635,0,4,2,0,5,8,6,nan,nan,nan,nan,nan,nan,nan,nan,nan,nan,nan,nan,0.0,nan,nan,nan,nan,nan,nan,nan,nan,nan,nan,nan,nan,nan,nan,nan,nan,nan,nan,168.0564534637233,175.07890729750216,nan,175.45627334040182,nan,nan,nan,nan
1,8,1,1,1.0,1.0,0.33721376772155054,0,3,8,4,0,1,5,nan,nan,nan,nan,nan,nan,nan,nan,nan,nan,nan,nan,0.0,nan,nan,nan,nan,nan,nan,nan,nan,nan,nan,nan,nan,nan,nan,nan,nan,nan,nan,168.0564534637233,176.07904129236704,nan,176.4162550600886,nan,nan,nan,nan
1,9,1,1,0.0,0.0,0.20907504482602235,0,0,4,3,1,6,7,nan,nan,nan,nan,nan,nan,nan,nan,nan,nan,nan,nan,0.0,nan,nan,nan,nan,nan,nan,nan,nan,nan,nan,nan,nan,nan,nan,nan,nan,nan,nan,168.0564534637233,177.07916074736568,nan,177.2882357921917,nan,nan,nan,nan
1,10,1,1,1.0,1.0,0.4968937423545867,0,8,2,7,5,3,6,nan,nan,nan,nan,nan,nan,nan,nan,nan,nan,nan,nan,0.0,nan,nan,nan,nan,nan,nan,nan,nan,nan,nan,nan,nan,nan,nan,nan,nan,nan,nan,168.0564534637233,178.07928590428492,nan,178.5761796466395,nan,nan,nan,nan
1,11,1,1,1.0,1.0,0.4484084118012106,0,6,8,1,3,7,0,nan,nan,nan,nan,nan,nan,nan,nan,nan,nan,nan,nan,0.0,nan,nan,nan,nan,nan,nan,nan,nan,nan,nan,nan,nan,nan,nan,nan,nan,nan,nan,168.0564534637233,179.087761222283,nan,179.53616963408422,nan,nan,nan,nan
1,12,1,1,1.0,1.0,0.4562693490734091,0,4,0,6,8,2,5,nan,nan,nan,nan,nan,nan,nan,nan,nan,nan,nan,nan,0.0,nan,nan,nan,nan,nan,nan,nan,nan,nan,nan,nan,nan,nan,nan,nan,nan,nan,nan,168.0564534637233,180.0878846686246,nan,180.54415401769802,nan,nan,nan,nan
1,13,1,1,1.0,1.0,0.35210373370500747,0,5,6,3,0,1,2,nan,nan,nan,nan,nan,nan,nan,nan,nan,nan,nan,nan,0.0,nan,nan,nan,nan,nan,nan,nan,nan,nan,nan,nan,nan,nan,nan,nan,nan,nan,nan,168.0564534637233,181.08801324667002,nan,181.44011698037502,nan,nan,nan,nan
1,14,1,1,1.0,1.0,0.4159665434854105,0,6,1,7,2,8,5,nan,nan,nan,nan,nan,nan,nan,nan,nan,nan,nan,nan,0.0,nan,nan,nan,nan,nan,nan,nan,nan,nan,nan,nan,nan,nan,nan,nan,nan,nan,nan,168.0564534637233,182.08811217479524,nan,182.50407871828065,nan,nan,nan,nan
1,15,1,1,1.0,1.0,0.33580197497212794,0,8,7,4,0,5,6,nan,nan,nan,nan,nan,nan,nan,nan,nan,nan,nan,nan,0.0,nan,nan,nan,nan,nan,nan,nan,nan,nan,nan,nan,nan,nan,nan,nan,nan,nan,nan,168.0564534637233,183.08826983258768,nan,183.4240718075598,nan,nan,nan,nan
1,16,1,1,1.0,1.0,0.39961090170254465,0,7,0,2,5,4,3,nan,nan,nan,nan,nan,nan,nan,nan,nan,nan,nan,nan,0.0,nan,nan,nan,nan,nan,nan,nan,nan,nan,nan,nan,nan,nan,nan,nan,nan,nan,nan,168.0564534637233,184.08840838899778,nan,184.48801929070032,nan,nan,nan,nan
1,17,1,1,1.0,1.0,0.35947943848441355,0,5,7,3,0,8,4,nan,nan,nan,nan,nan,nan,nan,nan,nan,nan,nan,nan,0.0,nan,nan,nan,nan,nan,nan,nan,nan,nan,nan,nan,nan,nan,nan,nan,nan,nan,nan,168.0564534637233,185.08854238386266,nan,185.44802182234707,nan,nan,nan,nan
1,18,1,1,1.0,1.0,0.2873662510246504,0,3,5,8,6,4,1,nan,nan,nan,nan,nan,nan,nan,nan,nan,nan,nan,nan,0.0,nan,nan,nan,nan,nan,nan,nan,nan,nan,nan,nan,nan,nan,nan,nan,nan,nan,nan,168.0564534637233,186.08862278077868,nan,186.37598903180333,nan,nan,nan,nan
1,19,1,1,1.0,1.0,0.319161522842478,0,2,3,6,4,1,5,nan,nan,nan,nan,nan,nan,nan,nan,nan,nan,nan,nan,0.0,nan,nan,nan,nan,nan,nan,nan,nan,nan,nan,nan,nan,nan,nan,nan,nan,nan,nan,168.0564534637233,187.0887992548669,nan,187.40796077770938,nan,nan,nan,nan
1,20,1,1,1.0,1.0,0.31900928185496014,0,0,8,5,3,6,1,nan,nan,nan,nan,nan,nan,nan,nan,nan,nan,nan,nan,0.0,nan,nan,nan,nan,nan,nan,nan,nan,nan,nan,nan,nan,nan,nan,nan,nan,nan,nan,168.0564534637233,188.08892868821567,nan,188.40793797007063,nan,nan,nan,nan
1,21,1,1,1.0,1.0,0.2468553257349413,0,5,0,1,4,7,2,nan,nan,nan,nan,nan,nan,nan,nan,nan,nan,nan,nan,0.0,nan,nan,nan,nan,nan,nan,nan,nan,nan,nan,nan,nan,nan,nan,nan,nan,nan,nan,168.0564534637233,189.08906011722866,nan,189.3359154429636,nan,nan,nan,nan
1,22,1,1,1.0,1.0,0.310723837435944,0,4,2,3,0,5,1,nan,nan,nan,nan,nan,nan,nan,nan,nan,nan,nan,nan,0.0,nan,nan,nan,nan,nan,nan,nan,nan,nan,nan,nan,nan,nan,nan,nan,nan,nan,nan,168.0564534637233,190.089180142415,nan,190.39990397985093,nan,nan,nan,nan
1,23,1,1,1.0,1.0,0.286582523593097,0,6,8,7,2,0,3,nan,nan,nan,nan,nan,nan,nan,nan,nan,nan,nan,nan,0.0,nan,nan,nan,nan,nan,nan,nan,nan,nan,nan,nan,nan,nan,nan,nan,nan,nan,nan,168.0564534637233,191.0893041589443,nan,191.37588668253738,nan,nan,nan,nan
1,24,1,1,1.0,1.0,0.21440547474776395,0,4,6,3,0,7,5,nan,nan,nan,nan,nan,nan,nan,nan,nan,nan,nan,nan,0.0,nan,nan,nan,nan,nan,nan,nan,nan,nan,nan,nan,nan,nan,nan,nan,nan,nan,nan,168.0564534637233,192.0894384389103,nan,192.30384391365806,nan,nan,nan,nan
1,25,1,1,1.0,1.0,0.2062286517029861,0,7,8,2,1,5,3,nan,nan,nan,nan,nan,nan,nan,nan,nan,nan,nan,nan,0.0,nan,nan,nan,nan,nan,nan,nan,nan,nan,nan,nan,nan,nan,nan,nan,nan,nan,nan,168.0564534637233,193.08957813568122,nan,193.2958067873842,nan,nan,nan,nan
1,26,1,1,1.0,1.0,0.21407390871900134,0,5,2,4,3,8,1,nan,nan,nan,nan,nan,nan,nan,nan,nan,nan,nan,nan,0.0,nan,nan,nan,nan,nan,nan,nan,nan,nan,nan,nan,nan,nan,nan,nan,nan,nan,nan,168.0564534637233,194.0897087094054,nan,194.3037826181244,nan,nan,nan,nan
1,27,1,1,1.0,1.0,0.20594127546064556,0,3,1,0,4,7,2,nan,nan,nan,nan,nan,nan,nan,nan,nan,nan,nan,nan,0.0,nan,nan,nan,nan,nan,nan,nan,nan,nan,nan,nan,nan,nan,nan,nan,nan,nan,nan,168.0564534637233,195.08983671727765,nan,195.2957779927383,nan,nan,nan,nan
1,28,1,1,1.0,1.0,0.22978409436473157,0,0,5,6,1,2,8,nan,nan,nan,nan,nan,nan,nan,nan,nan,nan,nan,nan,0.0,nan,nan,nan,nan,nan,nan,nan,nan,nan,nan,nan,nan,nan,nan,nan,nan,nan,nan,168.0564534637233,196.08995503188635,nan,196.31973912625108,nan,nan,nan,nan
1,29,1,1,1.0,1.0,0.29362951331131626,0,1,7,5,0,8,6,nan,nan,nan,nan,nan,nan,nan,nan,nan,nan,nan,nan,0.0,nan,nan,nan,nan,nan,nan,nan,nan,nan,nan,nan,nan,nan,nan,nan,nan,nan,nan,168.0564534637233,197.0900816142821,nan,197.38371112759341,nan,nan,nan,nan
1,30,1,1,1.0,1.0,0.23747967624512967,0,4,0,2,6,7,1,nan,nan,nan,nan,nan,nan,nan,nan,nan,nan,nan,nan,0.0,nan,nan,nan,nan,nan,nan,nan,nan,nan,nan,nan,nan,nan,nan,nan,nan,nan,nan,168.0564534637233,198.09020933705324,nan,198.32768901329837,nan,nan,nan,nan
1,31,1,1,1.0,1.0,0.2133041509659961,0,5,1,8,2,0,3,nan,nan,nan,nan,nan,nan,nan,nan,nan,nan,nan,nan,0.0,nan,nan,nan,nan,nan,nan,nan,nan,nan,nan,nan,nan,nan,nan,nan,nan,nan,nan,168.0564534637233,199.090343046817,nan,199.303647197783,nan,nan,nan,nan
1,32,1,1,1.0,1.0,0.2372114014287945,0,1,7,5,8,6,4,nan,nan,nan,nan,nan,nan,nan,nan,nan,nan,nan,nan,0.0,nan,nan,nan,nan,nan,nan,nan,nan,nan,nan,nan,nan,nan,nan,nan,nan,nan,nan,168.0564534637233,200.0904376985127,nan,200.32764909994148,nan,nan,nan,nan
1,33,1,1,1.0,1.0,0.2530076858965913,0,4,1,8,5,0,2,nan,nan,nan,nan,nan,nan,nan,nan,nan,nan,nan,nan,0.0,nan,nan,nan,nan,nan,nan,nan,nan,nan,nan,nan,nan,nan,nan,nan,nan,nan,nan,168.0564534637233,201.09060048802348,nan,201.34360817392007,nan,nan,nan,nan
1,34,1,1,1.0,1.0,0.2848420157824876,0,6,2,4,8,7,0,nan,nan,nan,nan,nan,nan,nan,nan,nan,nan,nan,nan,0.0,nan,nan,nan,nan,nan,nan,nan,nan,nan,nan,nan,nan,nan,nan,nan,nan,nan,nan,168.0564534637233,202.09072878098232,nan,202.3755707967648,nan,nan,nan,nan
1,35,1,1,1.0,1.0,0.22067614951811265,0,0,7,2,5,1,4,nan,nan,nan,nan,nan,nan,nan,nan,nan,nan,nan,nan,0.0,nan,nan,nan,nan,nan,nan,nan,nan,nan,nan,nan,nan,nan,nan,nan,nan,nan,nan,168.0564534637233,203.09086876285437,nan,203.31154491237248,nan,nan,nan,nan
1,36,1,1,1.0,1.0,0.27653176804597024,0,7,2,0,6,8,3,nan,nan,nan,nan,nan,nan,nan,nan,nan,nan,nan,nan,0.0,nan,nan,nan,nan,nan,nan,nan,nan,nan,nan,nan,nan,nan,nan,nan,nan,nan,nan,168.0564534637233,204.09099220919597,nan,204.36752397724194,nan,nan,nan,nan
1,37,1,1,1.0,1.0,0.18036707180726808,0,4,5,6,1,2,8,nan,nan,nan,nan,nan,nan,nan,nan,nan,nan,nan,nan,0.0,nan,nan,nan,nan,nan,nan,nan,nan,nan,nan,nan,nan,nan,nan,nan,nan,nan,nan,168.0564534637233,205.0911273444508,nan,205.27149441625807,nan,nan,nan,nan
1,38,0,0,1.0,0.0,0.1722421361337183,0,2,8,7,6,4,0,nan,nan,nan,nan,nan,nan,nan,nan,nan,nan,nan,nan,0.0,nan,nan,nan,nan,nan,nan,nan,nan,nan,nan,nan,nan,nan,nan,nan,nan,nan,nan,168.0564534637233,206.0912430932076,nan,206.2634852293413,nan,nan,nan,nan
1,39,1,1,1.0,1.0,0.4200493956450373,1,7,2,8,0,6,3,1.0,1.0,1.0,1.0,1.0,1.0,0.0,0.0,0.0,0.0,0.0,0.0,0.0,6.0,7.0,0.0,8.0,1.0,5.0,5.0,6.0,1.0,2.0,3.0,4.0,8.00621280039195,8.989690092668752,1.8790291472978424,3.717984990857076,4.966837410334847,7.1746452058141585,168.0564534637233,207.09138022412662,207.8997929351608,207.51142961977166,217.94275539636146,218.95167204213794,208.91659902776883,217.93442604722804
1,40,1,1,nan,nan,nan,0,3,7,5,4,1,6,nan,nan,nan,nan,nan,nan,nan,nan,nan,nan,nan,nan,0.0,nan,nan,nan,nan,nan,nan,nan,nan,nan,nan,nan,nan,nan,nan,nan,nan,nan,nan,168.0564534637233,219.15126994349703,nan,nan,nan,nan,nan,nan
1,41,1,1,1.0,1.0,0.1676828894560458,0,7,5,8,0,2,3,nan,nan,nan,nan,nan,nan,nan,nan,nan,nan,nan,nan,0.0,nan,nan,nan,nan,nan,nan,nan,nan,nan,nan,nan,nan,nan,nan,nan,nan,nan,nan,168.0564534637233,220.151391679261,nan,220.31907456871704,nan,nan,nan,nan
1,42,0,0,0.0,1.0,0.6475250720104668,0,0,1,7,8,5,2,nan,nan,nan,nan,nan,nan,nan,nan,nan,nan,nan,nan,0.0,nan,nan,nan,nan,nan,nan,nan,nan,nan,nan,nan,nan,nan,nan,nan,nan,nan,nan,168.0564534637233,221.1515245337505,nan,221.79904960576096,nan,nan,nan,nan
1,43,1,1,1.0,1.0,0.41538124249200337,0,1,7,0,4,2,3,nan,nan,nan,nan,nan,nan,nan,nan,nan,nan,nan,nan,0.0,nan,nan,nan,nan,nan,nan,nan,nan,nan,nan,nan,nan,nan,nan,nan,nan,nan,nan,168.0564534637233,222.15165681803774,nan,222.56703806052974,nan,nan,nan,nan
1,44,1,1,1.0,1.0,0.31122360978042707,0,2,0,7,5,8,6,nan,nan,nan,nan,nan,nan,nan,nan,nan,nan,nan,nan,0.0,nan,nan,nan,nan,nan,nan,nan,nan,nan,nan,nan,nan,nan,nan,nan,nan,nan,nan,168.0564534637233,223.15178710667533,nan,223.46301071645576,nan,nan,nan,nan
1,45,1,1,1.0,1.0,0.3030690241721459,0,6,8,2,7,3,1,nan,nan,nan,nan,nan,nan,nan,nan,nan,nan,nan,nan,0.0,nan,nan,nan,nan,nan,nan,nan,nan,nan,nan,nan,nan,nan,nan,nan,nan,nan,nan,168.0564534637233,224.15192566307087,nan,224.45499468724302,nan,nan,nan,nan
1,46,1,1,1.0,1.0,0.30292704663588665,0,3,0,1,4,6,5,nan,nan,nan,nan,nan,nan,nan,nan,nan,nan,nan,nan,0.0,nan,nan,nan,nan,nan,nan,nan,nan,nan,nan,nan,nan,nan,nan,nan,nan,nan,nan,168.0564534637233,225.15205110507668,nan,225.45497815171257,nan,nan,nan,nan
1,47,1,1,1.0,1.0,0.3267658741824562,0,1,5,4,3,8,7,nan,nan,nan,nan,nan,nan,nan,nan,nan,nan,nan,nan,0.0,nan,nan,nan,nan,nan,nan,nan,nan,nan,nan,nan,nan,nan,nan,nan,nan,nan,nan,168.0564534637233,226.15218367446505,nan,226.4789495486475,nan,nan,nan,nan
1,48,1,1,1.0,1.0,0.286626713394071,0,3,6,8,4,0,2,nan,nan,nan,nan,nan,nan,nan,nan,nan,nan,nan,nan,0.0,nan,nan,nan,nan,nan,nan,nan,nan,nan,nan,nan,nan,nan,nan,nan,nan,nan,nan,168.0564534637233,227.1523031294637,nan,227.43892984285776,nan,nan,nan,nan
1,49,1,1,1.0,1.0,0.28646335369558074,0,5,1,3,2,8,4,nan,nan,nan,nan,nan,nan,nan,nan,nan,nan,nan,nan,0.0,nan,nan,nan,nan,nan,nan,nan,nan,nan,nan,nan,nan,nan,nan,nan,nan,nan,nan,168.0564534637233,228.1524414007581,nan,228.4389047544537,nan,nan,nan,nan
1,50,1,1,1.0,1.0,0.2622972365352325,0,1,0,4,6,7,3,nan,nan,nan,nan,nan,nan,nan,nan,nan,nan,nan,nan,0.0,nan,nan,nan,nan,nan,nan,nan,nan,nan,nan,nan,nan,nan,nan,nan,nan,nan,nan,168.0564534637233,229.15257397016103,nan,229.41487120669626,nan,nan,nan,nan
1,51,1,1,1.0,1.0,0.3181420214532409,0,4,2,6,0,1,5,nan,nan,nan,nan,nan,nan,nan,nan,nan,nan,nan,nan,0.0,nan,nan,nan,nan,nan,nan,nan,nan,nan,nan,nan,nan,nan,nan,nan,nan,nan,nan,168.0564534637233,230.15270112272992,nan,230.47084314418316,nan,nan,nan,nan
1,52,1,1,1.0,1.0,0.1659908478613943,0,1,8,2,4,7,0,nan,nan,nan,nan,nan,nan,nan,nan,nan,nan,nan,nan,0.0,nan,nan,nan,nan,nan,nan,nan,nan,nan,nan,nan,nan,nan,nan,nan,nan,nan,nan,168.0564534637233,231.152829985891,nan,231.3188208337524,nan,nan,nan,nan
1,53,1,1,1.0,1.0,0.22984025816549547,0,8,3,7,0,1,5,nan,nan,nan,nan,nan,nan,nan,nan,nan,nan,nan,nan,0.0,nan,nan,nan,nan,nan,nan,nan,nan,nan,nan,nan,nan,nan,nan,nan,nan,nan,nan,168.0564534637233,232.15295485769457,nan,232.38279511586006,nan,nan,nan,nan
1,54,0,0,0.0,1.0,0.3736905921687139,0,7,8,5,2,6,4,nan,nan,nan,nan,nan,nan,nan,nan,nan,nan,nan,nan,0.0,nan,nan,nan,nan,nan,nan,nan,nan,nan,nan,nan,nan,nan,nan,nan,nan,nan,nan,168.0564534637233,233.15307659345854,nan,233.52676718562725,nan,nan,nan,nan
1,55,1,1,1.0,1.0,0.32553996368369553,0,2,1,4,6,0,3,nan,nan,nan,nan,nan,nan,nan,nan,nan,nan,nan,nan,0.0,nan,nan,nan,nan,nan,nan,nan,nan,nan,nan,nan,nan,nan,nan,nan,nan,nan,nan,168.0564534637233,234.1532085926592,nan,234.4787485563429,nan,nan,nan,nan
1,56,1,1,1.0,1.0,0.3173591492959531,0,1,4,0,7,3,6,nan,nan,nan,nan,nan,nan,nan,nan,nan,nan,nan,nan,0.0,nan,nan,nan,nan,nan,nan,nan,nan,nan,nan,nan,nan,nan,nan,nan,nan,nan,nan,168.0564534637233,235.15333488995384,nan,235.4706940392498,nan,nan,nan,nan
1,57,1,1,1.0,1.0,0.30121561855776235,0,5,1,3,0,8,7,nan,nan,nan,nan,nan,nan,nan,nan,nan,nan,nan,nan,0.0,nan,nan,nan,nan,nan,nan,nan,nan,nan,nan,nan,nan,nan,nan,nan,nan,nan,nan,168.0564534637233,236.15346631896682,nan,236.45468193752458,nan,nan,nan,nan
1,58,1,1,1.0,1.0,0.2530869424226694,0,3,0,6,8,5,2,nan,nan,nan,nan,nan,nan,nan,nan,nan,nan,nan,nan,0.0,nan,nan,nan,nan,nan,nan,nan,nan,nan,nan,nan,nan,nan,nan,nan,nan,nan,nan,168.0564534637233,237.15359603740217,nan,237.40668297982484,nan,nan,nan,nan
1,59,1,1,1.0,1.0,0.1889313396095531,0,0,3,7,4,1,6,nan,nan,nan,nan,nan,nan,nan,nan,nan,nan,nan,nan,0.0,nan,nan,nan,nan,nan,nan,nan,nan,nan,nan,nan,nan,nan,nan,nan,nan,nan,nan,168.0564534637233,238.1537263260252,nan,238.34265766563476,nan,nan,nan,nan
1,60,1,1,1.0,1.0,0.15674548700917512,1,2,7,3,5,6,1,1.0,1.0,1.0,1.0,1.0,1.0,0.0,1.0,0.0,1.0,0.0,0.0,2.0,3.0,7.0,1.0,5.0,0.0,8.0,5.0,6.0,1.0,2.0,3.0,4.0,6.574709409323987,7.574767568803509,1.6566635220660828,3.6721576053387253,4.942571509789559,5.720122636674205,168.0564534637233,239.15385319350753,239.96227103627461,239.3105986805167,248.59671963455912,249.60491441861086,240.9790682909079,248.5883902854257
1,61,1,1,1.0,1.0,0.7847323965688702,0,4,3,5,2,1,6,nan,nan,nan,nan,nan,nan,nan,nan,nan,nan,nan,nan,0.0,nan,nan,nan,nan,nan,nan,nan,nan,nan,nan,nan,nan,nan,nan,nan,nan,nan,nan,168.0564534637233,249.81357265387487,nan,250.59830505044374,nan,nan,nan,nan
1,62,1,1,1.0,1.0,0.4486282204015879,0,7,1,8,6,2,0,nan,nan,nan,nan,nan,nan,nan,nan,nan,nan,nan,nan,0.0,nan,nan,nan,nan,nan,nan,nan,nan,nan,nan,nan,nan,nan,nan,nan,nan,nan,nan,168.0564534637233,250.81365476136853,nan,251.2622829817701,nan,nan,nan,nan
1,63,1,1,1.0,1.0,0.35245639678032603,0,1,2,7,5,6,8,nan,nan,nan,nan,nan,nan,nan,nan,nan,nan,nan,nan,0.0,nan,nan,nan,nan,nan,nan,nan,nan,nan,nan,nan,nan,nan,nan,nan,nan,nan,nan,168.0564534637233,251.81382182730886,nan,252.16627822408918,nan,nan,nan,nan
1,64,0,0,0.0,1.0,0.5442643496353412,0,3,1,2,6,4,5,nan,nan,nan,nan,nan,nan,nan,nan,nan,nan,nan,nan,0.0,nan,nan,nan,nan,nan,nan,nan,nan,nan,nan,nan,nan,nan,nan,nan,nan,nan,nan,168.0564534637233,252.8139917442022,nan,253.35825609383755,nan,nan,nan,nan
1,65,1,1,1.0,1.0,0.4161273373174481,0,5,3,7,8,6,0,nan,nan,nan,nan,nan,nan,nan,nan,nan,nan,nan,nan,0.0,nan,nan,nan,nan,nan,nan,nan,nan,nan,nan,nan,nan,nan,nan,nan,nan,nan,nan,168.0564534637233,253.81407841322653,nan,254.23020575054397,nan,nan,nan,nan
1,66,1,1,1.0,1.0,0.46402166498592123,0,0,6,1,4,8,7,nan,nan,nan,nan,nan,nan,nan,nan,nan,nan,nan,nan,0.0,nan,nan,nan,nan,nan,nan,nan,nan,nan,nan,nan,nan,nan,nan,nan,nan,nan,nan,168.0564534637233,254.81417563077412,nan,255.27819729576004,nan,nan,nan,nan
1,67,1,1,1.0,1.0,0.32783897352055646,0,7,4,5,0,1,6,nan,nan,nan,nan,nan,nan,nan,nan,nan,nan,nan,nan,0.0,nan,nan,nan,nan,nan,nan,nan,nan,nan,nan,nan,nan,nan,nan,nan,nan,nan,nan,168.0564534637233,255.8143466880574,nan,256.14218566157797,nan,nan,nan,nan
1,68,1,1,1.0,1.0,0.4316906987805851,0,1,5,8,6,3,0,nan,nan,nan,nan,nan,nan,nan,nan,nan,nan,nan,nan,0.0,nan,nan,nan,nan,nan,nan,nan,nan,nan,nan,nan,nan,nan,nan,nan,nan,nan,nan,168.0564534637233,256.81446443249297,nan,257.24615513127355,nan,nan,nan,nan
1,69,1,1,1.0,1.0,0.5115131527418271,0,0,2,6,4,5,7,nan,nan,nan,nan,nan,nan,nan,nan,nan,nan,nan,nan,0.0,nan,nan,nan,nan,nan,nan,nan,nan,nan,nan,nan,nan,nan,nan,nan,nan,nan,nan,168.0564534637233,257.81459757206903,nan,258.32611072481086,nan,nan,nan,nan
1,70,1,1,1.0,1.0,0.4873672773683211,0,8,5,2,1,0,4,nan,nan,nan,nan,nan,nan,nan,nan,nan,nan,nan,nan,0.0,nan,nan,nan,nan,nan,nan,nan,nan,nan,nan,nan,nan,nan,nan,nan,nan,nan,nan,168.0564534637233,258.814726150129,nan,259.3020934274973,nan,nan,nan,nan
1,71,1,1,1.0,1.0,0.519225270167226,0,4,3,0,5,6,1,nan,nan,nan,nan,nan,nan,nan,nan,nan,nan,nan,nan,0.0,nan,nan,nan,nan,nan,nan,nan,nan,nan,nan,nan,nan,nan,nan,nan,nan,nan,nan,168.0564534637233,259.8148501666583,nan,260.3340754368255,nan,nan,nan,nan
1,72,1,1,1.0,1.0,0.7430292020435445,0,0,5,2,8,1,7,nan,nan,nan,nan,nan,nan,nan,nan,nan,nan,nan,nan,0.0,nan,nan,nan,nan,nan,nan,nan,nan,nan,nan,nan,nan,nan,nan,nan,nan,nan,nan,168.0564534637233,260.8150363339955,nan,261.55806553603907,nan,nan,nan,nan
1,73,1,1,1.0,1.0,0.5269046016474022,0,2,7,4,0,3,6,nan,nan,nan,nan,nan,nan,nan,nan,nan,nan,nan,nan,0.0,nan,nan,nan,nan,nan,nan,nan,nan,nan,nan,nan,nan,nan,nan,nan,nan,nan,nan,168.0564534637233,261.81511131409206,nan,262.34201591573947,nan,nan,nan,nan
1,74,1,1,1.0,1.0,0.31075548303488176,0,5,0,6,1,2,4,nan,nan,nan,nan,nan,nan,nan,nan,nan,nan,nan,nan,0.0,nan,nan,nan,nan,nan,nan,nan,nan,nan,nan,nan,nan,nan,nan,nan,nan,nan,nan,168.0564534637233,262.81524131762853,nan,263.1259968006634,nan,nan,nan,nan
1,75,1,1,1.0,1.0,0.3105938338849228,0,4,7,8,5,0,1,nan,nan,nan,nan,nan,nan,nan,nan,nan,nan,nan,nan,0.0,nan,nan,nan,nan,nan,nan,nan,nan,nan,nan,nan,nan,nan,nan,nan,nan,nan,nan,168.0564534637233,263.81537303174264,nan,264.12596686562756,nan,nan,nan,nan
1,76,0,0,0.0,1.0,0.5664476278179791,0,7,6,4,8,2,0,nan,nan,nan,nan,nan,nan,nan,nan,nan,nan,nan,nan,0.0,nan,nan,nan,nan,nan,nan,nan,nan,nan,nan,nan,nan,nan,nan,nan,nan,nan,nan,168.0564534637233,264.8154993290227,nan,265.3819469568407,nan,nan,nan,nan
1,77,1,1,1.0,1.0,0.3662994922051439,0,6,8,3,2,0,5,nan,nan,nan,nan,nan,nan,nan,nan,nan,nan,nan,nan,0.0,nan,nan,nan,nan,nan,nan,nan,nan,nan,nan,nan,nan,nan,nan,nan,nan,nan,nan,168.0564534637233,265.8156113715522,nan,266.18191086375737,nan,nan,nan,nan
1,78,1,1,1.0,1.0,0.24614486783684697,0,5,2,6,0,3,8,nan,nan,nan,nan,nan,nan,nan,nan,nan,nan,nan,nan,0.0,nan,nan,nan,nan,nan,nan,nan,nan,nan,nan,nan,nan,nan,nan,nan,nan,nan,nan,168.0564534637233,266.81575905099453,nan,267.0619039188314,nan,nan,nan,nan
1,79,1,1,1.0,1.0,0.06203819879738148,0,4,3,5,1,8,2,nan,nan,nan,nan,nan,nan,nan,nan,nan,nan,nan,nan,0.0,nan,nan,nan,nan,nan,nan,nan,nan,nan,nan,nan,nan,nan,nan,nan,nan,nan,nan,168.0564534637233,267.8158494262607,nan,267.87788762505807,nan,nan,nan,nan
1,80,1,1,1.0,1.0,0.2778221101179952,0,1,5,4,3,0,7,nan,nan,nan,nan,nan,nan,nan,nan,nan,nan,nan,nan,0.0,nan,nan,nan,nan,nan,nan,nan,nan,nan,nan,nan,nan,nan,nan,nan,nan,nan,nan,168.0564534637233,268.8160122157715,nan,269.0938343258895,nan,nan,nan,nan
1,81,0,0,0.0,1.0,0.5817067924363073,0,7,3,1,5,4,6,nan,nan,nan,nan,nan,nan,nan,nan,nan,nan,nan,nan,0.0,nan,nan,nan,nan,nan,nan,nan,nan,nan,nan,nan,nan,nan,nan,nan,nan,nan,nan,168.0564534637233,269.8161102886079,nan,270.3978170810442,nan,nan,nan,nan
1,82,1,1,1.0,1.0,0.2935180409840541,0,6,5,4,7,8,1,nan,nan,nan,nan,nan,nan,nan,nan,nan,nan,nan,nan,0.0,nan,nan,nan,nan,nan,nan,nan,nan,nan,nan,nan,nan,nan,nan,nan,nan,nan,nan,168.0564534637233,270.8162742185086,nan,271.1097922594927,nan,nan,nan,nan
1,83,0,0,1.0,0.0,0.26135014940518886,0,2,6,1,0,5,8,nan,nan,nan,nan,nan,nan,nan,nan,nan,nan,nan,nan,0.0,nan,nan,nan,nan,nan,nan,nan,nan,nan,nan,nan,nan,nan,nan,nan,nan,nan,nan,168.0564534637233,271.81641049413884,nan,272.077760643544,nan,nan,nan,nan
1,84,1,1,1.0,1.0,0.47719792211137246,0,0,3,5,1,8,6,nan,nan,nan,nan,nan,nan,nan,nan,nan,nan,nan,nan,0.0,nan,nan,nan,nan,nan,nan,nan,nan,nan,nan,nan,nan,nan,nan,nan,nan,nan,nan,168.0564534637233,272.8165308044263,nan,273.29372872653767,nan,nan,nan,nan
1,85,1,1,1.0,1.0,0.39705017422966193,0,6,5,2,4,0,3,nan,nan,nan,nan,nan,nan,nan,nan,nan,nan,nan,nan,0.0,nan,nan,nan,nan,nan,nan,nan,nan,nan,nan,nan,nan,nan,nan,nan,nan,nan,nan,168.0564534637233,273.8166642291035,nan,274.21371440333314,nan,nan,nan,nan
1,86,1,1,1.0,1.0,0.32487569125078153,0,1,8,7,0,3,2,nan,nan,nan,nan,nan,nan,nan,nan,nan,nan,nan,nan,0.0,nan,nan,nan,nan,nan,nan,nan,nan,nan,nan,nan,nan,nan,nan,nan,nan,nan,nan,168.0564534637233,274.81679765378067,nan,275.14167334503145,nan,nan,nan,nan
1,87,0,0,0.0,1.0,0.45273388021450955,0,0,2,3,6,8,4,nan,nan,nan,nan,nan,nan,nan,nan,nan,nan,nan,nan,0.0,nan,nan,nan,nan,nan,nan,nan,nan,nan,nan,nan,nan,nan,nan,nan,nan,nan,nan,168.0564534637233,275.8169182491547,nan,276.2696521293692,nan,nan,nan,nan
1,88,1,1,1.0,1.0,0.3806135653576348,0,7,8,1,4,6,2,nan,nan,nan,nan,nan,nan,nan,nan,nan,nan,nan,nan,0.0,nan,nan,nan,nan,nan,nan,nan,nan,nan,nan,nan,nan,nan,nan,nan,nan,nan,nan,168.0564534637233,276.8170131859515,nan,277.19762675130914,nan,nan,nan,nan
1,89,0,0,0.0,1.0,0.4684329471201636,0,8,7,5,1,0,4,nan,nan,nan,nan,nan,nan,nan,nan,nan,nan,nan,nan,0.0,nan,nan,nan,nan,nan,nan,nan,nan,nan,nan,nan,nan,nan,nan,nan,nan,nan,nan,168.0564534637233,277.81717654565,nan,278.28560949277016,nan,nan,nan,nan
1,90,1,1,1.0,1.0,0.3003016025031684,0,5,3,7,6,2,1,nan,nan,nan,nan,nan,nan,nan,nan,nan,nan,nan,nan,0.0,nan,nan,nan,nan,nan,nan,nan,nan,nan,nan,nan,nan,nan,nan,nan,nan,nan,nan,168.0564534637233,278.8172811756813,nan,279.11758277818444,nan,nan,nan,nan
1,91,1,1,1.0,1.0,0.5321130106894998,0,3,2,4,8,1,0,nan,nan,nan,nan,nan,nan,nan,nan,nan,nan,nan,nan,0.0,nan,nan,nan,nan,nan,nan,nan,nan,nan,nan,nan,nan,nan,nan,nan,nan,nan,nan,168.0564534637233,279.81743655272294,nan,280.34954956341244,nan,nan,nan,nan
1,92,1,1,1.0,1.0,0.5079594377602916,0,1,5,3,7,0,2,nan,nan,nan,nan,nan,nan,nan,nan,nan,nan,nan,nan,0.0,nan,nan,nan,nan,nan,nan,nan,nan,nan,nan,nan,nan,nan,nan,nan,nan,nan,nan,168.0564534637233,280.81756399039296,nan,281.32552342815325,nan,nan,nan,nan
1,93,1,1,1.0,1.0,0.37180040922248736,0,3,0,6,1,4,5,nan,nan,nan,nan,nan,nan,nan,nan,nan,nan,nan,nan,0.0,nan,nan,nan,nan,nan,nan,nan,nan,nan,nan,nan,nan,nan,nan,nan,nan,nan,nan,168.0564534637233,281.8176937088283,nan,282.1894941180508,nan,nan,nan,nan
1,94,1,1,1.0,1.0,0.299642746875179,0,2,5,1,4,0,3,nan,nan,nan,nan,nan,nan,nan,nan,nan,nan,nan,nan,0.0,nan,nan,nan,nan,nan,nan,nan,nan,nan,nan,nan,nan,nan,nan,nan,nan,nan,nan,168.0564534637233,282.81782285707595,nan,283.11746560395113,nan,nan,nan,nan
1,95,1,1,1.0,1.0,0.34749830154760275,0,3,6,7,5,4,1,nan,nan,nan,nan,nan,nan,nan,nan,nan,nan,nan,nan,0.0,nan,nan,nan,nan,nan,nan,nan,nan,nan,nan,nan,nan,nan,nan,nan,nan,nan,nan,168.0564534637233,283.817953145699,nan,284.1654514472466,nan,nan,nan,nan
1,96,1,1,1.0,1.0,0.24333639240649063,0,6,8,2,4,7,0,nan,nan,nan,nan,nan,nan,nan,nan,nan,nan,nan,nan,0.0,nan,nan,nan,nan,nan,nan,nan,nan,nan,nan,nan,nan,nan,nan,nan,nan,nan,nan,168.0564534637233,284.81808314923546,nan,285.06141954164195,nan,nan,nan,nan
1,97,1,1,1.0,1.0,0.251178798469482,0,4,6,1,8,5,2,nan,nan,nan,nan,nan,nan,nan,nan,nan,nan,nan,nan,0.0,nan,nan,nan,nan,nan,nan,nan,nan,nan,nan,nan,nan,nan,nan,nan,nan,nan,nan,168.0564534637233,285.8182114421943,nan,286.0693902406638,nan,nan,nan,nan
1,98,1,1,1.0,1.0,0.3310237749683438,0,7,8,3,5,4,0,nan,nan,nan,nan,nan,nan,nan,nan,nan,nan,nan,nan,0.0,nan,nan,nan,nan,nan,nan,nan,nan,nan,nan,nan,nan,nan,nan,nan,nan,nan,nan,168.0564534637233,286.8183383096766,nan,287.14936208464496,nan,nan,nan,nan
1,99,1,1,1.0,1.0,0.2988744145841338,0,3,5,7,6,2,8,nan,nan,nan,nan,nan,nan,nan,nan,nan,nan,nan,nan,0.0,nan,nan,nan,nan,nan,nan,nan,nan,nan,nan,nan,nan,nan,nan,nan,nan,nan,nan,168.0564534637233,287.8184683132131,nan,288.1173427277972,nan,nan,nan,nan
1,100,1,1,1.0,1.0,0.22672330943169072,0,6,1,0,7,3,4,nan,nan,nan,nan,nan,nan,nan,nan,nan,nan,nan,nan,0.0,nan,nan,nan,nan,nan,nan,nan,nan,nan,nan,nan,nan,nan,nan,nan,nan,nan,nan,168.0564534637233,288.8185991720238,nan,289.0453224814555,nan,nan,nan,nan
1,101,1,1,1.0,1.0,0.20256403458188288,0,7,2,5,8,6,0,nan,nan,nan,nan,nan,nan,nan,nan,nan,nan,nan,nan,0.0,nan,nan,nan,nan,nan,nan,nan,nan,nan,nan,nan,nan,nan,nan,nan,nan,nan,nan,168.0564534637233,289.8187251842173,nan,290.0212892187992,nan,nan,nan,nan
1,102,1,1,1.0,1.0,0.2504164532001596,0,4,0,6,3,2,1,nan,nan,nan,nan,nan,nan,nan,nan,nan,nan,nan,nan,0.0,nan,nan,nan,nan,nan,nan,nan,nan,nan,nan,nan,nan,nan,nan,nan,nan,nan,nan,168.0564534637233,290.81886174494866,nan,291.0692781981488,nan,nan,nan,nan
1,103,1,1,1.0,1.0,0.25023114115174394,0,3,6,4,2,8,5,nan,nan,nan,nan,nan,nan,nan,nan,nan,nan,nan,nan,0.0,nan,nan,nan,nan,nan,nan,nan,nan,nan,nan,nan,nan,nan,nan,nan,nan,nan,nan,168.0564534637233,291.8190302363655,nan,292.06926137751725,nan,nan,nan,nan
1,104,1,1,1.0,1.0,0.2421076309547061,0,6,0,1,8,2,7,nan,nan,nan,nan,nan,nan,nan,nan,nan,nan,nan,nan,0.0,nan,nan,nan,nan,nan,nan,nan,nan,nan,nan,nan,nan,nan,nan,nan,nan,nan,nan,168.0564534637233,292.8191140544368,nan,293.0612216853915,nan,nan,nan,nan
1,105,1,1,1.0,1.0,0.24189751558878925,0,7,6,5,2,3,0,nan,nan,nan,nan,nan,nan,nan,nan,nan,nan,nan,nan,0.0,nan,nan,nan,nan,nan,nan,nan,nan,nan,nan,nan,nan,nan,nan,nan,nan,nan,nan,168.0564534637233,293.8192899583373,nan,294.0611874739261,nan,nan,nan,nan
1,106,1,1,1.0,1.0,0.20980146808142308,0,0,3,7,4,1,8,nan,nan,nan,nan,nan,nan,nan,nan,nan,nan,nan,nan,0.0,nan,nan,nan,nan,nan,nan,nan,nan,nan,nan,nan,nan,nan,nan,nan,nan,nan,nan,168.0564534637233,294.81937035525334,nan,295.02917182333476,nan,nan,nan,nan
1,107,1,1,1.0,1.0,0.3616236414818559,0,2,6,4,1,8,5,nan,nan,nan,nan,nan,nan,nan,nan,nan,nan,nan,nan,0.0,nan,nan,nan,nan,nan,nan,nan,nan,nan,nan,nan,nan,nan,nan,nan,nan,nan,nan,168.0564534637233,295.8194989333133,nan,296.18112257479515,nan,nan,nan,nan
1,108,1,1,1.0,1.0,0.25748995679896325,0,0,2,3,7,6,1,nan,nan,nan,nan,nan,nan,nan,nan,nan,nan,nan,nan,0.0,nan,nan,nan,nan,nan,nan,nan,nan,nan,nan,nan,nan,nan,nan,nan,nan,nan,nan,168.0564534637233,296.8196303623263,nan,297.07712031912524,nan,nan,nan,nan
1,109,1,1,1.0,1.0,0.37732698481704574,0,4,6,8,0,3,5,nan,nan,nan,nan,nan,nan,nan,nan,nan,nan,nan,nan,0.0,nan,nan,nan,nan,nan,nan,nan,nan,nan,nan,nan,nan,nan,nan,nan,nan,nan,nan,168.0564534637233,297.8197580850974,nan,298.19708506991446,nan,nan,nan,nan
1,110,1,1,1.0,1.0,0.2971627014048863,0,3,5,2,8,7,4,nan,nan,nan,nan,nan,nan,nan,nan,nan,nan,nan,nan,0.0,nan,nan,nan,nan,nan,nan,nan,nan,nan,nan,nan,nan,nan,nan,nan,nan,nan,nan,168.0564534637233,298.81990405397664,nan,299.11706675538153,nan,nan,nan,nan
1,111,1,1,1.0,1.0,0.32100979673850816,0,0,2,7,5,3,8,nan,nan,nan,nan,nan,nan,nan,nan,nan,nan,nan,nan,0.0,nan,nan,nan,nan,nan,nan,nan,nan,nan,nan,nan,nan,nan,nan,nan,nan,nan,nan,168.0564534637233,299.82002322387416,nan,300.14103302061267,nan,nan,nan,nan
1,112,1,1,1.0,1.0,0.2088660698500462,0,4,3,5,7,1,2,nan,nan,nan,nan,nan,nan,nan,nan,nan,nan,nan,nan,0.0,nan,nan,nan,nan,nan,nan,nan,nan,nan,nan,nan,nan,nan,nan,nan,nan,nan,nan,168.0564534637233,300.8201520870207,nan,301.02901815687073,nan,nan,nan,nan
1,113,1,1,1.0,1.0,0.12869266337656882,0,2,4,0,5,8,1,nan,nan,nan,nan,nan,nan,nan,nan,nan,nan,nan,nan,0.0,nan,nan,nan,nan,nan,nan,nan,nan,nan,nan,nan,nan,nan,nan,nan,nan,nan,nan,168.0564534637233,301.82029092851735,nan,301.9489835918939,nan,nan,nan,nan
1,114,1,1,1.0,1.0,0.20856016241305042,0,0,2,7,8,3,6,nan,nan,nan,nan,nan,nan,nan,nan,nan,nan,nan,nan,0.0,nan,nan,nan,nan,nan,nan,nan,nan,nan,nan,nan,nan,nan,nan,nan,nan,nan,nan,168.0564534637233,302.8204063921876,nan,303.02896655460063,nan,nan,nan,nan
1,115,1,1,1.0,1.0,0.2083950921369251,0,2,6,3,0,1,5,nan,nan,nan,nan,nan,nan,nan,nan,nan,nan,nan,nan,0.0,nan,nan,nan,nan,nan,nan,nan,nan,nan,nan,nan,nan,nan,nan,nan,nan,nan,nan,168.0564534637233,303.8205324043811,nan,304.028927496518,nan,nan,nan,nan
1,116,0,0,1.0,0.0,0.2962458343972685,0,5,2,4,7,0,6,nan,nan,nan,nan,nan,nan,nan,nan,nan,nan,nan,nan,0.0,nan,nan,nan,nan,nan,nan,nan,nan,nan,nan,nan,nan,nan,nan,nan,nan,nan,nan,168.0564534637233,304.8206601271522,nan,305.1169059615495,nan,nan,nan,nan
1,117,1,1,1.0,1.0,0.2800849128398113,0,2,5,3,6,4,0,nan,nan,nan,nan,nan,nan,nan,nan,nan,nan,nan,nan,0.0,nan,nan,nan,nan,nan,nan,nan,nan,nan,nan,nan,nan,nan,nan,nan,nan,nan,nan,168.0564534637233,305.8207867095334,nan,306.10087162237323,nan,nan,nan,nan
1,118,1,1,1.0,1.0,0.22392424214922357,0,0,1,2,8,3,4,nan,nan,nan,nan,nan,nan,nan,nan,nan,nan,nan,nan,0.0,nan,nan,nan,nan,nan,nan,nan,nan,nan,nan,nan,nan,nan,nan,nan,nan,nan,nan,168.0564534637233,306.82092270007706,nan,307.0448469422263,nan,nan,nan,nan
1,119,1,1,1.0,1.0,0.20777672006806824,0,4,7,5,2,6,8,nan,nan,nan,nan,nan,nan,nan,nan,nan,nan,nan,nan,0.0,nan,nan,nan,nan,nan,nan,nan,nan,nan,nan,nan,nan,nan,nan,nan,nan,nan,nan,168.0564534637233,307.82104728679406,nan,308.0288240068621,nan,nan,nan,nan
1,120,1,1,1.0,1.0,0.279618211556226,0,8,3,4,5,2,6,nan,nan,nan,nan,nan,nan,nan,nan,nan,nan,nan,nan,0.0,nan,nan,nan,nan,nan,nan,nan,nan,nan,nan,nan,nan,nan,nan,nan,nan,nan,nan,168.0564534637233,308.8211755797529,nan,309.1007937913091,nan,nan,nan,nan
1,121,1,1,1.0,1.0,0.25546292804938275,0,5,4,0,8,7,1,nan,nan,nan,nan,nan,nan,nan,nan,nan,nan,nan,nan,0.0,nan,nan,nan,nan,nan,nan,nan,nan,nan,nan,nan,nan,nan,nan,nan,nan,nan,nan,168.0564534637233,309.8213064385636,nan,310.076769366613,nan,nan,nan,nan
1,122,1,1,1.0,1.0,0.20274991683254484,1,6,8,7,2,4,0,1.0,1.0,1.0,1.0,1.0,1.0,0.0,0.0,0.0,0.0,1.0,0.0,1.0,1.0,0.0,6.0,3.0,4.0,2.0,2.0,1.0,6.0,5.0,4.0,3.0,3.3217276671202853,1.9488461758883204,7.73765828856267,7.098074550754973,5.51336057134904,4.427188186105923,168.0564534637233,310.82601279451046,311.62986397810164,311.028762711343,320.4143346570345,321.42549386374594,312.63832047980395,320.40598021951155
1,123,1,1,nan,nan,nan,1,2,6,4,8,1,3,1.0,1.0,1.0,1.0,1.0,1.0,0.0,0.0,1.0,0.0,0.0,0.0,1.0,8.0,5.0,4.0,3.0,3.0,6.0,1.0,2.0,3.0,4.0,5.0,6.0,2.6404806481441483,4.48105954019411,5.457498965814011,6.695766360848211,7.400061637643375,8.23179914909997,168.0564534637233,321.63116116246965,322.4395861326193,nan,331.71577436062216,332.7196134561673,323.44804833622766,331.70743303748895
1,124,1,1,nan,nan,nan,0,1,2,0,7,6,5,nan,nan,nan,nan,nan,nan,nan,nan,nan,nan,nan,nan,0.0,nan,nan,nan,nan,nan,nan,nan,nan,nan,nan,nan,nan,nan,nan,nan,nan,nan,nan,168.0564534637233,332.9242934692884,nan,nan,nan,nan,nan,nan
1,125,1,1,1.0,1.0,0.4556983028596733,0,7,3,2,1,5,8,nan,nan,nan,nan,nan,nan,nan,nan,nan,nan,nan,nan,0.0,nan,nan,nan,nan,nan,nan,nan,nan,nan,nan,nan,nan,nan,nan,nan,nan,nan,nan,168.0564534637233,333.9244114988105,nan,334.3801098016702,nan,nan,nan,nan
1,126,1,1,1.0,1.0,0.255566702777287,0,6,0,4,3,2,5,nan,nan,nan,nan,nan,nan,nan,nan,nan,nan,nan,nan,0.0,nan,nan,nan,nan,nan,nan,nan,nan,nan,nan,nan,nan,nan,nan,nan,nan,nan,nan,168.0564534637233,334.9245409321593,nan,335.1801076349366,nan,nan,nan,nan
1,127,1,1,1.0,1.0,0.24741696381533984,0,8,3,6,0,4,1,nan,nan,nan,nan,nan,nan,nan,nan,nan,nan,nan,nan,0.0,nan,nan,nan,nan,nan,nan,nan,nan,nan,nan,nan,nan,nan,nan,nan,nan,nan,nan,168.0564534637233,335.9246709356812,nan,336.17208789949655,nan,nan,nan,nan
1,128,1,1,1.0,1.0,0.22324571493663825,0,1,8,4,7,3,5,nan,nan,nan,nan,nan,nan,nan,nan,nan,nan,nan,nan,0.0,nan,nan,nan,nan,nan,nan,nan,nan,nan,nan,nan,nan,nan,nan,nan,nan,nan,nan,168.0564534637233,336.92479808826465,nan,337.1480438032013,nan,nan,nan,nan
1,129,1,1,1.0,1.0,0.27911900939943735,0,3,7,5,1,4,6,nan,nan,nan,nan,nan,nan,nan,nan,nan,nan,nan,nan,0.0,nan,nan,nan,nan,nan,nan,nan,nan,nan,nan,nan,nan,nan,nan,nan,nan,nan,nan,168.0564534637233,337.9249286619888,nan,338.20404767138825,nan,nan,nan,nan
1,130,1,1,1.0,1.0,0.25493407595786266,0,1,5,3,0,2,8,nan,nan,nan,nan,nan,nan,nan,nan,nan,nan,nan,nan,0.0,nan,nan,nan,nan,nan,nan,nan,nan,nan,nan,nan,nan,nan,nan,nan,nan,nan,nan,168.0564534637233,338.9250612313772,nan,339.17999530733505,nan,nan,nan,nan
1,131,1,1,1.0,1.0,0.2947932730021421,0,6,4,2,3,7,0,nan,nan,nan,nan,nan,nan,nan,nan,nan,nan,nan,nan,0.0,nan,nan,nan,nan,nan,nan,nan,nan,nan,nan,nan,nan,nan,nan,nan,nan,nan,nan,168.0564534637233,339.9251872435707,nan,340.21998051657283,nan,nan,nan,nan
1,132,1,1,1.0,1.0,0.12665765195561107,0,7,6,4,8,0,5,nan,nan,nan,nan,nan,nan,nan,nan,nan,nan,nan,nan,0.0,nan,nan,nan,nan,nan,nan,nan,nan,nan,nan,nan,nan,nan,nan,nan,nan,nan,nan,168.0564534637233,340.92531639181834,nan,341.05197404377395,nan,nan,nan,nan
1,133,0,0,1.0,0.0,0.17448811822396237,0,3,5,6,2,1,4,nan,nan,nan,nan,nan,nan,nan,nan,nan,nan,nan,nan,0.0,nan,nan,nan,nan,nan,nan,nan,nan,nan,nan,nan,nan,nan,nan,nan,nan,nan,nan,168.0564534637233,341.9254478208313,nan,342.0999359390553,nan,nan,nan,nan
1,134,1,1,1.0,1.0,0.23033290311286692,0,6,1,2,3,0,8,nan,nan,nan,nan,nan,nan,nan,nan,nan,nan,nan,nan,0.0,nan,nan,nan,nan,nan,nan,nan,nan,nan,nan,nan,nan,nan,nan,nan,nan,nan,nan,168.0564534637233,342.9255689864076,nan,343.15590188952046,nan,nan,nan,nan
1,135,1,1,1.0,1.0,0.006188282175571658,0,0,2,7,4,5,1,nan,nan,nan,nan,nan,nan,nan,nan,nan,nan,nan,nan,0.0,nan,nan,nan,nan,nan,nan,nan,nan,nan,nan,nan,nan,nan,nan,nan,nan,nan,nan,168.0564534637233,343.92570013031946,nan,343.931888412495,nan,nan,nan,nan
1,136,1,1,1.0,1.0,0.022027616054401733,0,3,8,0,7,2,6,nan,nan,nan,nan,nan,nan,nan,nan,nan,nan,nan,nan,0.0,nan,nan,nan,nan,nan,nan,nan,nan,nan,nan,nan,nan,nan,nan,nan,nan,nan,nan,168.0564534637233,344.9258326997078,nan,344.9478603157622,nan,nan,nan,nan
1,137,1,1,1.0,1.0,0.25386981457995716,0,8,4,7,0,1,3,nan,nan,nan,nan,nan,nan,nan,nan,nan,nan,nan,nan,0.0,nan,nan,nan,nan,nan,nan,nan,nan,nan,nan,nan,nan,nan,nan,nan,nan,nan,nan,168.0564534637233,345.9259618479555,nan,346.17983166253543,nan,nan,nan,nan
1,138,1,1,1.0,1.0,0.22971795219928026,0,4,5,2,6,3,7,nan,nan,nan,nan,nan,nan,nan,nan,nan,nan,nan,nan,0.0,nan,nan,nan,nan,nan,nan,nan,nan,nan,nan,nan,nan,nan,nan,nan,nan,nan,nan,168.0564534637233,346.9260895707266,nan,347.1558075229259,nan,nan,nan,nan
1,139,1,1,1.0,1.0,0.25851458990655374,0,5,7,6,4,8,3,nan,nan,nan,nan,nan,nan,nan,nan,nan,nan,nan,nan,0.0,nan,nan,nan,nan,nan,nan,nan,nan,nan,nan,nan,nan,nan,nan,nan,nan,nan,nan,168.0564534637233,347.92926353853545,nan,348.187778128442,nan,nan,nan,nan
1,140,1,1,1.0,1.0,0.24505266711639706,1,3,2,7,6,4,5,1.0,1.0,1.0,1.0,1.0,1.0,0.0,0.0,0.0,0.0,0.0,1.0,1.0,1.0,6.0,4.0,0.0,3.0,5.0,1.0,6.0,5.0,4.0,3.0,2.0,2.1436741450161207,9.382699608875555,7.823357130255317,5.82283797141281,4.783382754641934,3.6554239269753452,168.0564534637233,348.9346903307305,349.7431030417647,349.1797429978469,360.1944353926665,361.2044393925462,350.76823420706205,360.1860994863382
1,141,1,1,1.0,1.0,0.4561553108796943,0,2,5,0,4,3,1,nan,nan,nan,nan,nan,nan,nan,nan,nan,nan,nan,nan,0.0,nan,nan,nan,nan,nan,nan,nan,nan,nan,nan,nan,nan,nan,nan,nan,nan,nan,nan,168.0564534637233,361.41129525427823,nan,361.8674505651579,nan,nan,nan,nan
1,142,1,1,1.0,1.0,0.27996631312998943,0,6,2,1,8,0,4,nan,nan,nan,nan,nan,nan,nan,nan,nan,nan,nan,nan,0.0,nan,nan,nan,nan,nan,nan,nan,nan,nan,nan,nan,nan,nan,nan,nan,nan,nan,nan,168.0564534637233,362.41142668327666,nan,362.69139299640665,nan,nan,nan,nan
1,143,1,1,1.0,1.0,0.19982483734202106,0,0,1,8,5,6,3,nan,nan,nan,nan,nan,nan,nan,nan,nan,nan,nan,nan,0.0,nan,nan,nan,nan,nan,nan,nan,nan,nan,nan,nan,nan,nan,nan,nan,nan,nan,nan,168.0564534637233,363.4115558315243,nan,363.61138066886633,nan,nan,nan,nan
1,144,1,1,1.0,1.0,0.24767497519496828,0,3,0,4,6,5,2,nan,nan,nan,nan,nan,nan,nan,nan,nan,nan,nan,nan,0.0,nan,nan,nan,nan,nan,nan,nan,nan,nan,nan,nan,nan,nan,nan,nan,nan,nan,nan,168.0564534637233,364.41168155863124,nan,364.6593565338262,nan,nan,nan,nan
1,145,1,1,1.0,1.0,0.26352485761162825,0,5,8,3,1,4,6,nan,nan,nan,nan,nan,nan,nan,nan,nan,nan,nan,nan,0.0,nan,nan,nan,nan,nan,nan,nan,nan,nan,nan,nan,nan,nan,nan,nan,nan,nan,nan,168.0564534637233,365.4118015838176,nan,365.6753264414292,nan,nan,nan,nan
1,146,1,1,1.0,1.0,0.20737017394276336,0,7,3,4,8,1,0,nan,nan,nan,nan,nan,nan,nan,nan,nan,nan,nan,nan,0.0,nan,nan,nan,nan,nan,nan,nan,nan,nan,nan,nan,nan,nan,nan,nan,nan,nan,nan,168.0564534637233,366.4119486930722,nan,366.61931886701495,nan,nan,nan,nan
1,147,1,1,1.0,1.0,0.19922955801303033,0,2,4,3,1,8,5,nan,nan,nan,nan,nan,nan,nan,nan,nan,nan,nan,nan,0.0,nan,nan,nan,nan,nan,nan,nan,nan,nan,nan,nan,nan,nan,nan,nan,nan,nan,nan,168.0564534637233,367.41205674425873,nan,367.61128630227176,nan,nan,nan,nan
1,148,1,1,1.0,1.0,0.26305986692023,0,5,0,2,7,3,8,nan,nan,nan,nan,nan,nan,nan,nan,nan,nan,nan,nan,0.0,nan,nan,nan,nan,nan,nan,nan,nan,nan,nan,nan,nan,nan,nan,nan,nan,nan,nan,168.0564534637233,368.4121901689359,nan,368.67525003585615,nan,nan,nan,nan
1,149,1,1,1.0,1.0,0.25490642168733757,0,8,6,5,2,1,3,nan,nan,nan,nan,nan,nan,nan,nan,nan,nan,nan,nan,0.0,nan,nan,nan,nan,nan,nan,nan,nan,nan,nan,nan,nan,nan,nan,nan,nan,nan,nan,168.0564534637233,369.4123147556529,nan,369.66722117734025,nan,nan,nan,nan
1,150,0,0,0.0,1.0,0.40674370515625924,0,5,1,2,6,3,8,nan,nan,nan,nan,nan,nan,nan,nan,nan,nan,nan,nan,0.0,nan,nan,nan,nan,nan,nan,nan,nan,nan,nan,nan,nan,nan,nan,nan,nan,nan,nan,168.0564534637233,370.4124573033914,nan,370.8192010085477,nan,nan,nan,nan
1,151,1,1,1.0,1.0,0.26259544638742227,0,7,6,4,8,0,1,nan,nan,nan,nan,nan,nan,nan,nan,nan,nan,nan,nan,0.0,nan,nan,nan,nan,nan,nan,nan,nan,nan,nan,nan,nan,nan,nan,nan,nan,nan,nan,168.0564534637233,371.41257419253816,nan,371.6751696389256,nan,nan,nan,nan
1,152,1,1,1.0,1.0,0.22244032025628258,1,8,1,0,2,4,7,1.0,1.0,1.0,1.0,1.0,1.0,0.0,0.0,0.0,0.0,1.0,0.0,1.0,3.0,2.0,7.0,0.0,4.0,1.0,6.0,5.0,4.0,3.0,2.0,1.0,8.81574223037751,7.720310514589073,5.737103492792812,4.585933047623257,2.4410070484154858,1.033483892257209,168.0564534637233,372.4127044811612,373.22111348595354,372.6351448014175,383.09738176877727,384.10473152987834,374.2462546295865,383.0890470028389
1,153,1,1,1.0,1.0,0.4649405276577454,0,4,2,1,6,8,5,nan,nan,nan,nan,nan,nan,nan,nan,nan,nan,nan,nan,0.0,nan,nan,nan,nan,nan,nan,nan,nan,nan,nan,nan,nan,nan,nan,nan,nan,nan,nan,168.0564534637233,384.30590059234237,nan,384.7708411200001,nan,nan,nan,nan
1,154,1,1,1.0,1.0,0.32078172035107855,0,5,8,7,2,3,0,nan,nan,nan,nan,nan,nan,nan,nan,nan,nan,nan,nan,0.0,nan,nan,nan,nan,nan,nan,nan,nan,nan,nan,nan,nan,nan,nan,nan,nan,nan,nan,168.0564534637233,385.3060291704023,nan,385.6268108907534,nan,nan,nan,nan
1,155,0,0,1.0,0.0,0.25661899015540257,0,8,2,3,4,1,5,nan,nan,nan,nan,nan,nan,nan,nan,nan,nan,nan,nan,0.0,nan,nan,nan,nan,nan,nan,nan,nan,nan,nan,nan,nan,nan,nan,nan,nan,nan,nan,168.0564534637233,386.3061563229712,nan,386.5627753131266,nan,nan,nan,nan
1,156,1,1,1.0,1.0,0.38445095032511745,0,7,8,5,2,0,4,nan,nan,nan,nan,nan,nan,nan,nan,nan,nan,nan,nan,0.0,nan,nan,nan,nan,nan,nan,nan,nan,nan,nan,nan,nan,nan,nan,nan,nan,nan,nan,168.0564534637233,387.3062843308435,nan,387.6907352811686,nan,nan,nan,nan
1,157,1,1,1.0,1.0,0.6243111737276195,0,4,7,1,5,2,8,nan,nan,nan,nan,nan,nan,nan,nan,nan,nan,nan,nan,0.0,nan,nan,nan,nan,nan,nan,nan,nan,nan,nan,nan,nan,nan,nan,nan,nan,nan,nan,168.0564534637233,388.3064151896542,nan,388.93072636338184,nan,nan,nan,nan
1,158,1,1,1.0,1.0,0.40014802156656515,0,8,4,7,3,1,6,nan,nan,nan,nan,nan,nan,nan,nan,nan,nan,nan,nan,0.0,nan,nan,nan,nan,nan,nan,nan,nan,nan,nan,nan,nan,nan,nan,nan,nan,nan,nan,168.0564534637233,389.3065454782918,nan,389.7066934998584,nan,nan,nan,nan
1,159,1,1,1.0,1.0,0.320008541457355,0,3,8,2,1,0,7,nan,nan,nan,nan,nan,nan,nan,nan,nan,nan,nan,nan,0.0,nan,nan,nan,nan,nan,nan,nan,nan,nan,nan,nan,nan,nan,nan,nan,nan,nan,nan,168.0564534637233,390.3066677842435,nan,390.6266763257008,nan,nan,nan,nan
1,160,0,0,0.0,1.0,0.3598480669170385,0,8,5,7,0,1,3,nan,nan,nan,nan,nan,nan,nan,nan,nan,nan,nan,nan,0.0,nan,nan,nan,nan,nan,nan,nan,nan,nan,nan,nan,nan,nan,nan,nan,nan,nan,nan,168.0564534637233,391.30680063873297,nan,391.66664870565,nan,nan,nan,nan
1,161,1,1,1.0,1.0,0.21569923797505908,0,1,2,4,3,6,0,nan,nan,nan,nan,nan,nan,nan,nan,nan,nan,nan,nan,0.0,nan,nan,nan,nan,nan,nan,nan,nan,nan,nan,nan,nan,nan,nan,nan,nan,nan,nan,168.0564534637233,392.3069334932079,nan,392.52263273118297,nan,nan,nan,nan
1,162,1,1,1.0,1.0,0.24755295434442814,0,7,0,5,6,3,1,nan,nan,nan,nan,nan,nan,nan,nan,nan,nan,nan,nan,0.0,nan,nan,nan,nan,nan,nan,nan,nan,nan,nan,nan,nan,nan,nan,nan,nan,nan,nan,168.0564534637233,393.30705950541596,nan,393.5546124597604,nan,nan,nan,nan
1,163,1,1,1.0,1.0,0.2873785101401154,0,1,8,6,7,5,0,nan,nan,nan,nan,nan,nan,nan,nan,nan,nan,nan,nan,0.0,nan,nan,nan,nan,nan,nan,nan,nan,nan,nan,nan,nan,nan,nan,nan,nan,nan,nan,168.0564534637233,394.3071923598909,nan,394.594570870031,nan,nan,nan,nan
1,164,1,1,1.0,1.0,0.2872262691525975,0,4,0,3,6,1,5,nan,nan,nan,nan,nan,nan,nan,nan,nan,nan,nan,nan,0.0,nan,nan,nan,nan,nan,nan,nan,nan,nan,nan,nan,nan,nan,nan,nan,nan,nan,nan,168.0564534637233,395.3073158062325,nan,395.5945420753851,nan,nan,nan,nan
1,165,1,1,1.0,1.0,0.2630838149343617,0,2,5,7,4,8,3,nan,nan,nan,nan,nan,nan,nan,nan,nan,nan,nan,nan,0.0,nan,nan,nan,nan,nan,nan,nan,nan,nan,nan,nan,nan,nan,nan,nan,nan,nan,nan,168.0564534637233,396.3074478054332,nan,396.57053162036755,nan,nan,nan,nan
1,166,1,1,1.0,1.0,0.2629207403224427,0,1,6,2,8,3,5,nan,nan,nan,nan,nan,nan,nan,nan,nan,nan,nan,nan,0.0,nan,nan,nan,nan,nan,nan,nan,nan,nan,nan,nan,nan,nan,nan,nan,nan,nan,nan,168.0564534637233,397.3075741027278,nan,397.57049484305026,nan,nan,nan,nan
1,167,1,1,1.0,1.0,0.27877461406751536,0,2,8,0,5,1,3,nan,nan,nan,nan,nan,nan,nan,nan,nan,nan,nan,nan,0.0,nan,nan,nan,nan,nan,nan,nan,nan,nan,nan,nan,nan,nan,nan,nan,nan,nan,nan,168.0564534637233,398.30770182549895,nan,398.58647643956647,nan,nan,nan,nan
1,168,0,0,0.0,1.0,0.41461348038865253,0,5,6,3,4,0,2,nan,nan,nan,nan,nan,nan,nan,nan,nan,nan,nan,nan,0.0,nan,nan,nan,nan,nan,nan,nan,nan,nan,nan,nan,nan,nan,nan,nan,nan,nan,nan,168.0564534637233,399.3078301184578,nan,399.72244359884644,nan,nan,nan,nan
1,169,1,1,1.0,1.0,0.2704535327065969,0,4,0,6,2,7,5,nan,nan,nan,nan,nan,nan,nan,nan,nan,nan,nan,nan,0.0,nan,nan,nan,nan,nan,nan,nan,nan,nan,nan,nan,nan,nan,nan,nan,nan,nan,nan,168.0564534637233,400.3079578412289,nan,400.5784113739355,nan,nan,nan,nan
1,170,1,1,1.0,1.0,0.27830819789960515,0,8,5,4,3,1,0,nan,nan,nan,nan,nan,nan,nan,nan,nan,nan,nan,nan,0.0,nan,nan,nan,nan,nan,nan,nan,nan,nan,nan,nan,nan,nan,nan,nan,nan,nan,nan,168.0564534637233,401.3080855639855,nan,401.5863937618851,nan,nan,nan,nan
1,171,1,1,1.0,1.0,0.31815912717138417,0,1,0,2,5,8,3,nan,nan,nan,nan,nan,nan,nan,nan,nan,nan,nan,nan,0.0,nan,nan,nan,nan,nan,nan,nan,nan,nan,nan,nan,nan,nan,nan,nan,nan,nan,nan,168.0564534637233,402.3082130016701,nan,402.62637212884147,nan,nan,nan,nan
1,172,0,0,0.0,1.0,0.47000410822511185,0,0,7,3,2,1,4,nan,nan,nan,nan,nan,nan,nan,nan,nan,nan,nan,nan,0.0,nan,nan,nan,nan,nan,nan,nan,nan,nan,nan,nan,nan,nan,nan,nan,nan,nan,nan,168.0564534637233,403.3083412946289,nan,403.77834540285403,nan,nan,nan,nan
1,173,1,1,1.0,1.0,0.30184739010292105,0,7,5,8,3,4,6,nan,nan,nan,nan,nan,nan,nan,nan,nan,nan,nan,nan,0.0,nan,nan,nan,nan,nan,nan,nan,nan,nan,nan,nan,nan,nan,nan,nan,nan,nan,nan,168.0564534637233,404.30847300872847,nan,404.6103203988314,nan,nan,nan,nan
1,174,1,1,1.0,1.0,0.2936811155959731,0,2,6,7,8,3,1,nan,nan,nan,nan,nan,nan,nan,nan,nan,nan,nan,nan,0.0,nan,nan,nan,nan,nan,nan,nan,nan,nan,nan,nan,nan,nan,nan,nan,nan,nan,nan,168.0564534637233,405.308601871875,nan,405.60228298747097,nan,nan,nan,nan
1,175,1,1,1.0,1.0,0.30152950866613537,0,0,4,5,7,1,3,nan,nan,nan,nan,nan,nan,nan,nan,nan,nan,nan,nan,0.0,nan,nan,nan,nan,nan,nan,nan,nan,nan,nan,nan,nan,nan,nan,nan,nan,nan,nan,168.0564534637233,406.3087341561768,nan,406.61026366484293,nan,nan,nan,nan
1,176,1,1,0.0,0.0,0.557403544371482,0,3,5,7,0,4,1,nan,nan,nan,nan,nan,nan,nan,nan,nan,nan,nan,nan,0.0,nan,nan,nan,nan,nan,nan,nan,nan,nan,nan,nan,nan,nan,nan,nan,nan,nan,nan,168.0564534637233,407.3088598832692,nan,407.86626342764066,nan,nan,nan,nan
1,177,1,1,1.0,1.0,0.7331840003316756,0,1,2,8,6,7,0,nan,nan,nan,nan,nan,nan,nan,nan,nan,nan,nan,nan,0.0,nan,nan,nan,nan,nan,nan,nan,nan,nan,nan,nan,nan,nan,nan,nan,nan,nan,nan,168.0564534637233,408.30898161903315,nan,409.0421656193648,nan,nan,nan,nan
1,178,1,1,1.0,1.0,0.4610680759506067,0,8,4,0,5,2,6,nan,nan,nan,nan,nan,nan,nan,nan,nan,nan,nan,nan,0.0,nan,nan,nan,nan,nan,nan,nan,nan,nan,nan,nan,nan,nan,nan,nan,nan,nan,nan,168.0564534637233,409.30911418843607,nan,409.7701822643867,nan,nan,nan,nan
1,179,1,1,1.0,1.0,0.5409150480991229,0,5,8,3,7,6,2,nan,nan,nan,nan,nan,nan,nan,nan,nan,nan,nan,nan,0.0,nan,nan,nan,nan,nan,nan,nan,nan,nan,nan,nan,nan,nan,nan,nan,nan,nan,nan,168.0564534637233,410.3092453323479,nan,410.85016038044705,nan,nan,nan,nan
1,180,1,1,1.0,1.0,0.3567542109376518,1,7,5,8,3,4,1,1.0,1.0,1.0,1.0,1.0,1.0,0.0,0.0,0.0,0.0,1.0,0.0,1.0,1.0,6.0,3.0,0.0,4.0,8.0,3.0,1.0,6.0,5.0,4.0,2.0,4.023902118744445,1.3534582222637255,8.134924850266543,7.102987315825885,5.7586002610914875,3.0248338107339805,168.0564534637233,411.30937562097097,412.1177880469186,411.6661298319086,421.3106294708268,422.3081653907284,413.13460155199573,421.30230268755986
1,181,1,1,1.0,1.0,0.4989495657500811,0,5,0,6,8,7,4,nan,nan,nan,nan,nan,nan,nan,nan,nan,nan,nan,nan,0.0,nan,nan,nan,nan,nan,nan,nan,nan,nan,nan,nan,nan,nan,nan,nan,nan,nan,nan,168.0564534637233,422.5108779600414,nan,423.0098275257915,nan,nan,nan,nan
1,182,1,1,1.0,1.0,0.4268389441567706,0,3,5,2,4,1,7,nan,nan,nan,nan,nan,nan,nan,nan,nan,nan,nan,nan,0.0,nan,nan,nan,nan,nan,nan,nan,nan,nan,nan,nan,nan,nan,nan,nan,nan,nan,nan,168.0564534637233,423.5109711862606,nan,423.93781013041735,nan,nan,nan,nan
1,183,0,0,0.0,1.0,0.6107560247037327,0,6,7,1,0,3,4,nan,nan,nan,nan,nan,nan,nan,nan,nan,nan,nan,nan,0.0,nan,nan,nan,nan,nan,nan,nan,nan,nan,nan,nan,nan,nan,nan,nan,nan,nan,nan,168.0564534637233,424.5110324817797,nan,425.1217885064834,nan,nan,nan,nan
1,184,1,1,1.0,1.0,0.37056109924742486,0,2,3,6,5,8,1,nan,nan,nan,nan,nan,nan,nan,nan,nan,nan,nan,nan,0.0,nan,nan,nan,nan,nan,nan,nan,nan,nan,nan,nan,nan,nan,nan,nan,nan,nan,nan,168.0564534637233,425.5112135173986,nan,425.881774616646,nan,nan,nan,nan
1,185,0,0,1.0,0.0,0.5224049399112118,0,5,7,8,3,0,6,nan,nan,nan,nan,nan,nan,nan,nan,nan,nan,nan,nan,0.0,nan,nan,nan,nan,nan,nan,nan,nan,nan,nan,nan,nan,nan,nan,nan,nan,nan,nan,168.0564534637233,426.511330976733,nan,427.0337359166442,nan,nan,nan,nan
1,186,1,1,1.0,1.0,0.6982364279683679,0,3,2,4,8,7,1,nan,nan,nan,nan,nan,nan,nan,nan,nan,nan,nan,nan,0.0,nan,nan,nan,nan,nan,nan,nan,nan,nan,nan,nan,nan,nan,nan,nan,nan,nan,nan,168.0564534637233,427.5114561336377,nan,428.20969256160606,nan,nan,nan,nan
1,187,1,1,1.0,1.0,0.330093223368749,0,1,7,3,2,8,5,nan,nan,nan,nan,nan,nan,nan,nan,nan,nan,nan,nan,0.0,nan,nan,nan,nan,nan,nan,nan,nan,nan,nan,nan,nan,nan,nan,nan,nan,nan,nan,168.0564534637233,428.51158670736186,nan,428.8416799307306,nan,nan,nan,nan
1,188,1,1,1.0,1.0,0.4259514419682091,0,0,2,4,3,7,6,nan,nan,nan,nan,nan,nan,nan,nan,nan,nan,nan,nan,0.0,nan,nan,nan,nan,nan,nan,nan,nan,nan,nan,nan,nan,nan,nan,nan,nan,nan,nan,168.0564534637233,429.51171699599945,nan,429.93766843796766,nan,nan,nan,nan
1,189,1,1,1.0,1.0,0.49777867867669556,0,5,0,8,1,2,3,nan,nan,nan,nan,nan,nan,nan,nan,nan,nan,nan,nan,0.0,nan,nan,nan,nan,nan,nan,nan,nan,nan,nan,nan,nan,nan,nan,nan,nan,nan,nan,168.0564534637233,430.5118452889583,nan,431.009623967635,nan,nan,nan,nan
1,190,1,1,1.0,1.0,0.32164384904899634,0,2,8,4,3,5,0,nan,nan,nan,nan,nan,nan,nan,nan,nan,nan,nan,nan,0.0,nan,nan,nan,nan,nan,nan,nan,nan,nan,nan,nan,nan,nan,nan,nan,nan,nan,nan,168.0564534637233,431.5119718713395,nan,431.8336157203885,nan,nan,nan,nan
1,191,1,1,1.0,1.0,0.3534713366534561,0,3,7,8,6,0,1,nan,nan,nan,nan,nan,nan,nan,nan,nan,nan,nan,nan,0.0,nan,nan,nan,nan,nan,nan,nan,nan,nan,nan,nan,nan,nan,nan,nan,nan,nan,nan,168.0564534637233,432.5121087171574,nan,432.86558005381085,nan,nan,nan,nan
1,192,1,1,1.0,1.0,0.17730172535812017,0,7,6,5,0,1,4,nan,nan,nan,nan,nan,nan,nan,nan,nan,nan,nan,nan,0.0,nan,nan,nan,nan,nan,nan,nan,nan,nan,nan,nan,nan,nan,nan,nan,nan,nan,nan,168.0564534637233,433.5122692259174,nan,433.6895709512755,nan,nan,nan,nan
1,193,1,1,1.0,1.0,0.2651721392176114,0,3,4,0,2,8,5,nan,nan,nan,nan,nan,nan,nan,nan,nan,nan,nan,nan,0.0,nan,nan,nan,nan,nan,nan,nan,nan,nan,nan,nan,nan,nan,nan,nan,nan,nan,nan,168.0564534637233,434.5123570353171,nan,434.7775291745347,nan,nan,nan,nan
1,194,1,1,1.0,1.0,0.21701808959187474,0,2,7,1,0,3,6,nan,nan,nan,nan,nan,nan,nan,nan,nan,nan,nan,nan,0.0,nan,nan,nan,nan,nan,nan,nan,nan,nan,nan,nan,nan,nan,nan,nan,nan,nan,nan,168.0564534637233,435.51248589846364,nan,435.7295039880555,nan,nan,nan,nan
1,195,1,1,1.0,1.0,0.15287046945013572,0,1,8,7,6,5,3,nan,nan,nan,nan,nan,nan,nan,nan,nan,nan,nan,nan,0.0,nan,nan,nan,nan,nan,nan,nan,nan,nan,nan,nan,nan,nan,nan,nan,nan,nan,nan,168.0564534637233,436.51262074861734,nan,436.6654912180675,nan,nan,nan,nan
1,196,0,0,0.0,1.0,0.41670265997527167,0,5,7,0,3,2,1,nan,nan,nan,nan,nan,nan,nan,nan,nan,nan,nan,nan,0.0,nan,nan,nan,nan,nan,nan,nan,nan,nan,nan,nan,nan,nan,nan,nan,nan,nan,nan,168.0564534637233,437.5127533180057,nan,437.929455977981,nan,nan,nan,nan
1,197,1,1,1.0,1.0,0.2805587415059563,0,3,0,4,1,7,5,nan,nan,nan,nan,nan,nan,nan,nan,nan,nan,nan,nan,0.0,nan,nan,nan,nan,nan,nan,nan,nan,nan,nan,nan,nan,nan,nan,nan,nan,nan,nan,168.0564534637233,438.51287077734014,nan,438.7934295188461,nan,nan,nan,nan
1,198,1,1,1.0,1.0,0.23240782791981474,1,2,5,7,4,1,3,1.0,1.0,1.0,1.0,1.0,1.0,0.0,0.0,1.0,0.0,0.0,0.0,1.0,3.0,1.0,7.0,5.0,0.0,6.0,4.0,2.0,6.0,3.0,1.0,5.0,6.795288056178833,3.932687535081641,8.72224488730717,5.3395050799736055,1.48399858934863,7.618709903108538,168.0564534637233,439.5129993554001,440.32142632121395,439.7454071833199,450.09766629405203,451.1050479858386,441.3382167335658,450.0893435021135
1,199,1,1,1.0,1.0,0.5268894915789133,0,4,2,0,8,3,5,nan,nan,nan,nan,nan,nan,nan,nan,nan,nan,nan,nan,0.0,nan,nan,nan,nan,nan,nan,nan,nan,nan,nan,nan,nan,nan,nan,nan,nan,nan,nan,168.0564534637233,451.306181981563,nan,451.8330714731419,nan,nan,nan,nan
1,200,1,1,1.0,1.0,0.3587592873373069,0,7,6,8,3,4,2,nan,nan,nan,nan,nan,nan,nan,nan,nan,nan,nan,nan,0.0,nan,nan,nan,nan,nan,nan,nan,nan,nan,nan,nan,nan,nan,nan,nan,nan,nan,nan,168.0564534637233,452.3063136956771,nan,452.6650729830144,nan,nan,nan,nan
1,201,1,1,1.0,1.0,0.4199464761768468,0,1,2,7,5,6,8,nan,nan,nan,nan,nan,nan,nan,nan,nan,nan,nan,nan,0.0,nan,nan,nan,nan,nan,nan,nan,nan,nan,nan,nan,nan,nan,nan,nan,nan,nan,nan,168.0564534637233,453.3731246776588,nan,453.7930711538356,nan,nan,nan,nan
1,202,1,1,1.0,1.0,0.32376724008645397,0,0,7,5,2,1,3,nan,nan,nan,nan,nan,nan,nan,nan,nan,nan,nan,nan,0.0,nan,nan,nan,nan,nan,nan,nan,nan,nan,nan,nan,nan,nan,nan,nan,nan,nan,nan,168.0564534637233,454.3732435624697,nan,454.6970108025562,nan,nan,nan,nan
1,203,1,1,1.0,1.0,0.2916221561317798,0,1,2,0,7,5,4,nan,nan,nan,nan,nan,nan,nan,nan,nan,nan,nan,nan,0.0,nan,nan,nan,nan,nan,nan,nan,nan,nan,nan,nan,nan,nan,nan,nan,nan,nan,nan,168.0564534637233,455.37337071505317,nan,455.66499287118495,nan,nan,nan,nan
1,204,1,1,1.0,1.0,0.36347077501704916,0,2,5,4,6,0,8,nan,nan,nan,nan,nan,nan,nan,nan,nan,nan,nan,nan,0.0,nan,nan,nan,nan,nan,nan,nan,nan,nan,nan,nan,nan,nan,nan,nan,nan,nan,nan,168.0564534637233,456.37349786762206,nan,456.7369686426391,nan,nan,nan,nan
1,205,0,0,0.0,1.0,0.4113026667473605,0,8,0,3,2,4,1,nan,nan,nan,nan,nan,nan,nan,nan,nan,nan,nan,nan,0.0,nan,nan,nan,nan,nan,nan,nan,nan,nan,nan,nan,nan,nan,nan,nan,nan,nan,nan,168.0564534637233,457.373633287978,nan,457.78493595472537,nan,nan,nan,nan
1,206,1,1,1.0,1.0,0.2751510506932391,0,2,1,5,7,8,0,nan,nan,nan,nan,nan,nan,nan,nan,nan,nan,nan,nan,0.0,nan,nan,nan,nan,nan,nan,nan,nan,nan,nan,nan,nan,nan,nan,nan,nan,nan,nan,168.0564534637233,458.3737558790308,nan,458.64890692972403,nan,nan,nan,nan
1,207,1,1,1.0,1.0,0.26701556649641134,0,0,3,7,6,4,2,nan,nan,nan,nan,nan,nan,nan,nan,nan,nan,nan,nan,0.0,nan,nan,nan,nan,nan,nan,nan,nan,nan,nan,nan,nan,nan,nan,nan,nan,nan,nan,168.0564534637233,459.37388417198963,nan,459.64089973848604,nan,nan,nan,nan
1,208,1,1,1.0,1.0,0.2828454922273522,0,7,1,6,4,0,3,nan,nan,nan,nan,nan,nan,nan,nan,nan,nan,nan,nan,0.0,nan,nan,nan,nan,nan,nan,nan,nan,nan,nan,nan,nan,nan,nan,nan,nan,nan,nan,168.0564534637233,460.37401503080036,nan,460.6568605230277,nan,nan,nan,nan
1,209,1,1,1.0,1.0,0.28265476335946005,0,0,8,2,1,5,4,nan,nan,nan,nan,nan,nan,nan,nan,nan,nan,nan,nan,0.0,nan,nan,nan,nan,nan,nan,nan,nan,nan,nan,nan,nan,nan,nan,nan,nan,nan,nan,168.0564534637233,461.37416898235097,nan,461.6568237457104,nan,nan,nan,nan
1,210,1,1,1.0,1.0,0.2345545967837097,0,8,4,0,6,3,1,nan,nan,nan,nan,nan,nan,nan,nan,nan,nan,nan,nan,0.0,nan,nan,nan,nan,nan,nan,nan,nan,nan,nan,nan,nan,nan,nan,nan,nan,nan,nan,168.0564534637233,462.37426220857014,nan,462.60881680535385,nan,nan,nan,nan
1,211,1,1,1.0,1.0,0.28237765056837816,0,1,7,5,8,6,4,nan,nan,nan,nan,nan,nan,nan,nan,nan,nan,nan,nan,0.0,nan,nan,nan,nan,nan,nan,nan,nan,nan,nan,nan,nan,nan,nan,nan,nan,nan,nan,168.0564534637233,463.3743981991138,nan,463.65677584968216,nan,nan,nan,nan
1,212,0,0,0.0,1.0,0.46622003611992113,0,7,2,4,0,1,3,nan,nan,nan,nan,nan,nan,nan,nan,nan,nan,nan,nan,0.0,nan,nan,nan,nan,nan,nan,nan,nan,nan,nan,nan,nan,nan,nan,nan,nan,nan,nan,168.0564534637233,464.3745253516827,nan,464.8407453878026,nan,nan,nan,nan
1,213,1,1,1.0,1.0,0.2420828276372049,0,8,5,7,1,3,6,nan,nan,nan,nan,nan,nan,nan,nan,nan,nan,nan,nan,0.0,nan,nan,nan,nan,nan,nan,nan,nan,nan,nan,nan,nan,nan,nan,nan,nan,nan,nan,168.0564534637233,465.37465621050796,nan,465.61673903814517,nan,nan,nan,nan
1,214,1,1,1.0,1.0,0.22591791475133505,0,6,2,5,7,8,1,nan,nan,nan,nan,nan,nan,nan,nan,nan,nan,nan,nan,0.0,nan,nan,nan,nan,nan,nan,nan,nan,nan,nan,nan,nan,nan,nan,nan,nan,nan,nan,168.0564534637233,466.3747856438422,nan,466.6007035585935,nan,nan,nan,nan
1,215,1,1,1.0,1.0,0.2497575975867221,0,3,7,1,0,2,8,nan,nan,nan,nan,nan,nan,nan,nan,nan,nan,nan,nan,0.0,nan,nan,nan,nan,nan,nan,nan,nan,nan,nan,nan,nan,nan,nan,nan,nan,nan,nan,168.0564534637233,467.3749125113245,nan,467.62467010891123,nan,nan,nan,nan
1,216,0,0,1.0,0.0,0.24960250564618036,0,8,5,3,1,4,2,nan,nan,nan,nan,nan,nan,nan,nan,nan,nan,nan,nan,0.0,nan,nan,nan,nan,nan,nan,nan,nan,nan,nan,nan,nan,nan,nan,nan,nan,nan,nan,168.0564534637233,468.3750413744856,nan,468.62464388013177,nan,nan,nan,nan
1,217,1,1,1.0,1.0,0.321446848087362,0,7,1,4,8,0,3,nan,nan,nan,nan,nan,nan,nan,nan,nan,nan,nan,nan,0.0,nan,nan,nan,nan,nan,nan,nan,nan,nan,nan,nan,nan,nan,nan,nan,nan,nan,nan,168.0564534637233,469.37516482081264,nan,469.6966116689,nan,nan,nan,nan
1,218,1,1,1.0,1.0,0.22530752533930354,0,0,3,8,1,6,4,nan,nan,nan,nan,nan,nan,nan,nan,nan,nan,nan,nan,0.0,nan,nan,nan,nan,nan,nan,nan,nan,nan,nan,nan,nan,nan,nan,nan,nan,nan,nan,168.0564534637233,470.37529796040326,nan,470.60060548574256,nan,nan,nan,nan
1,219,1,1,1.0,1.0,0.23315506313520018,0,8,4,5,6,3,7,nan,nan,nan,nan,nan,nan,nan,nan,nan,nan,nan,nan,0.0,nan,nan,nan,nan,nan,nan,nan,nan,nan,nan,nan,nan,nan,nan,nan,nan,nan,nan,168.0564534637233,471.3754268235498,nan,471.608581886685,nan,nan,nan,nan
1,220,1,1,1.0,1.0,0.24098378462076653,0,1,6,3,4,0,8,nan,nan,nan,nan,nan,nan,nan,nan,nan,nan,nan,nan,0.0,nan,nan,nan,nan,nan,nan,nan,nan,nan,nan,nan,nan,nan,nan,nan,nan,nan,nan,168.0564534637233,472.3755551165086,nan,472.6165389011294,nan,nan,nan,nan
1,221,1,1,1.0,1.0,0.22484281974902842,0,7,2,6,5,8,4,nan,nan,nan,nan,nan,nan,nan,nan,nan,nan,nan,nan,0.0,nan,nan,nan,nan,nan,nan,nan,nan,nan,nan,nan,nan,nan,nan,nan,nan,nan,nan,168.0564534637233,473.3756816988898,nan,473.60052451863885,nan,nan,nan,nan
1,222,1,1,1.0,1.0,0.2726909619377693,0,2,1,4,7,3,8,nan,nan,nan,nan,nan,nan,nan,nan,nan,nan,nan,nan,0.0,nan,nan,nan,nan,nan,nan,nan,nan,nan,nan,nan,nan,nan,nan,nan,nan,nan,nan,168.0564534637233,474.3758102769498,nan,474.64850123888755,nan,nan,nan,nan
1,223,1,1,1.0,1.0,0.2645380868925713,0,7,6,0,2,5,3,nan,nan,nan,nan,nan,nan,nan,nan,nan,nan,nan,nan,0.0,nan,nan,nan,nan,nan,nan,nan,nan,nan,nan,nan,nan,nan,nan,nan,nan,nan,nan,168.0564534637233,475.3759379997209,nan,475.6404760866135,nan,nan,nan,nan
1,224,1,1,1.0,1.0,0.24837516967090778,0,2,7,1,0,3,4,nan,nan,nan,nan,nan,nan,nan,nan,nan,nan,nan,nan,0.0,nan,nan,nan,nan,nan,nan,nan,nan,nan,nan,nan,nan,nan,nan,nan,nan,nan,nan,168.0564534637233,476.37606971382047,nan,476.6244448834914,nan,nan,nan,nan
1,225,1,1,1.0,1.0,0.3442085849674186,0,6,0,3,1,2,5,nan,nan,nan,nan,nan,nan,nan,nan,nan,nan,nan,nan,0.0,nan,nan,nan,nan,nan,nan,nan,nan,nan,nan,nan,nan,nan,nan,nan,nan,nan,nan,168.0564534637233,477.37620199812227,nan,477.7204105830897,nan,nan,nan,nan
1,226,1,1,1.0,1.0,0.2080672323500039,0,0,8,6,3,4,1,nan,nan,nan,nan,nan,nan,nan,nan,nan,nan,nan,nan,0.0,nan,nan,nan,nan,nan,nan,nan,nan,nan,nan,nan,nan,nan,nan,nan,nan,nan,nan,168.0564534637233,478.3763223084097,nan,478.58438954075973,nan,nan,nan,nan
1,227,1,1,1.0,1.0,0.24789849005173892,0,5,2,1,8,0,6,nan,nan,nan,nan,nan,nan,nan,nan,nan,nan,nan,nan,0.0,nan,nan,nan,nan,nan,nan,nan,nan,nan,nan,nan,nan,nan,nan,nan,nan,nan,nan,168.0564534637233,479.376464285946,nan,479.6243627759977,nan,nan,nan,nan
1,228,1,1,1.0,1.0,0.3197530959296273,0,6,3,7,4,5,0,nan,nan,nan,nan,nan,nan,nan,nan,nan,nan,nan,nan,0.0,nan,nan,nan,nan,nan,nan,nan,nan,nan,nan,nan,nan,nan,nan,nan,nan,nan,nan,168.0564534637233,480.3765800347028,nan,480.6963331306324,nan,nan,nan,nan
1,229,1,1,1.0,1.0,0.24760170566150919,0,0,7,1,2,4,5,nan,nan,nan,nan,nan,nan,nan,nan,nan,nan,nan,nan,0.0,nan,nan,nan,nan,nan,nan,nan,nan,nan,nan,nan,nan,nan,nan,nan,nan,nan,nan,168.0564534637233,481.37670861276274,nan,481.62431031842425,nan,nan,nan,nan
1,230,1,1,1.0,1.0,0.23945054120849818,0,1,2,3,6,7,0,nan,nan,nan,nan,nan,nan,nan,nan,nan,nan,nan,nan,0.0,nan,nan,nan,nan,nan,nan,nan,nan,nan,nan,nan,nan,nan,nan,nan,nan,nan,nan,168.0564534637233,482.37684146725223,nan,482.61629200846073,nan,nan,nan,nan
1,231,1,1,1.0,1.0,0.2473003597697243,0,6,5,7,3,4,1,nan,nan,nan,nan,nan,nan,nan,nan,nan,nan,nan,nan,0.0,nan,nan,nan,nan,nan,nan,nan,nan,nan,nan,nan,nan,nan,nan,nan,nan,nan,nan,168.0564534637233,483.3769649135793,nan,483.624265273349,nan,nan,nan,nan
1,232,0,0,1.0,0.0,0.26314368497696705,0,0,3,6,8,7,4,nan,nan,nan,nan,nan,nan,nan,nan,nan,nan,nan,nan,0.0,nan,nan,nan,nan,nan,nan,nan,nan,nan,nan,nan,nan,nan,nan,nan,nan,nan,nan,168.0564534637233,484.37709377674037,nan,484.64023746171733,nan,nan,nan,nan
1,233,1,1,1.0,1.0,0.39095967980392743,1,2,8,3,0,1,5,1.0,1.0,1.0,1.0,1.0,1.0,0.0,0.0,0.0,0.0,1.0,0.0,1.0,8.0,0.0,6.0,4.0,1.0,3.0,2.0,1.0,6.0,5.0,4.0,3.0,2.8572481388255255,1.7143617125984747,8.368958007442416,6.6896137155999895,5.920756289851852,5.0886538561899215,168.0564534637233,485.3772217845981,486.18564133792825,485.768181464402,495.61184081295505,496.60909733928565,487.20244571995863,495.6035057619156
1,234,1,1,1.0,1.0,0.5318835088546621,0,4,1,8,2,5,6,nan,nan,nan,nan,nan,nan,nan,nan,nan,nan,nan,nan,0.0,nan,nan,nan,nan,nan,nan,nan,nan,nan,nan,nan,nan,nan,nan,nan,nan,nan,nan,168.0564534637233,496.8120288619248,nan,497.34391237077944,nan,nan,nan,nan
1,235,1,1,1.0,1.0,0.29172307993576396,0,6,8,0,3,4,1,nan,nan,nan,nan,nan,nan,nan,nan,nan,nan,nan,nan,0.0,nan,nan,nan,nan,nan,nan,nan,nan,nan,nan,nan,nan,nan,nan,nan,nan,nan,nan,168.0564534637233,497.81215116787644,nan,498.1038742478122,nan,nan,nan,nan
1,236,1,1,1.0,1.0,0.28357077509281226,0,7,1,5,4,0,8,nan,nan,nan,nan,nan,nan,nan,nan,nan,nan,nan,nan,0.0,nan,nan,nan,nan,nan,nan,nan,nan,nan,nan,nan,nan,nan,nan,nan,nan,nan,nan,168.0564534637233,498.8122823117883,nan,499.0958530868811,nan,nan,nan,nan
1,237,1,1,1.0,1.0,0.24342762296146248,0,8,7,2,5,3,6,nan,nan,nan,nan,nan,nan,nan,nan,nan,nan,nan,nan,0.0,nan,nan,nan,nan,nan,nan,nan,nan,nan,nan,nan,nan,nan,nan,nan,nan,nan,nan,168.0564534637233,499.8124068985053,nan,500.05583452146675,nan,nan,nan,nan
1,238,1,1,1.0,1.0,0.2832754161936464,0,6,3,7,0,5,8,nan,nan,nan,nan,nan,nan,nan,nan,nan,nan,nan,nan,0.0,nan,nan,nan,nan,nan,nan,nan,nan,nan,nan,nan,nan,nan,nan,nan,nan,nan,nan,168.0564534637233,500.81253490637755,nan,501.0958103225712,nan,nan,nan,nan
1,239,0,0,1.0,0.0,0.26711734557466116,0,5,4,8,3,6,1,nan,nan,nan,nan,nan,nan,nan,nan,nan,nan,nan,nan,0.0,nan,nan,nan,nan,nan,nan,nan,nan,nan,nan,nan,nan,nan,nan,nan,nan,nan,nan,168.0564534637233,501.81266975653125,nan,502.0797871021059,nan,nan,nan,nan
1,240,1,1,1.0,1.0,0.23495601119066123,0,6,0,1,4,8,3,nan,nan,nan,nan,nan,nan,nan,nan,nan,nan,nan,nan,0.0,nan,nan,nan,nan,nan,nan,nan,nan,nan,nan,nan,nan,nan,nan,nan,nan,nan,nan,168.0564534637233,502.8127877860534,nan,503.04774379724404,nan,nan,nan,nan
1,241,1,1,1.0,1.0,0.2587994002678897,0,7,3,6,1,2,0,nan,nan,nan,nan,nan,nan,nan,nan,nan,nan,nan,nan,0.0,nan,nan,nan,nan,nan,nan,nan,nan,nan,nan,nan,nan,nan,nan,nan,nan,nan,nan,168.0564534637233,503.81291864487866,nan,504.07171804514655,nan,nan,nan,nan
1,242,1,1,1.0,1.0,0.1946500695485156,0,2,8,4,5,7,3,nan,nan,nan,nan,nan,nan,nan,nan,nan,nan,nan,nan,0.0,nan,nan,nan,nan,nan,nan,nan,nan,nan,nan,nan,nan,nan,nan,nan,nan,nan,nan,168.0564534637233,504.81304636763525,nan,505.00769643718377,nan,nan,nan,nan
1,243,1,1,1.0,1.0,0.2265009349648608,1,8,4,7,3,2,0,1.0,1.0,1.0,1.0,1.0,1.0,0.0,1.0,0.0,0.0,0.0,0.0,1.0,1.0,4.0,6.0,0.0,3.0,7.0,3.0,1.0,6.0,5.0,4.0,2.0,3.5570172400039155,1.1166850125591736,6.596178238265566,5.59720230117091,4.588425637266482,2.7335768618795555,168.0564534637233,505.8131789370382,506.6215919331735,506.03967987200303,514.2725974506175,515.2818316927442,507.6384142762108,514.2642398770404
1,244,1,1,1.0,1.0,0.6943520022323355,0,0,2,5,6,3,7,nan,nan,nan,nan,nan,nan,nan,nan,nan,nan,nan,nan,0.0,nan,nan,nan,nan,nan,nan,nan,nan,nan,nan,nan,nan,nan,nan,nan,nan,nan,nan,168.0564534637233,515.481091185793,nan,516.1754431880254,nan,nan,nan,nan
1,245,1,1,1.0,1.0,0.36618089249532204,0,1,3,7,8,6,5,nan,nan,nan,nan,nan,nan,nan,nan,nan,nan,nan,nan,0.0,nan,nan,nan,nan,nan,nan,nan,nan,nan,nan,nan,nan,nan,nan,nan,nan,nan,nan,168.0564534637233,516.4812086451275,nan,516.8473895376228,nan,nan,nan,nan
1,246,1,1,1.0,1.0,0.34202503878623247,0,7,4,8,0,1,2,nan,nan,nan,nan,nan,nan,nan,nan,nan,nan,nan,nan,0.0,nan,nan,nan,nan,nan,nan,nan,nan,nan,nan,nan,nan,nan,nan,nan,nan,nan,nan,168.0564534637233,517.481347201523,nan,517.8233722403093,nan,nan,nan,nan
1,247,1,1,1.0,1.0,0.27787342730152886,0,3,5,2,1,7,6,nan,nan,nan,nan,nan,nan,nan,nan,nan,nan,nan,nan,0.0,nan,nan,nan,nan,nan,nan,nan,nan,nan,nan,nan,nan,nan,nan,nan,nan,nan,nan,168.0564534637233,518.4814760646696,nan,518.7593494919711,nan,nan,nan,nan
1,248,1,1,1.0,1.0,0.3097197311872151,0,1,3,4,6,8,0,nan,nan,nan,nan,nan,nan,nan,nan,nan,nan,nan,nan,0.0,nan,nan,nan,nan,nan,nan,nan,nan,nan,nan,nan,nan,nan,nan,nan,nan,nan,nan,168.0564534637233,519.4815958047693,nan,519.7913155359565,nan,nan,nan,nan
1,249,1,1,1.0,1.0,0.49354615139600355,0,5,6,1,7,0,8,nan,nan,nan,nan,nan,nan,nan,nan,nan,nan,nan,nan,0.0,nan,nan,nan,nan,nan,nan,nan,nan,nan,nan,nan,nan,nan,nan,nan,nan,nan,nan,168.0564534637233,520.481723812627,nan,520.975269964023,nan,nan,nan,nan
1,250,1,1,0.0,0.0,0.5333985061588464,0,4,2,0,1,3,7,nan,nan,nan,nan,nan,nan,nan,nan,nan,nan,nan,nan,0.0,nan,nan,nan,nan,nan,nan,nan,nan,nan,nan,nan,nan,nan,nan,nan,nan,nan,nan,168.0564534637233,521.481851250297,nan,522.0152497564559,nan,nan,nan,nan
1,251,0,0,1.0,0.0,0.0612504800374154,0,0,7,4,8,6,3,nan,nan,nan,nan,nan,nan,nan,nan,nan,nan,nan,nan,0.0,nan,nan,nan,nan,nan,nan,nan,nan,nan,nan,nan,nan,nan,nan,nan,nan,nan,nan,168.0564534637233,522.4819786879671,nan,522.5432291680045,nan,nan,nan,nan
1,252,1,1,1.0,1.0,0.45307200342358556,0,7,6,8,3,0,4,nan,nan,nan,nan,nan,nan,nan,nan,nan,nan,nan,nan,0.0,nan,nan,nan,nan,nan,nan,nan,nan,nan,nan,nan,nan,nan,nan,nan,nan,nan,nan,168.0564534637233,523.4821024194098,nan,523.9351744228334,nan,nan,nan,nan
1,253,1,1,1.0,1.0,0.28494293957191985,0,3,0,5,1,4,6,nan,nan,nan,nan,nan,nan,nan,nan,nan,nan,nan,nan,0.0,nan,nan,nan,nan,nan,nan,nan,nan,nan,nan,nan,nan,nan,nan,nan,nan,nan,nan,168.0564534637233,524.4822378397512,nan,524.7671807793231,nan,nan,nan,nan
1,254,1,1,1.0,1.0,0.35678927767730784,0,7,5,3,2,6,4,nan,nan,nan,nan,nan,nan,nan,nan,nan,nan,nan,nan,0.0,nan,nan,nan,nan,nan,nan,nan,nan,nan,nan,nan,nan,nan,nan,nan,nan,nan,nan,168.0564534637233,525.4823629966559,nan,525.8391522743332,nan,nan,nan,nan
1,255,1,1,1.0,1.0,0.3806389388482785,0,1,6,5,4,7,0,nan,nan,nan,nan,nan,nan,nan,nan,nan,nan,nan,nan,0.0,nan,nan,nan,nan,nan,nan,nan,nan,nan,nan,nan,nan,nan,nan,nan,nan,nan,nan,168.0564534637233,526.4824910045281,nan,526.8631299433764,nan,nan,nan,nan
1,256,1,1,1.0,1.0,0.31648134035640396,0,2,4,3,0,8,6,nan,nan,nan,nan,nan,nan,nan,nan,nan,nan,nan,nan,0.0,nan,nan,nan,nan,nan,nan,nan,nan,nan,nan,nan,nan,nan,nan,nan,nan,nan,nan,168.0564534637233,527.4826164465339,nan,527.7990977868903,nan,nan,nan,nan
1,257,1,1,1.0,1.0,0.4043272359849652,1,4,0,7,1,6,2,1.0,1.0,1.0,1.0,1.0,1.0,0.0,0.0,0.0,0.0,0.0,0.0,0.0,5.0,4.0,0.0,3.0,2.0,7.0,4.0,1.0,6.0,5.0,2.0,3.0,5.0239317686791765,0.9916726465453394,7.158713786106091,6.190579761590925,2.3356203691655537,3.048550617415458,168.0564534637233,528.4827507265,529.2911648630106,528.8870779624849,537.5005406835553,538.5096423562936,530.2996410362975,537.4922079132812
1,258,1,1,1.0,1.0,0.5134230072726496,0,1,7,2,5,3,0,nan,nan,nan,nan,nan,nan,nan,nan,nan,nan,nan,nan,0.0,nan,nan,nan,nan,nan,nan,nan,nan,nan,nan,nan,nan,nan,nan,nan,nan,nan,nan,168.0564534637233,538.7173939879576,nan,539.2308169952303,nan,nan,nan,nan
1,259,1,1,1.0,1.0,0.3052591275481973,0,5,0,6,7,1,2,nan,nan,nan,nan,nan,nan,nan,nan,nan,nan,nan,nan,0.0,nan,nan,nan,nan,nan,nan,nan,nan,nan,nan,nan,nan,nan,nan,nan,nan,nan,nan,168.0564534637233,539.7175205703534,nan,540.0227796979016,nan,nan,nan,nan
1,260,0,0,1.0,0.0,0.3130978273693472,0,8,4,2,3,6,1,nan,nan,nan,nan,nan,nan,nan,nan,nan,nan,nan,nan,0.0,nan,nan,nan,nan,nan,nan,nan,nan,nan,nan,nan,nan,nan,nan,nan,nan,nan,nan,168.0564534637233,540.7176559906948,nan,541.0307538180641,nan,nan,nan,nan
1,261,1,1,1.0,1.0,0.28093278674350586,0,2,1,0,8,3,7,nan,nan,nan,nan,nan,nan,nan,nan,nan,nan,nan,nan,0.0,nan,nan,nan,nan,nan,nan,nan,nan,nan,nan,nan,nan,nan,nan,nan,nan,nan,nan,168.0564534637233,541.717777156271,nan,541.9987099430145,nan,nan,nan,nan
1,262,1,1,1.0,1.0,0.3367872649105266,0,6,7,3,4,2,8,nan,nan,nan,nan,nan,nan,nan,nan,nan,nan,nan,nan,0.0,nan,nan,nan,nan,nan,nan,nan,nan,nan,nan,nan,nan,nan,nan,nan,nan,nan,nan,168.0564534637233,542.7179051641288,nan,543.0546924290393,nan,nan,nan,nan
1,263,1,1,1.0,1.0,0.3205838641151786,0,7,2,8,1,4,5,nan,nan,nan,nan,nan,nan,nan,nan,nan,nan,nan,nan,0.0,nan,nan,nan,nan,nan,nan,nan,nan,nan,nan,nan,nan,nan,nan,nan,nan,nan,nan,168.0564534637233,543.7180924718559,nan,544.0386763359711,nan,nan,nan,nan
1,264,1,1,1.0,1.0,0.33650473529996816,0,8,3,1,5,6,7,nan,nan,nan,nan,nan,nan,nan,nan,nan,nan,nan,nan,0.0,nan,nan,nan,nan,nan,nan,nan,nan,nan,nan,nan,nan,nan,nan,nan,nan,nan,nan,168.0564534637233,544.7181811365444,nan,545.0546858718444,nan,nan,nan,nan
1,265,0,0,0.0,1.0,0.3043442562047858,0,7,8,0,6,1,4,nan,nan,nan,nan,nan,nan,nan,nan,nan,nan,nan,nan,0.0,nan,nan,nan,nan,nan,nan,nan,nan,nan,nan,nan,nan,nan,nan,nan,nan,nan,nan,168.0564534637233,545.7182900430053,nan,546.02263429921,nan,nan,nan,nan
1,266,1,1,1.0,1.0,0.2961916662607109,0,3,1,6,2,8,5,nan,nan,nan,nan,nan,nan,nan,nan,nan,nan,nan,nan,0.0,nan,nan,nan,nan,nan,nan,nan,nan,nan,nan,nan,nan,nan,nan,nan,nan,nan,nan,168.0564534637233,546.718422327307,nan,547.0146139935678,nan,nan,nan,nan
1,267,1,1,0.0,0.0,0.47202572016976774,0,2,6,3,7,4,0,nan,nan,nan,nan,nan,nan,nan,nan,nan,nan,nan,nan,0.0,nan,nan,nan,nan,nan,nan,nan,nan,nan,nan,nan,nan,nan,nan,nan,nan,nan,nan,168.0564534637233,547.7185443481721,nan,548.1905700683419,nan,nan,nan,nan
1,268,1,1,1.0,1.0,0.3918697045301087,0,4,2,8,3,6,1,nan,nan,nan,nan,nan,nan,nan,nan,nan,nan,nan,nan,0.0,nan,nan,nan,nan,nan,nan,nan,nan,nan,nan,nan,nan,nan,nan,nan,nan,nan,nan,168.0564534637233,548.7186800536147,nan,549.1105497581448,nan,nan,nan,nan
1,269,1,1,1.0,1.0,0.29571242078964133,0,5,0,1,6,8,3,nan,nan,nan,nan,nan,nan,nan,nan,nan,nan,nan,nan,0.0,nan,nan,nan,nan,nan,nan,nan,nan,nan,nan,nan,nan,nan,nan,nan,nan,nan,nan,168.0564534637233,549.7188034999417,nan,550.0145159207314,nan,nan,nan,nan
1,270,1,1,1.0,1.0,0.3275632862059865,0,1,4,2,0,6,8,nan,nan,nan,nan,nan,nan,nan,nan,nan,nan,nan,nan,0.0,nan,nan,nan,nan,nan,nan,nan,nan,nan,nan,nan,nan,nan,nan,nan,nan,nan,nan,168.0564534637233,550.718927516471,nan,551.046490802677,nan,nan,nan,nan
1,271,0,0,0.0,1.0,0.519420560580329,0,5,2,8,4,3,0,nan,nan,nan,nan,nan,nan,nan,nan,nan,nan,nan,nan,0.0,nan,nan,nan,nan,nan,nan,nan,nan,nan,nan,nan,nan,nan,nan,nan,nan,nan,nan,168.0564534637233,551.7190586603829,nan,552.2384792209632,nan,nan,nan,nan
1,272,1,1,1.0,1.0,0.4232595705834683,0,2,0,5,6,7,1,nan,nan,nan,nan,nan,nan,nan,nan,nan,nan,nan,nan,0.0,nan,nan,nan,nan,nan,nan,nan,nan,nan,nan,nan,nan,nan,nan,nan,nan,nan,nan,168.0564534637233,552.7191852427786,nan,553.1424448133621,nan,nan,nan,nan
1,273,1,1,1.0,1.0,0.3751052358566085,0,1,7,2,0,3,6,nan,nan,nan,nan,nan,nan,nan,nan,nan,nan,nan,nan,0.0,nan,nan,nan,nan,nan,nan,nan,nan,nan,nan,nan,nan,nan,nan,nan,nan,nan,nan,168.0564534637233,553.719317812167,nan,554.0944230480236,nan,nan,nan,nan
1,274,1,1,1.0,1.0,0.46295512284268625,0,3,2,6,5,8,1,nan,nan,nan,nan,nan,nan,nan,nan,nan,nan,nan,nan,0.0,nan,nan,nan,nan,nan,nan,nan,nan,nan,nan,nan,nan,nan,nan,nan,nan,nan,nan,168.0564534637233,554.7194415435952,nan,555.1823966664379,nan,nan,nan,nan
1,275,1,1,1.0,1.0,0.43879784365708474,0,8,0,1,6,7,5,nan,nan,nan,nan,nan,nan,nan,nan,nan,nan,nan,nan,0.0,nan,nan,nan,nan,nan,nan,nan,nan,nan,nan,nan,nan,nan,nan,nan,nan,nan,nan,168.0564534637233,555.7195678408898,nan,556.1583656845469,nan,nan,nan,nan
1,276,1,1,1.0,1.0,0.5666432033176534,0,6,1,7,8,5,0,nan,nan,nan,nan,nan,nan,nan,nan,nan,nan,nan,nan,0.0,nan,nan,nan,nan,nan,nan,nan,nan,nan,nan,nan,nan,nan,nan,nan,nan,nan,nan,168.0564534637233,556.7196989848017,nan,557.2863421881193,nan,nan,nan,nan
1,277,1,1,1.0,1.0,0.5344898516050307,0,8,3,2,5,1,6,nan,nan,nan,nan,nan,nan,nan,nan,nan,nan,nan,nan,0.0,nan,nan,nan,nan,nan,nan,nan,nan,nan,nan,nan,nan,nan,nan,nan,nan,nan,nan,168.0564534637233,557.7198309840023,nan,558.2543208356074,nan,nan,nan,nan
1,278,1,1,1.0,1.0,0.4463919315749081,0,1,8,0,7,6,2,nan,nan,nan,nan,nan,nan,nan,nan,nan,nan,nan,nan,0.0,nan,nan,nan,nan,nan,nan,nan,nan,nan,nan,nan,nan,nan,nan,nan,nan,nan,nan,168.0564534637233,558.7199550005316,nan,559.1663469321065,nan,nan,nan,nan
1,279,1,1,1.0,1.0,0.4701877097104443,0,8,4,6,0,2,1,nan,nan,nan,nan,nan,nan,nan,nan,nan,nan,nan,nan,0.0,nan,nan,nan,nan,nan,nan,nan,nan,nan,nan,nan,nan,nan,nan,nan,nan,nan,nan,168.0564534637233,559.7200830083893,nan,560.1902707180998,nan,nan,nan,nan
1,280,1,1,1.0,1.0,0.3820279239589581,0,0,3,4,5,6,8,nan,nan,nan,nan,nan,nan,nan,nan,nan,nan,nan,nan,0.0,nan,nan,nan,nan,nan,nan,nan,nan,nan,nan,nan,nan,nan,nan,nan,nan,nan,nan,168.0564534637233,560.7202175734565,nan,561.1022454974154,nan,nan,nan,nan
1,281,1,1,1.0,1.0,0.3578729255386861,0,3,7,2,8,5,4,nan,nan,nan,nan,nan,nan,nan,nan,nan,nan,nan,nan,0.0,nan,nan,nan,nan,nan,nan,nan,nan,nan,nan,nan,nan,nan,nan,nan,nan,nan,nan,168.0564534637233,561.7203384539316,nan,562.0782113794703,nan,nan,nan,nan
1,282,1,1,1.0,1.0,0.34972575241408776,0,0,3,5,2,8,7,nan,nan,nan,nan,nan,nan,nan,nan,nan,nan,nan,nan,0.0,nan,nan,nan,nan,nan,nan,nan,nan,nan,nan,nan,nan,nan,nan,nan,nan,nan,nan,168.0564534637233,562.7204656065151,nan,563.0701913589292,nan,nan,nan,nan
1,283,1,1,1.0,1.0,0.2535687537601916,0,8,2,7,5,3,0,nan,nan,nan,nan,nan,nan,nan,nan,nan,nan,nan,nan,0.0,nan,nan,nan,nan,nan,nan,nan,nan,nan,nan,nan,nan,nan,nan,nan,nan,nan,nan,168.0564534637233,563.7205953249504,nan,563.9741640787106,nan,nan,nan,nan
1,284,1,1,1.0,1.0,0.2854313081043074,0,0,6,8,1,5,3,nan,nan,nan,nan,nan,nan,nan,nan,nan,nan,nan,nan,0.0,nan,nan,nan,nan,nan,nan,nan,nan,nan,nan,nan,nan,nan,nan,nan,nan,nan,nan,168.0564534637233,564.7207210520428,nan,565.0061523601471,nan,nan,nan,nan
1,285,1,1,1.0,1.0,0.3172753312246641,0,1,2,5,6,4,7,nan,nan,nan,nan,nan,nan,nan,nan,nan,nan,nan,nan,0.0,nan,nan,nan,nan,nan,nan,nan,nan,nan,nan,nan,nan,nan,nan,nan,nan,nan,nan,168.0564534637233,565.7208513406804,nan,566.038126671905,nan,nan,nan,nan
1,286,1,1,1.0,1.0,0.2690956230217125,0,6,7,1,0,8,3,nan,nan,nan,nan,nan,nan,nan,nan,nan,nan,nan,nan,0.0,nan,nan,nan,nan,nan,nan,nan,nan,nan,nan,nan,nan,nan,nan,nan,nan,nan,nan,168.0564534637233,566.7209867610218,nan,566.9900823840435,nan,nan,nan,nan
1,287,1,1,1.0,1.0,0.2449483221716946,0,0,4,5,2,1,6,nan,nan,nan,nan,nan,nan,nan,nan,nan,nan,nan,nan,0.0,nan,nan,nan,nan,nan,nan,nan,nan,nan,nan,nan,nan,nan,nan,nan,nan,nan,nan,168.0564534637233,567.7211039352551,nan,567.9660522574268,nan,nan,nan,nan
1,288,1,1,1.0,1.0,0.22879709384869784,0,8,1,2,7,6,0,nan,nan,nan,nan,nan,nan,nan,nan,nan,nan,nan,nan,0.0,nan,nan,nan,nan,nan,nan,nan,nan,nan,nan,nan,nan,nan,nan,nan,nan,nan,nan,168.0564534637233,568.7212385003222,nan,568.9500355941709,nan,nan,nan,nan
1,289,1,1,1.0,1.0,0.30863579823926557,0,3,0,8,5,1,4,nan,nan,nan,nan,nan,nan,nan,nan,nan,nan,nan,nan,0.0,nan,nan,nan,nan,nan,nan,nan,nan,nan,nan,nan,nan,nan,nan,nan,nan,nan,nan,168.0564534637233,569.7213676485699,nan,570.0300034468091,nan,nan,nan,nan
1,290,1,1,1.0,1.0,0.26850547541107517,0,6,1,2,4,5,7,nan,nan,nan,nan,nan,nan,nan,nan,nan,nan,nan,nan,0.0,nan,nan,nan,nan,nan,nan,nan,nan,nan,nan,nan,nan,nan,nan,nan,nan,nan,nan,168.0564534637233,570.7214939458499,nan,570.989999421261,nan,nan,nan,nan
1,291,1,1,1.0,1.0,0.2843488006183179,0,0,8,6,3,7,5,nan,nan,nan,nan,nan,nan,nan,nan,nan,nan,nan,nan,0.0,nan,nan,nan,nan,nan,nan,nan,nan,nan,nan,nan,nan,nan,nan,nan,nan,nan,nan,168.0564534637233,571.7216168220039,nan,572.0059656226222,nan,nan,nan,nan
1,292,1,1,1.0,1.0,0.24418170045828447,0,2,3,1,7,6,8,nan,nan,nan,nan,nan,nan,nan,nan,nan,nan,nan,nan,0.0,nan,nan,nan,nan,nan,nan,nan,nan,nan,nan,nan,nan,nan,nan,nan,nan,nan,nan,168.0564534637233,572.7217493913922,nan,572.9659310918505,nan,nan,nan,nan
1,293,0,0,1.0,0.0,0.3160300342424307,0,4,7,6,5,8,0,nan,nan,nan,nan,nan,nan,nan,nan,nan,nan,nan,nan,0.0,nan,nan,nan,nan,nan,nan,nan,nan,nan,nan,nan,nan,nan,nan,nan,nan,nan,nan,168.0564534637233,573.7218685612897,nan,574.0378985955322,nan,nan,nan,nan
1,294,1,1,1.0,1.0,0.36384909668413457,0,7,1,3,8,4,2,nan,nan,nan,nan,nan,nan,nan,nan,nan,nan,nan,nan,0.0,nan,nan,nan,nan,nan,nan,nan,nan,nan,nan,nan,nan,nan,nan,nan,nan,nan,nan,168.0564534637233,574.7220002754038,nan,575.085849372088,nan,nan,nan,nan
1,295,1,1,1.0,1.0,0.26772602439450566,0,5,2,8,6,0,1,nan,nan,nan,nan,nan,nan,nan,nan,nan,nan,nan,nan,0.0,nan,nan,nan,nan,nan,nan,nan,nan,nan,nan,nan,nan,nan,nan,nan,nan,nan,nan,168.0564534637233,575.722126857785,nan,575.9898528821795,nan,nan,nan,nan
1,296,1,1,1.0,1.0,0.44357176723133307,0,1,6,0,5,2,7,nan,nan,nan,nan,nan,nan,nan,nan,nan,nan,nan,nan,0.0,nan,nan,nan,nan,nan,nan,nan,nan,nan,nan,nan,nan,nan,nan,nan,nan,nan,nan,168.0564534637233,576.7222574315092,nan,577.1658291987405,nan,nan,nan,nan
1,297,1,1,1.0,1.0,0.3474076411803253,0,5,2,6,3,4,0,nan,nan,nan,nan,nan,nan,nan,nan,nan,nan,nan,nan,0.0,nan,nan,nan,nan,nan,nan,nan,nan,nan,nan,nan,nan,nan,nan,nan,nan,nan,nan,168.0564534637233,577.7223874350457,nan,578.069795076226,nan,nan,nan,nan
1,298,1,1,1.0,1.0,0.2192740500177024,0,4,5,8,0,2,7,nan,nan,nan,nan,nan,nan,nan,nan,nan,nan,nan,nan,0.0,nan,nan,nan,nan,nan,nan,nan,nan,nan,nan,nan,nan,nan,nan,nan,nan,nan,nan,168.0564534637233,578.7225157280045,nan,578.9417897780222,nan,nan,nan,nan
1,299,1,1,1.0,1.0,0.5391015558561776,0,1,6,2,8,3,0,nan,nan,nan,nan,nan,nan,nan,nan,nan,nan,nan,nan,0.0,nan,nan,nan,nan,nan,nan,nan,nan,nan,nan,nan,nan,nan,nan,nan,nan,nan,nan,168.0564534637233,579.7226454464399,nan,580.261747002296,nan,nan,nan,nan
1,300,1,1,1.0,1.0,0.4429314428125508,0,6,1,5,0,8,7,nan,nan,nan,nan,nan,nan,nan,nan,nan,nan,nan,nan,0.0,nan,nan,nan,nan,nan,nan,nan,nan,nan,nan,nan,nan,nan,nan,nan,nan,nan,nan,168.0564534637233,580.7227837177343,nan,581.1657151605468,nan,nan,nan,nan
1,301,1,1,1.0,1.0,0.41879754145338666,0,7,2,3,8,4,6,nan,nan,nan,nan,nan,nan,nan,nan,nan,nan,nan,nan,0.0,nan,nan,nan,nan,nan,nan,nan,nan,nan,nan,nan,nan,nan,nan,nan,nan,nan,nan,168.0564534637233,581.7229057385994,nan,582.1417032800528,nan,nan,nan,nan
1,302,1,1,1.0,1.0,0.29065226136299316,0,4,0,7,2,5,8,nan,nan,nan,nan,nan,nan,nan,nan,nan,nan,nan,nan,0.0,nan,nan,nan,nan,nan,nan,nan,nan,nan,nan,nan,nan,nan,nan,nan,nan,nan,nan,168.0564534637233,582.7230257637857,nan,583.0136780251487,nan,nan,nan,nan
1,303,1,1,1.0,1.0,0.28249938633234706,0,6,8,3,4,2,5,nan,nan,nan,nan,nan,nan,nan,nan,nan,nan,nan,nan,0.0,nan,nan,nan,nan,nan,nan,nan,nan,nan,nan,nan,nan,nan,nan,nan,nan,nan,nan,168.0564534637233,583.7231571927987,nan,584.005656579131,nan,nan,nan,nan
1,304,1,1,1.0,1.0,0.2662743182881968,0,7,2,4,1,6,8,nan,nan,nan,nan,nan,nan,nan,nan,nan,nan,nan,nan,0.0,nan,nan,nan,nan,nan,nan,nan,nan,nan,nan,nan,nan,nan,nan,nan,nan,nan,nan,168.0564534637233,584.7233308159339,nan,584.9896051342221,nan,nan,nan,nan
1,305,1,1,1.0,1.0,0.2261682285607094,0,3,1,7,2,5,0,nan,nan,nan,nan,nan,nan,nan,nan,nan,nan,nan,nan,0.0,nan,nan,nan,nan,nan,nan,nan,nan,nan,nan,nan,nan,nan,nan,nan,nan,nan,nan,168.0564534637233,585.7234089320991,nan,585.9495771606598,nan,nan,nan,nan
1,306,1,1,1.0,1.0,0.24203521669551264,0,8,5,0,6,4,2,nan,nan,nan,nan,nan,nan,nan,nan,nan,nan,nan,nan,0.0,nan,nan,nan,nan,nan,nan,nan,nan,nan,nan,nan,nan,nan,nan,nan,nan,nan,nan,168.0564534637233,586.7235386505345,nan,586.96557386723,nan,nan,nan,nan
1,307,1,1,1.0,1.0,0.24186273393570445,1,0,4,6,2,5,7,1.0,1.0,1.0,1.0,1.0,1.0,0.0,0.0,1.0,0.0,0.0,0.0,1.0,1.0,2.0,6.0,3.0,0.0,4.0,2.0,4.0,5.0,6.0,1.0,3.0,2.821938210123335,5.38086844071222,6.3080735899857245,8.539908946215292,1.317471762013156,3.8202367603807943,168.0564534637233,587.7236700795474,588.5320876371989,587.9655328134832,598.124978154563,599.1297212878271,589.5488863173232,598.1166448141012
1,308,1,1,1.0,1.0,0.5837369572400348,0,2,8,4,7,0,3,nan,nan,nan,nan,nan,nan,nan,nan,nan,nan,nan,nan,0.0,nan,nan,nan,nan,nan,nan,nan,nan,nan,nan,nan,nan,nan,nan,nan,nan,nan,nan,168.0564534637233,599.3335055309872,nan,599.9172424882272,nan,nan,nan,nan
1,309,1,1,1.0,1.0,0.3356197989633074,1,6,2,8,4,3,0,1.0,1.0,1.0,1.0,1.0,1.0,1.0,0.0,0.0,0.0,0.0,0.0,1.0,6.0,1.0,0.0,2.0,8.0,2.0,1.0,4.0,3.0,2.0,6.0,5.0,0.7381674690695945,4.873777973931283,3.330664554683608,2.050347289041383,8.76151108580234,7.810732247759006,168.0564534637233,600.3336018932605,601.1420519517997,600.6692216922238,610.9516050447128,611.9526043043152,602.1504981900653,610.9432782614458
1,310,1,1,1.0,1.0,0.49312791635748,0,0,1,7,3,4,6,nan,nan,nan,nan,nan,nan,nan,nan,nan,nan,nan,nan,0.0,nan,nan,nan,nan,nan,nan,nan,nan,nan,nan,nan,nan,nan,nan,nan,nan,nan,nan,168.0564534637233,612.1517990806751,nan,612.6449269970326,nan,nan,nan,nan
1,311,1,1,1.0,1.0,0.40494731863145716,0,8,4,6,2,5,7,nan,nan,nan,nan,nan,nan,nan,nan,nan,nan,nan,nan,0.0,nan,nan,nan,nan,nan,nan,nan,nan,nan,nan,nan,nan,nan,nan,nan,nan,nan,nan,168.0564534637233,613.1519213866413,nan,613.5568687052728,nan,nan,nan,nan
1,312,1,1,1.0,1.0,0.5087936270865612,0,7,6,0,4,1,5,nan,nan,nan,nan,nan,nan,nan,nan,nan,nan,nan,nan,0.0,nan,nan,nan,nan,nan,nan,nan,nan,nan,nan,nan,nan,nan,nan,nan,nan,nan,nan,168.0564534637233,614.1520468286471,nan,614.6608404557337,nan,nan,nan,nan
1,313,1,1,1.0,1.0,0.3246498956432333,0,0,7,6,1,4,2,nan,nan,nan,nan,nan,nan,nan,nan,nan,nan,nan,nan,0.0,nan,nan,nan,nan,nan,nan,nan,nan,nan,nan,nan,nan,nan,nan,nan,nan,nan,nan,168.0564534637233,615.1521782576456,nan,615.4768281532888,nan,nan,nan,nan
1,314,1,1,1.0,1.0,0.7484822230035206,0,5,6,2,4,3,1,nan,nan,nan,nan,nan,nan,nan,nan,nan,nan,nan,nan,0.0,nan,nan,nan,nan,nan,nan,nan,nan,nan,nan,nan,nan,nan,nan,nan,nan,nan,nan,168.0564534637233,616.1523085462832,nan,616.9007907692867,nan,nan,nan,nan
1,315,1,1,1.0,1.0,0.7483393901784439,0,4,8,1,7,6,3,nan,nan,nan,nan,nan,nan,nan,nan,nan,nan,nan,nan,0.0,nan,nan,nan,nan,nan,nan,nan,nan,nan,nan,nan,nan,nan,nan,nan,nan,nan,nan,168.0564534637233,617.1524317075236,nan,617.9007710977021,nan,nan,nan,nan
1,316,1,1,1.0,1.0,0.34020527443499304,0,1,5,8,3,7,4,nan,nan,nan,nan,nan,nan,nan,nan,nan,nan,nan,nan,0.0,nan,nan,nan,nan,nan,nan,nan,nan,nan,nan,nan,nan,nan,nan,nan,nan,nan,nan,168.0564534637233,618.1525608557713,nan,618.4927661302063,nan,nan,nan,nan
1,317,1,1,1.0,1.0,0.36404353179386817,0,4,0,3,6,1,8,nan,nan,nan,nan,nan,nan,nan,nan,nan,nan,nan,nan,0.0,nan,nan,nan,nan,nan,nan,nan,nan,nan,nan,nan,nan,nan,nan,nan,nan,nan,nan,168.0564534637233,619.1526843020984,nan,619.5167278338922,nan,nan,nan,nan
1,318,1,1,1.0,1.0,0.41189737590320874,0,0,1,8,3,2,5,nan,nan,nan,nan,nan,nan,nan,nan,nan,nan,nan,nan,0.0,nan,nan,nan,nan,nan,nan,nan,nan,nan,nan,nan,nan,nan,nan,nan,nan,nan,nan,168.0564534637233,620.1528120248695,nan,620.5647094007727,nan,nan,nan,nan
1,319,1,1,1.0,1.0,0.3710537442093482,0,3,4,2,5,7,1,nan,nan,nan,nan,nan,nan,nan,nan,nan,nan,nan,nan,0.0,nan,nan,nan,nan,nan,nan,nan,nan,nan,nan,nan,nan,nan,nan,nan,nan,nan,nan,168.0564534637233,621.1696192578529,nan,621.5406730020622,nan,nan,nan,nan
1,320,1,1,1.0,1.0,0.754903428198304,0,8,6,4,0,2,5,nan,nan,nan,nan,nan,nan,nan,nan,nan,nan,nan,nan,0.0,nan,nan,nan,nan,nan,nan,nan,nan,nan,nan,nan,nan,nan,nan,nan,nan,nan,nan,168.0564534637233,622.1697415638046,nan,622.9246449920029,nan,nan,nan,nan
1,321,1,1,1.0,1.0,0.6907381321216235,0,7,4,3,5,6,2,nan,nan,nan,nan,nan,nan,nan,nan,nan,nan,nan,nan,0.0,nan,nan,nan,nan,nan,nan,nan,nan,nan,nan,nan,nan,nan,nan,nan,nan,nan,nan,168.0564534637233,623.1698678610992,nan,623.8606059932208,nan,nan,nan,nan
1,322,1,1,1.0,1.0,0.6666019499971299,0,5,7,2,4,1,8,nan,nan,nan,nan,nan,nan,nan,nan,nan,nan,nan,nan,0.0,nan,nan,nan,nan,nan,nan,nan,nan,nan,nan,nan,nan,nan,nan,nan,nan,nan,nan,168.0564534637233,624.1699918776285,nan,624.8365938276256,nan,nan,nan,nan
1,323,1,1,nan,nan,nan,0,8,0,1,2,3,6,nan,nan,nan,nan,nan,nan,nan,nan,nan,nan,nan,nan,0.0,nan,nan,nan,nan,nan,nan,nan,nan,nan,nan,nan,nan,nan,nan,nan,nan,nan,nan,168.0564534637233,625.1701298638363,nan,nan,nan,nan,nan,nan
1,324,1,1,1.0,1.0,0.7782749842735939,0,5,8,2,0,6,7,nan,nan,nan,nan,nan,nan,nan,nan,nan,nan,nan,nan,0.0,nan,nan,nan,nan,nan,nan,nan,nan,nan,nan,nan,nan,nan,nan,nan,nan,nan,nan,168.0564534637233,626.170245327492,nan,626.9485203117656,nan,nan,nan,nan
1,325,0,0,0.0,1.0,0.5461226018815069,0,3,2,6,1,4,0,nan,nan,nan,nan,nan,nan,nan,nan,nan,nan,nan,nan,0.0,nan,nan,nan,nan,nan,nan,nan,nan,nan,nan,nan,nan,nan,nan,nan,nan,nan,nan,168.0564534637233,627.1703881603316,nan,627.7165107622131,nan,nan,nan,nan
1,326,1,1,1.0,1.0,0.4499952531623421,0,4,1,2,8,0,7,nan,nan,nan,nan,nan,nan,nan,nan,nan,nan,nan,nan,0.0,nan,nan,nan,nan,nan,nan,nan,nan,nan,nan,nan,nan,nan,nan,nan,nan,nan,nan,168.0564534637233,628.1705079004169,nan,628.6205031535792,nan,nan,nan,nan
1,327,1,1,1.0,1.0,0.537820907033165,0,5,7,6,0,2,3,nan,nan,nan,nan,nan,nan,nan,nan,nan,nan,nan,nan,0.0,nan,nan,nan,nan,nan,nan,nan,nan,nan,nan,nan,nan,nan,nan,nan,nan,nan,nan,168.0564534637233,629.170641325094,nan,629.7084622321272,nan,nan,nan,nan
1,328,1,1,1.0,1.0,0.36168009038374294,0,1,3,2,7,6,5,nan,nan,nan,nan,nan,nan,nan,nan,nan,nan,nan,nan,0.0,nan,nan,nan,nan,nan,nan,nan,nan,nan,nan,nan,nan,nan,nan,nan,nan,nan,nan,168.0564534637233,630.1707673373021,nan,630.5324474276858,nan,nan,nan,nan
1,329,1,1,1.0,1.0,0.40952823257248383,0,5,1,7,3,2,8,nan,nan,nan,nan,nan,nan,nan,nan,nan,nan,nan,nan,0.0,nan,nan,nan,nan,nan,nan,nan,nan,nan,nan,nan,nan,nan,nan,nan,nan,nan,nan,168.0564534637233,631.1708967706363,nan,631.5804250032088,nan,nan,nan,nan
1,330,1,1,1.0,1.0,0.32936651502677705,0,2,8,6,7,4,1,nan,nan,nan,nan,nan,nan,nan,nan,nan,nan,nan,nan,0.0,nan,nan,nan,nan,nan,nan,nan,nan,nan,nan,nan,nan,nan,nan,nan,nan,nan,nan,168.0564534637233,632.1710250635952,nan,632.5003915786219,nan,nan,nan,nan
1,331,1,1,1.0,1.0,0.4012054406484822,0,8,5,4,6,7,3,nan,nan,nan,nan,nan,nan,nan,nan,nan,nan,nan,nan,0.0,nan,nan,nan,nan,nan,nan,nan,nan,nan,nan,nan,nan,nan,nan,nan,nan,nan,nan,168.0564534637233,633.1711542118428,nan,633.5723596524913,nan,nan,nan,nan
1,332,1,1,1.0,1.0,0.33705610992910806,0,5,4,8,2,6,0,nan,nan,nan,nan,nan,nan,nan,nan,nan,nan,nan,nan,0.0,nan,nan,nan,nan,nan,nan,nan,nan,nan,nan,nan,nan,nan,nan,nan,nan,nan,nan,168.0564534637233,634.1712773730833,nan,634.5083334830124,nan,nan,nan,nan
1,333,1,1,1.0,1.0,0.35289915004977956,0,2,1,6,4,7,5,nan,nan,nan,nan,nan,nan,nan,nan,nan,nan,nan,nan,0.0,nan,nan,nan,nan,nan,nan,nan,nan,nan,nan,nan,nan,nan,nan,nan,nan,nan,nan,168.0564534637233,635.1714107977605,nan,635.5243099478103,nan,nan,nan,nan
1,334,1,1,1.0,1.0,0.3287375944200903,0,6,8,5,1,4,3,nan,nan,nan,nan,nan,nan,nan,nan,nan,nan,nan,nan,0.0,nan,nan,nan,nan,nan,nan,nan,nan,nan,nan,nan,nan,nan,nan,nan,nan,nan,nan,168.0564534637233,636.1715393758204,nan,636.5002769702405,nan,nan,nan,nan
1,335,0,0,0.0,1.0,0.5205837500689086,0,7,0,1,2,5,6,nan,nan,nan,nan,nan,nan,nan,nan,nan,nan,nan,nan,0.0,nan,nan,nan,nan,nan,nan,nan,nan,nan,nan,nan,nan,nan,nan,nan,nan,nan,nan,168.0564534637233,637.1716696644435,nan,637.6922534145124,nan,nan,nan,nan
1,336,1,1,1.0,1.0,0.37643577640119474,0,2,1,3,4,6,5,nan,nan,nan,nan,nan,nan,nan,nan,nan,nan,nan,nan,0.0,nan,nan,nan,nan,nan,nan,nan,nan,nan,nan,nan,nan,nan,nan,nan,nan,nan,nan,168.0564534637233,638.1717945362616,nan,638.5482303126628,nan,nan,nan,nan
1,337,1,1,1.0,1.0,0.2962968664942309,0,6,8,2,7,3,0,nan,nan,nan,nan,nan,nan,nan,nan,nan,nan,nan,nan,0.0,nan,nan,nan,nan,nan,nan,nan,nan,nan,nan,nan,nan,nan,nan,nan,nan,nan,nan,168.0564534637233,639.1719137061591,nan,639.4682105726533,nan,nan,nan,nan
1,338,1,1,1.0,1.0,0.46411945272120647,0,8,4,6,3,1,2,nan,nan,nan,nan,nan,nan,nan,nan,nan,nan,nan,nan,0.0,nan,nan,nan,nan,nan,nan,nan,nan,nan,nan,nan,nan,nan,nan,nan,nan,nan,nan,168.0564534637233,640.1720502668904,nan,640.6361697196116,nan,nan,nan,nan
1,339,0,0,0.0,1.0,0.5199790625774767,0,6,3,1,5,0,4,nan,nan,nan,nan,nan,nan,nan,nan,nan,nan,nan,nan,0.0,nan,nan,nan,nan,nan,nan,nan,nan,nan,nan,nan,nan,nan,nan,nan,nan,nan,nan,168.0564534637233,641.1721722877555,nan,641.692151350333,nan,nan,nan,nan
1,340,1,1,1.0,1.0,0.5518259366799612,0,5,2,8,1,4,7,nan,nan,nan,nan,nan,nan,nan,nan,nan,nan,nan,nan,0.0,nan,nan,nan,nan,nan,nan,nan,nan,nan,nan,nan,nan,nan,nan,nan,nan,nan,nan,168.0564534637233,642.1722943086061,nan,642.724120245286,nan,nan,nan,nan
1,341,1,1,1.0,1.0,0.6076556115149288,0,6,1,4,7,8,5,nan,nan,nan,nan,nan,nan,nan,nan,nan,nan,nan,nan,0.0,nan,nan,nan,nan,nan,nan,nan,nan,nan,nan,nan,nan,nan,nan,nan,nan,nan,nan,168.0564534637233,643.1724348606804,nan,643.7800904721953,nan,nan,nan,nan
1,342,1,1,1.0,1.0,0.5515123316727113,0,5,6,7,8,4,0,nan,nan,nan,nan,nan,nan,nan,nan,nan,nan,nan,nan,0.0,nan,nan,nan,nan,nan,nan,nan,nan,nan,nan,nan,nan,nan,nan,nan,nan,nan,nan,168.0564534637233,644.1725531752891,nan,644.7240655069618,nan,nan,nan,nan
1,343,1,1,1.0,1.0,0.43936946005851496,0,8,7,5,2,0,1,nan,nan,nan,nan,nan,nan,nan,nan,nan,nan,nan,nan,0.0,nan,nan,nan,nan,nan,nan,nan,nan,nan,nan,nan,nan,nan,nan,nan,nan,nan,nan,168.0564534637233,645.1726826086378,nan,645.6120520686964,nan,nan,nan,nan
1,344,1,1,1.0,1.0,0.3672092318593059,0,0,2,8,7,1,4,nan,nan,nan,nan,nan,nan,nan,nan,nan,nan,nan,nan,0.0,nan,nan,nan,nan,nan,nan,nan,nan,nan,nan,nan,nan,nan,nan,nan,nan,nan,nan,168.0564534637233,646.1728074804414,nan,646.5400167123007,nan,nan,nan,nan
1,345,1,1,1.0,1.0,0.3110725091828499,0,3,6,7,1,8,2,nan,nan,nan,nan,nan,nan,nan,nan,nan,nan,nan,nan,0.0,nan,nan,nan,nan,nan,nan,nan,nan,nan,nan,nan,nan,nan,nan,nan,nan,nan,nan,168.0564534637233,647.1729371988913,nan,647.4840097080742,nan,nan,nan,nan
1,346,1,1,1.0,1.0,0.2949038900405867,0,4,0,8,5,6,3,nan,nan,nan,nan,nan,nan,nan,nan,nan,nan,nan,nan,0.0,nan,nan,nan,nan,nan,nan,nan,nan,nan,nan,nan,nan,nan,nan,nan,nan,nan,nan,168.0564534637233,648.1730629259837,nan,648.4679668160243,nan,nan,nan,nan
1,347,1,1,1.0,1.0,0.27074461519077886,1,0,6,5,7,3,2,1.0,1.0,1.0,1.0,1.0,1.0,1.0,0.0,0.0,1.0,0.0,0.0,2.0,0.0,2.0,1.0,7.0,6.0,8.0,1.0,5.0,4.0,2.0,3.0,6.0,0.7870382486871677,5.681009249354247,4.129773460284923,1.7072055313037708,2.529523488585255,6.448903907716158,168.0564534637233,649.1731980612385,649.981617044381,649.4439426764293,657.4825659846392,658.486229746457,650.9984088822093,657.474232929264
1,348,1,1,1.0,1.0,0.4166188419039827,1,1,7,3,2,5,8,1.0,1.0,1.0,1.0,1.0,1.0,0.0,0.0,0.0,0.0,0.0,0.0,0.0,8.0,3.0,4.0,6.0,1.0,2.0,1.0,6.0,5.0,4.0,3.0,2.0,1.019581211861805,6.242802408596617,5.131029590920662,4.178989775624359,2.7555406165483873,1.8134261148079531,168.0564534637233,658.6910722640023,659.499496093762,659.1076911059063,666.7920938465832,667.7992280755134,660.5079563017061,666.7837625017855
1,349,1,1,1.0,1.0,0.2508187229104806,0,6,8,0,3,1,7,nan,nan,nan,nan,nan,nan,nan,nan,nan,nan,nan,nan,0.0,nan,nan,nan,nan,nan,nan,nan,nan,nan,nan,nan,nan,nan,nan,nan,nan,nan,nan,168.0564534637233,668.0006428902707,nan,668.2514616131812,nan,nan,nan,nan
1,350,1,1,1.0,1.0,0.3783638770401012,0,0,6,3,5,4,8,nan,nan,nan,nan,nan,nan,nan,nan,nan,nan,nan,nan,0.0,nan,nan,nan,nan,nan,nan,nan,nan,nan,nan,nan,nan,nan,nan,nan,nan,nan,nan,168.0564534637233,669.0090999621607,nan,669.3874638392008,nan,nan,nan,nan
1,351,1,1,1.0,1.0,0.28219205341883935,0,4,1,8,6,2,7,nan,nan,nan,nan,nan,nan,nan,nan,nan,nan,nan,nan,0.0,nan,nan,nan,nan,nan,nan,nan,nan,nan,nan,nan,nan,nan,nan,nan,nan,nan,nan,168.0564534637233,670.0091931883799,nan,670.2913852417987,nan,nan,nan,nan
1,352,1,1,1.0,1.0,0.3300624330440769,0,8,7,2,3,5,6,nan,nan,nan,nan,nan,nan,nan,nan,nan,nan,nan,nan,0.0,nan,nan,nan,nan,nan,nan,nan,nan,nan,nan,nan,nan,nan,nan,nan,nan,nan,nan,168.0564534637233,671.009322051541,nan,671.339384484585,nan,nan,nan,nan
1,353,1,1,1.0,1.0,0.29790280923771206,0,0,8,3,7,6,1,nan,nan,nan,nan,nan,nan,nan,nan,nan,nan,nan,nan,0.0,nan,nan,nan,nan,nan,nan,nan,nan,nan,nan,nan,nan,nan,nan,nan,nan,nan,nan,168.0564534637233,672.0094472084456,nan,672.3073500176833,nan,nan,nan,nan
1,354,1,1,1.0,1.0,0.2897365347307641,0,8,6,5,1,2,0,nan,nan,nan,nan,nan,nan,nan,nan,nan,nan,nan,nan,0.0,nan,nan,nan,nan,nan,nan,nan,nan,nan,nan,nan,nan,nan,nan,nan,nan,nan,nan,168.0564534637233,673.0095789225452,nan,673.299315457276,nan,nan,nan,nan
1,355,0,0,1.0,0.0,0.22558805928565562,0,7,8,3,4,6,1,nan,nan,nan,nan,nan,nan,nan,nan,nan,nan,nan,nan,0.0,nan,nan,nan,nan,nan,nan,nan,nan,nan,nan,nan,nan,nan,nan,nan,nan,nan,nan,168.0564534637233,674.0097040794644,nan,674.2352921387501,nan,nan,nan,nan
1,356,1,1,1.0,1.0,0.34540056910191197,0,0,2,4,8,1,5,nan,nan,nan,nan,nan,nan,nan,nan,nan,nan,nan,nan,0.0,nan,nan,nan,nan,nan,nan,nan,nan,nan,nan,nan,nan,nan,nan,nan,nan,nan,nan,168.0564534637233,675.0098309469467,nan,675.3552315160487,nan,nan,nan,nan
1,357,1,1,1.0,1.0,0.23328307099291123,0,4,5,1,2,7,6,nan,nan,nan,nan,nan,nan,nan,nan,nan,nan,nan,nan,0.0,nan,nan,nan,nan,nan,nan,nan,nan,nan,nan,nan,nan,nan,nan,nan,nan,nan,nan,168.0564534637233,676.0099606653821,nan,676.243243736375,nan,nan,nan,nan
1,358,1,1,1.0,1.0,0.2491121414495865,0,8,4,0,3,5,1,nan,nan,nan,nan,nan,nan,nan,nan,nan,nan,nan,nan,0.0,nan,nan,nan,nan,nan,nan,nan,nan,nan,nan,nan,nan,nan,nan,nan,nan,nan,nan,168.0564534637233,677.010087817951,nan,677.2591999594006,nan,nan,nan,nan
1,359,1,1,1.0,1.0,0.2889622154470999,0,7,3,6,4,1,5,nan,nan,nan,nan,nan,nan,nan,nan,nan,nan,nan,nan,0.0,nan,nan,nan,nan,nan,nan,nan,nan,nan,nan,nan,nan,nan,nan,nan,nan,nan,nan,168.0564534637233,678.0102178214875,nan,678.2991800369346,nan,nan,nan,nan
1,360,1,1,1.0,1.0,0.21682450977095868,0,1,6,7,0,3,2,nan,nan,nan,nan,nan,nan,nan,nan,nan,nan,nan,nan,0.0,nan,nan,nan,nan,nan,nan,nan,nan,nan,nan,nan,nan,nan,nan,nan,nan,nan,nan,168.0564534637233,679.0103432634933,nan,679.2271677732642,nan,nan,nan,nan
1,361,1,1,1.0,1.0,0.2486625458986964,0,8,4,0,3,2,7,nan,nan,nan,nan,nan,nan,nan,nan,nan,nan,nan,nan,0.0,nan,nan,nan,nan,nan,nan,nan,nan,nan,nan,nan,nan,nan,nan,nan,nan,nan,nan,168.0564534637233,680.0104718415532,nan,680.2591343874519,nan,nan,nan,nan
1,362,1,1,1.0,1.0,0.2485160068317782,0,7,3,1,8,0,6,nan,nan,nan,nan,nan,nan,nan,nan,nan,nan,nan,nan,0.0,nan,nan,nan,nan,nan,nan,nan,nan,nan,nan,nan,nan,nan,nan,nan,nan,nan,nan,168.0564534637233,681.0105998494109,nan,681.2591158562427,nan,nan,nan,nan
1,363,0,0,0.0,1.0,0.4563614349026466,0,8,0,6,1,7,2,nan,nan,nan,nan,nan,nan,nan,nan,nan,nan,nan,nan,0.0,nan,nan,nan,nan,nan,nan,nan,nan,nan,nan,nan,nan,nan,nan,nan,nan,nan,nan,168.0564534637233,682.0107270019944,nan,682.467088436897,nan,nan,nan,nan
1,364,1,1,1.0,1.0,0.3041920152172679,0,0,4,2,6,8,5,nan,nan,nan,nan,nan,nan,nan,nan,nan,nan,nan,nan,0.0,nan,nan,nan,nan,nan,nan,nan,nan,nan,nan,nan,nan,nan,nan,nan,nan,nan,nan,168.0564534637233,683.0108775323897,nan,683.315069547607,nan,nan,nan,nan
1,365,0,0,1.0,0.0,0.2480892189196311,0,5,8,4,1,6,2,nan,nan,nan,nan,nan,nan,nan,nan,nan,nan,nan,nan,0.0,nan,nan,nan,nan,nan,nan,nan,nan,nan,nan,nan,nan,nan,nan,nan,nan,nan,nan,168.0564534637233,684.0109479509701,nan,684.2590371698898,nan,nan,nan,nan
1,366,1,1,1.0,1.0,0.2398778993083397,1,4,6,3,5,7,8,1.0,1.0,1.0,1.0,1.0,1.0,0.0,0.0,1.0,0.0,0.0,0.0,1.0,2.0,1.0,3.0,0.0,6.0,4.0,3.0,2.0,6.0,5.0,1.0,4.0,3.8174248638097197,2.419680197010166,6.969226795437862,6.129651154347812,1.371902188315289,4.970045019421377,168.0564534637233,685.0111355437984,685.8195359957317,685.2510134431068,693.8538800209935,694.8645166477218,686.8446805605054,693.8455481060082
1,367,1,1,1.0,1.0,0.43601987343572546,0,5,4,8,0,6,2,nan,nan,nan,nan,nan,nan,nan,nan,nan,nan,nan,nan,0.0,nan,nan,nan,nan,nan,nan,nan,nan,nan,nan,nan,nan,nan,nan,nan,nan,nan,nan,168.0564534637233,695.0707373167388,nan,695.5067571901745,nan,nan,nan,nan
1,368,0,0,1.0,0.0,0.29986654680396896,0,7,2,1,4,5,8,nan,nan,nan,nan,nan,nan,nan,nan,nan,nan,nan,nan,0.0,nan,nan,nan,nan,nan,nan,nan,nan,nan,nan,nan,nan,nan,nan,nan,nan,nan,nan,168.0564534637233,696.070862473658,nan,696.370729020462,nan,nan,nan,nan
1,369,1,1,0.0,0.0,0.059716666422900744,0,4,7,3,0,2,5,nan,nan,nan,nan,nan,nan,nan,nan,nan,nan,nan,nan,0.0,nan,nan,nan,nan,nan,nan,nan,nan,nan,nan,nan,nan,nan,nan,nan,nan,nan,nan,168.0564534637233,697.0709847796097,nan,697.1307014460326,nan,nan,nan,nan
1,370,1,1,1.0,1.0,0.5395406028692378,0,2,3,6,4,8,0,nan,nan,nan,nan,nan,nan,nan,nan,nan,nan,nan,nan,0.0,nan,nan,nan,nan,nan,nan,nan,nan,nan,nan,nan,nan,nan,nan,nan,nan,nan,nan,168.0564534637233,698.0711073706625,nan,698.6106479735317,nan,nan,nan,nan
1,371,1,1,1.0,1.0,0.3714058370969724,0,0,1,8,5,2,4,nan,nan,nan,nan,nan,nan,nan,nan,nan,nan,nan,nan,0.0,nan,nan,nan,nan,nan,nan,nan,nan,nan,nan,nan,nan,nan,nan,nan,nan,nan,nan,168.0564534637233,699.0712399400509,nan,699.4426457771478,nan,nan,nan,nan
1,372,1,1,1.0,1.0,0.3152440260309959,0,1,8,0,4,3,2,nan,nan,nan,nan,nan,nan,nan,nan,nan,nan,nan,nan,0.0,nan,nan,nan,nan,nan,nan,nan,nan,nan,nan,nan,nan,nan,nan,nan,nan,nan,nan,168.0564534637233,700.0713690882985,nan,700.3866131143295,nan,nan,nan,nan
1,373,1,1,1.0,1.0,0.2911010016250657,0,7,4,6,3,1,5,nan,nan,nan,nan,nan,nan,nan,nan,nan,nan,nan,nan,0.0,nan,nan,nan,nan,nan,nan,nan,nan,nan,nan,nan,nan,nan,nan,nan,nan,nan,nan,168.0564534637233,701.0714993769216,nan,701.3626003785466,nan,nan,nan,nan
1,374,1,1,1.0,1.0,0.25894964557664935,0,6,0,7,2,4,8,nan,nan,nan,nan,nan,nan,nan,nan,nan,nan,nan,nan,0.0,nan,nan,nan,nan,nan,nan,nan,nan,nan,nan,nan,nan,nan,nan,nan,nan,nan,nan,168.0564534637233,702.0716251040285,nan,702.3305747496051,nan,nan,nan,nan
1,375,0,0,0.0,1.0,0.3867744783638045,0,7,6,5,3,0,1,nan,nan,nan,nan,nan,nan,nan,nan,nan,nan,nan,nan,0.0,nan,nan,nan,nan,nan,nan,nan,nan,nan,nan,nan,nan,nan,nan,nan,nan,nan,nan,168.0564534637233,703.071751116222,nan,703.4585255945858,nan,nan,nan,nan
1,376,1,1,1.0,1.0,0.32263911732297856,0,0,7,1,5,8,4,nan,nan,nan,nan,nan,nan,nan,nan,nan,nan,nan,nan,0.0,nan,nan,nan,nan,nan,nan,nan,nan,nan,nan,nan,nan,nan,nan,nan,nan,nan,nan,168.0564534637233,704.0718794091808,nan,704.3945185265038,nan,nan,nan,nan
1,377,1,1,1.0,1.0,0.29014450634713285,0,5,1,0,3,4,7,nan,nan,nan,nan,nan,nan,nan,nan,nan,nan,nan,nan,0.0,nan,nan,nan,nan,nan,nan,nan,nan,nan,nan,nan,nan,nan,nan,nan,nan,nan,nan,168.0564534637233,705.0803450339299,nan,705.370489540277,nan,nan,nan,nan
1,378,1,1,1.0,1.0,0.3140024352906039,0,2,8,3,6,5,1,nan,nan,nan,nan,nan,nan,nan,nan,nan,nan,nan,nan,0.0,nan,nan,nan,nan,nan,nan,nan,nan,nan,nan,nan,nan,nan,nan,nan,nan,nan,nan,168.0564534637233,706.080472756701,nan,706.3944751919917,nan,nan,nan,nan
1,379,1,1,1.0,1.0,0.3698372418584768,1,4,0,1,8,6,5,1.0,1.0,1.0,1.0,1.0,1.0,0.0,0.0,0.0,0.0,1.0,0.0,1.0,0.0,4.0,6.0,1.0,6.0,1.0,2.0,1.0,6.0,5.0,4.0,3.0,1.74833653922542,0.9881736698880559,8.140303746404243,6.771857770436327,4.156454119438422,2.8848048963409383,168.0564534637233,707.0806001943711,707.8889878170157,707.4504374362295,717.0735264056857,718.0767317340069,708.8975001974322,717.0651828017872
1,380,1,1,1.0,1.0,0.488139600987779,0,0,3,8,1,2,4,nan,nan,nan,nan,nan,nan,nan,nan,nan,nan,nan,nan,0.0,nan,nan,nan,nan,nan,nan,nan,nan,nan,nan,nan,nan,nan,nan,nan,nan,nan,nan,168.0564534637233,718.2820315446734,nan,718.7701711456612,nan,nan,nan,nan
1,381,1,1,1.0,1.0,0.3919138943310827,1,4,5,1,2,3,6,1.0,1.0,1.0,1.0,1.0,1.0,0.0,0.0,0.0,1.0,0.0,0.0,1.0,1.0,4.0,8.0,2.0,6.0,3.0,2.0,3.0,6.0,1.0,5.0,4.0,2.139360935703735,3.450950322963763,6.354131902844529,1.1003547442815034,5.402409683898441,4.57831985829398,168.0564534637233,719.2822028870432,720.0905756847205,719.6741167813743,727.4915162716788,728.4972743448016,721.0990490070544,727.4831977561844
1,382,0,0,1.0,0.0,0.6378281199285993,0,7,0,5,6,2,8,nan,nan,nan,nan,nan,nan,nan,nan,nan,nan,nan,nan,0.0,nan,nan,nan,nan,nan,nan,nan,nan,nan,nan,nan,nan,nan,nan,nan,nan,nan,nan,168.0564534637233,728.700032529392,nan,729.3378606493206,nan,nan,nan,nan
1,383,1,1,1.0,1.0,0.5736699512490304,0,0,2,8,1,6,5,nan,nan,nan,nan,nan,nan,nan,nan,nan,nan,nan,nan,0.0,nan,nan,nan,nan,nan,nan,nan,nan,nan,nan,nan,nan,nan,nan,nan,nan,nan,nan,168.0564534637233,729.7001645285927,nan,730.2738344798418,nan,nan,nan,nan
1,384,1,1,1.0,1.0,0.3815349939104635,0,4,6,3,0,7,2,nan,nan,nan,nan,nan,nan,nan,nan,nan,nan,nan,nan,0.0,nan,nan,nan,nan,nan,nan,nan,nan,nan,nan,nan,nan,nan,nan,nan,nan,nan,nan,168.0564534637233,730.7002874047321,nan,731.0818223986425,nan,nan,nan,nan
