block,trial,time,setsize,freqtrials,trials_colorind,trials_colordeg,colorrgb0,colorrgb1,colorrgb2,correct_response,actual_response,acc,rts,probe_trials,rt_triggered_fast,rt_triggered_slow,rt_strailingavg,rts_runningavg,rts_runningstd,rts_runningslowthresh,rts_runningfastthresh,wm_respdeg,wm_respind,wm_resprgb0,wm_resprgb1,wm_resprgb2,wm_respcolorminusorigcolor,wm_rts,time_blockstart,time_encarray_onset,time_response,time_encarray_offest,time_memprobe_onset,time_memprobe_offset
0,0,1309,6,1,457,321,0.391639248186,0.390358177281,-1.0,1,1.0,1.0,0.410876108799,0,nan,nan,nan,nan,nan,nan,nan,nan,nan,0.0,0.0,0.0,nan,nan,125.853164206,126.866269831,127.277145939,127.366336543,nan,nan
0,1,1310,6,1,243,170,0.622151010882,0.20168048164,0.647463484622,1,1.0,1.0,0.257686927915,0,nan,nan,nan,nan,nan,nan,nan,nan,nan,0.0,0.0,0.0,nan,nan,125.853164206,127.891427361,128.149114289,128.391443326,nan,nan
0,2,1311,6,1,425,298,0.149162615564,0.447529597292,-0.791715667876,1,1.0,1.0,0.273216732778,0,nan,nan,nan,nan,nan,nan,nan,nan,nan,0.0,0.0,0.0,nan,nan,125.853164206,128.899878206,129.173094939,129.39993152,nan,nan
0,3,1317,6,1,91,63,1.0,-0.237709898716,-0.562722318432,1,1.0,1.0,0.281047206838,1,nan,nan,nan,nan,nan,nan,nan,20.7971622792,98.0,1.0,-0.263822910468,-0.480217789416,5.21846272084,2.83396605868,125.853164206,129.900018189,130.181065396,130.400061239,131.725219795,134.567224164
0,4,1318,6,1,256,180,0.481312611765,0.257047908656,0.656065722404,1,1.0,1.0,0.357186354697,0,nan,nan,nan,nan,nan,nan,nan,nan,nan,0.0,0.0,0.0,nan,nan,125.853164206,135.775745543,136.132931897,136.275805128,nan,nan
0,5,1319,6,1,53,37,1.0,-0.049257555853,-1.0,1,1.0,1.0,0.285071066115,0,nan,nan,nan,nan,nan,nan,nan,nan,nan,0.0,0.0,0.0,nan,nan,125.853164206,136.775885526,137.060956592,137.275925154,nan,nan
0,6,1320,6,1,136,95,1.0,-0.301914900238,-0.074841205769,1,1.0,1.0,0.364899084438,0,nan,nan,nan,nan,nan,nan,nan,nan,nan,0.0,0.0,0.0,nan,nan,125.853164206,137.776018951,138.140918035,138.276048031,nan,nan
0,7,1321,6,1,387,272,-0.0787219327085,0.477231755363,-0.256974454483,1,1.0,1.0,0.260793345049,0,nan,nan,nan,nan,nan,nan,nan,nan,nan,0.0,0.0,0.0,nan,nan,125.853164206,138.776150951,139.036944296,139.276170623,nan,nan
0,8,1322,6,1,440,309,0.258699398066,0.424657399123,-1.0,1,1.0,1.0,0.236642207019,0,nan,nan,nan,nan,nan,nan,nan,nan,nan,0.0,0.0,0.0,nan,nan,125.853164206,139.776288653,140.01293086,140.276302337,nan,nan
0,9,1323,6,0,501,352,0.7564492333,0.256253544744,-1.0,0,1.0,0.0,0.228422860615,0,0.0,0.0,nan,nan,nan,nan,nan,nan,nan,0.0,0.0,0.0,nan,nan,125.853164206,140.776434907,141.004857768,141.276461136,nan,nan
0,10,1324,6,1,432,303,0.199227897075,0.437687328843,-1.0,1,1.0,1.0,0.236296099611,0,nan,nan,nan,nan,nan,nan,nan,nan,nan,0.0,0.0,0.0,nan,nan,125.853164206,141.776543244,142.012839344,142.276561205,nan,nan
0,11,1325,6,1,386,271,-0.0833946583454,0.477495592553,-0.245424736514,1,1.0,1.0,0.252127536107,0,nan,nan,nan,nan,nan,nan,nan,nan,nan,0.0,0.0,0.0,nan,nan,125.853164206,142.776686078,143.028813614,143.276690354,nan,nan
0,12,1326,6,1,158,111,1.0,-0.235949227405,0.139764106,1,1.0,1.0,0.235960825346,0,nan,nan,nan,nan,nan,nan,nan,nan,nan,0.0,0.0,0.0,nan,nan,125.853164206,143.776808099,144.012768925,144.276826631,nan,nan
0,13,1327,6,1,79,55,1.0,-0.184296021705,-0.724170777997,1,1.0,1.0,0.259826296009,0,nan,nan,nan,nan,nan,nan,nan,nan,nan,0.0,0.0,0.0,nan,nan,125.853164206,144.776936678,145.036762974,145.276958916,nan,nan
0,14,1328,6,1,475,333,0.539218753276,0.343659807328,-1.0,1,1.0,1.0,0.26768756099,0,nan,nan,nan,nan,nan,nan,nan,nan,nan,0.0,0.0,0.0,nan,nan,125.853164206,145.777079512,146.044767073,146.277088635,nan,nan
0,15,1334,6,1,347,243,-0.174938837379,0.46723881498,0.167157479366,1,1.0,1.0,0.259575981181,1,nan,nan,nan,nan,nan,nan,nan,-159.685835262,355.0,-0.173737462994,0.472683863687,0.0888799762457,5.70146026226,3.61743231351,125.853164206,146.77719127,147.036767251,147.277216358,148.602378051,152.227850956
0,16,1335,6,1,403,283,0.00657627305109,0.469456436931,-0.450524507496,1,1.0,1.0,0.351901796646,0,nan,nan,nan,nan,nan,nan,nan,nan,nan,0.0,0.0,0.0,nan,nan,125.853164206,153.444700588,153.796602385,153.944754472,nan,nan
0,17,1336,6,1,254,178,0.503011129055,0.248947817922,0.65613358125,1,1.0,1.0,0.247760420199,0,nan,nan,nan,nan,nan,nan,nan,nan,nan,0.0,0.0,0.0,nan,nan,125.853164206,154.44483829,154.69259871,154.944875068,nan,nan
0,18,1337,6,1,20,14,1.0,0.121558187834,-1.0,1,1.0,1.0,0.247589076869,0,nan,nan,nan,nan,nan,nan,nan,nan,nan,0.0,0.0,0.0,nan,nan,125.853164206,155.444979983,155.69256906,155.945006212,nan,nan
0,19,1338,6,1,133,93,1.0,-0.306259573676,-0.105336427414,1,1.0,1.0,0.239448131993,0,nan,nan,nan,nan,nan,nan,nan,nan,nan,0.0,0.0,0.0,nan,nan,125.853164206,156.445114264,156.684562396,156.945153607,nan,nan
0,20,1339,6,0,390,274,-0.0641960347588,0.476284203309,-0.291947553613,0,1.0,0.0,0.199264278635,0,0.0,0.0,nan,nan,nan,nan,nan,nan,nan,0.0,0.0,0.0,nan,nan,125.853164206,157.44526508,157.644529359,157.945300717,nan,nan
0,21,1345,6,1,34,23,1.0,0.0514419701458,-1.0,1,1.0,1.0,0.175197529607,1,nan,nan,nan,nan,nan,nan,nan,60.3191005631,42.0,1.0,0.00954878589686,-1.0,5.77464943687,2.45072468789,125.853164206,158.445362583,158.620560113,158.945423594,160.27056362,162.729222558
0,22,1346,6,0,238,167,0.675741828754,0.178727669763,0.638511091232,0,0.0,1.0,0.500202133786,0,nan,nan,nan,nan,nan,nan,nan,nan,nan,0.0,0.0,0.0,nan,nan,125.853164206,163.937768454,164.437970588,164.437812359,nan,nan
0,23,1347,6,1,371,260,-0.14179360683,0.478331938097,-0.0779732583494,1,1.0,1.0,0.266480460297,0,nan,nan,nan,nan,nan,nan,nan,nan,nan,0.0,0.0,0.0,nan,nan,125.853164206,164.93787394,165.204354401,165.437901595,nan,nan
0,24,1348,6,1,68,47,1.0,-0.129018143495,-0.972903198114,1,1.0,1.0,0.354342511855,0,nan,nan,nan,nan,nan,nan,nan,nan,nan,0.0,0.0,0.0,nan,nan,125.853164206,165.93800651,166.292349022,166.438029318,nan,nan
0,25,1349,6,1,362,254,-0.164239727892,0.476000155386,0.0174578511848,1,1.0,1.0,0.257849718444,0,nan,nan,nan,nan,nan,nan,nan,nan,nan,0.0,0.0,0.0,nan,nan,125.853164206,166.946457926,167.204307645,167.446494989,nan,nan
0,26,1350,6,1,105,73,1.0,-0.285049837405,-0.401580786678,1,1.0,1.0,0.257377312984,0,nan,nan,nan,nan,nan,nan,nan,nan,nan,0.0,0.0,0.0,nan,nan,125.853164206,167.95491761,168.212294923,168.454961515,nan,nan
0,27,1351,6,1,42,29,1.0,0.00954878589686,-1.0,1,1.0,1.0,0.240845392458,0,nan,nan,nan,nan,nan,nan,nan,nan,nan,0.0,0.0,0.0,nan,nan,125.853164206,168.963449993,169.204295386,169.46342519,nan,nan
0,28,1352,6,1,217,152,0.891250405156,0.0735373331823,0.568048345461,1,1.0,1.0,0.240397790447,0,nan,nan,nan,nan,nan,nan,nan,nan,nan,0.0,0.0,0.0,nan,nan,125.853164206,169.971846385,170.212244175,170.471888864,nan,nan
0,29,1353,6,1,347,243,-0.174938837379,0.46723881498,0.167157479366,1,1.0,1.0,0.207957456354,0,nan,nan,nan,nan,nan,nan,nan,nan,nan,0.0,0.0,0.0,nan,nan,125.853164206,170.980313481,171.188270938,171.480380479,nan,nan
0,30,1354,6,1,90,63,1.0,-0.233635786423,-0.574971871003,1,1.0,1.0,0.2474374054,0,nan,nan,nan,nan,nan,nan,nan,nan,nan,0.0,0.0,0.0,nan,nan,125.853164206,171.988788275,172.23622568,172.4888624,nan,nan
0,31,1355,6,1,437,307,0.23613482661,0.429770237144,-1.0,1,1.0,1.0,0.238967458252,0,nan,nan,nan,nan,nan,nan,nan,nan,nan,0.0,0.0,0.0,nan,nan,125.853164206,172.997248244,173.236215702,173.497310965,nan,nan
0,32,1356,6,1,300,210,0.0433537089178,0.395748422077,0.528951029102,1,1.0,1.0,0.174483361654,0,nan,nan,nan,nan,nan,nan,nan,nan,nan,0.0,0.0,0.0,nan,nan,125.853164206,174.00571762,174.180200982,174.50577692,nan,nan
0,33,1402,6,1,347,243,-0.174938837379,0.46723881498,0.167157479366,1,1.0,1.0,0.18197941687,1,nan,nan,nan,nan,nan,nan,nan,-151.166994287,343.0,-0.171388175652,0.463836419185,0.204822810802,-2.81738071298,2.70067351311,125.853164206,175.014172743,175.196152159,175.514236889,176.839385753,179.548090449
0,34,1403,6,0,70,49,1.0,-0.13936984996,-0.906436913284,0,0.0,1.0,0.487433779053,0,nan,nan,nan,nan,nan,nan,nan,nan,nan,0.0,0.0,0.0,nan,nan,125.853164206,180.756610402,181.244044181,181.256650886,nan,nan
0,35,1404,6,1,25,17,1.0,0.0970682892709,-1.0,1,1.0,1.0,0.238961756695,0,nan,nan,nan,nan,nan,nan,nan,nan,nan,0.0,0.0,0.0,nan,nan,125.853164206,181.765041005,182.004002762,182.265086336,nan,nan
0,36,1405,6,1,254,178,0.503011129055,0.248947817922,0.65613358125,1,1.0,1.0,0.230509770568,0,nan,nan,nan,nan,nan,nan,nan,nan,nan,0.0,0.0,0.0,nan,nan,125.853164206,182.773501544,183.004011315,183.273544879,nan,nan
0,37,1406,6,1,327,229,-0.128086156831,0.445480682368,0.344176439252,1,1.0,1.0,0.22199876979,0,nan,nan,nan,nan,nan,nan,nan,nan,nan,0.0,0.0,0.0,nan,nan,125.853164206,183.781970921,184.003969691,184.282046472,nan,nan
0,38,1407,6,1,161,113,1.0,-0.223158351501,0.167490545043,1,1.0,1.0,0.229447783902,0,nan,nan,nan,nan,nan,nan,nan,nan,nan,0.0,0.0,0.0,nan,nan,125.853164206,184.790500739,185.019948523,185.290513283,nan,nan
0,39,1408,6,1,493,346,0.689769084006,0.285700779988,-1.0,1,1.0,1.0,0.245383851696,0,nan,nan,nan,nan,nan,nan,nan,nan,nan,0.0,0.0,0.0,nan,nan,125.853164206,185.790581136,186.035964988,186.290637015,nan,nan
0,40,1409,6,1,301,211,0.0351599448551,0.39804275895,0.523414514543,1,1.0,1.0,0.22087035561,0,nan,nan,nan,nan,nan,nan,nan,nan,nan,0.0,0.0,0.0,nan,nan,125.853164206,186.799032267,187.019902622,187.299110953,nan,nan
0,41,1410,6,1,82,57,1.0,-0.198479155091,-0.679872484948,1,1.0,1.0,0.220726096537,0,nan,nan,nan,nan,nan,nan,nan,nan,nan,0.0,0.0,0.0,nan,nan,125.853164206,187.799167118,188.019893214,188.299234115,nan,nan
0,42,1411,6,1,250,175,0.546428449327,0.232286661223,0.654747725831,1,1.0,1.0,0.196263347287,0,nan,nan,nan,nan,nan,nan,nan,nan,nan,0.0,0.0,0.0,nan,nan,125.853164206,188.807629937,189.003893285,189.307694084,nan,nan
0,43,1412,6,1,419,294,0.107894673663,0.454841969249,-0.678098861371,1,1.0,1.0,0.196120514069,0,nan,nan,nan,nan,nan,nan,nan,nan,nan,0.0,0.0,0.0,nan,nan,125.853164206,189.807755094,190.003875609,190.307830931,nan,nan
0,44,1413,6,1,144,101,1.0,-0.284423189345,0.00519445478499,1,1.0,1.0,0.21163121704,0,nan,nan,nan,nan,nan,nan,nan,nan,nan,0.0,0.0,0.0,nan,nan,125.853164206,190.81622048,191.027851697,191.31629261,nan,nan
0,45,1414,6,1,345,242,-0.173519535469,0.465595146217,0.186119282857,1,1.0,1.0,0.195145767182,0,nan,nan,nan,nan,nan,nan,nan,nan,nan,0.0,0.0,0.0,nan,nan,125.853164206,191.824673037,192.019818804,192.324758566,nan,nan
0,46,1415,6,1,454,319,0.367627362238,0.397084843583,-1.0,1,1.0,1.0,0.442623086739,0,nan,nan,nan,nan,nan,nan,nan,nan,nan,0.0,0.0,0.0,nan,nan,125.853164206,192.833167787,193.275790873,193.333181472,nan,nan
0,47,1416,6,1,60,42,1.0,-0.0867837676833,-1.0,1,1.0,1.0,0.266111259814,0,nan,nan,nan,nan,nan,nan,nan,nan,nan,0.0,0.0,0.0,nan,nan,125.853164206,193.841678218,194.107789477,194.341652274,nan,nan
0,48,1417,6,1,389,273,-0.0691208065164,0.476626077068,-0.280234315682,1,1.0,1.0,0.217995152343,0,nan,nan,nan,nan,nan,nan,nan,nan,nan,0.0,0.0,0.0,nan,nan,125.853164206,194.841740939,195.059736091,195.341783989,nan,nan
0,49,1418,6,1,99,69,1.0,-0.267176270739,-0.468793303331,1,1.0,1.0,0.241524493322,0,nan,nan,nan,nan,nan,nan,nan,nan,nan,0.0,0.0,0.0,nan,nan,125.853164206,195.85020661,196.091731103,196.350244243,nan,nan
0,50,1419,6,1,270,189,0.331159066004,0.309369715406,0.641393874915,1,1.0,1.0,0.217347411904,0,nan,nan,nan,nan,nan,nan,nan,nan,nan,0.0,0.0,0.0,nan,nan,125.853164206,196.850356285,197.067703697,197.350388502,nan,nan
0,51,1420,6,1,401,281,-0.00506340639596,0.470796889516,-0.425203102762,1,1.0,1.0,0.217219687998,0,nan,nan,nan,nan,nan,nan,nan,nan,nan,0.0,0.0,0.0,nan,nan,125.853164206,197.85048686,198.067706548,198.350511664,nan,nan
0,52,1421,6,0,170,119,1.0,-0.180990482069,0.247815061387,0,1.0,0.0,0.241030420177,0,0.0,0.0,nan,nan,nan,nan,nan,nan,nan,0.0,0.0,0.0,nan,nan,125.853164206,198.850634825,199.091665246,199.350664475,nan,nan
0,53,1422,6,1,267,187,0.362924526182,0.298807232282,0.646622522267,1,1.0,1.0,0.232586131897,0,nan,nan,nan,nan,nan,nan,nan,nan,nan,0.0,0.0,0.0,nan,nan,125.853164206,199.859076833,200.091662965,200.35909736,nan,nan
0,54,1423,6,1,484,340,0.614398947124,0.316112737715,-1.0,1,1.0,1.0,0.240436848253,0,nan,nan,nan,nan,nan,nan,nan,nan,nan,0.0,0.0,0.0,nan,nan,125.853164206,200.859201991,201.099638839,201.359225654,nan,nan
0,55,1424,6,1,261,183,0.427225806086,0.276617811781,0.653674462902,1,1.0,1.0,0.288246191572,0,nan,nan,nan,nan,nan,nan,nan,nan,nan,0.0,0.0,0.0,nan,nan,125.853164206,201.859345109,202.147591301,202.359354232,nan,nan
0,56,1425,6,1,140,98,1.0,-0.294209249228,-0.0345777392028,1,1.0,1.0,0.271825458854,0,nan,nan,nan,nan,nan,nan,nan,nan,nan,0.0,0.0,0.0,nan,nan,125.853164206,202.867785121,203.13961058,203.367848983,nan,nan
0,57,1426,6,1,187,131,1.0,-0.0912463489427,0.385383214542,1,1.0,1.0,0.271336802747,0,nan,nan,nan,nan,nan,nan,nan,nan,nan,0.0,0.0,0.0,nan,nan,125.853164206,203.876243949,204.147580752,204.376308096,nan,nan
0,58,1427,6,1,308,216,-0.0186828559465,0.413097475488,0.481682330771,1,1.0,1.0,0.279107692186,0,nan,nan,nan,nan,nan,nan,nan,nan,nan,0.0,0.0,0.0,nan,nan,125.853164206,204.876426126,205.155533819,205.376428407,nan,nan
0,59,1428,6,1,254,178,0.503011129055,0.248947817922,0.65613358125,1,1.0,1.0,0.271003809292,0,nan,nan,nan,nan,nan,nan,nan,nan,nan,0.0,0.0,0.0,nan,nan,125.853164206,205.876513366,206.147517175,206.376544157,nan,nan
0,60,1429,6,1,346,243,-0.174317561957,0.466431294057,0.176670174816,1,1.0,1.0,0.206503462046,0,nan,nan,nan,nan,nan,nan,nan,nan,nan,0.0,0.0,0.0,nan,nan,125.853164206,206.884983028,207.09148649,207.385011823,nan,nan
0,61,1430,6,1,159,111,1.0,-0.231765974528,0.149055008463,1,1.0,1.0,0.190022003837,0,nan,nan,nan,nan,nan,nan,nan,nan,nan,0.0,0.0,0.0,nan,nan,125.853164206,207.893447558,208.083469562,208.393475783,nan,nan
0,62,1431,6,1,72,50,1.0,-0.149607777062,-0.853203742106,1,1.0,1.0,0.213539371267,0,nan,nan,nan,nan,nan,nan,nan,nan,nan,0.0,0.0,0.0,nan,nan,125.853164206,208.90190154,209.115440911,209.401936607,nan,nan
0,63,1432,6,1,366,257,-0.155593376329,0.477302029306,-0.0244766492797,1,1.0,1.0,0.277369740419,0,nan,nan,nan,nan,nan,nan,nan,nan,nan,0.0,0.0,0.0,nan,nan,125.853164206,209.902044089,210.179413829,210.402069747,nan,nan
0,64,1433,6,1,220,154,0.861731547614,0.0893272636146,0.581247684387,1,1.0,1.0,0.324969252106,0,nan,nan,nan,nan,nan,nan,nan,nan,nan,0.0,0.0,0.0,nan,nan,125.853164206,210.910500066,211.235469318,211.410539124,nan,nan
0,65,1434,6,1,315,221,-0.0657111424032,0.426434809442,0.434956515233,1,1.0,1.0,0.268747551832,0,nan,nan,nan,nan,nan,nan,nan,nan,nan,0.0,0.0,0.0,nan,nan,125.853164206,211.91065915,212.179406702,212.410661716,nan,nan
0,66,1435,6,0,389,273,-0.0691208065164,0.476626077068,-0.280234315682,0,0.0,1.0,0.428593177348,0,nan,nan,nan,nan,nan,nan,nan,nan,nan,0.0,0.0,0.0,nan,nan,125.853164206,212.910764921,213.339358098,213.410823366,nan,nan
0,67,1436,6,1,52,36,1.0,-0.0438860552364,-1.0,1,1.0,1.0,0.20414371416,0,nan,nan,nan,nan,nan,nan,nan,nan,nan,0.0,0.0,0.0,nan,nan,125.853164206,213.919231161,214.123374876,214.41925511,nan,nan
0,68,1437,6,1,295,207,0.0860222946478,0.38372732295,0.554986075565,1,1.0,1.0,0.219969164114,0,nan,nan,nan,nan,nan,nan,nan,nan,nan,0.0,0.0,0.0,nan,nan,125.853164206,214.919365727,215.139334891,215.419391956,nan,nan
0,69,1438,6,1,172,120,1.0,-0.170984061773,0.265024678188,1,1.0,1.0,0.251850137021,0,nan,nan,nan,nan,nan,nan,nan,nan,nan,0.0,0.0,0.0,nan,nan,125.853164206,215.919504284,216.171354421,216.419529658,nan,nan
0,70,1439,6,1,387,272,-0.0787219327085,0.477231755363,-0.256974454483,1,1.0,1.0,0.235652920324,0,nan,nan,nan,nan,nan,nan,nan,nan,nan,0.0,0.0,0.0,nan,nan,125.853164206,216.919626591,217.155279512,217.419644552,nan,nan
0,71,1440,6,1,157,110,1.0,-0.240048375319,0.130425901556,1,1.0,1.0,0.283176881727,0,nan,nan,nan,nan,nan,nan,nan,nan,nan,0.0,0.0,0.0,nan,nan,125.853164206,217.928085134,218.211262016,218.428114214,nan,nan
0,72,1441,6,0,395,277,-0.0383984177995,0.474183508328,-0.351427224487,0,0.0,1.0,0.443230628036,0,nan,nan,nan,nan,nan,nan,nan,nan,nan,0.0,0.0,0.0,nan,nan,125.853164206,218.928237376,219.371468004,219.428264461,nan,nan
0,73,1442,6,1,305,214,0.00361192545304,0.406859252708,0.500196907155,1,1.0,1.0,0.0745702590793,0,nan,nan,nan,nan,nan,nan,nan,nan,nan,0.0,0.0,0.0,nan,nan,125.853164206,219.936666554,220.011236813,220.436730701,nan,nan
0,74,1443,6,1,477,335,0.555879874869,0.337784025865,-1.0,1,1.0,1.0,0.184668737464,0,nan,nan,nan,nan,nan,nan,nan,nan,nan,0.0,0.0,0.0,nan,nan,125.853164206,220.978530199,221.163198937,221.478507962,nan,nan
0,75,1444,6,1,97,68,1.0,-0.260369742894,-0.491718830742,1,1.0,1.0,0.112720800564,0,nan,nan,nan,nan,nan,nan,nan,nan,nan,0.0,0.0,0.0,nan,nan,125.853164206,221.978594631,222.091315432,222.478643953,nan,nan
0,76,1445,6,1,368,258,-0.150457169737,0.477793263397,-0.0457341785459,1,1.0,1.0,0.152421129402,0,nan,nan,nan,nan,nan,nan,nan,nan,nan,0.0,0.0,0.0,nan,nan,125.853164206,222.978738035,223.131159164,223.478765975,nan,nan
0,77,1446,6,0,457,321,0.391639248186,0.390358177281,-1.0,0,1.0,0.0,0.200272666756,0,0.0,0.0,nan,nan,nan,nan,nan,nan,nan,0.0,0.0,0.0,nan,nan,125.853164206,223.978889422,224.179162088,224.478924774,nan,nan
0,78,1447,6,1,13,9,0.950262168777,0.154664060346,-1.0,1,1.0,1.0,0.134458021726,0,nan,nan,nan,nan,nan,nan,nan,nan,nan,0.0,0.0,0.0,nan,nan,125.853164206,225.02069006,225.155148082,225.520744799,nan,nan
0,79,1448,6,1,97,68,1.0,-0.260369742894,-0.491718830742,1,1.0,1.0,0.0623242016882,0,nan,nan,nan,nan,nan,nan,nan,nan,nan,0.0,0.0,0.0,nan,nan,125.853164206,226.020821205,226.083145407,226.520867105,nan,nan
0,80,1449,6,1,392,275,-0.0541067903503,0.475522277549,-0.315549842675,1,1.0,1.0,0.0858501219191,0,1.0,0.0,0.0942107817779,0.251986114046,0.0771391557398,0.329125269786,0.174846958307,nan,nan,0.0,0.0,0.0,nan,nan,125.853164206,227.029258366,227.115108488,227.529329355,nan,nan
0,81,1455,6,1,291,204,0.122027637739,0.373441943191,0.573791926984,1,1.0,1.0,0.173691361677,1,0.0,0.0,0.107288561761,0.249935052415,0.0788259812233,0.328761033638,0.171109071192,-163.300755766,360.0,-0.167709501072,0.475188317955,0.0381258551808,48.691380766,2.90900843823,125.853164206,228.029410893,228.203102254,228.529454798,229.854596533,232.771641001
0,82,1456,6,1,415,291,0.0813077335083,0.459153678902,-0.614968023274,1,1.0,1.0,0.302775020245,0,0.0,0.0,0.187438834614,0.249005251309,0.0787895134698,0.327794764778,0.170215737839,nan,nan,0.0,0.0,0.0,nan,nan,125.853164206,233.980161809,234.28293683,234.480200298,nan,nan
0,83,1457,6,1,16,11,0.973419431522,0.140652110383,-1.0,1,1.0,1.0,0.246285043657,0,0.0,0.0,0.24091714186,0.24965307985,0.0785328512299,0.32818593108,0.17112022862,nan,nan,0.0,0.0,0.0,nan,nan,125.853164206,234.988624914,235.234909958,235.488688491,nan,nan
0,84,1458,6,1,319,224,-0.0891891826932,0.433308674125,0.406137099325,1,1.0,1.0,0.278133515269,0,0.0,0.0,0.275731193057,0.249612984181,0.0780648488495,0.32767783303,0.171548135332,nan,nan,0.0,0.0,0.0,nan,nan,125.853164206,235.988764612,236.266898127,236.488782573,nan,nan
0,85,1459,6,0,370,260,-0.144805996584,0.478178727438,-0.0671803333712,0,1.0,0.0,0.253962135874,0,0.0,0.0,0.2594602316,0.249948519841,0.0776651927195,0.32761371256,0.172283327121,nan,nan,0.0,0.0,0.0,nan,nan,125.853164206,236.988914573,237.242876709,237.488940232,nan,nan
0,86,1500,6,1,318,223,-0.0835627602325,0.431640264478,0.413481556053,1,1.0,1.0,0.213502593804,0,0.0,0.0,0.248532748315,0.249995189795,0.0772135294666,0.327208719261,0.172781660328,nan,nan,0.0,0.0,0.0,nan,nan,125.853164206,237.997348027,238.210850621,238.497442394,nan,nan
0,87,1501,6,1,494,347,0.698129958021,0.282143999684,-1.0,1,1.0,1.0,0.253033004701,0,0.0,0.0,0.24016591146,0.249575734668,0.076866977796,0.326442712464,0.172708756872,nan,nan,0.0,0.0,0.0,nan,nan,125.853164206,239.005817119,239.258850124,239.505852186,nan,nan
0,88,1502,6,1,54,37,1.0,-0.0546292063271,-1.0,1,1.0,1.0,0.228554575704,0,0.0,0.0,0.231696724736,0.249615021828,0.0764298642293,0.326044886057,0.173185157599,nan,nan,0.0,0.0,0.0,nan,nan,125.853164206,240.014281364,240.24283594,240.51434209,nan,nan
0,89,1503,6,0,371,260,-0.14179360683,0.478331938097,-0.0779732583494,0,1.0,0.0,0.236367944162,0,0.0,0.0,0.239318508189,0.249378387602,0.0760316820145,0.325410069616,0.173346705587,nan,nan,0.0,0.0,0.0,nan,nan,125.853164206,241.014440448,241.250808393,241.514463542,nan,nan
0,90,1504,6,1,484,340,0.614398947124,0.316112737715,-1.0,1,1.0,1.0,0.115935839713,0,0.0,0.0,0.193619453193,0.249233827119,0.0756204024842,0.324854229603,0.173613424635,nan,nan,0.0,0.0,0.0,nan,nan,125.853164206,242.022876754,242.138812594,242.522945177,nan,nan
0,91,1505,6,1,422,296,0.128328379107,0.451313674078,-0.730894888444,1,1.0,1.0,0.0677806735039,0,0.0,0.0,0.14002815246,0.247769014071,0.0764768995707,0.324245913641,0.1712921145,nan,nan,0.0,0.0,0.0,nan,nan,125.853164206,243.023000201,243.090780875,243.523066914,nan,nan
0,92,1506,6,1,314,220,-0.0594438881467,0.42463230952,0.441925406839,1,1.0,1.0,0.0112724504434,0,1.0,0.0,0.06499632122,0.245812619064,0.0783163072122,0.324128926277,0.167496311852,nan,nan,0.0,0.0,0.0,nan,nan,125.853164206,244.031469008,244.042741458,244.531541137,nan,nan
0,93,1511,6,1,248,174,0.568115903494,0.223728204869,0.653295769881,1,1.0,1.0,0.0668270238675,1,0.0,0.0,0.0486267159383,0.243290681767,0.0815636462894,0.324854328057,0.161727035478,-96.4539865904,265.0,0.384259149088,0.291568309415,0.649478858709,12.0789865904,2.28393637994,125.853164206,245.039920139,245.106747163,245.539993123,246.865128872,249.157098431
0,94,1512,6,1,365,256,-0.157962026257,0.477016591838,-0.0139196855225,1,1.0,1.0,0.276674389374,0,0.0,0.0,0.118257954561,0.241413408811,0.0831240160996,0.324537424911,0.158289392712,nan,nan,0.0,0.0,0.0,nan,nan,125.853164206,250.373944072,250.650618461,250.874006793,nan,nan
0,95,1513,6,1,266,187,0.373577590308,0.295207490188,0.648113769863,1,1.0,1.0,0.252177428454,0,0.0,0.0,0.198559613898,0.241784577028,0.0827636356666,0.324548212694,0.159020941361,nan,nan,0.0,0.0,0.0,nan,nan,125.853164206,251.382432835,251.634610264,251.8824756,nan,nan
0,96,1514,6,1,416,292,0.087881616042,0.458117504295,-0.630165317015,1,1.0,1.0,0.292003199924,0,0.0,0.0,0.27361833925,0.241892835897,0.0823382080314,0.324231043928,0.159554627865,nan,nan,0.0,0.0,0.0,nan,nan,125.853164206,252.382557423,252.674560623,252.882587073,nan,nan
0,97,1515,6,1,96,67,1.0,-0.25681952169,-0.503302481145,1,1.0,1.0,0.203902807087,0,0.0,0.0,0.249361145155,0.242409437588,0.0820689231123,0.3244783607,0.160340514475,nan,nan,0.0,0.0,0.0,nan,nan,125.853164206,253.382674598,253.586577405,253.882706244,nan,nan
0,98,1516,6,1,189,132,1.0,-0.0802194643608,0.400143472992,1,1.0,1.0,0.243734280113,0,0.0,0.0,0.246546762375,0.242016512787,0.0817407874133,0.3237573002,0.160275725373,nan,nan,0.0,0.0,0.0,nan,nan,125.853164206,254.382819997,254.626554277,254.882841664,nan,nan
0,99,1517,6,1,391,274,-0.0591907973189,0.475916278612,-0.303718712187,1,1.0,1.0,0.211583890487,0,0.0,0.0,0.219740325895,0.242033863972,0.0813270887419,0.323360952714,0.16070677523,nan,nan,0.0,0.0,0.0,nan,nan,125.853164206,255.38296226,255.594546151,255.882998753,nan,nan
0,100,1518,6,1,261,183,0.427225806086,0.276617811781,0.653674462902,1,1.0,1.0,0.21143792104,0,0.0,0.0,0.222252030546,0.241729364237,0.0809761304235,0.32270549466,0.160753233813,nan,nan,0.0,0.0,0.0,nan,nan,125.853164206,256.38307801,256.594515931,256.883129042,nan,nan
0,101,1519,6,1,162,113,1.0,-0.218739557155,0.176632971453,1,1.0,1.0,0.211275700945,0,0.0,0.0,0.211432504157,0.241429448958,0.0806300595313,0.322059508489,0.160799389426,nan,nan,0.0,0.0,0.0,nan,nan,125.853164206,257.38322455,257.594500251,257.883249923,nan,nan
0,102,1520,6,1,294,206,0.0948761993654,0.381212130724,0.559858230992,1,1.0,1.0,0.275105500128,0,0.0,0.0,0.232606374038,0.241133823977,0.0802888285406,0.321422652518,0.160844995437,nan,nan,0.0,0.0,0.0,nan,nan,125.853164206,258.383329466,258.658434966,258.883357975,nan,nan
0,103,1521,6,0,387,272,-0.0787219327085,0.477231755363,-0.256974454483,0,1.0,0.0,0.258947912138,0,0.0,0.0,0.248443037737,0.241463646076,0.0799675335207,0.321431179596,0.161496112555,nan,nan,0.0,0.0,0.0,nan,nan,125.853164206,259.383481137,259.642429049,259.883509647,nan,nan
0,104,1522,6,1,507,356,0.805995650865,0.232688349973,-1.0,1,0.0,0.0,0.354811496567,0,0.0,0.0,0.296288302944,0.241631764019,0.0796004337258,0.321232197744,0.162031330293,nan,nan,0.0,0.0,0.0,nan,nan,125.853164206,260.38359204,260.738403536,260.883621975,nan,nan
0,105,1523,6,1,221,155,0.851781464038,0.0945411604707,0.585422935822,1,1.0,1.0,0.274649059866,0,0.0,0.0,0.29613615619,0.242709666233,0.0799794900082,0.322689156242,0.162730176225,nan,nan,0.0,0.0,0.0,nan,nan,125.853164206,261.383728601,261.658377661,261.883743996,nan,nan
0,106,1524,6,1,475,333,0.539218753276,0.343659807328,-1.0,1,1.0,1.0,0.234515668824,0,0.0,0.0,0.287992075086,0.243010981268,0.0796611915974,0.322672172865,0.16334978967,nan,nan,0.0,0.0,0.0,nan,nan,125.853164206,262.383867729,262.618383397,262.883904506,nan,nan
0,107,1525,6,0,423,297,0.135229581944,0.450080889006,-0.750039916123,0,0.0,1.0,0.386332677212,0,0.0,0.0,0.298499135301,0.242931585824,0.0792922827559,0.32222386858,0.163639303068,nan,nan,0.0,0.0,0.0,nan,nan,125.853164206,263.384002009,263.770334687,263.884030234,nan,nan
0,108,1526,6,1,56,39,1.0,-0.0653675053377,-1.0,1,1.0,1.0,0.218220378738,0,0.0,0.0,0.279689574925,0.244259373707,0.0801105104757,0.324369884183,0.164148863232,nan,nan,0.0,0.0,0.0,nan,nan,125.853164206,264.384112342,264.602332721,264.884162234,nan,nan
0,109,1527,6,1,499,350,0.739831889234,0.263827757734,-1.0,1,1.0,1.0,0.241721780505,0,0.0,0.0,0.282091612152,0.244020483845,0.0797808206691,0.323801304514,0.164239663176,nan,nan,0.0,0.0,0.0,nan,nan,125.853164206,265.392563757,265.634285538,265.892619636,nan,nan
0,110,1528,6,1,251,176,0.535576518695,0.236509187076,0.655284151108,1,1.0,1.0,0.185285401996,0,0.0,0.0,0.215075853746,0.243999586542,0.0794176523075,0.32341723885,0.164581934235,nan,nan,0.0,0.0,0.0,nan,nan,125.853164206,266.401010042,266.586295444,266.901091579,nan,nan
0,111,1529,6,1,85,59,1.0,-0.212156452387,-0.638781227021,1,1.0,1.0,0.264769022819,0,0.0,0.0,0.23059206844,0.243470629925,0.0792535151688,0.322724145094,0.164217114756,nan,nan,0.0,0.0,0.0,nan,nan,125.853164206,267.409479989,267.674249012,267.909531591,nan,nan
0,112,1530,6,1,239,168,0.665069831863,0.183388857662,0.640549267122,1,1.0,1.0,0.208310976624,0,0.0,0.0,0.219455133813,0.243660794147,0.0789243452359,0.322585139383,0.164736448911,nan,nan,0.0,0.0,0.0,nan,nan,125.853164206,268.417948795,268.626259772,268.91802121,nan,nan
0,113,1531,6,0,331,232,-0.143297839787,0.450801753776,0.311166711333,0,1.0,0.0,0.232086927164,0,0.0,0.0,0.235055642202,0.243347963903,0.0786440623556,0.321992026259,0.164703901548,nan,nan,0.0,0.0,0.0,nan,nan,125.853164206,269.418115007,269.650201934,269.918146368,nan,nan
0,114,1532,6,1,510,358,0.830554458933,0.220436700166,-1.0,1,1.0,1.0,0.112025448587,0,0.0,0.0,0.184141117459,0.243249182879,0.0783054133159,0.321554596195,0.164943769564,nan,nan,0.0,0.0,0.0,nan,nan,125.853164206,270.418232752,270.530258201,270.918283214,nan,nan
0,115,1533,6,1,394,277,-0.0437090198531,0.474655926729,-0.339401417396,1,1.0,1.0,0.143845696468,0,0.0,0.0,0.16265269074,0.242108106929,0.078910407988,0.321018514917,0.163197698941,nan,nan,0.0,0.0,0.0,nan,nan,125.853164206,271.418337953,271.562183649,271.918442298,nan,nan
0,116,1534,6,1,236,165,0.697004556276,0.169301754335,0.634065852989,1,1.0,1.0,0.159698515665,0,1.0,0.0,0.13852322024,0.241261017184,0.0790929342306,0.320353951414,0.162168082953,nan,nan,0.0,0.0,0.0,nan,nan,125.853164206,272.418480786,272.578179302,272.91853581,nan,nan
0,117,1540,6,1,23,16,1.0,0.106943944166,-1.0,1,1.0,1.0,0.239515129942,1,0.0,0.0,0.181019780692,0.240563901786,0.0791112968919,0.319675198678,0.161452604894,67.8159866547,32.0,1.0,0.061735800531,-1.0,6.01213834527,2.62564025633,125.853164206,273.418597676,273.658112806,273.918634739,275.243807836,277.877485832
0,118,1541,6,1,333,234,-0.149813480994,0.453275949072,0.294183738108,1,1.0,1.0,0.355979824439,0,0.0,0.0,0.251731156682,0.240555013889,0.0787754249634,0.319330438852,0.161779588926,nan,nan,0.0,0.0,0.0,nan,nan,125.853164206,279.086020325,279.442000149,279.586038001,nan,nan
0,119,1542,6,1,34,23,1.0,0.0514419701458,-1.0,1,1.0,1.0,0.259503566194,0,0.0,0.0,0.284999506858,0.24152497028,0.0791481911906,0.320673161471,0.16237677909,nan,nan,0.0,0.0,0.0,nan,nan,125.853164206,280.094473736,280.353977303,280.594509944,nan,nan
0,120,1543,6,1,174,122,1.0,-0.160790688716,0.281981279739,1,1.0,1.0,0.211400288157,0,0.0,0.0,0.27562789293,0.241674791913,0.0788346603347,0.320509452248,0.162840131578,nan,nan,0.0,0.0,0.0,nan,nan,125.853164206,281.094608302,281.30600859,281.594648786,nan,nan
0,121,1544,6,1,4,2,0.879126049628,0.195014037372,-1.0,1,1.0,1.0,0.243215403985,0,0.0,0.0,0.238039752779,0.241424589402,0.0785560499604,0.319980639363,0.162868539442,nan,nan,0.0,0.0,0.0,nan,nan,125.853164206,282.094728043,282.337943447,282.594765391,nan,nan
0,122,1545,6,1,230,161,0.760023132926,0.140224214653,0.61781109556,1,1.0,1.0,0.25110004656,0,0.0,0.0,0.235238579568,0.241439268211,0.078233603109,0.31967287132,0.163205665102,nan,nan,0.0,0.0,0.0,nan,nan,125.853164206,283.094858618,283.345958664,283.594888838,nan,nan
0,123,1546,6,1,171,120,1.0,-0.176011872558,0.256450910142,1,1.0,1.0,0.202569122892,0,0.0,0.0,0.232294857812,0.241517811124,0.077919760887,0.319437572011,0.163598050237,nan,nan,0.0,0.0,0.0,nan,nan,125.853164206,284.103329705,284.305898828,284.60335907,nan,nan
0,124,1547,6,1,272,191,0.310166696092,0.316214117232,0.637281430288,1,1.0,1.0,0.202445106115,0,0.0,0.0,0.218704758522,0.241203708799,0.0776830787743,0.318886787574,0.163520630025,nan,nan,0.0,0.0,0.0,nan,nan,125.853164206,285.103467407,285.305912513,285.603490785,nan,nan
0,125,1548,6,0,135,94,1.0,-0.303502321856,-0.0849788702499,0,1.0,0.0,0.274288982153,0,0.0,0.0,0.22643440372,0.240893639978,0.077448725836,0.318342365814,0.163444914142,nan,nan,0.0,0.0,0.0,nan,nan,125.853164206,286.103594845,286.377883827,286.603644737,nan,nan
0,126,1549,6,1,292,205,0.112881669716,0.376069582356,0.569261850688,1,1.0,1.0,0.2021768298,0,0.0,0.0,0.226303639356,0.241158682376,0.0771976714119,0.318356353788,0.163961010964,nan,nan,0.0,0.0,0.0,nan,nan,125.853164206,287.103704322,287.305881152,287.603746517,nan,nan
0,127,1550,6,1,434,305,0.213881816697,0.43461034373,-1.0,1,1.0,1.0,0.225980434567,0,0.0,0.0,0.23414874884,0.240851738655,0.076970295886,0.317822034541,0.163881442769,nan,nan,0.0,0.0,0.0,nan,nan,125.853164206,288.10387538,288.329855815,288.603883648,nan,nan
0,128,1551,6,1,269,189,0.34171296506,0.305888347675,0.643262349404,1,1.0,1.0,0.25752556324,0,0.0,0.0,0.228560942536,0.240735556592,0.0766802200549,0.317415776647,0.164055336537,nan,nan,0.0,0.0,0.0,nan,nan,125.853164206,289.112309976,289.369835539,289.612339626,nan,nan
0,129,1552,6,1,172,120,1.0,-0.170984061773,0.265024678188,1,1.0,1.0,0.249329023995,0,0.0,0.0,0.2442783406,0.240865711682,0.07639662448,0.317262336162,0.164469087202,nan,nan,0.0,0.0,0.0,nan,nan,125.853164206,290.112448248,290.361777272,290.612466779,nan,nan
0,130,1553,6,1,420,295,0.1146601879,0.45369410126,-0.695047497311,1,1.0,1.0,0.23325696541,0,0.0,0.0,0.246703850882,0.240930814085,0.0761058161425,0.317036630227,0.164824997942,nan,nan,0.0,0.0,0.0,nan,nan,125.853164206,291.112564282,291.345821247,291.61260277,nan,nan
0,131,1554,6,1,299,210,0.0516645560415,0.393417669654,0.534378752182,1,1.0,1.0,0.225076961797,0,0.0,0.0,0.2358876504,0.240872235087,0.0758177213982,0.316689956485,0.165054513689,nan,nan,0.0,0.0,0.0,nan,nan,125.853164206,292.112690295,292.337767257,292.612730779,nan,nan
0,132,1555,6,1,137,96,1.0,-0.300190217086,-0.0647316600203,1,1.0,1.0,0.192922865506,0,0.0,0.0,0.217085597571,0.240752573926,0.0755424033843,0.31629497731,0.165210170542,nan,nan,0.0,0.0,0.0,nan,nan,125.853164206,293.112817734,293.305740599,293.612859928,nan,nan
0,133,1556,6,1,239,168,0.665069831863,0.183388857662,0.640549267122,1,1.0,1.0,0.216751274187,0,0.0,0.0,0.211583700497,0.240392952058,0.0753712067835,0.315764158842,0.165021745275,nan,nan,0.0,0.0,0.0,nan,nan,125.853164206,294.112947167,294.329698442,294.612986226,nan,nan
0,134,1557,6,1,373,262,-0.135407706169,0.478559568072,-0.0996974893599,1,1.0,1.0,0.392596543767,0,0.0,0.0,0.267423561153,0.240216521626,0.0751170062336,0.31533352786,0.165099515393,nan,nan,0.0,0.0,0.0,nan,nan,125.853164206,295.113076602,295.505673145,295.613111098,nan,nan
0,135,1558,6,1,12,8,0.942476689623,0.159273951266,-1.0,1,1.0,1.0,0.224486241117,0,0.0,0.0,0.277944686357,0.241345262531,0.0759703320944,0.317315594625,0.165374930437,nan,nan,0.0,0.0,0.0,nan,nan,125.853164206,296.113208886,296.337695127,296.613251366,nan,nan
0,136,1559,6,1,394,277,-0.0437090198531,0.474655926729,-0.339401417396,1,1.0,1.0,0.20833378518,0,0.0,0.0,0.275138856688,0.241221299138,0.0757042169013,0.316925516039,0.165517082237,nan,nan,0.0,0.0,0.0,nan,nan,125.853164206,297.11333661,297.321670395,297.613386787,nan,nan
0,137,1600,6,1,442,310,0.273907262724,0.421095538958,-1.0,1,1.0,1.0,0.224143553991,0,0.0,0.0,0.218987860096,0.240981244292,0.0754793520308,0.316460596323,0.165501892261,nan,nan,0.0,0.0,0.0,nan,nan,125.853164206,298.113504532,298.337648086,298.613511374,nan,nan
0,138,1601,6,1,267,187,0.362924526182,0.298807232282,0.646622522267,1,1.0,1.0,0.208002216648,0,0.0,0.0,0.213493185273,0.240859232043,0.0752189373164,0.31607816936,0.165640294727,nan,nan,0.0,0.0,0.0,nan,nan,125.853164206,299.11361686,299.321619077,299.613638243,nan,nan
0,139,1602,6,1,366,257,-0.155593376329,0.477302029306,-0.0244766492797,1,1.0,1.0,0.207862804644,0,0.0,0.0,0.213336191761,0.240622850637,0.0749993013854,0.315622152023,0.165623549252,nan,nan,0.0,0.0,0.0,nan,nan,125.853164206,300.113724057,300.321586861,300.613759409,nan,nan
0,140,1603,6,1,462,324,0.432089675478,0.378486360879,-1.0,1,1.0,1.0,0.207720255945,0,0.0,0.0,0.207861759079,0.240388850309,0.0747818727417,0.315170723051,0.165606977567,nan,nan,0.0,0.0,0.0,nan,nan,125.853164206,301.113867746,301.321588002,301.613895685,nan,nan
0,141,1604,6,0,341,239,-0.168535884224,0.46196150489,0.223260112086,0,1.0,0.0,0.191526175477,0,0.0,0.0,0.202369745355,0.24015715815,0.0745666276725,0.314723785823,0.165590530478,nan,nan,0.0,0.0,0.0,nan,nan,125.853164206,302.114024834,302.30555101,302.614047357,nan,nan
0,142,1605,6,1,45,31,1.0,-0.0063957592436,-1.0,1,1.0,1.0,0.111115134321,0,0.0,0.0,0.170120521914,0.239814686441,0.0744148049808,0.314229491422,0.165399881461,nan,nan,0.0,0.0,0.0,nan,nan,125.853164206,303.122450591,303.233565725,303.62253555,nan,nan
0,143,1606,6,1,489,343,0.656284860842,0.299572439858,-1.0,1,1.0,1.0,0.110949777998,0,0.0,0.0,0.137863695932,0.238914689573,0.0749256843919,0.313840373965,0.163989005182,nan,nan,0.0,0.0,0.0,nan,nan,125.853164206,304.122577459,304.233527237,304.622644172,nan,nan
0,144,1607,6,1,206,144,0.994723455659,0.014051917983,0.511316161583,1,1.0,1.0,0.270783999469,0,0.0,0.0,0.164282970596,0.238026044354,0.0754174964575,0.313443540812,0.162608547897,nan,nan,0.0,0.0,0.0,nan,nan,125.853164206,305.122706893,305.393490893,305.622751654,nan,nan
0,145,1608,6,1,133,93,1.0,-0.306259573676,-0.105336427414,1,1.0,1.0,0.222622846719,0,0.0,0.0,0.201452208062,0.238251961286,0.0752058648759,0.313457826162,0.16304609641,nan,nan,0.0,0.0,0.0,nan,nan,125.853164206,306.122850867,306.345473714,306.622879092,nan,nan
0,146,1609,6,1,375,263,-0.128556699755,0.478682433309,-0.121605159467,1,1.0,1.0,0.206116015092,0,0.0,0.0,0.233174287093,0.238144912556,0.0749589523448,0.313103864901,0.163185960211,nan,nan,0.0,0.0,0.0,nan,nan,125.853164206,307.131313117,307.337429132,307.631342767,nan,nan
0,147,1610,6,1,190,133,1.0,-0.0746884387243,0.407399635172,1,1.0,1.0,0.253623440396,0,0.0,0.0,0.227454100735,0.2379270289,0.0747499311331,0.312676960033,0.163177097767,nan,nan,0.0,0.0,0.0,nan,nan,125.853164206,308.139782493,308.393405934,308.639822978,nan,nan
0,148,1611,6,1,64,45,1.0,-0.108036866323,-1.0,1,1.0,1.0,0.165473440662,0,0.0,0.0,0.208404298717,0.238033085734,0.0745080662543,0.312541151989,0.16352501948,nan,nan,0.0,0.0,0.0,nan,nan,125.853164206,309.139923617,309.305397057,309.639937587,nan,nan
0,149,1612,6,1,427,300,0.163265173604,0.444863218481,-0.840208708629,1,1.0,1.0,0.277356056031,0,0.0,0.0,0.23215097903,0.237546108251,0.074493567753,0.312039676004,0.163052540498,nan,nan,0.0,0.0,0.0,nan,nan,125.853164206,310.140043357,310.417399413,310.640089543,nan,nan
0,150,1613,6,1,193,135,1.0,-0.0580453890011,0.428658791268,1,1.0,1.0,0.189155878965,0,0.0,0.0,0.210661791886,0.237811507902,0.0743154860598,0.312126993962,0.163496021843,nan,nan,0.0,0.0,0.0,nan,nan,125.853164206,311.140193318,311.329349197,311.640188472,nan,nan
0,151,1614,6,1,247,173,0.578947625354,0.219392674348,0.6523805853,1,1.0,1.0,0.204696801957,0,0.0,0.0,0.223736245651,0.237489285194,0.0741740575364,0.311663342731,0.163315227658,nan,nan,0.0,0.0,0.0,nan,nan,125.853164206,312.14863276,312.353329562,312.64867524,nan,nan
0,152,1615,6,1,382,268,-0.1011887567,0.478291136399,-0.199732273247,1,1.0,1.0,0.172560097184,0,0.0,0.0,0.188804259369,0.237273545173,0.0739771784168,0.31125072359,0.163296366756,nan,nan,0.0,0.0,0.0,nan,nan,125.853164206,313.148749935,313.321310032,313.648788708,nan,nan
0,153,1616,6,1,211,148,0.948675772315,0.0413606888024,0.538689155053,1,1.0,1.0,0.212092218921,0,0.0,0.0,0.19644970602,0.236850581461,0.0739191902763,0.310769771737,0.162931391184,nan,nan,0.0,0.0,0.0,nan,nan,125.853164206,314.157221592,314.369313811,314.657247822,nan,nan
0,154,1617,6,1,436,306,0.228681708805,0.431413732101,-1.0,1,1.0,1.0,0.235903521068,0,0.0,0.0,0.206851945724,0.236689812873,0.0737056333592,0.310395446232,0.162984179513,nan,nan,0.0,0.0,0.0,nan,nan,125.853164206,315.157352452,315.393255973,315.657382387,nan,nan
0,155,1618,6,1,90,63,1.0,-0.233635786423,-0.574971871003,1,1.0,1.0,0.218402270693,0,0.0,0.0,0.222132670227,0.236684740022,0.0734675154967,0.310152255519,0.163217224526,nan,nan,0.0,0.0,0.0,nan,nan,125.853164206,316.190872448,316.409274719,316.690883282,nan,nan
0,156,1619,6,1,201,141,1.0,-0.0135712615467,0.48142235136,1,1.0,1.0,0.201977261808,0,0.0,0.0,0.218761017856,0.236567544706,0.0732461979507,0.309813742657,0.163321346755,nan,nan,0.0,0.0,0.0,nan,nan,125.853164206,317.199267985,317.401245247,317.699340114,nan,nan
0,157,1620,6,1,451,317,0.343830962376,0.403518361206,-1.0,1,1.0,1.0,0.209821990691,0,0.0,0.0,0.210067174397,0.236347224433,0.0730643955983,0.309411620031,0.163282828835,nan,nan,0.0,0.0,0.0,nan,nan,125.853164206,318.199416521,318.409238511,318.699466127,nan,nan
0,158,1621,6,1,46,32,1.0,-0.0117313672748,-1.0,1,1.0,1.0,0.23365467554,0,0.0,0.0,0.215151309346,0.236179343207,0.0728631829504,0.309042526157,0.163316160256,nan,nan,0.0,0.0,0.0,nan,nan,125.853164206,319.199542533,319.433197209,319.699597557,nan,nan
0,159,1622,6,1,208,146,0.97651257568,0.025020743352,0.522574479073,1,1.0,1.0,0.249449905008,0,0.0,0.0,0.230975523746,0.236163464794,0.0726339662624,0.308797431056,0.163529498531,nan,nan,0.0,0.0,0.0,nan,nan,125.853164206,320.199719294,320.449169199,320.699730983,nan,nan
0,160,1623,6,0,148,104,1.0,-0.272695592461,0.0444264621409,0,1.0,0.0,0.265346914995,0,0.0,0.0,0.249483831848,0.236246505045,0.0724142001755,0.308660705221,0.163832304869,nan,nan,0.0,0.0,0.0,nan,nan,125.853164206,321.199806533,321.465153448,321.699862697,nan,nan
0,161,1624,6,1,292,205,0.112881669716,0.376069582356,0.569261850688,1,1.0,1.0,0.0972169400193,0,0.0,0.0,0.204004586674,0.236427252933,0.0722251567446,0.308652409677,0.164202096188,nan,nan,0.0,0.0,0.0,nan,nan,125.853164206,322.199927984,322.297144924,322.699988995,nan,nan
0,162,1625,6,1,430,302,0.184725017221,0.440645728776,-0.941904167281,1,1.0,1.0,0.241054653656,0,0.0,0.0,0.201206169557,0.235567930014,0.0728228054329,0.308390735447,0.162745124581,nan,nan,0.0,0.0,0.0,nan,nan,125.853164206,323.200074809,323.441129463,323.700118429,nan,nan
0,163,1626,6,1,86,60,1.0,-0.21659106269,-0.625617802914,1,1.0,1.0,0.296583853662,0,0.0,0.0,0.211618482446,0.235601590895,0.0726003430846,0.30820193398,0.16300124781,nan,nan,0.0,0.0,0.0,nan,nan,125.853164206,324.20851254,324.505096394,324.708550173,nan,nan
0,164,1627,6,1,491,345,0.673033477965,0.292707709811,-1.0,1,1.0,1.0,0.312432111241,0,0.0,0.0,0.283356872853,0.235973433961,0.0725341870847,0.308507621045,0.163439246876,nan,nan,0.0,0.0,0.0,nan,nan,125.853164206,325.208642545,325.521074656,325.708689015,nan,nan
0,165,1628,6,1,396,278,-0.0330153705648,0.473684876347,-0.363523780775,1,1.0,1.0,0.336324095726,0,0.0,1.0,0.315113353543,0.236436819883,0.0725571315128,0.308993951396,0.163879688371,nan,nan,0.0,0.0,0.0,nan,nan,125.853164206,326.208771124,326.545095219,326.708807331,nan,nan
0,166,1634,6,1,239,168,0.665069831863,0.183388857662,0.640549267122,1,1.0,1.0,0.384150544647,1,0.0,0.0,0.344302250538,0.237038550461,0.0727500268146,0.309788577275,0.164288523646,-58.4258092497,211.0,0.948675772315,0.0413606888024,0.538689155053,-19.6210657503,2.43394216755,125.853164206,327.208902268,327.593052813,327.708964704,329.034118699,331.476096896
0,167,1635,6,1,151,106,1.0,-0.262720288689,0.0734626651272,1,1.0,1.0,0.348282489926,0,0.0,0.0,0.356252376766,0.237919460606,0.0734145137733,0.311333974379,0.164504946832,nan,nan,0.0,0.0,0.0,nan,nan,125.853164206,332.684629679,333.032912169,333.184657903,nan,nan
0,168,1636,6,1,40,28,1.0,0.0201165467467,-1.0,1,1.0,1.0,0.292155156843,0,0.0,0.0,0.341529397139,0.238576383399,0.0736863473208,0.31226273072,0.164890036078,nan,nan,0.0,0.0,0.0,nan,nan,125.853164206,333.684749134,333.976904291,334.184776789,nan,nan
0,169,1637,6,1,276,194,0.268710435127,0.329430325417,0.627563005949,1,1.0,1.0,0.268026541453,0,0.0,0.0,0.302821396074,0.238893417562,0.0735828465166,0.312476264078,0.165310571045,nan,nan,0.0,0.0,0.0,nan,nan,125.853164206,334.684870301,334.952896842,335.184911354,nan,nan
0,170,1638,6,1,186,130,1.0,-0.0967386681424,0.377881386018,1,1.0,1.0,0.219863677863,0,0.0,0.0,0.260015125386,0.239064788879,0.0733999243579,0.312464713237,0.165664864521,nan,nan,0.0,0.0,0.0,nan,nan,125.853164206,335.685013419,335.904877097,336.18505875,nan,nan
0,171,1639,6,1,457,321,0.391639248186,0.390358177281,-1.0,1,1.0,1.0,0.219654131681,0,0.0,0.0,0.235848116999,0.23895250168,0.0731996324609,0.312152134141,0.165752869219,nan,nan,0.0,0.0,0.0,nan,nan,125.853164206,336.685160244,336.904814376,337.185170223,nan,nan
0,172,1640,6,1,255,179,0.492159363509,0.253017189294,0.656163111527,1,1.0,1.0,0.203549001832,0,0.0,0.0,0.214355603792,0.238840301854,0.0730012782906,0.311841580145,0.165839023564,nan,nan,0.0,0.0,0.0,nan,nan,125.853164206,337.685262309,337.888811311,338.185301082,nan,nan
0,173,1641,6,1,397,279,-0.0275613476434,0.473159987783,-0.37569455347,1,1.0,1.0,0.20341244014,0,0.0,0.0,0.208871857884,0.2386363059,0.0728391361365,0.311475442037,0.165797169764,nan,nan,0.0,0.0,0.0,nan,nan,125.853164206,338.685390603,338.888803043,339.185439069,nan,nan
0,174,1642,6,0,443,311,0.281558783006,0.419268214519,-1.0,0,1.0,0.0,0.227216899861,0,0.0,0.0,0.211392780611,0.23843386989,0.0726783168754,0.311112186766,0.165755553015,nan,nan,0.0,0.0,0.0,nan,nan,125.853164206,339.68555938,339.91277628,340.185588175,nan,nan
0,175,1643,6,1,329,231,-0.136053278316,0.448203788942,0.3278337444,1,0.0,0.0,0.211108633783,0,0.0,0.0,0.213912657928,0.238369772919,0.0724752989989,0.310845071917,0.16589447392,nan,nan,0.0,0.0,0.0,nan,nan,125.853164206,340.68566287,340.896771504,341.185691095,nan,nan
0,176,1644,6,1,49,34,1.0,-0.027785429985,-1.0,1,nan,nan,nan,0,0.0,0.0,0.219162766822,0.238214880083,0.0722981522469,0.310513032329,0.165916727836,nan,nan,0.0,0.0,0.0,nan,nan,125.853164206,341.685785177,nan,342.185853315,nan,nan
0,177,1645,6,1,276,194,0.268710435127,0.329430325417,0.627563005949,1,nan,nan,nan,0,0.0,0.0,0.211108633783,0.238214880083,0.0722981522469,0.310513032329,0.165916727836,nan,nan,0.0,0.0,0.0,nan,nan,125.853164206,342.685921738,nan,343.186003276,nan,nan
0,178,1646,6,1,431,303,0.191957257768,0.43918128748,-0.982298765802,1,nan,nan,nan,0,0.0,0.0,nan,0.238214880083,0.0722981522469,0.310513032329,0.165916727836,nan,nan,0.0,0.0,0.0,nan,nan,125.853164206,343.68604433,nan,344.186117315,nan,nan
0,179,1647,6,1,283,198,0.19826868328,0.351050922538,0.605825948857,1,nan,nan,nan,0,0.0,0.0,nan,0.238214880083,0.0722981522469,0.310513032329,0.165916727836,nan,nan,0.0,0.0,0.0,nan,nan,125.853164206,344.694532808,nan,345.194578709,nan,nan
0,180,1648,6,1,464,326,0.448404880525,0.373503555275,-1.0,1,nan,nan,nan,0,0.0,0.0,nan,0.238214880083,0.0722981522469,0.310513032329,0.165916727836,nan,nan,0.0,0.0,0.0,nan,nan,125.853164206,345.702968829,nan,346.203063766,nan,nan
0,181,1649,6,1,358,251,-0.170583909915,0.474268316859,0.0585874414746,1,nan,nan,nan,0,0.0,0.0,nan,0.238214880083,0.0722981522469,0.310513032329,0.165916727836,nan,nan,0.0,0.0,0.0,nan,nan,125.853164206,346.70311993,nan,347.20317581,nan,nan
0,182,1650,6,1,505,355,0.789537956352,0.240683140511,-1.0,1,1.0,1.0,0.0410650884733,0,0.0,0.0,0.0410650884733,0.238214880083,0.0722981522469,0.310513032329,0.165916727836,nan,nan,0.0,0.0,0.0,nan,nan,125.853164206,347.711557091,347.75262218,348.211630647,nan,nan
0,183,1651,6,1,360,253,-0.167709501072,0.475188317955,0.0381258551808,1,1.0,1.0,0.184913635254,0,0.0,0.0,0.112989361864,0.237101039452,0.0735924209631,0.310693460415,0.163508618489,nan,nan,0.0,0.0,0.0,nan,nan,125.853164206,348.711692228,348.896605863,349.211745256,nan,nan
0,184,1652,6,1,499,350,0.739831889234,0.263827757734,-1.0,1,1.0,1.0,0.288693793584,0,0.0,0.0,0.17155750577,0.236807851788,0.0734889996874,0.310296851475,0.1633188521,nan,nan,0.0,0.0,0.0,nan,nan,125.853164206,349.711859009,350.000552803,350.211868987,nan,nan
0,185,1653,6,1,250,175,0.546428449327,0.232286661223,0.654747725831,1,1.0,1.0,0.256270566024,0,0.0,0.0,0.243292664954,0.237097717385,0.0733854063692,0.310483123754,0.163712311015,nan,nan,0.0,0.0,0.0,nan,nan,125.853164206,350.720284196,350.976554762,351.220322399,nan,nan
0,186,1654,6,1,345,242,-0.173519535469,0.465595146217,0.186119282857,1,1.0,1.0,0.327767194249,0,0.0,0.0,0.290910517952,0.23720423321,0.0731951483775,0.310399381588,0.164009084833,nan,nan,0.0,0.0,0.0,nan,nan,125.853164206,351.728735897,352.056503091,352.228781512,nan,nan
0,187,1655,6,1,411,288,0.0555201669072,0.463022710015,-0.557054760163,1,1.0,1.0,0.311313105281,0,0.0,0.0,0.298450288518,0.237704581061,0.0733007010138,0.311005282075,0.164403880048,nan,nan,0.0,0.0,0.0,nan,nan,125.853164206,352.737197576,353.048510681,353.237255736,nan,nan
0,188,1656,6,1,274,192,0.289344050657,0.322900892411,0.632670269059,1,1.0,1.0,0.263118026312,0,0.0,0.0,0.300732775281,0.238109023502,0.0733012801275,0.31141030363,0.164807743375,nan,nan,0.0,0.0,0.0,nan,nan,125.853164206,353.737338129,354.000456155,354.237376047,nan,nan
0,189,1657,6,1,370,260,-0.144805996584,0.478178727438,-0.0671803333712,1,1.0,1.0,0.214683465194,0,0.0,0.0,0.263038198929,0.23824568472,0.0731239746777,0.311369659397,0.165121710042,nan,nan,0.0,0.0,0.0,nan,nan,125.853164206,354.745803514,354.96048698,355.245838867,nan,nan
0,190,1658,6,1,492,345,0.681403316433,0.289222019555,-1.0,1,1.0,1.0,0.190187930129,0,0.0,0.0,0.222663140545,0.238117629179,0.07294556968,0.311063198859,0.165172059499,nan,nan,0.0,0.0,0.0,nan,nan,125.853164206,355.754260917,355.944448847,356.254317936,nan,nan
0,191,1659,6,0,106,74,1.0,-0.287630069369,-0.390564445695,0,1.0,0.0,0.181951763108,0,0.0,0.0,0.195607719477,0.237858549724,0.0728329880511,0.310691537776,0.165025561673,nan,nan,0.0,0.0,0.0,nan,nan,125.853164206,356.754461055,356.936412818,357.254469608,nan,nan
0,192,1700,6,1,165,116,1.0,-0.205056383665,0.203745440608,1,1.0,1.0,0.021903147921,0,0.0,0.0,0.13134761372,0.237557975603,0.0727518958154,0.310309871418,0.164806079787,nan,nan,0.0,0.0,0.0,nan,nan,125.853164206,357.754527768,357.776430916,358.254596476,nan,nan
0,193,1701,6,0,384,270,-0.0924750057551,0.477945316949,-0.222479273925,0,0.0,1.0,0.533654561732,0,0.0,0.0,0.24583649092,0.23640474123,0.0742422050235,0.310646946254,0.162162536207,nan,nan,0.0,0.0,0.0,nan,nan,125.853164206,358.754695975,359.288350537,359.254743872,nan,nan
0,194,1702,6,1,192,135,1.0,-0.0635997558896,0.421658406928,1,1.0,1.0,0.245561182033,0,0.0,0.0,0.267039630562,0.237985857297,0.077136715655,0.315122572952,0.160849141642,nan,nan,0.0,0.0,0.0,nan,nan,125.853164206,359.754802316,360.000363498,360.254821988,nan,nan
0,195,1703,6,1,110,77,1.0,-0.296722754836,-0.346921960777,1,1.0,1.0,0.269082255661,0,0.0,0.0,0.349432666476,0.23802593838,0.0769343424978,0.314960280878,0.161091595882,nan,nan,0.0,0.0,0.0,nan,nan,125.853164206,360.763245749,361.032328005,361.263288229,nan,nan
0,196,1704,6,1,276,194,0.268710435127,0.329430325417,0.627563005949,1,1.0,1.0,0.220962726977,0,0.0,0.0,0.24520205489,0.238189392681,0.0767645136648,0.314953906346,0.161424879017,nan,nan,0.0,0.0,0.0,nan,nan,125.853164206,361.763374328,361.984337055,362.263415382,nan,nan
0,197,1705,6,1,359,252,-0.169222339917,0.474741883077,0.0483828026834,1,1.0,1.0,0.260798191652,0,0.0,0.0,0.250281058097,0.238099200714,0.0765733884837,0.314672589198,0.161525812231,nan,nan,0.0,0.0,0.0,nan,nan,125.853164206,362.763513456,363.024311647,363.263566769,nan,nan
0,198,1706,6,0,235,165,0.707591924495,0.164537776567,0.631659631194,0,1.0,0.0,0.244517441839,0,0.0,0.0,0.242092786822,0.238217424626,0.0763911934206,0.314608618046,0.161826231205,nan,nan,0.0,0.0,0.0,nan,nan,125.853164206,363.763745524,364.008262966,364.263705326,nan,nan
0,199,1707,6,1,383,269,-0.0968787136249,0.478131214543,-0.211081409456,1,1.0,1.0,0.0204939134419,0,0.0,0.0,0.175269848978,0.238250067202,0.0761943742757,0.314444441478,0.162055692926,nan,nan,0.0,0.0,0.0,nan,nan,125.853164206,364.763762916,364.784256829,365.263843313,nan,nan
0,200,1708,6,1,463,325,0.440238315199,0.376011795327,-1.0,1,nan,nan,nan,0,0.0,0.0,0.13250567764,0.237127612801,0.0775810443124,0.314708657113,0.159546568489,nan,nan,0.0,0.0,0.0,nan,nan,125.853164206,365.772224595,nan,366.272317251,nan,nan
0,201,1709,6,1,120,84,1.0,-0.310161497659,-0.240162905937,1,1.0,1.0,0.299496119376,0,0.0,0.0,0.159995016409,0.237127612801,0.0775810443124,0.314708657113,0.159546568489,nan,nan,0.0,0.0,0.0,nan,nan,125.853164206,366.780692546,367.080188666,367.280734741,nan,nan
0,202,1710,6,1,333,234,-0.149813480994,0.453275949072,0.294183738108,1,1.0,1.0,0.339353251737,0,0.0,0.0,0.319424685556,0.237447451296,0.0775099880897,0.314957439386,0.159937463207,nan,nan,0.0,0.0,0.0,nan,nan,125.853164206,367.780822265,368.120175517,368.280871302,nan,nan
0,203,1711,6,1,145,101,1.0,-0.281667413287,0.0150551701241,1,1.0,1.0,0.307189462241,0,0.0,0.0,0.315346277785,0.23796737885,0.0776521701602,0.31561954901,0.160315208689,nan,nan,0.0,0.0,0.0,nan,nan,125.853164206,368.780974792,369.088164255,369.280997885,nan,nan
0,204,1712,6,0,95,66,1.0,-0.253175017597,-0.514975443931,0,0.0,1.0,0.443054153118,0,0.0,0.0,0.363198955699,0.238318759983,0.0776108946736,0.315929654657,0.16070786531,nan,nan,0.0,0.0,0.0,nan,nan,125.853164206,369.781080563,370.224134716,370.281150127,nan,nan
0,205,1713,6,1,474,333,0.530901762182,0.346545376391,-1.0,1,1.0,1.0,0.2029280602,0,0.0,0.0,0.317723891853,0.239352777121,0.0787633177063,0.318116094827,0.160589459414,nan,nan,0.0,0.0,0.0,nan,nan,125.853164206,370.781207146,370.984135206,371.281260174,nan,nan
0,206,1714,6,1,377,265,-0.121259861678,0.478700828387,-0.143695900877,1,1.0,1.0,0.186455154791,0,0.0,0.0,0.277479122703,0.239169738342,0.0786073767318,0.317777115074,0.16056236161,nan,nan,0.0,0.0,0.0,nan,nan,125.853164206,371.789674242,371.976129397,372.289742095,nan,nan
0,207,1715,6,1,68,47,1.0,-0.129018143495,-0.972903198114,1,1.0,1.0,0.231393856462,0,0.0,0.0,0.206925690485,0.238906165424,0.0784987181053,0.31740488353,0.160407447319,nan,nan,0.0,0.0,0.0,nan,nan,125.853164206,372.800700369,373.032094226,373.306554266,nan,nan
0,208,1716,6,1,224,157,0.821619416966,0.11002478857,0.597264883709,1,1.0,1.0,0.281458031852,0,0.0,0.0,0.233102347702,0.238868790753,0.0783049880817,0.317173778834,0.160563802671,nan,nan,0.0,0.0,0.0,nan,nan,125.853164206,373.806604158,374.08806219,374.306668875,nan,nan
0,209,1717,6,1,9,6,0.918933560847,0.172916688009,-1.0,1,1.0,1.0,0.305286154617,0,0.0,0.0,0.272712680977,0.23907962858,0.078168096569,0.317247725149,0.160911532011,nan,nan,0.0,0.0,0.0,nan,nan,125.853164206,374.80675697,375.112043125,375.306770084,nan,nan
0,210,1718,6,1,470,330,0.497741612616,0.357740777197,-1.0,1,1.0,1.0,0.185183336958,0,0.0,0.0,0.257309174476,0.239405769102,0.0781129811514,0.317518750254,0.161292787951,nan,nan,0.0,0.0,0.0,nan,nan,125.853164206,375.806861601,375.992044938,376.30693145,nan,nan
0,211,1719,6,1,102,71,1.0,-0.276610342793,-0.434926949461,1,1.0,1.0,0.073037577793,0,0.0,0.0,0.187835689789,0.239139972866,0.0780132636528,0.317153236519,0.161126709214,nan,nan,0.0,0.0,0.0,nan,nan,125.853164206,376.806995026,376.880032604,377.307075138,nan,nan
0,212,1720,6,1,159,111,1.0,-0.231765974528,0.149055008463,1,nan,nan,nan,0,0.0,0.0,0.129110457376,0.238329717281,0.0786785233854,0.317008240666,0.159651193895,nan,nan,0.0,0.0,0.0,nan,nan,125.853164206,377.815445587,nan,378.315538243,nan,nan
0,213,1721,6,1,387,272,-0.0787219327085,0.477231755363,-0.256974454483,1,nan,nan,nan,0,0.0,0.0,0.073037577793,0.238329717281,0.0786785233854,0.317008240666,0.159651193895,nan,nan,0.0,0.0,0.0,nan,nan,125.853164206,378.815582148,nan,379.315665111,nan,nan
0,214,1722,6,1,74,52,1.0,-0.159715158178,-0.810443278181,1,1.0,1.0,0.792205618694,0,0.0,0.0,0.792205618694,0.238329717281,0.0786785233854,0.317008240666,0.159651193895,nan,nan,0.0,0.0,0.0,nan,nan,125.853164206,379.815711867,380.607917486,380.315794545,nan,nan
0,215,1723,6,1,397,279,-0.0275613476434,0.473159987783,-0.37569455347,1,nan,nan,nan,0,0.0,0.0,0.792205618694,0.241018435249,0.0874199455344,0.328438380783,0.153598489714,nan,nan,0.0,0.0,0.0,nan,nan,125.853164206,380.824186376,nan,381.324269624,nan,nan
0,216,1724,6,1,295,207,0.0860222946478,0.38372732295,0.554986075565,1,nan,nan,nan,0,0.0,0.0,0.792205618694,0.241018435249,0.0874199455344,0.328438380783,0.153598489714,nan,nan,0.0,0.0,0.0,nan,nan,125.853164206,381.824305831,nan,382.324409321,nan,nan
0,217,1725,6,0,80,56,1.0,-0.189075709245,-0.708965549488,0,0.0,1.0,0.591355060227,0,0.0,0.0,0.591355060227,0.241018435249,0.0874199455344,0.328438380783,0.153598489714,nan,nan,0.0,0.0,0.0,nan,nan,125.853164206,382.82447803,383.41583309,383.324520509,nan,nan
0,218,1726,6,1,472,331,0.51429864939,0.352212277195,-1.0,1,1.0,1.0,0.239275363274,0,0.0,0.0,0.415315211751,0.242710882712,0.0905283920334,0.333239274746,0.152182490679,nan,nan,0.0,0.0,0.0,nan,nan,125.853164206,383.824570687,384.06384605,384.32462514,nan,nan
0,219,1727,6,1,178,125,1.0,-0.139919655122,0.315097826042,1,nan,nan,nan,0,0.0,0.0,0.415315211751,0.242694365792,0.0903108261684,0.33300519196,0.152383539624,nan,nan,0.0,0.0,0.0,nan,nan,125.853164206,384.824698125,nan,385.324792207,nan,nan
0,220,1728,6,1,439,308,0.251144291643,0.426392204401,-1.0,1,nan,nan,nan,0,0.0,0.0,0.239275363274,0.242694365792,0.0903108261684,0.33300519196,0.152383539624,nan,nan,0.0,0.0,0.0,nan,nan,125.853164206,385.824858635,nan,386.324909382,nan,nan
0,221,1729,6,1,220,154,0.861731547614,0.0893272636146,0.581247684387,1,nan,nan,nan,0,0.0,0.0,nan,0.242694365792,0.0903108261684,0.33300519196,0.152383539624,nan,nan,0.0,0.0,0.0,nan,nan,125.853164206,386.833286387,nan,387.333376478,nan,nan
0,222,1730,6,1,0,0,0.846831709088,0.212097570855,-1.0,1,1.0,1.0,0.0540364319459,0,0.0,0.0,0.0540364319459,0.242694365792,0.0903108261684,0.33300519196,0.152383539624,nan,nan,0.0,0.0,0.0,nan,nan,125.853164206,387.8417589,387.895795332,388.3418316,nan,nan
0,223,1731,6,1,314,220,-0.0594438881467,0.42463230952,0.441925406839,1,1.0,1.0,0.0138574251905,0,0.0,0.0,0.0339469285682,0.241791696252,0.0910302265237,0.332821922776,0.150761469728,nan,nan,0.0,0.0,0.0,nan,nan,125.853164206,388.841900023,388.855757448,389.341968162,nan,nan
0,224,1732,6,1,226,158,0.801265930663,0.120208988367,0.60458276857,1,1.0,1.0,0.14175736066,0,1.0,0.0,0.0698837392653,0.240706294961,0.0921589098406,0.332865204802,0.148547385121,nan,nan,0.0,0.0,0.0,nan,nan,125.853164206,389.842015773,389.983773133,390.342087047,nan,nan
0,225,1738,6,1,330,232,-0.139766326074,0.449518327743,0.319540245599,1,1.0,1.0,0.205585734919,1,0.0,0.0,0.12040017359,0.240237342666,0.0921910767778,0.332428419444,0.148046265888,-147.355359865,338.0,-0.162891363375,0.458928707883,0.250399161362,5.32410986508,3.32587928185,125.853164206,390.842161457,391.047747192,391.342215341,392.667357076,396.001150366
0,226,1739,6,0,119,83,1.0,-0.309446327048,-0.250710895617,0,1.0,0.0,0.277922543697,0,0.0,0.0,0.208421879758,0.240073891686,0.0920040282799,0.332077919966,0.148069863406,nan,nan,0.0,0.0,0.0,nan,nan,125.853164206,397.209678017,397.487600561,397.70970111,nan,nan
0,227,1740,6,1,44,30,1.0,-0.00106984144607,-1.0,1,1.0,1.0,0.0938057545573,0,0.0,0.0,0.192438011058,0.240251584888,0.0918242589075,0.332075843796,0.14842732598,nan,nan,0.0,0.0,0.0,nan,nan,125.853164206,398.209781222,398.303586977,398.709835961,nan,nan
0,228,1741,6,1,392,275,-0.0541067903503,0.475522277549,-0.315549842675,1,1.0,1.0,0.213660252281,0,0.0,0.0,0.195129516845,0.239567258578,0.092152278943,0.331719537521,0.147414979635,nan,nan,0.0,0.0,0.0,nan,nan,125.853164206,399.209912367,399.423572619,399.709977369,nan,nan
0,229,1742,6,1,339,238,-0.164955840019,0.45996923152,0.241423096872,1,1.0,1.0,0.253470343538,0,0.0,0.0,0.186978783458,0.239446760874,0.0919546184664,0.331401379341,0.147492142408,nan,nan,0.0,0.0,0.0,nan,nan,125.853164206,400.210062613,400.463532956,400.710073161,nan,nan
0,230,1743,6,1,171,120,1.0,-0.176011872558,0.256450910142,1,1.0,1.0,0.231607393827,0,0.0,0.0,0.232912663215,0.239511684868,0.0917464526442,0.331258137512,0.147765232224,nan,nan,0.0,0.0,0.0,nan,nan,125.853164206,401.255929875,401.487537269,401.760222581,nan,nan
0,231,1744,6,1,25,17,1.0,0.0970682892709,-1.0,1,1.0,1.0,0.235179089475,0,0.0,0.0,0.240085608947,0.239475259564,0.0915363766331,0.331011636197,0.147938882931,nan,nan,0.0,0.0,0.0,nan,nan,125.853164206,402.260311531,402.49549062,402.760330347,nan,nan
0,232,1745,6,1,176,123,1.0,-0.150429669724,0.298675466069,1,1.0,1.0,0.211056461558,0,0.0,0.0,0.225947648287,0.239455552362,0.0913266509038,0.330782203265,0.148128901458,nan,nan,0.0,0.0,0.0,nan,nan,125.853164206,403.260432127,403.471488588,403.760477743,nan,nan
0,233,1746,6,1,488,343,0.647907709101,0.302951493728,-1.0,1,1.0,1.0,0.250893636607,0,0.0,0.0,0.23237639588,0.239325876148,0.0911380178632,0.330463894011,0.148187858285,nan,nan,0.0,0.0,0.0,nan,nan,125.853164206,404.260550157,404.511443794,404.760588075,nan,nan
0,234,1747,6,1,362,254,-0.164239727892,0.476000155386,0.0174578511848,1,1.0,1.0,0.250689792447,0,0.0,0.0,0.237546630204,0.239378456877,0.0909339793614,0.330312436239,0.148444477516,nan,nan,0.0,0.0,0.0,nan,nan,125.853164206,405.260717794,405.511407587,405.76071979,nan,nan
0,235,1748,6,1,115,80,1.0,-0.305166285737,-0.293172749504,1,1.0,1.0,0.226621617563,0,0.0,0.0,0.242735015539,0.239429639391,0.0907311891657,0.330160828557,0.148698450225,nan,nan,0.0,0.0,0.0,nan,nan,125.853164206,406.260833259,406.487454876,406.760855781,nan,nan
0,236,1749,6,1,282,198,0.208142307666,0.34807905204,0.609295500931,1,1.0,1.0,0.298107982147,0,0.0,0.0,0.258473130719,0.239371945599,0.0905306718817,0.329902617481,0.148841273717,nan,nan,0.0,0.0,0.0,nan,nan,125.853164206,407.269292372,407.567400354,407.769316605,nan,nan
0,237,1750,6,1,125,87,1.0,-0.311567427947,-0.187805059354,1,1.0,1.0,0.273945725523,0,0.0,0.0,0.266225108411,0.239635335898,0.0904126716854,0.330048007583,0.149222664212,nan,nan,0.0,0.0,0.0,nan,nan,125.853164206,408.269428078,408.543373804,408.769464001,nan,nan
0,238,1751,6,1,345,242,-0.173519535469,0.465595146217,0.186119282857,1,1.0,1.0,0.249803995714,0,0.0,0.0,0.273952567795,0.23978850728,0.0902396255749,0.330028132855,0.149548881705,nan,nan,0.0,0.0,0.0,nan,nan,125.853164206,409.269543543,409.519347538,409.76958089,nan,nan
0,239,1752,6,1,194,136,1.0,-0.0524864644427,0.435571704399,1,1.0,1.0,0.249651753809,0,0.0,0.0,0.257800491682,0.239833020562,0.0900413344474,0.329874355009,0.149791686114,nan,nan,0.0,0.0,0.0,nan,nan,125.853164206,410.26968267,410.519334424,410.769702341,nan,nan
0,240,1753,6,0,74,52,1.0,-0.159715158178,-0.810443278181,0,1.0,0.0,0.265414197464,0,0.0,0.0,0.254956648995,0.239876466284,0.0898442706394,0.329720736923,0.150032195645,nan,nan,0.0,0.0,0.0,nan,nan,125.853164206,411.269887655,411.535301852,411.769860855,nan,nan
0,241,1754,6,1,243,170,0.622151010882,0.20168048164,0.647463484622,1,1.0,1.0,0.233382123057,0,0.0,0.0,0.249482691443,0.239988967302,0.0896621095593,0.329651076862,0.150326857743,nan,nan,0.0,0.0,0.0,nan,nan,125.853164206,412.269938402,412.503320525,412.769957503,nan,nan
0,242,1755,6,0,316,222,-0.0718215561597,0.428203514031,0.427892255365,0,0.0,1.0,0.409161250107,0,0.0,0.0,0.302652523542,0.239959989915,0.0894663313158,0.329426321231,0.1504936586,nan,nan,0.0,0.0,0.0,nan,nan,125.853164206,413.270084657,413.679245907,413.770112596,nan,nan
0,243,1756,6,1,74,52,1.0,-0.159715158178,-0.810443278181,1,1.0,1.0,0.233061959036,0,0.0,0.0,0.291868444066,0.240698860047,0.0899652339646,0.330664094012,0.150733626083,nan,nan,0.0,0.0,0.0,nan,nan,125.853164206,414.270203827,414.503265786,414.77022635,nan,nan
0,244,1757,6,1,413,290,0.0683106243366,0.461143133648,-0.585495598612,1,1.0,1.0,0.27288801549,0,0.0,0.0,0.305037074878,0.24066565613,0.0897708505389,0.330436506669,0.150894805591,nan,nan,0.0,0.0,0.0,nan,nan,125.853164206,415.270321572,415.543209588,415.770346661,nan,nan
0,245,1758,6,1,472,331,0.51429864939,0.352212277195,-1.0,1,1.0,1.0,0.216771515552,0,0.0,0.0,0.240907163359,0.240805146863,0.0896013072728,0.330406454136,0.15120383959,nan,nan,0.0,0.0,0.0,nan,nan,125.853164206,416.270449011,416.487220526,416.770484648,nan,nan
0,246,1759,6,1,53,37,1.0,-0.049257555853,-1.0,1,1.0,1.0,0.272637985647,0,0.0,0.0,0.25409917223,0.240701553625,0.0894218547528,0.330123408377,0.151279698872,nan,nan,0.0,0.0,0.0,nan,nan,125.853164206,417.270577875,417.54321586,417.770630047,nan,nan
0,247,1800,6,0,256,180,0.481312611765,0.257047908656,0.656065722404,0,1.0,0.0,0.280412866268,0,0.0,0.0,0.256607455822,0.240838619856,0.0892541762577,0.330092796114,0.151584443599,nan,nan,0.0,0.0,0.0,nan,nan,125.853164206,418.270739239,418.551152105,418.770763473,nan,nan
0,248,1801,6,1,436,306,0.228681708805,0.431413732101,-1.0,1,1.0,1.0,0.0322889471427,0,0.0,0.0,0.195113266353,0.241007740568,0.0891006630229,0.33010840359,0.151907077545,nan,nan,0.0,0.0,0.0,nan,nan,125.853164206,419.270846721,419.303135668,419.770909727,nan,nan
0,249,1802,6,1,510,358,0.830554458933,0.220436700166,-1.0,1,1.0,1.0,0.240168571938,0,0.0,0.0,0.18429012845,0.240119575489,0.0899429451622,0.330062520651,0.150176630327,nan,nan,0.0,0.0,0.0,nan,nan,125.853164206,420.270969028,420.5111376,420.771010081,nan,nan
0,250,1803,6,1,84,59,1.0,-0.20765784414,-0.652191087791,1,1.0,1.0,0.232002538163,0,0.0,0.0,0.168153352415,0.240119783101,0.0897521858413,0.329871968943,0.15036759726,nan,nan,0.0,0.0,0.0,nan,nan,125.853164206,421.271106159,421.503108697,421.771135524,nan,nan
0,251,1804,6,1,23,16,1.0,0.106943944166,-1.0,1,1.0,1.0,0.215866332874,0,0.0,0.0,0.229345814325,0.240085533123,0.0895641805895,0.329649713712,0.150521352533,nan,nan,0.0,0.0,0.0,nan,nan,125.853164206,422.271228181,422.487094514,422.77125498,nan,nan
0,252,1805,6,1,110,77,1.0,-0.296722754836,-0.346921960777,1,1.0,1.0,0.239672788419,0,0.0,0.0,0.229180553152,0.239983771777,0.0893895512212,0.329373322998,0.150594220556,nan,nan,0.0,0.0,0.0,nan,nan,125.853164206,423.271362747,423.511035535,423.771389831,nan,nan
0,253,1806,6,1,303,213,0.0191349273956,0.402522842081,0.512018356663,1,1.0,1.0,0.343507970218,0,0.0,0.0,0.266349030503,0.239982470591,0.0892023500257,0.329184820617,0.150780120566,nan,nan,0.0,0.0,0.0,nan,nan,125.853164206,424.271497312,424.615005283,424.771515558,nan,nan
0,254,1807,6,1,355,249,-0.173737462994,0.472683863687,0.0888799762457,1,1.0,1.0,0.295408968814,0,0.0,0.0,0.292863242483,0.24041382684,0.0892657556933,0.329679582533,0.151148071147,nan,nan,0.0,0.0,0.0,nan,nan,125.853164206,425.271620474,425.567029443,425.771641572,nan,nan
0,255,1808,6,1,69,48,1.0,-0.134207199312,-0.939648005704,1,1.0,1.0,0.270926548168,0,0.0,0.0,0.3032811624,0.24064202245,0.0891504846816,0.329792507131,0.151491537768,nan,nan,0.0,0.0,0.0,nan,nan,125.853164206,426.280079302,426.551005851,426.780111233,nan,nan
0,256,1809,6,0,371,260,-0.14179360683,0.478331938097,-0.0779732583494,0,0.0,1.0,0.36673111748,0,0.0,0.0,0.311022211487,0.240767165118,0.0889873078535,0.329754472971,0.151779857264,nan,nan,0.0,0.0,0.0,nan,nan,125.853164206,427.280240097,427.646971215,427.780263475,nan,nan
0,257,1810,6,1,282,198,0.208142307666,0.34807905204,0.609295500931,1,1.0,1.0,0.0386503166519,0,0.0,0.0,0.2254359941,0.241285535292,0.0891693938297,0.330454929122,0.152116141463,nan,nan,0.0,0.0,0.0,nan,nan,125.853164206,428.280325911,428.318976228,428.780406879,nan,nan
0,258,1811,6,1,499,350,0.739831889234,0.263827757734,-1.0,1,1.0,1.0,0.102493800223,0,0.0,0.0,0.169291744785,0.240455063085,0.0899232296055,0.33037829269,0.150531833479,nan,nan,0.0,0.0,0.0,nan,nan,125.853164206,429.280458197,429.382951997,429.780537453,nan,nan
0,259,1812,6,1,48,33,1.0,-0.0224273256894,-1.0,1,nan,nan,nan,0,0.0,0.0,0.0705720584374,0.239891955889,0.0901695750626,0.330061530952,0.149722380827,nan,nan,0.0,0.0,0.0,nan,nan,125.853164206,430.280580503,nan,430.780668313,nan,nan
0,260,1813,6,1,309,217,-0.0258396312562,0.415106541901,0.475305697888,1,nan,nan,nan,0,0.0,0.0,0.102493800223,0.239891955889,0.0901695750626,0.330061530952,0.149722380827,nan,nan,0.0,0.0,0.0,nan,nan,125.853164206,431.280726758,nan,431.780794041,nan,nan
0,261,1814,6,1,370,260,-0.144805996584,0.478178727438,-0.0671803333712,1,1.0,1.0,0.021986966487,0,0.0,0.0,0.021986966487,0.239891955889,0.0901695750626,0.330061530952,0.149722380827,nan,nan,0.0,0.0,0.0,nan,nan,125.853164206,432.280869877,432.302856843,432.780924615,nan,nan
0,262,1815,6,1,312,219,-0.0464483572634,0.420925197877,0.455573212045,1,1.0,1.0,0.01383718336,0,0.0,0.0,0.0179120749235,0.23900616325,0.0910479832214,0.330054146471,0.147958180028,nan,nan,0.0,0.0,0.0,nan,nan,125.853164206,433.28099931,433.294836494,433.781050913,nan,nan
0,263,1816,6,1,251,176,0.535576518695,0.236509187076,0.655284151108,1,1.0,1.0,0.125755435787,0,1.0,0.0,0.0538598618781,0.238094547946,0.0919815743121,0.330076122258,0.146112973634,nan,nan,0.0,0.0,0.0,nan,nan,125.853164206,434.281111354,434.406866789,434.781180347,nan,nan
0,264,1822,6,1,174,122,1.0,-0.160790688716,0.281981279739,1,1.0,1.0,0.213570161723,1,0.0,0.0,0.117720926957,0.237641567655,0.0920715855329,0.329713153188,0.145569982122,-32.8557219504,175.0,1.0,-0.155629953633,0.290361762956,0.511971950433,2.85075741727,125.853164206,435.281259034,435.494829196,435.781272148,437.106464346,439.965157439
0,265,1823,6,1,388,272,-0.0739633693698,0.476941921698,-0.268577162136,1,1.0,1.0,0.361010076012,0,0.0,0.0,0.233445224507,0.237544895342,0.0918991276808,0.329444023023,0.145645767662,nan,nan,0.0,0.0,0.0,nan,nan,125.853164206,441.173675681,441.534685757,441.673709038,nan,nan
0,266,1824,6,1,165,116,1.0,-0.205056383665,0.203745440608,1,1.0,1.0,0.296847283375,0,0.0,0.0,0.29047584037,0.238038756065,0.0920456331108,0.330084389176,0.145993122954,nan,nan,0.0,0.0,0.0,nan,nan,125.853164206,442.173825643,442.470672926,442.67383391,nan,nan
0,267,1825,6,1,352,247,-0.17544712699,0.470851603012,0.118673592819,1,1.0,1.0,0.392697467934,0,0.0,1.0,0.35018494244,0.238273052987,0.0919367595721,0.330209812559,0.146336293414,nan,nan,0.0,0.0,0.0,nan,nan,125.853164206,443.173942247,443.566639715,443.673959923,nan,nan
0,268,1831,6,1,71,49,1.0,-0.144504067012,-0.877980773838,1,1.0,1.0,0.408561691176,1,0.0,0.0,0.366035480828,0.238885848284,0.0922663625376,0.331152210822,0.146619485746,61.189206257,41.0,1.0,0.0148395037771,-1.0,-21.111081257,2.52553414367,125.853164206,444.17405258,444.582614271,444.674093348,445.999264449,448.532932981
0,269,1832,6,1,239,168,0.665069831863,0.183388857662,0.640549267122,1,1.0,1.0,0.273082736414,0,0.0,0.0,0.358113965175,0.23955650379,0.0926972349707,0.33225373876,0.146859268819,nan,nan,0.0,0.0,0.0,nan,nan,125.853164206,449.741456355,450.014539092,450.241480018,nan,nan
0,270,1833,6,1,129,90,1.0,-0.310070485259,-0.146368003411,1,1.0,1.0,0.24089528434,0,0.0,0.0,0.30751323731,0.239688496831,0.092538399307,0.332226896138,0.147150097524,nan,nan,0.0,0.0,0.0,nan,nan,125.853164206,450.741581228,450.982476512,451.24163283,nan,nan
0,271,1834,6,1,508,357,0.814199817736,0.228638933499,-1.0,1,1.0,1.0,0.248783633579,0,0.0,0.0,0.254253884777,0.239693229331,0.0923568040231,0.332050033354,0.147336425308,nan,nan,0.0,0.0,0.0,nan,nan,125.853164206,451.741694696,451.99047833,452.241743163,nan,nan
0,272,1835,6,1,209,146,0.967301840512,0.0304835193525,0.52804999659,1,1.0,1.0,0.248612005264,0,0.0,0.0,0.246096974394,0.239728738723,0.0921779872474,0.33190672597,0.147550751476,nan,nan,0.0,0.0,0.0,nan,nan,125.853164206,452.741847794,452.990459799,453.241876018,nan,nan
0,273,1836,6,1,49,34,1.0,-0.027785429985,-1.0,1,1.0,1.0,0.240494152997,0,0.0,0.0,0.245963263946,0.239763303962,0.092000140133,0.331763444095,0.147763163829,nan,nan,0.0,0.0,0.0,nan,nan,125.853164206,453.741983214,453.982477367,454.241995474,nan,nan
0,274,1837,6,1,460,323,0.415848916989,0.383334931935,-1.0,1,1.0,1.0,0.280341306701,0,0.0,0.0,0.256482488321,0.239766136711,0.0918216834156,0.331587820126,0.147944453295,nan,nan,0.0,0.0,0.0,nan,nan,125.853164206,454.742083569,455.022424875,455.242151707,nan,nan
0,275,1838,6,0,370,260,-0.144805996584,0.478178727438,-0.0671803333712,0,0.0,1.0,0.464120256249,0,0.0,0.0,0.328318571982,0.239922797599,0.0916787901637,0.331601587762,0.148244007435,nan,nan,0.0,0.0,0.0,nan,nan,125.853164206,455.742255197,456.206375453,456.242279145,nan,nan
0,276,1839,6,1,39,27,1.0,0.0253789930673,-1.0,1,1.0,1.0,0.271988534369,0,0.0,0.0,0.338816699106,0.240785095517,0.0925486633329,0.333333758849,0.148236432184,nan,nan,0.0,0.0,0.0,nan,nan,125.853164206,456.742346998,457.014335533,457.242389478,nan,nan
0,277,1840,6,1,207,145,0.985653507947,0.0195431921708,0.51699622314,1,1.0,1.0,0.263833619654,0,0.0,0.0,0.333314136757,0.240904648922,0.0923913101963,0.333295959118,0.148513338726,nan,nan,0.0,0.0,0.0,nan,nan,125.853164206,457.742483845,458.006317465,458.242516631,nan,nan
0,278,1841,6,1,112,78,1.0,-0.300501516081,-0.325324861792,1,1.0,1.0,0.279701264109,0,0.0,0.0,0.271841139377,0.240992164078,0.0922256603777,0.333217824455,0.1487665037,nan,nan,0.0,0.0,0.0,nan,nan,125.853164206,458.742620406,459.02232167,459.242657184,nan,nan
0,279,1842,6,1,15,10,0.965734432428,0.145352784795,-1.0,1,1.0,1.0,0.23955219239,0,0.0,0.0,0.261029025385,0.241139346967,0.0920809834163,0.333220330384,0.149058363551,nan,nan,0.0,0.0,0.0,nan,nan,125.853164206,459.74274813,459.982300322,460.242777495,nan,nan
0,280,1843,6,1,426,299,0.156193047225,0.446210853967,-0.81485970128,1,1.0,1.0,0.247446528636,0,0.0,0.0,0.255566661712,0.241133335018,0.0919064738676,0.333039808886,0.149226861151,nan,nan,0.0,0.0,0.0,nan,nan,125.853164206,460.742885832,460.99033236,461.242907214,nan,nan
0,281,1844,6,1,232,163,0.739158239773,0.150046616059,0.623712016981,1,1.0,1.0,0.255236804485,0,0.0,0.0,0.247411841837,0.24115715839,0.0917337182067,0.332890876597,0.149423440184,nan,nan,0.0,0.0,0.0,nan,nan,125.853164206,461.743001011,461.998237815,462.243032657,nan,nan
0,282,1845,6,1,318,223,-0.0835627602325,0.431640264478,0.413481556053,1,1.0,1.0,0.230739559047,0,0.0,0.0,0.244474297389,0.241210089391,0.0915651783353,0.332775267726,0.149644911055,nan,nan,0.0,0.0,0.0,nan,nan,125.853164206,462.751479511,462.98221907,463.251498042,nan,nan
0,283,1846,6,1,59,41,1.0,-0.0814409933332,-1.0,1,1.0,1.0,0.286657915916,0,0.0,0.0,0.257544759816,0.241170873921,0.0913957850353,0.332566658957,0.149775088886,nan,nan,0.0,0.0,0.0,nan,nan,125.853164206,463.751589844,464.038247759,464.251625766,nan,nan
0,284,1847,6,1,403,283,0.00657627305109,0.469456436931,-0.450524507496,1,1.0,1.0,0.278482759371,0,0.0,0.0,0.265293411445,0.24134060169,0.0912672587033,0.332607860393,0.150073342987,nan,nan,0.0,0.0,0.0,nan,nan,125.853164206,464.751734103,465.030216862,465.251763753,nan,nan
0,285,1848,6,1,69,48,1.0,-0.134207199312,-0.939648005704,1,1.0,1.0,0.254323353525,0,0.0,0.0,0.273154676271,0.241478676626,0.091125497933,0.332604174559,0.150353178693,nan,nan,0.0,0.0,0.0,nan,nan,125.853164206,465.751860971,466.006184324,466.251884634,nan,nan
0,286,1849,6,1,284,199,0.188465149253,0.353984098999,0.602236276499,1,1.0,1.0,0.43816274358,0,0.0,0.0,0.323656285492,0.241526249503,0.0909599370327,0.332486186536,0.15056631247,nan,nan,0.0,0.0,0.0,nan,nan,125.853164206,466.751988979,467.190151723,467.252038871,nan,nan
0,287,1850,6,1,434,305,0.213881816697,0.43461034373,-1.0,1,1.0,1.0,0.254000338726,0,0.0,0.0,0.31549547861,0.242251845422,0.0915714584216,0.333823303844,0.150680387,nan,nan,0.0,0.0,0.0,nan,nan,125.853164206,467.752140366,468.006140704,468.252142361,nan,nan
0,288,1851,6,1,224,157,0.821619416966,0.11002478857,0.597264883709,1,1.0,1.0,0.333861142863,0,0.0,1.0,0.342008075056,0.242295038412,0.0914057391958,0.333700777608,0.150889299216,nan,nan,0.0,0.0,0.0,nan,nan,125.853164206,468.752237014,469.086098156,469.252268374,nan,nan
0,289,1856,6,1,286,201,0.169078956243,0.359734776014,0.594698705761,1,1.0,1.0,0.269764777739,1,0.0,0.0,0.285875419776,0.242630445388,0.0914057117533,0.334036157142,0.151224733635,-100.463748778,271.0,0.320642857732,0.312811632898,0.639400143054,-10.6300012221,2.35893571004,125.853164206,469.752365592,470.02213037,470.252408357,471.577570335,473.944544355
0,290,1857,6,1,65,45,1.0,-0.113312155659,-1.0,1,1.0,1.0,0.363501538523,0,0.0,0.0,0.322375819708,0.242729475798,0.0912534314003,0.333982907198,0.151476044398,nan,nan,0.0,0.0,0.0,nan,nan,125.853164206,475.186473686,475.549975225,475.686444321,nan,nan
0,291,1858,6,0,169,118,1.0,-0.185917379452,0.239118302078,0,0.0,1.0,0.467386612669,0,0.0,0.0,0.366884309643,0.243168646935,0.0913769926668,0.334545639602,0.151791654269,nan,nan,0.0,0.0,0.0,nan,nan,125.853164206,476.186566628,476.653953241,476.686594567,nan,nan
0,292,1859,6,1,332,233,-0.146647089803,0.45205423783,0.302714191958,1,1.0,1.0,0.362918230239,0,0.0,0.0,0.397935460477,0.243981030869,0.0922008305791,0.336181861448,0.15178020029,nan,nan,0.0,0.0,0.0,nan,nan,125.853164206,477.195016903,477.557935134,477.695032584,nan,nan
0,293,1900,6,1,185,130,1.0,-0.102214474652,0.370299946716,1,1.0,1.0,0.250485092402,0,0.0,0.0,0.36026331177,0.24441040704,0.0923102815987,0.336720688639,0.152100125441,nan,nan,0.0,0.0,0.0,nan,nan,125.853164206,478.203476587,478.453961679,478.703525909,nan,nan
0,294,1901,6,1,85,59,1.0,-0.212156452387,-0.638781227021,1,1.0,1.0,0.234285310376,0,0.0,0.0,0.282562877672,0.244432258426,0.0921448240323,0.336577082459,0.152287434394,nan,nan,0.0,0.0,0.0,nan,nan,125.853164206,479.203590625,479.437875936,479.703654773,nan,nan
0,295,1902,6,1,503,353,0.773020196022,0.248538461814,-1.0,1,1.0,1.0,0.21018064348,0,0.0,0.0,0.231650348753,0.244395889437,0.0919815405587,0.336377429996,0.152414348878,nan,nan,0.0,0.0,0.0,nan,nan,125.853164206,480.2037346,480.413915243,480.703785917,nan,nan
0,296,1903,6,0,318,223,-0.0835627602325,0.431640264478,0.413481556053,0,1.0,0.0,0.154012255836,0,0.0,0.0,0.199492736564,0.24427369213,0.0918398249134,0.336113517043,0.152433867217,nan,nan,0.0,0.0,0.0,nan,nan,125.853164206,481.203860898,481.357873153,481.703937018,nan,nan
0,297,1904,6,1,381,267,-0.105403061426,0.478425078289,-0.188431136224,1,1.0,1.0,0.0978866331279,0,0.0,0.0,0.154026510815,0.243952477054,0.0918336942015,0.335786171256,0.152118782853,nan,nan,0.0,0.0,0.0,nan,nan,125.853164206,482.203976932,482.301863565,482.704016561,nan,nan
0,298,1905,6,1,333,234,-0.149813480994,0.453275949072,0.294183738108,1,1.0,1.0,0.209731330164,0,0.0,0.0,0.153876739709,0.243434513069,0.09208099793,0.335515510999,0.151353515139,nan,nan,0.0,0.0,0.0,nan,nan,125.853164206,483.204110072,483.413841403,483.704177925,nan,nan
0,299,1906,6,1,71,49,1.0,-0.144504067012,-0.877980773838,1,1.0,1.0,0.241164986044,0,0.0,0.0,0.182927649779,0.24331542055,0.0919399204935,0.335255341043,0.151375500056,nan,nan,0.0,0.0,0.0,nan,nan,125.853164206,484.212645022,484.453810008,484.712635328,nan,nan
0,300,1907,6,1,511,359,0.838703193994,0.216284169582,-1.0,1,1.0,1.0,0.225066128187,0,0.0,0.0,0.225320814798,0.243307848597,0.0917780000934,0.33508584869,0.151529848504,nan,nan,0.0,0.0,0.0,nan,nan,125.853164206,485.212704892,485.43777102,485.71277132,nan,nan
0,301,1908,6,1,356,250,-0.17284377641,0.473239407326,0.0788368070227,1,1.0,1.0,0.192898632959,0,0.0,0.0,0.21970991573,0.243243842561,0.0916231940739,0.334867036634,0.151620648487,nan,nan,0.0,0.0,0.0,nan,nan,125.853164206,486.212851432,486.405750065,486.712897617,nan,nan
0,302,1909,6,1,283,198,0.19826868328,0.351050922538,0.605825948857,1,1.0,1.0,0.224441195372,0,0.0,0.0,0.214135318839,0.243067810359,0.0915111392215,0.334578949581,0.151556671138,nan,nan,0.0,0.0,0.0,nan,nan,125.853164206,487.221297146,487.445738341,487.721366139,nan,nan
0,303,1910,6,1,346,243,-0.174317561957,0.466431294057,0.176670174816,1,1.0,1.0,0.191959808115,0,0.0,0.0,0.203099878815,0.243002909262,0.0913581664181,0.33436107568,0.151644742843,nan,nan,0.0,0.0,0.0,nan,nan,125.853164206,488.229769659,488.421729467,488.729829244,nan,nan
0,304,1911,6,1,260,182,0.438016636947,0.272781976488,0.654406567654,1,1.0,1.0,0.167826061137,0,0.0,0.0,0.194742354875,0.242825676272,0.0912488324433,0.334074508715,0.151576843828,nan,nan,0.0,0.0,0.0,nan,nan,125.853164206,489.229907645,489.397733707,489.729958963,nan,nan
0,305,1912,6,1,420,295,0.1146601879,0.45369410126,-0.695047497311,1,1.0,1.0,0.191342288163,0,0.0,0.0,0.183709385805,0.242566162032,0.0911972293715,0.333763391404,0.151368932661,nan,nan,0.0,0.0,0.0,nan,nan,125.853164206,490.238353074,490.429695362,490.738416936,nan,nan
0,306,1913,6,1,280,196,0.228089347314,0.342018854333,0.61587222022,1,1.0,1.0,0.190858193673,0,0.0,0.0,0.183342180991,0.242389527984,0.0910893640369,0.333478892021,0.151300163948,nan,nan,0.0,0.0,0.0,nan,nan,125.853164206,491.246812473,491.437670666,491.746885743,nan,nan
0,307,1914,6,1,363,255,-0.162287729338,0.476365729747,0.00704812682028,1,1.0,1.0,0.102704772726,0,0.0,0.0,0.161635084854,0.242212444361,0.0909827086561,0.333195153017,0.151229735705,nan,nan,0.0,0.0,0.0,nan,nan,125.853164206,492.246955591,492.349660364,492.747016032,nan,nan
0,308,1915,6,1,201,141,1.0,-0.0135712615467,0.48142235136,1,1.0,1.0,0.222181801684,0,0.0,0.0,0.171914922694,0.241734678363,0.0911917113752,0.332926389738,0.150542966987,nan,nan,0.0,0.0,0.0,nan,nan,125.853164206,493.255416986,493.477598787,493.755453193,nan,nan
0,309,1916,6,1,424,298,0.142174562463,0.448819569244,-0.770229420881,1,1.0,1.0,0.196318941657,0,0.0,0.0,0.173735172022,0.241667944995,0.0910431029343,0.332711047929,0.150624842061,nan,nan,0.0,0.0,0.0,nan,nan,125.853164206,494.297287758,494.4936067,494.797255827,nan,nan
0,310,1917,6,1,91,63,1.0,-0.237709898716,-0.562722318432,1,1.0,1.0,0.284200665075,0,0.0,0.0,0.234233802805,0.241513696684,0.090926478271,0.332440174955,0.150587218413,nan,nan,0.0,0.0,0.0,nan,nan,125.853164206,495.297351335,495.581552,495.797394384,nan,nan
0,311,1918,6,1,361,253,-0.166047812515,0.475607712818,0.0278173107143,1,1.0,1.0,0.3960382347,0,0.0,0.0,0.292185947144,0.241658398272,0.0908061371204,0.332464535393,0.150852261152,nan,nan,0.0,0.0,0.0,nan,nan,125.853164206,496.297506142,496.693544377,496.797502151,nan,nan
0,312,1919,6,1,300,210,0.0433537089178,0.395748422077,0.528951029102,1,1.0,1.0,0.363933175337,0,0.0,1.0,0.34805735837,0.242179951774,0.0910941413378,0.333274093111,0.151085810436,nan,nan,0.0,0.0,0.0,nan,nan,125.853164206,497.297596233,497.661529408,497.797642419,nan,nan
0,313,1925,6,1,213,149,0.929785093221,0.0521668813814,0.548906519778,1,1.0,1.0,0.315716428682,1,0.0,0.0,0.358562612906,0.242589895287,0.0912137413037,0.333803636591,0.151376153984,-98.8033056407,269.0,0.34171296506,0.305888347675,0.643262349404,39.0376806407,2.62564681377,125.853164206,498.29777841,498.613494839,498.797768432,500.122935826,502.75661867
0,314,1926,6,0,427,300,0.163265173604,0.444863218481,-0.840208708629,0,0.0,1.0,0.544190036599,0,0.0,0.0,0.407946546872,0.242835286339,0.0911587170757,0.333994003415,0.151676569263,nan,nan,0.0,0.0,0.0,nan,nan,125.853164206,503.965159149,504.509349186,504.465213888,nan,nan
0,315,1927,6,1,92,64,1.0,-0.241703663401,-0.55060883727,1,1.0,1.0,0.312075169757,0,0.0,0.0,0.390660545013,0.243843161758,0.0926543662456,0.336497528004,0.151188795512,nan,nan,0.0,0.0,0.0,nan,nan,125.853164206,504.965250381,505.277325551,505.465293145,nan,nan
0,316,1928,6,1,34,23,1.0,0.0514419701458,-1.0,1,1.0,1.0,0.263641464058,0,0.0,0.0,0.373302223471,0.244070601785,0.0925833810132,0.336653982798,0.151487220771,nan,nan,0.0,0.0,0.0,nan,nan,125.853164206,505.973717192,506.237358656,506.473759671,nan,nan
0,317,1929,6,1,490,344,0.664660387652,0.296157848571,-1.0,1,1.0,1.0,0.247165423352,0,0.0,0.0,0.274294019056,0.244135621261,0.0924363205089,0.336571941769,0.151699300752,nan,nan,0.0,0.0,0.0,nan,nan,125.853164206,506.982174024,507.229339447,507.482228763,nan,nan
0,318,1930,6,1,298,209,0.0600896634305,0.391050340636,0.53969689008,1,1.0,1.0,0.278996218927,0,0.0,0.0,0.263267702113,0.244145653718,0.0922833174892,0.336428971207,0.151862336229,nan,nan,0.0,0.0,0.0,nan,nan,125.853164206,507.982312582,508.2613088,508.482355916,nan,nan
0,319,1931,6,1,429,301,0.177531820842,0.442080780324,-0.901885199234,1,1.0,1.0,0.27081450494,0,0.0,0.0,0.26565871574,0.244260672085,0.0921525887146,0.336413260799,0.15210808337,nan,nan,0.0,0.0,0.0,nan,nan,125.853164206,508.982480504,509.253295009,509.482487346,nan,nan
0,320,1932,6,1,238,167,0.675741828754,0.178727669763,0.638511091232,1,1.0,1.0,0.233759591356,0,0.0,0.0,0.261190105074,0.244348020219,0.0920134602473,0.336361480467,0.152334559972,nan,nan,0.0,0.0,0.0,nan,nan,125.853164206,510.011522766,510.245282357,510.51601732,nan,nan
0,321,1933,6,0,147,103,1.0,-0.275801134503,0.0346720467303,0,1.0,0.0,0.253143052105,0,0.0,0.0,0.2525723828,0.244313304059,0.0918644888437,0.336177792903,0.152448815215,nan,nan,0.0,0.0,0.0,nan,nan,125.853164206,511.016081752,511.269224804,511.516110832,nan,nan
0,322,1934,6,1,84,59,1.0,-0.20765784414,-0.652191087791,1,1.0,1.0,0.173079258762,0,0.0,0.0,0.219993967408,0.244342159445,0.0917156451036,0.336057804548,0.152626514341,nan,nan,0.0,0.0,0.0,nan,nan,125.853164206,512.016169562,512.189248821,512.516234564,nan,nan
0,323,1935,6,1,263,184,0.405698801511,0.284171736334,0.651829885785,1,1.0,1.0,0.228890704922,0,0.0,0.0,0.218371005263,0.244110032733,0.0916561390663,0.335766171799,0.152453893666,nan,nan,0.0,0.0,0.0,nan,nan,125.853164206,513.016322944,513.245213649,513.516374547,nan,nan
0,324,1936,6,1,503,353,0.773020196022,0.248538461814,-1.0,1,1.0,1.0,0.244733260479,0,0.0,0.0,0.215567741388,0.244060619331,0.091511321407,0.335571940738,0.152549297924,nan,nan,0.0,0.0,0.0,nan,nan,125.853164206,514.016429,514.261162261,514.516474331,nan,nan
0,325,1937,6,1,422,296,0.128328379107,0.451313674078,-0.730894888444,1,1.0,1.0,0.284600941464,0,0.0,0.0,0.252741635622,0.244062796163,0.0913631328252,0.335425928988,0.152699663338,nan,nan,0.0,0.0,0.0,nan,nan,125.853164206,515.016556724,515.301157665,515.516596067,nan,nan
0,326,1938,6,1,507,356,0.805995650865,0.232688349973,-1.0,1,1.0,1.0,0.476424758323,0,0.0,0.0,0.335252986755,0.244193564373,0.0912446136346,0.335438178008,0.152948950739,nan,nan,0.0,0.0,0.0,nan,nan,125.853164206,516.016711531,516.49313629,516.516719229,nan,nan
0,327,1939,6,1,392,275,-0.0541067903503,0.475522277549,-0.315549842675,1,1.0,1.0,0.29196784785,0,0.0,1.0,0.350997849212,0.24494028847,0.0920416438181,0.336981932288,0.152898644652,nan,nan,0.0,0.0,0.0,nan,nan,125.853164206,517.025152969,517.317120817,517.525184329,nan,nan
0,328,1940,6,0,175,123,1.0,-0.155629953633,0.290361762956,0,1.0,0.0,0.259818883613,0,0.0,0.0,0.342737163262,0.245091017827,0.0919324596719,0.337023477499,0.153158558155,nan,nan,0.0,0.0,0.0,nan,nan,125.853164206,518.025281262,518.285100146,518.525353392,nan,nan
0,329,1941,6,1,436,306,0.228681708805,0.431413732101,-1.0,1,1.0,1.0,0.251650854014,0,0.0,0.0,0.267812528492,0.245138071711,0.0917892482083,0.336927319919,0.153348823503,nan,nan,0.0,0.0,0.0,nan,nan,125.853164206,519.025418964,519.277069818,519.525479975,nan,nan
0,330,1942,6,0,4,2,0.879126049628,0.195014037372,-1.0,0,1.0,0.0,0.283473667689,0,0.0,0.0,0.264981135105,0.245158813056,0.0916437050904,0.336802518146,0.153515107965,nan,nan,0.0,0.0,0.0,nan,nan,125.853164206,520.025583465,520.309057133,520.525615111,nan,nan
0,331,1943,6,1,421,296,0.121471671064,0.452518040197,-0.712610339232,1,1.0,1.0,0.267373383977,0,0.0,0.0,0.267499301893,0.245280447515,0.091523506115,0.33680395363,0.1537569414,nan,nan,0.0,0.0,0.0,nan,nan,125.853164206,521.025663577,521.293036961,521.525714895,nan,nan
0,332,1944,6,1,198,139,1.0,-0.0302354974571,0.462326941081,1,1.0,1.0,0.251216080971,0,0.0,0.0,0.267354377545,0.245350361871,0.0913870002817,0.336737362153,0.153963361589,nan,nan,0.0,0.0,0.0,nan,nan,125.853164206,522.02580185,522.277017931,522.525849176,nan,nan
0,333,1945,6,1,341,239,-0.168535884224,0.46196150489,0.223260112086,1,1.0,1.0,0.235038821585,0,0.0,0.0,0.251209428844,0.245368865717,0.0912433357905,0.336612201507,0.154125529926,nan,nan,0.0,0.0,0.0,nan,nan,125.853164206,523.025941262,523.260980084,523.525977469,nan,nan
0,334,1946,6,1,393,276,-0.0489456633786,0.475102171109,-0.327443230616,1,1.0,1.0,0.226926671341,0,0.0,0.0,0.237727191299,0.245336381301,0.0911015943989,0.3364379757,0.154234786902,nan,nan,0.0,0.0,0.0,nan,nan,125.853164206,524.026075542,524.253002214,524.526128571,nan,nan
0,335,1947,6,1,209,146,0.967301840512,0.0304835193525,0.52804999659,1,1.0,1.0,0.210793316364,0,0.0,0.0,0.22425293643,0.245278670612,0.0909645115724,0.336243182184,0.154314159039,nan,nan,0.0,0.0,0.0,nan,nan,125.853164206,525.026188156,525.236981472,525.526253728,nan,nan
0,336,1948,6,1,254,178,0.503011129055,0.248947817922,0.65613358125,1,1.0,1.0,0.258607221302,0,0.0,0.0,0.232109069669,0.24517090388,0.0908426616793,0.336013565559,0.1543282422,nan,nan,0.0,0.0,0.0,nan,nan,125.853164206,526.026319586,526.284926807,526.526372043,nan,nan
0,337,1949,6,1,303,213,0.0191349273956,0.402522842081,0.512018356663,1,1.0,1.0,0.290450561326,0,0.0,0.0,0.253283699664,0.245212761566,0.0907041424884,0.335916904055,0.154508619078,nan,nan,0.0,0.0,0.0,nan,nan,125.853164206,527.026464985,527.316915547,527.526507179,nan,nan
0,338,1950,6,1,24,16,1.0,0.102019060141,-1.0,1,1.0,1.0,0.30631136382,0,0.0,0.0,0.285123048816,0.245353251628,0.090598160848,0.335951412476,0.15475509078,nan,nan,0.0,0.0,0.0,nan,nan,125.853164206,528.026588717,528.332900081,528.526612095,nan,nan
0,339,1951,6,1,364,255,-0.160194321586,0.476704516321,-0.00341124574885,1,1.0,1.0,0.418158341665,0,0.0,1.0,0.338306755604,0.245541976433,0.0905211775903,0.336063154024,0.155020798843,nan,nan,0.0,0.0,0.0,nan,nan,125.853164206,529.026703896,529.444862238,529.52674324,nan,nan
0,340,1956,6,1,6,4,0.895129075663,0.186272780825,-1.0,1,1.0,1.0,0.322011655662,1,0.0,0.0,0.348827120382,0.246074742993,0.0908871475934,0.336961890586,0.155187595399,69.9739109059,28.0,1.0,0.082066132397,-1.0,15.8073390941,1.85054387944,125.853164206,530.026834756,530.348846412,530.526868112,531.852042635,533.710621403
0,341,1957,6,1,64,45,1.0,-0.108036866323,-1.0,1,1.0,1.0,0.285635843407,0,0.0,0.0,0.341935280245,0.246308395032,0.0908446199674,0.337153014999,0.155463775064,nan,nan,0.0,0.0,0.0,nan,nan,125.853164206,534.919132803,535.204768647,535.419173287,nan,nan
0,342,1958,6,1,117,82,1.0,-0.307587969795,-0.271886539361,1,1.0,1.0,0.229462609626,0,0.0,0.0,0.279036702899,0.246429031376,0.0907312491641,0.33716028054,0.155697782212,nan,nan,0.0,0.0,0.0,nan,nan,125.853164206,535.919259671,536.148722281,536.419306142,nan,nan
0,343,1959,6,1,184,129,1.0,-0.107671891867,0.362640045218,1,1.0,1.0,0.27733723959,0,0.0,0.0,0.264145230874,0.246377146294,0.0905972537502,0.336974400045,0.155779892544,nan,nan,0.0,0.0,0.0,nan,nan,125.853164206,536.919391101,537.196728341,537.41943244,nan,nan
0,344,2000,6,1,501,352,0.7564492333,0.256253544744,-1.0,1,1.0,1.0,0.269142126199,0,0.0,0.0,0.258647325138,0.246471536823,0.0904751449094,0.336946681732,0.155996391913,nan,nan,0.0,0.0,0.0,nan,nan,125.853164206,537.919532509,538.188674635,538.419577269,nan,nan
0,345,2001,6,1,328,230,-0.132159558243,0.44685796506,0.336046158271,1,1.0,1.0,0.250997697003,0,0.0,0.0,0.265825687597,0.246540444389,0.090346159678,0.336886604067,0.156194284711,nan,nan,0.0,0.0,0.0,nan,nan,125.853164206,538.969664252,539.220661949,539.469699604,nan,nan
0,346,2002,6,1,381,267,-0.105403061426,0.478425078289,-0.188431136224,1,1.0,1.0,0.226873358246,0,0.0,0.0,0.249004393816,0.246553951215,0.0902095003724,0.336763451588,0.156344450843,nan,nan,0.0,0.0,0.0,nan,nan,125.853164206,539.969792546,540.196665904,540.469831034,nan,nan
0,347,2003,6,1,194,136,1.0,-0.0524864644427,0.435571704399,1,1.0,1.0,0.250698059797,0,0.0,0.0,0.242856371682,0.246494493231,0.090079604968,0.336574098199,0.156414888263,nan,nan,0.0,0.0,0.0,nan,nan,125.853164206,540.969928253,541.220626312,541.469954766,nan,nan
0,348,2004,6,0,114,80,1.0,-0.303747463913,-0.303859371662,0,1.0,0.0,0.274511358235,0,0.0,0.0,0.250694258759,0.246507154576,0.0899441355783,0.336451290154,0.156563018997,nan,nan,0.0,0.0,0.0,nan,nan,125.853164206,541.970095889,542.244607247,542.470115276,nan,nan
0,349,2005,6,1,180,126,1.0,-0.129278616986,0.331238955499,1,1.0,1.0,0.226363319438,0,0.0,0.0,0.250524245823,0.246591251283,0.0898220539583,0.336413305242,0.156769197325,nan,nan,0.0,0.0,0.0,nan,nan,125.853164206,542.970207362,543.196570682,543.470217056,nan,nan
0,350,2006,6,1,326,229,-0.12383419111,0.444071765824,0.352223541474,1,1.0,1.0,0.290242725983,0,0.0,0.0,0.263705801219,0.246530688613,0.0896942978916,0.336224986505,0.156836390722,nan,nan,0.0,0.0,0.0,nan,nan,125.853164206,543.970322256,544.260564982,544.470343639,nan,nan
0,351,2007,6,1,265,186,0.384259149088,0.291568309415,0.649478858709,1,1.0,1.0,0.274078010581,0,0.0,0.0,0.263561352001,0.246661172307,0.089592067901,0.336253240208,0.157069104406,nan,nan,0.0,0.0,0.0,nan,nan,125.853164206,544.970453401,545.244531412,545.470483907,nan,nan
0,352,2008,6,1,476,334,0.547545041103,0.340739382997,-1.0,1,1.0,1.0,0.265957307536,0,0.0,0.0,0.276759348034,0.24674277004,0.0894711127759,0.336213882816,0.157271657264,nan,nan,0.0,0.0,0.0,nan,nan,125.853164206,545.970582835,546.236540142,546.470605073,nan,nan
0,353,2009,6,1,311,218,-0.0397249783266,0.419020224334,0.462250212202,1,1.0,1.0,0.281792165246,0,0.0,0.0,0.273942494454,0.246799786472,0.089344380731,0.336144167202,0.157455405741,nan,nan,0.0,0.0,0.0,nan,nan,125.853164206,546.97073023,547.252522395,547.470733081,nan,nan
0,354,2010,6,1,380,267,-0.109519508899,0.478533032186,-0.177177385375,1,1.0,1.0,0.28166586766,0,0.0,0.0,0.276471780147,0.246903314219,0.0892323579762,0.336135672196,0.157670956243,nan,nan,0.0,0.0,0.0,nan,nan,125.853164206,547.970828874,548.252494741,548.47087563,nan,nan
0,355,2011,6,1,256,180,0.481312611765,0.257047908656,0.656065722404,1,1.0,1.0,0.273517794907,0,0.0,0.0,0.278991942604,0.247005858625,0.0891205921993,0.336126450824,0.157885266425,nan,nan,0.0,0.0,0.0,nan,nan,125.853164206,548.970955742,549.244473537,549.470997937,nan,nan
0,356,2012,6,1,65,45,1.0,-0.113312155659,-1.0,1,1.0,1.0,0.265357177705,0,0.0,0.0,0.273513613424,0.247083834908,0.0890010165152,0.336084851423,0.158082818393,nan,nan,0.0,0.0,0.0,nan,nan,125.853164206,549.971100857,550.236458034,550.471121383,nan,nan
0,357,2013,6,1,435,305,0.221263830514,0.433027056876,-1.0,1,1.0,1.0,0.273182235658,0,0.0,0.0,0.27068573609,0.247137422424,0.0888759136243,0.336013336048,0.158261508799,nan,nan,0.0,0.0,0.0,nan,nan,125.853164206,550.971216891,551.244399127,551.471249677,nan,nan
0,358,2014,6,1,326,229,-0.12383419111,0.444071765824,0.352223541474,1,1.0,1.0,0.24103384139,0,0.0,0.0,0.259857751584,0.247213576848,0.088757024342,0.33597060119,0.158456552506,nan,nan,0.0,0.0,0.0,nan,nan,125.853164206,551.971369703,552.212403544,552.471384528,nan,nan
0,359,2015,6,1,254,178,0.503011129055,0.248947817922,0.65613358125,1,1.0,1.0,0.200903586578,0,0.0,0.0,0.238373221209,0.247195560127,0.0886281727768,0.335823732904,0.15856738735,nan,nan,0.0,0.0,0.0,nan,nan,125.853164206,552.971474333,553.17237792,553.471509971,nan,nan
0,360,2016,6,1,394,277,-0.0437090198531,0.474655926729,-0.339401417396,1,1.0,1.0,0.216778357979,0,0.0,0.0,0.219571928649,0.247060990436,0.0885343449266,0.335595335363,0.15852664551,nan,nan,0.0,0.0,0.0,nan,nan,125.853164206,553.97159778,554.188376138,554.471635413,nan,nan
0,361,2017,6,1,336,236,-0.158211608236,0.456758111158,0.268135266647,1,1.0,1.0,0.232603807934,0,0.0,0.0,0.216761917497,0.24697321469,0.088420929705,0.335394144395,0.158552284985,nan,nan,0.0,0.0,0.0,nan,nan,125.853164206,554.97174432,555.204348128,555.471765132,nan,nan
0,362,2018,6,1,474,333,0.530901762182,0.346545376391,-1.0,1,1.0,1.0,0.216436526738,0,0.0,0.0,0.221939564217,0.246931684613,0.0882964309483,0.335228115561,0.158635253664,nan,nan,0.0,0.0,0.0,nan,nan,125.853164206,555.971878886,556.188315413,556.471897703,nan,nan
0,363,2019,6,1,79,55,1.0,-0.184296021705,-0.724170777997,1,1.0,1.0,0.232270244509,0,0.0,0.0,0.227103526394,0.246843802313,0.088184263745,0.335028066058,0.158659538568,nan,nan,0.0,0.0,0.0,nan,nan,125.853164206,556.972005754,557.204275999,557.472025141,nan,nan
0,364,2020,6,1,230,161,0.760023132926,0.140224214653,0.61781109556,1,1.0,1.0,0.2401759848,0,0.0,0.0,0.229627585349,0.246801924274,0.0880609264573,0.334862850731,0.158740997816,nan,nan,0.0,0.0,0.0,nan,nan,125.853164206,557.972128061,558.212304045,558.472167689,nan,nan
0,365,2021,6,1,370,260,-0.144805996584,0.478178727438,-0.0671803333712,1,1.0,1.0,0.232015938032,0,0.0,0.0,0.234820722447,0.246782938774,0.0879353874011,0.334718326175,0.158847551373,nan,nan,0.0,0.0,0.0,nan,nan,125.853164206,558.972247231,559.204263169,559.472279448,nan,nan
0,366,2022,6,1,465,326,0.456588679398,0.37096152752,-1.0,1,1.0,1.0,0.231881372631,0,0.0,0.0,0.234691098488,0.246740747343,0.0878132130311,0.334553960374,0.158927534312,nan,nan,0.0,0.0,0.0,nan,nan,125.853164206,559.972371534,560.204252906,560.472413158,nan,nan
0,367,2023,6,1,241,169,0.64365311028,0.192605941253,0.644254782112,1,1.0,1.0,0.207709422335,0,0.0,0.0,0.223868910999,0.246698412942,0.0876916104052,0.334390023347,0.159006802537,nan,nan,0.0,0.0,0.0,nan,nan,125.853164206,560.972526056,561.180235479,561.472549434,nan,nan
0,368,2024,6,1,316,222,-0.0718215561597,0.428203514031,0.427892255365,1,1.0,1.0,0.223532591481,0,0.0,0.0,0.221041128815,0.246587648764,0.0875915451106,0.334179193875,0.158996103654,nan,nan,0.0,0.0,0.0,nan,nan,125.853164206,561.97265492,562.196187512,562.472674592,nan,nan
0,369,2025,6,1,480,337,0.580928072941,0.32870764083,-1.0,1,1.0,1.0,0.199401125312,0,0.0,0.0,0.210214379709,0.246522336987,0.0874759725594,0.333998309547,0.159046364428,nan,nan,0.0,0.0,0.0,nan,nan,125.853164206,562.972762117,563.172163242,563.472816,nan,nan
0,370,2026,6,1,34,23,1.0,0.0514419701458,-1.0,1,1.0,1.0,0.231231921352,0,0.0,0.0,0.218055212715,0.24638922622,0.0873881253311,0.333777351551,0.159001100889,nan,nan,0.0,0.0,0.0,nan,nan,125.853164206,563.972911222,564.204143144,564.472936026,nan,nan
0,371,2027,6,0,185,130,1.0,-0.102214474652,0.370299946716,0,1.0,0.0,0.263067563996,0,0.0,0.0,0.231233536887,0.246346529586,0.0872686541926,0.333615183779,0.159077875394,nan,nan,0.0,0.0,0.0,nan,nan,125.853164206,564.973057477,565.236125041,565.473089693,nan,nan
0,372,2028,6,1,503,353,0.773020196022,0.248538461814,-1.0,1,1.0,1.0,0.270984137896,0,0.0,0.0,0.255094541082,0.246393498784,0.0871504929696,0.333543991754,0.159243005814,nan,nan,0.0,0.0,0.0,nan,nan,125.853164206,565.973151274,566.244135412,566.473194038,nan,nan
0,373,2029,6,1,170,119,1.0,-0.180990482069,0.247815061387,1,1.0,1.0,0.238802101929,0,0.0,0.0,0.257617934607,0.246462380126,0.0870380515798,0.333500431706,0.159424328546,nan,nan,0.0,0.0,0.0,nan,nan,125.853164206,566.973284699,567.212086801,567.473323758,nan,nan
0,374,2030,6,1,390,274,-0.0641960347588,0.476284203309,-0.291947553613,1,1.0,1.0,0.213312719017,0,0.0,0.0,0.241032986281,0.246440982701,0.086917345327,0.333358328028,0.159523637374,nan,nan,0.0,0.0,0.0,nan,nan,125.853164206,568.006775615,568.220088334,568.506816099,nan,nan
0,375,2031,6,0,318,223,-0.0835627602325,0.431640264478,0.413481556053,0,1.0,0.0,0.18913535215,0,0.0,0.0,0.213750057699,0.246348703415,0.0868137657995,0.333162469215,0.159534937615,nan,nan,0.0,0.0,0.0,nan,nan,125.853164206,569.006920445,569.196055797,569.506946389,nan,nan
0,376,2032,6,1,388,272,-0.0739633693698,0.476941921698,-0.268577162136,1,1.0,1.0,0.205036352389,0,0.0,0.0,0.202494807852,0.246189777439,0.0867453876547,0.332935165094,0.159444389785,nan,nan,0.0,0.0,0.0,nan,nan,125.853164206,570.007005404,570.212041756,570.507103192,nan,nan
0,377,2033,6,1,339,238,-0.164955840019,0.45996923152,0.241423096872,1,1.0,1.0,0.116905739531,0,0.0,0.0,0.170359148023,0.246075779032,0.0866521580331,0.332727937065,0.159423620999,nan,nan,0.0,0.0,0.0,nan,nan,125.853164206,571.007157931,571.12406367,571.507201265,nan,nan
0,378,2034,6,0,412,289,0.0618891196837,0.462096609288,-0.571158935758,0,1.0,0.0,0.0686630490236,0,0.0,0.0,0.130201713648,0.245718955718,0.0867975695003,0.332516525219,0.158921386218,nan,nan,0.0,0.0,0.0,nan,nan,125.853164206,572.007346095,572.076009144,572.507330984,nan,nan
0,379,2035,6,1,271,190,0.320642857732,0.312811632898,0.639400143054,1,1.0,1.0,0.0765545340255,0,0.0,0.0,0.08737444086,0.2452311984,0.0871733110448,0.332404509444,0.158057887355,nan,nan,0.0,0.0,0.0,nan,nan,125.853164206,573.00739228,573.083946814,573.507434189,nan,nan
0,380,2036,6,0,36,25,1.0,0.0410699577143,-1.0,0,1.0,0.0,0.0924261696637,0,0.0,0.0,0.0792145842376,0.24476780097,0.08750005068,0.33226785165,0.15726775029,nan,nan,0.0,0.0,0.0,nan,nan,125.853164206,574.007557637,574.099983806,574.507597265,nan,nan
0,381,2037,6,1,151,106,1.0,-0.262720288689,0.0734626651272,1,1.0,1.0,0.252302871086,0,0.0,0.0,0.140427858258,0.244350426638,0.0877421911205,0.332092617758,0.156608235517,nan,nan,0.0,0.0,0.0,nan,nan,125.853164206,575.007664548,575.259967419,575.50770047,nan,nan
0,382,2038,6,1,367,258,-0.15309091083,0.477560897992,-0.0350816338538,1,1.0,1.0,0.24411802087,0,0.0,0.0,0.196282353873,0.244372154628,0.0876232260492,0.331995380677,0.156748928579,nan,nan,0.0,0.0,0.0,nan,nan,125.853164206,576.007802535,576.251920556,576.507853282,nan,nan
0,383,2039,6,1,252,177,0.524721685615,0.240693665738,0.655694012224,1,1.0,1.0,0.291969843674,0,0.0,0.0,0.262796911877,0.244371462165,0.087503767929,0.331875230094,0.156867694236,nan,nan,0.0,0.0,0.0,nan,nan,125.853164206,577.007910301,577.299880145,577.507953921,nan,nan
0,384,2040,6,1,357,251,-0.1717918326,0.473767524415,0.068739031695,1,1.0,1.0,0.30745032616,0,0.0,0.0,0.281179396901,0.244500805593,0.0874199198744,0.331920725468,0.157080885719,nan,nan,0.0,0.0,0.0,nan,nan,125.853164206,578.016437838,578.323888164,578.516424724,nan,nan
0,385,2041,6,1,193,135,1.0,-0.0580453890011,0.428658791268,1,1.0,1.0,0.347316296306,0,0.0,0.0,0.315578822047,0.2446714005,0.0873627006899,0.33203410119,0.15730869981,nan,nan,0.0,0.0,0.0,nan,nan,125.853164206,579.016517665,579.363833962,579.51654646,nan,nan
0,386,2042,6,1,414,291,0.0747837862165,0.460162189034,-0.600089175003,1,1.0,1.0,0.291175563354,0,0.0,0.0,0.31531406194,0.244948819137,0.0874071646846,0.332355983822,0.157541654453,nan,nan,0.0,0.0,0.0,nan,nan,125.853164206,580.016651376,580.307826939,580.516684447,nan,nan
0,387,2043,6,1,53,37,1.0,-0.049257555853,-1.0,1,1.0,1.0,0.307033514138,0,0.0,0.0,0.315175124599,0.245073419526,0.0873221836522,0.332395603178,0.157751235874,nan,nan,0.0,0.0,0.0,nan,nan,125.853164206,581.01676513,581.323798644,581.51681103,nan,nan
0,388,2044,6,1,188,132,1.0,-0.0857393506835,0.392804289229,1,1.0,1.0,0.234901119955,0,0.0,0.0,0.277703399149,0.24523997892,0.0872637284302,0.332503707351,0.15797625049,nan,nan,0.0,0.0,0.0,nan,nan,125.853164206,582.016905397,582.251806517,582.516962131,nan,nan
