block,trial,freq_trials,correct_response,actual_response,acc,rts,probe_trials,trials_colorind0,trials_colorind1,trials_colorind2,trials_colorind3,trials_colorind4,trials_colorind5,wholereport_resp0,wholereport_resp1,wholereport_resp2,wholereport_resp3,wholereport_resp4,wholereport_resp5,wholereport_respacc0,wholereport_respacc1,wholereport_respacc2,wholereport_respacc3,wholereport_respacc4,wholereport_respacc5,wholereport_respacc_total,wholereport_respcolorind0,wholereport_respcolorind1,wholereport_respcolorind2,wholereport_respcolorind3,wholereport_respcolorind4,wholereport_respcolorind5,wholereport_resporder0,wholereport_resporder1,wholereport_resporder2,wholereport_resporder3,wholereport_resporder4,wholereport_resporder5,wholereport_rts0,wholereport_rts1,wholereport_rts2,wholereport_rts3,wholereport_rts4,wholereport_rts5,time_blockstart,time_encarray_offset,time_encarray_onset,time_response,time_iti_offset,time_iti_onset,time_memprobe_offset,time_memprobe_onset
1,1,1,1,1.0,1.0,0.6441637054085732,0.0,1,0,4,5,6,8,nan,nan,nan,nan,nan,nan,nan,nan,nan,nan,nan,nan,0.0,nan,nan,nan,nan,nan,nan,nan,nan,nan,nan,nan,nan,nan,nan,nan,nan,nan,nan,124.28387446794659,125.30369674926624,nan,125.94786045467481,nan,nan,nan,nan
1,2,1,1,1.0,1.0,0.3876452287659049,0.0,5,3,2,0,7,4,nan,nan,nan,nan,nan,nan,nan,nan,nan,nan,nan,nan,0.0,nan,nan,nan,nan,nan,nan,nan,nan,nan,nan,nan,nan,nan,nan,nan,nan,nan,nan,124.28387446794659,126.31220549391583,nan,126.69985072268173,nan,nan,nan,nan
1,3,1,1,1.0,1.0,0.3632112047635019,0.0,0,4,3,8,2,7,nan,nan,nan,nan,nan,nan,nan,nan,nan,nan,nan,nan,0.0,nan,nan,nan,nan,nan,nan,nan,nan,nan,nan,nan,nan,nan,nan,nan,nan,nan,nan,124.28387446794659,127.32064039818943,nan,127.68385160295293,nan,nan,nan,nan
1,4,1,1,1.0,1.0,0.44275919953361154,0.0,2,6,0,5,8,3,nan,nan,nan,nan,nan,nan,nan,nan,nan,nan,nan,nan,0.0,nan,nan,nan,nan,nan,nan,nan,nan,nan,nan,nan,nan,nan,nan,nan,nan,nan,nan,124.28387446794659,128.32905905181542,nan,128.77181825134903,nan,nan,nan,nan
1,5,1,1,1.0,1.0,0.32225319650024176,0.0,3,7,5,8,0,1,nan,nan,nan,nan,nan,nan,nan,nan,nan,nan,nan,nan,0.0,nan,nan,nan,nan,nan,nan,nan,nan,nan,nan,nan,nan,nan,nan,nan,nan,nan,nan,124.28387446794659,129.33755011996254,nan,129.65980331646279,nan,nan,nan,nan
1,6,1,1,1.0,1.0,0.31376155791804194,0.0,0,4,1,2,7,8,nan,nan,nan,nan,nan,nan,nan,nan,nan,nan,nan,nan,0.0,nan,nan,nan,nan,nan,nan,nan,nan,nan,nan,nan,nan,nan,nan,nan,nan,nan,nan,124.28387446794659,130.3460280741565,nan,130.65978963207453,nan,nan,nan,nan
1,7,1,1,1.0,1.0,0.42533573135733604,0.0,4,3,7,8,2,5,nan,nan,nan,nan,nan,nan,nan,nan,nan,nan,nan,nan,0.0,nan,nan,nan,nan,nan,nan,nan,nan,nan,nan,nan,nan,nan,nan,nan,nan,nan,nan,124.28387446794659,131.35445670597255,nan,131.7797924373299,nan,nan,nan,nan
1,8,1,1,1.0,1.0,0.3688150877133012,0.0,3,6,5,1,8,0,nan,nan,nan,nan,nan,nan,nan,nan,nan,nan,nan,nan,0.0,nan,nan,nan,nan,nan,nan,nan,nan,nan,nan,nan,nan,nan,nan,nan,nan,nan,nan,124.28387446794659,132.36294292798266,nan,132.73175801569596,nan,nan,nan,nan
1,9,0,0,nan,nan,nan,0.0,8,0,6,5,4,7,nan,nan,nan,nan,nan,nan,nan,nan,nan,nan,nan,nan,0.0,nan,nan,nan,nan,nan,nan,nan,nan,nan,nan,nan,nan,nan,nan,nan,nan,nan,nan,124.28387446794659,133.37139579327777,nan,nan,nan,nan,nan,nan
1,10,1,1,1.0,1.0,0.5438674320466816,0.0,2,5,1,6,0,8,nan,nan,nan,nan,nan,nan,nan,nan,nan,nan,nan,nan,0.0,nan,nan,nan,nan,nan,nan,nan,nan,nan,nan,nan,nan,nan,nan,nan,nan,nan,nan,124.28387446794659,134.37985977716744,nan,134.92372720921412,nan,nan,nan,nan
1,11,1,1,1.0,1.0,0.2793907346203923,0.0,7,3,5,0,8,4,nan,nan,nan,nan,nan,nan,nan,nan,nan,nan,nan,nan,0.0,nan,nan,nan,nan,nan,nan,nan,nan,nan,nan,nan,nan,nan,nan,nan,nan,nan,nan,124.28387446794659,135.3883029492572,nan,135.6676936838776,nan,nan,nan,nan
1,12,1,1,1.0,1.0,0.35888170916587114,0.0,6,8,1,2,3,0,nan,nan,nan,nan,nan,nan,nan,nan,nan,nan,nan,nan,0.0,nan,nan,nan,nan,nan,nan,nan,nan,nan,nan,nan,nan,nan,nan,nan,nan,nan,nan,124.28387446794659,136.39680314110592,nan,136.7556848502718,nan,nan,nan,nan
1,13,0,0,0.0,1.0,0.342389655765146,1.0,2,4,7,6,8,1,1.0,1.0,1.0,1.0,1.0,1.0,0.0,1.0,1.0,0.0,0.0,0.0,2.0,1.0,4.0,7.0,2.0,2.0,0.0,3.0,2.0,1.0,6.0,5.0,4.0,3.6994772446341813,2.4984074435196817,1.5165533497929573,5.537602692376822,5.058105217292905,4.403059897944331,124.28387446794659,137.40526541462168,138.21367283537984,137.74765507038683,144.79783171694726,145.7959899851121,139.22213197266683,144.78949203528464
1,14,1,1,nan,nan,nan,0.0,0,3,1,5,7,6,nan,nan,nan,nan,nan,nan,nan,nan,nan,nan,nan,nan,0.0,nan,nan,nan,nan,nan,nan,nan,nan,nan,nan,nan,nan,nan,nan,nan,nan,nan,nan,124.28387446794659,146.006353974808,nan,nan,nan,nan,nan,nan
1,15,1,1,1.0,1.0,0.10866931173950434,0.0,7,8,3,2,4,0,nan,nan,nan,nan,nan,nan,nan,nan,nan,nan,nan,nan,0.0,nan,nan,nan,nan,nan,nan,nan,nan,nan,nan,nan,nan,nan,nan,nan,nan,nan,nan,124.28387446794659,147.01479714689776,nan,147.12346645863727,nan,nan,nan,nan
1,16,1,1,1.0,1.0,0.30018291901797056,0.0,0,6,7,4,3,2,nan,nan,nan,nan,nan,nan,nan,nan,nan,nan,nan,nan,0.0,nan,nan,nan,nan,nan,nan,nan,nan,nan,nan,nan,nan,nan,nan,nan,nan,nan,nan,124.28387446794659,148.02328621968627,nan,148.32346913870424,nan,nan,nan,nan
1,17,0,0,0.0,1.0,0.35570771526545286,0.0,5,4,8,0,7,6,nan,nan,nan,nan,nan,nan,nan,nan,nan,nan,nan,nan,0.0,nan,nan,nan,nan,nan,nan,nan,nan,nan,nan,nan,nan,nan,nan,nan,nan,nan,nan,124.28387446794659,149.0317539102398,nan,149.38746162550524,nan,nan,nan,nan
1,18,1,1,1.0,1.0,0.3392287762835622,0.0,6,1,7,4,3,8,nan,nan,nan,nan,nan,nan,nan,nan,nan,nan,nan,nan,0.0,nan,nan,nan,nan,nan,nan,nan,nan,nan,nan,nan,nan,nan,nan,nan,nan,nan,nan,124.28387446794659,150.04020905634388,nan,150.37943783262745,nan,nan,nan,nan
1,19,1,1,1.0,1.0,0.33074084343388677,0.0,5,6,4,8,7,2,nan,nan,nan,nan,nan,nan,nan,nan,nan,nan,nan,nan,0.0,nan,nan,nan,nan,nan,nan,nan,nan,nan,nan,nan,nan,nan,nan,nan,nan,nan,nan,124.28387446794659,151.0486741811037,nan,151.3794150245376,nan,nan,nan,nan
1,20,1,1,1.0,1.0,0.3703027283772826,0.0,1,4,3,6,2,7,nan,nan,nan,nan,nan,nan,nan,nan,nan,nan,nan,nan,0.0,nan,nan,nan,nan,nan,nan,nan,nan,nan,nan,nan,nan,nan,nan,nan,nan,nan,nan,124.28387446794659,152.05709910672158,nan,152.42740183509886,nan,nan,nan,nan
1,21,0,0,0.0,1.0,0.35377104580402374,0.0,2,8,1,4,3,6,nan,nan,nan,nan,nan,nan,nan,nan,nan,nan,nan,nan,0.0,nan,nan,nan,nan,nan,nan,nan,nan,nan,nan,nan,nan,nan,nan,nan,nan,nan,nan,124.28387446794659,153.065601864364,nan,153.41937291016802,nan,nan,nan,nan
1,22,1,1,1.0,1.0,0.3932773363776505,0.0,7,5,8,0,1,2,nan,nan,nan,nan,nan,nan,nan,nan,nan,nan,nan,nan,0.0,nan,nan,nan,nan,nan,nan,nan,nan,nan,nan,nan,nan,nan,nan,nan,nan,nan,nan,124.28387446794659,154.07406698865816,nan,154.4673443250358,nan,nan,nan,nan
1,23,1,1,1.0,1.0,0.30488332686945796,0.0,8,3,5,4,6,7,nan,nan,nan,nan,nan,nan,nan,nan,nan,nan,nan,nan,0.0,nan,nan,nan,nan,nan,nan,nan,nan,nan,nan,nan,nan,nan,nan,nan,nan,nan,nan,124.28387446794659,155.0824813656509,nan,155.38736469252035,nan,nan,nan,nan
1,24,1,1,1.0,1.0,0.3363780830986798,0.0,0,5,7,8,1,6,nan,nan,nan,nan,nan,nan,nan,nan,nan,nan,nan,nan,0.0,nan,nan,nan,nan,nan,nan,nan,nan,nan,nan,nan,nan,nan,nan,nan,nan,nan,nan,124.28387446794659,156.0909504815936,nan,156.4273285646923,nan,nan,nan,nan
1,25,1,1,1.0,1.0,0.31189331179484725,0.0,6,3,8,7,5,0,nan,nan,nan,nan,nan,nan,nan,nan,nan,nan,nan,nan,0.0,nan,nan,nan,nan,nan,nan,nan,nan,nan,nan,nan,nan,nan,nan,nan,nan,nan,nan,124.28387446794659,157.09941703174263,nan,157.41131034353748,nan,nan,nan,nan
1,26,1,1,1.0,1.0,0.3913232758641243,0.0,3,5,2,4,0,1,nan,nan,nan,nan,nan,nan,nan,nan,nan,nan,nan,nan,0.0,nan,nan,nan,nan,nan,nan,nan,nan,nan,nan,nan,nan,nan,nan,nan,nan,nan,nan,124.28387446794659,158.1079645496793,nan,158.49928782554343,nan,nan,nan,nan
1,27,1,1,1.0,1.0,0.32690371200442314,0.0,7,6,1,3,5,2,nan,nan,nan,nan,nan,nan,nan,nan,nan,nan,nan,nan,0.0,nan,nan,nan,nan,nan,nan,nan,nan,nan,nan,nan,nan,nan,nan,nan,nan,nan,nan,124.28387446794659,159.11637037387118,nan,159.4432740858756,nan,nan,nan,nan
1,28,1,1,1.0,1.0,0.33441974641755223,0.0,0,3,6,8,2,5,nan,nan,nan,nan,nan,nan,nan,nan,nan,nan,nan,nan,0.0,nan,nan,nan,nan,nan,nan,nan,nan,nan,nan,nan,nan,nan,nan,nan,nan,nan,nan,124.28387446794659,160.12483293237165,nan,160.4592526787892,nan,nan,nan,nan
1,29,1,1,1.0,1.0,0.31779626198112965,0.0,1,5,3,4,0,8,nan,nan,nan,nan,nan,nan,nan,nan,nan,nan,nan,nan,0.0,nan,nan,nan,nan,nan,nan,nan,nan,nan,nan,nan,nan,nan,nan,nan,nan,nan,nan,124.28387446794659,161.13343861047179,nan,161.45123487245291,nan,nan,nan,nan
1,30,1,1,1.0,1.0,0.31750033097341657,0.0,4,6,0,5,8,7,nan,nan,nan,nan,nan,nan,nan,nan,nan,nan,nan,nan,0.0,nan,nan,nan,nan,nan,nan,nan,nan,nan,nan,nan,nan,nan,nan,nan,nan,nan,nan,124.28387446794659,162.14173039514571,nan,162.45923072611913,nan,nan,nan,nan
1,31,1,1,1.0,1.0,0.3329925462603569,0.0,7,0,2,1,4,8,nan,nan,nan,nan,nan,nan,nan,nan,nan,nan,nan,nan,0.0,nan,nan,nan,nan,nan,nan,nan,nan,nan,nan,nan,nan,nan,nan,nan,nan,nan,nan,124.28387446794659,163.1502177575603,nan,163.48321030382067,nan,nan,nan,nan
1,32,1,1,1.0,1.0,0.3085052096284926,0.0,2,1,6,3,5,4,nan,nan,nan,nan,nan,nan,nan,nan,nan,nan,nan,nan,0.0,nan,nan,nan,nan,nan,nan,nan,nan,nan,nan,nan,nan,nan,nan,nan,nan,nan,nan,124.28387446794659,164.15868031606078,nan,164.46718552568927,nan,nan,nan,nan
1,33,1,1,1.0,1.0,0.3000606116838753,0.0,4,3,5,0,2,6,nan,nan,nan,nan,nan,nan,nan,nan,nan,nan,nan,nan,0.0,nan,nan,nan,nan,nan,nan,nan,nan,nan,nan,nan,nan,nan,nan,nan,nan,nan,nan,124.28387446794659,165.167107807938,nan,165.46716841962188,nan,nan,nan,nan
1,34,1,1,1.0,1.0,0.30758263263851404,0.0,0,7,8,5,4,2,nan,nan,nan,nan,nan,nan,nan,nan,nan,nan,nan,nan,0.0,nan,nan,nan,nan,nan,nan,nan,nan,nan,nan,nan,nan,nan,nan,nan,nan,nan,nan,124.28387446794659,166.1755652348511,nan,166.4831478674896,nan,nan,nan,nan
1,35,1,1,1.0,1.0,0.31505761248990893,0.0,7,1,5,4,0,8,nan,nan,nan,nan,nan,nan,nan,nan,nan,nan,nan,nan,0.0,nan,nan,nan,nan,nan,nan,nan,nan,nan,nan,nan,nan,nan,nan,nan,nan,nan,nan,124.28387446794659,167.18406856246293,nan,167.49912617495283,nan,nan,nan,nan
1,36,0,0,1.0,0.0,0.22657835856080055,1.0,6,0,3,1,8,7,1.0,1.0,1.0,1.0,1.0,1.0,1.0,1.0,0.0,0.0,0.0,0.0,2.0,6.0,0.0,1.0,4.0,7.0,8.0,3.0,2.0,1.0,4.0,5.0,6.0,3.926821090746671,2.983827540650964,2.2788225347176194,4.861306466627866,5.590293901506811,6.493680521380156,124.28387446794659,168.1925322613679,169.00094424374402,168.4191106199287,176.55189920729026,177.55708884308115,170.01774021191522,176.54356665350497
1,37,1,1,1.0,1.0,0.5465510576032102,0.0,4,7,1,8,5,2,nan,nan,nan,nan,nan,nan,nan,nan,nan,nan,nan,nan,0.0,nan,nan,nan,nan,nan,nan,nan,nan,nan,nan,nan,nan,nan,nan,nan,nan,nan,nan,124.28387446794659,177.76040977658704,nan,178.30696083419025,nan,nan,nan,nan
1,38,1,1,1.0,1.0,0.29003229597583413,0.0,5,2,0,4,3,6,nan,nan,nan,nan,nan,nan,nan,nan,nan,nan,nan,nan,0.0,nan,nan,nan,nan,nan,nan,nan,nan,nan,nan,nan,nan,nan,nan,nan,nan,nan,nan,124.28387446794659,178.76889029657468,nan,179.05892259255052,nan,nan,nan,nan
1,39,1,1,1.0,1.0,0.2735741687938571,0.0,6,1,2,3,0,8,nan,nan,nan,nan,nan,nan,nan,nan,nan,nan,nan,nan,0.0,nan,nan,nan,nan,nan,nan,nan,nan,nan,nan,nan,nan,nan,nan,nan,nan,nan,nan,124.28387446794659,179.7773428768851,nan,180.05091704567894,nan,nan,nan,nan
1,40,0,0,0.0,1.0,0.3290989655070007,0.0,0,3,6,7,5,4,nan,nan,nan,nan,nan,nan,nan,nan,nan,nan,nan,nan,0.0,nan,nan,nan,nan,nan,nan,nan,nan,nan,nan,nan,nan,nan,nan,nan,nan,nan,nan,124.28387446794659,180.78578576352447,nan,181.11488472903147,nan,nan,nan,nan
1,41,1,1,1.0,1.0,0.2886450099758804,0.0,3,5,2,0,1,6,nan,nan,nan,nan,nan,nan,nan,nan,nan,nan,nan,nan,0.0,nan,nan,nan,nan,nan,nan,nan,nan,nan,nan,nan,nan,nan,nan,nan,nan,nan,nan,124.28387446794659,181.7942326418124,nan,182.0828776517883,nan,nan,nan,nan
1,42,1,1,0.0,0.0,0.5121391802094877,0.0,7,3,4,8,6,5,nan,nan,nan,nan,nan,nan,nan,nan,nan,nan,nan,nan,0.0,nan,nan,nan,nan,nan,nan,nan,nan,nan,nan,nan,nan,nan,nan,nan,nan,nan,nan,124.28387446794659,182.80271344678476,nan,183.31485262699425,nan,nan,nan,nan
1,43,1,1,1.0,1.0,0.519642099738121,0.0,8,4,7,1,2,0,nan,nan,nan,nan,nan,nan,nan,nan,nan,nan,nan,nan,0.0,nan,nan,nan,nan,nan,nan,nan,nan,nan,nan,nan,nan,nan,nan,nan,nan,nan,nan,124.28387446794659,183.81119339633733,nan,184.33083549607545,nan,nan,nan,nan
1,44,1,1,1.0,1.0,0.3271508920006454,0.0,2,1,0,5,7,8,nan,nan,nan,nan,nan,nan,nan,nan,nan,nan,nan,nan,0.0,nan,nan,nan,nan,nan,nan,nan,nan,nan,nan,nan,nan,nan,nan,nan,nan,nan,nan,124.28387446794659,184.81965852109715,nan,185.1468094130978,nan,nan,nan,nan
1,45,1,1,1.0,1.0,0.3506677560508251,0.0,6,4,8,1,0,5,nan,nan,nan,nan,nan,nan,nan,nan,nan,nan,nan,nan,0.0,nan,nan,nan,nan,nan,nan,nan,nan,nan,nan,nan,nan,nan,nan,nan,nan,nan,nan,124.28387446794659,185.82812649663538,nan,186.1787942526862,nan,nan,nan,nan
1,46,1,1,1.0,1.0,0.2942149662412703,0.0,0,1,5,7,8,2,nan,nan,nan,nan,nan,nan,nan,nan,nan,nan,nan,nan,0.0,nan,nan,nan,nan,nan,nan,nan,nan,nan,nan,nan,nan,nan,nan,nan,nan,nan,nan,124.28387446794659,186.83657394489273,nan,187.130788911134,nan,nan,nan,nan
1,47,1,1,1.0,1.0,0.3497038404457271,0.0,1,8,0,3,4,6,nan,nan,nan,nan,nan,nan,nan,nan,nan,nan,nan,nan,0.0,nan,nan,nan,nan,nan,nan,nan,nan,nan,nan,nan,nan,nan,nan,nan,nan,nan,nan,124.28387446794659,187.84505018824711,nan,188.19475402869284,nan,nan,nan,nan
1,48,1,1,1.0,1.0,0.3412287374958396,0.0,7,2,6,0,8,1,nan,nan,nan,nan,nan,nan,nan,nan,nan,nan,nan,nan,0.0,nan,nan,nan,nan,nan,nan,nan,nan,nan,nan,nan,nan,nan,nan,nan,nan,nan,nan,124.28387446794659,188.85350561980158,nan,189.19473435729742,nan,nan,nan,nan
1,49,1,1,1.0,1.0,0.37277851765975356,0.0,1,3,5,4,0,8,nan,nan,nan,nan,nan,nan,nan,nan,nan,nan,nan,nan,0.0,nan,nan,nan,nan,nan,nan,nan,nan,nan,nan,nan,nan,nan,nan,nan,nan,nan,nan,124.28387446794659,189.86194480024278,nan,190.23472331790254,nan,nan,nan,nan
1,50,1,1,1.0,1.0,0.2842741752974689,0.0,3,4,1,0,7,2,nan,nan,nan,nan,nan,nan,nan,nan,nan,nan,nan,nan,0.0,nan,nan,nan,nan,nan,nan,nan,nan,nan,nan,nan,nan,nan,nan,nan,nan,nan,nan,124.28387446794659,190.87043729424477,nan,191.15471146954224,nan,nan,nan,nan
1,51,1,1,1.0,1.0,0.31581226643174887,0.0,0,5,6,8,2,7,nan,nan,nan,nan,nan,nan,nan,nan,nan,nan,nan,nan,0.0,nan,nan,nan,nan,nan,nan,nan,nan,nan,nan,nan,nan,nan,nan,nan,nan,nan,nan,124.28387446794659,191.87888616835698,nan,192.19469843478873,nan,nan,nan,nan
1,52,1,1,1.0,1.0,0.3953209174796939,0.0,8,0,1,6,3,4,nan,nan,nan,nan,nan,nan,nan,nan,nan,nan,nan,nan,0.0,nan,nan,nan,nan,nan,nan,nan,nan,nan,nan,nan,nan,nan,nan,nan,nan,nan,nan,124.28387446794659,192.88734445068985,nan,193.28266536816955,nan,nan,nan,nan
1,53,1,1,1.0,1.0,0.38686776673421264,0.0,7,2,5,1,0,8,nan,nan,nan,nan,nan,nan,nan,nan,nan,nan,nan,nan,0.0,nan,nan,nan,nan,nan,nan,nan,nan,nan,nan,nan,nan,nan,nan,nan,nan,nan,nan,124.28387446794659,193.8957901885733,nan,194.2826579553075,nan,nan,nan,nan
1,54,1,1,1.0,1.0,0.3543680408038199,0.0,0,4,2,7,3,5,nan,nan,nan,nan,nan,nan,nan,nan,nan,nan,nan,nan,0.0,nan,nan,nan,nan,nan,nan,nan,nan,nan,nan,nan,nan,nan,nan,nan,nan,nan,nan,124.28387446794659,194.9042841079645,nan,195.2586521487683,nan,nan,nan,nan
1,55,1,1,1.0,1.0,0.48987332498654723,0.0,5,0,8,1,4,7,nan,nan,nan,nan,nan,nan,nan,nan,nan,nan,nan,nan,0.0,nan,nan,nan,nan,nan,nan,nan,nan,nan,nan,nan,nan,nan,nan,nan,nan,nan,nan,124.28387446794659,195.91274980269372,nan,196.40262312768027,nan,nan,nan,nan
1,56,1,1,1.0,1.0,0.33740614587441087,0.0,2,6,1,3,7,4,nan,nan,nan,nan,nan,nan,nan,nan,nan,nan,nan,nan,0.0,nan,nan,nan,nan,nan,nan,nan,nan,nan,nan,nan,nan,nan,nan,nan,nan,nan,nan,124.28387446794659,196.9212072296068,nan,197.25861337548122,nan,nan,nan,nan
1,57,1,1,1.0,1.0,0.2969299526885152,0.0,4,3,5,1,0,8,nan,nan,nan,nan,nan,nan,nan,nan,nan,nan,nan,nan,0.0,nan,nan,nan,nan,nan,nan,nan,nan,nan,nan,nan,nan,nan,nan,nan,nan,nan,nan,124.28387446794659,197.92965895449743,nan,198.22658890718594,nan,nan,nan,nan
1,58,1,1,1.0,1.0,0.4244422344490886,0.0,8,7,6,0,3,1,nan,nan,nan,nan,nan,nan,nan,nan,nan,nan,nan,nan,0.0,nan,nan,nan,nan,nan,nan,nan,nan,nan,nan,nan,nan,nan,nan,nan,nan,nan,nan,124.28387446794659,198.93813149165362,nan,199.3625737261027,nan,nan,nan,nan
1,59,1,1,1.0,1.0,0.36796777695417404,0.0,0,3,1,4,2,8,nan,nan,nan,nan,nan,nan,nan,nan,nan,nan,nan,nan,0.0,nan,nan,nan,nan,nan,nan,nan,nan,nan,nan,nan,nan,nan,nan,nan,nan,nan,nan,124.28387446794659,199.94658464193344,nan,200.31455241888762,nan,nan,nan,nan
1,60,1,1,1.0,1.0,0.2954699667170644,0.0,1,7,3,2,0,5,nan,nan,nan,nan,nan,nan,nan,nan,nan,nan,nan,nan,0.0,nan,nan,nan,nan,nan,nan,nan,nan,nan,nan,nan,nan,nan,nan,nan,nan,nan,nan,124.28387446794659,200.95505461329594,nan,201.250524580013,nan,nan,nan,nan
1,61,1,1,1.0,1.0,0.3029860006645322,0.0,3,2,7,8,6,4,nan,nan,nan,nan,nan,nan,nan,nan,nan,nan,nan,nan,0.0,nan,nan,nan,nan,nan,nan,nan,nan,nan,nan,nan,nan,nan,nan,nan,nan,nan,nan,124.28387446794659,201.9635223033838,nan,202.26650830404833,nan,nan,nan,nan
1,62,1,1,1.0,1.0,0.28651333320885897,0.0,8,3,1,2,7,0,nan,nan,nan,nan,nan,nan,nan,nan,nan,nan,nan,nan,0.0,nan,nan,nan,nan,nan,nan,nan,nan,nan,nan,nan,nan,nan,nan,nan,nan,nan,nan,124.28387446794659,202.97199284518138,nan,203.25850617839023,nan,nan,nan,nan
1,63,1,1,1.0,1.0,0.2700512148439884,0.0,0,6,2,8,5,7,nan,nan,nan,nan,nan,nan,nan,nan,nan,nan,nan,nan,0.0,nan,nan,nan,nan,nan,nan,nan,nan,nan,nan,nan,nan,nan,nan,nan,nan,nan,nan,124.28387446794659,203.98043516185135,nan,204.25048637669533,nan,nan,nan,nan
1,64,1,1,1.0,1.0,0.2695591361261904,0.0,1,4,6,3,8,5,nan,nan,nan,nan,nan,nan,nan,nan,nan,nan,nan,nan,0.0,nan,nan,nan,nan,nan,nan,nan,nan,nan,nan,nan,nan,nan,nan,nan,nan,nan,nan,124.28387446794659,204.98890855396166,nan,205.25846769008785,nan,nan,nan,nan
1,65,1,1,1.0,1.0,0.2850664621219039,0.0,5,8,3,4,1,2,nan,nan,nan,nan,nan,nan,nan,nan,nan,nan,nan,nan,0.0,nan,nan,nan,nan,nan,nan,nan,nan,nan,nan,nan,nan,nan,nan,nan,nan,nan,nan,124.28387446794659,205.99737624451518,nan,206.28244270663708,nan,nan,nan,nan
1,66,1,1,1.0,1.0,0.2925953255034983,0.0,8,0,7,1,2,3,nan,nan,nan,nan,nan,nan,nan,nan,nan,nan,nan,nan,0.0,nan,nan,nan,nan,nan,nan,nan,nan,nan,nan,nan,nan,nan,nan,nan,nan,nan,nan,124.28387446794659,207.00583937345073,nan,207.29843469895422,nan,nan,nan,nan
1,67,1,1,1.0,1.0,0.26811140961945057,0.0,4,5,3,2,8,6,nan,nan,nan,nan,nan,nan,nan,nan,nan,nan,nan,nan,0.0,nan,nan,nan,nan,nan,nan,nan,nan,nan,nan,nan,nan,nan,nan,nan,nan,nan,nan,124.28387446794659,208.014298225753,nan,208.28240963537246,nan,nan,nan,nan
1,68,1,1,1.0,1.0,0.2676304494962096,0.0,3,7,4,6,2,8,nan,nan,nan,nan,nan,nan,nan,nan,nan,nan,nan,nan,0.0,nan,nan,nan,nan,nan,nan,nan,nan,nan,nan,nan,nan,nan,nan,nan,nan,nan,nan,124.28387446794659,209.02275935886428,nan,209.2903898083605,nan,nan,nan,nan
1,69,0,0,0.0,1.0,0.41914996411651373,1.0,2,0,6,4,5,1,1.0,1.0,1.0,1.0,1.0,1.0,1.0,1.0,1.0,1.0,0.0,0.0,4.0,2.0,0.0,6.0,4.0,8.0,5.0,3.0,2.0,1.0,4.0,5.0,6.0,3.4700687201693654,2.6483315504156053,1.7212977767921984,4.694357172586024,5.5584379262290895,6.102275137789547,124.28387446794659,210.03122163238004,210.83962534694,210.45037159649655,217.99887386336923,219.0055867768824,211.85643528494984,217.9905341817066
1,70,1,1,nan,nan,nan,0.0,8,5,2,7,4,0,nan,nan,nan,nan,nan,nan,nan,nan,nan,nan,nan,nan,0.0,nan,nan,nan,nan,nan,nan,nan,nan,nan,nan,nan,nan,nan,nan,nan,nan,nan,nan,124.28387446794659,219.2073841476813,nan,nan,nan,nan,nan,nan
1,71,1,1,1.0,1.0,0.5063134911470115,0.0,5,6,3,8,2,4,nan,nan,nan,nan,nan,nan,nan,nan,nan,nan,nan,nan,0.0,nan,nan,nan,nan,nan,nan,nan,nan,nan,nan,nan,nan,nan,nan,nan,nan,nan,nan,124.28387446794659,220.21584642119706,nan,220.72215991234407,nan,nan,nan,nan
1,72,1,1,1.0,1.0,0.26586569380015135,0.0,3,7,8,4,1,2,nan,nan,nan,nan,nan,nan,nan,nan,nan,nan,nan,nan,0.0,nan,nan,nan,nan,nan,nan,nan,nan,nan,nan,nan,nan,nan,nan,nan,nan,nan,nan,124.28387446794659,221.22431981330737,nan,221.49018550710753,nan,nan,nan,nan
1,73,1,1,1.0,1.0,0.25737006356939673,0.0,0,3,5,7,8,6,nan,nan,nan,nan,nan,nan,nan,nan,nan,nan,nan,nan,0.0,nan,nan,nan,nan,nan,nan,nan,nan,nan,nan,nan,nan,nan,nan,nan,nan,nan,nan,124.28387446794659,222.23278009146452,nan,222.49015015503392,nan,nan,nan,nan
1,74,1,1,1.0,1.0,0.31291481759399176,0.0,2,1,0,8,4,3,nan,nan,nan,nan,nan,nan,nan,nan,nan,nan,nan,nan,0.0,nan,nan,nan,nan,nan,nan,nan,nan,nan,nan,nan,nan,nan,nan,nan,nan,nan,nan,124.28387446794659,223.24123096093535,nan,223.55414577852935,nan,nan,nan,nan
1,75,0,0,1.0,0.0,0.22441845759749413,1.0,1,4,2,0,6,8,1.0,1.0,1.0,1.0,1.0,1.0,0.0,1.0,1.0,1.0,0.0,0.0,3.0,8.0,4.0,2.0,0.0,7.0,1.0,4.0,3.0,2.0,1.0,6.0,5.0,4.555776537861675,3.8213106631301343,3.059659570455551,2.396039363928139,6.787460998632014,5.443609076086432,124.28387446794659,224.24970948509872,225.05811804626137,224.4741279426962,232.89244228461757,233.90333245135844,226.0665808902122,232.88410973036662
1,76,1,1,1.0,1.0,0.2763310647569597,0.0,7,8,5,4,3,0,nan,nan,nan,nan,nan,nan,nan,nan,nan,nan,nan,nan,0.0,nan,nan,nan,nan,nan,nan,nan,nan,nan,nan,nan,nan,nan,nan,nan,nan,nan,nan,124.28387446794659,234.11760114133358,nan,234.39393220609054,nan,nan,nan,nan
1,77,1,1,1.0,1.0,0.3078152728267014,0.0,5,1,6,2,4,3,nan,nan,nan,nan,nan,nan,nan,nan,nan,nan,nan,nan,0.0,nan,nan,nan,nan,nan,nan,nan,nan,nan,nan,nan,nan,nan,nan,nan,nan,nan,nan,124.28387446794659,235.12610047729686,nan,235.43391575012356,nan,nan,nan,nan
1,78,1,1,1.0,1.0,0.2593794334679842,0.0,4,6,7,3,5,2,nan,nan,nan,nan,nan,nan,nan,nan,nan,nan,nan,nan,0.0,nan,nan,nan,nan,nan,nan,nan,nan,nan,nan,nan,nan,nan,nan,nan,nan,nan,nan,124.28387446794659,236.13452483294532,nan,236.3939042664133,nan,nan,nan,nan
1,79,1,1,1.0,1.0,0.2988663371652365,0.0,8,5,4,7,0,3,nan,nan,nan,nan,nan,nan,nan,nan,nan,nan,nan,nan,0.0,nan,nan,nan,nan,nan,nan,nan,nan,nan,nan,nan,nan,nan,nan,nan,nan,nan,nan,124.28387446794659,237.1430196077563,nan,237.44188594492152,nan,nan,nan,nan
1,80,1,1,1.0,1.0,0.24238475179299712,0.0,2,3,0,5,7,8,nan,nan,nan,nan,nan,nan,nan,nan,nan,nan,nan,nan,0.0,nan,nan,nan,nan,nan,nan,nan,nan,nan,nan,nan,nan,nan,nan,nan,nan,nan,nan,124.28387446794659,238.1514875832945,nan,238.3938723350875,nan,nan,nan,nan
1,81,1,1,1.0,1.0,0.23389254324138165,0.0,7,5,2,8,1,6,nan,nan,nan,nan,nan,nan,nan,nan,nan,nan,nan,nan,0.0,nan,nan,nan,nan,nan,nan,nan,nan,nan,nan,nan,nan,nan,nan,nan,nan,nan,nan,124.28387446794659,239.15995071223006,nan,239.39384325547144,nan,nan,nan,nan
1,82,1,1,1.0,1.0,0.22541629988700151,0.0,5,8,0,1,6,7,nan,nan,nan,nan,nan,nan,nan,nan,nan,nan,nan,nan,0.0,nan,nan,nan,nan,nan,nan,nan,nan,nan,nan,nan,nan,nan,nan,nan,nan,nan,nan,124.28387446794659,240.1684149815701,nan,240.3938312814571,nan,nan,nan,nan
1,83,1,1,1.0,1.0,0.24893829552456737,0.0,8,6,2,3,7,0,nan,nan,nan,nan,nan,nan,nan,nan,nan,nan,nan,nan,0.0,nan,nan,nan,nan,nan,nan,nan,nan,nan,nan,nan,nan,nan,nan,nan,nan,nan,nan,124.28387446794659,241.17687839549035,nan,241.42581669101492,nan,nan,nan,nan
1,84,1,1,1.0,1.0,0.2964621069841087,0.0,1,0,4,7,6,2,nan,nan,nan,nan,nan,nan,nan,nan,nan,nan,nan,nan,0.0,nan,nan,nan,nan,nan,nan,nan,nan,nan,nan,nan,nan,nan,nan,nan,nan,nan,nan,124.28387446794659,242.18531700596213,nan,242.48177911294624,nan,nan,nan,nan
1,85,1,1,1.0,1.0,0.30394849088042974,0.0,3,4,7,8,0,5,nan,nan,nan,nan,nan,nan,nan,nan,nan,nan,nan,nan,0.0,nan,nan,nan,nan,nan,nan,nan,nan,nan,nan,nan,nan,nan,nan,nan,nan,nan,nan,124.28387446794659,243.19382974179462,nan,243.49777823267505,nan,nan,nan,nan
1,86,1,1,1.0,1.0,0.2714992268010974,0.0,0,8,5,1,4,7,nan,nan,nan,nan,nan,nan,nan,nan,nan,nan,nan,nan,0.0,nan,nan,nan,nan,nan,nan,nan,nan,nan,nan,nan,nan,nan,nan,nan,nan,nan,nan,124.28387446794659,244.20226179482415,nan,244.47376102162525,nan,nan,nan,nan
1,87,1,1,1.0,1.0,0.2630224130116403,0.0,3,2,1,0,7,5,nan,nan,nan,nan,nan,nan,nan,nan,nan,nan,nan,nan,0.0,nan,nan,nan,nan,nan,nan,nan,nan,nan,nan,nan,nan,nan,nan,nan,nan,nan,nan,124.28387446794659,245.21069983532652,nan,245.47372224833816,nan,nan,nan,nan
1,88,1,1,1.0,1.0,0.3425561529584229,0.0,0,7,5,6,3,2,nan,nan,nan,nan,nan,nan,nan,nan,nan,nan,nan,nan,0.0,nan,nan,nan,nan,nan,nan,nan,nan,nan,nan,nan,nan,nan,nan,nan,nan,nan,nan,124.28387446794659,246.2191775040701,nan,246.56173365702853,nan,nan,nan,nan
1,89,1,1,1.0,1.0,0.2940929443575442,0.0,7,4,6,0,1,8,nan,nan,nan,nan,nan,nan,nan,nan,nan,nan,nan,nan,0.0,nan,nan,nan,nan,nan,nan,nan,nan,nan,nan,nan,nan,nan,nan,nan,nan,nan,nan,124.28387446794659,247.22762324195355,nan,247.5217161863111,nan,nan,nan,nan
1,90,1,1,1.0,1.0,0.43760178005322814,0.0,2,1,5,7,0,4,nan,nan,nan,nan,nan,nan,nan,nan,nan,nan,nan,nan,0.0,nan,nan,nan,nan,nan,nan,nan,nan,nan,nan,nan,nan,nan,nan,nan,nan,nan,nan,124.28387446794659,248.2361054723151,nan,248.67370725236833,nan,nan,nan,nan
1,91,1,1,1.0,1.0,0.30910391453653574,0.0,6,4,0,5,7,3,nan,nan,nan,nan,nan,nan,nan,nan,nan,nan,nan,nan,0.0,nan,nan,nan,nan,nan,nan,nan,nan,nan,nan,nan,nan,nan,nan,nan,nan,nan,nan,124.28387446794659,249.24457088205963,nan,249.55367479659617,nan,nan,nan,nan
1,92,0,0,0.0,1.0,0.3966095596551895,0.0,2,5,6,1,0,8,nan,nan,nan,nan,nan,nan,nan,nan,nan,nan,nan,nan,0.0,nan,nan,nan,nan,nan,nan,nan,nan,nan,nan,nan,nan,nan,nan,nan,nan,nan,nan,124.28387446794659,250.25303515139967,nan,250.64964471105486,nan,nan,nan,nan
1,93,1,1,1.0,1.0,0.3641565893776715,0.0,0,1,5,7,8,6,nan,nan,nan,nan,nan,nan,nan,nan,nan,nan,nan,nan,0.0,nan,nan,nan,nan,nan,nan,nan,nan,nan,nan,nan,nan,nan,nan,nan,nan,nan,nan,124.28387446794659,251.2614857358858,nan,251.62564232526347,nan,nan,nan,nan
1,94,1,1,1.0,1.0,0.25965968426316977,0.0,1,6,3,4,5,7,nan,nan,nan,nan,nan,nan,nan,nan,nan,nan,nan,nan,0.0,nan,nan,nan,nan,nan,nan,nan,nan,nan,nan,nan,nan,nan,nan,nan,nan,nan,nan,124.28387446794659,252.26996454503387,nan,252.52962422929704,nan,nan,nan,nan
1,95,1,1,1.0,1.0,0.27523514861240983,0.0,5,3,0,6,1,2,nan,nan,nan,nan,nan,nan,nan,nan,nan,nan,nan,nan,0.0,nan,nan,nan,nan,nan,nan,nan,nan,nan,nan,nan,nan,nan,nan,nan,nan,nan,nan,124.28387446794659,253.27838747529313,nan,253.55362262390554,nan,nan,nan,nan
1,96,1,1,1.0,1.0,0.21069441875442863,0.0,0,4,7,8,5,6,nan,nan,nan,nan,nan,nan,nan,nan,nan,nan,nan,nan,0.0,nan,nan,nan,nan,nan,nan,nan,nan,nan,nan,nan,nan,nan,nan,nan,nan,nan,nan,124.28387446794659,254.28689964069054,nan,254.49759405944496,nan,nan,nan,nan
1,97,1,1,1.0,1.0,0.018214044626802206,0.0,8,0,2,7,6,4,nan,nan,nan,nan,nan,nan,nan,nan,nan,nan,nan,nan,0.0,nan,nan,nan,nan,nan,nan,nan,nan,nan,nan,nan,nan,nan,nan,nan,nan,nan,nan,124.28387446794659,255.29537588404492,nan,255.31358992867172,nan,nan,nan,nan
1,98,0,0,0.0,1.0,0.38573364820331335,1.0,4,1,6,5,3,0,1.0,1.0,1.0,1.0,1.0,1.0,1.0,1.0,1.0,1.0,0.0,0.0,4.0,4.0,1.0,6.0,5.0,7.0,2.0,4.0,3.0,2.0,1.0,6.0,5.0,4.645671302918345,3.652932459488511,3.069617467466742,1.9413277236744761,5.996894999872893,5.285483845509589,124.28387446794659,256.3038107883185,257.1122173536569,256.6895444365218,264.16311016632244,265.16520734597,258.1290312828496,264.15477846749127
1,99,1,1,1.0,1.0,0.3177415234968066,0.0,7,0,1,2,8,6,nan,nan,nan,nan,nan,nan,nan,nan,nan,nan,nan,nan,0.0,nan,nan,nan,nan,nan,nan,nan,nan,nan,nan,nan,nan,nan,nan,nan,nan,nan,nan,124.28387446794659,265.37163926661015,nan,265.68938079010695,nan,nan,nan,nan
1,100,1,1,1.0,1.0,0.22926683072000742,0.0,6,5,3,8,0,2,nan,nan,nan,nan,nan,nan,nan,nan,nan,nan,nan,nan,0.0,nan,nan,nan,nan,nan,nan,nan,nan,nan,nan,nan,nan,nan,nan,nan,nan,nan,nan,124.28387446794659,266.3801018255763,nan,266.6093686562963,nan,nan,nan,nan
1,101,1,1,1.0,1.0,0.24479040736332536,0.0,8,1,4,2,5,3,nan,nan,nan,nan,nan,nan,nan,nan,nan,nan,nan,nan,0.0,nan,nan,nan,nan,nan,nan,nan,nan,nan,nan,nan,nan,nan,nan,nan,nan,nan,nan,124.28387446794659,267.3885598224588,nan,267.6333502298221,nan,nan,nan,nan
1,102,1,1,1.0,1.0,0.3082985132932663,0.0,4,7,1,3,0,8,nan,nan,nan,nan,nan,nan,nan,nan,nan,nan,nan,nan,0.0,nan,nan,nan,nan,nan,nan,nan,nan,nan,nan,nan,nan,nan,nan,nan,nan,nan,nan,124.28387446794659,268.39703435543925,nan,268.7053328687325,nan,nan,nan,nan
1,103,1,1,1.0,1.0,0.27582672657445073,0.0,0,8,2,7,1,4,nan,nan,nan,nan,nan,nan,nan,nan,nan,nan,nan,nan,0.0,nan,nan,nan,nan,nan,nan,nan,nan,nan,nan,nan,nan,nan,nan,nan,nan,nan,nan,124.28387446794659,269.40548693574965,nan,269.6813136623241,nan,nan,nan,nan
1,104,1,1,1.0,1.0,0.24333412759006023,0.0,5,2,4,0,3,6,nan,nan,nan,nan,nan,nan,nan,nan,nan,nan,nan,nan,0.0,nan,nan,nan,nan,nan,nan,nan,nan,nan,nan,nan,nan,nan,nan,nan,nan,nan,nan,124.28387446794659,270.4139543408528,nan,270.65728846844286,nan,nan,nan,nan
1,105,1,1,1.0,1.0,0.29887488996610045,0.0,0,6,8,4,5,2,nan,nan,nan,nan,nan,nan,nan,nan,nan,nan,nan,nan,0.0,nan,nan,nan,nan,nan,nan,nan,nan,nan,nan,nan,nan,nan,nan,nan,nan,nan,nan,124.28387446794659,271.42241547396407,nan,271.72129036393017,nan,nan,nan,nan
1,106,1,1,1.0,1.0,0.21845364104956388,0.0,4,1,6,0,3,8,nan,nan,nan,nan,nan,nan,nan,nan,nan,nan,nan,nan,0.0,nan,nan,nan,nan,nan,nan,nan,nan,nan,nan,nan,nan,nan,nan,nan,nan,nan,nan,124.28387446794659,272.43087404128164,nan,272.6493276823312,nan,nan,nan,nan
1,107,1,1,1.0,1.0,0.1699097496457398,0.0,6,3,2,1,7,5,nan,nan,nan,nan,nan,nan,nan,nan,nan,nan,nan,nan,0.0,nan,nan,nan,nan,nan,nan,nan,nan,nan,nan,nan,nan,nan,nan,nan,nan,nan,nan,124.28387446794659,273.4393400209956,nan,273.6092497706413,nan,nan,nan,nan
1,108,1,1,1.0,1.0,0.257433925755322,0.0,2,8,4,6,5,3,nan,nan,nan,nan,nan,nan,nan,nan,nan,nan,nan,nan,0.0,nan,nan,nan,nan,nan,nan,nan,nan,nan,nan,nan,nan,nan,nan,nan,nan,nan,nan,124.28387446794659,274.447794882115,nan,274.7052288078703,nan,nan,nan,nan
1,109,0,0,1.0,0.0,0.12894347310066223,0.0,5,6,2,4,0,8,nan,nan,nan,nan,nan,nan,nan,nan,nan,nan,nan,nan,0.0,nan,nan,nan,nan,nan,nan,nan,nan,nan,nan,nan,nan,nan,nan,nan,nan,nan,nan,124.28387446794659,275.45626456849277,nan,275.58520804159343,nan,nan,nan,nan
1,110,1,1,1.0,1.0,0.2644630125723779,0.0,0,5,3,2,6,4,nan,nan,nan,nan,nan,nan,nan,nan,nan,nan,nan,nan,0.0,nan,nan,nan,nan,nan,nan,nan,nan,nan,nan,nan,nan,nan,nan,nan,nan,nan,nan,124.28387446794659,276.46472313581035,nan,276.7291861483827,nan,nan,nan,nan
1,111,1,1,1.0,1.0,0.20002605812624097,0.0,3,2,6,4,7,5,nan,nan,nan,nan,nan,nan,nan,nan,nan,nan,nan,nan,0.0,nan,nan,nan,nan,nan,nan,nan,nan,nan,nan,nan,nan,nan,nan,nan,nan,nan,nan,124.28387446794659,277.47315861005336,nan,277.6731846681796,nan,nan,nan,nan
1,112,1,1,1.0,1.0,0.1835109111852944,0.0,1,0,2,7,4,3,nan,nan,nan,nan,nan,nan,nan,nan,nan,nan,nan,nan,0.0,nan,nan,nan,nan,nan,nan,nan,nan,nan,nan,nan,nan,nan,nan,nan,nan,nan,nan,124.28387446794659,278.4816434062086,nan,278.6651543173939,nan,nan,nan,nan
1,113,1,1,1.0,1.0,0.22300864849239588,0.0,4,7,3,1,2,5,nan,nan,nan,nan,nan,nan,nan,nan,nan,nan,nan,nan,0.0,nan,nan,nan,nan,nan,nan,nan,nan,nan,nan,nan,nan,nan,nan,nan,nan,nan,nan,124.28387446794659,279.49013761105016,nan,279.71314625954255,nan,nan,nan,nan
1,114,1,1,1.0,1.0,0.1345490664243698,0.0,3,6,8,0,7,4,nan,nan,nan,nan,nan,nan,nan,nan,nan,nan,nan,nan,0.0,nan,nan,nan,nan,nan,nan,nan,nan,nan,nan,nan,nan,nan,nan,nan,nan,nan,nan,124.28387446794659,280.49857565108687,nan,280.63312471751124,nan,nan,nan,nan
1,115,1,1,nan,nan,nan,0.0,6,0,1,4,2,5,nan,nan,nan,nan,nan,nan,nan,nan,nan,nan,nan,nan,0.0,nan,nan,nan,nan,nan,nan,nan,nan,nan,nan,nan,nan,nan,nan,nan,nan,nan,nan,124.28387446794659,281.50703706918284,nan,nan,nan,nan,nan,nan
1,116,1,1,1.0,1.0,0.11762024322524667,0.0,4,2,5,0,6,3,nan,nan,nan,nan,nan,nan,nan,nan,nan,nan,nan,nan,0.0,nan,nan,nan,nan,nan,nan,nan,nan,nan,nan,nan,nan,nan,nan,nan,nan,nan,nan,124.28387446794659,282.51548850908875,nan,282.633108752314,nan,nan,nan,nan
1,117,0,0,1.0,0.0,0.013143294490873814,1.0,5,0,6,4,3,2,1.0,1.0,1.0,1.0,1.0,1.0,0.0,0.0,0.0,1.0,0.0,0.0,1.0,2.0,5.0,0.0,4.0,6.0,7.0,4.0,3.0,2.0,1.0,6.0,5.0,3.776149742305279,3.1127673075534403,2.425886255223304,1.8830297803506255,5.808089251630008,4.776223867665976,124.28387446794659,283.5239348174073,284.3323716032319,283.53707811189815,291.1998581350781,292.19955878239125,285.3491655755788,291.191550669726
1,118,1,1,1.0,1.0,0.27246371284127235,0.0,4,5,0,1,8,7,nan,nan,nan,nan,nan,nan,nan,nan,nan,nan,nan,nan,0.0,nan,nan,nan,nan,nan,nan,nan,nan,nan,nan,nan,nan,nan,nan,nan,nan,nan,nan,124.28387446794659,292.4084371277131,nan,292.6809008405544,nan,nan,nan,nan
1,119,1,1,1.0,1.0,0.3039849833585322,0.0,5,8,1,3,6,4,nan,nan,nan,nan,nan,nan,nan,nan,nan,nan,nan,nan,0.0,nan,nan,nan,nan,nan,nan,nan,nan,nan,nan,nan,nan,nan,nan,nan,nan,nan,nan,124.28387446794659,293.4168942696415,nan,293.720879253,nan,nan,nan,nan
1,120,1,1,1.0,1.0,0.27950676903128624,0.0,7,6,3,4,2,8,nan,nan,nan,nan,nan,nan,nan,nan,nan,nan,nan,nan,0.0,nan,nan,nan,nan,nan,nan,nan,nan,nan,nan,nan,nan,nan,nan,nan,nan,nan,nan,124.28387446794659,294.425359679386,nan,294.7048664484173,nan,nan,nan,nan
1,121,1,1,1.0,1.0,0.14306037686765194,0.0,0,5,6,8,7,2,nan,nan,nan,nan,nan,nan,nan,nan,nan,nan,nan,nan,0.0,nan,nan,nan,nan,nan,nan,nan,nan,nan,nan,nan,nan,nan,nan,nan,nan,nan,nan,124.28387446794659,295.43380513228476,nan,295.5768655091524,nan,nan,nan,nan
1,122,1,1,1.0,1.0,0.2785454196855426,0.0,8,7,1,2,5,3,nan,nan,nan,nan,nan,nan,nan,nan,nan,nan,nan,nan,0.0,nan,nan,nan,nan,nan,nan,nan,nan,nan,nan,nan,nan,nan,nan,nan,nan,nan,nan,124.28387446794659,296.4422799497843,nan,296.7208253694698,nan,nan,nan,nan
1,123,1,1,1.0,1.0,0.2621220741420984,0.0,6,5,3,1,0,2,nan,nan,nan,nan,nan,nan,nan,nan,nan,nan,nan,nan,0.0,nan,nan,nan,nan,nan,nan,nan,nan,nan,nan,nan,nan,nan,nan,nan,nan,nan,nan,124.28387446794659,297.4507060162723,nan,297.7128280904144,nan,nan,nan,nan
1,124,0,0,1.0,0.0,0.14959054253995419,1.0,2,6,4,7,1,8,1.0,1.0,1.0,1.0,1.0,1.0,1.0,1.0,1.0,1.0,0.0,1.0,5.0,2.0,6.0,4.0,7.0,5.0,8.0,4.0,3.0,2.0,1.0,6.0,5.0,4.289376285858452,3.376651286613196,2.657831580378115,1.6917639230377972,5.408950018696487,4.913637027144432,124.28387446794659,298.4592064926401,299.2676176195964,298.60879703518003,305.726767948363,306.72290401766077,300.2760932929814,305.7184342541732
1,125,1,1,1.0,1.0,0.27368564205244184,0.0,7,3,6,1,8,5,nan,nan,nan,nan,nan,nan,nan,nan,nan,nan,nan,nan,0.0,nan,nan,nan,nan,nan,nan,nan,nan,nan,nan,nan,nan,nan,nan,nan,nan,nan,nan,124.28387446794659,306.9269422572106,nan,307.20062789926305,nan,nan,nan,nan
1,126,0,0,1.0,0.0,0.24124093959107995,0.0,3,8,5,0,7,6,nan,nan,nan,nan,nan,nan,nan,nan,nan,nan,nan,nan,0.0,nan,nan,nan,nan,nan,nan,nan,nan,nan,nan,nan,nan,nan,nan,nan,nan,nan,nan,124.28387446794659,307.93540510116145,nan,308.17664604075253,nan,nan,nan,nan
1,127,1,1,1.0,1.0,0.592741466127336,0.0,6,1,7,8,0,2,nan,nan,nan,nan,nan,nan,nan,nan,nan,nan,nan,nan,0.0,nan,nan,nan,nan,nan,nan,nan,nan,nan,nan,nan,nan,nan,nan,nan,nan,nan,nan,124.28387446794659,308.9438810595311,nan,309.53662252565846,nan,nan,nan,nan
1,128,1,1,1.0,1.0,0.2802528701722622,0.0,2,3,6,1,8,7,nan,nan,nan,nan,nan,nan,nan,nan,nan,nan,nan,nan,0.0,nan,nan,nan,nan,nan,nan,nan,nan,nan,nan,nan,nan,nan,nan,nan,nan,nan,nan,124.28387446794659,309.9523433330469,nan,310.23259620321915,nan,nan,nan,nan
1,129,1,1,1.0,1.0,0.2957559200003743,0.0,8,6,2,3,0,4,nan,nan,nan,nan,nan,nan,nan,nan,nan,nan,nan,nan,0.0,nan,nan,nan,nan,nan,nan,nan,nan,nan,nan,nan,nan,nan,nan,nan,nan,nan,nan,124.28387446794659,310.960834401194,nan,311.2565903211944,nan,nan,nan,nan
1,130,1,1,1.0,1.0,0.3193152635358274,0.0,5,3,0,2,6,8,nan,nan,nan,nan,nan,nan,nan,nan,nan,nan,nan,nan,0.0,nan,nan,nan,nan,nan,nan,nan,nan,nan,nan,nan,nan,nan,nan,nan,nan,nan,nan,124.28387446794659,311.969233953394,nan,312.2885492169298,nan,nan,nan,nan
1,131,1,1,1.0,1.0,0.31080281268805265,0.0,2,7,6,3,4,0,nan,nan,nan,nan,nan,nan,nan,nan,nan,nan,nan,nan,0.0,nan,nan,nan,nan,nan,nan,nan,nan,nan,nan,nan,nan,nan,nan,nan,nan,nan,nan,124.28387446794659,312.97773300437257,nan,313.2885358170606,nan,nan,nan,nan
1,132,1,1,1.0,1.0,0.49434879096224904,0.0,8,6,2,4,1,7,nan,nan,nan,nan,nan,nan,nan,nan,nan,nan,nan,nan,0.0,nan,nan,nan,nan,nan,nan,nan,nan,nan,nan,nan,nan,nan,nan,nan,nan,nan,nan,124.28387446794659,313.9861921421252,nan,314.48054093308747,nan,nan,nan,nan
1,133,1,1,1.0,1.0,0.27785690827295184,0.0,4,2,3,5,0,6,nan,nan,nan,nan,nan,nan,nan,nan,nan,nan,nan,nan,0.0,nan,nan,nan,nan,nan,nan,nan,nan,nan,nan,nan,nan,nan,nan,nan,nan,nan,nan,124.28387446794659,314.9946547006257,nan,315.27251160889864,nan,nan,nan,nan
1,134,1,1,1.0,1.0,0.3093756129965186,0.0,5,7,4,0,6,3,nan,nan,nan,nan,nan,nan,nan,nan,nan,nan,nan,nan,0.0,nan,nan,nan,nan,nan,nan,nan,nan,nan,nan,nan,nan,nan,nan,nan,nan,nan,nan,124.28387446794659,316.00311697414145,nan,316.31249258713797,nan,nan,nan,nan
1,135,0,0,0.0,1.0,0.3728831484913826,0.0,6,0,8,1,3,7,nan,nan,nan,nan,nan,nan,nan,nan,nan,nan,nan,nan,0.0,nan,nan,nan,nan,nan,nan,nan,nan,nan,nan,nan,nan,nan,nan,nan,nan,nan,nan,124.28387446794659,317.01158295432106,nan,317.38446610281244,nan,nan,nan,nan
1,136,1,1,1.0,1.0,0.2844172944314778,0.0,4,7,1,3,8,6,nan,nan,nan,nan,nan,nan,nan,nan,nan,nan,nan,nan,0.0,nan,nan,nan,nan,nan,nan,nan,nan,nan,nan,nan,nan,nan,nan,nan,nan,nan,nan,124.28387446794659,318.02004066621885,nan,318.3044579606503,nan,nan,nan,nan
1,137,1,1,1.0,1.0,0.27592850662767887,0.0,6,0,3,2,5,8,nan,nan,nan,nan,nan,nan,nan,nan,nan,nan,nan,nan,0.0,nan,nan,nan,nan,nan,nan,nan,nan,nan,nan,nan,nan,nan,nan,nan,nan,nan,nan,124.28387446794659,319.0285006589256,nan,319.3044291655533,nan,nan,nan,nan
1,138,1,1,1.0,1.0,0.29145122738555074,0.0,3,5,2,6,4,0,nan,nan,nan,nan,nan,nan,nan,nan,nan,nan,nan,nan,0.0,nan,nan,nan,nan,nan,nan,nan,nan,nan,nan,nan,nan,nan,nan,nan,nan,nan,nan,124.28387446794659,320.03696464328095,nan,320.3284158706665,nan,nan,nan,nan
1,139,1,1,1.0,1.0,0.32299673184752464,0.0,1,7,5,0,8,6,nan,nan,nan,nan,nan,nan,nan,nan,nan,nan,nan,nan,0.0,nan,nan,nan,nan,nan,nan,nan,nan,nan,nan,nan,nan,nan,nan,nan,nan,nan,nan,124.28387446794659,321.0453944155015,nan,321.36839114734903,nan,nan,nan,nan
1,140,1,1,1.0,1.0,0.3305073487572372,0.0,2,0,4,3,5,1,nan,nan,nan,nan,nan,nan,nan,nan,nan,nan,nan,nan,0.0,nan,nan,nan,nan,nan,nan,nan,nan,nan,nan,nan,nan,nan,nan,nan,nan,nan,nan,124.28387446794659,322.05387664586306,nan,322.3843839946203,nan,nan,nan,nan
1,141,1,1,1.0,1.0,0.3140406687743962,0.0,4,3,5,7,8,6,nan,nan,nan,nan,nan,nan,nan,nan,nan,nan,nan,nan,0.0,nan,nan,nan,nan,nan,nan,nan,nan,nan,nan,nan,nan,nan,nan,nan,nan,nan,nan,124.28387446794659,323.0623232391663,nan,323.3763639079407,nan,nan,nan,nan
1,142,1,1,1.0,1.0,0.2575687770731747,0.0,7,8,0,5,3,2,nan,nan,nan,nan,nan,nan,nan,nan,nan,nan,nan,nan,0.0,nan,nan,nan,nan,nan,nan,nan,nan,nan,nan,nan,nan,nan,nan,nan,nan,nan,nan,124.28387446794659,324.0707761044614,nan,324.3283448815346,nan,nan,nan,nan
1,143,0,0,0.0,1.0,0.3770738015882671,1.0,8,1,6,7,2,3,1.0,1.0,1.0,1.0,1.0,1.0,1.0,1.0,1.0,1.0,0.0,0.0,4.0,8.0,1.0,6.0,7.0,4.0,2.0,4.0,3.0,2.0,1.0,6.0,5.0,3.788649001158774,2.893957009539008,2.093537174165249,1.197589611634612,5.420251581352204,4.508026358671486,124.28387446794659,325.07926802849397,325.88768599787727,325.45634183008224,332.36350913206115,333.36728468257934,326.90445545176044,332.35516374884173
1,144,1,1,1.0,1.0,0.34816716285422444,0.0,1,4,5,0,8,2,nan,nan,nan,nan,nan,nan,nan,nan,nan,nan,nan,nan,0.0,nan,nan,nan,nan,nan,nan,nan,nan,nan,nan,nan,nan,nan,nan,nan,nan,nan,nan,124.28387446794659,333.5720054465346,nan,333.9201726093888,nan,nan,nan,nan
1,145,1,1,1.0,1.0,0.43567394837737083,0.0,8,5,7,3,4,1,nan,nan,nan,nan,nan,nan,nan,nan,nan,nan,nan,nan,0.0,nan,nan,nan,nan,nan,nan,nan,nan,nan,nan,nan,nan,nan,nan,nan,nan,nan,nan,124.28387446794659,334.5804836852476,nan,335.01615763362497,nan,nan,nan,nan
1,146,1,1,1.0,1.0,0.2831856715492904,0.0,2,1,3,0,7,8,nan,nan,nan,nan,nan,nan,nan,nan,nan,nan,nan,nan,0.0,nan,nan,nan,nan,nan,nan,nan,nan,nan,nan,nan,nan,nan,nan,nan,nan,nan,nan,124.28387446794659,335.58895793324336,nan,335.87214360479265,nan,nan,nan,nan
1,147,1,1,1.0,1.0,0.3146918318234384,0.0,5,2,0,4,1,7,nan,nan,nan,nan,nan,nan,nan,nan,nan,nan,nan,nan,0.0,nan,nan,nan,nan,nan,nan,nan,nan,nan,nan,nan,nan,nan,nan,nan,nan,nan,nan,124.28387446794659,336.5974210621789,nan,336.91211289400235,nan,nan,nan,nan
1,148,1,1,1.0,1.0,0.3382135429419577,0.0,4,7,1,0,8,3,nan,nan,nan,nan,nan,nan,nan,nan,nan,nan,nan,nan,0.0,nan,nan,nan,nan,nan,nan,nan,nan,nan,nan,nan,nan,nan,nan,nan,nan,nan,nan,124.28387446794659,337.6058827652596,nan,337.94409630820155,nan,nan,nan,nan
1,149,1,1,1.0,1.0,0.3614102420397103,0.0,8,4,3,2,7,5,nan,nan,nan,nan,nan,nan,nan,nan,nan,nan,nan,nan,0.0,nan,nan,nan,nan,nan,nan,nan,nan,nan,nan,nan,nan,nan,nan,nan,nan,nan,nan,124.28387446794659,338.6226644786075,nan,338.9840747206472,nan,nan,nan,nan
1,150,1,1,1.0,1.0,0.4809300918132067,0.0,2,0,8,1,6,3,nan,nan,nan,nan,nan,nan,nan,nan,nan,nan,nan,nan,0.0,nan,nan,nan,nan,nan,nan,nan,nan,nan,nan,nan,nan,nan,nan,nan,nan,nan,nan,124.28387446794659,339.6311290329322,nan,340.11205912474543,nan,nan,nan,nan
1,151,0,0,1.0,0.0,0.2964290357194841,0.0,1,3,2,7,4,8,nan,nan,nan,nan,nan,nan,nan,nan,nan,nan,nan,nan,0.0,nan,nan,nan,nan,nan,nan,nan,nan,nan,nan,nan,nan,nan,nan,nan,nan,nan,nan,124.28387446794659,340.63961439952254,nan,340.936043435242,nan,nan,nan,nan
1,152,1,1,1.0,1.0,0.3279440337792039,0.0,7,5,8,2,0,3,nan,nan,nan,nan,nan,nan,nan,nan,nan,nan,nan,nan,0.0,nan,nan,nan,nan,nan,nan,nan,nan,nan,nan,nan,nan,nan,nan,nan,nan,nan,nan,124.28387446794659,341.64806355861947,nan,341.9760075923987,nan,nan,nan,nan
1,153,1,1,1.0,1.0,0.2874678405933082,0.0,0,1,5,6,3,4,nan,nan,nan,nan,nan,nan,nan,nan,nan,nan,nan,nan,0.0,nan,nan,nan,nan,nan,nan,nan,nan,nan,nan,nan,nan,nan,nan,nan,nan,nan,nan,124.28387446794659,342.6565363807604,nan,342.9440042213537,nan,nan,nan,nan
1,154,0,0,0.0,1.0,0.3990040961652994,1.0,1,0,4,7,5,2,1.0,1.0,1.0,1.0,1.0,1.0,1.0,1.0,1.0,1.0,0.0,0.0,4.0,1.0,0.0,4.0,7.0,2.0,5.0,4.0,3.0,2.0,1.0,6.0,5.0,4.058184759225696,3.284140464384109,2.612029474694282,1.5067864684388041,6.4585154158994555,4.890604829415679,124.28387446794659,343.66498154820874,344.47339695179835,344.06398564437404,351.98268486885354,352.9917276012711,345.4818438300863,351.974355165381
1,155,1,1,1.0,1.0,0.43228442035615444,0.0,2,3,6,8,4,0,nan,nan,nan,nan,nan,nan,nan,nan,nan,nan,nan,nan,0.0,nan,nan,nan,nan,nan,nan,nan,nan,nan,nan,nan,nan,nan,nan,nan,nan,nan,nan,124.28387446794659,353.1995539357886,nan,353.6318383561447,nan,nan,nan,nan
1,156,1,1,1.0,1.0,0.3357805176638067,0.0,7,5,8,6,2,1,nan,nan,nan,nan,nan,nan,nan,nan,nan,nan,nan,nan,0.0,nan,nan,nan,nan,nan,nan,nan,nan,nan,nan,nan,nan,nan,nan,nan,nan,nan,nan,124.28387446794659,354.20801079273224,nan,354.54379131039605,nan,nan,nan,nan
1,157,1,1,1.0,1.0,0.27932174084708095,0.0,4,2,3,0,5,8,nan,nan,nan,nan,nan,nan,nan,nan,nan,nan,nan,nan,0.0,nan,nan,nan,nan,nan,nan,nan,nan,nan,nan,nan,nan,nan,nan,nan,nan,nan,nan,124.28387446794659,355.21646479843184,nan,355.4957865392789,nan,nan,nan,nan
1,158,1,1,1.0,1.0,0.2868403405882418,0.0,1,8,5,7,3,6,nan,nan,nan,nan,nan,nan,nan,nan,nan,nan,nan,nan,0.0,nan,nan,nan,nan,nan,nan,nan,nan,nan,nan,nan,nan,nan,nan,nan,nan,nan,nan,124.28387446794659,356.22493419935927,nan,356.5117745399475,nan,nan,nan,nan
1,159,1,1,1.0,1.0,0.30239100148901343,0.0,6,2,4,8,7,3,nan,nan,nan,nan,nan,nan,nan,nan,nan,nan,nan,nan,0.0,nan,nan,nan,nan,nan,nan,nan,nan,nan,nan,nan,nan,nan,nan,nan,nan,nan,nan,124.28387446794659,357.23335313796997,nan,357.535744139459,nan,nan,nan,nan
1,160,1,1,1.0,1.0,0.28590921126306057,0.0,1,4,2,7,0,5,nan,nan,nan,nan,nan,nan,nan,nan,nan,nan,nan,nan,0.0,nan,nan,nan,nan,nan,nan,nan,nan,nan,nan,nan,nan,nan,nan,nan,nan,nan,nan,124.28387446794659,358.2418313771486,nan,358.5277405884117,nan,nan,nan,nan
1,161,1,1,1.0,1.0,0.6214026352390647,0.0,3,6,0,2,8,4,nan,nan,nan,nan,nan,nan,nan,nan,nan,nan,nan,nan,0.0,nan,nan,nan,nan,nan,nan,nan,nan,nan,nan,nan,nan,nan,nan,nan,nan,nan,nan,124.28387446794659,359.25031788414344,nan,359.8717205193825,nan,nan,nan,nan
1,162,1,1,1.0,1.0,0.3330005290918052,0.0,2,0,3,5,6,8,nan,nan,nan,nan,nan,nan,nan,nan,nan,nan,nan,nan,0.0,nan,nan,nan,nan,nan,nan,nan,nan,nan,nan,nan,nan,nan,nan,nan,nan,nan,nan,124.28387446794659,360.2587795872241,nan,360.59178011631593,nan,nan,nan,nan
1,163,1,1,1.0,1.0,0.34045241586863995,0.0,0,7,1,8,2,3,nan,nan,nan,nan,nan,nan,nan,nan,nan,nan,nan,nan,0.0,nan,nan,nan,nan,nan,nan,nan,nan,nan,nan,nan,nan,nan,nan,nan,nan,nan,nan,124.28387446794659,361.26724471198395,nan,361.6076971278526,nan,nan,nan,nan
1,164,1,1,1.0,1.0,0.3240116802044213,0.0,3,4,5,1,7,8,nan,nan,nan,nan,nan,nan,nan,nan,nan,nan,nan,nan,0.0,nan,nan,nan,nan,nan,nan,nan,nan,nan,nan,nan,nan,nan,nan,nan,nan,nan,nan,124.28387446794659,362.275671062991,nan,362.59968274319544,nan,nan,nan,nan
1,165,1,1,1.0,1.0,0.47551893489435315,0.0,2,6,4,0,1,5,nan,nan,nan,nan,nan,nan,nan,nan,nan,nan,nan,nan,0.0,nan,nan,nan,nan,nan,nan,nan,nan,nan,nan,nan,nan,nan,nan,nan,nan,nan,nan,124.28387446794659,363.2841304857284,nan,363.75964942062274,nan,nan,nan,nan
1,166,1,1,1.0,1.0,0.3149957465939224,0.0,1,0,6,8,7,4,nan,nan,nan,nan,nan,nan,nan,nan,nan,nan,nan,nan,0.0,nan,nan,nan,nan,nan,nan,nan,nan,nan,nan,nan,nan,nan,nan,nan,nan,nan,nan,124.28387446794659,364.29262839630246,nan,364.6076241428964,nan,nan,nan,nan
1,167,1,1,1.0,1.0,0.3305521090514958,0.0,0,1,8,7,4,3,nan,nan,nan,nan,nan,nan,nan,nan,nan,nan,nan,nan,0.0,nan,nan,nan,nan,nan,nan,nan,nan,nan,nan,nan,nan,nan,nan,nan,nan,nan,nan,124.28387446794659,365.30106643680483,nan,365.6316185458563,nan,nan,nan,nan
1,168,1,1,1.0,1.0,0.2420386434532702,0.0,2,8,4,1,3,5,nan,nan,nan,nan,nan,nan,nan,nan,nan,nan,nan,nan,0.0,nan,nan,nan,nan,nan,nan,nan,nan,nan,nan,nan,nan,nan,nan,nan,nan,nan,nan,124.28387446794659,366.30953669315204,nan,366.5515753366053,nan,nan,nan,nan
1,169,1,1,1.0,1.0,0.35355665208771825,0.0,5,3,1,4,0,6,nan,nan,nan,nan,nan,nan,nan,nan,nan,nan,nan,nan,0.0,nan,nan,nan,nan,nan,nan,nan,nan,nan,nan,nan,nan,nan,nan,nan,nan,nan,nan,124.28387446794659,367.31802320014685,nan,367.6715798522346,nan,nan,nan,nan
1,170,1,1,1.0,1.0,0.28906552912667394,0.0,2,8,4,3,5,7,nan,nan,nan,nan,nan,nan,nan,nan,nan,nan,nan,nan,0.0,nan,nan,nan,nan,nan,nan,nan,nan,nan,nan,nan,nan,nan,nan,nan,nan,nan,nan,124.28387446794659,368.3264886094257,nan,368.6155541385524,nan,nan,nan,nan
1,171,0,0,0.0,1.0,0.31262116646394134,0.0,6,0,2,1,3,8,nan,nan,nan,nan,nan,nan,nan,nan,nan,nan,nan,nan,0.0,nan,nan,nan,nan,nan,nan,nan,nan,nan,nan,nan,nan,nan,nan,nan,nan,nan,nan,124.28387446794659,369.3349463217892,nan,369.6475674882531,nan,nan,nan,nan
1,172,1,1,1.0,1.0,0.47211771830916405,0.0,5,6,8,0,1,4,nan,nan,nan,nan,nan,nan,nan,nan,nan,nan,nan,nan,0.0,nan,nan,nan,nan,nan,nan,nan,nan,nan,nan,nan,nan,nan,nan,nan,nan,nan,nan,124.28387446794659,370.3434008974582,nan,370.81551861576736,nan,nan,nan,nan
1,173,1,1,1.0,1.0,0.24764680257067084,0.0,8,1,7,3,0,6,nan,nan,nan,nan,nan,nan,nan,nan,nan,nan,nan,nan,0.0,nan,nan,nan,nan,nan,nan,nan,nan,nan,nan,nan,nan,nan,nan,nan,nan,nan,nan,124.28387446794659,371.3518671626225,nan,371.5995139651932,nan,nan,nan,nan
1,174,1,1,1.0,1.0,0.27916294150054455,0.0,7,5,8,0,2,4,nan,nan,nan,nan,nan,nan,nan,nan,nan,nan,nan,nan,0.0,nan,nan,nan,nan,nan,nan,nan,nan,nan,nan,nan,nan,nan,nan,nan,nan,nan,nan,124.28387446794659,372.36033285735175,nan,372.6394957988523,nan,nan,nan,nan
1,175,1,1,1.0,1.0,0.24667319329455495,0.0,5,3,0,6,8,1,nan,nan,nan,nan,nan,nan,nan,nan,nan,nan,nan,nan,0.0,nan,nan,nan,nan,nan,nan,nan,nan,nan,nan,nan,nan,nan,nan,nan,nan,nan,nan,124.28387446794659,373.36880197329447,nan,373.615475166589,nan,nan,nan,nan
1,176,1,1,1.0,1.0,0.19821084011346102,0.0,3,5,2,8,7,0,nan,nan,nan,nan,nan,nan,nan,nan,nan,nan,nan,nan,0.0,nan,nan,nan,nan,nan,nan,nan,nan,nan,nan,nan,nan,nan,nan,nan,nan,nan,nan,124.28387446794659,374.37721948651597,nan,374.57543032662943,nan,nan,nan,nan
1,177,1,1,1.0,1.0,0.4057113076560199,0.0,5,3,0,4,8,1,nan,nan,nan,nan,nan,nan,nan,nan,nan,nan,nan,nan,0.0,nan,nan,nan,nan,nan,nan,nan,nan,nan,nan,nan,nan,nan,nan,nan,nan,nan,nan,124.28387446794659,375.3857273757458,nan,375.7914386834018,nan,nan,nan,nan
1,178,1,1,1.0,1.0,0.21325573744252324,0.0,1,2,8,0,7,4,nan,nan,nan,nan,nan,nan,nan,nan,nan,nan,nan,nan,0.0,nan,nan,nan,nan,nan,nan,nan,nan,nan,nan,nan,nan,nan,nan,nan,nan,nan,nan,124.28387446794659,376.39416769659147,nan,376.607423434034,nan,nan,nan,nan
1,179,1,1,1.0,1.0,0.06075263535603881,0.0,0,1,3,7,4,6,nan,nan,nan,nan,nan,nan,nan,nan,nan,nan,nan,nan,0.0,nan,nan,nan,nan,nan,nan,nan,nan,nan,nan,nan,nan,nan,nan,nan,nan,nan,nan,124.28387446794659,377.402649926953,nan,377.46340256230906,nan,nan,nan,nan
1,180,1,1,1.0,1.0,0.6442709024995565,0.0,4,2,6,5,3,8,nan,nan,nan,nan,nan,nan,nan,nan,nan,nan,nan,nan,0.0,nan,nan,nan,nan,nan,nan,nan,nan,nan,nan,nan,nan,nan,nan,nan,nan,nan,nan,124.28387446794659,378.4111036476679,nan,379.05537455016747,nan,nan,nan,nan
1,181,1,1,1.0,1.0,0.4198056887835264,0.0,3,6,0,7,4,1,nan,nan,nan,nan,nan,nan,nan,nan,nan,nan,nan,nan,0.0,nan,nan,nan,nan,nan,nan,nan,nan,nan,nan,nan,nan,nan,nan,nan,nan,nan,nan,124.28387446794659,379.41956563619897,nan,379.8393713249825,nan,nan,nan,nan
1,182,1,1,1.0,1.0,0.2273244597017765,0.0,1,7,2,0,5,6,nan,nan,nan,nan,nan,nan,nan,nan,nan,nan,nan,nan,0.0,nan,nan,nan,nan,nan,nan,nan,nan,nan,nan,nan,nan,nan,nan,nan,nan,nan,nan,124.28387446794659,380.4280324713327,nan,380.6553569310345,nan,nan,nan,nan
1,183,1,1,1.0,1.0,0.034833821933716536,0.0,8,0,6,3,1,7,nan,nan,nan,nan,nan,nan,nan,nan,nan,nan,nan,nan,0.0,nan,nan,nan,nan,nan,nan,nan,nan,nan,nan,nan,nan,nan,nan,nan,nan,nan,nan,124.28387446794659,381.43649417487904,nan,381.47132799681276,nan,nan,nan,nan
1,184,1,1,1.0,1.0,0.6823343127034605,0.0,0,6,7,4,2,5,nan,nan,nan,nan,nan,nan,nan,nan,nan,nan,nan,nan,0.0,nan,nan,nan,nan,nan,nan,nan,nan,nan,nan,nan,nan,nan,nan,nan,nan,nan,nan,124.28387446794659,382.44495331216604,nan,383.1272876248695,nan,nan,nan,nan
1,185,1,1,1.0,1.0,0.32986872969195247,0.0,6,2,8,1,0,4,nan,nan,nan,nan,nan,nan,nan,nan,nan,nan,nan,nan,0.0,nan,nan,nan,nan,nan,nan,nan,nan,nan,nan,nan,nan,nan,nan,nan,nan,nan,nan,124.28387446794659,383.45341872191057,nan,383.7832874516025,nan,nan,nan,nan
1,186,1,1,1.0,1.0,0.20940064452588558,0.0,4,5,2,6,3,7,nan,nan,nan,nan,nan,nan,nan,nan,nan,nan,nan,nan,0.0,nan,nan,nan,nan,nan,nan,nan,nan,nan,nan,nan,nan,nan,nan,nan,nan,nan,nan,124.28387446794659,384.46187614882365,nan,384.67127679334953,nan,nan,nan,nan
1,187,0,0,1.0,0.0,0.09692442137748003,0.0,8,2,4,1,5,3,nan,nan,nan,nan,nan,nan,nan,nan,nan,nan,nan,nan,0.0,nan,nan,nan,nan,nan,nan,nan,nan,nan,nan,nan,nan,nan,nan,nan,nan,nan,nan,124.28387446794659,385.47033215034753,nan,385.567256571725,nan,nan,nan,nan
1,188,1,1,1.0,1.0,0.44844804145395756,0.0,7,6,0,3,2,5,nan,nan,nan,nan,nan,nan,nan,nan,nan,nan,nan,nan,0.0,nan,nan,nan,nan,nan,nan,nan,nan,nan,nan,nan,nan,nan,nan,nan,nan,nan,nan,124.28387446794659,386.47878359025344,nan,386.9272316317074,nan,nan,nan,nan
1,189,1,1,1.0,1.0,0.32791837537661195,0.0,5,3,7,4,1,8,nan,nan,nan,nan,nan,nan,nan,nan,nan,nan,nan,nan,0.0,nan,nan,nan,nan,nan,nan,nan,nan,nan,nan,nan,nan,nan,nan,nan,nan,nan,nan,124.28387446794659,387.4872669610195,nan,387.8151853363961,nan,nan,nan,nan
1,190,1,1,1.0,1.0,0.23948673298582435,0.0,8,5,2,0,4,1,nan,nan,nan,nan,nan,nan,nan,nan,nan,nan,nan,nan,0.0,nan,nan,nan,nan,nan,nan,nan,nan,nan,nan,nan,nan,nan,nan,nan,nan,nan,nan,124.28387446794659,388.4957263832912,nan,388.735213116277,nan,nan,nan,nan
1,191,1,1,1.0,1.0,0.0710001913830638,0.0,6,4,5,7,1,2,nan,nan,nan,nan,nan,nan,nan,nan,nan,nan,nan,nan,0.0,nan,nan,nan,nan,nan,nan,nan,nan,nan,nan,nan,nan,nan,nan,nan,nan,nan,nan,124.28387446794659,389.504191508051,nan,389.5751916994341,nan,nan,nan,nan
1,192,1,1,1.0,1.0,0.34253134904429317,0.0,1,6,7,8,3,4,nan,nan,nan,nan,nan,nan,nan,nan,nan,nan,nan,nan,0.0,nan,nan,nan,nan,nan,nan,nan,nan,nan,nan,nan,nan,nan,nan,nan,nan,nan,nan,124.28387446794659,390.5126415225677,nan,390.855172871612,nan,nan,nan,nan
1,193,1,1,1.0,1.0,0.22204843908548355,0.0,5,0,2,7,4,1,nan,nan,nan,nan,nan,nan,nan,nan,nan,nan,nan,nan,0.0,nan,nan,nan,nan,nan,nan,nan,nan,nan,nan,nan,nan,nan,nan,nan,nan,nan,nan,124.28387446794659,391.5211129193194,nan,391.7431613584049,nan,nan,nan,nan
1,194,1,1,1.0,1.0,0.3175593460910022,0.0,2,4,7,6,8,5,nan,nan,nan,nan,nan,nan,nan,nan,nan,nan,nan,nan,0.0,nan,nan,nan,nan,nan,nan,nan,nan,nan,nan,nan,nan,nan,nan,nan,nan,nan,nan,124.28387446794659,392.5295697757974,nan,392.84712912188843,nan,nan,nan,nan
1,195,1,1,1.0,1.0,0.1890708887949586,0.0,3,2,6,4,1,0,nan,nan,nan,nan,nan,nan,nan,nan,nan,nan,nan,nan,0.0,nan,nan,nan,nan,nan,nan,nan,nan,nan,nan,nan,nan,nan,nan,nan,nan,nan,nan,124.28387446794659,393.5380126629025,nan,393.72708355169743,nan,nan,nan,nan
1,196,1,1,1.0,1.0,0.28457295754924417,0.0,6,0,4,3,5,2,nan,nan,nan,nan,nan,nan,nan,nan,nan,nan,nan,nan,0.0,nan,nan,nan,nan,nan,nan,nan,nan,nan,nan,nan,nan,nan,nan,nan,nan,nan,nan,124.28387446794659,394.5465031610802,nan,394.8310761186294,nan,nan,nan,nan
1,197,1,1,1.0,1.0,0.2921089483425021,0.0,2,7,8,0,3,5,nan,nan,nan,nan,nan,nan,nan,nan,nan,nan,nan,nan,0.0,nan,nan,nan,nan,nan,nan,nan,nan,nan,nan,nan,nan,nan,nan,nan,nan,nan,nan,124.28387446794659,395.5549526051618,nan,395.8470615535043,nan,nan,nan,nan
1,198,1,1,1.0,1.0,0.31563864182680845,0.0,7,6,4,5,1,8,nan,nan,nan,nan,nan,nan,nan,nan,nan,nan,nan,nan,0.0,nan,nan,nan,nan,nan,nan,nan,nan,nan,nan,nan,nan,nan,nan,nan,nan,nan,nan,124.28387446794659,396.5634277081117,nan,396.8790663499385,nan,nan,nan,nan
1,199,1,1,1.0,1.0,0.2991411713883281,0.0,6,8,2,4,0,3,nan,nan,nan,nan,nan,nan,nan,nan,nan,nan,nan,nan,0.0,nan,nan,nan,nan,nan,nan,nan,nan,nan,nan,nan,nan,nan,nan,nan,nan,nan,nan,124.28387446794659,397.57189311785623,nan,397.87103428924456,nan,nan,nan,nan
1,200,1,1,1.0,1.0,0.2586795180104673,0.0,3,5,7,6,4,1,nan,nan,nan,nan,nan,nan,nan,nan,nan,nan,nan,nan,0.0,nan,nan,nan,nan,nan,nan,nan,nan,nan,nan,nan,nan,nan,nan,nan,nan,nan,nan,124.28387446794659,398.5803525405936,nan,398.83903205860406,nan,nan,nan,nan
1,201,1,1,1.0,1.0,0.27418855484575033,0.0,6,1,0,7,3,4,nan,nan,nan,nan,nan,nan,nan,nan,nan,nan,nan,nan,0.0,nan,nan,nan,nan,nan,nan,nan,nan,nan,nan,nan,nan,nan,nan,nan,nan,nan,nan,124.28387446794659,399.5888131032698,nan,399.86300165811554,nan,nan,nan,nan
1,202,0,0,0.0,1.0,0.3217271910980344,0.0,0,3,1,5,8,2,nan,nan,nan,nan,nan,nan,nan,nan,nan,nan,nan,nan,0.0,nan,nan,nan,nan,nan,nan,nan,nan,nan,nan,nan,nan,nan,nan,nan,nan,nan,nan,124.28387446794659,400.59725627535954,nan,400.9189834664576,nan,nan,nan,nan
1,203,1,1,1.0,1.0,0.34523749770596623,0.0,8,4,3,6,5,7,nan,nan,nan,nan,nan,nan,nan,nan,nan,nan,nan,nan,0.0,nan,nan,nan,nan,nan,nan,nan,nan,nan,nan,nan,nan,nan,nan,nan,nan,nan,nan,124.28387446794659,401.60573907615617,nan,401.95097657386214,nan,nan,nan,nan
1,204,1,1,1.0,1.0,0.22476570634171367,0.0,1,7,4,5,0,8,nan,nan,nan,nan,nan,nan,nan,nan,nan,nan,nan,nan,0.0,nan,nan,nan,nan,nan,nan,nan,nan,nan,nan,nan,nan,nan,nan,nan,nan,nan,nan,124.28387446794659,402.6141930818558,nan,402.8389587881975,nan,nan,nan,nan
1,205,1,1,1.0,1.0,0.2722761179320514,0.0,3,8,0,7,2,4,nan,nan,nan,nan,nan,nan,nan,nan,nan,nan,nan,nan,0.0,nan,nan,nan,nan,nan,nan,nan,nan,nan,nan,nan,nan,nan,nan,nan,nan,nan,nan,124.28387446794659,403.6226630532183,nan,403.8949391711503,nan,nan,nan,nan
1,206,1,1,1.0,1.0,0.1838119742460549,0.0,8,1,5,6,3,0,nan,nan,nan,nan,nan,nan,nan,nan,nan,nan,nan,nan,0.0,nan,nan,nan,nan,nan,nan,nan,nan,nan,nan,nan,nan,nan,nan,nan,nan,nan,nan,124.28387446794659,404.63110194867477,nan,404.8149139229208,nan,nan,nan,nan
1,207,1,1,1.0,1.0,0.1113187256269157,0.0,4,6,8,5,1,7,nan,nan,nan,nan,nan,nan,nan,nan,nan,nan,nan,nan,0.0,nan,nan,nan,nan,nan,nan,nan,nan,nan,nan,nan,nan,nan,nan,nan,nan,nan,nan,124.28387446794659,405.6395878852345,nan,405.7509066108614,nan,nan,nan,nan
1,208,1,1,1.0,1.0,0.07083112886175513,0.0,5,3,6,0,7,4,nan,nan,nan,nan,nan,nan,nan,nan,nan,nan,nan,nan,0.0,nan,nan,nan,nan,nan,nan,nan,nan,nan,nan,nan,nan,nan,nan,nan,nan,nan,nan,124.28387446794659,406.64805728616193,nan,406.7188884150237,nan,nan,nan,nan
1,209,1,1,1.0,1.0,0.11035509500652552,0.0,1,4,7,8,2,3,nan,nan,nan,nan,nan,nan,nan,nan,nan,nan,nan,nan,0.0,nan,nan,nan,nan,nan,nan,nan,nan,nan,nan,nan,nan,nan,nan,nan,nan,nan,nan,124.28387446794659,407.6565135726705,nan,407.76686866767704,nan,nan,nan,nan
1,210,1,1,1.0,1.0,0.03788493946194649,0.0,0,8,6,2,7,5,nan,nan,nan,nan,nan,nan,nan,nan,nan,nan,nan,nan,0.0,nan,nan,nan,nan,nan,nan,nan,nan,nan,nan,nan,nan,nan,nan,nan,nan,nan,nan,124.28387446794659,408.66496073594317,nan,408.7028456754051,nan,nan,nan,nan
1,211,1,1,1.0,1.0,0.6773242885246873,0.0,2,5,7,4,3,1,nan,nan,nan,nan,nan,nan,nan,nan,nan,nan,nan,nan,0.0,nan,nan,nan,nan,nan,nan,nan,nan,nan,nan,nan,nan,nan,nan,nan,nan,nan,nan,124.28387446794659,409.6734557962045,nan,410.3507800847292,nan,nan,nan,nan
1,212,1,1,1.0,1.0,0.3329566242173314,0.0,7,0,4,6,2,3,nan,nan,nan,nan,nan,nan,nan,nan,nan,nan,nan,nan,0.0,nan,nan,nan,nan,nan,nan,nan,nan,nan,nan,nan,nan,nan,nan,nan,nan,nan,nan,124.28387446794659,410.6818650411442,nan,411.0148216653615,nan,nan,nan,nan
1,213,0,0,0.0,1.0,0.4444632292725146,0.0,6,2,1,7,0,5,nan,nan,nan,nan,nan,nan,nan,nan,nan,nan,nan,nan,0.0,nan,nan,nan,nan,nan,nan,nan,nan,nan,nan,nan,nan,nan,nan,nan,nan,nan,nan,124.28387446794659,411.69032702967525,nan,412.13479025894776,nan,nan,nan,nan
1,214,1,1,1.0,1.0,0.2679420616477728,0.0,2,0,3,6,5,8,nan,nan,nan,nan,nan,nan,nan,nan,nan,nan,nan,nan,0.0,nan,nan,nan,nan,nan,nan,nan,nan,nan,nan,nan,nan,nan,nan,nan,nan,nan,nan,124.28387446794659,412.6988266510889,nan,412.96676871273667,nan,nan,nan,nan
1,215,1,1,1.0,1.0,0.20346775883808732,0.0,5,4,6,3,8,7,nan,nan,nan,nan,nan,nan,nan,nan,nan,nan,nan,nan,0.0,nan,nan,nan,nan,nan,nan,nan,nan,nan,nan,nan,nan,nan,nan,nan,nan,nan,nan,124.28387446794659,413.7072903504595,nan,413.9107581092976,nan,nan,nan,nan
1,216,1,1,1.0,1.0,0.23499986343085766,0.0,7,2,5,6,3,8,nan,nan,nan,nan,nan,nan,nan,nan,nan,nan,nan,nan,0.0,nan,nan,nan,nan,nan,nan,nan,nan,nan,nan,nan,nan,nan,nan,nan,nan,nan,nan,124.28387446794659,414.715748347342,nan,414.9507482107729,nan,nan,nan,nan
1,217,1,1,1.0,1.0,0.21054274635389447,0.0,3,1,0,8,5,7,nan,nan,nan,nan,nan,nan,nan,nan,nan,nan,nan,nan,0.0,nan,nan,nan,nan,nan,nan,nan,nan,nan,nan,nan,nan,nan,nan,nan,nan,nan,nan,124.28387446794659,415.7241846770048,nan,415.9347274233587,nan,nan,nan,nan
1,218,1,1,1.0,1.0,0.29002260277047753,0.0,2,4,8,3,1,6,nan,nan,nan,nan,nan,nan,nan,nan,nan,nan,nan,nan,0.0,nan,nan,nan,nan,nan,nan,nan,nan,nan,nan,nan,nan,nan,nan,nan,nan,nan,nan,124.28387446794659,416.7326774559915,nan,417.022700058762,nan,nan,nan,nan
1,219,1,1,1.0,1.0,0.24155112588778138,0.0,3,2,1,0,7,5,nan,nan,nan,nan,nan,nan,nan,nan,nan,nan,nan,nan,0.0,nan,nan,nan,nan,nan,nan,nan,nan,nan,nan,nan,nan,nan,nan,nan,nan,nan,nan,124.28387446794659,417.74113801913336,nan,417.98268914502114,nan,nan,nan,nan
1,220,1,1,1.0,1.0,0.31306192744523287,0.0,2,8,3,6,1,7,nan,nan,nan,nan,nan,nan,nan,nan,nan,nan,nan,nan,0.0,nan,nan,nan,nan,nan,nan,nan,nan,nan,nan,nan,nan,nan,nan,nan,nan,nan,nan,124.28387446794659,418.7495985822752,nan,419.06266050972044,nan,nan,nan,nan
1,221,1,1,1.0,1.0,0.2885874197818339,0.0,5,6,4,3,8,0,nan,nan,nan,nan,nan,nan,nan,nan,nan,nan,nan,nan,0.0,nan,nan,nan,nan,nan,nan,nan,nan,nan,nan,nan,nan,nan,nan,nan,nan,nan,nan,124.28387446794659,419.75806655781344,nan,420.04665397759527,nan,nan,nan,nan
1,222,1,1,1.0,1.0,0.29611571319401264,0.0,4,3,5,6,1,2,nan,nan,nan,nan,nan,nan,nan,nan,nan,nan,nan,nan,0.0,nan,nan,nan,nan,nan,nan,nan,nan,nan,nan,nan,nan,nan,nan,nan,nan,nan,nan,124.28387446794659,420.766525125131,nan,421.062640838325,nan,nan,nan,nan
1,223,1,1,1.0,1.0,0.2556272610090673,0.0,2,6,7,0,4,3,nan,nan,nan,nan,nan,nan,nan,nan,nan,nan,nan,nan,0.0,nan,nan,nan,nan,nan,nan,nan,nan,nan,nan,nan,nan,nan,nan,nan,nan,nan,nan,124.28387446794659,421.774988824036,nan,422.03061608504504,nan,nan,nan,nan
1,224,1,1,1.0,1.0,0.2471706890501082,0.0,0,8,1,4,5,6,nan,nan,nan,nan,nan,nan,nan,nan,nan,nan,nan,nan,0.0,nan,nan,nan,nan,nan,nan,nan,nan,nan,nan,nan,nan,nan,nan,nan,nan,nan,nan,124.28387446794659,422.7834379831329,nan,423.030608672183,nan,nan,nan,nan
1,225,1,1,1.0,1.0,0.2306749289855361,0.0,7,5,3,8,6,2,nan,nan,nan,nan,nan,nan,nan,nan,nan,nan,nan,nan,0.0,nan,nan,nan,nan,nan,nan,nan,nan,nan,nan,nan,nan,nan,nan,nan,nan,nan,nan,124.28387446794659,423.7919130860828,nan,424.0225880150683,nan,nan,nan,nan
1,226,1,1,1.0,1.0,0.25418808683753014,0.0,6,4,2,7,8,0,nan,nan,nan,nan,nan,nan,nan,nan,nan,nan,nan,nan,0.0,nan,nan,nan,nan,nan,nan,nan,nan,nan,nan,nan,nan,nan,nan,nan,nan,nan,nan,124.28387446794659,424.8003784958273,nan,425.05456658266485,nan,nan,nan,nan
1,227,1,1,1.0,1.0,0.11771518038585782,0.0,2,5,7,8,4,3,nan,nan,nan,nan,nan,nan,nan,nan,nan,nan,nan,nan,0.0,nan,nan,nan,nan,nan,nan,nan,nan,nan,nan,nan,nan,nan,nan,nan,nan,nan,nan,124.28387446794659,425.80882679950446,nan,425.9265419798903,nan,nan,nan,nan
1,228,1,1,1.0,1.0,0.17322657722979784,0.0,5,3,1,6,0,4,nan,nan,nan,nan,nan,nan,nan,nan,nan,nan,nan,nan,0.0,nan,nan,nan,nan,nan,nan,nan,nan,nan,nan,nan,nan,nan,nan,nan,nan,nan,nan,124.28387446794659,426.8173050386831,nan,426.9905316159129,nan,nan,nan,nan
1,229,1,1,1.0,1.0,0.17279607988893986,0.0,0,4,7,1,5,2,nan,nan,nan,nan,nan,nan,nan,nan,nan,nan,nan,nan,0.0,nan,nan,nan,nan,nan,nan,nan,nan,nan,nan,nan,nan,nan,nan,nan,nan,nan,nan,124.28387446794659,427.82575790397823,nan,427.99855398386717,nan,nan,nan,nan
1,230,1,1,1.0,1.0,0.03626187704503536,0.0,8,6,3,5,7,4,nan,nan,nan,nan,nan,nan,nan,nan,nan,nan,nan,nan,0.0,nan,nan,nan,nan,nan,nan,nan,nan,nan,nan,nan,nan,nan,nan,nan,nan,nan,nan,124.28387446794659,428.8342227432877,nan,428.8704846203327,nan,nan,nan,nan
1,231,1,1,1.0,1.0,0.04378332803025842,0.0,6,2,5,0,3,8,nan,nan,nan,nan,nan,nan,nan,nan,nan,nan,nan,nan,0.0,nan,nan,nan,nan,nan,nan,nan,nan,nan,nan,nan,nan,nan,nan,nan,nan,nan,nan,124.28387446794659,429.8426895784214,nan,429.8864729064517,nan,nan,nan,nan
1,232,1,1,1.0,1.0,0.019333623815327883,0.0,4,1,7,6,5,0,nan,nan,nan,nan,nan,nan,nan,nan,nan,nan,nan,nan,0.0,nan,nan,nan,nan,nan,nan,nan,nan,nan,nan,nan,nan,nan,nan,nan,nan,nan,nan,124.28387446794659,430.85113617172465,nan,430.87046979554,nan,nan,nan,nan
1,233,0,0,1.0,0.0,0.03481728630140424,0.0,2,3,0,4,6,1,nan,nan,nan,nan,nan,nan,nan,nan,nan,nan,nan,nan,0.0,nan,nan,nan,nan,nan,nan,nan,nan,nan,nan,nan,nan,nan,nan,nan,nan,nan,nan,124.28387446794659,431.8596155513078,nan,431.8944328376092,nan,nan,nan,nan
1,234,1,1,1.0,1.0,0.3543418115004897,0.0,1,2,4,5,0,8,nan,nan,nan,nan,nan,nan,nan,nan,nan,nan,nan,nan,0.0,nan,nan,nan,nan,nan,nan,nan,nan,nan,nan,nan,nan,nan,nan,nan,nan,nan,nan,124.28387446794659,432.86805786797777,nan,433.22239967947826,nan,nan,nan,nan
1,235,1,1,1.0,1.0,0.24986885488033295,0.0,4,0,1,6,3,5,nan,nan,nan,nan,nan,nan,nan,nan,nan,nan,nan,nan,0.0,nan,nan,nan,nan,nan,nan,nan,nan,nan,nan,nan,nan,nan,nan,nan,nan,nan,nan,124.28387446794659,433.87653325591236,nan,434.1264021107927,nan,nan,nan,nan
1,236,1,1,1.0,1.0,0.3453911654651165,0.0,2,3,8,1,6,4,nan,nan,nan,nan,nan,nan,nan,nan,nan,nan,nan,nan,0.0,nan,nan,nan,nan,nan,nan,nan,nan,nan,nan,nan,nan,nan,nan,nan,nan,nan,nan,124.28387446794659,434.8849912532605,nan,435.23038241872564,nan,nan,nan,nan
1,237,1,1,1.0,1.0,0.24891121126711369,0.0,1,6,0,4,3,7,nan,nan,nan,nan,nan,nan,nan,nan,nan,nan,nan,nan,0.0,nan,nan,nan,nan,nan,nan,nan,nan,nan,nan,nan,nan,nan,nan,nan,nan,nan,nan,124.28387446794659,435.89345979876816,nan,436.1423710100353,nan,nan,nan,nan
1,238,1,1,1.0,1.0,0.2884542793035507,0.0,8,0,3,5,1,6,nan,nan,nan,nan,nan,nan,nan,nan,nan,nan,nan,nan,0.0,nan,nan,nan,nan,nan,nan,nan,nan,nan,nan,nan,nan,nan,nan,nan,nan,nan,nan,124.28387446794659,436.90189726883546,nan,437.190351548139,nan,nan,nan,nan
1,239,1,1,1.0,1.0,0.2879393929615617,0.0,7,6,5,1,0,8,nan,nan,nan,nan,nan,nan,nan,nan,nan,nan,nan,nan,0.0,nan,nan,nan,nan,nan,nan,nan,nan,nan,nan,nan,nan,nan,nan,nan,nan,nan,nan,124.28387446794659,437.91038634162396,nan,438.1983257345855,nan,nan,nan,nan
1,240,0,0,1.0,0.0,0.24746063398197293,1.0,6,1,4,3,2,5,1.0,1.0,1.0,1.0,1.0,1.0,1.0,1.0,1.0,1.0,0.0,0.0,4.0,6.0,1.0,4.0,3.0,8.0,7.0,4.0,3.0,2.0,1.0,6.0,5.0,4.011274192947894,3.186745631042868,2.4827501559630036,1.5639477265067399,5.467021879274398,4.8186504151672125,124.28387446794659,438.91884775971994,439.7272571763024,439.1663083937019,446.24474792787805,447.24536630511284,440.7357362709008,446.2364165140316
1,241,1,1,1.0,1.0,0.49690925469622016,0.0,1,6,0,2,4,7,nan,nan,nan,nan,nan,nan,nan,nan,nan,nan,nan,nan,0.0,nan,nan,nan,nan,nan,nan,nan,nan,nan,nan,nan,nan,nan,nan,nan,nan,nan,nan,124.28387446794659,447.4532721815631,nan,447.9501814362593,nan,nan,nan,nan
1,242,1,1,1.0,1.0,0.32840190129354596,0.0,7,1,6,0,5,8,nan,nan,nan,nan,nan,nan,nan,nan,nan,nan,nan,nan,0.0,nan,nan,nan,nan,nan,nan,nan,nan,nan,nan,nan,nan,nan,nan,nan,nan,nan,nan,124.28387446794659,448.4617373063229,nan,448.79013920761645,nan,nan,nan,nan
1,243,1,1,1.0,1.0,0.32793377060443163,0.0,1,5,2,4,3,7,nan,nan,nan,nan,nan,nan,nan,nan,nan,nan,nan,nan,0.0,nan,nan,nan,nan,nan,nan,nan,nan,nan,nan,nan,nan,nan,nan,nan,nan,nan,nan,124.28387446794659,449.47019074158743,nan,449.79812451219186,nan,nan,nan,nan
1,244,1,1,1.0,1.0,0.2874473137781024,0.0,5,6,7,3,4,1,nan,nan,nan,nan,nan,nan,nan,nan,nan,nan,nan,nan,0.0,nan,nan,nan,nan,nan,nan,nan,nan,nan,nan,nan,nan,nan,nan,nan,nan,nan,nan,124.28387446794659,450.4786638491787,nan,450.7661111629568,nan,nan,nan,nan
1,245,1,1,1.0,1.0,0.25500204134732485,0.0,7,0,6,4,3,2,nan,nan,nan,nan,nan,nan,nan,nan,nan,nan,nan,nan,0.0,nan,nan,nan,nan,nan,nan,nan,nan,nan,nan,nan,nan,nan,nan,nan,nan,nan,nan,124.28387446794659,451.48709647217765,nan,451.742098513525,nan,nan,nan,nan
1,246,1,1,1.0,1.0,0.3184787863865495,0.0,2,3,4,8,7,0,nan,nan,nan,nan,nan,nan,nan,nan,nan,nan,nan,nan,0.0,nan,nan,nan,nan,nan,nan,nan,nan,nan,nan,nan,nan,nan,nan,nan,nan,nan,nan,124.28387446794659,452.4955906770192,nan,452.81406946340576,nan,nan,nan,nan
1,247,1,1,1.0,1.0,0.36605477053672075,0.0,3,6,7,5,2,1,nan,nan,nan,nan,nan,nan,nan,nan,nan,nan,nan,nan,0.0,nan,nan,nan,nan,nan,nan,nan,nan,nan,nan,nan,nan,nan,nan,nan,nan,nan,nan,124.28387446794659,453.50400248821825,nan,453.87005725875497,nan,nan,nan,nan
1,248,1,1,0.0,0.0,0.44552208250388503,0.0,2,7,8,6,3,4,nan,nan,nan,nan,nan,nan,nan,nan,nan,nan,nan,nan,0.0,nan,nan,nan,nan,nan,nan,nan,nan,nan,nan,nan,nan,nan,nan,nan,nan,nan,nan,124.28387446794659,454.51251151785254,nan,454.95803360035643,nan,nan,nan,nan
1,249,1,1,1.0,1.0,0.5490393913350999,0.0,0,8,2,4,5,3,nan,nan,nan,nan,nan,nan,nan,nan,nan,nan,nan,nan,0.0,nan,nan,nan,nan,nan,nan,nan,nan,nan,nan,nan,nan,nan,nan,nan,nan,nan,nan,124.28387446794659,455.52096295775846,nan,456.07000234909356,nan,nan,nan,nan
1,250,1,1,1.0,1.0,0.46856710966676474,0.0,2,6,0,8,7,4,nan,nan,nan,nan,nan,nan,nan,nan,nan,nan,nan,nan,0.0,nan,nan,nan,nan,nan,nan,nan,nan,nan,nan,nan,nan,nan,nan,nan,nan,nan,nan,124.28387446794659,456.52943692030385,nan,456.9980040299706,nan,nan,nan,nan
1,251,1,1,1.0,1.0,0.30810037069022655,0.0,7,1,5,4,8,3,nan,nan,nan,nan,nan,nan,nan,nan,nan,nan,nan,nan,0.0,nan,nan,nan,nan,nan,nan,nan,nan,nan,nan,nan,nan,nan,nan,nan,nan,nan,nan,124.28387446794659,457.53787353495136,nan,457.8459739056416,nan,nan,nan,nan
1,252,1,1,1.0,1.0,0.2915983381681144,0.0,5,4,0,3,1,6,nan,nan,nan,nan,nan,nan,nan,nan,nan,nan,nan,nan,0.0,nan,nan,nan,nan,nan,nan,nan,nan,nan,nan,nan,nan,nan,nan,nan,nan,nan,nan,124.28387446794659,458.54636260773987,nan,458.837960945908,nan,nan,nan,nan
1,253,1,1,1.0,1.0,0.21112406067550182,0.0,3,1,2,4,0,8,nan,nan,nan,nan,nan,nan,nan,nan,nan,nan,nan,nan,0.0,nan,nan,nan,nan,nan,nan,nan,nan,nan,nan,nan,nan,nan,nan,nan,nan,nan,nan,124.28387446794659,459.5548254516907,nan,459.7659495123662,nan,nan,nan,nan
1,254,1,1,1.0,1.0,0.1467127650976181,0.0,7,3,6,0,2,1,nan,nan,nan,nan,nan,nan,nan,nan,nan,nan,nan,nan,0.0,nan,nan,nan,nan,nan,nan,nan,nan,nan,nan,nan,nan,nan,nan,nan,nan,nan,nan,124.28387446794659,460.56329000601545,nan,460.71000277111307,nan,nan,nan,nan
1,255,1,1,1.0,1.0,0.20219251606613398,0.0,2,5,0,8,7,3,nan,nan,nan,nan,nan,nan,nan,nan,nan,nan,nan,nan,0.0,nan,nan,nan,nan,nan,nan,nan,nan,nan,nan,nan,nan,nan,nan,nan,nan,nan,nan,124.28387446794659,461.57172861648723,nan,461.77392113255337,nan,nan,nan,nan
1,256,1,1,1.0,1.0,0.12168089114129543,0.0,8,4,2,0,6,5,nan,nan,nan,nan,nan,nan,nan,nan,nan,nan,nan,nan,0.0,nan,nan,nan,nan,nan,nan,nan,nan,nan,nan,nan,nan,nan,nan,nan,nan,nan,nan,124.28387446794659,462.5802074256353,nan,462.7018883167766,nan,nan,nan,nan
1,257,1,1,1.0,1.0,0.12126065697520971,0.0,2,7,3,1,8,4,nan,nan,nan,nan,nan,nan,nan,nan,nan,nan,nan,nan,0.0,nan,nan,nan,nan,nan,nan,nan,nan,nan,nan,nan,nan,nan,nan,nan,nan,nan,nan,124.28387446794659,463.588609543629,nan,463.7098702006042,nan,nan,nan,nan
1,258,1,1,1.0,1.0,0.24868854973465204,0.0,7,2,5,0,6,8,nan,nan,nan,nan,nan,nan,nan,nan,nan,nan,nan,nan,0.0,nan,nan,nan,nan,nan,nan,nan,nan,nan,nan,nan,nan,nan,nan,nan,nan,nan,nan,124.28387446794659,464.59715848695487,nan,464.8458470366895,nan,nan,nan,nan
1,259,0,0,1.0,0.0,0.20023646019399166,1.0,4,1,7,6,0,3,1.0,1.0,1.0,1.0,1.0,1.0,1.0,1.0,1.0,1.0,0.0,0.0,4.0,4.0,1.0,7.0,6.0,5.0,2.0,4.0,3.0,2.0,1.0,6.0,5.0,3.6033733347430825,2.740299546625465,2.0671413927339017,1.3574684797786176,4.899211362469941,4.179768717382103,124.28387446794659,465.6055965269916,466.414003662765,465.80583298718557,472.3730941209942,473.3749281549826,467.43080504750833,472.36476213717833
1,260,1,1,nan,nan,nan,0.0,6,2,0,8,1,4,nan,nan,nan,nan,nan,nan,nan,nan,nan,nan,nan,nan,0.0,nan,nan,nan,nan,nan,nan,nan,nan,nan,nan,nan,nan,nan,nan,nan,nan,nan,nan,124.28387446794659,473.5815912904218,nan,nan,nan,nan,nan,nan
1,261,1,1,1.0,1.0,0.36756464885547757,0.0,7,8,4,1,5,3,nan,nan,nan,nan,nan,nan,nan,nan,nan,nan,nan,nan,0.0,nan,nan,nan,nan,nan,nan,nan,nan,nan,nan,nan,nan,nan,nan,nan,nan,nan,nan,124.28387446794659,474.59007152495906,nan,474.95763617381454,nan,nan,nan,nan
1,262,1,1,1.0,1.0,0.36707114428281784,0.0,3,1,7,5,6,2,nan,nan,nan,nan,nan,nan,nan,nan,nan,nan,nan,nan,0.0,nan,nan,nan,nan,nan,nan,nan,nan,nan,nan,nan,nan,nan,nan,nan,nan,nan,nan,124.28387446794659,475.59855774696916,nan,475.965628891252,nan,nan,nan,nan
1,263,1,1,1.0,1.0,0.38265002984553576,0.0,2,5,0,1,8,4,nan,nan,nan,nan,nan,nan,nan,nan,nan,nan,nan,nan,0.0,nan,nan,nan,nan,nan,nan,nan,nan,nan,nan,nan,nan,nan,nan,nan,nan,nan,nan,124.28387446794659,476.60697611561045,nan,476.989626145456,nan,nan,nan,nan
1,264,1,1,1.0,1.0,0.2622016170062125,0.0,7,6,1,3,5,0,nan,nan,nan,nan,nan,nan,nan,nan,nan,nan,nan,nan,0.0,nan,nan,nan,nan,nan,nan,nan,nan,nan,nan,nan,nan,nan,nan,nan,nan,nan,nan,124.28387446794659,477.6154261296615,nan,477.8776277466677,nan,nan,nan,nan
1,265,0,0,1.0,0.0,0.2216883604414761,0.0,6,5,3,0,4,2,nan,nan,nan,nan,nan,nan,nan,nan,nan,nan,nan,nan,0.0,nan,nan,nan,nan,nan,nan,nan,nan,nan,nan,nan,nan,nan,nan,nan,nan,nan,nan,124.28387446794659,478.6238943906501,nan,478.84558275109157,nan,nan,nan,nan
1,266,1,1,1.0,1.0,0.2532084905542433,0.0,3,2,4,8,5,0,nan,nan,nan,nan,nan,nan,nan,nan,nan,nan,nan,nan,0.0,nan,nan,nan,nan,nan,nan,nan,nan,nan,nan,nan,nan,nan,nan,nan,nan,nan,nan,124.28387446794659,479.6323800422251,nan,479.88558853277937,nan,nan,nan,nan
1,267,1,1,1.0,1.0,0.23672213917598128,0.0,4,7,8,5,2,3,nan,nan,nan,nan,nan,nan,nan,nan,nan,nan,nan,nan,0.0,nan,nan,nan,nan,nan,nan,nan,nan,nan,nan,nan,nan,nan,nan,nan,nan,nan,nan,124.28387446794659,480.64085600012913,nan,480.8775781393051,nan,nan,nan,nan
1,268,1,1,1.0,1.0,0.3083378570154309,0.0,0,5,3,2,1,6,nan,nan,nan,nan,nan,nan,nan,nan,nan,nan,nan,nan,0.0,nan,nan,nan,nan,nan,nan,nan,nan,nan,nan,nan,nan,nan,nan,nan,nan,nan,nan,124.28387446794659,481.649312001653,nan,481.95764985866845,nan,nan,nan,nan
1,269,1,1,1.0,1.0,0.3237576577812433,0.0,8,4,6,0,7,3,nan,nan,nan,nan,nan,nan,nan,nan,nan,nan,nan,nan,0.0,nan,nan,nan,nan,nan,nan,nan,nan,nan,nan,nan,nan,nan,nan,nan,nan,nan,nan,124.28387446794659,482.65777997719124,nan,482.9815376349725,nan,nan,nan,nan
1,270,1,1,1.0,1.0,0.3472964745014906,0.0,4,5,3,2,0,1,nan,nan,nan,nan,nan,nan,nan,nan,nan,nan,nan,nan,0.0,nan,nan,nan,nan,nan,nan,nan,nan,nan,nan,nan,nan,nan,nan,nan,nan,nan,nan,124.28387446794659,483.66622999170795,nan,484.01352646620944,nan,nan,nan,nan
1,271,0,0,0.0,1.0,0.418886533472687,0.0,0,2,1,7,5,6,nan,nan,nan,nan,nan,nan,nan,nan,nan,nan,nan,nan,0.0,nan,nan,nan,nan,nan,nan,nan,nan,nan,nan,nan,nan,nan,nan,nan,nan,nan,nan,124.28387446794659,484.6746782953851,nan,485.0935648288578,nan,nan,nan,nan
1,272,1,1,1.0,1.0,0.40235627675428987,0.0,7,5,3,4,0,1,nan,nan,nan,nan,nan,nan,nan,nan,nan,nan,nan,nan,0.0,nan,nan,nan,nan,nan,nan,nan,nan,nan,nan,nan,nan,nan,nan,nan,nan,nan,nan,124.28387446794659,485.6831323010847,nan,486.085488577839,nan,nan,nan,nan
1,273,1,1,1.0,1.0,0.29783599358052015,0.0,2,3,7,6,4,8,nan,nan,nan,nan,nan,nan,nan,nan,nan,nan,nan,nan,0.0,nan,nan,nan,nan,nan,nan,nan,nan,nan,nan,nan,nan,nan,nan,nan,nan,nan,nan,124.28387446794659,486.69162793131545,nan,486.989463924896,nan,nan,nan,nan
1,274,1,1,1.0,1.0,0.3133578593842685,0.0,6,7,0,4,1,5,nan,nan,nan,nan,nan,nan,nan,nan,nan,nan,nan,nan,0.0,nan,nan,nan,nan,nan,nan,nan,nan,nan,nan,nan,nan,nan,nan,nan,nan,nan,nan,124.28387446794659,487.7000939110294,nan,488.01345177041367,nan,nan,nan,nan
1,275,1,1,1.0,1.0,0.5368674248456955,0.0,4,5,3,0,2,1,nan,nan,nan,nan,nan,nan,nan,nan,nan,nan,nan,nan,0.0,nan,nan,nan,nan,nan,nan,nan,nan,nan,nan,nan,nan,nan,nan,nan,nan,nan,nan,124.28387446794659,488.70855561457574,nan,489.24542303942144,nan,nan,nan,nan
1,276,1,1,1.0,1.0,0.4404470562003553,0.0,1,7,2,6,0,3,nan,nan,nan,nan,nan,nan,nan,nan,nan,nan,nan,nan,0.0,nan,nan,nan,nan,nan,nan,nan,nan,nan,nan,nan,nan,nan,nan,nan,nan,nan,nan,124.28387446794659,489.71697825938463,nan,490.157425315585,nan,nan,nan,nan
1,277,1,1,1.0,1.0,0.3919256874360144,0.0,3,5,6,4,7,2,nan,nan,nan,nan,nan,nan,nan,nan,nan,nan,nan,nan,0.0,nan,nan,nan,nan,nan,nan,nan,nan,nan,nan,nan,nan,nan,nan,nan,nan,nan,nan,124.28387446794659,490.7254938464612,nan,491.1174195338972,nan,nan,nan,nan
1,278,1,1,1.0,1.0,0.27142453100532293,0.0,2,4,7,1,5,3,nan,nan,nan,nan,nan,nan,nan,nan,nan,nan,nan,nan,0.0,nan,nan,nan,nan,nan,nan,nan,nan,nan,nan,nan,nan,nan,nan,nan,nan,nan,nan,124.28387446794659,491.7339464267716,nan,492.0053709577769,nan,nan,nan,nan
1,279,1,1,1.0,1.0,0.30295635061338544,0.0,0,7,5,8,3,4,nan,nan,nan,nan,nan,nan,nan,nan,nan,nan,nan,nan,0.0,nan,nan,nan,nan,nan,nan,nan,nan,nan,nan,nan,nan,nan,nan,nan,nan,nan,nan,124.28387446794659,492.7424049936235,nan,493.0453613442369,nan,nan,nan,nan
1,280,1,1,1.0,1.0,0.25445721950381994,0.0,1,5,8,6,7,2,nan,nan,nan,nan,nan,nan,nan,nan,nan,nan,nan,nan,0.0,nan,nan,nan,nan,nan,nan,nan,nan,nan,nan,nan,nan,nan,nan,nan,nan,nan,nan,124.28387446794659,493.75088351778686,nan,494.0053407372907,nan,nan,nan,nan
1,281,1,1,1.0,1.0,0.3340186132118106,0.0,0,8,6,1,4,3,nan,nan,nan,nan,nan,nan,nan,nan,nan,nan,nan,nan,0.0,nan,nan,nan,nan,nan,nan,nan,nan,nan,nan,nan,nan,nan,nan,nan,nan,nan,nan,124.28387446794659,494.75933296233416,nan,495.09335157554597,nan,nan,nan,nan
1,282,1,1,1.0,1.0,0.30952699994668365,0.0,8,7,1,6,0,2,nan,nan,nan,nan,nan,nan,nan,nan,nan,nan,nan,nan,0.0,nan,nan,nan,nan,nan,nan,nan,nan,nan,nan,nan,nan,nan,nan,nan,nan,nan,nan,124.28387446794659,495.7677826914005,nan,496.0773096913472,nan,nan,nan,nan
1,283,1,1,1.0,1.0,0.1730207372456789,0.0,5,3,0,2,6,7,nan,nan,nan,nan,nan,nan,nan,nan,nan,nan,nan,nan,0.0,nan,nan,nan,nan,nan,nan,nan,nan,nan,nan,nan,nan,nan,nan,nan,nan,nan,nan,124.28387446794659,496.7762569389306,nan,496.9492776761763,nan,nan,nan,nan
1,284,1,1,1.0,1.0,0.28455157531425357,0.0,3,6,2,1,8,5,nan,nan,nan,nan,nan,nan,nan,nan,nan,nan,nan,nan,0.0,nan,nan,nan,nan,nan,nan,nan,nan,nan,nan,nan,nan,nan,nan,nan,nan,nan,nan,124.28387446794659,497.7847155062482,nan,498.06926708156243,nan,nan,nan,nan
1,285,1,1,1.0,1.0,0.23610889399424195,0.0,5,3,0,7,6,4,nan,nan,nan,nan,nan,nan,nan,nan,nan,nan,nan,nan,0.0,nan,nan,nan,nan,nan,nan,nan,nan,nan,nan,nan,nan,nan,nan,nan,nan,nan,nan,124.28387446794659,498.7931447084993,nan,499.02925360249355,nan,nan,nan,nan
1,286,1,1,1.0,1.0,0.2676167646422982,0.0,1,6,4,2,3,7,nan,nan,nan,nan,nan,nan,nan,nan,nan,nan,nan,nan,0.0,nan,nan,nan,nan,nan,nan,nan,nan,nan,nan,nan,nan,nan,nan,nan,nan,nan,nan,124.28387446794659,499.8016109736636,nan,500.0692277383059,nan,nan,nan,nan
1,287,0,0,1.0,0.0,0.2511275615543127,1.0,0,3,1,8,7,4,1.0,1.0,1.0,1.0,1.0,1.0,0.0,0.0,1.0,1.0,1.0,1.0,4.0,2.0,5.0,1.0,8.0,7.0,4.0,5.0,4.0,3.0,2.0,1.0,6.0,4.669853584840894,3.9270083997398615,3.029990579932928,2.2623290549963713,1.2961741578765213,5.654115044977516,124.28387446794659,500.810068115592,501.6185083226301,501.0611956771463,508.3276711953804,509.3322490109131,502.63531170319766,508.31935204099864
1,288,1,1,1.0,1.0,0.4848353615961969,0.0,2,7,3,6,1,5,nan,nan,nan,nan,nan,nan,nan,nan,nan,nan,nan,nan,0.0,nan,nan,nan,nan,nan,nan,nan,nan,nan,nan,nan,nan,nan,nan,nan,nan,nan,nan,124.28387446794659,509.53621825715527,nan,510.02105361875147,nan,nan,nan,nan
1,289,1,1,1.0,1.0,0.5323745687492192,0.0,3,2,4,0,7,6,nan,nan,nan,nan,nan,nan,nan,nan,nan,nan,nan,nan,0.0,nan,nan,nan,nan,nan,nan,nan,nan,nan,nan,nan,nan,nan,nan,nan,nan,nan,nan,124.28387446794659,510.5446728328243,nan,511.0770474015735,nan,nan,nan,nan
1,290,1,1,1.0,1.0,0.33189862594008446,0.0,2,3,7,1,4,5,nan,nan,nan,nan,nan,nan,nan,nan,nan,nan,nan,nan,0.0,nan,nan,nan,nan,nan,nan,nan,nan,nan,nan,nan,nan,nan,nan,nan,nan,nan,nan,124.28387446794659,511.5531177157536,nan,511.8850163416937,nan,nan,nan,nan
1,291,0,0,0.0,1.0,0.4994617351330817,1.0,3,1,0,5,7,6,1.0,1.0,1.0,1.0,1.0,1.0,0.0,1.0,1.0,1.0,0.0,0.0,3.0,2.0,1.0,0.0,5.0,6.0,8.0,4.0,3.0,2.0,1.0,6.0,5.0,4.447575927246362,3.6796521125361323,2.8727405997924507,0.9213018822483718,5.758473677560687,5.110686664003879,124.28387446794659,512.5615563262254,513.370019055903,513.0610180613585,520.1875470411032,521.1880870163441,514.3868241468444,520.179217052646
1,292,1,1,1.0,1.0,0.36076278472319245,0.0,1,4,2,3,8,0,nan,nan,nan,nan,nan,nan,nan,nan,nan,nan,nan,nan,0.0,nan,nan,nan,nan,nan,nan,nan,nan,nan,nan,nan,nan,nan,nan,nan,nan,nan,nan,124.28387446794659,521.3960755714215,nan,521.7568383561447,nan,nan,nan,nan
1,293,1,1,1.0,1.0,0.28831059020012617,0.0,2,0,6,4,1,8,nan,nan,nan,nan,nan,nan,nan,nan,nan,nan,nan,nan,0.0,nan,nan,nan,nan,nan,nan,nan,nan,nan,nan,nan,nan,nan,nan,nan,nan,nan,nan,124.28387446794659,522.4045067690313,nan,522.6928173592314,nan,nan,nan,nan
1,294,1,1,1.0,1.0,0.31179979955777526,0.0,7,1,0,6,8,4,nan,nan,nan,nan,nan,nan,nan,nan,nan,nan,nan,nan,0.0,nan,nan,nan,nan,nan,nan,nan,nan,nan,nan,nan,nan,nan,nan,nan,nan,nan,nan,124.28387446794659,523.4129972676747,nan,523.7247970672324,nan,nan,nan,nan
1,295,1,1,1.0,1.0,0.33535458194091916,0.0,2,4,6,5,0,3,nan,nan,nan,nan,nan,nan,nan,nan,nan,nan,nan,nan,0.0,nan,nan,nan,nan,nan,nan,nan,nan,nan,nan,nan,nan,nan,nan,nan,nan,nan,nan,124.28387446794659,524.4214316015132,nan,524.7567861834541,nan,nan,nan,nan
1,296,1,1,1.0,1.0,0.2948239352554083,0.0,0,8,5,4,7,1,nan,nan,nan,nan,nan,nan,nan,nan,nan,nan,nan,nan,0.0,nan,nan,nan,nan,nan,nan,nan,nan,nan,nan,nan,nan,nan,nan,nan,nan,nan,nan,124.28387446794659,525.4299186784774,nan,525.7247426137328,nan,nan,nan,nan
1,297,1,1,1.0,1.0,0.3183502075262368,0.0,5,6,4,8,0,2,nan,nan,nan,nan,nan,nan,nan,nan,nan,nan,nan,nan,0.0,nan,nan,nan,nan,nan,nan,nan,nan,nan,nan,nan,nan,nan,nan,nan,nan,nan,nan,124.28387446794659,526.4383892198093,nan,526.7567394273356,nan,nan,nan,nan
1,298,0,0,0.0,1.0,0.37394485296681523,0.0,0,2,8,6,4,3,nan,nan,nan,nan,nan,nan,nan,nan,nan,nan,nan,nan,0.0,nan,nan,nan,nan,nan,nan,nan,nan,nan,nan,nan,nan,nan,nan,nan,nan,nan,nan,124.28387446794659,527.446846076753,nan,527.8207909297198,nan,nan,nan,nan
1,299,1,1,1.0,1.0,0.3414200381375849,0.0,2,6,3,1,8,7,nan,nan,nan,nan,nan,nan,nan,nan,nan,nan,nan,nan,0.0,nan,nan,nan,nan,nan,nan,nan,nan,nan,nan,nan,nan,nan,nan,nan,nan,nan,nan,124.28387446794659,528.455307494849,nan,528.7967275329866,nan,nan,nan,nan
1,300,1,1,1.0,1.0,0.2929092184640467,0.0,4,1,7,5,3,8,nan,nan,nan,nan,nan,nan,nan,nan,nan,nan,nan,nan,0.0,nan,nan,nan,nan,nan,nan,nan,nan,nan,nan,nan,nan,nan,nan,nan,nan,nan,nan,124.28387446794659,529.4637640663423,nan,529.7566732848063,nan,nan,nan,nan
1,301,1,1,1.0,1.0,0.2684555226005614,0.0,8,2,1,6,0,4,nan,nan,nan,nan,nan,nan,nan,nan,nan,nan,nan,nan,0.0,nan,nan,nan,nan,nan,nan,nan,nan,nan,nan,nan,nan,nan,nan,nan,nan,nan,nan,124.28387446794659,530.472237743903,nan,530.7406932665035,nan,nan,nan,nan
1,302,1,1,1.0,1.0,0.30797549756243825,0.0,6,1,7,0,5,8,nan,nan,nan,nan,nan,nan,nan,nan,nan,nan,nan,nan,0.0,nan,nan,nan,nan,nan,nan,nan,nan,nan,nan,nan,nan,nan,nan,nan,nan,nan,nan,124.28387446794659,531.4806965966709,nan,531.7886720942333,nan,nan,nan,nan
1,303,0,0,0.0,1.0,0.451491461135447,0.0,1,5,2,4,8,0,nan,nan,nan,nan,nan,nan,nan,nan,nan,nan,nan,nan,0.0,nan,nan,nan,nan,nan,nan,nan,nan,nan,nan,nan,nan,nan,nan,nan,nan,nan,nan,124.28387446794659,532.4891597251408,nan,532.9406511862762,nan,nan,nan,nan
1,304,1,1,1.0,1.0,0.3790124668739736,0.0,4,7,8,6,0,3,nan,nan,nan,nan,nan,nan,nan,nan,nan,nan,nan,nan,0.0,nan,nan,nan,nan,nan,nan,nan,nan,nan,nan,nan,nan,nan,nan,nan,nan,nan,nan,124.28387446794659,533.4976157266647,nan,533.8766281935386,nan,nan,nan,nan
1,305,1,1,1.0,1.0,0.25052771624177694,0.0,3,5,7,1,6,0,nan,nan,nan,nan,nan,nan,nan,nan,nan,nan,nan,nan,0.0,nan,nan,nan,nan,nan,nan,nan,nan,nan,nan,nan,nan,nan,nan,nan,nan,nan,nan,124.28387446794659,534.5060799960047,nan,534.7566077122465,nan,nan,nan,nan
1,306,1,1,1.0,1.0,0.29003714257851243,0.0,0,1,6,2,4,7,nan,nan,nan,nan,nan,nan,nan,nan,nan,nan,nan,nan,0.0,nan,nan,nan,nan,nan,nan,nan,nan,nan,nan,nan,nan,nan,nan,nan,nan,nan,nan,124.28387446794659,535.5145519627258,nan,535.8045891053043,nan,nan,nan,nan
1,307,1,1,1.0,1.0,0.40958036994561553,0.0,7,4,2,3,8,6,nan,nan,nan,nan,nan,nan,nan,nan,nan,nan,nan,nan,0.0,nan,nan,nan,nan,nan,nan,nan,nan,nan,nan,nan,nan,nan,nan,nan,nan,nan,nan,124.28387446794659,536.5230062538758,nan,536.9325866238214,nan,nan,nan,nan
1,308,1,1,1.0,1.0,0.2970784888602793,0.0,8,7,5,6,0,3,nan,nan,nan,nan,nan,nan,nan,nan,nan,nan,nan,nan,0.0,nan,nan,nan,nan,nan,nan,nan,nan,nan,nan,nan,nan,nan,nan,nan,nan,nan,nan,124.28387446794659,537.53147137817,nan,537.8285498670302,nan,nan,nan,nan
1,309,1,1,1.0,1.0,0.3126063412055373,0.0,0,1,6,7,2,4,nan,nan,nan,nan,nan,nan,nan,nan,nan,nan,nan,nan,0.0,nan,nan,nan,nan,nan,nan,nan,nan,nan,nan,nan,nan,nan,nan,nan,nan,nan,nan,124.28387446794659,538.5399305159226,nan,538.8525368571281,nan,nan,nan,nan
1,310,1,1,1.0,1.0,0.3121510404162109,0.0,6,4,8,3,5,7,nan,nan,nan,nan,nan,nan,nan,nan,nan,nan,nan,nan,0.0,nan,nan,nan,nan,nan,nan,nan,nan,nan,nan,nan,nan,nan,nan,nan,nan,nan,nan,124.28387446794659,539.5483939298429,nan,539.8605449702591,nan,nan,nan,nan
1,311,1,1,1.0,1.0,0.3036636780016124,0.0,5,2,1,4,7,0,nan,nan,nan,nan,nan,nan,nan,nan,nan,nan,nan,nan,0.0,nan,nan,nan,nan,nan,nan,nan,nan,nan,nan,nan,nan,nan,nan,nan,nan,nan,nan,124.28387446794659,540.5568522121757,nan,540.8605158901773,nan,nan,nan,nan
1,312,1,1,1.0,1.0,0.3031770158559084,0.0,2,7,5,0,4,3,nan,nan,nan,nan,nan,nan,nan,nan,nan,nan,nan,nan,0.0,nan,nan,nan,nan,nan,nan,nan,nan,nan,nan,nan,nan,nan,nan,nan,nan,nan,nan,124.28387446794659,541.5653213281184,nan,541.8684983439744,nan,nan,nan,nan
1,313,0,0,1.0,0.0,0.2147066001780331,0.0,1,2,0,6,3,4,nan,nan,nan,nan,nan,nan,nan,nan,nan,nan,nan,nan,0.0,nan,nan,nan,nan,nan,nan,nan,nan,nan,nan,nan,nan,nan,nan,nan,nan,nan,nan,124.28387446794659,542.5737496749498,nan,542.7884562751278,nan,nan,nan,nan
1,314,1,1,1.0,1.0,0.542182503733784,0.0,7,0,2,3,4,8,nan,nan,nan,nan,nan,nan,nan,nan,nan,nan,nan,nan,0.0,nan,nan,nan,nan,nan,nan,nan,nan,nan,nan,nan,nan,nan,nan,nan,nan,nan,nan,124.28387446794659,543.5822712485678,nan,544.1244537523016,nan,nan,nan,nan
1,315,0,0,1.0,0.0,0.2377222622744739,1.0,2,3,6,4,7,5,1.0,1.0,1.0,1.0,1.0,1.0,0.0,1.0,1.0,1.0,0.0,0.0,3.0,5.0,3.0,6.0,4.0,8.0,2.0,4.0,3.0,2.0,1.0,6.0,5.0,4.041352299042046,3.153008865658194,2.5300373365171254,1.8668670146726072,5.497078032698482,4.74577342486009,124.28387446794659,544.5907127102837,545.3991195606068,544.8284349725582,551.9416099698283,552.9491867297329,546.407585255336,551.9332834030502
1,316,1,1,1.0,1.0,0.5258093359880149,0.0,0,2,4,1,8,6,nan,nan,nan,nan,nan,nan,nan,nan,nan,nan,nan,nan,0.0,nan,nan,nan,nan,nan,nan,nan,nan,nan,nan,nan,nan,nan,nan,nan,nan,nan,nan,124.28387446794659,553.1584724797867,nan,553.6842818157747,nan,nan,nan,nan
1,317,1,1,1.0,1.0,0.3093385500833392,0.0,7,6,2,8,3,0,nan,nan,nan,nan,nan,nan,nan,nan,nan,nan,nan,nan,0.0,nan,nan,nan,nan,nan,nan,nan,nan,nan,nan,nan,nan,nan,nan,nan,nan,nan,nan,124.28387446794659,554.1669338983484,nan,554.4762724484317,nan,nan,nan,nan
1,318,1,1,1.0,1.0,0.34885824006050825,0.0,8,2,3,4,6,5,nan,nan,nan,nan,nan,nan,nan,nan,nan,nan,nan,nan,0.0,nan,nan,nan,nan,nan,nan,nan,nan,nan,nan,nan,nan,nan,nan,nan,nan,nan,nan,124.28387446794659,555.1753924656659,nan,555.5242507057264,nan,nan,nan,nan
1,319,1,1,1.0,1.0,0.25237087346613407,0.0,4,3,8,1,0,6,nan,nan,nan,nan,nan,nan,nan,nan,nan,nan,nan,nan,0.0,nan,nan,nan,nan,nan,nan,nan,nan,nan,nan,nan,nan,nan,nan,nan,nan,nan,nan,124.28387446794659,556.1838598707691,nan,556.4362307442352,nan,nan,nan,nan
1,320,1,1,1.0,1.0,0.28388387616723776,0.0,7,6,3,0,4,2,nan,nan,nan,nan,nan,nan,nan,nan,nan,nan,nan,nan,0.0,nan,nan,nan,nan,nan,nan,nan,nan,nan,nan,nan,nan,nan,nan,nan,nan,nan,nan,124.28387446794659,557.1923212893307,nan,557.476205165498,nan,nan,nan,nan
1,321,1,1,1.0,1.0,0.37940362095832825,0.0,3,8,1,5,2,7,nan,nan,nan,nan,nan,nan,nan,nan,nan,nan,nan,nan,0.0,nan,nan,nan,nan,nan,nan,nan,nan,nan,nan,nan,nan,nan,nan,nan,nan,nan,nan,124.28387446794659,558.2007878390141,nan,558.5801914599724,nan,nan,nan,nan
1,322,1,1,1.0,1.0,0.3149421480484307,0.0,0,2,4,1,3,6,nan,nan,nan,nan,nan,nan,nan,nan,nan,nan,nan,nan,0.0,nan,nan,nan,nan,nan,nan,nan,nan,nan,nan,nan,nan,nan,nan,nan,nan,nan,nan,124.28387446794659,559.2092355727218,nan,559.5241777207702,nan,nan,nan,nan
1,323,1,1,1.0,1.0,0.23445190535858274,0.0,3,5,2,8,0,1,nan,nan,nan,nan,nan,nan,nan,nan,nan,nan,nan,nan,0.0,nan,nan,nan,nan,nan,nan,nan,nan,nan,nan,nan,nan,nan,nan,nan,nan,nan,nan,124.28387446794659,560.2177083948627,nan,560.4521603002213,nan,nan,nan,nan
1,324,1,1,1.0,1.0,0.2579553695395589,0.0,4,3,6,5,8,7,nan,nan,nan,nan,nan,nan,nan,nan,nan,nan,nan,nan,0.0,nan,nan,nan,nan,nan,nan,nan,nan,nan,nan,nan,nan,nan,nan,nan,nan,nan,nan,124.28387446794659,561.2261760854162,nan,561.4841314549558,nan,nan,nan,nan
1,325,1,1,1.0,1.0,0.2895025839097798,0.0,3,5,8,0,4,2,nan,nan,nan,nan,nan,nan,nan,nan,nan,nan,nan,nan,0.0,nan,nan,nan,nan,nan,nan,nan,nan,nan,nan,nan,nan,nan,nan,nan,nan,nan,nan,124.28387446794659,562.234593313653,nan,562.5240958975628,nan,nan,nan,nan
1,326,1,1,1.0,1.0,0.4730203375220299,0.0,0,4,5,6,1,7,nan,nan,nan,nan,nan,nan,nan,nan,nan,nan,nan,nan,0.0,nan,nan,nan,nan,nan,nan,nan,nan,nan,nan,nan,nan,nan,nan,nan,nan,nan,nan,124.28387446794659,563.2430929350667,nan,563.7161132725887,nan,nan,nan,nan
1,327,1,1,1.0,1.0,0.28852583887055516,0.0,7,6,0,1,3,8,nan,nan,nan,nan,nan,nan,nan,nan,nan,nan,nan,nan,0.0,nan,nan,nan,nan,nan,nan,nan,nan,nan,nan,nan,nan,nan,nan,nan,nan,nan,nan,124.28387446794659,564.2515614805743,nan,564.5400873194449,nan,nan,nan,nan
1,328,1,1,1.0,1.0,0.24004923086613417,0.0,4,8,5,2,1,7,nan,nan,nan,nan,nan,nan,nan,nan,nan,nan,nan,nan,0.0,nan,nan,nan,nan,nan,nan,nan,nan,nan,nan,nan,nan,nan,nan,nan,nan,nan,nan,124.28387446794659,565.2599852657877,nan,565.5000344966538,nan,nan,nan,nan
1,329,1,1,1.0,1.0,0.23156557511538267,0.0,6,0,2,8,7,5,nan,nan,nan,nan,nan,nan,nan,nan,nan,nan,nan,nan,0.0,nan,nan,nan,nan,nan,nan,nan,nan,nan,nan,nan,nan,nan,nan,nan,nan,nan,nan,124.28387446794659,566.2684589433484,nan,566.5000245184638,nan,nan,nan,nan
1,330,1,1,1.0,1.0,0.19109508348628879,0.0,5,4,1,2,8,0,nan,nan,nan,nan,nan,nan,nan,nan,nan,nan,nan,nan,0.0,nan,nan,nan,nan,nan,nan,nan,nan,nan,nan,nan,nan,nan,nan,nan,nan,nan,nan,124.28387446794659,567.2769448803738,nan,567.4680399638601,nan,nan,nan,nan
1,331,1,1,1.0,1.0,0.022628214210271835,0.0,8,3,2,0,1,7,nan,nan,nan,nan,nan,nan,nan,nan,nan,nan,nan,nan,0.0,nan,nan,nan,nan,nan,nan,nan,nan,nan,nan,nan,nan,nan,nan,nan,nan,nan,nan,124.28387446794659,568.2853723717853,nan,568.3080005859956,nan,nan,nan,nan
1,332,1,1,1.0,1.0,0.3981376839801669,0.0,7,5,6,2,0,4,nan,nan,nan,nan,nan,nan,nan,nan,nan,nan,nan,nan,0.0,nan,nan,nan,nan,nan,nan,nan,nan,nan,nan,nan,nan,nan,nan,nan,nan,nan,nan,124.28387446794659,569.2938372110948,nan,569.691974895075,nan,nan,nan,nan
1,333,1,1,1.0,1.0,0.1896470715291798,0.0,1,8,0,5,6,3,nan,nan,nan,nan,nan,nan,nan,nan,nan,nan,nan,nan,0.0,nan,nan,nan,nan,nan,nan,nan,nan,nan,nan,nan,nan,nan,nan,nan,nan,nan,nan,124.28387446794659,570.3023325563408,nan,570.49197962787,nan,nan,nan,nan
1,334,1,1,1.0,1.0,0.22116777207702398,0.0,8,5,3,4,1,0,nan,nan,nan,nan,nan,nan,nan,nan,nan,nan,nan,nan,0.0,nan,nan,nan,nan,nan,nan,nan,nan,nan,nan,nan,nan,nan,nan,nan,nan,nan,nan,124.28387446794659,571.3107914086431,nan,571.5319591807202,nan,nan,nan,nan
1,335,1,1,1.0,1.0,0.22066628513857722,0.0,0,3,7,5,8,6,nan,nan,nan,nan,nan,nan,nan,nan,nan,nan,nan,nan,0.0,nan,nan,nan,nan,nan,nan,nan,nan,nan,nan,nan,nan,nan,nan,nan,nan,nan,nan,124.28387446794659,572.3192827622406,nan,572.5399490473792,nan,nan,nan,nan
1,336,1,1,1.0,1.0,0.09220063593238592,0.0,8,4,0,2,1,5,nan,nan,nan,nan,nan,nan,nan,nan,nan,nan,nan,nan,0.0,nan,nan,nan,nan,nan,nan,nan,nan,nan,nan,nan,nan,nan,nan,nan,nan,nan,nan,124.28387446794659,573.3277216576971,nan,573.4199222936295,nan,nan,nan,nan
1,337,0,0,1.0,0.0,0.08372268220409751,0.0,4,6,8,3,5,0,nan,nan,nan,nan,nan,nan,nan,nan,nan,nan,nan,nan,0.0,nan,nan,nan,nan,nan,nan,nan,nan,nan,nan,nan,nan,nan,nan,nan,nan,nan,nan,124.28387446794659,574.3361819353886,nan,574.4199046175927,nan,nan,nan,nan
1,338,1,1,1.0,1.0,0.25123219285160303,0.0,3,8,6,1,4,5,nan,nan,nan,nan,nan,nan,nan,nan,nan,nan,nan,nan,0.0,nan,nan,nan,nan,nan,nan,nan,nan,nan,nan,nan,nan,nan,nan,nan,nan,nan,nan,124.28387446794659,575.344639077317,nan,575.5958712701686,nan,nan,nan,nan
1,339,1,1,1.0,1.0,0.2107904963195324,0.0,4,7,2,0,1,6,nan,nan,nan,nan,nan,nan,nan,nan,nan,nan,nan,nan,0.0,nan,nan,nan,nan,nan,nan,nan,nan,nan,nan,nan,nan,nan,nan,nan,nan,nan,nan,124.28387446794659,576.3530870960094,nan,576.5638775923289,nan,nan,nan,nan
1,340,1,1,1.0,1.0,0.2103140978142619,0.0,7,2,0,1,4,5,nan,nan,nan,nan,nan,nan,nan,nan,nan,nan,nan,nan,0.0,nan,nan,nan,nan,nan,nan,nan,nan,nan,nan,nan,nan,nan,nan,nan,nan,nan,nan,124.28387446794659,577.3615442379378,nan,577.571858335752,nan,nan,nan,nan
1,341,1,1,1.0,1.0,0.18580737430602312,0.0,1,8,6,4,2,0,nan,nan,nan,nan,nan,nan,nan,nan,nan,nan,nan,nan,0.0,nan,nan,nan,nan,nan,nan,nan,nan,nan,nan,nan,nan,nan,nan,nan,nan,nan,nan,124.28387446794659,578.3700284641236,nan,578.5558358384296,nan,nan,nan,nan
1,342,0,0,1.0,0.0,0.23338478384539485,1.0,5,0,2,1,3,4,1.0,1.0,1.0,1.0,1.0,1.0,0.0,0.0,1.0,1.0,1.0,0.0,3.0,8.0,5.0,2.0,1.0,3.0,7.0,5.0,4.0,2.0,1.0,3.0,6.0,5.373402311466634,4.669974466320127,2.805383387953043,1.7660088129341602,3.740724627394229,6.068824895191938,124.28387446794659,579.3784881718457,580.1868730694987,579.6118729556911,587.3044705046341,588.3137193634175,581.1953835249878,587.2961410866119
1,343,1,1,1.0,1.0,0.4982740180566907,0.0,6,4,5,8,7,2,nan,nan,nan,nan,nan,nan,nan,nan,nan,nan,nan,nan,0.0,nan,nan,nan,nan,nan,nan,nan,nan,nan,nan,nan,nan,nan,nan,nan,nan,nan,nan,124.28387446794659,588.5213592434302,nan,589.0196332614869,nan,nan,nan,nan
1,344,0,0,0.0,1.0,0.489857645239681,1.0,3,2,4,6,5,8,1.0,1.0,1.0,1.0,1.0,1.0,0.0,0.0,0.0,0.0,1.0,1.0,2.0,1.0,3.0,6.0,4.0,5.0,8.0,5.0,4.0,3.0,2.0,1.0,6.0,5.1327560865320265,4.093951136805117,3.3659797902218997,2.5806963685899973,1.6301956227980554,7.132675403729081,124.28387446794659,589.5297801778652,590.3382001430728,590.0196378231049,598.5309085953049,599.5299706235528,591.3549861325882,598.5225786068477
1,345,1,1,1.0,1.0,0.4160406868904829,0.0,0,7,5,2,8,4,nan,nan,nan,nan,nan,nan,nan,nan,nan,nan,nan,nan,0.0,nan,nan,nan,nan,nan,nan,nan,nan,nan,nan,nan,nan,nan,nan,nan,nan,nan,nan,124.28387446794659,599.7394197345711,nan,600.1554604214616,nan,nan,nan,nan
1,346,1,1,1.0,1.0,0.3275466077029705,0.0,3,8,6,7,2,1,nan,nan,nan,nan,nan,nan,nan,nan,nan,nan,nan,nan,0.0,nan,nan,nan,nan,nan,nan,nan,nan,nan,nan,nan,nan,nan,nan,nan,nan,nan,nan,124.28387446794659,600.7478842888959,nan,601.0754308965988,nan,nan,nan,nan
1,347,1,1,1.0,1.0,0.3110536988824606,0.0,1,2,7,0,6,8,nan,nan,nan,nan,nan,nan,nan,nan,nan,nan,nan,nan,0.0,nan,nan,nan,nan,nan,nan,nan,nan,nan,nan,nan,nan,nan,nan,nan,nan,nan,nan,124.28387446794659,601.756360817235,nan,602.0674145161174,nan,nan,nan,nan
1,348,1,1,1.0,1.0,0.29458188684657216,0.0,5,4,6,2,7,0,nan,nan,nan,nan,nan,nan,nan,nan,nan,nan,nan,nan,0.0,nan,nan,nan,nan,nan,nan,nan,nan,nan,nan,nan,nan,nan,nan,nan,nan,nan,nan,124.28387446794659,602.7648190995678,nan,603.0594009864144,nan,nan,nan,nan
1,349,1,1,1.0,1.0,0.3101288415491581,0.0,8,2,7,5,6,1,nan,nan,nan,nan,nan,nan,nan,nan,nan,nan,nan,nan,0.0,nan,nan,nan,nan,nan,nan,nan,nan,nan,nan,nan,nan,nan,nan,nan,nan,nan,nan,124.28387446794659,603.7732611312531,nan,604.0833899728023,nan,nan,nan,nan
1,350,1,1,1.0,1.0,0.3016334963031113,0.0,3,0,2,6,1,4,nan,nan,nan,nan,nan,nan,nan,nan,nan,nan,nan,nan,0.0,nan,nan,nan,nan,nan,nan,nan,nan,nan,nan,nan,nan,nan,nan,nan,nan,nan,nan,124.28387446794659,604.7817111457698,nan,605.0833446420729,nan,nan,nan,nan
1,351,1,1,1.0,1.0,0.253134080208838,0.0,2,6,4,0,3,8,nan,nan,nan,nan,nan,nan,nan,nan,nan,nan,nan,nan,0.0,nan,nan,nan,nan,nan,nan,nan,nan,nan,nan,nan,nan,nan,nan,nan,nan,nan,nan,124.28387446794659,605.7902178945951,nan,606.043351974804,nan,nan,nan,nan
1,352,1,1,1.0,1.0,0.28469098825007677,0.0,0,2,8,6,4,7,nan,nan,nan,nan,nan,nan,nan,nan,nan,nan,nan,nan,0.0,nan,nan,nan,nan,nan,nan,nan,nan,nan,nan,nan,nan,nan,nan,nan,nan,nan,nan,124.28387446794659,606.7986761764623,nan,607.0833671647124,nan,nan,nan,nan
1,353,1,1,1.0,1.0,0.32417988730594516,0.0,2,8,4,5,1,3,nan,nan,nan,nan,nan,nan,nan,nan,nan,nan,nan,nan,0.0,nan,nan,nan,nan,nan,nan,nan,nan,nan,nan,nan,nan,nan,nan,nan,nan,nan,nan,124.28387446794659,607.8071361696348,nan,608.1313160569407,nan,nan,nan,nan
1,354,1,1,1.0,1.0,0.29975014040246606,0.0,8,2,7,4,5,6,nan,nan,nan,nan,nan,nan,nan,nan,nan,nan,nan,nan,0.0,nan,nan,nan,nan,nan,nan,nan,nan,nan,nan,nan,nan,nan,nan,nan,nan,nan,nan,124.28387446794659,608.81556622684,nan,609.1153163672425,nan,nan,nan,nan
1,355,1,1,1.0,1.0,0.291232842952013,0.0,7,3,0,1,6,2,nan,nan,nan,nan,nan,nan,nan,nan,nan,nan,nan,nan,0.0,nan,nan,nan,nan,nan,nan,nan,nan,nan,nan,nan,nan,nan,nan,nan,nan,nan,nan,124.28387446794659,609.8240493126214,nan,610.1152821555734,nan,nan,nan,nan
1,356,1,1,1.0,1.0,0.2587713194079697,0.0,6,4,7,5,8,0,nan,nan,nan,nan,nan,nan,nan,nan,nan,nan,nan,nan,0.0,nan,nan,nan,nan,nan,nan,nan,nan,nan,nan,nan,nan,nan,nan,nan,nan,nan,nan,124.28387446794659,610.8324890634976,nan,611.0912603829056,nan,nan,nan,nan
1,357,1,1,1.0,1.0,0.2902495404705405,0.0,0,3,2,1,6,5,nan,nan,nan,nan,nan,nan,nan,nan,nan,nan,nan,nan,0.0,nan,nan,nan,nan,nan,nan,nan,nan,nan,nan,nan,nan,nan,nan,nan,nan,nan,nan,124.28387446794659,611.8409855486825,nan,612.131235089153,nan,nan,nan,nan
1,358,1,1,1.0,1.0,0.2577461078763008,0.0,5,8,1,7,0,4,nan,nan,nan,nan,nan,nan,nan,nan,nan,nan,nan,nan,0.0,nan,nan,nan,nan,nan,nan,nan,nan,nan,nan,nan,nan,nan,nan,nan,nan,nan,nan,124.28387446794659,612.8494478221983,nan,613.1071939300746,nan,nan,nan,nan
1,359,1,1,1.0,1.0,0.2812852095812559,0.0,4,7,5,0,1,3,nan,nan,nan,nan,nan,nan,nan,nan,nan,nan,nan,nan,0.0,nan,nan,nan,nan,nan,nan,nan,nan,nan,nan,nan,nan,nan,nan,nan,nan,nan,nan,124.28387446794659,613.8579086703248,nan,614.1391938799061,nan,nan,nan,nan
1,360,1,1,1.0,1.0,0.2808182192966342,0.0,7,4,2,8,3,5,nan,nan,nan,nan,nan,nan,nan,nan,nan,nan,nan,nan,0.0,nan,nan,nan,nan,nan,nan,nan,nan,nan,nan,nan,nan,nan,nan,nan,nan,nan,nan,124.28387446794659,614.8663755054586,nan,615.1471937247552,nan,nan,nan,nan
1,361,1,1,1.0,1.0,0.2563465624116361,0.0,8,3,1,5,7,0,nan,nan,nan,nan,nan,nan,nan,nan,nan,nan,nan,nan,0.0,nan,nan,nan,nan,nan,nan,nan,nan,nan,nan,nan,nan,nan,nan,nan,nan,nan,nan,124.28387446794659,615.874833217822,nan,616.1311797802337,nan,nan,nan,nan
1,362,1,1,1.0,1.0,0.2558581898920238,0.0,0,4,5,7,2,8,nan,nan,nan,nan,nan,nan,nan,nan,nan,nan,nan,nan,0.0,nan,nan,nan,nan,nan,nan,nan,nan,nan,nan,nan,nan,nan,nan,nan,nan,nan,nan,124.28387446794659,616.8832920701243,nan,617.1391502600163,nan,nan,nan,nan
1,363,1,1,1.0,1.0,0.2633782150223851,0.0,5,2,7,3,8,1,nan,nan,nan,nan,nan,nan,nan,nan,nan,nan,nan,nan,0.0,nan,nan,nan,nan,nan,nan,nan,nan,nan,nan,nan,nan,nan,nan,nan,nan,nan,nan,124.28387446794659,617.8917574798688,nan,618.1551356948912,nan,nan,nan,nan
1,364,1,1,1.0,1.0,0.23888631677255034,0.0,2,3,4,8,7,6,nan,nan,nan,nan,nan,nan,nan,nan,nan,nan,nan,nan,0.0,nan,nan,nan,nan,nan,nan,nan,nan,nan,nan,nan,nan,nan,nan,nan,nan,nan,nan,124.28387446794659,618.900224884972,nan,619.1391112017445,nan,nan,nan,nan
1,365,1,1,1.0,1.0,0.25442728446796536,0.0,1,2,0,6,5,3,nan,nan,nan,nan,nan,nan,nan,nan,nan,nan,nan,nan,0.0,nan,nan,nan,nan,nan,nan,nan,nan,nan,nan,nan,nan,nan,nan,nan,nan,nan,nan,124.28387446794659,619.9086674866267,nan,620.1630947710946,nan,nan,nan,nan
1,366,1,1,1.0,1.0,0.26191680366173387,0.0,0,6,5,7,1,8,nan,nan,nan,nan,nan,nan,nan,nan,nan,nan,nan,nan,0.0,nan,nan,nan,nan,nan,nan,nan,nan,nan,nan,nan,nan,nan,nan,nan,nan,nan,nan,124.28387446794659,620.9171414496377,nan,621.1790582532994,nan,nan,nan,nan
1,367,1,1,1.0,1.0,0.27746432833373547,0.0,8,3,0,1,4,6,nan,nan,nan,nan,nan,nan,nan,nan,nan,nan,nan,nan,0.0,nan,nan,nan,nan,nan,nan,nan,nan,nan,nan,nan,nan,nan,nan,nan,nan,nan,nan,124.28387446794659,621.9256097101606,nan,622.2030740384944,nan,nan,nan,nan
1,368,1,1,1.0,1.0,0.27701102290302515,0.0,2,0,7,3,6,4,nan,nan,nan,nan,nan,nan,nan,nan,nan,nan,nan,nan,0.0,nan,nan,nan,nan,nan,nan,nan,nan,nan,nan,nan,nan,nan,nan,nan,nan,nan,nan,124.28387446794659,622.9340400528163,nan,623.2110510757193,nan,nan,nan,nan
1,369,1,1,1.0,1.0,0.15650958148762584,0.0,3,7,5,1,2,0,nan,nan,nan,nan,nan,nan,nan,nan,nan,nan,nan,nan,0.0,nan,nan,nan,nan,nan,nan,nan,nan,nan,nan,nan,nan,nan,nan,nan,nan,nan,nan,124.28387446794659,623.9425285551697,nan,624.0990381366573,nan,nan,nan,nan
1,370,1,1,1.0,1.0,0.15601351112127304,0.0,2,0,6,5,1,3,nan,nan,nan,nan,nan,nan,nan,nan,nan,nan,nan,nan,0.0,nan,nan,nan,nan,nan,nan,nan,nan,nan,nan,nan,nan,nan,nan,nan,nan,nan,nan,124.28387446794659,624.9509962457232,nan,625.1070097568445,nan,nan,nan,nan
1,371,1,1,1.0,1.0,0.155533691868186,0.0,0,4,1,8,3,7,nan,nan,nan,nan,nan,nan,nan,nan,nan,nan,nan,nan,0.0,nan,nan,nan,nan,nan,nan,nan,nan,nan,nan,nan,nan,nan,nan,nan,nan,nan,nan,124.28387446794659,625.9594525322318,nan,626.1149862241,nan,nan,nan,nan
1,372,1,1,1.0,1.0,0.21906232461333275,0.0,8,2,7,6,4,3,nan,nan,nan,nan,nan,nan,nan,nan,nan,nan,nan,nan,0.0,nan,nan,nan,nan,nan,nan,nan,nan,nan,nan,nan,nan,nan,nan,nan,nan,nan,nan,124.28387446794659,626.9679150907323,nan,627.1869774153456,nan,nan,nan,nan
1,373,1,1,1.0,1.0,0.1705968352034688,0.0,4,8,2,7,0,1,nan,nan,nan,nan,nan,nan,nan,nan,nan,nan,nan,nan,0.0,nan,nan,nan,nan,nan,nan,nan,nan,nan,nan,nan,nan,nan,nan,nan,nan,nan,nan,124.28387446794659,627.976369666867,nan,628.1469665020704,nan,nan,nan,nan
1,374,1,1,1.0,1.0,0.242094237357378,0.0,5,1,8,0,3,6,nan,nan,nan,nan,nan,nan,nan,nan,nan,nan,nan,nan,0.0,nan,nan,nan,nan,nan,nan,nan,nan,nan,nan,nan,nan,nan,nan,nan,nan,nan,nan,124.28387446794659,628.9848424890079,nan,629.2269367263652,nan,nan,nan,nan
1,375,1,1,1.0,1.0,0.2256150129251182,0.0,8,4,3,6,0,1,nan,nan,nan,nan,nan,nan,nan,nan,nan,nan,nan,nan,0.0,nan,nan,nan,nan,nan,nan,nan,nan,nan,nan,nan,nan,nan,nan,nan,nan,nan,nan,124.28387446794659,629.9933064733632,nan,630.2189214862883,nan,nan,nan,nan
1,376,0,0,0.0,1.0,0.38513693818822503,1.0,4,1,2,5,8,3,1.0,1.0,1.0,1.0,1.0,1.0,1.0,1.0,1.0,1.0,0.0,0.0,4.0,4.0,1.0,2.0,5.0,3.0,6.0,4.0,3.0,2.0,1.0,6.0,5.0,3.7003008918836713,2.869575443677604,1.9956542537547648,1.2224661074578762,5.172033443115652,4.355934652965516,124.28387446794659,631.0017704572529,631.8101470875554,631.3869073954411,638.044299069792,639.0440738424659,632.8353112470359,638.0359702217393
1,377,1,1,1.0,1.0,0.42193422885611653,0.0,5,6,8,0,7,2,nan,nan,nan,nan,nan,nan,nan,nan,nan,nan,nan,nan,0.0,nan,nan,nan,nan,nan,nan,nan,nan,nan,nan,nan,nan,nan,nan,nan,nan,nan,nan,124.28387446794659,639.252789682243,nan,639.6747239110991,nan,nan,nan,nan
1,378,1,1,1.0,1.0,0.25344483694061637,0.0,2,0,4,6,3,5,nan,nan,nan,nan,nan,nan,nan,nan,nan,nan,nan,nan,0.0,nan,nan,nan,nan,nan,nan,nan,nan,nan,nan,nan,nan,nan,nan,nan,nan,nan,nan,124.28387446794659,640.2612884482369,nan,640.5147332851775,nan,nan,nan,nan
1,379,1,1,1.0,1.0,0.22896519768983126,0.0,1,3,6,4,8,2,nan,nan,nan,nan,nan,nan,nan,nan,nan,nan,nan,nan,0.0,nan,nan,nan,nan,nan,nan,nan,nan,nan,nan,nan,nan,nan,nan,nan,nan,nan,nan,124.28387446794659,641.2697475855239,nan,641.4987127832137,nan,nan,nan,nan
1,380,1,1,1.0,1.0,0.23652513651177287,0.0,2,5,8,6,4,7,nan,nan,nan,nan,nan,nan,nan,nan,nan,nan,nan,nan,0.0,nan,nan,nan,nan,nan,nan,nan,nan,nan,nan,nan,nan,nan,nan,nan,nan,nan,nan,124.28387446794659,642.2781861959957,nan,642.5147113325074,nan,nan,nan,nan
