block,trial,freq_trials,correct_response,actual_response,acc,rts,probe_trials,fast_rt_trigger,slow_rt_trigger,rt_triggered,rts_runningavg,rts_runningstd,rts_runningfastthresh,rts_runningslowthresh,rts_runningstd,rts_trailingavg,trials_colorind0,trials_colorind1,trials_colorind2,trials_colorind3,trials_colorind4,trials_colorind5,wholereport_resp0,wholereport_resp1,wholereport_resp2,wholereport_resp3,wholereport_resp4,wholereport_resp5,wholereport_respacc0,wholereport_respacc1,wholereport_respacc2,wholereport_respacc3,wholereport_respacc4,wholereport_respacc5,wholereport_respacc_total,wholereport_respcolorind0,wholereport_respcolorind1,wholereport_respcolorind2,wholereport_respcolorind3,wholereport_respcolorind4,wholereport_respcolorind5,wholereport_resporder0,wholereport_resporder1,wholereport_resporder2,wholereport_resporder3,wholereport_resporder4,wholereport_resporder5,wholereport_rts0,wholereport_rts1,wholereport_rts2,wholereport_rts3,wholereport_rts4,wholereport_rts5,time_blockstart,time_encarray_offset,time_encarray_onset,time_response,time_iti_offset,time_iti_onset,time_memprobe_offset,time_memprobe_onset
1,1,1,1,nan,nan,nan,0,nan,nan,nan,nan,nan,nan,nan,nan,nan,1,8,6,0,7,2,nan,nan,nan,nan,nan,nan,nan,nan,nan,nan,nan,nan,0.0,nan,nan,nan,nan,nan,nan,nan,nan,nan,nan,nan,nan,nan,nan,nan,nan,nan,nan,519.2506632820005,520.2651705260505,nan,nan,nan,nan,nan,nan
1,2,1,1,1.0,1.0,0.5602139722323045,0,nan,nan,nan,nan,nan,nan,nan,nan,nan,2,5,0,4,3,7,nan,nan,nan,nan,nan,nan,nan,nan,nan,nan,nan,nan,0.0,nan,nan,nan,nan,nan,nan,nan,nan,nan,nan,nan,nan,nan,nan,nan,nan,nan,nan,519.2506632820005,521.2903629819048,nan,521.8505769541371,nan,nan,nan,nan
1,3,1,1,1.0,1.0,0.5191560623934492,0,nan,nan,nan,nan,nan,nan,nan,nan,nan,3,2,6,7,5,1,nan,nan,nan,nan,nan,nan,nan,nan,nan,nan,nan,nan,0.0,nan,nan,nan,nan,nan,nan,nan,nan,nan,nan,nan,nan,nan,nan,nan,nan,nan,nan,519.2506632820005,522.3154490959714,nan,522.8346051583649,nan,nan,nan,nan
1,4,1,1,1.0,1.0,0.4060066861566156,0,nan,nan,nan,nan,nan,nan,nan,nan,nan,0,6,1,2,3,5,nan,nan,nan,nan,nan,nan,nan,nan,nan,nan,nan,nan,0.0,nan,nan,nan,nan,nan,nan,nan,nan,nan,nan,nan,nan,nan,nan,nan,nan,nan,nan,519.2506632820005,523.3405799704487,nan,523.7465866566054,nan,nan,nan,nan
1,5,1,1,1.0,1.0,0.39682479947805405,0,nan,nan,nan,nan,nan,nan,nan,nan,nan,4,2,5,3,1,6,nan,nan,nan,nan,nan,nan,nan,nan,nan,nan,nan,nan,0.0,nan,nan,nan,nan,nan,nan,nan,nan,nan,nan,nan,nan,nan,nan,nan,nan,nan,nan,519.2506632820005,524.3657390697626,nan,524.7625638692407,nan,nan,nan,nan
1,6,1,1,1.0,1.0,0.36366440693382174,0,nan,nan,nan,nan,nan,nan,nan,nan,nan,6,5,8,7,4,0,nan,nan,nan,nan,nan,nan,nan,nan,nan,nan,nan,nan,0.0,nan,nan,nan,nan,nan,nan,nan,nan,nan,nan,nan,nan,nan,nan,nan,nan,nan,nan,519.2506632820005,525.3908981690765,nan,525.7545625760104,nan,nan,nan,nan
1,7,0,0,0.0,1.0,0.5225122435367666,0,nan,nan,nan,nan,nan,nan,nan,nan,nan,1,2,4,8,5,6,nan,nan,nan,nan,nan,nan,nan,nan,nan,nan,nan,nan,0.0,nan,nan,nan,nan,nan,nan,nan,nan,nan,nan,nan,nan,nan,nan,nan,nan,nan,nan,519.2506632820005,526.4160293287132,nan,526.93854157225,nan,nan,nan,nan
1,8,1,1,1.0,1.0,0.42535946663701907,0,nan,nan,nan,nan,nan,nan,nan,nan,nan,5,6,2,3,4,0,nan,nan,nan,nan,nan,nan,nan,nan,nan,nan,nan,nan,0.0,nan,nan,nan,nan,nan,nan,nan,nan,nan,nan,nan,nan,nan,nan,nan,nan,nan,nan,519.2506632820005,527.4411633393029,nan,527.8665228059399,nan,nan,nan,nan
1,9,1,1,1.0,1.0,0.4242182167363353,0,nan,nan,nan,nan,nan,nan,nan,nan,nan,7,4,1,2,8,6,nan,nan,nan,nan,nan,nan,nan,nan,nan,nan,nan,nan,0.0,nan,nan,nan,nan,nan,nan,nan,nan,nan,nan,nan,nan,nan,nan,nan,nan,nan,nan,519.2506632820005,528.466295639344,nan,528.8905138560804,nan,nan,nan,nan
1,10,1,1,nan,nan,nan,0,nan,nan,nan,nan,nan,nan,nan,nan,nan,5,7,2,8,3,1,nan,nan,nan,nan,nan,nan,nan,nan,nan,nan,nan,nan,0.0,nan,nan,nan,nan,nan,nan,nan,nan,nan,nan,nan,nan,nan,nan,nan,nan,nan,nan,519.2506632820005,529.4914065569756,nan,nan,nan,nan,nan,nan
1,11,1,1,1.0,1.0,0.6138829350820743,0,nan,nan,nan,nan,nan,nan,nan,nan,nan,3,1,6,4,7,5,nan,nan,nan,nan,nan,nan,nan,nan,nan,nan,nan,nan,0.0,nan,nan,nan,nan,nan,nan,nan,nan,nan,nan,nan,nan,nan,nan,nan,nan,nan,nan,519.2506632820005,530.5165790558676,nan,531.1304619909497,nan,nan,nan,nan
1,12,1,1,1.0,1.0,0.4047000791179016,0,nan,nan,nan,nan,nan,nan,nan,nan,nan,2,7,5,0,3,8,nan,nan,nan,nan,nan,nan,nan,nan,nan,nan,nan,nan,0.0,nan,nan,nan,nan,nan,nan,nan,nan,nan,nan,nan,nan,nan,nan,nan,nan,nan,nan,519.2506632820005,531.5417566865799,nan,531.9464567656978,nan,nan,nan,nan
1,13,1,1,1.0,1.0,0.36357916245469823,0,nan,nan,nan,nan,nan,nan,nan,nan,nan,4,5,3,6,1,2,nan,nan,nan,nan,nan,nan,nan,nan,nan,nan,nan,nan,0.0,nan,nan,nan,nan,nan,nan,nan,nan,nan,nan,nan,nan,nan,nan,nan,nan,nan,nan,519.2506632820005,532.5668687446159,nan,532.9304479070706,nan,nan,nan,nan
1,14,1,1,1.0,1.0,0.4024563528364524,0,nan,nan,nan,nan,nan,nan,nan,nan,nan,6,0,1,7,3,4,nan,nan,nan,nan,nan,nan,nan,nan,nan,nan,nan,nan,0.0,nan,nan,nan,nan,nan,nan,nan,nan,nan,nan,nan,nan,nan,nan,nan,nan,nan,nan,519.2506632820005,533.5919973383425,nan,533.9944536911789,nan,nan,nan,nan
1,15,1,1,1.0,1.0,0.40128402720438316,0,nan,nan,nan,nan,nan,nan,nan,nan,nan,5,1,3,2,8,0,nan,nan,nan,nan,nan,nan,nan,nan,nan,nan,nan,nan,0.0,nan,nan,nan,nan,nan,nan,nan,nan,nan,nan,nan,nan,nan,nan,nan,nan,nan,nan,519.2506632820005,534.6171552972519,nan,535.0184393244563,nan,nan,nan,nan
1,16,1,1,1.0,1.0,0.4401344183133915,0,nan,nan,nan,nan,nan,nan,nan,nan,nan,4,7,5,3,0,8,nan,nan,nan,nan,nan,nan,nan,nan,nan,nan,nan,nan,0.0,nan,nan,nan,nan,nan,nan,nan,nan,nan,nan,nan,nan,nan,nan,nan,nan,nan,nan,519.2506632820005,535.6422756231041,nan,536.0824100414175,nan,nan,nan,nan
1,17,1,1,1.0,1.0,0.4149687617318705,0,nan,nan,nan,nan,nan,nan,nan,nan,nan,2,5,1,7,8,3,nan,nan,nan,nan,nan,nan,nan,nan,nan,nan,nan,nan,0.0,nan,nan,nan,nan,nan,nan,nan,nan,nan,nan,nan,nan,nan,nan,nan,nan,nan,nan,519.2506632820005,536.6674395690789,nan,537.0824083308107,nan,nan,nan,nan
1,18,1,1,1.0,1.0,0.437824264052324,0,nan,nan,nan,nan,nan,nan,nan,nan,nan,7,4,3,6,5,8,nan,nan,nan,nan,nan,nan,nan,nan,nan,nan,nan,nan,0.0,nan,nan,nan,nan,nan,nan,nan,nan,nan,nan,nan,nan,nan,nan,nan,nan,nan,nan,519.2506632820005,537.6925459251506,nan,538.130370189203,nan,nan,nan,nan
1,19,1,1,1.0,1.0,0.38866698706988245,0,nan,nan,nan,nan,nan,nan,nan,nan,nan,5,0,8,3,6,1,nan,nan,nan,nan,nan,nan,nan,nan,nan,nan,nan,nan,0.0,nan,nan,nan,nan,nan,nan,nan,nan,nan,nan,nan,nan,nan,nan,nan,nan,nan,nan,519.2506632820005,538.7176901993225,nan,539.1063571863924,nan,nan,nan,nan
1,20,0,0,0.0,1.0,0.7395045213634148,0,nan,nan,nan,nan,nan,nan,nan,nan,nan,0,7,1,5,4,2,nan,nan,nan,nan,nan,nan,nan,nan,nan,nan,nan,nan,0.0,nan,nan,nan,nan,nan,nan,nan,nan,nan,nan,nan,nan,nan,nan,nan,nan,nan,nan,519.2506632820005,539.7428253503167,nan,540.4823298716801,nan,nan,nan,nan
1,21,1,1,1.0,1.0,0.5863458280218765,1,nan,nan,nan,nan,nan,nan,nan,nan,nan,4,2,7,6,5,8,1.0,1.0,1.0,1.0,1.0,1.0,0.0,0.0,0.0,1.0,0.0,0.0,1.0,3.0,8.0,4.0,6.0,2.0,4.0,5.0,6.0,1.0,2.0,3.0,4.0,10.027607526397333,11.691810940799769,4.022910241270438,5.380215238081291,6.501354788721073,8.549222849600483,519.2506632820005,540.7679710499942,541.5764050088474,541.3543168780161,554.3197575065424,555.3192423332948,542.5848333798349,554.3114152353373
1,22,1,1,1.0,1.0,0.5611029097926803,0,nan,nan,nan,nan,nan,nan,nan,nan,nan,3,6,1,0,2,5,nan,nan,nan,nan,nan,nan,nan,nan,nan,nan,nan,nan,0.0,nan,nan,nan,nan,nan,nan,nan,nan,nan,nan,nan,nan,nan,nan,nan,nan,nan,nan,519.2506632820005,555.544990275288,nan,556.1060931850807,nan,nan,nan,nan
1,23,1,1,1.0,1.0,0.6319596140529029,0,nan,nan,nan,nan,nan,nan,nan,nan,nan,2,7,5,6,4,8,nan,nan,nan,nan,nan,nan,nan,nan,nan,nan,nan,nan,0.0,nan,nan,nan,nan,nan,nan,nan,nan,nan,nan,nan,nan,nan,nan,nan,nan,nan,nan,519.2506632820005,556.570124571037,nan,557.2020841850899,nan,nan,nan,nan
1,24,1,1,1.0,1.0,0.38279110426083207,0,nan,nan,nan,nan,nan,nan,nan,nan,nan,1,6,4,8,0,5,nan,nan,nan,nan,nan,nan,nan,nan,nan,nan,nan,nan,0.0,nan,nan,nan,nan,nan,nan,nan,nan,nan,nan,nan,nan,nan,nan,nan,nan,nan,nan,519.2506632820005,557.5952722663642,nan,557.978063370625,nan,nan,nan,nan
1,25,1,1,1.0,1.0,0.5016544273821637,0,nan,nan,nan,nan,nan,nan,nan,nan,nan,2,8,5,6,7,3,nan,nan,nan,nan,nan,nan,nan,nan,nan,nan,nan,nan,0.0,nan,nan,nan,nan,nan,nan,nan,nan,nan,nan,nan,nan,nan,nan,nan,nan,nan,nan,519.2506632820005,558.6204011451919,nan,559.122055572574,nan,nan,nan,nan
1,26,1,1,1.0,1.0,0.4924899317556992,0,nan,nan,nan,nan,nan,nan,nan,nan,nan,6,1,3,0,5,4,nan,nan,nan,nan,nan,nan,nan,nan,nan,nan,nan,nan,0.0,nan,nan,nan,nan,nan,nan,nan,nan,nan,nan,nan,nan,nan,nan,nan,nan,nan,nan,519.2506632820005,559.6455414280063,nan,560.138031359762,nan,nan,nan,nan
1,27,0,0,0.0,1.0,0.7633404778898694,0,nan,nan,nan,nan,nan,nan,nan,nan,nan,3,5,4,2,7,0,nan,nan,nan,nan,nan,nan,nan,nan,nan,nan,nan,nan,0.0,nan,nan,nan,nan,nan,nan,nan,nan,nan,nan,nan,nan,nan,nan,nan,nan,nan,nan,519.2506632820005,560.6706842766725,nan,561.4340247545624,nan,nan,nan,nan
1,28,1,1,1.0,1.0,0.5541379501228221,0,nan,nan,nan,nan,nan,nan,nan,nan,nan,7,0,1,3,4,5,nan,nan,nan,nan,nan,nan,nan,nan,nan,nan,nan,nan,0.0,nan,nan,nan,nan,nan,nan,nan,nan,nan,nan,nan,nan,nan,nan,nan,nan,nan,nan,519.2506632820005,561.6958536395105,nan,562.2499915896333,nan,nan,nan,nan
1,29,1,1,1.0,1.0,0.4570102618308738,0,nan,nan,nan,nan,nan,nan,nan,nan,nan,6,7,3,2,1,8,nan,nan,nan,nan,nan,nan,nan,nan,nan,nan,nan,nan,0.0,nan,nan,nan,nan,nan,nan,nan,nan,nan,nan,nan,nan,nan,nan,nan,nan,nan,nan,519.2506632820005,562.7209731101175,nan,563.1779833719484,nan,nan,nan,nan
1,30,1,1,1.0,1.0,0.4078983155777678,0,nan,nan,nan,nan,nan,nan,nan,nan,nan,4,2,8,0,6,7,nan,nan,nan,nan,nan,nan,nan,nan,nan,nan,nan,nan,0.0,nan,nan,nan,nan,nan,nan,nan,nan,nan,nan,nan,nan,nan,nan,nan,nan,nan,nan,519.2506632820005,563.7460606496315,nan,564.1539589652093,nan,nan,nan,nan
1,31,1,1,1.0,1.0,0.6387175921117887,0,nan,nan,nan,nan,nan,nan,nan,nan,nan,7,6,2,4,8,5,nan,nan,nan,nan,nan,nan,nan,nan,nan,nan,nan,nan,0.0,nan,nan,nan,nan,nan,nan,nan,nan,nan,nan,nan,nan,nan,nan,nan,nan,nan,nan,519.2506632820005,564.7712419866002,nan,565.409959578712,nan,nan,nan,nan
1,32,0,0,0.0,1.0,0.7415495339082554,0,nan,nan,nan,nan,nan,nan,nan,nan,nan,4,8,3,0,6,1,nan,nan,nan,nan,nan,nan,nan,nan,nan,nan,nan,nan,0.0,nan,nan,nan,nan,nan,nan,nan,nan,nan,nan,nan,nan,nan,nan,nan,nan,nan,nan,519.2506632820005,565.7963851203676,nan,566.5379346542759,nan,nan,nan,nan
1,33,1,1,nan,nan,nan,0,nan,nan,nan,nan,nan,nan,nan,nan,nan,0,5,8,1,3,7,nan,nan,nan,nan,nan,nan,nan,nan,nan,nan,nan,nan,0.0,nan,nan,nan,nan,nan,nan,nan,nan,nan,nan,nan,nan,nan,nan,nan,nan,nan,nan,519.2506632820005,566.8215165651054,nan,nan,nan,nan,nan,nan
1,34,1,1,1.0,1.0,0.7792187613085844,0,nan,nan,nan,nan,nan,nan,nan,nan,nan,1,8,5,7,2,0,nan,nan,nan,nan,nan,nan,nan,nan,nan,nan,nan,nan,0.0,nan,nan,nan,nan,nan,nan,nan,nan,nan,nan,nan,nan,nan,nan,nan,nan,nan,nan,519.2506632820005,567.8466788004735,nan,568.625897561782,nan,nan,nan,nan
1,35,1,1,nan,nan,nan,0,nan,nan,nan,nan,nan,nan,nan,nan,nan,8,2,1,6,7,3,nan,nan,nan,nan,nan,nan,nan,nan,nan,nan,nan,nan,0.0,nan,nan,nan,nan,nan,nan,nan,nan,nan,nan,nan,nan,nan,nan,nan,nan,nan,nan,519.2506632820005,568.8717928542173,nan,nan,nan,nan,nan,nan
1,36,1,1,nan,nan,nan,0,nan,nan,nan,nan,nan,nan,nan,nan,nan,0,4,8,3,6,5,nan,nan,nan,nan,nan,nan,nan,nan,nan,nan,nan,nan,0.0,nan,nan,nan,nan,nan,nan,nan,nan,nan,nan,nan,nan,nan,nan,nan,nan,nan,nan,519.2506632820005,569.8969376985333,nan,nan,nan,nan,nan,nan
1,37,1,1,1.0,1.0,0.7998120060074143,0,nan,nan,nan,nan,nan,nan,nan,nan,nan,4,0,7,6,5,1,nan,nan,nan,nan,nan,nan,nan,nan,nan,nan,nan,nan,0.0,nan,nan,nan,nan,nan,nan,nan,nan,nan,nan,nan,nan,nan,nan,nan,nan,nan,nan,519.2506632820005,570.922081402503,nan,571.7218934085104,nan,nan,nan,nan
1,38,1,1,1.0,1.0,0.7310191306751221,0,nan,nan,nan,nan,nan,nan,nan,nan,nan,8,7,3,4,1,0,nan,nan,nan,nan,nan,nan,nan,nan,nan,nan,nan,nan,0.0,nan,nan,nan,nan,nan,nan,nan,nan,nan,nan,nan,nan,nan,nan,nan,nan,nan,nan,519.2506632820005,571.9588271954563,nan,572.6898463261314,nan,nan,nan,nan
1,39,1,1,nan,nan,nan,0,nan,nan,nan,nan,nan,nan,nan,nan,nan,2,4,7,1,0,8,nan,nan,nan,nan,nan,nan,nan,nan,nan,nan,nan,nan,0.0,nan,nan,nan,nan,nan,nan,nan,nan,nan,nan,nan,nan,nan,nan,nan,nan,nan,nan,519.2506632820005,572.9890490763355,nan,nan,nan,nan,nan,nan
1,40,1,1,1.0,1.0,0.5316587779670954,0,nan,nan,nan,nan,nan,nan,nan,nan,nan,1,3,5,0,8,6,nan,nan,nan,nan,nan,nan,nan,nan,nan,nan,nan,nan,0.0,nan,nan,nan,nan,nan,nan,nan,nan,nan,nan,nan,nan,nan,nan,nan,nan,nan,nan,519.2506632820005,574.0141551473062,nan,574.5458139252733,nan,nan,nan,nan
1,41,1,1,1.0,1.0,0.4105029766797088,0,nan,nan,nan,nan,nan,nan,nan,nan,nan,4,2,8,6,1,3,nan,nan,nan,nan,nan,nan,nan,nan,nan,nan,nan,nan,0.0,nan,nan,nan,nan,nan,nan,nan,nan,nan,nan,nan,nan,nan,nan,nan,nan,nan,nan,519.2506632820005,575.039304268139,nan,575.4498072448187,nan,nan,nan,nan
1,42,1,1,1.0,1.0,0.36935839691432193,0,nan,nan,nan,nan,nan,nan,nan,nan,nan,5,4,2,1,6,8,nan,nan,nan,nan,nan,nan,nan,nan,nan,nan,nan,nan,0.0,nan,nan,nan,nan,nan,nan,nan,nan,nan,nan,nan,nan,nan,nan,nan,nan,nan,nan,519.2506632820005,576.0644459764007,nan,576.4338043733151,nan,nan,nan,nan
1,43,1,1,1.0,1.0,0.3441753493389115,0,nan,nan,nan,nan,nan,nan,nan,nan,nan,0,6,3,5,4,7,nan,nan,nan,nan,nan,nan,nan,nan,nan,nan,nan,nan,0.0,nan,nan,nan,nan,nan,nan,nan,nan,nan,nan,nan,nan,nan,nan,nan,nan,nan,nan,519.2506632820005,577.0896056459169,nan,577.4337809952558,nan,nan,nan,nan
1,44,0,0,0.0,1.0,0.43104661419056356,0,nan,nan,nan,nan,nan,nan,nan,nan,nan,7,5,2,8,6,0,nan,nan,nan,nan,nan,nan,nan,nan,nan,nan,nan,nan,0.0,nan,nan,nan,nan,nan,nan,nan,nan,nan,nan,nan,nan,nan,nan,nan,nan,nan,nan,519.2506632820005,578.1147219804116,nan,578.5457685946021,nan,nan,nan,nan
1,45,1,1,1.0,1.0,0.49388121312949806,1,nan,nan,nan,nan,nan,nan,nan,nan,nan,6,7,8,5,4,2,1.0,1.0,1.0,1.0,1.0,1.0,0.0,1.0,1.0,0.0,0.0,0.0,2.0,1.0,7.0,8.0,2.0,3.0,4.0,6.0,1.0,2.0,3.0,4.0,5.0,8.31885630969191,3.2178954702685587,4.248856897000223,5.143982223526109,6.263811460812576,7.031191501300782,519.2506632820005,579.139873096894,579.9482822522405,579.6337543100235,589.3245765287429,590.3246868619462,580.9650891019264,589.3162177218474
1,46,1,1,1.0,1.0,0.6998267740709707,0,nan,nan,nan,nan,nan,nan,nan,nan,nan,8,0,5,7,3,6,nan,nan,nan,nan,nan,nan,nan,nan,nan,nan,nan,nan,0.0,nan,nan,nan,nan,nan,nan,nan,nan,nan,nan,nan,nan,nan,nan,nan,nan,nan,nan,519.2506632820005,590.549749997037,nan,591.249576771108,nan,nan,nan,nan
1,47,1,1,1.0,1.0,0.3466685369494371,0,nan,nan,nan,nan,nan,nan,nan,nan,nan,1,3,6,8,2,4,nan,nan,nan,nan,nan,nan,nan,nan,nan,nan,nan,nan,0.0,nan,nan,nan,nan,nan,nan,nan,nan,nan,nan,nan,nan,nan,nan,nan,nan,nan,nan,519.2506632820005,591.5748899946921,nan,591.9215585316415,nan,nan,nan,nan
1,48,1,1,1.0,1.0,0.3291714634397067,0,nan,nan,nan,nan,nan,nan,nan,nan,nan,2,4,7,6,8,5,nan,nan,nan,nan,nan,nan,nan,nan,nan,nan,nan,nan,0.0,nan,nan,nan,nan,nan,nan,nan,nan,nan,nan,nan,nan,nan,nan,nan,nan,nan,nan,519.2506632820005,592.6083614298259,nan,592.9375328932656,nan,nan,nan,nan
1,49,1,1,1.0,1.0,0.32805843837559223,0,nan,nan,nan,nan,nan,nan,nan,nan,nan,3,0,2,4,6,1,nan,nan,nan,nan,nan,nan,nan,nan,nan,nan,nan,nan,0.0,nan,nan,nan,nan,nan,nan,nan,nan,nan,nan,nan,nan,nan,nan,nan,nan,nan,nan,519.2506632820005,593.6334840364871,nan,593.9615424748627,nan,nan,nan,nan
1,50,1,1,1.0,1.0,0.3508520743343979,1,nan,nan,nan,nan,nan,nan,nan,nan,nan,7,5,8,0,2,6,1.0,1.0,1.0,1.0,1.0,1.0,0.0,0.0,0.0,0.0,0.0,1.0,1.0,5.0,7.0,7.0,1.0,4.0,6.0,5.0,6.0,1.0,2.0,3.0,4.0,8.41637942980742,9.296407358080614,3.3040445803198963,4.74637910479214,5.729310819646344,6.905390302883461,519.2506632820005,594.6586519738194,595.4670645503211,595.0095040481538,605.8101015008288,606.8093665165361,596.4755584939849,605.8018473251141
1,51,1,1,1.0,1.0,0.7340004071011208,0,nan,nan,nan,nan,nan,nan,nan,nan,nan,8,2,0,4,1,3,nan,nan,nan,nan,nan,nan,nan,nan,nan,nan,nan,nan,0.0,nan,nan,nan,nan,nan,nan,nan,nan,nan,nan,nan,nan,nan,nan,nan,nan,nan,nan,519.2506632820005,607.0353456735611,nan,607.7693460806622,nan,nan,nan,nan
1,52,1,1,1.0,1.0,0.3407989262486808,0,nan,nan,nan,nan,nan,nan,nan,nan,nan,6,7,4,2,0,5,nan,nan,nan,nan,nan,nan,nan,nan,nan,nan,nan,nan,0.0,nan,nan,nan,nan,nan,nan,nan,nan,nan,nan,nan,nan,nan,nan,nan,nan,nan,nan,519.2506632820005,608.0605138959945,nan,608.4013128222432,nan,nan,nan,nan
1,53,1,1,1.0,1.0,0.28369423968251795,0,nan,nan,nan,nan,nan,nan,nan,nan,nan,2,1,5,8,6,7,nan,nan,nan,nan,nan,nan,nan,nan,nan,nan,nan,nan,0.0,nan,nan,nan,nan,nan,nan,nan,nan,nan,nan,nan,nan,nan,nan,nan,nan,nan,nan,519.2506632820005,609.0856142650009,nan,609.3693085046834,nan,nan,nan,nan
1,54,1,1,1.0,1.0,0.2745343056740239,0,nan,nan,nan,nan,nan,nan,nan,nan,nan,4,7,3,0,8,2,nan,nan,nan,nan,nan,nan,nan,nan,nan,nan,nan,nan,0.0,nan,nan,nan,nan,nan,nan,nan,nan,nan,nan,nan,nan,nan,nan,nan,nan,nan,nan,519.2506632820005,610.1107474202872,nan,610.3852817259612,nan,nan,nan,nan
1,55,1,1,1.0,1.0,0.3053779866313562,0,nan,nan,nan,nan,nan,nan,nan,nan,nan,8,0,7,2,3,1,nan,nan,nan,nan,nan,nan,nan,nan,nan,nan,nan,nan,0.0,nan,nan,nan,nan,nan,nan,nan,nan,nan,nan,nan,nan,nan,nan,nan,nan,nan,nan,519.2506632820005,611.1358871328994,nan,611.4412651195307,nan,nan,nan,nan
1,56,1,1,1.0,1.0,0.34423151379451156,0,nan,nan,nan,nan,nan,nan,nan,nan,nan,6,8,0,1,5,7,nan,nan,nan,nan,nan,nan,nan,nan,nan,nan,nan,nan,0.0,nan,nan,nan,nan,nan,nan,nan,nan,nan,nan,nan,nan,nan,nan,nan,nan,nan,nan,519.2506632820005,612.1610356835299,nan,612.5052671973244,nan,nan,nan,nan
1,57,1,1,1.0,1.0,0.3430400866200216,0,nan,nan,nan,nan,nan,nan,nan,nan,nan,2,5,3,0,8,4,nan,nan,nan,nan,nan,nan,nan,nan,nan,nan,nan,nan,0.0,nan,nan,nan,nan,nan,nan,nan,nan,nan,nan,nan,nan,nan,nan,nan,nan,nan,nan,519.2506632820005,613.1862036208622,nan,613.5292437074822,nan,nan,nan,nan
1,58,1,1,1.0,1.0,0.30988824705127627,0,nan,nan,nan,nan,nan,nan,nan,nan,nan,8,7,4,1,5,6,nan,nan,nan,nan,nan,nan,nan,nan,nan,nan,nan,nan,0.0,nan,nan,nan,nan,nan,nan,nan,nan,nan,nan,nan,nan,nan,nan,nan,nan,nan,nan,519.2506632820005,614.2113370613079,nan,614.5212253083591,nan,nan,nan,nan
1,59,1,1,1.0,1.0,0.2847345646005124,0,nan,nan,nan,nan,nan,nan,nan,nan,nan,0,2,6,3,8,4,nan,nan,nan,nan,nan,nan,nan,nan,nan,nan,nan,nan,0.0,nan,nan,nan,nan,nan,nan,nan,nan,nan,nan,nan,nan,nan,nan,nan,nan,nan,nan,519.2506632820005,615.2364685060456,nan,615.5212030706462,nan,nan,nan,nan
1,60,1,1,1.0,1.0,0.21164924424374476,0,nan,nan,nan,nan,nan,nan,nan,nan,nan,1,4,0,6,5,3,nan,nan,nan,nan,nan,nan,nan,nan,nan,nan,nan,nan,0.0,nan,nan,nan,nan,nan,nan,nan,nan,nan,nan,nan,nan,nan,nan,nan,nan,nan,nan,519.2506632820005,616.2615597518743,nan,616.473208996118,nan,nan,nan,nan
1,61,1,1,1.0,1.0,0.05011321266647428,0,nan,nan,nan,nan,nan,nan,nan,nan,nan,5,0,3,8,7,1,nan,nan,nan,nan,nan,nan,nan,nan,nan,nan,nan,nan,0.0,nan,nan,nan,nan,nan,nan,nan,nan,nan,nan,nan,nan,nan,nan,nan,nan,nan,nan,519.2506632820005,617.2950768027222,nan,617.3451900153887,nan,nan,nan,nan
1,62,1,1,1.0,1.0,0.30499481403967366,0,nan,nan,nan,nan,nan,nan,nan,nan,nan,7,1,4,3,5,2,nan,nan,nan,nan,nan,nan,nan,nan,nan,nan,nan,nan,0.0,nan,nan,nan,nan,nan,nan,nan,nan,nan,nan,nan,nan,nan,nan,nan,nan,nan,nan,519.2506632820005,618.3201825885917,nan,618.6251774026314,nan,nan,nan,nan
1,63,1,1,1.0,1.0,0.2877973792492412,0,nan,nan,nan,nan,nan,nan,nan,nan,nan,3,6,2,8,0,4,nan,nan,nan,nan,nan,nan,nan,nan,nan,nan,nan,nan,0.0,nan,nan,nan,nan,nan,nan,nan,nan,nan,nan,nan,nan,nan,nan,nan,nan,nan,nan,519.2506632820005,619.3453585086972,nan,619.6331558879465,nan,nan,nan,nan
1,64,1,1,1.0,1.0,0.3026093937805854,0,nan,nan,nan,nan,nan,nan,nan,nan,nan,6,4,8,5,2,7,nan,nan,nan,nan,nan,nan,nan,nan,nan,nan,nan,nan,0.0,nan,nan,nan,nan,nan,nan,nan,nan,nan,nan,nan,nan,nan,nan,nan,nan,nan,nan,519.2506632820005,620.3705176080111,nan,620.6731270017917,nan,nan,nan,nan
1,65,1,1,1.0,1.0,0.28551516466541216,0,nan,nan,nan,nan,nan,nan,nan,nan,nan,3,8,4,2,5,1,nan,nan,nan,nan,nan,nan,nan,nan,nan,nan,nan,nan,0.0,nan,nan,nan,nan,nan,nan,nan,nan,nan,nan,nan,nan,nan,nan,nan,nan,nan,nan,519.2506632820005,621.3956282405416,nan,621.681143405207,nan,nan,nan,nan
1,66,1,1,1.0,1.0,0.42036254284903407,0,nan,nan,nan,nan,nan,nan,nan,nan,nan,0,6,7,3,1,2,nan,nan,nan,nan,nan,nan,nan,nan,nan,nan,nan,nan,0.0,nan,nan,nan,nan,nan,nan,nan,nan,nan,nan,nan,nan,nan,nan,nan,nan,nan,nan,519.2506632820005,622.4207622511312,nan,622.8411247939803,nan,nan,nan,nan
1,67,1,1,1.0,1.0,0.5391942200367339,0,nan,nan,nan,nan,nan,nan,nan,nan,nan,5,4,1,2,0,6,nan,nan,nan,nan,nan,nan,nan,nan,nan,nan,nan,nan,0.0,nan,nan,nan,nan,nan,nan,nan,nan,nan,nan,nan,nan,nan,nan,nan,nan,nan,nan,519.2506632820005,623.4459125123685,nan,623.9851067324053,nan,nan,nan,nan
1,68,1,1,1.0,1.0,0.5140308442059904,0,nan,nan,nan,nan,nan,nan,nan,nan,nan,3,8,6,4,1,0,nan,nan,nan,nan,nan,nan,nan,nan,nan,nan,nan,nan,0.0,nan,nan,nan,nan,nan,nan,nan,nan,nan,nan,nan,nan,nan,nan,nan,nan,nan,nan,519.2506632820005,624.4710596375517,nan,624.9850904817577,nan,nan,nan,nan
1,69,1,1,nan,nan,nan,0,nan,nan,nan,nan,nan,nan,nan,nan,nan,1,5,0,3,2,4,nan,nan,nan,nan,nan,nan,nan,nan,nan,nan,nan,nan,0.0,nan,nan,nan,nan,nan,nan,nan,nan,nan,nan,nan,nan,nan,nan,nan,nan,nan,nan,519.2506632820005,625.4962138901465,nan,nan,nan,nan,nan,nan
1,70,1,1,nan,nan,nan,0,nan,nan,nan,nan,nan,nan,nan,nan,nan,2,4,7,0,8,1,nan,nan,nan,nan,nan,nan,nan,nan,nan,nan,nan,nan,0.0,nan,nan,nan,nan,nan,nan,nan,nan,nan,nan,nan,nan,nan,nan,nan,nan,nan,nan,519.2506632820005,626.5213524623541,nan,nan,nan,nan,nan,nan
1,71,1,1,1.0,1.0,0.6225319724180736,0,nan,nan,nan,nan,nan,nan,nan,nan,nan,0,1,8,2,6,3,nan,nan,nan,nan,nan,nan,nan,nan,nan,nan,nan,nan,0.0,nan,nan,nan,nan,nan,nan,nan,nan,nan,nan,nan,nan,nan,nan,nan,nan,nan,nan,519.2506632820005,627.5464853325393,nan,628.1690173049574,nan,nan,nan,nan
1,72,1,1,1.0,1.0,0.4534128872328438,0,nan,nan,nan,nan,nan,nan,nan,nan,nan,7,3,1,5,2,6,nan,nan,nan,nan,nan,nan,nan,nan,nan,nan,nan,nan,0.0,nan,nan,nan,nan,nan,nan,nan,nan,nan,nan,nan,nan,nan,nan,nan,nan,nan,nan,519.2506632820005,628.5715973905753,nan,629.0250102778082,nan,nan,nan,nan
1,73,0,0,0.0,1.0,0.5882394532090984,0,nan,nan,nan,nan,nan,nan,nan,nan,nan,4,0,8,7,6,2,nan,nan,nan,nan,nan,nan,nan,nan,nan,nan,nan,nan,0.0,nan,nan,nan,nan,nan,nan,nan,nan,nan,nan,nan,nan,nan,nan,nan,nan,nan,nan,519.2506632820005,629.5967527835746,nan,630.1849922367837,nan,nan,nan,nan
1,74,1,1,1.0,1.0,0.45108904829248786,1,nan,nan,nan,nan,nan,nan,nan,nan,nan,7,6,4,0,1,8,1.0,1.0,1.0,1.0,1.0,1.0,0.0,1.0,1.0,0.0,0.0,0.0,2.0,1.0,6.0,4.0,7.0,8.0,5.0,6.0,2.0,1.0,3.0,4.0,5.0,8.02787095750682,2.214541284891311,0.9336544114048593,3.451841423579026,5.549433252424933,6.572547339193989,519.2506632820005,630.6219013342052,631.4303270252421,631.0729903824977,640.5148753064568,641.5148108741269,632.4471056501498,640.5065259077819
1,75,1,1,1.0,1.0,0.42070038471138105,0,nan,nan,nan,nan,nan,nan,nan,nan,nan,0,4,2,8,5,3,nan,nan,nan,nan,nan,nan,nan,nan,nan,nan,nan,nan,0.0,nan,nan,nan,nan,nan,nan,nan,nan,nan,nan,nan,nan,nan,nan,nan,nan,nan,nan,519.2506632820005,641.7401283172076,nan,642.160828701919,nan,nan,nan,nan
1,76,1,1,1.0,1.0,0.42764025571523234,0,nan,nan,nan,nan,nan,nan,nan,nan,nan,3,0,5,6,4,1,nan,nan,nan,nan,nan,nan,nan,nan,nan,nan,nan,nan,0.0,nan,nan,nan,nan,nan,nan,nan,nan,nan,nan,nan,nan,nan,nan,nan,nan,nan,nan,519.2506632820005,642.7651936190668,nan,643.1928338747821,nan,nan,nan,nan
1,77,1,1,1.0,1.0,0.3064331366913393,0,nan,nan,nan,nan,nan,nan,nan,nan,nan,0,4,1,7,6,3,nan,nan,nan,nan,nan,nan,nan,nan,nan,nan,nan,nan,0.0,nan,nan,nan,nan,nan,nan,nan,nan,nan,nan,nan,nan,nan,nan,nan,nan,nan,nan,519.2506632820005,643.7903572799405,nan,644.0967904166318,nan,nan,nan,nan
1,78,1,1,1.0,1.0,0.3292740989709273,0,nan,nan,nan,nan,nan,nan,nan,nan,nan,5,2,8,0,7,1,nan,nan,nan,nan,nan,nan,nan,nan,nan,nan,nan,nan,0.0,nan,nan,nan,nan,nan,nan,nan,nan,nan,nan,nan,nan,nan,nan,nan,nan,nan,nan,519.2506632820005,644.8154861587682,nan,645.1447602577391,nan,nan,nan,nan
1,79,1,1,1.0,1.0,0.26410539756761864,0,nan,nan,nan,nan,nan,nan,nan,nan,nan,0,4,3,5,6,8,nan,nan,nan,nan,nan,nan,nan,nan,nan,nan,nan,nan,0.0,nan,nan,nan,nan,nan,nan,nan,nan,nan,nan,nan,nan,nan,nan,nan,nan,nan,nan,519.2506632820005,645.8406620788737,nan,646.1047674764413,nan,nan,nan,nan
1,80,0,0,0.0,1.0,0.5349682029918768,0,nan,nan,nan,nan,nan,nan,nan,nan,nan,8,6,4,1,5,0,nan,nan,nan,nan,nan,nan,nan,nan,nan,nan,nan,nan,0.0,nan,nan,nan,nan,nan,nan,nan,nan,nan,nan,nan,nan,nan,nan,nan,nan,nan,nan,519.2506632820005,646.8657638733275,nan,647.4007320763194,nan,nan,nan,nan
1,81,1,1,1.0,1.0,0.42178318928927183,0,0.0,0.0,0.0,0.4503356632550195,0.14977070972365183,0.3005649535313677,0.6001063729786713,0.14977070972365183,0.4069522632829224,5,3,2,0,1,6,nan,nan,nan,nan,nan,nan,nan,nan,nan,nan,nan,nan,0.0,nan,nan,nan,nan,nan,nan,nan,nan,nan,nan,nan,nan,nan,nan,nan,nan,nan,nan,519.2506632820005,647.8909395083901,nan,648.3127226976794,nan,nan,nan,nan
1,82,1,1,1.0,1.0,0.3806026871316135,0,0.0,0.0,0.0,0.44994453347466684,0.14877836745315015,0.3011661660215167,0.598722900927817,0.14877836745315015,0.44578469313758734,0,1,8,6,3,7,nan,nan,nan,nan,nan,nan,nan,nan,nan,nan,nan,nan,0.0,nan,nan,nan,nan,nan,nan,nan,nan,nan,nan,nan,nan,nan,nan,nan,nan,nan,nan,519.2506632820005,648.9161071606213,nan,649.2967098477529,nan,nan,nan,nan
1,83,1,1,1.0,1.0,0.27551818097708747,0,0.0,0.0,0.0,0.449007481497058,0.14798641766327153,0.30102106383378646,0.5969938991603295,0.14798641766327153,0.35930135246599093,1,4,6,5,7,2,nan,nan,nan,nan,nan,nan,nan,nan,nan,nan,nan,nan,0.0,nan,nan,nan,nan,nan,nan,nan,nan,nan,nan,nan,nan,nan,nan,nan,nan,nan,nan,519.2506632820005,649.9411798750516,nan,650.2166980560287,nan,nan,nan,nan
1,84,0,0,0.0,1.0,0.5143646947108209,0,0.0,0.0,0.0,0.4466942908234584,0.14833726120840468,0.2983570296150537,0.5950315520318631,0.14833726120840468,0.39016185427317396,6,8,7,1,4,3,nan,nan,nan,nan,nan,nan,nan,nan,nan,nan,nan,nan,0.0,nan,nan,nan,nan,nan,nan,nan,nan,nan,nan,nan,nan,nan,nan,nan,nan,nan,nan,519.2506632820005,650.9663167366525,nan,651.4806814313633,nan,nan,nan,nan
1,85,1,1,1.0,1.0,0.34521025739377365,0,0.0,0.0,0.0,0.4475846908746079,0.14755974523909318,0.30002494563551474,0.595144436113701,0.14755974523909318,0.378364377693894,5,2,4,0,3,8,nan,nan,nan,nan,nan,nan,nan,nan,nan,nan,nan,nan,0.0,nan,nan,nan,nan,nan,nan,nan,nan,nan,nan,nan,nan,nan,nan,nan,nan,nan,nan,519.2506632820005,651.9914547385997,nan,652.3366649959935,nan,nan,nan,nan
1,86,1,1,1.0,1.0,0.2720274333260022,0,0.0,0.0,0.0,0.4462551527774542,0.1470559206941632,0.299199232083291,0.5933110734716174,0.1470559206941632,0.3772007951435323,8,5,7,1,4,3,nan,nan,nan,nan,nan,nan,nan,nan,nan,nan,nan,nan,0.0,nan,nan,nan,nan,nan,nan,nan,nan,nan,nan,nan,nan,nan,nan,nan,nan,nan,nan,519.2506632820005,653.0166141230147,nan,653.2886415563407,nan,nan,nan,nan
1,87,1,1,1.0,1.0,0.2789003061479889,0,0.0,0.0,0.0,0.44402146406653814,0.14741904780721937,0.29660241625931877,0.5914405118737576,0.14741904780721937,0.29871266562258825,4,7,6,2,0,5,nan,nan,nan,nan,nan,nan,nan,nan,nan,nan,nan,nan,0.0,nan,nan,nan,nan,nan,nan,nan,nan,nan,nan,nan,nan,nan,nan,nan,nan,nan,nan,519.2506632820005,654.0417478485033,nan,654.3206481546513,nan,nan,nan,nan
1,88,1,1,1.0,1.0,0.31771534495055676,1,1.0,0.0,1.0,0.4419313228270628,0.14764159354640774,0.2942897292806551,0.5895729163734705,0.14764159354640774,0.2895476948081826,0,6,7,4,8,1,1.0,1.0,1.0,1.0,1.0,1.0,0.0,0.0,1.0,0.0,0.0,0.0,1.0,3.0,1.0,7.0,6.0,4.0,5.0,5.0,6.0,1.0,2.0,3.0,4.0,7.69466990994988,8.406461703591049,2.8147677102242596,3.8161683998187073,4.775257315777708,6.719134794082493,519.2506632820005,655.0669035266619,655.8753004227183,655.3846188716125,665.334919622168,666.3348517686827,656.8921223825892,665.3265876145451
1,89,0,0,nan,nan,nan,0,0.0,0.0,0.0,0.0,0.0,0.0,0.0,0.0,0.0,4,3,0,7,6,5,nan,nan,nan,nan,nan,nan,nan,nan,nan,nan,nan,nan,0.0,nan,nan,nan,nan,nan,nan,nan,nan,nan,nan,nan,nan,nan,nan,nan,nan,nan,nan,519.2506632820005,666.5601164685213,nan,nan,nan,nan,nan,nan
1,90,1,1,1.0,1.0,0.5191472243750468,0,0.0,0.0,0.0,0.44037862310360654,0.14736357718641885,0.2930150459171877,0.5877422002900254,0.14736357718641885,0.4184312846628018,3,0,6,4,1,2,nan,nan,nan,nan,nan,nan,nan,nan,nan,nan,nan,nan,0.0,nan,nan,nan,nan,nan,nan,nan,nan,nan,nan,nan,nan,nan,nan,nan,nan,nan,nan,519.2506632820005,667.5852444920456,nan,668.1043917164207,nan,nan,nan,nan
1,91,1,1,1.0,1.0,0.42203008476644754,0,0.0,0.0,0.0,0.44135107497115517,0.14670916069452541,0.2946419142766298,0.5880602356656806,0.14670916069452541,0.47058865457074717,5,4,7,2,0,3,nan,nan,nan,nan,nan,nan,nan,nan,nan,nan,nan,nan,0.0,nan,nan,nan,nan,nan,nan,nan,nan,nan,nan,nan,nan,nan,nan,nan,nan,nan,nan,519.2506632820005,668.6103938979795,nan,669.032423982746,nan,nan,nan,nan
1,92,0,0,0.0,1.0,0.4688658035011031,0,0.0,0.0,0.0,0.44111545313939043,0.14582726804224225,0.29528818509714816,0.5869427211816327,0.14582726804224225,0.4700143708808658,8,2,6,1,5,7,nan,nan,nan,nan,nan,nan,nan,nan,nan,nan,nan,nan,0.0,nan,nan,nan,nan,nan,nan,nan,nan,nan,nan,nan,nan,nan,nan,nan,nan,nan,nan,519.2506632820005,669.6355310446816,nan,670.1043968481827,nan,nan,nan,nan
1,93,1,1,1.0,1.0,0.4277329127653502,0,0.0,0.0,0.0,0.4414497947100135,0.14497774471633623,0.29647204999367727,0.5864275394263497,0.14497774471633623,0.4395429336776336,3,4,8,7,0,5,nan,nan,nan,nan,nan,nan,nan,nan,nan,nan,nan,nan,0.0,nan,nan,nan,nan,nan,nan,nan,nan,nan,nan,nan,nan,nan,nan,nan,nan,nan,nan,519.2506632820005,670.6606696168892,nan,671.0884025296546,nan,nan,nan,nan
1,94,1,1,1.0,1.0,0.49056979245506227,0,0.0,0.0,0.0,0.4412864984963865,0.14411987691168587,0.29716662158470064,0.5854063754080724,0.14411987691168587,0.46238950290717185,6,0,7,1,3,8,nan,nan,nan,nan,nan,nan,nan,nan,nan,nan,nan,nan,0.0,nan,nan,nan,nan,nan,nan,nan,nan,nan,nan,nan,nan,nan,nan,nan,nan,nan,nan,519.2506632820005,671.6858056231868,nan,672.1763754156418,nan,nan,nan,nan
1,95,1,1,1.0,1.0,0.4414193578995764,0,0.0,0.0,0.0,0.4418663019547239,0.14336812090503487,0.298498181049689,0.5852344228597588,0.14336812090503487,0.453240687706663,1,3,2,7,5,4,nan,nan,nan,nan,nan,nan,nan,nan,nan,nan,nan,nan,0.0,nan,nan,nan,nan,nan,nan,nan,nan,nan,nan,nan,nan,nan,nan,nan,nan,nan,nan,519.2506632820005,672.7109413443832,nan,673.1523607022827,nan,nan,nan,nan
1,96,1,1,1.0,1.0,0.5202414329396561,0,0.0,0.0,0.0,0.4418611049308268,0.14253215611249814,0.29932894881832867,0.5843932610433249,0.14253215611249814,0.4840768610980983,8,4,0,5,3,2,nan,nan,nan,nan,nan,nan,nan,nan,nan,nan,nan,nan,0.0,nan,nan,nan,nan,nan,nan,nan,nan,nan,nan,nan,nan,nan,nan,nan,nan,nan,nan,519.2506632820005,673.736097877787,nan,674.2563393107266,nan,nan,nan,nan
1,97,1,1,1.0,1.0,0.39908135519362986,0,0.0,0.0,0.0,0.44276202824127314,0.1419567117277713,0.30080531651350184,0.5847187399690444,0.1419567117277713,0.45358071534428746,2,0,6,8,1,7,nan,nan,nan,nan,nan,nan,nan,nan,nan,nan,nan,nan,0.0,nan,nan,nan,nan,nan,nan,nan,nan,nan,nan,nan,nan,nan,nan,nan,nan,nan,nan,519.2506632820005,674.7612430072622,nan,675.1603243624559,nan,nan,nan,nan
1,98,1,1,1.0,1.0,0.46196727181086317,0,0.0,0.0,0.0,0.44226565695664083,0.14122374718875577,0.30104190976788503,0.5834894041453966,0.14122374718875577,0.46043001998138305,5,4,2,6,3,1,nan,nan,nan,nan,nan,nan,nan,nan,nan,nan,nan,nan,0.0,nan,nan,nan,nan,nan,nan,nan,nan,nan,nan,nan,nan,nan,nan,nan,nan,nan,nan,519.2506632820005,675.7863664692268,nan,676.2483337410376,nan,nan,nan,nan
1,99,1,1,1.0,1.0,0.30881570593919605,0,0.0,0.0,0.0,0.442487023415677,0.14044346729876775,0.30204355611690925,0.5829304907144448,0.14044346729876775,0.3899547776478964,0,6,8,5,1,3,nan,nan,nan,nan,nan,nan,nan,nan,nan,nan,nan,nan,0.0,nan,nan,nan,nan,nan,nan,nan,nan,nan,nan,nan,nan,nan,nan,nan,nan,nan,nan,519.2506632820005,676.8115041861311,nan,677.1203198920703,nan,nan,nan,nan
1,100,1,1,1.0,1.0,0.29966204409720376,0,0.0,0.0,0.0,0.44100178655482725,0.1403621583880644,0.3006396281667628,0.5813639449428917,0.1403621583880644,0.356815007282421,1,0,7,8,4,6,nan,nan,nan,nan,nan,nan,nan,nan,nan,nan,nan,nan,0.0,nan,nan,nan,nan,nan,nan,nan,nan,nan,nan,nan,nan,nan,nan,nan,nan,nan,nan,519.2506632820005,677.8366464645951,nan,678.1363085086923,nan,nan,nan,nan
1,101,1,1,1.0,1.0,0.24248380213975906,1,1.0,0.0,1.0,0.4394486025717764,0.14036434504828446,0.299084257523492,0.5798129476200609,0.14036434504828446,0.2836538507253863,4,3,8,7,5,2,1.0,1.0,1.0,1.0,1.0,1.0,0.0,0.0,1.0,0.0,0.0,0.0,1.0,7.0,2.0,8.0,6.0,7.0,0.0,5.0,6.0,1.0,2.0,3.0,4.0,7.436039546621032,9.115934789937455,2.42936253658263,3.388719160167966,4.500645748397801,5.652263198513538,519.2506632820005,678.8618024277966,679.670209017233,679.1042862299364,689.8299167113146,690.8298619723646,680.6786753063207,689.8215892652515
1,102,1,1,1.0,1.0,0.4249751536990516,0,0.0,0.0,0.0,0.4373076808279502,0.14108542887744863,0.29622225195050156,0.5783931097053988,0.14108542887744863,0.3223736666453381,7,8,1,5,2,6,nan,nan,nan,nan,nan,nan,nan,nan,nan,nan,nan,nan,0.0,nan,nan,nan,nan,nan,nan,nan,nan,nan,nan,nan,nan,nan,nan,nan,nan,nan,nan,519.2506632820005,691.0551098513533,nan,691.4800850050524,nan,nan,nan,nan
1,103,1,1,1.0,1.0,0.23979703255463392,0,0.0,0.0,0.0,0.43717507300935987,0.14033061936653468,0.2968444536428252,0.5775056923758946,0.14033061936653468,0.3024186627978149,1,5,3,7,0,8,nan,nan,nan,nan,nan,nan,nan,nan,nan,nan,nan,nan,0.0,nan,nan,nan,nan,nan,nan,nan,nan,nan,nan,nan,nan,nan,nan,nan,nan,nan,nan,519.2506632820005,692.0802760781371,nan,692.3200731106917,nan,nan,nan,nan
1,104,1,1,1.0,1.0,0.25466093502473086,0,0.0,0.0,0.0,0.43507530662154364,0.14104334391649032,0.29403196270505333,0.576118650538034,0.14104334391649032,0.3064777070928055,6,7,2,3,1,4,nan,nan,nan,nan,nan,nan,nan,nan,nan,nan,nan,nan,0.0,nan,nan,nan,nan,nan,nan,nan,nan,nan,nan,nan,nan,nan,nan,nan,nan,nan,nan,519.2506632820005,693.1054029613151,nan,693.3600638963399,nan,nan,nan,nan
1,105,1,1,1.0,1.0,0.28551573486765847,1,1.0,0.0,1.0,0.43317620797315615,0.14150208694481425,0.2916741210283419,0.5746782949179704,0.14150208694481425,0.25999123414900777,0,3,7,8,4,6,1.0,1.0,1.0,1.0,1.0,1.0,0.0,0.0,0.0,0.0,0.0,0.0,0.0,3.0,2.0,8.0,7.0,1.0,4.0,5.0,6.0,1.0,2.0,3.0,4.0,8.167337788851,10.022732909885235,3.3679343292606063,4.7670986481243744,5.638858715945389,6.863459421030711,519.2506632820005,694.1305326954462,694.9390353630879,694.4160484303138,706.0154514907626,707.0155347395921,695.9557472749148,706.0071129258722
1,106,1,1,1.0,1.0,0.3831731363898143,0,0.0,0.0,0.0,0.43163807804497384,0.14155926145117984,0.290078816593794,0.5731973394961537,0.14155926145117984,0.30778326876073453,4,6,1,5,2,3,nan,nan,nan,nan,nan,nan,nan,nan,nan,nan,nan,nan,0.0,nan,nan,nan,nan,nan,nan,nan,nan,nan,nan,nan,nan,nan,nan,nan,nan,nan,nan,519.2506632820005,707.2406697195256,nan,707.6238428559154,nan,nan,nan,nan
1,107,1,1,1.0,1.0,0.3580337089370005,0,0.0,0.0,0.0,0.43113843947120933,0.14091274582788854,0.2902256936433208,0.5720511852990979,0.14091274582788854,0.3422408600648244,1,2,3,6,4,7,nan,nan,nan,nan,nan,nan,nan,nan,nan,nan,nan,nan,0.0,nan,nan,nan,nan,nan,nan,nan,nan,nan,nan,nan,nan,nan,nan,nan,nan,nan,nan,519.2506632820005,708.2657966026454,nan,708.6238303115824,nan,nan,nan,nan
1,108,1,1,1.0,1.0,0.33287204371299595,0,0.0,0.0,0.0,0.43039247283310517,0.14038433963338878,0.2900081331997164,0.5707768124664939,0.14038433963338878,0.3580262963466036,7,6,4,1,0,8,nan,nan,nan,nan,nan,nan,nan,nan,nan,nan,nan,nan,0.0,nan,nan,nan,nan,nan,nan,nan,nan,nan,nan,nan,nan,nan,nan,nan,nan,nan,nan,519.2506632820005,709.2909400215722,nan,709.6238120652852,nan,nan,nan,nan
1,109,1,1,1.0,1.0,0.32380961341550574,0,0.0,0.0,0.0,0.42940741799350807,0.14001352484911733,0.28939389314439073,0.5694209428426253,0.14001352484911733,0.3382384553551674,1,3,6,8,2,4,nan,nan,nan,nan,nan,nan,nan,nan,nan,nan,nan,nan,0.0,nan,nan,nan,nan,nan,nan,nan,nan,nan,nan,nan,nan,nan,nan,nan,nan,nan,nan,519.2506632820005,710.3161344730761,nan,710.6399440864916,nan,nan,nan,nan
1,110,0,0,nan,nan,nan,0,0.0,0.0,0.0,0.0,0.0,0.0,0.0,0.0,0.0,7,5,0,6,1,8,nan,nan,nan,nan,nan,nan,nan,nan,nan,nan,nan,nan,0.0,nan,nan,nan,nan,nan,nan,nan,nan,nan,nan,nan,nan,nan,nan,nan,nan,nan,nan,519.2506632820005,711.3412294251611,nan,nan,nan,nan,nan,nan
1,111,1,1,1.0,1.0,0.6494079356780276,0,0.0,0.0,0.0,0.42835143994772806,0.13970734820671182,0.28864409174101624,0.5680587881544399,0.13970734820671182,0.48660877454676665,5,0,2,3,7,4,nan,nan,nan,nan,nan,nan,nan,nan,nan,nan,nan,nan,0.0,nan,nan,nan,nan,nan,nan,nan,nan,nan,nan,nan,nan,nan,nan,nan,nan,nan,nan,519.2506632820005,712.3663580188877,nan,713.0157659545657,nan,nan,nan,nan
1,112,0,0,0.0,1.0,0.792237505374942,0,0.0,0.0,0.0,0.4305401181232756,0.14072642046379852,0.28981369765947707,0.5712665385870741,0.14072642046379852,0.7208227205264848,2,5,6,4,0,7,nan,nan,nan,nan,nan,nan,nan,nan,nan,nan,nan,nan,0.0,nan,nan,nan,nan,nan,nan,nan,nan,nan,nan,nan,nan,nan,nan,nan,nan,nan,nan,519.2506632820005,713.391525386076,nan,714.1837628914509,nan,nan,nan,nan
1,113,1,1,1.0,1.0,0.4711109552299604,1,0.0,1.0,1.0,0.4340861709394684,0.14449841809901273,0.2895877528404557,0.5785845890384811,0.14449841809901273,0.6375854654276433,1,0,3,8,4,6,1.0,1.0,1.0,1.0,1.0,1.0,1.0,0.0,1.0,1.0,0.0,0.0,3.0,1.0,6.0,3.0,8.0,7.0,5.0,6.0,2.0,1.0,3.0,4.0,5.0,7.823872905340977,2.3850536470417865,1.4741712040267885,3.737612036638893,4.8718262107577175,6.2959004527074285,519.2506632820005,714.416630031541,715.2250582884299,714.887740986771,724.1012456530007,725.1012827157974,716.2418822440086,724.0929259046097
1,114,1,1,1.0,1.0,0.4811136408825405,0,0.0,0.0,0.0,0.4344456348646188,0.14384107986878966,0.29060455499582916,0.5782867147334084,0.14384107986878966,0.581487367162481,8,3,2,7,5,0,nan,nan,nan,nan,nan,nan,nan,nan,nan,nan,nan,nan,0.0,nan,nan,nan,nan,nan,nan,nan,nan,nan,nan,nan,nan,nan,nan,nan,nan,nan,nan,519.2506632820005,725.3264650221099,nan,725.8075786629925,nan,nan,nan,nan
1,115,1,1,1.0,1.0,0.3359724914189428,0,0.0,0.0,0.0,0.4348943656917142,0.14322029011175008,0.2916740755799641,0.5781146558034642,0.14322029011175008,0.4293990291771479,4,8,1,5,0,3,nan,nan,nan,nan,nan,nan,nan,nan,nan,nan,nan,nan,0.0,nan,nan,nan,nan,nan,nan,nan,nan,nan,nan,nan,nan,nan,nan,nan,nan,nan,nan,519.2506632820005,726.3515899095801,nan,726.687562400999,nan,nan,nan,nan
1,116,1,1,1.0,1.0,0.3348101442097686,0,0.0,0.0,0.0,0.4339522526034021,0.14286009465091987,0.2910921579524822,0.576812347254322,0.14286009465091987,0.3839654255037506,1,7,5,0,2,6,nan,nan,nan,nan,nan,nan,nan,nan,nan,nan,nan,nan,0.0,nan,nan,nan,nan,nan,nan,nan,nan,nan,nan,nan,nan,nan,nan,nan,nan,nan,nan,519.2506632820005,727.376743877132,nan,727.7115540213417,nan,nan,nan,nan
1,117,0,0,0.0,1.0,0.5496148602687754,0,0.0,0.0,0.0,0.4330169496940282,0.1425072698357327,0.2905096798582955,0.575524219529761,0.1425072698357327,0.40679916529916227,7,6,8,5,3,4,nan,nan,nan,nan,nan,nan,nan,nan,nan,nan,nan,nan,0.0,nan,nan,nan,nan,nan,nan,nan,nan,nan,nan,nan,nan,nan,nan,nan,nan,nan,nan,519.2506632820005,728.4019044018933,nan,728.951519262162,nan,nan,nan,nan
1,118,1,1,1.0,1.0,0.556478324753698,0,0.0,0.0,0.0,0.4341066497928576,0.14228279538632663,0.291823854406531,0.5763894451791842,0.14228279538632663,0.48030110974408063,8,5,6,2,7,1,nan,nan,nan,nan,nan,nan,nan,nan,nan,nan,nan,nan,0.0,nan,nan,nan,nan,nan,nan,nan,nan,nan,nan,nan,nan,nan,nan,nan,nan,nan,nan,519.2506632820005,729.4270703435759,nan,729.9835486683296,nan,nan,nan,nan
1,119,1,1,1.0,1.0,0.6913747399230488,1,0.0,1.0,1.0,0.43523972085730983,0.14210671245790357,0.29313300839940626,0.5773464333152134,0.14210671245790357,0.5991559749818407,0,1,7,5,4,6,1.0,1.0,1.0,1.0,1.0,1.0,0.0,0.0,1.0,0.0,0.0,0.0,1.0,8.0,2.0,7.0,6.0,5.0,4.0,5.0,4.0,1.0,2.0,3.0,6.0,6.22849315678468,4.477167305594776,1.3260171321453527,2.2523738738382235,3.149026473693084,7.548463346902281,519.2506632820005,730.4521479046089,731.2605707446928,731.1435226445319,739.8534142557764,740.852939281438,732.2690929130767,739.8450668528094
1,120,1,1,1.0,1.0,0.440747095271945,0,0.0,0.0,0.0,0.43758958341754595,0.1435458428281699,0.29404374058937605,0.5811354262457158,0.1435458428281699,0.5628667199828973,7,4,0,1,6,8,nan,nan,nan,nan,nan,nan,nan,nan,nan,nan,nan,nan,0.0,nan,nan,nan,nan,nan,nan,nan,nan,nan,nan,nan,nan,nan,nan,nan,nan,nan,nan,519.2506632820005,741.0785925706732,nan,741.5193396659452,nan,nan,nan,nan
1,121,1,1,1.0,1.0,0.3516167088528164,0,0.0,0.0,0.0,0.4376182880707678,0.14289218629665074,0.29472610177411707,0.5805104743674185,0.14289218629665074,0.49457951468260336,0,5,1,3,4,2,nan,nan,nan,nan,nan,nan,nan,nan,nan,nan,nan,nan,0.0,nan,nan,nan,nan,nan,nan,nan,nan,nan,nan,nan,nan,nan,nan,nan,nan,nan,nan,519.2506632820005,742.1037117561791,nan,742.4553284650319,nan,nan,nan,nan
1,122,1,1,1.0,1.0,0.27843274432234466,0,0.0,0.0,0.0,0.43684349906880426,0.1424789884322854,0.29436451063651886,0.5793224875010896,0.1424789884322854,0.356932182815702,6,2,3,1,5,4,nan,nan,nan,nan,nan,nan,nan,nan,nan,nan,nan,nan,0.0,nan,nan,nan,nan,nan,nan,nan,nan,nan,nan,nan,nan,nan,nan,nan,nan,nan,nan,519.2506632820005,743.1288717107964,nan,743.4073044551187,nan,nan,nan,nan
1,123,1,1,1.0,1.0,0.30123721406562254,0,0.0,0.0,0.0,0.43542911732999656,0.14262209719097113,0.29280702013902543,0.5780512145209677,0.14262209719097113,0.31042888908026117,3,7,5,2,0,8,nan,nan,nan,nan,nan,nan,nan,nan,nan,nan,nan,nan,0.0,nan,nan,nan,nan,nan,nan,nan,nan,nan,nan,nan,nan,nan,nan,nan,nan,nan,nan,519.2506632820005,744.1540513371583,nan,744.4552885512239,nan,nan,nan,nan
1,124,1,1,1.0,1.0,0.3161190777318552,0,0.0,0.0,0.0,0.4342415783630552,0.14254473357133954,0.29169684479171565,0.5767863119343948,0.14254473357133954,0.2985963453732741,5,6,0,4,3,1,nan,nan,nan,nan,nan,nan,nan,nan,nan,nan,nan,nan,0.0,nan,nan,nan,nan,nan,nan,nan,nan,nan,nan,nan,nan,nan,nan,nan,nan,nan,nan,519.2506632820005,745.1791605441831,nan,745.495279621915,nan,nan,nan,nan
1,125,1,1,1.0,1.0,0.30696855194400996,0,0.0,0.0,0.0,0.4332054160768166,0.14234494956080884,0.2908604665160078,0.5755503656376255,0.14234494956080884,0.30810828124716255,4,0,8,5,1,6,nan,nan,nan,nan,nan,nan,nan,nan,nan,nan,nan,nan,0.0,nan,nan,nan,nan,nan,nan,nan,nan,nan,nan,nan,nan,nan,nan,nan,nan,nan,nan,519.2506632820005,746.2042831508443,nan,746.5112517027883,nan,nan,nan,nan
1,126,1,1,1.0,1.0,0.2738104402087629,0,0.0,0.0,0.0,0.4321077042147922,0.14220850662583875,0.28989919758895344,0.574316210840631,0.14220850662583875,0.29896602329487604,8,2,4,6,3,0,nan,nan,nan,nan,nan,nan,nan,nan,nan,nan,nan,nan,0.0,nan,nan,nan,nan,nan,nan,nan,nan,nan,nan,nan,nan,nan,nan,nan,nan,nan,nan,519.2506632820005,747.2294664835208,nan,747.5032769237296,nan,nan,nan,nan
1,127,1,1,1.0,1.0,0.32065585226519033,0,0.0,0.0,0.0,0.43074307262853334,0.14234843216957255,0.2883946404589608,0.5730915047981059,0.14234843216957255,0.3004782814726544,5,3,6,8,1,4,nan,nan,nan,nan,nan,nan,nan,nan,nan,nan,nan,nan,0.0,nan,nan,nan,nan,nan,nan,nan,nan,nan,nan,nan,nan,nan,nan,nan,nan,nan,nan,519.2506632820005,748.254568563134,nan,748.5752244153991,nan,nan,nan,nan
1,128,0,0,0.0,1.0,0.6555118974647485,0,0.0,0.0,0.0,0.4298021562151714,0.14210061577985064,0.2877015404353208,0.571902771995022,0.14210061577985064,0.4166593966462339,8,1,7,4,3,5,nan,nan,nan,nan,nan,nan,nan,nan,nan,nan,nan,nan,0.0,nan,nan,nan,nan,nan,nan,nan,nan,nan,nan,nan,nan,nan,nan,nan,nan,nan,nan,519.2506632820005,749.2797145478544,nan,749.9352264453191,nan,nan,nan,nan
1,129,1,1,1.0,1.0,0.5903423407580703,0,0.0,0.0,0.0,0.43171495063254073,0.14300188444143064,0.2887130661911101,0.5747168350739713,0.14300188444143064,0.5221700301626697,2,8,3,1,0,7,nan,nan,nan,nan,nan,nan,nan,nan,nan,nan,nan,nan,0.0,nan,nan,nan,nan,nan,nan,nan,nan,nan,nan,nan,nan,nan,nan,nan,nan,nan,nan,519.2506632820005,750.3048628133838,nan,750.8952051541419,nan,nan,nan,nan
1,130,1,1,1.0,1.0,0.5091895843506791,1,0.0,1.0,1.0,0.4330479539109065,0.14313409105443087,0.28991386285647563,0.5761820449653374,0.14313409105443087,0.5850146075244993,6,5,0,2,1,4,1.0,1.0,1.0,1.0,1.0,1.0,0.0,0.0,1.0,0.0,0.0,0.0,1.0,2.0,1.0,0.0,6.0,4.0,7.0,5.0,6.0,1.0,3.0,4.0,2.0,7.206265726767015,8.542372499592602,1.8162510783877224,5.206207281502429,6.126937316497788,3.8400984388426878,519.2506632820005,751.3300019557937,752.1384031283669,751.8391915401444,761.7397280387231,762.7398469248437,753.1552008548751,761.7313789252075
1,131,1,1,1.0,1.0,0.4180945832049474,0,0.0,0.0,0.0,0.4336824674979046,0.14270441565237718,0.29097805184552744,0.5763868831502819,0.14270441565237718,0.5058755027712323,1,6,7,3,0,8,nan,nan,nan,nan,nan,nan,nan,nan,nan,nan,nan,nan,0.0,nan,nan,nan,nan,nan,nan,nan,nan,nan,nan,nan,nan,nan,nan,nan,nan,nan,nan,519.2506632820005,762.9649063536781,nan,763.383000936883,nan,nan,nan,nan
1,132,1,1,1.0,1.0,0.3449060571147129,0,0.0,0.0,0.0,0.4335536420078802,0.1421205111845493,0.2914331308233309,0.5756741531924295,0.1421205111845493,0.42406340822344646,7,3,8,0,1,2,nan,nan,nan,nan,nan,nan,nan,nan,nan,nan,nan,nan,0.0,nan,nan,nan,nan,nan,nan,nan,nan,nan,nan,nan,nan,nan,nan,nan,nan,nan,nan,519.2506632820005,763.9901110687642,nan,764.335017125879,nan,nan,nan,nan
1,133,1,1,1.0,1.0,0.27983086806489155,0,0.0,0.0,0.0,0.43282702245957555,0.14176235554506345,0.2910646669145121,0.5745893780046389,0.14176235554506345,0.3476105027948506,0,4,2,1,7,6,nan,nan,nan,nan,nan,nan,nan,nan,nan,nan,nan,nan,0.0,nan,nan,nan,nan,nan,nan,nan,nan,nan,nan,nan,nan,nan,nan,nan,nan,nan,nan,519.2506632820005,765.0151817874867,nan,765.2950126555515,nan,nan,nan,nan
1,134,1,1,1.0,1.0,0.26990715478314087,0,0.0,0.0,0.0,0.431583151285635,0.1418518206770356,0.2897313306085994,0.5734349719626706,0.1418518206770356,0.2982146933209151,4,2,5,6,3,8,nan,nan,nan,nan,nan,nan,nan,nan,nan,nan,nan,nan,0.0,nan,nan,nan,nan,nan,nan,nan,nan,nan,nan,nan,nan,nan,nan,nan,nan,nan,nan,519.2506632820005,766.0410838538082,nan,766.3109910085914,nan,nan,nan,nan
1,135,1,1,1.0,1.0,0.27749733574455604,1,1.0,0.0,1.0,0.4302793126041633,0.14201677629892215,0.2882625363052411,0.5722960889030855,0.14201677629892215,0.27574511953086284,2,1,3,8,0,4,1.0,1.0,1.0,1.0,1.0,1.0,0.0,0.0,0.0,0.0,0.0,0.0,0.0,7.0,3.0,8.0,3.0,5.0,2.0,3.0,2.0,1.0,6.0,5.0,4.0,5.49619336304022,4.29547394515248,2.4002169030718505,8.694675611972343,7.719425024522934,6.790510092803743,519.2506632820005,767.0654760377947,767.8738854781841,767.3429733735393,777.6168733346858,778.6165007107775,768.8823546182248,777.6085399015574
1,136,1,1,1.0,1.0,0.7407389984582551,0,0.0,0.0,0.0,0.42905705678928646,0.14210087748738015,0.2869561793019063,0.5711579342766666,0.14210087748738015,0.4293811629953173,0,8,2,3,6,1,nan,nan,nan,nan,nan,nan,nan,nan,nan,nan,nan,nan,0.0,nan,nan,nan,nan,nan,nan,nan,nan,nan,nan,nan,nan,nan,nan,nan,nan,nan,nan,519.2506632820005,778.8420428115642,nan,779.5827818100224,nan,nan,nan,nan
1,137,1,1,1.0,1.0,0.4756500106304884,0,0.0,0.0,0.0,0.43153072299300843,0.14421261471231664,0.2873181082806918,0.575743337705325,0.14421261471231664,0.49796211494443315,2,6,7,1,5,3,nan,nan,nan,nan,nan,nan,nan,nan,nan,nan,nan,nan,0.0,nan,nan,nan,nan,nan,nan,nan,nan,nan,nan,nan,nan,nan,nan,nan,nan,nan,nan,519.2506632820005,779.867211889301,nan,780.3428618999314,nan,nan,nan,nan
1,138,1,1,1.0,1.0,0.32235817628679797,0,0.0,0.0,0.0,0.43187811895865785,0.14369664687926348,0.2881814720793944,0.5755747658379213,0.14369664687926348,0.5129157284585139,3,0,4,5,6,8,nan,nan,nan,nan,nan,nan,nan,nan,nan,nan,nan,nan,0.0,nan,nan,nan,nan,nan,nan,nan,nan,nan,nan,nan,nan,nan,nan,nan,nan,nan,nan,519.2506632820005,780.892376405478,nan,781.2147345817648,nan,nan,nan,nan
1,139,1,1,1.0,1.0,0.3292658310965635,0,0.0,0.0,0.0,0.43102249440653395,0.14345864912391254,0.2875638452826214,0.5744811435304464,0.14345864912391254,0.3757580060046166,6,4,3,1,0,7,nan,nan,nan,nan,nan,nan,nan,nan,nan,nan,nan,nan,0.0,nan,nan,nan,nan,nan,nan,nan,nan,nan,nan,nan,nan,nan,nan,nan,nan,nan,nan,519.2506632820005,781.9174824764486,nan,782.2467483075452,nan,nan,nan,nan
1,140,1,1,1.0,1.0,0.2640871512121521,0,0.0,0.0,0.0,0.4302336830630458,0.14317992434306553,0.2870537587199803,0.5734136074061114,0.14317992434306553,0.30523705286517117,8,3,7,0,1,2,nan,nan,nan,nan,nan,nan,nan,nan,nan,nan,nan,nan,0.0,nan,nan,nan,nan,nan,nan,nan,nan,nan,nan,nan,nan,nan,nan,nan,nan,nan,nan,519.2506632820005,782.9426700855838,nan,783.206757236796,nan,nan,nan,nan
1,141,1,1,1.0,1.0,0.3429391616373323,0,0.0,0.0,0.0,0.42895563281803895,0.14336493593490787,0.2855906968831311,0.5723205687529468,0.14336493593490787,0.3120973813153493,3,2,1,6,7,5,nan,nan,nan,nan,nan,nan,nan,nan,nan,nan,nan,nan,0.0,nan,nan,nan,nan,nan,nan,nan,nan,nan,nan,nan,nan,nan,nan,nan,nan,nan,nan,519.2506632820005,783.9677636122215,nan,784.3107027738588,nan,nan,nan,nan
1,142,1,1,1.0,1.0,0.1737824435112998,1,1.0,0.0,1.0,0.42829901853421676,0.14301278395057226,0.2852862345836445,0.571311802484789,0.14301278395057226,0.26026958545359474,7,0,8,5,3,1,1.0,1.0,1.0,1.0,1.0,1.0,0.0,0.0,0.0,0.0,0.0,0.0,0.0,5.0,2.0,4.0,1.0,7.0,6.0,2.0,1.0,6.0,5.0,4.0,3.0,4.407364325830713,3.4637086542788893,8.26298324932577,7.263339337485377,6.088537951465696,5.3762107426300645,519.2506632820005,784.9929335452616,785.8013338624733,785.1667159887729,795.1109173391014,796.1102271152777,786.8097958751023,795.1025955950026
1,143,1,1,1.0,1.0,0.7184000948327594,0,0.0,0.0,0.0,0.42637086266283103,0.14416914319735616,0.2822017194654749,0.5705400058601872,0.14416914319735616,0.4117072333271305,2,6,1,3,7,0,nan,nan,nan,nan,nan,nan,nan,nan,nan,nan,nan,nan,0.0,nan,nan,nan,nan,nan,nan,nan,nan,nan,nan,nan,nan,nan,nan,nan,nan,nan,nan,519.2506632820005,796.336109623895,nan,797.0545097187278,nan,nan,nan,nan
1,144,1,1,1.0,1.0,0.3492432626662776,0,0.0,0.0,0.0,0.4285665711753869,0.14582474251945415,0.2827418286559327,0.5743913136948411,0.14582474251945415,0.4138086003367789,5,1,7,4,3,6,nan,nan,nan,nan,nan,nan,nan,nan,nan,nan,nan,nan,0.0,nan,nan,nan,nan,nan,nan,nan,nan,nan,nan,nan,nan,nan,nan,nan,nan,nan,nan,519.2506632820005,797.3612530427636,nan,797.7104963054298,nan,nan,nan,nan
1,145,1,1,1.0,1.0,0.012102437089197338,0,0.0,0.0,0.0,0.4279746061865129,0.14543991466593073,0.2825346915205822,0.5734145208524436,0.14543991466593073,0.3599152648627448,8,2,1,5,4,7,nan,nan,nan,nan,nan,nan,nan,nan,nan,nan,nan,nan,0.0,nan,nan,nan,nan,nan,nan,nan,nan,nan,nan,nan,nan,nan,nan,nan,nan,nan,nan,519.2506632820005,798.386364245438,nan,798.3984666825272,nan,nan,nan,nan
1,146,0,0,1.0,0.0,0.26698261295678094,0,0.0,0.0,0.0,0.4248940716006069,0.1492236593465819,0.275670412254025,0.5741177309471888,0.1492236593465819,0.20944277090408528,3,8,7,0,6,5,nan,nan,nan,nan,nan,nan,nan,nan,nan,nan,nan,nan,0.0,nan,nan,nan,nan,nan,nan,nan,nan,nan,nan,nan,nan,nan,nan,nan,nan,nan,nan,519.2506632820005,799.4115393102984,nan,799.6785219232552,nan,nan,nan,nan
1,147,1,1,1.0,1.0,0.44178200332680717,1,1.0,0.0,1.0,0.42373295793410815,0.14928486991182305,0.2744480880222851,0.5730178278459312,0.14928486991182305,0.24028901779092848,8,1,2,6,0,4,1.0,1.0,1.0,1.0,1.0,1.0,0.0,1.0,0.0,0.0,0.0,1.0,2.0,2.0,1.0,6.0,8.0,1.0,4.0,6.0,1.0,2.0,3.0,4.0,5.0,8.387006287579425,2.851695110963192,3.683367744728457,4.924829753348604,5.87573291733861,7.307265624694992,519.2506632820005,800.4366924224887,801.2451349343755,800.8784744258155,810.6796985253459,811.6789130785619,802.2535564629361,810.6713665177231
1,148,1,1,1.0,1.0,0.6770471079507843,0,0.0,0.0,0.0,0.42386470279098915,0.148746971617947,0.27511773117304217,0.5726116744089361,0.148746971617947,0.4619372414114575,6,7,8,4,5,1,nan,nan,nan,nan,nan,nan,nan,nan,nan,nan,nan,nan,0.0,nan,nan,nan,nan,nan,nan,nan,nan,nan,nan,nan,nan,nan,nan,nan,nan,nan,nan,519.2506632820005,811.9132342216908,nan,812.5902813296416,nan,nan,nan,nan
1,149,1,1,1.0,1.0,0.3719328375882469,0,0.0,0.0,0.0,0.42569935790084273,0.14975468980496126,0.2759446680958815,0.575454047705804,0.14975468980496126,0.4969206496219461,7,0,4,2,6,8,nan,nan,nan,nan,nan,nan,nan,nan,nan,nan,nan,nan,0.0,nan,nan,nan,nan,nan,nan,nan,nan,nan,nan,nan,nan,nan,nan,nan,nan,nan,nan,519.2506632820005,812.9383468498709,nan,813.3102796874591,nan,nan,nan,nan
1,150,0,0,0.0,1.0,0.7307785074808635,0,0.0,0.0,0.0,0.42531254840219096,0.14928420347677968,0.2760283449254113,0.5745967518789706,0.14928420347677968,0.5932528176732982,2,1,5,0,8,6,nan,nan,nan,nan,nan,nan,nan,nan,nan,nan,nan,nan,0.0,nan,nan,nan,nan,nan,nan,nan,nan,nan,nan,nan,nan,nan,nan,nan,nan,nan,nan,519.2506632820005,813.9635221997742,nan,814.694300707255,nan,nan,nan,nan
1,151,1,1,1.0,1.0,0.5056532208691351,0,0.0,0.0,0.0,0.4274944481098958,0.15095802301441397,0.2765364250954818,0.5784524711243098,0.15095802301441397,0.5361215219794152,1,4,6,3,2,7,nan,nan,nan,nan,nan,nan,nan,nan,nan,nan,nan,nan,0.0,nan,nan,nan,nan,nan,nan,nan,nan,nan,nan,nan,nan,nan,nan,nan,nan,nan,nan,519.2506632820005,814.9886621974874,nan,815.4943154183566,nan,nan,nan,nan
1,152,1,1,1.0,1.0,0.36844123457558453,0,0.0,0.0,0.0,0.42804876564719535,0.15056468011695462,0.27748408553024073,0.57861344576415,0.15056468011695462,0.5349576543085277,0,5,2,8,6,4,nan,nan,nan,nan,nan,nan,nan,nan,nan,nan,nan,nan,0.0,nan,nan,nan,nan,nan,nan,nan,nan,nan,nan,nan,nan,nan,nan,nan,nan,nan,nan,519.2506632820005,816.0137885104632,nan,816.3822297450388,nan,nan,nan,nan
1,153,0,0,0.0,1.0,0.6153372232220136,0,0.0,0.0,0.0,0.42762899430162066,0.15011636249375396,0.27751263180786667,0.5777453567953746,0.15011636249375396,0.4964772262222444,4,7,5,3,8,2,nan,nan,nan,nan,nan,nan,nan,nan,nan,nan,nan,nan,0.0,nan,nan,nan,nan,nan,nan,nan,nan,nan,nan,nan,nan,nan,nan,nan,nan,nan,nan,519.2506632820005,817.0389042747556,nan,817.6542414979776,nan,nan,nan,nan
1,154,1,1,1.0,1.0,0.5021040278952569,0,0.0,0.0,0.0,0.4289416392591059,0.15040613897907634,0.27853550028002955,0.5793477782381822,0.15040613897907634,0.4952941618976183,2,4,0,7,5,6,nan,nan,nan,nan,nan,nan,nan,nan,nan,nan,nan,nan,0.0,nan,nan,nan,nan,nan,nan,nan,nan,nan,nan,nan,nan,nan,nan,nan,nan,nan,nan,519.2506632820005,818.0641010070685,nan,818.5662050349638,nan,nan,nan,nan
1,155,1,1,1.0,1.0,0.3969850249122828,0,0.0,0.0,0.0,0.4294497114024125,0.15000607657206053,0.27944363483035195,0.5794557879744731,0.15000607657206053,0.5048087586765178,7,8,6,2,3,4,nan,nan,nan,nan,nan,nan,nan,nan,nan,nan,nan,nan,0.0,nan,nan,nan,nan,nan,nan,nan,nan,nan,nan,nan,nan,nan,nan,nan,nan,nan,nan,519.2506632820005,819.0892085034866,nan,819.4861935283989,nan,nan,nan,nan
1,156,1,1,1.0,1.0,0.2838538949727081,0,0.0,0.0,0.0,0.4292258170128254,0.1495120615694407,0.2797137554433847,0.5787378785822661,0.1495120615694407,0.39431431592674926,1,5,3,7,2,0,nan,nan,nan,nan,nan,nan,nan,nan,nan,nan,nan,nan,0.0,nan,nan,nan,nan,nan,nan,nan,nan,nan,nan,nan,nan,nan,nan,nan,nan,nan,nan,519.2506632820005,820.1143425140763,nan,820.398196409049,nan,nan,nan,nan
1,157,1,1,1.0,1.0,0.30666777287842706,0,0.0,0.0,0.0,0.42823011891666024,0.14948077829445963,0.2787493406222006,0.5777108972111199,0.14948077829445963,0.329168897587806,2,8,1,5,6,7,nan,nan,nan,nan,nan,nan,nan,nan,nan,nan,nan,nan,0.0,nan,nan,nan,nan,nan,nan,nan,nan,nan,nan,nan,nan,nan,nan,nan,nan,nan,nan,519.2506632820005,821.1394859329448,nan,821.4461537058232,nan,nan,nan,nan
1,158,1,1,1.0,1.0,0.3135235397494398,0,0.0,0.0,0.0,0.42740316418170626,0.14930620335646647,0.2780969608252398,0.5767093675381727,0.14930620335646647,0.30134840253352496,0,1,2,7,4,8,nan,nan,nan,nan,nan,nan,nan,nan,nan,nan,nan,nan,0.0,nan,nan,nan,nan,nan,nan,nan,nan,nan,nan,nan,nan,nan,nan,nan,nan,nan,nan,519.2506632820005,822.1646073992597,nan,822.4781309390091,nan,nan,nan,nan
1,159,1,1,1.0,1.0,0.2723367653670721,0,0.0,0.0,0.0,0.4266337072598666,0.14909309785222824,0.27754060940763836,0.5757268051120948,0.14909309785222824,0.2975093593316463,1,5,3,6,0,7,nan,nan,nan,nan,nan,nan,nan,nan,nan,nan,nan,nan,0.0,nan,nan,nan,nan,nan,nan,nan,nan,nan,nan,nan,nan,nan,nan,nan,nan,nan,nan,519.2506632820005,823.1897744812886,nan,823.4621112466557,nan,nan,nan,nan
1,160,1,1,1.0,1.0,0.26317911210935563,0,0.0,0.0,0.0,0.42559815731427736,0.1491250327724769,0.27647312454180045,0.5747231900867542,0.1491250327724769,0.2830131390752892,3,8,0,4,2,5,nan,nan,nan,nan,nan,nan,nan,nan,nan,nan,nan,nan,0.0,nan,nan,nan,nan,nan,nan,nan,nan,nan,nan,nan,nan,nan,nan,nan,nan,nan,nan,519.2506632820005,824.2149236021214,nan,824.4781027142308,nan,nan,nan,nan
1,161,1,1,1.0,1.0,0.3260544800432399,0,0.0,0.0,0.0,0.42451536367957793,0.14921365251313146,0.27530171116644647,0.5737290161927093,0.14921365251313146,0.2871901191732225,0,2,6,7,5,1,nan,nan,nan,nan,nan,nan,nan,nan,nan,nan,nan,nan,0.0,nan,nan,nan,nan,nan,nan,nan,nan,nan,nan,nan,nan,nan,nan,nan,nan,nan,nan,519.2506632820005,825.2400433578296,nan,825.5660978378728,nan,nan,nan,nan
1,162,1,1,1.0,1.0,0.29287584125995636,0,0.0,0.0,0.0,0.4238633048475492,0.1489330143609859,0.27493029048656326,0.5727963192085351,0.1489330143609859,0.29403647780418396,4,1,3,8,2,5,nan,nan,nan,nan,nan,nan,nan,nan,nan,nan,nan,nan,0.0,nan,nan,nan,nan,nan,nan,nan,nan,nan,nan,nan,nan,nan,nan,nan,nan,nan,nan,519.2506632820005,826.2651910531567,nan,826.5580668944167,nan,nan,nan,nan
1,163,1,1,1.0,1.0,0.31572564161615446,0,0.0,0.0,0.0,0.42300154521868344,0.14881952806019955,0.2741820171584839,0.571821073278883,0.14881952806019955,0.3115519876397836,2,8,7,4,6,0,nan,nan,nan,nan,nan,nan,nan,nan,nan,nan,nan,nan,0.0,nan,nan,nan,nan,nan,nan,nan,nan,nan,nan,nan,nan,nan,nan,nan,nan,nan,nan,519.2506632820005,827.2903279147577,nan,827.6060535563738,nan,nan,nan,nan
1,164,1,1,1.0,1.0,0.18661957973381504,1,1.0,0.0,1.0,0.4223003955219349,0.14858406209227457,0.2737163334296603,0.5708844576142095,0.14858406209227457,0.26507368753664196,0,5,3,1,4,2,1.0,1.0,1.0,1.0,1.0,1.0,0.0,0.0,1.0,0.0,0.0,0.0,1.0,5.0,2.0,3.0,0.0,5.0,6.0,5.0,6.0,1.0,2.0,3.0,4.0,6.859947861114051,7.65966378885787,1.8524822682375088,3.1010509305633605,4.395708923402708,5.6515932166948915,519.2506632820005,828.3154288539663,829.1238847654313,828.5020484337001,837.8334314072854,838.8330068954383,830.1323941044393,837.8250195720466
1,165,1,1,1.0,1.0,0.47525400860467926,0,0.0,0.0,0.0,0.4207700006142198,0.14930575181616032,0.2714642487980595,0.5700757524303801,0.14930575181616032,0.3258664099848829,1,2,8,0,6,4,nan,nan,nan,nan,nan,nan,nan,nan,nan,nan,nan,nan,0.0,nan,nan,nan,nan,nan,nan,nan,nan,nan,nan,nan,nan,nan,nan,nan,nan,nan,nan,519.2506632820005,839.0586102924426,nan,839.5338643010473,nan,nan,nan,nan
1,166,1,1,1.0,1.0,0.490169799013529,0,0.0,0.0,0.0,0.4211215103431905,0.14888725577251088,0.2722342545706796,0.5700087661157014,0.14888725577251088,0.38401446245067444,6,0,1,2,8,5,nan,nan,nan,nan,nan,nan,nan,nan,nan,nan,nan,nan,0.0,nan,nan,nan,nan,nan,nan,nan,nan,nan,nan,nan,nan,nan,nan,nan,nan,nan,nan,519.2506632820005,840.0837063849322,nan,840.5738761839457,nan,nan,nan,nan
1,167,1,1,1.0,1.0,0.488986924814526,0,0.0,0.0,0.0,0.4215641275782568,0.1485115556797058,0.273052571898551,0.5700756832579625,0.1485115556797058,0.4848035774775781,5,7,0,8,6,3,nan,nan,nan,nan,nan,nan,nan,nan,nan,nan,nan,nan,0.0,nan,nan,nan,nan,nan,nan,nan,nan,nan,nan,nan,nan,nan,nan,nan,nan,nan,nan,519.2506632820005,841.1088763179723,nan,841.5978632427868,nan,nan,nan,nan
1,168,1,1,1.0,1.0,0.41584515490103513,0,0.0,0.0,0.0,0.4219935721466407,0.14813497240620327,0.2738585997404374,0.5701285445528439,0.14813497240620327,0.46500062624303,4,5,6,1,3,7,nan,nan,nan,nan,nan,nan,nan,nan,nan,nan,nan,nan,0.0,nan,nan,nan,nan,nan,nan,nan,nan,nan,nan,nan,nan,nan,nan,nan,nan,nan,nan,519.2506632820005,842.1339818187407,nan,842.5498269736418,nan,nan,nan,nan
1,169,1,1,1.0,1.0,0.3266768504399806,0,0.0,0.0,0.0,0.42195465811344063,0.14766625175986012,0.27428840635358054,0.5696209098733007,0.14766625175986012,0.41050297671851393,5,6,8,0,1,2,nan,nan,nan,nan,nan,nan,nan,nan,nan,nan,nan,nan,0.0,nan,nan,nan,nan,nan,nan,nan,nan,nan,nan,nan,nan,nan,nan,nan,nan,nan,nan,519.2506632820005,843.1591528921272,nan,843.4858297425671,nan,nan,nan,nan
1,170,1,1,1.0,1.0,0.7255058932933025,0,0.0,0.0,0.0,0.421355426618639,0.14739374445400338,0.2739616821646356,0.5687491710726424,0.14739374445400338,0.4893426328781061,6,4,2,3,7,8,nan,nan,nan,nan,nan,nan,nan,nan,nan,nan,nan,nan,0.0,nan,nan,nan,nan,nan,nan,nan,nan,nan,nan,nan,nan,nan,nan,nan,nan,nan,nan,519.2506632820005,844.1842917494359,nan,844.9097976427292,nan,nan,nan,nan
1,171,1,1,1.0,1.0,0.6762984389788471,1,0.0,1.0,1.0,0.42325636703535563,0.148874757834121,0.27438160920123467,0.5721311248694766,0.148874757834121,0.5761603942373767,8,3,5,1,6,0,1.0,1.0,1.0,1.0,1.0,1.0,0.0,1.0,0.0,0.0,0.0,0.0,1.0,0.0,3.0,1.0,6.0,8.0,5.0,6.0,2.0,1.0,3.0,4.0,5.0,8.837404541845899,4.672331006382592,3.5901362144504674,5.615046707680449,6.574531910824589,7.718377857177984,519.2506632820005,845.2094753672136,846.0178494554129,845.8857738061924,855.9025227808161,856.9017609972507,847.0263408331666,855.894207308942
1,172,1,1,nan,nan,nan,0,0.0,0.0,0.0,0.0,0.0,0.0,0.0,0.0,0.0,7,4,6,0,8,1,nan,nan,nan,nan,nan,nan,nan,nan,nan,nan,nan,nan,0.0,nan,nan,nan,nan,nan,nan,nan,nan,nan,nan,nan,nan,nan,nan,nan,nan,nan,nan,519.2506632820005,857.1277330268058,nan,nan,nan,nan,nan,nan
1,173,1,1,1.0,1.0,0.38071587128797546,0,0.0,0.0,0.0,0.4248280569232034,0.14973731760675557,0.27509073931644784,0.574565374529959,0.14973731760675557,0.5285071551334113,1,8,3,7,4,0,nan,nan,nan,nan,nan,nan,nan,nan,nan,nan,nan,nan,0.0,nan,nan,nan,nan,nan,nan,nan,nan,nan,nan,nan,nan,nan,nan,nan,nan,nan,nan,519.2506632820005,858.1528513570083,nan,858.5335672282963,nan,nan,nan,nan
1,174,1,1,1.0,1.0,0.4595821365946904,0,0.0,0.0,0.0,0.42455575948101065,0.14931442966952777,0.27524132981148286,0.5738701891505384,0.14931442966952777,0.4201490039413329,2,6,0,3,5,4,nan,nan,nan,nan,nan,nan,nan,nan,nan,nan,nan,nan,0.0,nan,nan,nan,nan,nan,nan,nan,nan,nan,nan,nan,nan,nan,nan,nan,nan,nan,nan,519.2506632820005,859.1780044692568,nan,859.6375866058515,nan,nan,nan,nan
1,175,1,1,1.0,1.0,0.514441101171542,0,0.0,0.0,0.0,0.4247706452301743,0.14888082983893364,0.2758898153912407,0.573651475069108,0.14888082983893364,0.45157970301806927,5,1,2,4,8,7,nan,nan,nan,nan,nan,nan,nan,nan,nan,nan,nan,nan,0.0,nan,nan,nan,nan,nan,nan,nan,nan,nan,nan,nan,nan,nan,nan,nan,nan,nan,nan,519.2506632820005,860.2031327778823,nan,860.7175738790538,nan,nan,nan,nan
1,176,1,1,1.0,1.0,0.3933035461814143,0,0.0,0.0,0.0,0.4253174163029876,0.14859029661928264,0.27672711968370495,0.5739077129222703,0.14859029661928264,0.4557755946492155,2,4,6,0,7,1,nan,nan,nan,nan,nan,nan,nan,nan,nan,nan,nan,nan,0.0,nan,nan,nan,nan,nan,nan,nan,nan,nan,nan,nan,nan,nan,nan,nan,nan,nan,nan,519.2506632820005,861.228284179524,nan,861.6215877257055,nan,nan,nan,nan
1,177,1,1,1.0,1.0,0.38409543049056083,0,0.0,0.0,0.0,0.4251233928477053,0.14816017502241755,0.27696321782528777,0.5732835678701228,0.14816017502241755,0.43061335928117234,1,6,8,5,3,7,nan,nan,nan,nan,nan,nan,nan,nan,nan,nan,nan,nan,0.0,nan,nan,nan,nan,nan,nan,nan,nan,nan,nan,nan,nan,nan,nan,nan,nan,nan,nan,519.2506632820005,862.2534458446898,nan,862.6375412751804,nan,nan,nan,nan
1,178,1,1,1.0,1.0,0.38296244852244854,0,0.0,0.0,0.0,0.42487623644796346,0.14774734896023028,0.2771288874877332,0.5726235854081938,0.14774734896023028,0.38678714173147455,3,5,6,0,1,2,nan,nan,nan,nan,nan,nan,nan,nan,nan,nan,nan,nan,0.0,nan,nan,nan,nan,nan,nan,nan,nan,nan,nan,nan,nan,nan,nan,nan,nan,nan,nan,519.2506632820005,863.2785593281733,nan,863.6615217766957,nan,nan,nan,nan
1,179,1,1,1.0,1.0,0.4618250075727701,0,0.0,0.0,0.0,0.4246252556819424,0.14733981621332162,0.27728543946862083,0.571965071895264,0.14733981621332162,0.4096276288619265,5,3,7,8,6,0,nan,nan,nan,nan,nan,nan,nan,nan,nan,nan,nan,nan,0.0,nan,nan,nan,nan,nan,nan,nan,nan,nan,nan,nan,nan,nan,nan,nan,nan,nan,nan,519.2506632820005,864.3036862113513,nan,864.7655112189241,nan,nan,nan,nan
1,180,1,1,1.0,1.0,0.4126600330346264,0,0.0,0.0,0.0,0.42484668277653065,0.14692851690217565,0.277918165874355,0.5717751996787063,0.14692851690217565,0.4191491630432817,1,8,0,7,5,4,nan,nan,nan,nan,nan,nan,nan,nan,nan,nan,nan,nan,0.0,nan,nan,nan,nan,nan,nan,nan,nan,nan,nan,nan,nan,nan,nan,nan,nan,nan,nan,519.2506632820005,865.3288324811729,nan,865.7414925142075,nan,nan,nan,nan
1,181,0,0,0.0,1.0,0.7154892378021032,0,0.0,0.0,0.0,0.4247745724230283,0.14649615381449846,0.27827841860852986,0.5712707262375267,0.14649615381449846,0.5299914261364999,0,3,4,6,8,7,nan,nan,nan,nan,nan,nan,nan,nan,nan,nan,nan,nan,0.0,nan,nan,nan,nan,nan,nan,nan,nan,nan,nan,nan,nan,nan,nan,nan,nan,nan,nan,519.2506632820005,866.3539770404459,nan,867.069466278248,nan,nan,nan,nan
1,182,1,1,nan,nan,nan,0,0.0,0.0,0.0,0.0,0.0,0.0,0.0,0.0,0.0,3,2,5,1,6,8,nan,nan,nan,nan,nan,nan,nan,nan,nan,nan,nan,nan,0.0,nan,nan,nan,nan,nan,nan,nan,nan,nan,nan,nan,nan,nan,nan,nan,nan,nan,nan,519.2506632820005,867.3791364248609,nan,nan,nan,nan,nan,nan
1,183,1,1,1.0,1.0,0.6811146102263592,1,0.0,1.0,1.0,0.426484658689964,0.14774675611930518,0.2787379025706588,0.5742314148092692,0.14774675611930518,0.6983019240142312,6,4,3,8,0,1,1.0,1.0,1.0,1.0,1.0,1.0,0.0,1.0,0.0,0.0,0.0,0.0,1.0,8.0,4.0,8.0,6.0,5.0,3.0,6.0,2.0,1.0,3.0,4.0,5.0,9.258559373789467,2.778878353536129,1.5307487431564368,4.139845727419015,5.603526727179997,8.11444942606613,519.2506632820005,868.4042898221524,869.2126750291791,869.0854044323787,879.522397633933,880.5217427623575,870.2211681175395,879.5140807365533
1,184,1,1,1.0,1.0,0.37766189471585676,0,0.0,0.0,0.0,0.4279737227340365,0.1485879919738075,0.279385730760229,0.576561714707844,0.1485879919738075,0.529388252471108,7,1,6,0,8,2,nan,nan,nan,nan,nan,nan,nan,nan,nan,nan,nan,nan,0.0,nan,nan,nan,nan,nan,nan,nan,nan,nan,nan,nan,nan,nan,nan,nan,nan,nan,nan,519.2506632820005,880.7475984716439,nan,881.1252603663597,nan,nan,nan,nan
1,185,0,0,nan,nan,nan,0,0.0,0.0,0.0,0.0,0.0,0.0,0.0,0.0,0.0,2,0,1,7,5,6,nan,nan,nan,nan,nan,nan,nan,nan,nan,nan,nan,nan,0.0,nan,nan,nan,nan,nan,nan,nan,nan,nan,nan,nan,nan,nan,nan,nan,nan,nan,nan,519.2506632820005,881.7727607070701,nan,nan,nan,nan,nan,nan
1,186,1,1,1.0,1.0,0.5113375174114481,0,0.0,0.0,0.0,0.42768121210602383,0.14820479007202386,0.27947642203399997,0.5758860021780476,0.14820479007202386,0.4444997060636524,0,4,6,8,7,5,nan,nan,nan,nan,nan,nan,nan,nan,nan,nan,nan,nan,0.0,nan,nan,nan,nan,nan,nan,nan,nan,nan,nan,nan,nan,nan,nan,nan,nan,nan,nan,519.2506632820005,882.7978833137313,nan,883.3092208311427,nan,nan,nan,nan
1,187,1,1,1.0,1.0,0.39820353651884943,0,0.0,0.0,0.0,0.4281647745644367,0.14791185099528004,0.28025292356915665,0.5760766255597167,0.14791185099528004,0.45477052696514875,4,3,5,2,6,1,nan,nan,nan,nan,nan,nan,nan,nan,nan,nan,nan,nan,0.0,nan,nan,nan,nan,nan,nan,nan,nan,nan,nan,nan,nan,nan,nan,nan,nan,nan,nan,519.2506632820005,883.8230161839165,nan,884.2212197204353,nan,nan,nan,nan
1,188,1,1,1.0,1.0,0.35697570792399347,0,0.0,0.0,0.0,0.4279925835411862,0.1475035929184073,0.2804889906227789,0.5754961764595935,0.1475035929184073,0.4221722539514303,6,0,2,4,3,5,nan,nan,nan,nan,nan,nan,nan,nan,nan,nan,nan,nan,0.0,nan,nan,nan,nan,nan,nan,nan,nan,nan,nan,nan,nan,nan,nan,nan,nan,nan,nan,519.2506632820005,884.8482263158658,nan,885.2052020237898,nan,nan,nan,nan
1,189,1,1,1.0,1.0,0.2910928343771957,0,0.0,0.0,0.0,0.42758677282337365,0.1471789290812121,0.28040784374216154,0.5747657019045858,0.1471789290812121,0.34875735960667953,2,6,4,5,8,1,nan,nan,nan,nan,nan,nan,nan,nan,nan,nan,nan,nan,0.0,nan,nan,nan,nan,nan,nan,nan,nan,nan,nan,nan,nan,nan,nan,nan,nan,nan,nan,519.2506632820005,885.8740938853007,nan,886.1651867196779,nan,nan,nan,nan
1,190,1,1,1.0,1.0,0.30671566940145567,0,0.0,0.0,0.0,0.4268112390822022,0.14711836691502633,0.27969287216717587,0.5739296059972285,0.14711836691502633,0.3182614039008816,0,5,8,7,3,4,nan,nan,nan,nan,nan,nan,nan,nan,nan,nan,nan,nan,0.0,nan,nan,nan,nan,nan,nan,nan,nan,nan,nan,nan,nan,nan,nan,nan,nan,nan,nan,519.2506632820005,886.8984472958255,nan,887.2051629652269,nan,nan,nan,nan
1,191,0,0,0.0,1.0,0.5935676615918055,0,0.0,0.0,0.0,0.42613273303880816,0.1469780856071244,0.2791546474316838,0.5731108186459326,0.1469780856071244,0.39712538845681894,4,2,7,0,1,6,nan,nan,nan,nan,nan,nan,nan,nan,nan,nan,nan,nan,0.0,nan,nan,nan,nan,nan,nan,nan,nan,nan,nan,nan,nan,nan,nan,nan,nan,nan,nan,519.2506632820005,887.9235835872241,nan,888.5171512488159,nan,nan,nan,nan
1,192,1,1,1.0,1.0,0.40042274427833036,0,0.0,0.0,0.0,0.4270733787048362,0.14709795066870038,0.27997542803613584,0.5741713293735365,0.14709795066870038,0.4335686917571972,7,6,3,5,2,4,nan,nan,nan,nan,nan,nan,nan,nan,nan,nan,nan,nan,0.0,nan,nan,nan,nan,nan,nan,nan,nan,nan,nan,nan,nan,nan,nan,nan,nan,nan,nan,519.2506632820005,888.9487195935217,nan,889.3491423378,nan,nan,nan,nan
1,193,1,1,1.0,1.0,0.3592924193944782,0,0.0,0.0,0.0,0.42692449247898984,0.14669993603386264,0.2802245564451272,0.5736244285128524,0.14669993603386264,0.4510942750882047,2,7,1,3,5,0,nan,nan,nan,nan,nan,nan,nan,nan,nan,nan,nan,nan,0.0,nan,nan,nan,nan,nan,nan,nan,nan,nan,nan,nan,nan,nan,nan,nan,nan,nan,nan,519.2506632820005,889.9738575955271,nan,890.3331500149216,nan,nan,nan,nan
1,194,1,1,1.0,1.0,0.43810708192177117,0,0.0,0.0,0.0,0.42654875873963144,0.14637821324391784,0.28017054549571363,0.5729269719835492,0.14637821324391784,0.3992740818648599,8,1,7,0,4,2,nan,nan,nan,nan,nan,nan,nan,nan,nan,nan,nan,nan,0.0,nan,nan,nan,nan,nan,nan,nan,nan,nan,nan,nan,nan,nan,nan,nan,nan,nan,nan,519.2506632820005,890.9990015845979,nan,891.4371086665196,nan,nan,nan,nan
1,195,1,1,1.0,1.0,0.3166168599273078,0,0.0,0.0,0.0,0.4266126168787593,0.14597580767151416,0.2806368092072451,0.5725884245502735,0.14597580767151416,0.37133878708118573,7,5,2,8,6,4,nan,nan,nan,nan,nan,nan,nan,nan,nan,nan,nan,nan,0.0,nan,nan,nan,nan,nan,nan,nan,nan,nan,nan,nan,nan,nan,nan,nan,nan,nan,nan,519.2506632820005,892.0324630412506,nan,892.3490799011779,nan,nan,nan,nan
1,196,1,1,1.0,1.0,0.29947672999696806,0,0.0,0.0,0.0,0.4260082445878172,0.1458011230369517,0.2802071215508655,0.5718093676247689,0.1458011230369517,0.35140022394868237,0,3,5,4,1,6,nan,nan,nan,nan,nan,nan,nan,nan,nan,nan,nan,nan,0.0,nan,nan,nan,nan,nan,nan,nan,nan,nan,nan,nan,nan,nan,nan,nan,nan,nan,nan,519.2506632820005,893.0575990475481,nan,893.3570757775451,nan,nan,nan,nan
1,197,1,1,1.0,1.0,0.23429149284493178,0,0.0,0.0,0.0,0.42531681554633716,0.14570110916479853,0.27961570638153865,0.5710179247111357,0.14570110916479853,0.28346169425640255,5,0,1,2,4,8,nan,nan,nan,nan,nan,nan,nan,nan,nan,nan,nan,nan,0.0,nan,nan,nan,nan,nan,nan,nan,nan,nan,nan,nan,nan,nan,nan,nan,nan,nan,nan,519.2506632820005,894.0827709762962,nan,894.3170624691411,nan,nan,nan,nan
1,198,1,1,1.0,1.0,0.2811585724703036,1,1.0,0.0,1.0,0.4242786344446991,0.14598178066789236,0.27829685377680674,0.5702604151125914,0.14598178066789236,0.2716422651040678,1,8,4,6,7,0,1.0,1.0,1.0,1.0,1.0,1.0,1.0,0.0,0.0,1.0,0.0,0.0,2.0,1.0,4.0,7.0,6.0,0.0,5.0,6.0,1.0,3.0,2.0,4.0,5.0,10.401906967745163,1.795919269148726,4.603880249429494,2.8425710992887616,7.306008909887169,9.057959697325714,519.2506632820005,895.1078915872495,895.9163155677379,895.3890501597198,907.3761973429937,908.3758854451007,896.9331195664126,907.3678633397212
1,199,1,1,nan,nan,nan,0,0.0,0.0,0.0,0.0,0.0,0.0,0.0,0.0,0.0,5,0,6,3,1,8,nan,nan,nan,nan,nan,nan,nan,nan,nan,nan,nan,nan,0.0,nan,nan,nan,nan,nan,nan,nan,nan,nan,nan,nan,nan,nan,nan,nan,nan,nan,nan,519.2506632820005,908.6014286862919,nan,nan,nan,nan,nan,nan
1,200,1,1,1.0,1.0,0.4582521514967084,0,0.0,0.0,0.0,0.42350501248808076,0.14596441262169624,0.2775405998663845,0.5694694251097769,0.14596441262169624,0.369705361983506,8,5,0,6,4,2,nan,nan,nan,nan,nan,nan,nan,nan,nan,nan,nan,nan,0.0,nan,nan,nan,nan,nan,nan,nan,nan,nan,nan,nan,nan,nan,nan,nan,nan,nan,nan,519.2506632820005,909.6265381784178,nan,910.0847903299145,nan,nan,nan,nan
1,201,1,1,nan,nan,nan,0,0.0,0.0,0.0,0.0,0.0,0.0,0.0,0.0,0.0,6,4,3,2,0,7,nan,nan,nan,nan,nan,nan,nan,nan,nan,nan,nan,nan,0.0,nan,nan,nan,nan,nan,nan,nan,nan,nan,nan,nan,nan,nan,nan,nan,nan,nan,nan,519.2506632820005,910.651685303601,nan,nan,nan,nan,nan,nan
1,202,1,1,1.0,1.0,0.67194697848754,0,0.0,0.0,0.0,0.4236918250633959,0.14559368037999557,0.27809814468340033,0.5692855054433915,0.14559368037999557,0.5650995649921242,7,3,2,1,8,5,nan,nan,nan,nan,nan,nan,nan,nan,nan,nan,nan,nan,0.0,nan,nan,nan,nan,nan,nan,nan,nan,nan,nan,nan,nan,nan,nan,nan,nan,nan,nan,519.2506632820005,911.6768558068434,nan,912.3488027853309,nan,nan,nan,nan
1,203,1,1,1.0,1.0,0.502826182753779,1,0.0,1.0,1.0,0.4250193927287657,0.14632831962561624,0.27869107310314944,0.571347712354382,0.14632831962561624,0.5873865806206595,8,2,5,7,6,0,1.0,1.0,1.0,1.0,1.0,1.0,0.0,1.0,1.0,0.0,0.0,0.0,2.0,6.0,2.0,5.0,4.0,0.0,7.0,6.0,1.0,2.0,3.0,4.0,5.0,9.0083730618353,3.072504289331846,4.097807363432366,6.112171487999149,7.081600076169707,8.200857405667193,519.2506632820005,912.7019453420653,913.5103656162391,913.2047715248191,923.5700669810758,924.5695703392848,914.5188532876782,923.5617358287564
1,204,0,0,1.0,0.0,0.745345622242894,0,0.0,0.0,0.0,0.42543325863315407,0.14604832734971016,0.2793849312834439,0.5714815859828642,0.14604832734971016,0.6400395944947377,3,5,6,8,2,1,nan,nan,nan,nan,nan,nan,nan,nan,nan,nan,nan,nan,0.0,nan,nan,nan,nan,nan,nan,nan,nan,nan,nan,nan,nan,nan,nan,nan,nan,nan,nan,519.2506632820005,924.7952581254649,nan,925.5406037477078,nan,nan,nan,nan
1,205,1,1,nan,nan,nan,0,0.0,0.0,0.0,0.0,0.0,0.0,0.0,0.0,0.0,6,7,0,4,5,8,nan,nan,nan,nan,nan,nan,nan,nan,nan,nan,nan,nan,0.0,nan,nan,nan,nan,nan,nan,nan,nan,nan,nan,nan,nan,nan,nan,nan,nan,nan,nan,519.2506632820005,925.8203981231782,nan,nan,nan,nan,nan,nan
1,206,1,1,1.0,1.0,0.5510095627396367,1,0.0,1.0,1.0,0.4271259166416712,0.14749879087363663,0.2796271257680346,0.5746247075153078,0.14749879087363663,0.6481775924912654,8,0,5,2,4,1,1.0,1.0,1.0,1.0,1.0,1.0,0.0,1.0,0.0,0.0,1.0,0.0,2.0,5.0,0.0,3.0,6.0,4.0,0.0,6.0,1.0,2.0,3.0,4.0,5.0,6.792428236396518,1.6023429976194166,2.8569851161446422,4.160994059115183,5.088830177555792,5.857176132209133,519.2506632820005,926.8455361251836,927.6539595354116,927.3965456879232,935.496679456206,936.4960596517776,928.6624529088731,935.4883614184218
1,207,1,1,1.0,1.0,0.7145005157217383,0,0.0,0.0,0.0,0.4277779358316605,0.14738296371397577,0.2803949721176847,0.5751608995456363,0.14738296371397577,0.6327550392306875,7,8,0,5,6,3,nan,nan,nan,nan,nan,nan,nan,nan,nan,nan,nan,nan,0.0,nan,nan,nan,nan,nan,nan,nan,nan,nan,nan,nan,nan,nan,nan,nan,nan,nan,nan,519.2506632820005,936.7218928383081,nan,937.4363933540299,nan,nan,nan,nan
1,208,1,1,1.0,1.0,0.4893626847770065,0,0.0,0.0,0.0,0.4292791011713991,0.1484458693189608,0.2808332318524383,0.57772497049036,0.1484458693189608,0.5849575877461272,4,0,8,2,1,7,nan,nan,nan,nan,nan,nan,nan,nan,nan,nan,nan,nan,0.0,nan,nan,nan,nan,nan,nan,nan,nan,nan,nan,nan,nan,nan,nan,nan,nan,nan,nan,519.2506632820005,937.7470425293432,nan,938.2364052141202,nan,nan,nan,nan
1,209,1,1,1.0,1.0,0.3922395581030287,0,0.0,0.0,0.0,0.42959203650267835,0.14812193866833712,0.28147009783434124,0.5777139751710154,0.14812193866833712,0.5320342528672578,6,5,3,0,8,1,nan,nan,nan,nan,nan,nan,nan,nan,nan,nan,nan,nan,0.0,nan,nan,nan,nan,nan,nan,nan,nan,nan,nan,nan,nan,nan,nan,nan,nan,nan,nan,519.2506632820005,938.7721574383322,nan,939.1643969964352,nan,nan,nan,nan
1,210,1,1,1.0,1.0,0.5670782920788042,0,0.0,0.0,0.0,0.4293985003451672,0.14776204179016747,0.28163645855499975,0.5771605421353346,0.14776204179016747,0.48289351165294647,4,3,5,8,0,6,nan,nan,nan,nan,nan,nan,nan,nan,nan,nan,nan,nan,0.0,nan,nan,nan,nan,nan,nan,nan,nan,nan,nan,nan,nan,nan,nan,nan,nan,nan,nan,519.2506632820005,939.7973054187605,nan,940.3643837108393,nan,nan,nan,nan
1,211,1,1,nan,nan,nan,0,0.0,0.0,0.0,0.0,0.0,0.0,0.0,0.0,0.0,3,1,6,7,5,2,nan,nan,nan,nan,nan,nan,nan,nan,nan,nan,nan,nan,0.0,nan,nan,nan,nan,nan,nan,nan,nan,nan,nan,nan,nan,nan,nan,nan,nan,nan,nan,519.2506632820005,940.822440854914,nan,nan,nan,nan,nan,nan
1,212,1,1,1.0,1.0,0.5807462057564408,0,0.0,0.0,0.0,0.4301081899932787,0.14771013106566755,0.28239805892761116,0.5778183210589463,0.14771013106566755,0.5739122489176225,7,2,0,6,3,5,nan,nan,nan,nan,nan,nan,nan,nan,nan,nan,nan,nan,0.0,nan,nan,nan,nan,nan,nan,nan,nan,nan,nan,nan,nan,nan,nan,nan,nan,nan,nan,519.2506632820005,941.8475959628122,nan,942.4283421685686,nan,nan,nan,nan
1,213,1,1,nan,nan,nan,0,0.0,0.0,0.0,0.0,0.0,0.0,0.0,0.0,0.0,6,0,8,5,2,3,nan,nan,nan,nan,nan,nan,nan,nan,nan,nan,nan,nan,0.0,nan,nan,nan,nan,nan,nan,nan,nan,nan,nan,nan,nan,nan,nan,nan,nan,nan,nan,519.2506632820005,942.872722845932,nan,nan,nan,nan,nan,nan
1,214,1,1,1.0,1.0,0.6824115239433013,1,0.0,1.0,1.0,0.43088069263821804,0.14772327404597566,0.2831574185922424,0.5786039666841937,0.14772327404597566,0.631578864849871,3,6,0,8,4,2,1.0,1.0,1.0,1.0,1.0,1.0,0.0,1.0,1.0,1.0,0.0,0.0,3.0,7.0,6.0,0.0,8.0,3.0,1.0,6.0,1.0,2.0,3.0,4.0,5.0,7.435449107375462,2.604964194470085,3.293007841974031,4.285045607248321,5.492124435317237,6.659421455056872,519.2506632820005,943.897879949538,944.7062808370101,944.5802914734813,953.1990943556884,954.1987941468251,945.7230885419413,953.1907671947265
1,215,1,1,1.0,1.0,0.43583826697431505,0,0.0,0.0,0.0,0.4321640132061011,0.14843172131447238,0.28373229189162874,0.5805957345205734,0.14843172131447238,0.5591248954588082,0,8,3,2,1,4,nan,nan,nan,nan,nan,nan,nan,nan,nan,nan,nan,nan,0.0,nan,nan,nan,nan,nan,nan,nan,nan,nan,nan,nan,nan,nan,nan,nan,nan,nan,nan,519.2506632820005,954.4243234181777,nan,954.860161685152,nan,nan,nan,nan
1,216,1,1,1.0,1.0,0.4667198660899885,0,0.0,0.0,0.0,0.43218266424045754,0.14805474201143073,0.28412792222902683,0.5802374062518882,0.14805474201143073,0.528323219002535,4,3,7,1,2,8,nan,nan,nan,nan,nan,nan,nan,nan,nan,nan,nan,nan,0.0,nan,nan,nan,nan,nan,nan,nan,nan,nan,nan,nan,nan,nan,nan,nan,nan,nan,nan,519.2506632820005,955.4494349060114,nan,955.9161547721014,nan,nan,nan,nan
1,217,1,1,1.0,1.0,0.3135557558853179,0,0.0,0.0,0.0,0.4323570945528289,0.14770068526158264,0.28465640929124625,0.5800577798144115,0.14770068526158264,0.4053712963165405,7,0,1,6,3,5,nan,nan,nan,nan,nan,nan,nan,nan,nan,nan,nan,nan,0.0,nan,nan,nan,nan,nan,nan,nan,nan,nan,nan,nan,nan,nan,nan,nan,nan,nan,nan,519.2506632820005,956.4745751888258,nan,956.7881309447112,nan,nan,nan,nan
1,218,0,0,0.0,1.0,0.5923927701660432,0,0.0,0.0,0.0,0.43176010290123334,0.14756840395222742,0.2841916989490059,0.5793285068534608,0.14756840395222742,0.4575561307137832,5,4,7,3,1,2,nan,nan,nan,nan,nan,nan,nan,nan,nan,nan,nan,nan,0.0,nan,nan,nan,nan,nan,nan,nan,nan,nan,nan,nan,nan,nan,nan,nan,nan,nan,nan,519.2506632820005,957.4997129056719,nan,958.092105675838,nan,nan,nan,nan
1,219,1,1,1.0,1.0,0.5112730851396918,0,0.0,0.0,0.0,0.4325632662375574,0.1476344162903791,0.2849288499471783,0.5801976825279365,0.1476344162903791,0.472407203730351,3,7,6,2,4,0,nan,nan,nan,nan,nan,nan,nan,nan,nan,nan,nan,nan,0.0,nan,nan,nan,nan,nan,nan,nan,nan,nan,nan,nan,nan,nan,nan,nan,nan,nan,nan,519.2506632820005,958.5248477716232,nan,959.0361208567629,nan,nan,nan,nan
1,220,1,1,1.0,1.0,0.6060532712726854,0,0.0,0.0,0.0,0.432954857376374,0.1473707982611219,0.2855840591152521,0.5803256556374959,0.1473707982611219,0.5699063755261401,7,5,1,3,6,8,nan,nan,nan,nan,nan,nan,nan,nan,nan,nan,nan,nan,0.0,nan,nan,nan,nan,nan,nan,nan,nan,nan,nan,nan,nan,nan,nan,nan,nan,nan,nan,519.2506632820005,959.550027112884,nan,960.1560803841567,nan,nan,nan,nan
1,221,1,1,nan,nan,nan,0,0.0,0.0,0.0,0.0,0.0,0.0,0.0,0.0,0.0,3,4,0,2,8,7,nan,nan,nan,nan,nan,nan,nan,nan,nan,nan,nan,nan,0.0,nan,nan,nan,nan,nan,nan,nan,nan,nan,nan,nan,nan,nan,nan,nan,nan,nan,nan,519.2506632820005,960.575134039158,nan,nan,nan,nan,nan,nan
1,222,1,1,1.0,1.0,0.5638295931275934,1,0.0,1.0,1.0,0.4338117802174448,0.1475067260945532,0.28630505412289164,0.581318506311998,0.1475067260945532,0.5849414322001394,2,8,3,1,6,5,1.0,1.0,1.0,1.0,1.0,1.0,0.0,0.0,0.0,0.0,0.0,0.0,0.0,5.0,0.0,1.0,3.0,8.0,6.0,5.0,6.0,1.0,2.0,3.0,4.0,8.437157988548279,9.613364625780378,1.6233958212542348,3.1179946276242845,4.374851107248105,6.3825943862320855,519.2506632820005,961.6002606371767,962.4087079957244,962.1640902303043,973.0685035001952,974.0686172545538,963.4171645914321,973.0601438379963
1,223,0,0,nan,nan,nan,0,0.0,0.0,0.0,0.0,0.0,0.0,0.0,0.0,0.0,0,1,5,6,3,8,nan,nan,nan,nan,nan,nan,nan,nan,nan,nan,nan,nan,0.0,nan,nan,nan,nan,nan,nan,nan,nan,nan,nan,nan,nan,nan,nan,nan,nan,nan,nan,519.2506632820005,974.2936687005567,nan,nan,nan,nan,nan,nan
1,224,1,1,1.0,1.0,0.5730479724588804,0,0.0,0.0,0.0,0.43445226205444065,0.14742426752026946,0.28702799453417116,0.5818765295747101,0.14742426752026946,0.5684387827932369,3,5,2,1,4,7,nan,nan,nan,nan,nan,nan,nan,nan,nan,nan,nan,nan,0.0,nan,nan,nan,nan,nan,nan,nan,nan,nan,nan,nan,nan,nan,nan,nan,nan,nan,nan,519.2506632820005,975.3187992899911,nan,975.89184726245,nan,nan,nan,nan
1,225,0,0,0.0,1.0,0.6678703530924395,0,0.0,0.0,0.0,0.4351316527917173,0.14738071422905424,0.28775093856266304,0.5825123670207715,0.14738071422905424,0.6204591627756599,7,2,4,3,1,5,nan,nan,nan,nan,nan,nan,nan,nan,nan,nan,nan,nan,0.0,nan,nan,nan,nan,nan,nan,nan,nan,nan,nan,nan,nan,nan,nan,nan,nan,nan,nan,519.2506632820005,976.3439546830487,nan,977.0118250361411,nan,nan,nan,nan
1,226,1,1,1.0,1.0,0.37046572007238865,0,0.0,0.0,0.0,0.4362669635248916,0.14791233984230262,0.28835462368258896,0.5841793033671943,0.14791233984230262,0.5371280152079029,3,1,5,2,7,6,nan,nan,nan,nan,nan,nan,nan,nan,nan,nan,nan,nan,0.0,nan,nan,nan,nan,nan,nan,nan,nan,nan,nan,nan,nan,nan,nan,nan,nan,nan,nan,519.2506632820005,977.3774047357147,nan,977.747870455787,nan,nan,nan,nan
1,227,1,1,1.0,1.0,0.4092194626573473,0,0.0,0.0,0.0,0.4359475400129862,0.14762375328656033,0.2883237867264259,0.5835712932995465,0.14762375328656033,0.48251851194072515,5,4,7,6,3,0,nan,nan,nan,nan,nan,nan,nan,nan,nan,nan,nan,nan,0.0,nan,nan,nan,nan,nan,nan,nan,nan,nan,nan,nan,nan,nan,nan,nan,nan,nan,nan,519.2506632820005,978.4025897789979,nan,978.8118092416553,nan,nan,nan,nan
1,228,1,1,1.0,1.0,0.5600657209288329,0,0.0,0.0,0.0,0.4358184188663406,0.1472784027879423,0.2885400160783983,0.5830968216542829,0.1472784027879423,0.44658363455285627,2,0,1,4,5,3,nan,nan,nan,nan,nan,nan,nan,nan,nan,nan,nan,nan,0.0,nan,nan,nan,nan,nan,nan,nan,nan,nan,nan,nan,nan,nan,nan,nan,nan,nan,nan,519.2506632820005,979.4277089645038,nan,979.9877746854327,nan,nan,nan,nan
1,229,1,1,1.0,1.0,0.5989249500562437,0,0.0,0.0,0.0,0.43641576166471796,0.14717508631935095,0.289240675345367,0.5835908479840689,0.14717508631935095,0.5227367112141413,5,1,3,8,4,7,nan,nan,nan,nan,nan,nan,nan,nan,nan,nan,nan,nan,0.0,nan,nan,nan,nan,nan,nan,nan,nan,nan,nan,nan,nan,nan,nan,nan,nan,nan,nan,519.2506632820005,980.4528512429679,nan,981.0517761930241,nan,nan,nan,nan
1,230,0,0,0.0,1.0,0.6297634992515668,0,0.0,0.0,0.0,0.43719331759003627,0.1472502042015443,0.289943113388492,0.5844435217915805,0.1472502042015443,0.5962513900788812,3,4,0,5,2,1,nan,nan,nan,nan,nan,nan,nan,nan,nan,nan,nan,nan,0.0,nan,nan,nan,nan,nan,nan,nan,nan,nan,nan,nan,nan,nan,nan,nan,nan,nan,nan,519.2506632820005,981.4779843983124,nan,982.107747897564,nan,nan,nan,nan
1,231,1,1,nan,nan,nan,0,0.0,0.0,0.0,0.0,0.0,0.0,0.0,0.0,0.0,0,3,7,6,1,5,nan,nan,nan,nan,nan,nan,nan,nan,nan,nan,nan,nan,0.0,nan,nan,nan,nan,nan,nan,nan,nan,nan,nan,nan,nan,nan,nan,nan,nan,nan,nan,519.2506632820005,982.5030967413913,nan,nan,nan,nan,nan,nan
1,232,1,1,1.0,1.0,0.379447182349395,0,0.0,0.0,0.0,0.4381103184550912,0.14749616329243886,0.2906141551626523,0.58560648174753,0.14749616329243886,0.5046053408004809,2,4,3,1,8,7,nan,nan,nan,nan,nan,nan,nan,nan,nan,nan,nan,nan,0.0,nan,nan,nan,nan,nan,nan,nan,nan,nan,nan,nan,nan,nan,nan,nan,nan,nan,nan,519.2506632820005,983.5282792187645,nan,983.9077264011139,nan,nan,nan,nan
1,233,1,1,1.0,1.0,0.33028163749258965,0,0.0,0.0,0.0,0.43783229411335806,0.14720137853542326,0.2906309155779348,0.5850336726487813,0.14720137853542326,0.35486440992099233,7,3,0,8,4,5,nan,nan,nan,nan,nan,nan,nan,nan,nan,nan,nan,nan,0.0,nan,nan,nan,nan,nan,nan,nan,nan,nan,nan,nan,nan,nan,nan,nan,nan,nan,nan,519.2506632820005,984.5534280545544,nan,984.883709692047,nan,nan,nan,nan
1,234,1,1,1.0,1.0,0.3531211743247695,0,0.0,0.0,0.0,0.4373249796953355,0.14703857237737453,0.29028640731796096,0.5843635520727101,0.14703857237737453,0.35428333138891804,8,0,4,7,2,6,nan,nan,nan,nan,nan,nan,nan,nan,nan,nan,nan,nan,0.0,nan,nan,nan,nan,nan,nan,nan,nan,nan,nan,nan,nan,nan,nan,nan,nan,nan,nan,519.2506632820005,985.5785865836078,nan,985.9317077579326,nan,nan,nan,nan
1,235,1,1,1.0,1.0,0.39199038193328306,0,0.0,0.0,0.0,0.43692965666542677,0.14680588965702526,0.2901237670084015,0.5837355463224521,0.14680588965702526,0.35846439791688073,7,4,3,1,6,8,nan,nan,nan,nan,nan,nan,nan,nan,nan,nan,nan,nan,0.0,nan,nan,nan,nan,nan,nan,nan,nan,nan,nan,nan,nan,nan,nan,nan,nan,nan,nan,519.2506632820005,986.603691514174,nan,986.9956818961073,nan,nan,nan,nan
1,236,1,1,1.0,1.0,0.39885869313729927,0,0.0,0.0,0.0,0.4367196600545289,0.14649454630865247,0.29022511374587645,0.5832142063631813,0.14649454630865247,0.3813234164651173,3,6,0,2,5,1,nan,nan,nan,nan,nan,nan,nan,nan,nan,nan,nan,nan,0.0,nan,nan,nan,nan,nan,nan,nan,nan,nan,nan,nan,nan,nan,nan,nan,nan,nan,nan,519.2506632820005,987.6288172569475,nan,988.0276759500848,nan,nan,nan,nan
1,237,1,1,1.0,1.0,0.43769283359870315,0,0.0,0.0,0.0,0.43654356253398363,0.146176165374994,0.2903673971589896,0.5827197279089776,0.146176165374994,0.4095139695564285,4,2,6,7,3,8,nan,nan,nan,nan,nan,nan,nan,nan,nan,nan,nan,nan,0.0,nan,nan,nan,nan,nan,nan,nan,nan,nan,nan,nan,nan,nan,nan,nan,nan,nan,nan,519.2506632820005,988.6539649522747,nan,989.0916577858734,nan,nan,nan,nan
1,238,0,0,0.0,1.0,0.5884663917240687,0,0.0,0.0,0.0,0.43654888323335733,0.14583742294761984,0.29071146028573747,0.5823863061809772,0.14583742294761984,0.4750059728200237,5,4,1,2,8,6,nan,nan,nan,nan,nan,nan,nan,nan,nan,nan,nan,nan,0.0,nan,nan,nan,nan,nan,nan,nan,nan,nan,nan,nan,nan,nan,nan,nan,nan,nan,nan,519.2506632820005,989.6791639653966,nan,990.2676303571207,nan,nan,nan,nan
1,239,1,1,1.0,1.0,0.6273452926543541,0,0.0,0.0,0.0,0.43724896391764634,0.14586434301454962,0.2913846209030967,0.583113306932196,0.14586434301454962,0.5511681726590419,0,3,2,8,7,1,nan,nan,nan,nan,nan,nan,nan,nan,nan,nan,nan,nan,0.0,nan,nan,nan,nan,nan,nan,nan,nan,nan,nan,nan,nan,nan,nan,nan,nan,nan,nan,519.2506632820005,990.7042600578861,nan,991.3316053505405,nan,nan,nan,nan
1,240,1,1,1.0,1.0,0.5622182156075723,1,0.0,1.0,1.0,0.4381209654256129,0.14609521643951995,0.29202574898609296,0.5842161818651328,0.14609521643951995,0.592676633328665,1,0,7,5,8,6,1.0,1.0,1.0,1.0,1.0,1.0,0.0,1.0,1.0,0.0,0.0,0.0,2.0,3.0,0.0,7.0,6.0,2.0,1.0,6.0,2.0,1.0,3.0,4.0,5.0,9.875470626575407,3.2764567257254384,1.7983605688204989,4.795987407735083,7.291912778047845,8.427649378834758,519.2506632820005,991.729376962583,992.537817478762,992.2915951781906,1003.4642990935827,1004.4638868409675,993.5462871890049,1003.4559508353123
1,241,1,1,1.0,1.0,0.46594012127025053,0,0.0,0.0,0.0,0.4386876195360328,0.14600120224351812,0.29268641729251466,0.584688821779551,0.14600120224351812,0.5518345431773923,3,8,0,6,5,4,nan,nan,nan,nan,nan,nan,nan,nan,nan,nan,nan,nan,0.0,nan,nan,nan,nan,nan,nan,nan,nan,nan,nan,nan,nan,nan,nan,nan,nan,nan,nan,519.2506632820005,1004.6894836807041,nan,1005.1554238019744,nan,nan,nan,nan
1,242,1,1,1.0,1.0,0.33678701816825196,0,0.0,0.0,0.0,0.4388114945439156,0.14568053785801224,0.2931309566859034,0.5844920324019278,0.14568053785801224,0.4549817850153583,8,2,5,3,6,1,nan,nan,nan,nan,nan,nan,nan,nan,nan,nan,nan,nan,0.0,nan,nan,nan,nan,nan,nan,nan,nan,nan,nan,nan,nan,nan,nan,nan,nan,nan,nan,519.2506632820005,1005.7146213976084,nan,1006.0514084157767,nan,nan,nan,nan
1,243,1,1,1.0,1.0,0.311623927555047,0,0.0,0.0,0.0,0.4383498453295461,0.14551176809544936,0.2928380772340967,0.5838616134249954,0.14551176809544936,0.3714503556645165,2,0,1,5,7,6,nan,nan,nan,nan,nan,nan,nan,nan,nan,nan,nan,nan,0.0,nan,nan,nan,nan,nan,nan,nan,nan,nan,nan,nan,nan,nan,nan,nan,nan,nan,nan,519.2506632820005,1006.7397688078345,nan,1007.0513927353895,nan,nan,nan,nan
1,244,0,0,0.0,1.0,0.5423844737815671,0,0.0,0.0,0.0,0.4377790078620934,0.14543146766761156,0.29234754019448184,0.583210475529705,0.14543146766761156,0.396931806501622,0,2,5,1,8,3,nan,nan,nan,nan,nan,nan,nan,nan,nan,nan,nan,nan,0.0,nan,nan,nan,nan,nan,nan,nan,nan,nan,nan,nan,nan,nan,nan,nan,nan,nan,nan,519.2506632820005,1007.7649766589748,nan,1008.3073611327563,nan,nan,nan,nan
1,245,1,1,1.0,1.0,0.38130602543242276,0,0.0,0.0,0.0,0.4382480906689072,0.1452732457383597,0.2929748449305475,0.5835213364072669,0.1452732457383597,0.4117714755896789,6,1,4,5,3,0,nan,nan,nan,nan,nan,nan,nan,nan,nan,nan,nan,nan,0.0,nan,nan,nan,nan,nan,nan,nan,nan,nan,nan,nan,nan,nan,nan,nan,nan,nan,nan,519.2506632820005,1008.7900379694765,nan,1009.171343994909,nan,nan,nan,nan
1,246,1,1,1.0,1.0,0.3081953313667327,0,0.0,0.0,0.0,0.43799388502053,0.14499831242243919,0.29299557259809084,0.5829921974429692,0.14499831242243919,0.41062861019357416,4,6,0,8,7,3,nan,nan,nan,nan,nan,nan,nan,nan,nan,nan,nan,nan,0.0,nan,nan,nan,nan,nan,nan,nan,nan,nan,nan,nan,nan,nan,nan,nan,nan,nan,nan,519.2506632820005,1009.81515145296,nan,1010.1233467843267,nan,nan,nan,nan
1,247,1,1,1.0,1.0,0.2590081190573983,0,0.0,0.0,0.0,0.4374170025598465,0.1449331364859316,0.2924838660739149,0.5823501390457781,0.1449331364859316,0.3161698252855179,7,3,6,0,4,8,nan,nan,nan,nan,nan,nan,nan,nan,nan,nan,nan,nan,0.0,nan,nan,nan,nan,nan,nan,nan,nan,nan,nan,nan,nan,nan,nan,nan,nan,nan,nan,519.2506632820005,1010.8403134032269,nan,1011.0993215222843,nan,nan,nan,nan
1,248,0,0,0.0,1.0,0.4898750070715323,0,0.0,0.0,0.0,0.43662758272134006,0.14509612394909815,0.2915314587722419,0.5817237066704382,0.14509612394909815,0.35235948583188775,0,5,3,2,7,6,nan,nan,nan,nan,nan,nan,nan,nan,nan,nan,nan,nan,0.0,nan,nan,nan,nan,nan,nan,nan,nan,nan,nan,nan,nan,nan,nan,nan,nan,nan,nan,519.2506632820005,1011.8654539711424,nan,1012.355328978214,nan,nan,nan,nan
1,249,1,1,1.0,1.0,0.2727359033888206,0,0.0,0.0,0.0,0.4368621528726625,0.14481911624742144,0.29204303662524106,0.5816812691200839,0.14481911624742144,0.34053967650591704,2,8,5,7,6,0,nan,nan,nan,nan,nan,nan,nan,nan,nan,nan,nan,nan,0.0,nan,nan,nan,nan,nan,nan,nan,nan,nan,nan,nan,nan,nan,nan,nan,nan,nan,nan,519.2506632820005,1012.8905928284512,nan,1013.16332873184,nan,nan,nan,nan
1,250,1,1,1.0,1.0,0.2875176974921487,0,0.0,0.0,0.0,0.4361423009012421,0.14490762527807524,0.29123467562316685,0.5810499261793174,0.14490762527807524,0.35004286931750056,8,0,6,1,3,2,nan,nan,nan,nan,nan,nan,nan,nan,nan,nan,nan,nan,0.0,nan,nan,nan,nan,nan,nan,nan,nan,nan,nan,nan,nan,nan,nan,nan,nan,nan,nan,519.2506632820005,1013.9157741654199,nan,1014.203291862912,nan,nan,nan,nan
1,251,1,1,1.0,1.0,0.3264524777769111,0,0.0,0.0,0.0,0.43549328516583125,0.14492261060766273,0.29057067455816854,0.580415895773494,0.14492261060766273,0.29556869288596016,3,1,7,8,5,4,nan,nan,nan,nan,nan,nan,nan,nan,nan,nan,nan,nan,0.0,nan,nan,nan,nan,nan,nan,nan,nan,nan,nan,nan,nan,nan,nan,nan,nan,nan,nan,519.2506632820005,1014.9408713983139,nan,1015.2673238760908,nan,nan,nan,nan
1,252,1,1,1.0,1.0,0.5888840612024069,0,0.0,0.0,0.0,0.4350191946989229,0.14478507526422765,0.29023411943469524,0.5798042699631506,0.14478507526422765,0.4009514121571556,8,7,6,5,0,1,nan,nan,nan,nan,nan,nan,nan,nan,nan,nan,nan,nan,0.0,nan,nan,nan,nan,nan,nan,nan,nan,nan,nan,nan,nan,nan,nan,nan,nan,nan,nan,519.2506632820005,1015.9743445439963,nan,1016.5632286051987,nan,nan,nan,nan
1,253,1,1,1.0,1.0,0.33978083898546174,0,0.0,0.0,0.0,0.43568527637209814,0.14482407681439968,0.29086119955769846,0.5805093531864978,0.14482407681439968,0.4183724593215932,7,0,5,2,4,8,nan,nan,nan,nan,nan,nan,nan,nan,nan,nan,nan,nan,0.0,nan,nan,nan,nan,nan,nan,nan,nan,nan,nan,nan,nan,nan,nan,nan,nan,nan,nan,519.2506632820005,1016.9994557467289,nan,1017.3392365857144,nan,nan,nan,nan
1,254,1,1,1.0,1.0,0.37059030815726146,0,0.0,0.0,0.0,0.4352718951764661,0.14464813238581695,0.29062376279064916,0.579920027562283,0.14464813238581695,0.4330850694483767,3,8,2,1,5,4,nan,nan,nan,nan,nan,nan,nan,nan,nan,nan,nan,nan,0.0,nan,nan,nan,nan,nan,nan,nan,nan,nan,nan,nan,nan,nan,nan,nan,nan,nan,nan,519.2506632820005,1018.024625394668,nan,1018.3952157028252,nan,nan,nan,nan
1,255,1,1,1.0,1.0,0.2494236730854027,0,0.0,0.0,0.0,0.4349942917987013,0.14439931554561503,0.2905949762530863,0.5793936073443163,0.14439931554561503,0.31993160674270865,6,1,0,7,2,3,nan,nan,nan,nan,nan,nan,nan,nan,nan,nan,nan,nan,0.0,nan,nan,nan,nan,nan,nan,nan,nan,nan,nan,nan,nan,nan,nan,nan,nan,nan,nan,519.2506632820005,1019.0497887704405,nan,1019.2992124435259,nan,nan,nan,nan
1,256,1,1,1.0,1.0,0.29628932720515877,0,0.0,0.0,0.0,0.4342012549665932,0.14459802981678824,0.28960322514980497,0.5787992847833814,0.14459802981678824,0.3054344361492743,1,6,2,3,0,5,nan,nan,nan,nan,nan,nan,nan,nan,nan,nan,nan,nan,0.0,nan,nan,nan,nan,nan,nan,nan,nan,nan,nan,nan,nan,nan,nan,nan,nan,nan,nan,519.2506632820005,1020.0749045347329,nan,1020.3711938619381,nan,nan,nan,nan
1,257,1,1,1.0,1.0,0.5670908364118077,0,0.0,0.0,0.0,0.43361439569952326,0.1445690423001202,0.28904535339940307,0.5781834379996434,0.1445690423001202,0.37093461223412305,2,3,4,0,7,8,nan,nan,nan,nan,nan,nan,nan,nan,nan,nan,nan,nan,0.0,nan,nan,nan,nan,nan,nan,nan,nan,nan,nan,nan,nan,nan,nan,nan,nan,nan,nan,519.2506632820005,1021.1000724721234,nan,1021.6671633085352,nan,nan,nan,nan
1,258,1,1,1.0,1.0,0.3579749786294997,0,0.0,0.0,0.0,0.4341799738381346,0.14452272923826018,0.2896572445998744,0.5787027030763948,0.14452272923826018,0.40711838074882206,6,0,8,7,2,3,nan,nan,nan,nan,nan,nan,nan,nan,nan,nan,nan,nan,0.0,nan,nan,nan,nan,nan,nan,nan,nan,nan,nan,nan,nan,nan,nan,nan,nan,nan,nan,519.2506632820005,1022.1251831045956,nan,1022.4831580832251,nan,nan,nan,nan
1,259,1,1,1.0,1.0,0.30048227281076834,0,0.0,0.0,0.0,0.43385843377396316,0.1443020748236598,0.28955635895030335,0.5781605085976229,0.1443020748236598,0.40851602928402525,3,1,4,0,8,5,nan,nan,nan,nan,nan,nan,nan,nan,nan,nan,nan,nan,0.0,nan,nan,nan,nan,nan,nan,nan,nan,nan,nan,nan,nan,nan,nan,nan,nan,nan,nan,519.2506632820005,1023.1586645182106,nan,1023.4591467910213,nan,nan,nan,nan
1,260,1,1,1.0,1.0,0.22730828681960702,0,0.0,0.0,0.0,0.43329802973630266,0.14425681029025245,0.2890412194460502,0.5775548400265551,0.14425681029025245,0.2952551794199583,4,3,1,5,6,2,nan,nan,nan,nan,nan,nan,nan,nan,nan,nan,nan,nan,0.0,nan,nan,nan,nan,nan,nan,nan,nan,nan,nan,nan,nan,nan,nan,nan,nan,nan,nan,519.2506632820005,1024.1838073668769,nan,1024.4111156536965,nan,nan,nan,nan
1,261,1,1,1.0,1.0,0.2501672103535384,1,1.0,0.0,1.0,0.43243614796677676,0.14456746534080953,0.2878686826259672,0.5770036133075863,0.14456746534080953,0.25931925666130456,5,1,6,8,4,0,1.0,1.0,1.0,1.0,1.0,1.0,1.0,1.0,1.0,0.0,0.0,0.0,3.0,5.0,1.0,6.0,0.0,8.0,2.0,6.0,1.0,2.0,3.0,4.0,5.0,8.987636982754339,2.229666622763034,3.437611580477096,4.628726880648173,6.58048248954583,7.71543392870808,519.2506632820005,1025.208942517871,1026.0173602261348,1025.4591097282246,1036.0520496026147,1037.0522332061664,1027.0258325022878,1036.043717594992
1,262,1,1,nan,nan,nan,0,0.0,0.0,0.0,0.0,0.0,0.0,0.0,0.0,0.0,7,0,4,6,5,8,nan,nan,nan,nan,nan,nan,nan,nan,nan,nan,nan,nan,0.0,nan,nan,nan,nan,nan,nan,nan,nan,nan,nan,nan,nan,nan,nan,nan,nan,nan,nan,519.2506632820005,1037.2772304834798,nan,nan,nan,nan,nan,nan
1,263,1,1,1.0,1.0,0.3325025558588095,0,0.0,0.0,0.0,0.43167669406005493,0.14474293703468932,0.2869337570253656,0.5764196310947443,0.14474293703468932,0.29133488310617395,6,4,8,3,2,1,nan,nan,nan,nan,nan,nan,nan,nan,nan,nan,nan,nan,0.0,nan,nan,nan,nan,nan,nan,nan,nan,nan,nan,nan,nan,nan,nan,nan,nan,nan,nan,519.2506632820005,1038.3023801745148,nan,1038.6348827303736,nan,nan,nan,nan
1,264,1,1,1.0,1.0,0.2993644010857679,0,0.0,0.0,0.0,0.4312651831131618,0.14458294544817374,0.28668223766498807,0.5758481285613355,0.14458294544817374,0.3159334784722887,4,0,6,5,7,8,nan,nan,nan,nan,nan,nan,nan,nan,nan,nan,nan,nan,0.0,nan,nan,nan,nan,nan,nan,nan,nan,nan,nan,nan,nan,nan,nan,nan,nan,nan,nan,519.2506632820005,1039.3275267294375,nan,1039.6268911305233,nan,nan,nan,nan
1,265,1,1,1.0,1.0,0.3301852742442861,0,0.0,0.0,0.0,0.43072013855932956,0.1445318018149747,0.28618833674435484,0.5752519403743043,0.1445318018149747,0.3206840770629545,8,2,7,4,6,3,nan,nan,nan,nan,nan,nan,nan,nan,nan,nan,nan,nan,0.0,nan,nan,nan,nan,nan,nan,nan,nan,nan,nan,nan,nan,nan,nan,nan,nan,nan,nan,519.2506632820005,1040.3526821224368,nan,1040.682867396681,nan,nan,nan,nan
1,266,1,1,1.0,1.0,0.29705766803817824,0,0.0,0.0,0.0,0.43030641483786847,0.14437762792746087,0.2859287869104076,0.5746840427653294,0.14437762792746087,0.3088691144560774,2,6,0,5,7,1,nan,nan,nan,nan,nan,nan,nan,nan,nan,nan,nan,nan,0.0,nan,nan,nan,nan,nan,nan,nan,nan,nan,nan,nan,nan,nan,nan,nan,nan,nan,nan,519.2506632820005,1041.377807295008,nan,1041.6748649630463,nan,nan,nan,nan
1,267,1,1,1.0,1.0,0.3198669843841344,0,0.0,0.0,0.0,0.4297603134165583,0.1443327358344286,0.28542757758212967,0.5740930492509869,0.1443327358344286,0.3157033088888663,6,7,5,0,4,3,nan,nan,nan,nan,nan,nan,nan,nan,nan,nan,nan,nan,0.0,nan,nan,nan,nan,nan,nan,nan,nan,nan,nan,nan,nan,nan,nan,nan,nan,nan,nan,519.2506632820005,1042.4029835002148,nan,1042.722850484599,nan,nan,nan,nan
1,268,0,0,1.0,0.0,0.23074201482813805,0,0.0,0.0,0.0,0.42931176921642594,0.1442081867855267,0.2851035824308993,0.5735199560019526,0.1442081867855267,0.28255555575015023,5,0,7,2,8,6,nan,nan,nan,nan,nan,nan,nan,nan,nan,nan,nan,nan,0.0,nan,nan,nan,nan,nan,nan,nan,nan,nan,nan,nan,nan,nan,nan,nan,nan,nan,nan,519.2506632820005,1043.4280955582508,nan,1043.658837573079,nan,nan,nan,nan
1,269,1,1,1.0,1.0,0.4135840376256965,0,0.0,0.0,0.0,0.4285045750928963,0.14446832636424367,0.28403624872865263,0.57297290145714,0.14446832636424367,0.32139767894598964,4,8,0,3,6,2,nan,nan,nan,nan,nan,nan,nan,nan,nan,nan,nan,nan,0.0,nan,nan,nan,nan,nan,nan,nan,nan,nan,nan,nan,nan,nan,nan,nan,nan,nan,nan,519.2506632820005,1044.4532335602562,nan,1044.866817597882,nan,nan,nan,nan
1,270,1,1,1.0,1.0,0.35643829696346074,0,0.0,0.0,0.0,0.4284441680586162,0.1441786967938309,0.2842654712647853,0.5726228648524471,0.1441786967938309,0.33358811647243175,3,7,6,0,8,5,nan,nan,nan,nan,nan,nan,nan,nan,nan,nan,nan,nan,0.0,nan,nan,nan,nan,nan,nan,nan,nan,nan,nan,nan,nan,nan,nan,nan,nan,nan,nan,519.2506632820005,1045.4783764089225,nan,1045.834814705886,nan,nan,nan,nan
1,271,1,1,1.0,1.0,0.3632966297445819,0,0.0,0.0,0.0,0.4281538218042002,0.14396005832294245,0.28419376348125774,0.5721138801271426,0.14396005832294245,0.3777729881112464,2,1,4,5,0,6,nan,nan,nan,nan,nan,nan,nan,nan,nan,nan,nan,nan,0.0,nan,nan,nan,nan,nan,nan,nan,nan,nan,nan,nan,nan,nan,nan,nan,nan,nan,nan,519.2506632820005,1046.5035084238043,nan,1046.866805053549,nan,nan,nan,nan
1,272,1,1,1.0,1.0,0.33016474707983434,0,0.0,0.0,0.0,0.42789335115335836,0.14372923510954289,0.2841641160438155,0.5716225862629012,0.14372923510954289,0.3499665579292923,0,6,1,2,3,5,nan,nan,nan,nan,nan,nan,nan,nan,nan,nan,nan,nan,0.0,nan,nan,nan,nan,nan,nan,nan,nan,nan,nan,nan,nan,nan,nan,nan,nan,nan,nan,519.2506632820005,1047.5286649572663,nan,1047.8588297043461,nan,nan,nan,nan
1,273,1,1,1.0,1.0,0.3209928388823755,0,0.0,0.0,0.0,0.4275024367370643,0.14357406227870453,0.2839283744583597,0.5710764990157688,0.14357406227870453,0.3381514052355972,3,5,7,0,6,8,nan,nan,nan,nan,nan,nan,nan,nan,nan,nan,nan,nan,0.0,nan,nan,nan,nan,nan,nan,nan,nan,nan,nan,nan,nan,nan,nan,nan,nan,nan,nan,519.2506632820005,1048.5537921254872,nan,1048.8747849643696,nan,nan,nan,nan
1,274,1,1,1.0,1.0,0.32784860575338826,0,0.0,0.0,0.0,0.42707809570975475,0.14344477035713107,0.28363332535262364,0.5705228660668858,0.14344477035713107,0.3263353972385327,4,2,8,1,3,6,nan,nan,nan,nan,nan,nan,nan,nan,nan,nan,nan,nan,0.0,nan,nan,nan,nan,nan,nan,nan,nan,nan,nan,nan,nan,nan,nan,nan,nan,nan,nan,519.2506632820005,1049.5789230000228,nan,1049.9067716057762,nan,nan,nan,nan
1,275,1,1,1.0,1.0,0.3266848331550136,0,0.0,0.0,0.0,0.4266843278924676,0.14329573643319324,0.2833885914592743,0.5699800643256608,0.14329573643319324,0.3251754259302591,8,3,4,2,6,5,nan,nan,nan,nan,nan,nan,nan,nan,nan,nan,nan,nan,0.0,nan,nan,nan,nan,nan,nan,nan,nan,nan,nan,nan,nan,nan,nan,nan,nan,nan,nan,519.2506632820005,1050.6040809589322,nan,1050.9307657920872,nan,nan,nan,nan
1,276,1,1,1.0,1.0,0.2935059092123993,0,0.0,0.0,0.0,0.4262890729725567,0.14314983898825773,0.28313923398429897,0.5694389119608144,0.14314983898825773,0.31601311604026705,3,7,0,5,8,6,nan,nan,nan,nan,nan,nan,nan,nan,nan,nan,nan,nan,0.0,nan,nan,nan,nan,nan,nan,nan,nan,nan,nan,nan,nan,nan,nan,nan,nan,nan,nan,519.2506632820005,1051.6292086973554,nan,1051.9227146065678,nan,nan,nan,nan
