block,trial,freq_trials,correct_response,actual_response,acc,rts,probe_trials,trials_colorind0,trials_colorind1,trials_colorind2,trials_colorind3,trials_colorind4,trials_colorind5,wholereport_resp0,wholereport_resp1,wholereport_resp2,wholereport_resp3,wholereport_resp4,wholereport_resp5,wholereport_respacc0,wholereport_respacc1,wholereport_respacc2,wholereport_respacc3,wholereport_respacc4,wholereport_respacc5,wholereport_respacc_total,wholereport_respcolorind0,wholereport_respcolorind1,wholereport_respcolorind2,wholereport_respcolorind3,wholereport_respcolorind4,wholereport_respcolorind5,wholereport_resporder0,wholereport_resporder1,wholereport_resporder2,wholereport_resporder3,wholereport_resporder4,wholereport_resporder5,wholereport_rts0,wholereport_rts1,wholereport_rts2,wholereport_rts3,wholereport_rts4,wholereport_rts5,time_blockstart,time_encarray_offset,time_encarray_onset,time_response,time_iti_offset,time_iti_onset,time_memprobe_offset,time_memprobe_onset
1,1,1,1,1.0,1.0,0.6398515878245234,0.0,2,0,1,3,5,8,nan,nan,nan,nan,nan,nan,nan,nan,nan,nan,nan,nan,0.0,nan,nan,nan,nan,nan,nan,nan,nan,nan,nan,nan,nan,nan,nan,nan,nan,nan,nan,138.56554714171216,139.5817146487534,nan,140.22156623657793,nan,nan,nan,nan
1,2,1,1,1.0,1.0,0.4312793994322419,0.0,7,0,8,6,1,2,nan,nan,nan,nan,nan,nan,nan,nan,nan,nan,nan,nan,0.0,nan,nan,nan,nan,nan,nan,nan,nan,nan,nan,nan,nan,nan,nan,nan,nan,nan,nan,138.56554714171216,140.59027052950114,nan,141.02154992893338,nan,nan,nan,nan
1,3,1,1,1.0,1.0,0.47114535607397556,0.0,4,8,3,2,0,7,nan,nan,nan,nan,nan,nan,nan,nan,nan,nan,nan,nan,0.0,nan,nan,nan,nan,nan,nan,nan,nan,nan,nan,nan,nan,nan,nan,nan,nan,nan,nan,138.56554714171216,141.59035748569295,nan,142.06150284176692,nan,nan,nan,nan
1,4,1,1,1.0,1.0,0.39870233461260796,0.0,1,3,8,5,7,0,nan,nan,nan,nan,nan,nan,nan,nan,nan,nan,nan,nan,0.0,nan,nan,nan,nan,nan,nan,nan,nan,nan,nan,nan,nan,nan,nan,nan,nan,nan,nan,138.56554714171216,142.5987896323204,nan,142.997491966933,nan,nan,nan,nan
1,5,1,1,1.0,1.0,0.41418844973668456,0.0,8,6,5,0,1,2,nan,nan,nan,nan,nan,nan,nan,nan,nan,nan,nan,nan,0.0,nan,nan,nan,nan,nan,nan,nan,nan,nan,nan,nan,nan,nan,nan,nan,nan,nan,nan,138.56554714171216,143.60729219950736,nan,144.02148064924404,nan,nan,nan,nan
1,6,1,1,1.0,1.0,0.43004690762609243,0.0,6,3,1,7,0,8,nan,nan,nan,nan,nan,nan,nan,nan,nan,nan,nan,nan,0.0,nan,nan,nan,nan,nan,nan,nan,nan,nan,nan,nan,nan,nan,nan,nan,nan,nan,nan,138.56554714171216,144.6074433028698,nan,145.0374902104959,nan,nan,nan,nan
1,7,1,1,1.0,1.0,0.36556533072143793,0.0,3,2,8,0,7,5,nan,nan,nan,nan,nan,nan,nan,nan,nan,nan,nan,nan,0.0,nan,nan,nan,nan,nan,nan,nan,nan,nan,nan,nan,nan,nan,nan,nan,nan,nan,nan,138.56554714171216,145.6159222065471,nan,145.98148753726855,nan,nan,nan,nan
1,8,1,1,1.0,1.0,0.3250846960581839,0.0,8,7,1,5,3,6,nan,nan,nan,nan,nan,nan,nan,nan,nan,nan,nan,nan,0.0,nan,nan,nan,nan,nan,nan,nan,nan,nan,nan,nan,nan,nan,nan,nan,nan,nan,nan,138.56554714171216,146.6243899911642,nan,146.9494746872224,nan,nan,nan,nan
1,9,1,1,1.0,1.0,0.3885729811154306,0.0,2,5,4,7,0,8,nan,nan,nan,nan,nan,nan,nan,nan,nan,nan,nan,nan,0.0,nan,nan,nan,nan,nan,nan,nan,nan,nan,nan,nan,nan,nan,nan,nan,nan,nan,nan,138.56554714171216,147.63288286468014,nan,148.02145584579557,nan,nan,nan,nan
1,10,1,1,1.0,1.0,0.3084042929112911,0.0,7,0,3,5,6,4,nan,nan,nan,nan,nan,nan,nan,nan,nan,nan,nan,nan,0.0,nan,nan,nan,nan,nan,nan,nan,nan,nan,nan,nan,nan,nan,nan,nan,nan,nan,nan,138.56554714171216,148.63305620569736,nan,148.94146049860865,nan,nan,nan,nan
1,11,1,1,1.0,1.0,0.32395826233550906,0.0,6,7,0,1,3,2,nan,nan,nan,nan,nan,nan,nan,nan,nan,nan,nan,nan,0.0,nan,nan,nan,nan,nan,nan,nan,nan,nan,nan,nan,nan,nan,nan,nan,nan,nan,nan,138.56554714171216,149.64148721238598,nan,149.9654454747215,nan,nan,nan,nan
1,12,1,1,1.0,1.0,0.29952795803546906,0.0,2,0,5,4,6,8,nan,nan,nan,nan,nan,nan,nan,nan,nan,nan,nan,nan,0.0,nan,nan,nan,nan,nan,nan,nan,nan,nan,nan,nan,nan,nan,nan,nan,nan,nan,nan,138.56554714171216,150.64994786959141,nan,150.94947582762688,nan,nan,nan,nan
1,13,1,1,1.0,1.0,0.36299001378938556,0.0,7,3,2,8,0,6,nan,nan,nan,nan,nan,nan,nan,nan,nan,nan,nan,nan,0.0,nan,nan,nan,nan,nan,nan,nan,nan,nan,nan,nan,nan,nan,nan,nan,nan,nan,nan,138.56554714171216,151.6584541425109,nan,152.02144415630028,nan,nan,nan,nan
1,14,1,1,1.0,1.0,0.35451538674533367,0.0,2,4,1,7,6,8,nan,nan,nan,nan,nan,nan,nan,nan,nan,nan,nan,nan,0.0,nan,nan,nan,nan,nan,nan,nan,nan,nan,nan,nan,nan,nan,nan,nan,nan,nan,nan,138.56554714171216,152.6669167955406,nan,153.02143218228593,nan,nan,nan,nan
1,15,0,0,1.0,0.0,0.3063296126201749,1.0,3,8,5,6,4,0,1.0,1.0,1.0,1.0,1.0,1.0,0.0,1.0,1.0,1.0,0.0,0.0,3.0,7.0,8.0,5.0,6.0,3.0,4.0,6.0,3.0,2.0,1.0,4.0,5.0,7.033955813385546,3.698280184995383,2.4914881670847535,1.3158918996341527,5.378191598691046,6.226427778601646,138.56554714171216,153.66709697945043,154.47550996765494,153.9734265920706,162.57668147608638,163.58260815544054,155.50066585373133,162.56834198674187
1,16,1,1,nan,nan,nan,0.0,1,6,2,3,0,7,nan,nan,nan,nan,nan,nan,nan,nan,nan,nan,nan,nan,0.0,nan,nan,nan,nan,nan,nan,nan,nan,nan,nan,nan,nan,nan,nan,nan,nan,nan,nan,138.56554714171216,163.7852143207565,nan,nan,nan,nan,nan,nan
1,17,1,1,1.0,1.0,0.651686130091548,0.0,4,7,5,6,8,3,nan,nan,nan,nan,nan,nan,nan,nan,nan,nan,nan,nan,0.0,nan,nan,nan,nan,nan,nan,nan,nan,nan,nan,nan,nan,nan,nan,nan,nan,nan,nan,138.56554714171216,164.79365844186395,nan,165.4453445719555,nan,nan,nan,nan
1,18,1,1,1.0,1.0,0.5311776464805007,0.0,7,2,8,0,6,4,nan,nan,nan,nan,nan,nan,nan,nan,nan,nan,nan,nan,0.0,nan,nan,nan,nan,nan,nan,nan,nan,nan,nan,nan,nan,nan,nan,nan,nan,nan,nan,138.56554714171216,165.80216842144728,nan,166.33334606792778,nan,nan,nan,nan
1,19,1,1,1.0,1.0,0.4507155893370509,0.0,2,0,7,5,1,3,nan,nan,nan,nan,nan,nan,nan,nan,nan,nan,nan,nan,0.0,nan,nan,nan,nan,nan,nan,nan,nan,nan,nan,nan,nan,nan,nan,nan,nan,nan,nan,138.56554714171216,166.810616819188,nan,167.26133240852505,nan,nan,nan,nan
1,20,1,1,1.0,1.0,0.4345469418913126,0.0,1,6,8,3,7,4,nan,nan,nan,nan,nan,nan,nan,nan,nan,nan,nan,nan,0.0,nan,nan,nan,nan,nan,nan,nan,nan,nan,nan,nan,nan,nan,nan,nan,nan,nan,nan,138.56554714171216,167.81078018201515,nan,168.24532712390646,nan,nan,nan,nan
1,21,0,0,0.0,1.0,0.5060431431047618,0.0,5,2,3,6,0,1,nan,nan,nan,nan,nan,nan,nan,nan,nan,nan,nan,nan,0.0,nan,nan,nan,nan,nan,nan,nan,nan,nan,nan,nan,nan,nan,nan,nan,nan,nan,nan,138.56554714171216,168.81927533634007,nan,169.32531847944483,nan,nan,nan,nan
1,22,1,1,1.0,1.0,0.7055656560696661,0.0,6,0,4,7,1,3,nan,nan,nan,nan,nan,nan,nan,nan,nan,nan,nan,nan,0.0,nan,nan,nan,nan,nan,nan,nan,nan,nan,nan,nan,nan,nan,nan,nan,nan,nan,nan,138.56554714171216,169.827756235376,nan,170.53332189144567,nan,nan,nan,nan
1,23,1,1,1.0,1.0,0.47307891119271517,0.0,4,5,7,3,0,6,nan,nan,nan,nan,nan,nan,nan,nan,nan,nan,nan,nan,0.0,nan,nan,nan,nan,nan,nan,nan,nan,nan,nan,nan,nan,nan,nan,nan,nan,nan,nan,138.56554714171216,170.83623513905331,nan,171.30931405024603,nan,nan,nan,nan
1,24,1,1,1.0,1.0,0.3605888932943344,0.0,3,0,4,1,2,5,nan,nan,nan,nan,nan,nan,nan,nan,nan,nan,nan,nan,0.0,nan,nan,nan,nan,nan,nan,nan,nan,nan,nan,nan,nan,nan,nan,nan,nan,nan,nan,138.56554714171216,171.84471318731084,nan,172.20530208060518,nan,nan,nan,nan
1,25,1,1,1.0,1.0,0.36010251101106405,0.0,0,8,2,5,3,1,nan,nan,nan,nan,nan,nan,nan,nan,nan,nan,nan,nan,0.0,nan,nan,nan,nan,nan,nan,nan,nan,nan,nan,nan,nan,nan,nan,nan,nan,nan,nan,138.56554714171216,172.85320235416293,nan,173.213304865174,nan,nan,nan,nan
1,26,1,1,1.0,1.0,0.3836535634472966,0.0,4,0,6,1,5,8,nan,nan,nan,nan,nan,nan,nan,nan,nan,nan,nan,nan,0.0,nan,nan,nan,nan,nan,nan,nan,nan,nan,nan,nan,nan,nan,nan,nan,nan,nan,nan,138.56554714171216,173.86163763748482,nan,174.24529120093212,nan,nan,nan,nan
1,27,1,1,1.0,1.0,0.45511469757184386,0.0,1,5,2,8,3,6,nan,nan,nan,nan,nan,nan,nan,nan,nan,nan,nan,nan,0.0,nan,nan,nan,nan,nan,nan,nan,nan,nan,nan,nan,nan,nan,nan,nan,nan,nan,nan,138.56554714171216,174.87016728892922,nan,175.32528198650107,nan,nan,nan,nan
1,28,1,1,1.0,1.0,0.40666263923048973,0.0,5,1,4,3,0,8,nan,nan,nan,nan,nan,nan,nan,nan,nan,nan,nan,nan,0.0,nan,nan,nan,nan,nan,nan,nan,nan,nan,nan,nan,nan,nan,nan,nan,nan,nan,nan,138.56554714171216,175.87862880108878,nan,176.28529144031927,nan,nan,nan,nan
1,29,1,1,1.0,1.0,0.42216557543724775,0.0,7,4,3,5,6,1,nan,nan,nan,nan,nan,nan,nan,nan,nan,nan,nan,nan,0.0,nan,nan,nan,nan,nan,nan,nan,nan,nan,nan,nan,nan,nan,nan,nan,nan,nan,nan,138.56554714171216,176.88710029236972,nan,177.30926586780697,nan,nan,nan,nan
1,30,1,1,1.0,1.0,0.31771312467753887,0.0,6,7,0,2,3,4,nan,nan,nan,nan,nan,nan,nan,nan,nan,nan,nan,nan,0.0,nan,nan,nan,nan,nan,nan,nan,nan,nan,nan,nan,nan,nan,nan,nan,nan,nan,nan,138.56554714171216,177.89555325172842,nan,178.21326637640595,nan,nan,nan,nan
1,31,1,1,1.0,1.0,0.365206103771925,0.0,7,8,4,1,2,3,nan,nan,nan,nan,nan,nan,nan,nan,nan,nan,nan,nan,0.0,nan,nan,nan,nan,nan,nan,nan,nan,nan,nan,nan,nan,nan,nan,nan,nan,nan,nan,138.56554714171216,178.90406323084608,nan,179.269269334618,nan,nan,nan,nan
1,32,1,1,1.0,1.0,0.2927536736242473,0.0,3,1,2,4,8,5,nan,nan,nan,nan,nan,nan,nan,nan,nan,nan,nan,nan,0.0,nan,nan,nan,nan,nan,nan,nan,nan,nan,nan,nan,nan,nan,nan,nan,nan,nan,nan,138.56554714171216,179.91250279080123,nan,180.20525646442547,nan,nan,nan,nan
1,33,1,1,1.0,1.0,0.35622770339250565,0.0,7,8,3,1,5,0,nan,nan,nan,nan,nan,nan,nan,nan,nan,nan,nan,nan,0.0,nan,nan,nan,nan,nan,nan,nan,nan,nan,nan,nan,nan,nan,nan,nan,nan,nan,nan,138.56554714171216,180.92101790197194,nan,181.27724560536444,nan,nan,nan,nan
1,34,1,1,1.0,1.0,0.3077345904894173,0.0,4,1,0,7,3,8,nan,nan,nan,nan,nan,nan,nan,nan,nan,nan,nan,nan,0.0,nan,nan,nan,nan,nan,nan,nan,nan,nan,nan,nan,nan,nan,nan,nan,nan,nan,nan,138.56554714171216,181.92950678383932,nan,182.23724137432873,nan,nan,nan,nan
1,35,0,0,0.0,1.0,0.41125304996967316,1.0,3,6,1,4,0,5,1.0,1.0,1.0,1.0,1.0,1.0,0.0,1.0,1.0,1.0,1.0,0.0,4.0,5.0,6.0,1.0,4.0,0.0,8.0,4.0,3.0,2.0,1.0,6.0,5.0,4.523007792420685,3.5405671624466777,2.5794643461704254,1.508004352916032,6.507584969047457,5.291986466385424,138.56554714171216,182.93798198131844,183.74641492636874,183.34923503128812,191.31415877118707,192.31765724532306,184.76322305575013,191.30582954594865
1,36,1,1,1.0,1.0,0.5544914952479303,0.0,6,1,3,7,4,0,nan,nan,nan,nan,nan,nan,nan,nan,nan,nan,nan,nan,0.0,nan,nan,nan,nan,nan,nan,nan,nan,nan,nan,nan,nan,nan,nan,nan,nan,nan,nan,138.56554714171216,192.52269332669675,nan,193.07718482194468,nan,nan,nan,nan
1,37,1,1,1.0,1.0,0.4339713230729103,0.0,4,3,6,2,8,1,nan,nan,nan,nan,nan,nan,nan,nan,nan,nan,nan,nan,0.0,nan,nan,nan,nan,nan,nan,nan,nan,nan,nan,nan,nan,nan,nan,nan,nan,nan,nan,138.56554714171216,193.53117793193087,nan,193.96514925500378,nan,nan,nan,nan
1,38,1,1,1.0,1.0,0.3535018530674279,0.0,5,0,4,8,2,3,nan,nan,nan,nan,nan,nan,nan,nan,nan,nan,nan,nan,0.0,nan,nan,nan,nan,nan,nan,nan,nan,nan,nan,nan,nan,nan,nan,nan,nan,nan,nan,138.56554714171216,194.53966082679108,nan,194.8931626798585,nan,nan,nan,nan
1,39,1,1,1.0,1.0,0.36902218079194427,0.0,0,7,2,1,4,8,nan,nan,nan,nan,nan,nan,nan,nan,nan,nan,nan,nan,0.0,nan,nan,nan,nan,nan,nan,nan,nan,nan,nan,nan,nan,nan,nan,nan,nan,nan,nan,138.56554714171216,195.54812718601897,nan,195.91714936681092,nan,nan,nan,nan
1,40,1,1,1.0,1.0,0.33652750961482525,0.0,7,3,6,4,8,2,nan,nan,nan,nan,nan,nan,nan,nan,nan,nan,nan,nan,0.0,nan,nan,nan,nan,nan,nan,nan,nan,nan,nan,nan,nan,nan,nan,nan,nan,nan,nan,138.56554714171216,196.55661293212324,nan,196.89314044173807,nan,nan,nan,nan
1,41,1,1,1.0,1.0,0.30405279621481895,0.0,2,0,8,6,1,5,nan,nan,nan,nan,nan,nan,nan,nan,nan,nan,nan,nan,0.0,nan,nan,nan,nan,nan,nan,nan,nan,nan,nan,nan,nan,nan,nan,nan,nan,nan,nan,138.56554714171216,197.56509098038077,nan,197.8691437765956,nan,nan,nan,nan
1,42,1,1,1.0,1.0,0.2795583442784846,0.0,6,4,2,1,7,0,nan,nan,nan,nan,nan,nan,nan,nan,nan,nan,nan,nan,0.0,nan,nan,nan,nan,nan,nan,nan,nan,nan,nan,nan,nan,nan,nan,nan,nan,nan,nan,138.56554714171216,198.5735741602257,nan,198.85313250450417,nan,nan,nan,nan
1,43,1,1,1.0,1.0,0.2710788706317544,0.0,4,6,5,3,1,8,nan,nan,nan,nan,nan,nan,nan,nan,nan,nan,nan,nan,0.0,nan,nan,nan,nan,nan,nan,nan,nan,nan,nan,nan,nan,nan,nan,nan,nan,nan,nan,138.56554714171216,199.58204280026257,nan,199.85312167089432,nan,nan,nan,nan
1,44,1,1,1.0,1.0,0.30259650060907006,0.0,5,8,2,1,4,7,nan,nan,nan,nan,nan,nan,nan,nan,nan,nan,nan,nan,0.0,nan,nan,nan,nan,nan,nan,nan,nan,nan,nan,nan,nan,nan,nan,nan,nan,nan,nan,138.56554714171216,200.5905262650922,nan,200.89312276570126,nan,nan,nan,nan
1,45,1,1,1.0,1.0,0.3421112126670778,0.0,8,2,1,7,0,3,nan,nan,nan,nan,nan,nan,nan,nan,nan,nan,nan,nan,0.0,nan,nan,nan,nan,nan,nan,nan,nan,nan,nan,nan,nan,nan,nan,nan,nan,nan,nan,138.56554714171216,201.5990037433803,nan,201.9411149560474,nan,nan,nan,nan
1,46,1,1,1.0,1.0,0.34960110066458583,0.0,1,6,5,0,8,2,nan,nan,nan,nan,nan,nan,nan,nan,nan,nan,nan,nan,0.0,nan,nan,nan,nan,nan,nan,nan,nan,nan,nan,nan,nan,nan,nan,nan,nan,nan,nan,138.56554714171216,202.60749889770523,nan,202.9570999983698,nan,nan,nan,nan
1,47,1,1,1.0,1.0,0.3091324404813349,0.0,2,5,8,6,3,0,nan,nan,nan,nan,nan,nan,nan,nan,nan,nan,nan,nan,0.0,nan,nan,nan,nan,nan,nan,nan,nan,nan,nan,nan,nan,nan,nan,nan,nan,nan,nan,138.56554714171216,203.61596725229174,nan,203.92509969277307,nan,nan,nan,nan
1,48,1,1,1.0,1.0,0.5806352565996349,0.0,3,7,2,4,5,8,nan,nan,nan,nan,nan,nan,nan,nan,nan,nan,nan,nan,0.0,nan,nan,nan,nan,nan,nan,nan,nan,nan,nan,nan,nan,nan,nan,nan,nan,nan,nan,138.56554714171216,204.62444900674745,nan,205.2050842633471,nan,nan,nan,nan
1,49,1,1,1.0,1.0,0.3081588204950094,0.0,8,3,0,6,4,7,nan,nan,nan,nan,nan,nan,nan,nan,nan,nan,nan,nan,0.0,nan,nan,nan,nan,nan,nan,nan,nan,nan,nan,nan,nan,nan,nan,nan,nan,nan,nan,138.56554714171216,205.63292791042477,nan,205.94108673091978,nan,nan,nan,nan
1,50,1,1,1.0,1.0,0.29966765781864524,0.0,7,5,2,4,6,8,nan,nan,nan,nan,nan,nan,nan,nan,nan,nan,nan,nan,0.0,nan,nan,nan,nan,nan,nan,nan,nan,nan,nan,nan,nan,nan,nan,nan,nan,nan,nan,138.56554714171216,206.64140310743824,nan,206.94107076525688,nan,nan,nan,nan
1,51,0,0,1.0,0.0,0.3471817336976528,0.0,3,0,4,7,8,5,nan,nan,nan,nan,nan,nan,nan,nan,nan,nan,nan,nan,0.0,nan,nan,nan,nan,nan,nan,nan,nan,nan,nan,nan,nan,nan,nan,nan,nan,nan,nan,138.56554714171216,207.64989170478657,nan,207.99707343848422,nan,nan,nan,nan
1,52,1,1,1.0,1.0,0.7706793015822768,0.0,5,7,3,1,2,8,nan,nan,nan,nan,nan,nan,nan,nan,nan,nan,nan,nan,0.0,nan,nan,nan,nan,nan,nan,nan,nan,nan,nan,nan,nan,nan,nan,nan,nan,nan,nan,138.56554714171216,208.65836062980816,nan,209.42903993139043,nan,nan,nan,nan
1,53,0,0,0.0,1.0,0.7062014313414693,1.0,7,1,4,3,8,5,1.0,1.0,1.0,1.0,1.0,1.0,1.0,1.0,1.0,1.0,0.0,0.0,4.0,7.0,1.0,4.0,3.0,2.0,8.0,4.0,3.0,2.0,1.0,6.0,5.0,4.122880808543414,3.266921527683735,2.298996530007571,1.5310527724213898,6.298564602155238,5.099449498578906,138.56554714171216,209.6668415288441,210.47526364028454,210.37304296018556,217.8179818331264,218.82187631260604,211.48374625016004,217.80964975664392
1,54,1,1,nan,nan,nan,0.0,1,4,0,2,7,8,nan,nan,nan,nan,nan,nan,nan,nan,nan,nan,nan,nan,0.0,nan,nan,nan,nan,nan,nan,nan,nan,nan,nan,nan,nan,nan,nan,nan,nan,nan,nan,138.56554714171216,219.02653092844412,nan,nan,nan,nan,nan,nan
1,55,1,1,1.0,1.0,0.5699901557527483,0.0,6,1,2,7,0,3,nan,nan,nan,nan,nan,nan,nan,nan,nan,nan,nan,nan,0.0,nan,nan,nan,nan,nan,nan,nan,nan,nan,nan,nan,nan,nan,nan,nan,nan,nan,nan,138.56554714171216,220.0350038446486,nan,220.60499400040135,nan,nan,nan,nan
1,56,1,1,1.0,1.0,0.369485754519701,0.0,3,5,1,4,2,8,nan,nan,nan,nan,nan,nan,nan,nan,nan,nan,nan,nan,0.0,nan,nan,nan,nan,nan,nan,nan,nan,nan,nan,nan,nan,nan,nan,nan,nan,nan,nan,138.56554714171216,221.04349158657715,nan,221.41297734109685,nan,nan,nan,nan
1,57,0,0,nan,nan,nan,0.0,5,8,7,1,4,6,nan,nan,nan,nan,nan,nan,nan,nan,nan,nan,nan,nan,0.0,nan,nan,nan,nan,nan,nan,nan,nan,nan,nan,nan,nan,nan,nan,nan,nan,nan,nan,138.56554714171216,222.05196364736184,nan,nan,nan,nan,nan,nan
1,58,1,1,1.0,1.0,0.4644899587146938,0.0,6,0,2,8,7,1,nan,nan,nan,nan,nan,nan,nan,nan,nan,nan,nan,nan,0.0,nan,nan,nan,nan,nan,nan,nan,nan,nan,nan,nan,nan,nan,nan,nan,nan,nan,nan,138.56554714171216,223.0604394148104,nan,223.52492937352508,nan,nan,nan,nan
1,59,1,1,0.0,0.0,0.520045593380928,0.0,1,2,6,0,3,8,nan,nan,nan,nan,nan,nan,nan,nan,nan,nan,nan,nan,0.0,nan,nan,nan,nan,nan,nan,nan,nan,nan,nan,nan,nan,nan,nan,nan,nan,nan,nan,138.56554714171216,224.0689171780832,nan,224.58896277146414,nan,nan,nan,nan
1,60,1,1,1.0,1.0,0.5435826759785414,0.0,4,7,8,3,6,0,nan,nan,nan,nan,nan,nan,nan,nan,nan,nan,nan,nan,0.0,nan,nan,nan,nan,nan,nan,nan,nan,nan,nan,nan,nan,nan,nan,nan,nan,nan,nan,138.56554714171216,225.07735759299248,nan,225.62094026897103,nan,nan,nan,nan
1,61,0,0,0.0,1.0,0.6070384592749178,1.0,2,6,5,8,4,7,1.0,1.0,1.0,1.0,1.0,1.0,1.0,0.0,0.0,1.0,0.0,1.0,3.0,2.0,5.0,6.0,8.0,8.0,7.0,4.0,3.0,2.0,1.0,6.0,5.0,4.015380342956632,3.2474311687983572,2.23238040227443,1.2582558831200004,5.85487646702677,4.93565983325243,138.56554714171216,226.0859009292908,226.8943147729151,226.69293938856572,233.80363441072404,234.8118108222261,227.91114314412698,233.79530775127932
1,62,1,1,1.0,1.0,0.6404081052169204,0.0,1,0,7,4,8,3,nan,nan,nan,nan,nan,nan,nan,nan,nan,nan,nan,nan,0.0,nan,nan,nan,nan,nan,nan,nan,nan,nan,nan,nan,nan,nan,nan,nan,nan,nan,nan,138.56554714171216,235.02050332305953,nan,235.66091142827645,nan,nan,nan,nan
1,63,1,1,1.0,1.0,0.4479150422848761,0.0,7,4,3,2,5,1,nan,nan,nan,nan,nan,nan,nan,nan,nan,nan,nan,nan,0.0,nan,nan,nan,nan,nan,nan,nan,nan,nan,nan,nan,nan,nan,nan,nan,nan,nan,nan,138.56554714171216,236.0289745288901,nan,236.47688957117498,nan,nan,nan,nan
1,64,1,1,1.0,1.0,0.3114585797302425,0.0,0,2,4,5,1,3,nan,nan,nan,nan,nan,nan,nan,nan,nan,nan,nan,nan,0.0,nan,nan,nan,nan,nan,nan,nan,nan,nan,nan,nan,nan,nan,nan,nan,nan,nan,nan,138.56554714171216,237.037428913638,nan,237.34888749336824,nan,nan,nan,nan
1,65,1,1,1.0,1.0,0.32726286770775914,0.0,2,1,3,6,0,8,nan,nan,nan,nan,nan,nan,nan,nan,nan,nan,nan,nan,0.0,nan,nan,nan,nan,nan,nan,nan,nan,nan,nan,nan,nan,nan,nan,nan,nan,nan,nan,138.56554714171216,238.0376085275784,nan,238.36487139528617,nan,nan,nan,nan
1,66,1,1,1.0,1.0,0.3507874058559537,0.0,5,7,4,2,1,0,nan,nan,nan,nan,nan,nan,nan,nan,nan,nan,nan,nan,0.0,nan,nan,nan,nan,nan,nan,nan,nan,nan,nan,nan,nan,nan,nan,nan,nan,nan,nan,138.56554714171216,239.0460774526,nan,239.39686485845596,nan,nan,nan,nan
1,67,1,1,1.0,1.0,0.29461538325995207,0.0,8,4,0,3,2,7,nan,nan,nan,nan,nan,nan,nan,nan,nan,nan,nan,nan,0.0,nan,nan,nan,nan,nan,nan,nan,nan,nan,nan,nan,nan,nan,nan,nan,nan,nan,nan,138.56554714171216,240.0462353983894,nan,240.34085078164935,nan,nan,nan,nan
1,68,1,1,1.0,1.0,0.3744593416340649,0.0,1,8,4,0,3,5,nan,nan,nan,nan,nan,nan,nan,nan,nan,nan,nan,nan,0.0,nan,nan,nan,nan,nan,nan,nan,nan,nan,nan,nan,nan,nan,nan,nan,nan,nan,nan,138.56554714171216,241.0463759531267,nan,241.42083529476076,nan,nan,nan,nan
1,69,1,1,1.0,1.0,0.2860227241180837,0.0,3,2,5,4,6,1,nan,nan,nan,nan,nan,nan,nan,nan,nan,nan,nan,nan,0.0,nan,nan,nan,nan,nan,nan,nan,nan,nan,nan,nan,nan,nan,nan,nan,nan,nan,nan,138.56554714171216,242.05484031653032,nan,242.3408630406484,nan,nan,nan,nan
1,70,1,1,1.0,1.0,0.30183300003409386,0.0,1,6,3,8,2,7,nan,nan,nan,nan,nan,nan,nan,nan,nan,nan,nan,nan,0.0,nan,nan,nan,nan,nan,nan,nan,nan,nan,nan,nan,nan,nan,nan,nan,nan,nan,nan,138.56554714171216,243.055000258144,nan,243.35683325817809,nan,nan,nan,nan
1,71,1,1,1.0,1.0,0.3733751024119556,0.0,3,8,7,4,6,1,nan,nan,nan,nan,nan,nan,nan,nan,nan,nan,nan,nan,0.0,nan,nan,nan,nan,nan,nan,nan,nan,nan,nan,nan,nan,nan,nan,nan,nan,nan,nan,138.56554714171216,244.06345407292247,nan,244.43682917533442,nan,nan,nan,nan
1,72,1,1,1.0,1.0,0.3411375926807523,0.0,5,7,1,2,0,8,nan,nan,nan,nan,nan,nan,nan,nan,nan,nan,nan,nan,0.0,nan,nan,nan,nan,nan,nan,nan,nan,nan,nan,nan,nan,nan,nan,nan,nan,nan,nan,138.56554714171216,245.063679873012,nan,245.40481746569276,nan,nan,nan,nan
1,73,1,1,1.0,1.0,0.3087370051071048,0.0,1,4,7,3,2,5,nan,nan,nan,nan,nan,nan,nan,nan,nan,nan,nan,nan,0.0,nan,nan,nan,nan,nan,nan,nan,nan,nan,nan,nan,nan,nan,nan,nan,nan,nan,nan,138.56554714171216,246.07208265457302,nan,246.38081965968013,nan,nan,nan,nan
1,74,1,1,1.0,1.0,0.3482374628074467,0.0,8,3,5,7,1,6,nan,nan,nan,nan,nan,nan,nan,nan,nan,nan,nan,nan,0.0,nan,nan,nan,nan,nan,nan,nan,nan,nan,nan,nan,nan,nan,nan,nan,nan,nan,nan,138.56554714171216,247.08057353226468,nan,247.42881099507213,nan,nan,nan,nan
1,75,1,1,1.0,1.0,0.3557290621101856,0.0,1,6,3,2,4,5,nan,nan,nan,nan,nan,nan,nan,nan,nan,nan,nan,nan,0.0,nan,nan,nan,nan,nan,nan,nan,nan,nan,nan,nan,nan,nan,nan,nan,nan,nan,nan,138.56554714171216,248.08906383952126,nan,248.44479290163144,nan,nan,nan,nan
1,76,0,0,0.0,1.0,0.459578238427639,0.0,8,7,1,5,2,6,nan,nan,nan,nan,nan,nan,nan,nan,nan,nan,nan,nan,0.0,nan,nan,nan,nan,nan,nan,nan,nan,nan,nan,nan,nan,nan,nan,nan,nan,nan,nan,138.56554714171216,249.0892215007916,nan,249.54879973921925,nan,nan,nan,nan
1,77,1,1,1.0,1.0,0.5794141688384116,0.0,7,4,6,0,8,2,nan,nan,nan,nan,nan,nan,nan,nan,nan,nan,nan,nan,0.0,nan,nan,nan,nan,nan,nan,nan,nan,nan,nan,nan,nan,nan,nan,nan,nan,nan,nan,138.56554714171216,250.08937716577202,nan,250.66879133461043,nan,nan,nan,nan
1,78,1,1,1.0,1.0,0.3792744120582938,0.0,8,0,2,4,1,5,nan,nan,nan,nan,nan,nan,nan,nan,nan,nan,nan,nan,0.0,nan,nan,nan,nan,nan,nan,nan,nan,nan,nan,nan,nan,nan,nan,nan,nan,nan,nan,138.56554714171216,251.08949548285455,nan,251.46876989491284,nan,nan,nan,nan
1,79,1,1,1.0,1.0,0.3071116446517408,0.0,3,2,5,7,8,0,nan,nan,nan,nan,nan,nan,nan,nan,nan,nan,nan,nan,0.0,nan,nan,nan,nan,nan,nan,nan,nan,nan,nan,nan,nan,nan,nan,nan,nan,nan,nan,138.56554714171216,252.08965257322416,nan,252.3967642178759,nan,nan,nan,nan
1,80,1,1,1.0,1.0,0.31494194315746427,0.0,5,1,4,8,0,7,nan,nan,nan,nan,nan,nan,nan,nan,nan,nan,nan,nan,0.0,nan,nan,nan,nan,nan,nan,nan,nan,nan,nan,nan,nan,nan,nan,nan,nan,nan,nan,138.56554714171216,253.08980624284595,nan,253.40474818600342,nan,nan,nan,nan
1,81,1,1,1.0,1.0,0.31484130257740617,0.0,2,8,1,3,7,0,nan,nan,nan,nan,nan,nan,nan,nan,nan,nan,nan,nan,0.0,nan,nan,nan,nan,nan,nan,nan,nan,nan,nan,nan,nan,nan,nan,nan,nan,nan,nan,138.56554714171216,254.0899237045087,nan,254.4047650070861,nan,nan,nan,nan
1,82,1,1,1.0,1.0,0.3143215635791421,0.0,8,0,7,4,1,3,nan,nan,nan,nan,nan,nan,nan,nan,nan,nan,nan,nan,0.0,nan,nan,nan,nan,nan,nan,nan,nan,nan,nan,nan,nan,nan,nan,nan,nan,nan,nan,138.56554714171216,255.09840859519318,nan,255.41273015877232,nan,nan,nan,nan
1,83,1,1,1.0,1.0,0.36183934612199664,0.0,6,2,3,0,5,8,nan,nan,nan,nan,nan,nan,nan,nan,nan,nan,nan,nan,0.0,nan,nan,nan,nan,nan,nan,nan,nan,nan,nan,nan,nan,nan,nan,nan,nan,nan,nan,138.56554714171216,256.106938816607,nan,256.468778162729,nan,nan,nan,nan
1,84,1,1,1.0,1.0,0.42572278110310435,0.0,3,5,8,6,7,2,nan,nan,nan,nan,nan,nan,nan,nan,nan,nan,nan,nan,0.0,nan,nan,nan,nan,nan,nan,nan,nan,nan,nan,nan,nan,nan,nan,nan,nan,nan,nan,138.56554714171216,257.10704287840053,nan,257.53276565950364,nan,nan,nan,nan
1,85,1,1,1.0,1.0,0.3375476012006402,0.0,2,6,7,8,5,4,nan,nan,nan,nan,nan,nan,nan,nan,nan,nan,nan,nan,0.0,nan,nan,nan,nan,nan,nan,nan,nan,nan,nan,nan,nan,nan,nan,nan,nan,nan,nan,138.56554714171216,258.10717887151986,nan,258.4447264727205,nan,nan,nan,nan
1,86,1,1,1.0,1.0,0.2974427295848727,0.0,1,3,5,7,6,0,nan,nan,nan,nan,nan,nan,nan,nan,nan,nan,nan,nan,0.0,nan,nan,nan,nan,nan,nan,nan,nan,nan,nan,nan,nan,nan,nan,nan,nan,nan,nan,138.56554714171216,259.1072931974195,nan,259.40473592700437,nan,nan,nan,nan
1,87,1,1,1.0,1.0,0.36894463328644633,0.0,3,8,0,5,2,1,nan,nan,nan,nan,nan,nan,nan,nan,nan,nan,nan,nan,0.0,nan,nan,nan,nan,nan,nan,nan,nan,nan,nan,nan,nan,nan,nan,nan,nan,nan,nan,138.56554714171216,260.11578892171383,nan,260.4847335550003,nan,nan,nan,nan
1,88,1,1,1.0,1.0,0.3607488349080086,0.0,7,4,5,6,0,3,nan,nan,nan,nan,nan,nan,nan,nan,nan,nan,nan,nan,0.0,nan,nan,nan,nan,nan,nan,nan,nan,nan,nan,nan,nan,nan,nan,nan,nan,nan,nan,138.56554714171216,261.1159673947841,nan,261.4767162296921,nan,nan,nan,nan
1,89,0,0,0.0,1.0,0.5841927463188767,1.0,1,3,2,7,6,8,1.0,1.0,1.0,1.0,1.0,1.0,0.0,0.0,1.0,0.0,0.0,0.0,1.0,8.0,7.0,2.0,3.0,4.0,1.0,4.0,3.0,2.0,1.0,6.0,5.0,5.817181554157287,4.857326054945588,3.914412966929376,2.8886672067455947,8.320375968236476,6.960246942937374,138.56554714171216,262.1245075953193,262.9328430360183,262.7087003416382,272.3091954481788,273.3123951363377,263.94966114358976,272.30085795465857
1,90,1,1,nan,nan,nan,0.0,8,1,3,4,5,2,nan,nan,nan,nan,nan,nan,nan,nan,nan,nan,nan,nan,0.0,nan,nan,nan,nan,nan,nan,nan,nan,nan,nan,nan,nan,nan,nan,nan,nan,nan,nan,138.56554714171216,273.5177234457806,nan,nan,nan,nan,nan,nan
1,91,1,1,1.0,1.0,0.5347243030555546,0.0,6,3,7,2,0,8,nan,nan,nan,nan,nan,nan,nan,nan,nan,nan,nan,nan,0.0,nan,nan,nan,nan,nan,nan,nan,nan,nan,nan,nan,nan,nan,nan,nan,nan,nan,nan,138.56554714171216,274.5178839578293,nan,275.0526082608849,nan,nan,nan,nan
1,92,1,1,1.0,1.0,0.47060965141281486,0.0,7,2,6,0,1,4,nan,nan,nan,nan,nan,nan,nan,nan,nan,nan,nan,nan,0.0,nan,nan,nan,nan,nan,nan,nan,nan,nan,nan,nan,nan,nan,nan,nan,nan,nan,nan,138.56554714171216,275.51801852555946,nan,275.98862817697227,nan,nan,nan,nan
1,93,1,1,1.0,1.0,0.3664397355169058,0.0,6,8,0,5,2,7,nan,nan,nan,nan,nan,nan,nan,nan,nan,nan,nan,nan,0.0,nan,nan,nan,nan,nan,nan,nan,nan,nan,nan,nan,nan,nan,nan,nan,nan,nan,nan,138.56554714171216,276.5181664931588,nan,276.8846062286757,nan,nan,nan,nan
1,94,1,1,1.0,1.0,0.3102865293622017,0.0,2,7,5,0,4,1,nan,nan,nan,nan,nan,nan,nan,nan,nan,nan,nan,nan,0.0,nan,nan,nan,nan,nan,nan,nan,nan,nan,nan,nan,nan,nan,nan,nan,nan,nan,nan,138.56554714171216,277.5183073328808,nan,277.828593862243,nan,nan,nan,nan
1,95,1,1,1.0,1.0,0.2861538711003959,0.0,4,2,0,3,1,7,nan,nan,nan,nan,nan,nan,nan,nan,nan,nan,nan,nan,0.0,nan,nan,nan,nan,nan,nan,nan,nan,nan,nan,nan,nan,nan,nan,nan,nan,nan,nan,138.56554714171216,278.5184530192055,nan,278.8046068903059,nan,nan,nan,nan
1,96,0,0,1.0,0.0,0.3500122162513435,0.0,2,4,1,0,5,8,nan,nan,nan,nan,nan,nan,nan,nan,nan,nan,nan,nan,0.0,nan,nan,nan,nan,nan,nan,nan,nan,nan,nan,nan,nan,nan,nan,nan,nan,nan,nan,138.56554714171216,279.5186004168354,nan,279.86861263308674,nan,nan,nan,nan
1,97,1,1,1.0,1.0,0.4938399652019143,0.0,5,2,3,7,4,6,nan,nan,nan,nan,nan,nan,nan,nan,nan,nan,nan,nan,0.0,nan,nan,nan,nan,nan,nan,nan,nan,nan,nan,nan,nan,nan,nan,nan,nan,nan,nan,138.56554714171216,280.51873669493943,nan,281.01257666014135,nan,nan,nan,nan
1,98,1,1,1.0,1.0,0.35770652210339904,0.0,6,7,5,8,3,1,nan,nan,nan,nan,nan,nan,nan,nan,nan,nan,nan,nan,0.0,nan,nan,nan,nan,nan,nan,nan,nan,nan,nan,nan,nan,nan,nan,nan,nan,nan,nan,138.56554714171216,281.51887582428753,nan,281.87658234639093,nan,nan,nan,nan
1,99,1,1,1.0,1.0,0.3334960313513875,0.0,4,2,8,5,0,3,nan,nan,nan,nan,nan,nan,nan,nan,nan,nan,nan,nan,0.0,nan,nan,nan,nan,nan,nan,nan,nan,nan,nan,nan,nan,nan,nan,nan,nan,nan,nan,138.56554714171216,282.5190716884099,nan,282.8525677197613,nan,nan,nan,nan
1,100,1,1,1.0,1.0,0.3650678298436105,0.0,2,3,6,1,7,8,nan,nan,nan,nan,nan,nan,nan,nan,nan,nan,nan,nan,0.0,nan,nan,nan,nan,nan,nan,nan,nan,nan,nan,nan,nan,nan,nan,nan,nan,nan,nan,138.56554714171216,283.52749585267156,nan,283.8925636825152,nan,nan,nan,nan
1,101,1,1,1.0,1.0,0.36491244984790683,0.0,5,2,0,4,6,7,nan,nan,nan,nan,nan,nan,nan,nan,nan,nan,nan,nan,0.0,nan,nan,nan,nan,nan,nan,nan,nan,nan,nan,nan,nan,nan,nan,nan,nan,nan,nan,138.56554714171216,284.52765721967444,nan,284.89256966952235,nan,nan,nan,nan
1,102,1,1,1.0,1.0,0.3567559951916337,0.0,8,7,2,3,5,4,nan,nan,nan,nan,nan,nan,nan,nan,nan,nan,nan,nan,0.0,nan,nan,nan,nan,nan,nan,nan,nan,nan,nan,nan,nan,nan,nan,nan,nan,nan,nan,138.56554714171216,285.52780718309805,nan,285.8845631782897,nan,nan,nan,nan
1,103,1,1,1.0,1.0,0.30860699946060777,0.0,2,8,1,4,0,5,nan,nan,nan,nan,nan,nan,nan,nan,nan,nan,nan,nan,0.0,nan,nan,nan,nan,nan,nan,nan,nan,nan,nan,nan,nan,nan,nan,nan,nan,nan,nan,138.56554714171216,286.5279363337904,nan,286.83654333325103,nan,nan,nan,nan
1,104,1,1,1.0,1.0,0.33243973180651665,0.0,0,4,2,5,7,8,nan,nan,nan,nan,nan,nan,nan,nan,nan,nan,nan,nan,0.0,nan,nan,nan,nan,nan,nan,nan,nan,nan,nan,nan,nan,nan,nan,nan,nan,nan,nan,138.56554714171216,287.5280982712284,nan,287.8605380030349,nan,nan,nan,nan
1,105,1,1,1.0,1.0,0.36400953494012356,0.0,6,7,8,0,3,1,nan,nan,nan,nan,nan,nan,nan,nan,nan,nan,nan,nan,0.0,nan,nan,nan,nan,nan,nan,nan,nan,nan,nan,nan,nan,nan,nan,nan,nan,nan,nan,138.56554714171216,288.53652585623786,nan,288.900535391178,nan,nan,nan,nan
1,106,1,1,1.0,1.0,0.3154944689013064,0.0,0,2,3,7,8,6,nan,nan,nan,nan,nan,nan,nan,nan,nan,nan,nan,nan,0.0,nan,nan,nan,nan,nan,nan,nan,nan,nan,nan,nan,nan,nan,nan,nan,nan,nan,nan,138.56554714171216,289.545041823294,nan,289.8605362921953,nan,nan,nan,nan
1,107,0,0,0.0,1.0,0.49931675568223,1.0,4,3,6,5,1,2,1.0,1.0,1.0,1.0,1.0,1.0,1.0,1.0,1.0,1.0,1.0,0.0,5.0,4.0,3.0,6.0,5.0,1.0,5.0,4.0,3.0,2.0,1.0,6.0,5.0,4.236707950010896,2.852953460998833,1.9979390050284564,1.0112344045192003,6.411157256457955,5.435621487442404,138.56554714171216,290.54519777325913,291.3536130422726,291.04451452894136,298.82134545454755,299.83222091710195,292.3704308648594,298.8130085314624
1,108,1,1,1.0,1.0,0.5582499816082418,0.0,3,2,4,0,6,7,nan,nan,nan,nan,nan,nan,nan,nan,nan,nan,nan,nan,0.0,nan,nan,nan,nan,nan,nan,nan,nan,nan,nan,nan,nan,nan,nan,nan,nan,nan,nan,138.56554714171216,300.0382194989361,nan,300.59646948054433,nan,nan,nan,nan
1,109,0,0,0.0,1.0,0.6700625997036695,0.0,2,4,7,8,3,6,nan,nan,nan,nan,nan,nan,nan,nan,nan,nan,nan,nan,0.0,nan,nan,nan,nan,nan,nan,nan,nan,nan,nan,nan,nan,nan,nan,nan,nan,nan,nan,138.56554714171216,301.038376304321,nan,301.70843890402466,nan,nan,nan,nan
1,110,1,1,1.0,1.0,0.4776080255396664,0.0,4,7,1,2,5,3,nan,nan,nan,nan,nan,nan,nan,nan,nan,nan,nan,nan,0.0,nan,nan,nan,nan,nan,nan,nan,nan,nan,nan,nan,nan,nan,nan,nan,nan,nan,nan,138.56554714171216,302.0468275533058,nan,302.52443557884544,nan,nan,nan,nan
1,111,1,1,1.0,1.0,0.47744409227743745,0.0,1,4,6,5,7,8,nan,nan,nan,nan,nan,nan,nan,nan,nan,nan,nan,nan,0.0,nan,nan,nan,nan,nan,nan,nan,nan,nan,nan,nan,nan,nan,nan,nan,nan,nan,nan,138.56554714171216,303.0469966181554,nan,303.5244407104328,nan,nan,nan,nan
1,112,1,1,1.0,1.0,0.45328948087990284,0.0,8,3,5,1,4,6,nan,nan,nan,nan,nan,nan,nan,nan,nan,nan,nan,nan,0.0,nan,nan,nan,nan,nan,nan,nan,nan,nan,nan,nan,nan,nan,nan,nan,nan,nan,nan,138.56554714171216,304.04714373033494,nan,304.50043321121484,nan,nan,nan,nan
1,113,1,1,1.0,1.0,0.44513815827667713,0.0,2,8,4,7,6,1,nan,nan,nan,nan,nan,nan,nan,nan,nan,nan,nan,nan,0.0,nan,nan,nan,nan,nan,nan,nan,nan,nan,nan,nan,nan,nan,nan,nan,nan,nan,nan,138.56554714171216,305.0472785830498,nan,305.49241674132645,nan,nan,nan,nan
1,114,1,1,1.0,1.0,0.3809790313243866,0.0,0,6,2,5,4,8,nan,nan,nan,nan,nan,nan,nan,nan,nan,nan,nan,nan,0.0,nan,nan,nan,nan,nan,nan,nan,nan,nan,nan,nan,nan,nan,nan,nan,nan,nan,nan,138.56554714171216,306.04743995005265,nan,306.42841898137704,nan,nan,nan,nan
1,115,1,1,1.0,1.0,0.4528464339673519,0.0,4,2,5,0,1,3,nan,nan,nan,nan,nan,nan,nan,nan,nan,nan,nan,nan,0.0,nan,nan,nan,nan,nan,nan,nan,nan,nan,nan,nan,nan,nan,nan,nan,nan,nan,nan,138.56554714171216,307.0475719519891,nan,307.50041838595644,nan,nan,nan,nan
1,116,1,1,1.0,1.0,0.34837488178163767,0.0,5,1,2,3,4,7,nan,nan,nan,nan,nan,nan,nan,nan,nan,nan,nan,nan,0.0,nan,nan,nan,nan,nan,nan,nan,nan,nan,nan,nan,nan,nan,nan,nan,nan,nan,nan,138.56554714171216,308.05602747714147,nan,308.4044023589231,nan,nan,nan,nan
1,117,1,1,1.0,1.0,0.3082184069789946,0.0,6,2,8,7,3,0,nan,nan,nan,nan,nan,nan,nan,nan,nan,nan,nan,nan,0.0,nan,nan,nan,nan,nan,nan,nan,nan,nan,nan,nan,nan,nan,nan,nan,nan,nan,nan,138.56554714171216,309.0561922653578,nan,309.3644106723368,nan,nan,nan,nan
1,118,1,1,1.0,1.0,0.37205622531473637,0.0,7,5,2,8,0,1,nan,nan,nan,nan,nan,nan,nan,nan,nan,nan,nan,nan,0.0,nan,nan,nan,nan,nan,nan,nan,nan,nan,nan,nan,nan,nan,nan,nan,nan,nan,nan,138.56554714171216,310.05634251376614,nan,310.4283987390809,nan,nan,nan,nan
1,119,1,1,1.0,1.0,0.3478981927037239,0.0,8,1,4,7,6,0,nan,nan,nan,nan,nan,nan,nan,nan,nan,nan,nan,nan,0.0,nan,nan,nan,nan,nan,nan,nan,nan,nan,nan,nan,nan,nan,nan,nan,nan,nan,nan,138.56554714171216,311.0564879151061,nan,311.40438610780984,nan,nan,nan,nan
1,120,1,1,1.0,1.0,0.3317657532170415,0.0,6,2,7,1,4,5,nan,nan,nan,nan,nan,nan,nan,nan,nan,nan,nan,nan,0.0,nan,nan,nan,nan,nan,nan,nan,nan,nan,nan,nan,nan,nan,nan,nan,nan,nan,nan,138.56554714171216,312.05662476364523,nan,312.3883905168623,nan,nan,nan,nan
1,121,1,1,1.0,1.0,0.3072926835156977,0.0,1,7,8,3,6,4,nan,nan,nan,nan,nan,nan,nan,nan,nan,nan,nan,nan,0.0,nan,nan,nan,nan,nan,nan,nan,nan,nan,nan,nan,nan,nan,nan,nan,nan,nan,nan,138.56554714171216,313.06508855707943,nan,313.37238124059513,nan,nan,nan,nan
1,122,1,1,1.0,1.0,0.3227896336466074,0.0,4,3,6,5,7,8,nan,nan,nan,nan,nan,nan,nan,nan,nan,nan,nan,nan,0.0,nan,nan,nan,nan,nan,nan,nan,nan,nan,nan,nan,nan,nan,nan,nan,nan,nan,nan,138.56554714171216,314.0735697411001,nan,314.3963593747467,nan,nan,nan,nan
1,123,1,1,1.0,1.0,0.3066540574654937,0.0,2,0,5,6,1,3,nan,nan,nan,nan,nan,nan,nan,nan,nan,nan,nan,nan,0.0,nan,nan,nan,nan,nan,nan,nan,nan,nan,nan,nan,nan,nan,nan,nan,nan,nan,nan,138.56554714171216,315.0737302531488,nan,315.3803843106143,nan,nan,nan,nan
1,124,1,1,1.0,1.0,0.30648271180689335,0.0,6,4,3,2,5,1,nan,nan,nan,nan,nan,nan,nan,nan,nan,nan,nan,nan,0.0,nan,nan,nan,nan,nan,nan,nan,nan,nan,nan,nan,nan,nan,nan,nan,nan,nan,nan,138.56554714171216,316.0738730886951,nan,316.380355800502,nan,nan,nan,nan
1,125,1,1,1.0,1.0,0.306038239505142,0.0,5,1,0,6,7,8,nan,nan,nan,nan,nan,nan,nan,nan,nan,nan,nan,nan,0.0,nan,nan,nan,nan,nan,nan,nan,nan,nan,nan,nan,nan,nan,nan,nan,nan,nan,nan,138.56554714171216,317.0823106523603,nan,317.38834889186546,nan,nan,nan,nan
1,126,1,1,1.0,1.0,0.30550994724035263,0.0,3,7,5,8,1,2,nan,nan,nan,nan,nan,nan,nan,nan,nan,nan,nan,nan,0.0,nan,nan,nan,nan,nan,nan,nan,nan,nan,nan,nan,nan,nan,nan,nan,nan,nan,nan,138.56554714171216,318.09083175100386,nan,318.3963416982442,nan,nan,nan,nan
1,127,1,1,1.0,1.0,0.5933767049573362,0.0,7,5,8,1,2,6,nan,nan,nan,nan,nan,nan,nan,nan,nan,nan,nan,nan,0.0,nan,nan,nan,nan,nan,nan,nan,nan,nan,nan,nan,nan,nan,nan,nan,nan,nan,nan,138.56554714171216,319.0909620421007,nan,319.68433874705806,nan,nan,nan,nan
1,128,1,1,1.0,1.0,0.5852011488750577,0.0,0,7,1,6,4,3,nan,nan,nan,nan,nan,nan,nan,nan,nan,nan,nan,nan,0.0,nan,nan,nan,nan,nan,nan,nan,nan,nan,nan,nan,nan,nan,nan,nan,nan,nan,nan,138.56554714171216,320.0911345281638,nan,320.6763356770389,nan,nan,nan,nan
1,129,1,1,1.0,1.0,0.4887531935237348,0.0,5,6,4,3,2,1,nan,nan,nan,nan,nan,nan,nan,nan,nan,nan,nan,nan,0.0,nan,nan,nan,nan,nan,nan,nan,nan,nan,nan,nan,nan,nan,nan,nan,nan,nan,nan,138.56554714171216,321.09957807930186,nan,321.5883312728256,nan,nan,nan,nan
1,130,0,0,0.0,1.0,0.7525682612322271,1.0,6,3,8,0,7,4,1.0,1.0,1.0,1.0,1.0,1.0,0.0,1.0,1.0,1.0,0.0,0.0,3.0,2.0,3.0,8.0,0.0,6.0,7.0,5.0,6.0,1.0,2.0,3.0,4.0,5.288011873606592,6.424255650956184,0.8320646812207997,2.9386987248435616,3.7380871260538697,4.577430150937289,138.56554714171216,322.09973830590025,322.9081569961272,322.8523065671325,330.40090274391696,331.4064368396066,323.9333111718297,330.39257437363267
1,131,1,1,1.0,1.0,0.31479625683277845,0.0,8,4,7,3,5,1,nan,nan,nan,nan,nan,nan,nan,nan,nan,nan,nan,nan,0.0,nan,nan,nan,nan,nan,nan,nan,nan,nan,nan,nan,nan,nan,nan,nan,nan,nan,nan,138.56554714171216,331.6094452822581,nan,331.9242415390909,nan,nan,nan,nan
1,132,1,1,1.0,1.0,0.36263905419036746,0.0,2,7,4,8,1,3,nan,nan,nan,nan,nan,nan,nan,nan,nan,nan,nan,nan,0.0,nan,nan,nan,nan,nan,nan,nan,nan,nan,nan,nan,nan,nan,nan,nan,nan,nan,nan,138.56554714171216,332.60959496023133,nan,332.9722340144217,nan,nan,nan,nan
1,133,0,0,1.0,0.0,0.3225110899657011,0.0,8,1,6,0,3,7,nan,nan,nan,nan,nan,nan,nan,nan,nan,nan,nan,nan,0.0,nan,nan,nan,nan,nan,nan,nan,nan,nan,nan,nan,nan,nan,nan,nan,nan,nan,nan,138.56554714171216,333.6097232555039,nan,333.9322343454696,nan,nan,nan,nan
1,134,1,1,1.0,1.0,0.35401874082162976,0.0,3,5,4,1,2,6,nan,nan,nan,nan,nan,nan,nan,nan,nan,nan,nan,nan,0.0,nan,nan,nan,nan,nan,nan,nan,nan,nan,nan,nan,nan,nan,nan,nan,nan,nan,nan,138.56554714171216,334.6181913251057,nan,334.97221006592736,nan,nan,nan,nan
1,135,1,1,1.0,1.0,0.3458403339609504,0.0,7,4,8,3,0,5,nan,nan,nan,nan,nan,nan,nan,nan,nan,nan,nan,nan,0.0,nan,nan,nan,nan,nan,nan,nan,nan,nan,nan,nan,nan,nan,nan,nan,nan,nan,nan,138.56554714171216,335.6183809172362,nan,335.96422125119716,nan,nan,nan,nan
1,136,1,1,1.0,1.0,0.4337563565932214,0.0,8,6,0,5,1,3,nan,nan,nan,nan,nan,nan,nan,nan,nan,nan,nan,nan,0.0,nan,nan,nan,nan,nan,nan,nan,nan,nan,nan,nan,nan,nan,nan,nan,nan,nan,nan,138.56554714171216,336.61846758797765,nan,337.05222394457087,nan,nan,nan,nan
1,137,1,1,1.0,1.0,0.35356200905516744,0.0,7,5,1,4,0,8,nan,nan,nan,nan,nan,nan,nan,nan,nan,nan,nan,nan,0.0,nan,nan,nan,nan,nan,nan,nan,nan,nan,nan,nan,nan,nan,nan,nan,nan,nan,nan,138.56554714171216,337.6186491972767,nan,337.97221120633185,nan,nan,nan,nan
1,138,1,1,1.0,1.0,0.3374050506390631,0.0,0,8,5,2,3,6,nan,nan,nan,nan,nan,nan,nan,nan,nan,nan,nan,nan,0.0,nan,nan,nan,nan,nan,nan,nan,nan,nan,nan,nan,nan,nan,nan,nan,nan,nan,nan,138.56554714171216,338.61879174783826,nan,338.9561967984773,nan,nan,nan,nan
1,139,0,0,1.0,0.0,0.3452518852427602,1.0,3,1,4,5,0,8,1.0,1.0,1.0,1.0,1.0,1.0,0.0,1.0,1.0,1.0,0.0,0.0,3.0,8.0,1.0,4.0,5.0,4.0,2.0,4.0,3.0,2.0,1.0,6.0,5.0,4.082353132311255,3.192697764839977,2.1935676080174744,1.003572600428015,5.832911716308445,4.865535252727568,138.56554714171216,339.6189411408268,340.42736382223666,339.96419302606955,347.3283359883353,348.3323368104175,341.4525037431158,347.32001645630226
1,140,1,1,0.0,0.0,0.6352754319086671,0.0,2,5,8,7,3,4,nan,nan,nan,nan,nan,nan,nan,nan,nan,nan,nan,nan,0.0,nan,nan,nan,nan,nan,nan,nan,nan,nan,nan,nan,nan,nan,nan,nan,nan,nan,nan,138.56554714171216,348.53688251785934,nan,349.172157949768,nan,nan,nan,nan
1,141,1,1,1.0,1.0,0.6110638002865016,0.0,1,6,2,4,8,0,nan,nan,nan,nan,nan,nan,nan,nan,nan,nan,nan,nan,0.0,nan,nan,nan,nan,nan,nan,nan,nan,nan,nan,nan,nan,nan,nan,nan,nan,nan,nan,138.56554714171216,349.5370361870155,nan,350.148099987302,nan,nan,nan,nan
1,142,1,1,1.0,1.0,0.41893395595252514,0.0,5,7,8,0,3,1,nan,nan,nan,nan,nan,nan,nan,nan,nan,nan,nan,nan,0.0,nan,nan,nan,nan,nan,nan,nan,nan,nan,nan,nan,nan,nan,nan,nan,nan,nan,nan,138.56554714171216,350.5371813038364,nan,350.95611525978893,nan,nan,nan,nan
1,143,1,1,1.0,1.0,0.37076300755143166,0.0,7,4,5,6,1,8,nan,nan,nan,nan,nan,nan,nan,nan,nan,nan,nan,nan,0.0,nan,nan,nan,nan,nan,nan,nan,nan,nan,nan,nan,nan,nan,nan,nan,nan,nan,nan,138.56554714171216,351.5373398195952,nan,351.90810282714665,nan,nan,nan,nan
1,144,1,1,1.0,1.0,0.34662977838888764,0.0,8,6,1,5,2,0,nan,nan,nan,nan,nan,nan,nan,nan,nan,nan,nan,nan,0.0,nan,nan,nan,nan,nan,nan,nan,nan,nan,nan,nan,nan,nan,nan,nan,nan,nan,nan,138.56554714171216,352.53747011115775,nan,352.88409988954663,nan,nan,nan,nan
1,145,1,1,1.0,1.0,0.3624691339209676,0.0,2,3,8,1,0,7,nan,nan,nan,nan,nan,nan,nan,nan,nan,nan,nan,nan,0.0,nan,nan,nan,nan,nan,nan,nan,nan,nan,nan,nan,nan,nan,nan,nan,nan,nan,nan,138.56554714171216,353.5376140871085,nan,353.9000832210295,nan,nan,nan,nan
1,146,1,1,1.0,1.0,0.37832759227603674,0.0,0,1,4,2,6,5,nan,nan,nan,nan,nan,nan,nan,nan,nan,nan,nan,nan,0.0,nan,nan,nan,nan,nan,nan,nan,nan,nan,nan,nan,nan,nan,nan,nan,nan,nan,nan,138.56554714171216,354.5377760240808,nan,354.91610361635685,nan,nan,nan,nan
1,147,1,1,1.0,1.0,0.32217324525117874,0.0,7,6,2,4,5,8,nan,nan,nan,nan,nan,nan,nan,nan,nan,nan,nan,nan,0.0,nan,nan,nan,nan,nan,nan,nan,nan,nan,nan,nan,nan,nan,nan,nan,nan,nan,nan,138.56554714171216,355.5379194300622,nan,355.86009267531335,nan,nan,nan,nan
1,148,1,1,1.0,1.0,0.30572918988764286,0.0,1,2,6,8,0,3,nan,nan,nan,nan,nan,nan,nan,nan,nan,nan,nan,nan,0.0,nan,nan,nan,nan,nan,nan,nan,nan,nan,nan,nan,nan,nan,nan,nan,nan,nan,nan,138.56554714171216,356.54635813459754,nan,356.8520873244852,nan,nan,nan,nan
1,149,1,1,1.0,1.0,0.3295516590587795,0.0,3,4,7,5,6,1,nan,nan,nan,nan,nan,nan,nan,nan,nan,nan,nan,nan,0.0,nan,nan,nan,nan,nan,nan,nan,nan,nan,nan,nan,nan,nan,nan,nan,nan,nan,nan,138.56554714171216,357.5465120887384,nan,357.87606374779716,nan,nan,nan,nan
1,150,1,1,1.0,1.0,0.36137805273756385,0.0,0,7,2,8,4,5,nan,nan,nan,nan,nan,nan,nan,nan,nan,nan,nan,nan,0.0,nan,nan,nan,nan,nan,nan,nan,nan,nan,nan,nan,nan,nan,nan,nan,nan,nan,nan,138.56554714171216,358.54668742604554,nan,358.9080654787831,nan,nan,nan,nan
1,151,0,0,0.0,1.0,0.6572339101694524,1.0,2,3,6,0,8,4,1.0,1.0,1.0,1.0,1.0,1.0,0.0,1.0,1.0,1.0,1.0,0.0,4.0,5.0,3.0,6.0,0.0,8.0,2.0,4.0,3.0,2.0,1.0,6.0,5.0,3.83410628978163,2.8511573248542845,2.177444006782025,1.2658064980059862,5.297544796019793,4.609090901445597,138.56554714171216,359.54683681903407,360.3552301353775,360.2040707292035,366.70614213030785,367.7074515991844,361.37205023830757,366.697807203047
1,152,1,1,nan,nan,nan,0.0,6,0,1,4,5,2,nan,nan,nan,nan,nan,nan,nan,nan,nan,nan,nan,nan,0.0,nan,nan,nan,nan,nan,nan,nan,nan,nan,nan,nan,nan,nan,nan,nan,nan,nan,nan,138.56554714171216,367.9146701283753,nan,nan,nan,nan,nan,nan
1,153,1,1,1.0,1.0,0.0408723633736372,0.0,1,4,7,2,6,3,nan,nan,nan,nan,nan,nan,nan,nan,nan,nan,nan,nan,0.0,nan,nan,nan,nan,nan,nan,nan,nan,nan,nan,nan,nan,nan,nan,nan,nan,nan,nan,138.56554714171216,368.92314589582384,nan,368.9640182591975,nan,nan,nan,nan
1,154,1,1,1.0,1.0,0.5046629691496491,0.0,3,8,0,5,7,2,nan,nan,nan,nan,nan,nan,nan,nan,nan,nan,nan,nan,0.0,nan,nan,nan,nan,nan,nan,nan,nan,nan,nan,nan,nan,nan,nan,nan,nan,nan,nan,138.56554714171216,369.923306977842,nan,370.42796994699165,nan,nan,nan,nan
1,155,1,1,1.0,1.0,0.6722085545770824,0.0,6,5,7,0,1,8,nan,nan,nan,nan,nan,nan,nan,nan,nan,nan,nan,nan,0.0,nan,nan,nan,nan,nan,nan,nan,nan,nan,nan,nan,nan,nan,nan,nan,nan,nan,nan,138.56554714171216,370.93178131990135,nan,371.60398987447843,nan,nan,nan,nan
1,156,1,1,1.0,1.0,0.4000243474729359,0.0,0,6,8,2,3,1,nan,nan,nan,nan,nan,nan,nan,nan,nan,nan,nan,nan,0.0,nan,nan,nan,nan,nan,nan,nan,nan,nan,nan,nan,nan,nan,nan,nan,nan,nan,nan,138.56554714171216,371.93194781895727,nan,372.3319721664302,nan,nan,nan,nan
1,157,1,1,1.0,1.0,0.4875774369575083,0.0,5,7,4,1,8,6,nan,nan,nan,nan,nan,nan,nan,nan,nan,nan,nan,nan,0.0,nan,nan,nan,nan,nan,nan,nan,nan,nan,nan,nan,nan,nan,nan,nan,nan,nan,nan,138.56554714171216,372.9403956462629,nan,373.4279730832204,nan,nan,nan,nan
1,158,1,1,1.0,1.0,0.34340699715539813,0.0,8,4,7,3,2,1,nan,nan,nan,nan,nan,nan,nan,nan,nan,nan,nan,nan,0.0,nan,nan,nan,nan,nan,nan,nan,nan,nan,nan,nan,nan,nan,nan,nan,nan,nan,nan,138.56554714171216,373.9405524516478,nan,374.2839594488032,nan,nan,nan,nan
1,159,1,1,1.0,1.0,0.4872535620816052,0.0,7,3,8,5,1,2,nan,nan,nan,nan,nan,nan,nan,nan,nan,nan,nan,nan,0.0,nan,nan,nan,nan,nan,nan,nan,nan,nan,nan,nan,nan,nan,nan,nan,nan,nan,nan,138.56554714171216,374.94069927884266,nan,375.42795284092426,nan,nan,nan,nan
1,160,1,1,1.0,1.0,0.39078764570876956,0.0,3,2,4,0,8,6,nan,nan,nan,nan,nan,nan,nan,nan,nan,nan,nan,nan,0.0,nan,nan,nan,nan,nan,nan,nan,nan,nan,nan,nan,nan,nan,nan,nan,nan,nan,nan,138.56554714171216,375.949159365613,nan,376.3399470113218,nan,nan,nan,nan
1,161,1,1,1.0,1.0,0.34235041262581944,0.0,0,4,2,1,7,5,nan,nan,nan,nan,nan,nan,nan,nan,nan,nan,nan,nan,0.0,nan,nan,nan,nan,nan,nan,nan,nan,nan,nan,nan,nan,nan,nan,nan,nan,nan,nan,138.56554714171216,376.95764881791547,nan,377.2999992305413,nan,nan,nan,nan
1,162,1,1,1.0,1.0,0.39814382139593363,0.0,5,1,4,3,2,7,nan,nan,nan,nan,nan,nan,nan,nan,nan,nan,nan,nan,0.0,nan,nan,nan,nan,nan,nan,nan,nan,nan,nan,nan,nan,nan,nan,nan,nan,nan,nan,138.56554714171216,377.95779222389683,nan,378.35593604529276,nan,nan,nan,nan
1,163,1,1,1.0,1.0,0.3176518282853067,0.0,7,3,8,1,6,0,nan,nan,nan,nan,nan,nan,nan,nan,nan,nan,nan,nan,0.0,nan,nan,nan,nan,nan,nan,nan,nan,nan,nan,nan,nan,nan,nan,nan,nan,nan,nan,138.56554714171216,378.9662799653597,nan,379.283931793645,nan,nan,nan,nan
1,164,1,1,1.0,1.0,0.34952725982293487,0.0,4,5,7,2,8,1,nan,nan,nan,nan,nan,nan,nan,nan,nan,nan,nan,nan,0.0,nan,nan,nan,nan,nan,nan,nan,nan,nan,nan,nan,nan,nan,nan,nan,nan,nan,nan,138.56554714171216,379.9664094010368,nan,380.31593666085973,nan,nan,nan,nan
1,165,1,1,1.0,1.0,0.2933458280749619,0.0,6,8,1,7,5,0,nan,nan,nan,nan,nan,nan,nan,nan,nan,nan,nan,nan,0.0,nan,nan,nan,nan,nan,nan,nan,nan,nan,nan,nan,nan,nan,nan,nan,nan,nan,nan,138.56554714171216,380.96656820271164,nan,381.2599140307866,nan,nan,nan,nan
1,166,1,1,1.0,1.0,0.26120582316070795,0.0,2,1,5,3,6,8,nan,nan,nan,nan,nan,nan,nan,nan,nan,nan,nan,nan,0.0,nan,nan,nan,nan,nan,nan,nan,nan,nan,nan,nan,nan,nan,nan,nan,nan,nan,nan,138.56554714171216,381.9667150294408,nan,382.2279208526015,nan,nan,nan,nan
1,167,1,1,1.0,1.0,0.3890297128818929,0.0,7,0,2,6,3,4,nan,nan,nan,nan,nan,nan,nan,nan,nan,nan,nan,nan,0.0,nan,nan,nan,nan,nan,nan,nan,nan,nan,nan,nan,nan,nan,nan,nan,nan,nan,nan,138.56554714171216,382.96689891954884,nan,383.35592863243073,nan,nan,nan,nan
1,168,1,1,1.0,1.0,0.5809234934858978,0.0,0,5,4,2,6,7,nan,nan,nan,nan,nan,nan,nan,nan,nan,nan,nan,nan,0.0,nan,nan,nan,nan,nan,nan,nan,nan,nan,nan,nan,nan,nan,nan,nan,nan,nan,nan,138.56554714171216,383.96700640255585,nan,384.54792989604175,nan,nan,nan,nan
1,169,1,1,1.0,1.0,0.46072035329416394,0.0,8,2,7,5,0,1,nan,nan,nan,nan,nan,nan,nan,nan,nan,nan,nan,nan,0.0,nan,nan,nan,nan,nan,nan,nan,nan,nan,nan,nan,nan,nan,nan,nan,nan,nan,nan,138.56554714171216,384.9671717612073,nan,385.42789211450145,nan,nan,nan,nan
1,170,1,1,1.0,1.0,0.34058991400524974,0.0,6,7,1,4,8,3,nan,nan,nan,nan,nan,nan,nan,nan,nan,nan,nan,nan,0.0,nan,nan,nan,nan,nan,nan,nan,nan,nan,nan,nan,nan,nan,nan,nan,nan,nan,nan,138.56554714171216,385.967293784488,nan,386.30788369849324,nan,nan,nan,nan
1,171,1,1,1.0,1.0,0.3321432266384363,0.0,4,8,6,5,3,2,nan,nan,nan,nan,nan,nan,nan,nan,nan,nan,nan,nan,0.0,nan,nan,nan,nan,nan,nan,nan,nan,nan,nan,nan,nan,nan,nan,nan,nan,nan,nan,138.56554714171216,386.9757997728884,nan,387.30794299952686,nan,nan,nan,nan
1,172,1,1,1.0,1.0,0.29168283427134156,0.0,7,6,2,3,0,8,nan,nan,nan,nan,nan,nan,nan,nan,nan,nan,nan,nan,0.0,nan,nan,nan,nan,nan,nan,nan,nan,nan,nan,nan,nan,nan,nan,nan,nan,nan,nan,138.56554714171216,387.98422108590603,nan,388.27590392017737,nan,nan,nan,nan
1,173,1,1,1.0,1.0,0.371177829336375,0.0,6,0,3,7,4,5,nan,nan,nan,nan,nan,nan,nan,nan,nan,nan,nan,nan,0.0,nan,nan,nan,nan,nan,nan,nan,nan,nan,nan,nan,nan,nan,nan,nan,nan,nan,nan,138.56554714171216,388.99270398076624,nan,389.3638818101026,nan,nan,nan,nan
1,174,1,1,1.0,1.0,0.3550217258743942,0.0,7,3,6,0,2,1,nan,nan,nan,nan,nan,nan,nan,nan,nan,nan,nan,nan,0.0,nan,nan,nan,nan,nan,nan,nan,nan,nan,nan,nan,nan,nan,nan,nan,nan,nan,nan,138.56554714171216,389.99287162022665,nan,390.34789334610105,nan,nan,nan,nan
1,175,1,1,1.0,1.0,0.4025617465376854,0.0,2,8,7,4,1,3,nan,nan,nan,nan,nan,nan,nan,nan,nan,nan,nan,nan,0.0,nan,nan,nan,nan,nan,nan,nan,nan,nan,nan,nan,nan,nan,nan,nan,nan,nan,nan,138.56554714171216,391.00130034564063,nan,391.4038620921783,nan,nan,nan,nan
1,176,1,1,1.0,1.0,0.34635693673044443,0.0,1,7,8,5,6,2,nan,nan,nan,nan,nan,nan,nan,nan,nan,nan,nan,nan,0.0,nan,nan,nan,nan,nan,nan,nan,nan,nan,nan,nan,nan,nan,nan,nan,nan,nan,nan,138.56554714171216,392.00149364443496,nan,392.3478505811654,nan,nan,nan,nan
1,177,1,1,1.0,1.0,0.35426278691738844,0.0,3,5,4,2,0,8,nan,nan,nan,nan,nan,nan,nan,nan,nan,nan,nan,nan,0.0,nan,nan,nan,nan,nan,nan,nan,nan,nan,nan,nan,nan,nan,nan,nan,nan,nan,nan,138.56554714171216,393.00158487679437,nan,393.35584766371176,nan,nan,nan,nan
1,178,1,1,1.0,1.0,0.33809071872383356,0.0,8,6,1,7,5,2,nan,nan,nan,nan,nan,nan,nan,nan,nan,nan,nan,nan,0.0,nan,nan,nan,nan,nan,nan,nan,nan,nan,nan,nan,nan,nan,nan,nan,nan,nan,nan,138.56554714171216,394.00175992865115,nan,394.339850647375,nan,nan,nan,nan
1,179,1,1,1.0,1.0,0.3379131006076932,0.0,2,5,3,4,6,0,nan,nan,nan,nan,nan,nan,nan,nan,nan,nan,nan,nan,0.0,nan,nan,nan,nan,nan,nan,nan,nan,nan,nan,nan,nan,nan,nan,nan,nan,nan,nan,138.56554714171216,395.0019218660891,nan,395.3398349666968,nan,nan,nan,nan
1,180,1,1,1.0,1.0,0.3697839705273509,0.0,5,0,7,8,1,2,nan,nan,nan,nan,nan,nan,nan,nan,nan,nan,nan,nan,0.0,nan,nan,nan,nan,nan,nan,nan,nan,nan,nan,nan,nan,nan,nan,nan,nan,nan,nan,138.56554714171216,396.00205586338416,nan,396.3718398339115,nan,nan,nan,nan
1,181,1,1,1.0,1.0,0.32165008457377553,0.0,4,7,6,1,5,3,nan,nan,nan,nan,nan,nan,nan,nan,nan,nan,nan,nan,0.0,nan,nan,nan,nan,nan,nan,nan,nan,nan,nan,nan,nan,nan,nan,nan,nan,nan,nan,138.56554714171216,397.0021699038334,nan,397.3238199884072,nan,nan,nan,nan
1,182,1,1,1.0,1.0,0.33746777288615704,0.0,1,2,4,0,3,6,nan,nan,nan,nan,nan,nan,nan,nan,nan,nan,nan,nan,0.0,nan,nan,nan,nan,nan,nan,nan,nan,nan,nan,nan,nan,nan,nan,nan,nan,nan,nan,138.56554714171216,398.0023560747504,nan,398.3398238476366,nan,nan,nan,nan
1,183,1,1,1.0,1.0,0.32900968194007874,0.0,7,0,3,8,5,4,nan,nan,nan,nan,nan,nan,nan,nan,nan,nan,nan,nan,0.0,nan,nan,nan,nan,nan,nan,nan,nan,nan,nan,nan,nan,nan,nan,nan,nan,nan,nan,138.56554714171216,399.0107944938354,nan,399.3398041757755,nan,nan,nan,nan
1,184,0,0,0.0,1.0,0.5128311128355563,0.0,1,3,6,0,7,2,nan,nan,nan,nan,nan,nan,nan,nan,nan,nan,nan,nan,0.0,nan,nan,nan,nan,nan,nan,nan,nan,nan,nan,nan,nan,nan,nan,nan,nan,nan,nan,138.56554714171216,400.01097467774525,nan,400.5238057905808,nan,nan,nan,nan
1,185,1,1,1.0,1.0,0.6086777900345623,0.0,7,5,2,8,0,1,nan,nan,nan,nan,nan,nan,nan,nan,nan,nan,nan,nan,0.0,nan,nan,nan,nan,nan,nan,nan,nan,nan,nan,nan,nan,nan,nan,nan,nan,nan,nan,138.56554714171216,401.01111494749784,nan,401.6197927375324,nan,nan,nan,nan
1,186,1,1,1.0,1.0,0.4005215638317168,0.0,4,6,7,0,2,8,nan,nan,nan,nan,nan,nan,nan,nan,nan,nan,nan,nan,0.0,nan,nan,nan,nan,nan,nan,nan,nan,nan,nan,nan,nan,nan,nan,nan,nan,nan,nan,138.56554714171216,402.01125521725044,nan,402.41177678108215,nan,nan,nan,nan
1,187,0,0,0.0,1.0,0.47238098410889506,1.0,5,0,1,4,3,2,1.0,1.0,1.0,1.0,1.0,1.0,0.0,1.0,1.0,1.0,0.0,1.0,4.0,6.0,0.0,1.0,4.0,5.0,2.0,4.0,3.0,2.0,1.0,6.0,5.0,4.7129754312336445,3.328935270663351,2.194149499759078,1.3305415296927094,6.392725477460772,5.55290262773633,138.56554714171216,403.01139833778143,403.81983584491536,403.4837793218903,411.2625677511096,412.2608012650162,404.8283284329809,411.2542356746271
1,188,1,1,1.0,1.0,0.6129970699548721,0.0,8,1,6,2,5,0,nan,nan,nan,nan,nan,nan,nan,nan,nan,nan,nan,nan,0.0,nan,nan,nan,nan,nan,nan,nan,nan,nan,nan,nan,nan,nan,nan,nan,nan,nan,nan,138.56554714171216,412.46272603888065,nan,413.0757231088355,nan,nan,nan,nan
1,189,1,1,1.0,1.0,0.4287836248986423,0.0,5,0,3,7,4,2,nan,nan,nan,nan,nan,nan,nan,nan,nan,nan,nan,nan,0.0,nan,nan,nan,nan,nan,nan,nan,nan,nan,nan,nan,nan,nan,nan,nan,nan,nan,nan,138.56554714171216,413.4629184822552,nan,413.89170210715383,nan,nan,nan,nan
1,190,0,0,nan,nan,nan,0.0,7,6,0,3,8,1,nan,nan,nan,nan,nan,nan,nan,nan,nan,nan,nan,nan,0.0,nan,nan,nan,nan,nan,nan,nan,nan,nan,nan,nan,nan,nan,nan,nan,nan,nan,nan,138.56554714171216,414.46309581492096,nan,nan,nan,nan,nan,nan
1,191,1,1,1.0,1.0,0.47645764285698533,0.0,6,0,3,7,5,2,nan,nan,nan,nan,nan,nan,nan,nan,nan,nan,nan,nan,0.0,nan,nan,nan,nan,nan,nan,nan,nan,nan,nan,nan,nan,nan,nan,nan,nan,nan,nan,138.56554714171216,415.463212991599,nan,415.939670634456,nan,nan,nan,nan
1,192,1,1,1.0,1.0,0.3400008953176439,0.0,1,3,5,2,0,4,nan,nan,nan,nan,nan,nan,nan,nan,nan,nan,nan,nan,0.0,nan,nan,nan,nan,nan,nan,nan,nan,nan,nan,nan,nan,nan,nan,nan,nan,nan,nan,138.56554714171216,416.4716873331927,nan,416.8116882285103,nan,nan,nan,nan
1,193,1,1,1.0,1.0,0.3478294834494591,0.0,3,5,1,0,2,7,nan,nan,nan,nan,nan,nan,nan,nan,nan,nan,nan,nan,0.0,nan,nan,nan,nan,nan,nan,nan,nan,nan,nan,nan,nan,nan,nan,nan,nan,nan,nan,138.56554714171216,417.47184527944773,nan,417.8196747628972,nan,nan,nan,nan
1,194,0,0,0.0,1.0,0.5317025175318122,0.0,1,8,2,5,7,3,nan,nan,nan,nan,nan,nan,nan,nan,nan,nan,nan,nan,0.0,nan,nan,nan,nan,nan,nan,nan,nan,nan,nan,nan,nan,nan,nan,nan,nan,nan,nan,138.56554714171216,418.47198212798685,nan,419.00368464551866,nan,nan,nan,nan
1,195,1,1,1.0,1.0,0.43553766794502735,0.0,0,5,7,1,3,6,nan,nan,nan,nan,nan,nan,nan,nan,nan,nan,nan,nan,0.0,nan,nan,nan,nan,nan,nan,nan,nan,nan,nan,nan,nan,nan,nan,nan,nan,nan,nan,138.56554714171216,419.47212325269356,nan,419.9076609206386,nan,nan,nan,nan
1,196,1,1,1.0,1.0,0.3073884774930775,0.0,2,4,5,6,1,8,nan,nan,nan,nan,nan,nan,nan,nan,nan,nan,nan,nan,0.0,nan,nan,nan,nan,nan,nan,nan,nan,nan,nan,nan,nan,nan,nan,nan,nan,nan,nan,138.56554714171216,420.4722663736902,nan,420.7796548511833,nan,nan,nan,nan
1,197,1,1,1.0,1.0,0.37924647238105536,0.0,4,1,7,8,5,0,nan,nan,nan,nan,nan,nan,nan,nan,nan,nan,nan,nan,0.0,nan,nan,nan,nan,nan,nan,nan,nan,nan,nan,nan,nan,nan,nan,nan,nan,nan,nan,138.56554714171216,421.4724157662131,nan,421.85166223859414,nan,nan,nan,nan
1,198,1,1,1.0,1.0,0.36276991572231054,0.0,6,2,8,5,0,7,nan,nan,nan,nan,nan,nan,nan,nan,nan,nan,nan,nan,0.0,nan,nan,nan,nan,nan,nan,nan,nan,nan,nan,nan,nan,nan,nan,nan,nan,nan,nan,138.56554714171216,422.48088383628055,nan,422.84365375200287,nan,nan,nan,nan
1,199,1,1,1.0,1.0,0.3386130235157907,0.0,8,1,0,4,6,5,nan,nan,nan,nan,nan,nan,nan,nan,nan,nan,nan,nan,0.0,nan,nan,nan,nan,nan,nan,nan,nan,nan,nan,nan,nan,nan,nan,nan,nan,nan,nan,138.56554714171216,423.4810323738493,nan,423.8196453973651,nan,nan,nan,nan
1,200,1,1,1.0,1.0,0.2984462850727141,0.0,3,6,7,8,2,0,nan,nan,nan,nan,nan,nan,nan,nan,nan,nan,nan,nan,0.0,nan,nan,nan,nan,nan,nan,nan,nan,nan,nan,nan,nan,nan,nan,nan,nan,nan,nan,138.56554714171216,424.48118062643334,nan,424.77962691150606,nan,nan,nan,nan
1,201,1,1,1.0,1.0,0.4343046057038009,0.0,8,3,4,1,0,7,nan,nan,nan,nan,nan,nan,nan,nan,nan,nan,nan,nan,0.0,nan,nan,nan,nan,nan,nan,nan,nan,nan,nan,nan,nan,nan,nan,nan,nan,nan,nan,138.56554714171216,425.48131890036166,nan,425.91562350606546,nan,nan,nan,nan
1,202,1,1,1.0,1.0,0.40214492892846465,0.0,7,6,8,0,5,1,nan,nan,nan,nan,nan,nan,nan,nan,nan,nan,nan,nan,0.0,nan,nan,nan,nan,nan,nan,nan,nan,nan,nan,nan,nan,nan,nan,nan,nan,nan,nan,138.56554714171216,426.4814688633196,nan,426.88361379224807,nan,nan,nan,nan
1,203,1,1,1.0,1.0,0.38600479159504175,0.0,5,7,2,4,1,6,nan,nan,nan,nan,nan,nan,nan,nan,nan,nan,nan,nan,0.0,nan,nan,nan,nan,nan,nan,nan,nan,nan,nan,nan,nan,nan,nan,nan,nan,nan,nan,138.56554714171216,427.4816108434461,nan,427.86761563504115,nan,nan,nan,nan
1,204,0,0,0.0,1.0,0.6098646651953459,0.0,6,3,5,2,0,4,nan,nan,nan,nan,nan,nan,nan,nan,nan,nan,nan,nan,0.0,nan,nan,nan,nan,nan,nan,nan,nan,nan,nan,nan,nan,nan,nan,nan,nan,nan,nan,138.56554714171216,428.48173999460414,nan,429.0916046597995,nan,nan,nan,nan
1,205,1,1,1.0,1.0,0.48968632938340306,0.0,2,6,8,4,3,7,nan,nan,nan,nan,nan,nan,nan,nan,nan,nan,nan,nan,0.0,nan,nan,nan,nan,nan,nan,nan,nan,nan,nan,nan,nan,nan,nan,nan,nan,nan,nan,138.56554714171216,429.4819053527899,nan,429.9715916821733,nan,nan,nan,nan
1,206,1,1,1.0,1.0,0.41754722502082586,0.0,5,4,6,3,7,1,nan,nan,nan,nan,nan,nan,nan,nan,nan,nan,nan,nan,0.0,nan,nan,nan,nan,nan,nan,nan,nan,nan,nan,nan,nan,nan,nan,nan,nan,nan,nan,138.56554714171216,430.48203992052004,nan,430.89958714554086,nan,nan,nan,nan
1,207,1,1,1.0,1.0,0.3854146325029433,0.0,7,8,5,1,0,6,nan,nan,nan,nan,nan,nan,nan,nan,nan,nan,nan,nan,0.0,nan,nan,nan,nan,nan,nan,nan,nan,nan,nan,nan,nan,nan,nan,nan,nan,nan,nan,138.56554714171216,431.48217306286097,nan,431.8675876953639,nan,nan,nan,nan
1,208,1,1,1.0,1.0,0.4812382166273892,0.0,5,6,7,4,3,0,nan,nan,nan,nan,nan,nan,nan,nan,nan,nan,nan,nan,0.0,nan,nan,nan,nan,nan,nan,nan,nan,nan,nan,nan,nan,nan,nan,nan,nan,nan,nan,138.56554714171216,432.48233328945935,nan,432.96357150608674,nan,nan,nan,nan
1,209,0,0,0.0,1.0,0.6570993424393237,0.0,1,7,4,0,8,3,nan,nan,nan,nan,nan,nan,nan,nan,nan,nan,nan,nan,0.0,nan,nan,nan,nan,nan,nan,nan,nan,nan,nan,nan,nan,nan,nan,nan,nan,nan,nan,138.56554714171216,433.4824812570587,nan,434.139580599498,nan,nan,nan,nan
1,210,1,1,1.0,1.0,0.5929501936770976,0.0,7,8,2,3,5,1,nan,nan,nan,nan,nan,nan,nan,nan,nan,nan,nan,nan,0.0,nan,nan,nan,nan,nan,nan,nan,nan,nan,nan,nan,nan,nan,nan,nan,nan,nan,nan,138.56554714171216,434.482621811796,nan,435.0755720054731,nan,nan,nan,nan
1,211,1,1,1.0,1.0,0.4887959584593773,0.0,6,5,3,7,2,0,nan,nan,nan,nan,nan,nan,nan,nan,nan,nan,nan,nan,0.0,nan,nan,nan,nan,nan,nan,nan,nan,nan,nan,nan,nan,nan,nan,nan,nan,nan,nan,138.56554714171216,435.4827609411441,nan,435.97155689960346,nan,nan,nan,nan
1,212,1,1,1.0,1.0,0.6566366236656904,0.0,0,6,7,2,4,3,nan,nan,nan,nan,nan,nan,nan,nan,nan,nan,nan,nan,0.0,nan,nan,nan,nan,nan,nan,nan,nan,nan,nan,nan,nan,nan,nan,nan,nan,nan,nan,138.56554714171216,436.4829137553461,nan,437.1395503790118,nan,nan,nan,nan
1,213,1,1,1.0,1.0,0.5764967300929129,0.0,8,7,0,1,2,4,nan,nan,nan,nan,nan,nan,nan,nan,nan,nan,nan,nan,0.0,nan,nan,nan,nan,nan,nan,nan,nan,nan,nan,nan,nan,nan,nan,nan,nan,nan,nan,138.56554714171216,437.4830511738546,nan,438.05954790394753,nan,nan,nan,nan
1,214,1,1,1.0,1.0,0.42436113860458136,0.0,3,4,7,8,1,0,nan,nan,nan,nan,nan,nan,nan,nan,nan,nan,nan,nan,0.0,nan,nan,nan,nan,nan,nan,nan,nan,nan,nan,nan,nan,nan,nan,nan,nan,nan,nan,138.56554714171216,438.48318232037127,nan,438.90754345897585,nan,nan,nan,nan
1,215,1,1,1.0,1.0,0.4802032997831702,0.0,4,0,1,5,7,2,nan,nan,nan,nan,nan,nan,nan,nan,nan,nan,nan,nan,0.0,nan,nan,nan,nan,nan,nan,nan,nan,nan,nan,nan,nan,nan,nan,nan,nan,nan,nan,138.56554714171216,439.4833305729553,nan,439.9635338727385,nan,nan,nan,nan
1,216,1,1,1.0,1.0,0.4080550726503134,0.0,8,6,3,7,0,1,nan,nan,nan,nan,nan,nan,nan,nan,nan,nan,nan,nan,0.0,nan,nan,nan,nan,nan,nan,nan,nan,nan,nan,nan,nan,nan,nan,nan,nan,nan,nan,138.56554714171216,440.4834771146998,nan,440.8915321873501,nan,nan,nan,nan
1,217,1,1,1.0,1.0,0.38389361882582307,0.0,1,2,4,8,5,0,nan,nan,nan,nan,nan,nan,nan,nan,nan,nan,nan,nan,0.0,nan,nan,nan,nan,nan,nan,nan,nan,nan,nan,nan,nan,nan,nan,nan,nan,nan,nan,138.56554714171216,441.48361995024607,nan,441.8675135690719,nan,nan,nan,nan
1,218,1,1,1.0,1.0,0.3197527374140918,0.0,5,8,7,3,4,6,nan,nan,nan,nan,nan,nan,nan,nan,nan,nan,nan,nan,0.0,nan,nan,nan,nan,nan,nan,nan,nan,nan,nan,nan,nan,nan,nan,nan,nan,nan,nan,138.56554714171216,442.4837644966319,nan,442.803517234046,nan,nan,nan,nan
1,219,1,1,1.0,1.0,0.24759624246507883,0.0,2,3,4,0,8,1,nan,nan,nan,nan,nan,nan,nan,nan,nan,nan,nan,nan,0.0,nan,nan,nan,nan,nan,nan,nan,nan,nan,nan,nan,nan,nan,nan,nan,nan,nan,nan,138.56554714171216,443.48390562133864,nan,443.7315018638037,nan,nan,nan,nan
1,220,1,1,1.0,1.0,0.22343992022797465,0.0,4,0,8,7,3,5,nan,nan,nan,nan,nan,nan,nan,nan,nan,nan,nan,nan,0.0,nan,nan,nan,nan,nan,nan,nan,nan,nan,nan,nan,nan,nan,nan,nan,nan,nan,nan,138.56554714171216,444.48405815055594,nan,444.7074980707839,nan,nan,nan,nan
1,221,1,1,1.0,1.0,0.2792866434901953,0.0,0,3,2,8,6,4,nan,nan,nan,nan,nan,nan,nan,nan,nan,nan,nan,nan,0.0,nan,nan,nan,nan,nan,nan,nan,nan,nan,nan,nan,nan,nan,nan,nan,nan,nan,nan,138.56554714171216,445.4842092539184,nan,445.7634958974086,nan,nan,nan,nan
1,222,1,1,1.0,1.0,0.2551585463806987,0.0,1,5,4,0,7,6,nan,nan,nan,nan,nan,nan,nan,nan,nan,nan,nan,nan,0.0,nan,nan,nan,nan,nan,nan,nan,nan,nan,nan,nan,nan,nan,nan,nan,nan,nan,nan,138.56554714171216,446.48433612380177,nan,446.73949467018247,nan,nan,nan,nan
1,223,1,1,1.0,1.0,0.28699463373050094,0.0,2,0,6,4,5,3,nan,nan,nan,nan,nan,nan,nan,nan,nan,nan,nan,nan,0.0,nan,nan,nan,nan,nan,nan,nan,nan,nan,nan,nan,nan,nan,nan,nan,nan,nan,nan,138.56554714171216,447.48448095517233,nan,447.77147558890283,nan,nan,nan,nan
1,224,1,1,1.0,1.0,0.2948274980299175,0.0,6,8,3,5,0,1,nan,nan,nan,nan,nan,nan,nan,nan,nan,nan,nan,nan,0.0,nan,nan,nan,nan,nan,nan,nan,nan,nan,nan,nan,nan,nan,nan,nan,nan,nan,nan,138.56554714171216,448.48464374803007,nan,448.77947124606,nan,nan,nan,nan
1,225,1,1,1.0,1.0,0.31867277482524514,0.0,1,7,2,4,6,8,nan,nan,nan,nan,nan,nan,nan,nan,nan,nan,nan,nan,0.0,nan,nan,nan,nan,nan,nan,nan,nan,nan,nan,nan,nan,nan,nan,nan,nan,nan,nan,138.56554714171216,449.48478487320244,nan,449.8034576480277,nan,nan,nan,nan
1,226,1,1,1.0,1.0,0.30253947991877794,0.0,8,6,0,1,5,4,nan,nan,nan,nan,nan,nan,nan,nan,nan,nan,nan,nan,0.0,nan,nan,nan,nan,nan,nan,nan,nan,nan,nan,nan,nan,nan,nan,nan,nan,nan,nan,138.56554714171216,450.48492485750467,nan,450.78746433742344,nan,nan,nan,nan
1,227,1,1,1.0,1.0,0.2543844967149198,0.0,1,0,3,4,2,8,nan,nan,nan,nan,nan,nan,nan,nan,nan,nan,nan,nan,0.0,nan,nan,nan,nan,nan,nan,nan,nan,nan,nan,nan,nan,nan,nan,nan,nan,nan,nan,138.56554714171216,451.48507881211117,nan,451.7394633088261,nan,nan,nan,nan
1,228,1,1,1.0,1.0,0.23025098256766796,0.0,7,1,5,6,3,4,nan,nan,nan,nan,nan,nan,nan,nan,nan,nan,nan,nan,0.0,nan,nan,nan,nan,nan,nan,nan,nan,nan,nan,nan,nan,nan,nan,nan,nan,nan,nan,138.56554714171216,452.4852096736431,nan,452.7154606562108,nan,nan,nan,nan
1,229,1,1,1.0,1.0,0.23809325601905584,0.0,1,8,3,5,4,7,nan,nan,nan,nan,nan,nan,nan,nan,nan,nan,nan,nan,0.0,nan,nan,nan,nan,nan,nan,nan,nan,nan,nan,nan,nan,nan,nan,nan,nan,nan,nan,138.56554714171216,453.48534851754084,nan,453.7234417735599,nan,nan,nan,nan
1,230,1,1,1.0,1.0,0.2939428295940161,0.0,7,2,0,1,8,3,nan,nan,nan,nan,nan,nan,nan,nan,nan,nan,nan,nan,0.0,nan,nan,nan,nan,nan,nan,nan,nan,nan,nan,nan,nan,nan,nan,nan,nan,nan,nan,138.56554714171216,454.4855030425824,nan,454.77944587217644,nan,nan,nan,nan
1,231,1,1,1.0,1.0,0.27778102457523346,0.0,4,8,5,7,6,1,nan,nan,nan,nan,nan,nan,nan,nan,nan,nan,nan,nan,0.0,nan,nan,nan,nan,nan,nan,nan,nan,nan,nan,nan,nan,nan,nan,nan,nan,nan,nan,138.56554714171216,455.48564131651074,nan,455.76342234108597,nan,nan,nan,nan
1,232,1,1,1.0,1.0,0.3096162569709122,0.0,6,5,4,2,0,3,nan,nan,nan,nan,nan,nan,nan,nan,nan,nan,nan,nan,0.0,nan,nan,nan,nan,nan,nan,nan,nan,nan,nan,nan,nan,nan,nan,nan,nan,nan,nan,138.56554714171216,456.4858023985289,nan,456.7954186554998,nan,nan,nan,nan
1,233,1,1,1.0,1.0,0.3254864034242928,0.0,4,7,0,3,5,1,nan,nan,nan,nan,nan,nan,nan,nan,nan,nan,nan,nan,0.0,nan,nan,nan,nan,nan,nan,nan,nan,nan,nan,nan,nan,nan,nan,nan,nan,nan,nan,138.56554714171216,457.4859403874725,nan,457.8114267908968,nan,nan,nan,nan
1,234,0,0,0.0,1.0,0.5973390387371182,0.0,2,1,8,0,4,7,nan,nan,nan,nan,nan,nan,nan,nan,nan,nan,nan,nan,0.0,nan,nan,nan,nan,nan,nan,nan,nan,nan,nan,nan,nan,nan,nan,nan,nan,nan,nan,138.56554714171216,458.4860666869208,nan,459.08340572565794,nan,nan,nan,nan
1,235,1,1,1.0,1.0,0.4611879186704755,0.0,0,7,1,2,3,4,nan,nan,nan,nan,nan,nan,nan,nan,nan,nan,nan,nan,0.0,nan,nan,nan,nan,nan,nan,nan,nan,nan,nan,nan,nan,nan,nan,nan,nan,nan,nan,138.56554714171216,459.48621208872646,nan,459.94740000739694,nan,nan,nan,nan
1,236,1,1,1.0,1.0,0.33303103130310774,0.0,5,0,4,8,1,7,nan,nan,nan,nan,nan,nan,nan,nan,nan,nan,nan,nan,0.0,nan,nan,nan,nan,nan,nan,nan,nan,nan,nan,nan,nan,nan,nan,nan,nan,nan,nan,138.56554714171216,460.4863691790961,nan,460.8194002103992,nan,nan,nan,nan
1,237,1,1,1.0,1.0,0.33284543035551906,0.0,6,2,0,1,8,3,nan,nan,nan,nan,nan,nan,nan,nan,nan,nan,nan,nan,0.0,nan,nan,nan,nan,nan,nan,nan,nan,nan,nan,nan,nan,nan,nan,nan,nan,nan,nan,138.56554714171216,461.486535678152,nan,461.8193811085075,nan,nan,nan,nan
1,238,1,1,1.0,1.0,0.42072068387642503,0.0,8,1,6,0,7,4,nan,nan,nan,nan,nan,nan,nan,nan,nan,nan,nan,nan,0.0,nan,nan,nan,nan,nan,nan,nan,nan,nan,nan,nan,nan,nan,nan,nan,nan,nan,nan,138.56554714171216,462.4866554206237,nan,462.90737610450014,nan,nan,nan,nan
1,239,1,1,1.0,1.0,0.3565672589465976,0.0,7,2,0,5,3,6,nan,nan,nan,nan,nan,nan,nan,nan,nan,nan,nan,nan,0.0,nan,nan,nan,nan,nan,nan,nan,nan,nan,nan,nan,nan,nan,nan,nan,nan,nan,nan,138.56554714171216,463.4868008219637,nan,463.8433680809103,nan,nan,nan,nan
1,240,1,1,1.0,1.0,0.4284748607315123,0.0,4,3,1,2,7,5,nan,nan,nan,nan,nan,nan,nan,nan,nan,nan,nan,nan,0.0,nan,nan,nan,nan,nan,nan,nan,nan,nan,nan,nan,nan,nan,nan,nan,nan,nan,nan,138.56554714171216,464.486908019986,nan,464.9153828807175,nan,nan,nan,nan
1,241,1,1,1.0,1.0,0.3722786041907966,0.0,3,5,2,0,4,7,nan,nan,nan,nan,nan,nan,nan,nan,nan,nan,nan,nan,0.0,nan,nan,nan,nan,nan,nan,nan,nan,nan,nan,nan,nan,nan,nan,nan,nan,nan,nan,138.56554714171216,465.4870930504985,nan,465.8593716546893,nan,nan,nan,nan
1,242,1,1,1.0,1.0,0.34811743535101414,0.0,8,2,6,4,5,1,nan,nan,nan,nan,nan,nan,nan,nan,nan,nan,nan,nan,0.0,nan,nan,nan,nan,nan,nan,nan,nan,nan,nan,nan,nan,nan,nan,nan,nan,nan,nan,138.56554714171216,466.48724101809785,nan,466.83535845344886,nan,nan,nan,nan
1,243,1,1,1.0,1.0,0.3319556303322315,0.0,5,3,1,0,4,2,nan,nan,nan,nan,nan,nan,nan,nan,nan,nan,nan,nan,0.0,nan,nan,nan,nan,nan,nan,nan,nan,nan,nan,nan,nan,nan,nan,nan,nan,nan,nan,138.56554714171216,467.4873864194378,nan,467.81934204977006,nan,nan,nan,nan
1,244,1,1,1.0,1.0,0.3158180587925017,0.0,7,0,3,2,8,5,nan,nan,nan,nan,nan,nan,nan,nan,nan,nan,nan,nan,0.0,nan,nan,nan,nan,nan,nan,nan,nan,nan,nan,nan,nan,nan,nan,nan,nan,nan,nan,138.56554714171216,468.48752469336614,nan,468.80334275215864,nan,nan,nan,nan
1,245,1,1,1.0,1.0,0.3156581171788275,0.0,0,2,8,1,7,4,nan,nan,nan,nan,nan,nan,nan,nan,nan,nan,nan,nan,0.0,nan,nan,nan,nan,nan,nan,nan,nan,nan,nan,nan,nan,nan,nan,nan,nan,nan,nan,138.56554714171216,469.48767237598076,nan,469.8033304931596,nan,nan,nan,nan
1,246,1,1,1.0,1.0,0.3155061583966017,0.0,1,0,6,4,3,8,nan,nan,nan,nan,nan,nan,nan,nan,nan,nan,nan,nan,0.0,nan,nan,nan,nan,nan,nan,nan,nan,nan,nan,nan,nan,nan,nan,nan,nan,nan,nan,138.56554714171216,470.4878226239234,nan,470.80332878232,nan,nan,nan,nan
1,247,1,1,1.0,1.0,0.37136029405519366,0.0,0,5,2,6,8,1,nan,nan,nan,nan,nan,nan,nan,nan,nan,nan,nan,nan,0.0,nan,nan,nan,nan,nan,nan,nan,nan,nan,nan,nan,nan,nan,nan,nan,nan,nan,nan,138.56554714171216,471.48795633623376,nan,471.85931663028896,nan,nan,nan,nan
1,248,1,1,1.0,1.0,0.3229019627906382,0.0,1,3,7,0,6,8,nan,nan,nan,nan,nan,nan,nan,nan,nan,nan,nan,nan,0.0,nan,nan,nan,nan,nan,nan,nan,nan,nan,nan,nan,nan,nan,nan,nan,nan,nan,nan,138.56554714171216,472.4964266871102,nan,472.81932864990085,nan,nan,nan,nan
1,249,1,1,1.0,1.0,0.306730464566499,0.0,2,8,0,1,4,5,nan,nan,nan,nan,nan,nan,nan,nan,nan,nan,nan,nan,0.0,nan,nan,nan,nan,nan,nan,nan,nan,nan,nan,nan,nan,nan,nan,nan,nan,nan,nan,138.56554714171216,473.4965877691284,nan,473.8033182336949,nan,nan,nan,nan
1,250,1,1,1.0,1.0,0.2502773320302367,0.0,6,7,2,0,8,3,nan,nan,nan,nan,nan,nan,nan,nan,nan,nan,nan,nan,0.0,nan,nan,nan,nan,nan,nan,nan,nan,nan,nan,nan,nan,nan,nan,nan,nan,nan,nan,138.56554714171216,474.50504471966997,nan,474.7553220517002,nan,nan,nan,nan
1,251,1,1,1.0,1.0,0.3220817274414003,0.0,4,8,6,3,1,2,nan,nan,nan,nan,nan,nan,nan,nan,nan,nan,nan,nan,0.0,nan,nan,nan,nan,nan,nan,nan,nan,nan,nan,nan,nan,nan,nan,nan,nan,nan,nan,138.56554714171216,475.5052066571079,nan,475.8272883845493,nan,nan,nan,nan
1,252,1,1,1.0,1.0,0.33796042762696743,0.0,3,1,2,7,4,8,nan,nan,nan,nan,nan,nan,nan,nan,nan,nan,nan,nan,0.0,nan,nan,nan,nan,nan,nan,nan,nan,nan,nan,nan,nan,nan,nan,nan,nan,nan,nan,138.56554714171216,476.5053372331895,nan,476.84329766081646,nan,nan,nan,nan
1,253,1,1,1.0,1.0,0.3854742185212672,0.0,2,0,5,6,1,3,nan,nan,nan,nan,nan,nan,nan,nan,nan,nan,nan,nan,0.0,nan,nan,nan,nan,nan,nan,nan,nan,nan,nan,nan,nan,nan,nan,nan,nan,nan,nan,138.56554714171216,477.51381043484434,nan,477.8992846533656,nan,nan,nan,nan
1,254,1,1,1.0,1.0,0.3533199583180249,0.0,5,6,8,1,7,0,nan,nan,nan,nan,nan,nan,nan,nan,nan,nan,nan,nan,0.0,nan,nan,nan,nan,nan,nan,nan,nan,nan,nan,nan,nan,nan,nan,nan,nan,nan,nan,138.56554714171216,478.51394756836817,nan,478.8672675266862,nan,nan,nan,nan
1,255,1,1,1.0,1.0,0.4011656064540148,0.0,0,1,3,5,4,6,nan,nan,nan,nan,nan,nan,nan,nan,nan,nan,nan,nan,0.0,nan,nan,nan,nan,nan,nan,nan,nan,nan,nan,nan,nan,nan,nan,nan,nan,nan,nan,138.56554714171216,479.51410323381424,nan,479.91526884026825,nan,nan,nan,nan
1,256,1,1,1.0,1.0,0.3210145947523415,0.0,3,0,6,1,5,8,nan,nan,nan,nan,nan,nan,nan,nan,nan,nan,nan,nan,0.0,nan,nan,nan,nan,nan,nan,nan,nan,nan,nan,nan,nan,nan,nan,nan,nan,nan,nan,138.56554714171216,480.51424207771197,nan,480.8352566724643,nan,nan,nan,nan
1,257,0,0,0.0,1.0,0.5368149485439062,1.0,7,8,5,0,4,2,1.0,1.0,1.0,1.0,1.0,1.0,1.0,1.0,1.0,1.0,1.0,1.0,6.0,7.0,8.0,5.0,0.0,4.0,2.0,4.0,3.0,2.0,1.0,6.0,5.0,4.322008742019534,3.249411195050925,2.306242941878736,1.3225669697858393,7.064298256766051,5.728816212154925,138.56554714171216,481.5144590395503,482.32283040322363,482.0512739880942,490.4489847412333,491.4459233270027,483.34797431482,490.44065950717777
1,258,1,1,nan,nan,nan,0.0,8,3,4,1,5,7,nan,nan,nan,nan,nan,nan,nan,nan,nan,nan,nan,nan,0.0,nan,nan,nan,nan,nan,nan,nan,nan,nan,nan,nan,nan,nan,nan,nan,nan,nan,nan,138.56554714171216,491.6491872202605,nan,nan,nan,nan,nan,nan
1,259,0,0,nan,nan,nan,0.0,2,1,0,7,4,5,nan,nan,nan,nan,nan,nan,nan,nan,nan,nan,nan,nan,0.0,nan,nan,nan,nan,nan,nan,nan,nan,nan,nan,nan,nan,nan,nan,nan,nan,nan,nan,138.56554714171216,492.6493636975065,nan,nan,nan,nan,nan,nan
1,260,1,1,1.0,1.0,0.4896732144989073,0.0,3,5,8,6,0,1,nan,nan,nan,nan,nan,nan,nan,nan,nan,nan,nan,nan,0.0,nan,nan,nan,nan,nan,nan,nan,nan,nan,nan,nan,nan,nan,nan,nan,nan,nan,nan,138.56554714171216,493.6494857207872,nan,494.1391589352861,nan,nan,nan,nan
1,261,1,1,1.0,1.0,0.5935554634779692,0.0,5,0,7,2,8,4,nan,nan,nan,nan,nan,nan,nan,nan,nan,nan,nan,nan,0.0,nan,nan,nan,nan,nan,nan,nan,nan,nan,nan,nan,nan,nan,nan,nan,nan,nan,nan,138.56554714171216,494.6496254201047,nan,495.2431808835827,nan,nan,nan,nan
1,262,1,1,1.0,1.0,0.4653974352404475,0.0,6,2,8,5,4,0,nan,nan,nan,nan,nan,nan,nan,nan,nan,nan,nan,nan,0.0,nan,nan,nan,nan,nan,nan,nan,nan,nan,nan,nan,nan,nan,nan,nan,nan,nan,nan,138.56554714171216,495.649768255651,nan,496.11516569089144,nan,nan,nan,nan
1,263,1,1,1.0,1.0,0.28124899324029684,0.0,0,8,1,3,2,4,nan,nan,nan,nan,nan,nan,nan,nan,nan,nan,nan,nan,0.0,nan,nan,nan,nan,nan,nan,nan,nan,nan,nan,nan,nan,nan,nan,nan,nan,nan,nan,138.56554714171216,496.649906530045,nan,496.93115552328527,nan,nan,nan,nan
1,264,1,1,1.0,1.0,0.36109836865216494,0.0,1,7,4,6,3,0,nan,nan,nan,nan,nan,nan,nan,nan,nan,nan,nan,nan,0.0,nan,nan,nan,nan,nan,nan,nan,nan,nan,nan,nan,nan,nan,nan,nan,nan,nan,nan,138.56554714171216,497.65005278680474,nan,498.0111511554569,nan,nan,nan,nan
1,265,0,0,1.0,0.0,0.3049388900399208,0.0,5,2,1,0,6,8,nan,nan,nan,nan,nan,nan,nan,nan,nan,nan,nan,nan,0.0,nan,nan,nan,nan,nan,nan,nan,nan,nan,nan,nan,nan,nan,nan,nan,nan,nan,nan,138.56554714171216,498.6501970477402,nan,498.95513593778014,nan,nan,nan,nan
1,266,1,1,1.0,1.0,0.42442642664536834,0.0,4,3,8,1,5,0,nan,nan,nan,nan,nan,nan,nan,nan,nan,nan,nan,nan,0.0,nan,nan,nan,nan,nan,nan,nan,nan,nan,nan,nan,nan,nan,nan,nan,nan,nan,nan,138.56554714171216,499.6586679685861,nan,500.08309439523146,nan,nan,nan,nan
1,267,1,1,1.0,1.0,0.40028378926217556,0.0,2,4,0,3,6,8,nan,nan,nan,nan,nan,nan,nan,nan,nan,nan,nan,nan,0.0,nan,nan,nan,nan,nan,nan,nan,nan,nan,nan,nan,nan,nan,nan,nan,nan,nan,nan,138.56554714171216,500.65884359087795,nan,501.0591273801401,nan,nan,nan,nan
1,268,1,1,1.0,1.0,0.5601872429251671,0.0,4,3,1,7,0,5,nan,nan,nan,nan,nan,nan,nan,nan,nan,nan,nan,nan,0.0,nan,nan,nan,nan,nan,nan,nan,nan,nan,nan,nan,nan,nan,nan,nan,nan,nan,nan,138.56554714171216,501.65893738903105,nan,502.2191246319562,nan,nan,nan,nan
1,269,0,0,0.0,1.0,0.6720041376538575,1.0,8,0,4,3,2,1,1.0,1.0,1.0,1.0,1.0,1.0,0.0,0.0,0.0,1.0,1.0,0.0,2.0,1.0,2.0,8.0,3.0,2.0,2.0,5.0,4.0,3.0,1.0,2.0,6.0,4.912002153228968,4.12142223212868,3.0402827747166157,1.0324328038841486,2.11301203770563,5.663896150421351,138.56554714171216,502.6591195682995,503.46754167973995,503.33112370595336,510.185166252777,511.19543188391253,504.48435522569343,510.17684358451515
1,270,1,1,1.0,1.0,0.35302060237154365,0.0,0,8,6,1,4,5,nan,nan,nan,nan,nan,nan,nan,nan,nan,nan,nan,nan,0.0,nan,nan,nan,nan,nan,nan,nan,nan,nan,nan,nan,nan,nan,nan,nan,nan,nan,nan,138.56554714171216,511.4020565478131,nan,511.75507715018466,nan,nan,nan,nan
1,271,1,1,1.0,1.0,0.34481568075716496,0.0,1,5,2,6,3,0,nan,nan,nan,nan,nan,nan,nan,nan,nan,nan,nan,nan,0.0,nan,nan,nan,nan,nan,nan,nan,nan,nan,nan,nan,nan,nan,nan,nan,nan,nan,nan,138.56554714171216,512.4022281784564,nan,512.7470438592136,nan,nan,nan,nan
1,272,0,0,1.0,0.0,0.32072578743100166,1.0,6,2,3,8,0,5,1.0,1.0,1.0,1.0,1.0,1.0,0.0,0.0,1.0,1.0,0.0,0.0,2.0,7.0,5.0,3.0,8.0,1.0,4.0,5.0,6.0,1.0,2.0,3.0,4.0,5.272473014425486,5.984714025165886,1.9702269034460187,2.7047559693455696,3.4406934338621795,4.36861505638808,138.56554714171216,513.4023091471754,514.2107979720458,513.7230349346064,521.2617626255378,522.271345725283,515.2359110931866,521.2534325448796
1,273,1,1,1.0,1.0,0.33235961850732565,0.0,1,3,7,6,4,8,nan,nan,nan,nan,nan,nan,nan,nan,nan,nan,nan,nan,0.0,nan,nan,nan,nan,nan,nan,nan,nan,nan,nan,nan,nan,nan,nan,nan,nan,nan,nan,138.56554714171216,522.4786378103308,nan,522.8109974288382,nan,nan,nan,nan
1,274,1,1,1.0,1.0,0.3638712610118091,0.0,6,8,4,2,1,7,nan,nan,nan,nan,nan,nan,nan,nan,nan,nan,nan,nan,0.0,nan,nan,nan,nan,nan,nan,nan,nan,nan,nan,nan,nan,nan,nan,nan,nan,nan,nan,138.56554714171216,523.487108446192,nan,523.8509797072038,nan,nan,nan,nan
1,275,1,1,1.0,1.0,0.36371217481791973,0.0,5,6,0,3,8,4,nan,nan,nan,nan,nan,nan,nan,nan,nan,nan,nan,nan,0.0,nan,nan,nan,nan,nan,nan,nan,nan,nan,nan,nan,nan,nan,nan,nan,nan,nan,nan,138.56554714171216,524.4872564133257,nan,524.8509685881436,nan,nan,nan,nan
1,276,1,1,1.0,1.0,0.3235411597415805,0.0,0,7,8,6,1,3,nan,nan,nan,nan,nan,nan,nan,nan,nan,nan,nan,nan,0.0,nan,nan,nan,nan,nan,nan,nan,nan,nan,nan,nan,nan,nan,nan,nan,nan,nan,nan,138.56554714171216,525.4874183507636,nan,525.8109595105052,nan,nan,nan,nan
1,277,1,1,1.0,1.0,0.33134123776108027,0.0,3,6,5,4,2,8,nan,nan,nan,nan,nan,nan,nan,nan,nan,nan,nan,nan,0.0,nan,nan,nan,nan,nan,nan,nan,nan,nan,nan,nan,nan,nan,nan,nan,nan,nan,nan,138.56554714171216,526.487614785321,nan,526.8189560230821,nan,nan,nan,nan
1,278,0,0,1.0,0.0,0.2672411263920367,0.0,2,8,1,6,0,7,nan,nan,nan,nan,nan,nan,nan,nan,nan,nan,nan,nan,0.0,nan,nan,nan,nan,nan,nan,nan,nan,nan,nan,nan,nan,nan,nan,nan,nan,nan,nan,138.56554714171216,527.4876994602382,nan,527.7549405866303,nan,nan,nan,nan
1,279,1,1,1.0,1.0,0.443102537188679,0.0,1,3,6,5,4,8,nan,nan,nan,nan,nan,nan,nan,nan,nan,nan,nan,nan,0.0,nan,nan,nan,nan,nan,nan,nan,nan,nan,nan,nan,nan,nan,nan,nan,nan,nan,nan,138.56554714171216,528.487828896381,nan,528.9309314335696,nan,nan,nan,nan
1,280,1,1,1.0,1.0,0.35495900362730026,0.0,4,1,2,0,8,7,nan,nan,nan,nan,nan,nan,nan,nan,nan,nan,nan,nan,0.0,nan,nan,nan,nan,nan,nan,nan,nan,nan,nan,nan,nan,nan,nan,nan,nan,nan,nan,138.56554714171216,529.4879805701785,nan,529.8429395738058,nan,nan,nan,nan
1,281,1,1,1.0,1.0,0.330795269459486,0.0,6,3,7,4,1,0,nan,nan,nan,nan,nan,nan,nan,nan,nan,nan,nan,nan,0.0,nan,nan,nan,nan,nan,nan,nan,nan,nan,nan,nan,nan,nan,nan,nan,nan,nan,nan,138.56554714171216,530.4881273969077,nan,530.8189226663671,nan,nan,nan,nan
1,282,1,1,1.0,1.0,0.33863640204072,0.0,3,8,6,0,5,2,nan,nan,nan,nan,nan,nan,nan,nan,nan,nan,nan,nan,0.0,nan,nan,nan,nan,nan,nan,nan,nan,nan,nan,nan,nan,nan,nan,nan,nan,nan,nan,138.56554714171216,531.4882824919187,nan,531.8269188939594,nan,nan,nan,nan
1,283,1,1,1.0,1.0,0.3625133251771331,0.0,5,6,3,7,4,0,nan,nan,nan,nan,nan,nan,nan,nan,nan,nan,nan,nan,0.0,nan,nan,nan,nan,nan,nan,nan,nan,nan,nan,nan,nan,nan,nan,nan,nan,nan,nan,138.56554714171216,532.4884298890829,nan,532.85094321426,nan,nan,nan,nan
1,284,1,1,1.0,1.0,0.31432099360972643,0.0,2,3,7,0,5,1,nan,nan,nan,nan,nan,nan,nan,nan,nan,nan,nan,nan,0.0,nan,nan,nan,nan,nan,nan,nan,nan,nan,nan,nan,nan,nan,nan,nan,nan,nan,nan,138.56554714171216,533.488573580049,nan,533.8028945736587,nan,nan,nan,nan
1,285,0,0,0.0,1.0,0.5381851438432932,1.0,0,4,1,7,2,5,1.0,1.0,1.0,1.0,1.0,1.0,0.0,0.0,1.0,1.0,0.0,0.0,2.0,6.0,8.0,1.0,7.0,5.0,2.0,5.0,6.0,1.0,2.0,3.0,4.0,5.571000553667545,6.538623059168458,1.5082578076981008,2.4594918531365693,3.3788533182814717,4.242434203624725,138.56554714171216,534.4887181264348,535.2971348208375,535.0269032702781,542.8815485206433,543.8928188481368,536.305614579469,542.8732192949392
1,286,1,1,1.0,1.0,0.7044209754094481,0.0,2,3,0,6,5,8,nan,nan,nan,nan,nan,nan,nan,nan,nan,nan,nan,nan,0.0,nan,nan,nan,nan,nan,nan,nan,nan,nan,nan,nan,nan,nan,nan,nan,nan,nan,nan,138.56554714171216,544.0984373902902,nan,544.8028583656996,nan,nan,nan,nan
1,287,1,1,1.0,1.0,0.48826167918741703,0.0,7,1,5,2,4,3,nan,nan,nan,nan,nan,nan,nan,nan,nan,nan,nan,nan,0.0,nan,nan,nan,nan,nan,nan,nan,nan,nan,nan,nan,nan,nan,nan,nan,nan,nan,nan,138.56554714171216,545.0985788004473,nan,545.5868404796347,nan,nan,nan,nan
1,288,1,1,1.0,1.0,0.3921085181646049,0.0,5,0,6,1,8,7,nan,nan,nan,nan,nan,nan,nan,nan,nan,nan,nan,nan,0.0,nan,nan,nan,nan,nan,nan,nan,nan,nan,nan,nan,nan,nan,nan,nan,nan,nan,nan,138.56554714171216,546.0987224914134,nan,546.490831009578,nan,nan,nan,nan
1,289,1,1,1.0,1.0,0.3439757735468447,0.0,3,5,4,2,0,8,nan,nan,nan,nan,nan,nan,nan,nan,nan,nan,nan,nan,0.0,nan,nan,nan,nan,nan,nan,nan,nan,nan,nan,nan,nan,nan,nan,nan,nan,nan,nan,138.56554714171216,547.0988487908617,nan,547.4428245644085,nan,nan,nan,nan
1,290,1,1,1.0,1.0,0.36780109303072095,0.0,5,0,8,6,4,1,nan,nan,nan,nan,nan,nan,nan,nan,nan,nan,nan,nan,0.0,nan,nan,nan,nan,nan,nan,nan,nan,nan,nan,nan,nan,nan,nan,nan,nan,nan,nan,138.56554714171216,548.0990058816969,nan,548.4668069747277,nan,nan,nan,nan
1,291,1,1,1.0,1.0,0.47165939351543784,0.0,0,8,7,1,5,6,nan,nan,nan,nan,nan,nan,nan,nan,nan,nan,nan,nan,0.0,nan,nan,nan,nan,nan,nan,nan,nan,nan,nan,nan,nan,nan,nan,nan,nan,nan,nan,138.56554714171216,549.0991435851902,nan,549.5708029787056,nan,nan,nan,nan
1,292,1,1,1.0,1.0,0.4075096743181348,0.0,2,6,4,8,3,7,nan,nan,nan,nan,nan,nan,nan,nan,nan,nan,nan,nan,0.0,nan,nan,nan,nan,nan,nan,nan,nan,nan,nan,nan,nan,nan,nan,nan,nan,nan,nan,138.56554714171216,550.0992864207365,nan,550.5067960950546,nan,nan,nan,nan
1,293,1,1,1.0,1.0,0.3033711197786033,0.0,5,0,2,7,1,3,nan,nan,nan,nan,nan,nan,nan,nan,nan,nan,nan,nan,0.0,nan,nan,nan,nan,nan,nan,nan,nan,nan,nan,nan,nan,nan,nan,nan,nan,nan,nan,138.56554714171216,551.099431252107,nan,551.4028023718856,nan,nan,nan,nan
1,294,1,1,1.0,1.0,0.34319488191977143,0.0,7,1,5,3,2,8,nan,nan,nan,nan,nan,nan,nan,nan,nan,nan,nan,nan,0.0,nan,nan,nan,nan,nan,nan,nan,nan,nan,nan,nan,nan,nan,nan,nan,nan,nan,nan,138.56554714171216,552.0995923341252,nan,552.442787216045,nan,nan,nan,nan
1,295,1,1,1.0,1.0,0.40670797042548656,0.0,0,5,2,4,6,3,nan,nan,nan,nan,nan,nan,nan,nan,nan,nan,nan,nan,0.0,nan,nan,nan,nan,nan,nan,nan,nan,nan,nan,nan,nan,nan,nan,nan,nan,nan,nan,138.56554714171216,553.1080609741621,nan,553.5147689445876,nan,nan,nan,nan
1,296,1,1,1.0,1.0,0.39857204305008054,0.0,6,1,4,7,3,8,nan,nan,nan,nan,nan,nan,nan,nan,nan,nan,nan,nan,0.0,nan,nan,nan,nan,nan,nan,nan,nan,nan,nan,nan,nan,nan,nan,nan,nan,nan,nan,138.56554714171216,554.10820095893,nan,554.50677300198,nan,nan,nan,nan
1,297,1,1,1.0,1.0,0.27842991426587105,0.0,1,4,6,3,0,7,nan,nan,nan,nan,nan,nan,nan,nan,nan,nan,nan,nan,0.0,nan,nan,nan,nan,nan,nan,nan,nan,nan,nan,nan,nan,nan,nan,nan,nan,nan,nan,138.56554714171216,555.1083412286825,nan,555.3867711429484,nan,nan,nan,nan
1,298,1,1,1.0,1.0,0.3662093738093972,0.0,5,7,3,4,2,6,nan,nan,nan,nan,nan,nan,nan,nan,nan,nan,nan,nan,0.0,nan,nan,nan,nan,nan,nan,nan,nan,nan,nan,nan,nan,nan,nan,nan,nan,nan,nan,138.56554714171216,556.1085433652624,nan,556.4747527390718,nan,nan,nan,nan
1,299,1,1,1.0,1.0,0.2940674191340804,0.0,7,1,2,6,4,3,nan,nan,nan,nan,nan,nan,nan,nan,nan,nan,nan,nan,0.0,nan,nan,nan,nan,nan,nan,nan,nan,nan,nan,nan,nan,nan,nan,nan,nan,nan,nan,138.56554714171216,557.1086810687557,nan,557.4027484878898,nan,nan,nan,nan
1,300,1,1,1.0,1.0,0.3099287278018892,0.0,8,3,7,2,6,0,nan,nan,nan,nan,nan,nan,nan,nan,nan,nan,nan,nan,0.0,nan,nan,nan,nan,nan,nan,nan,nan,nan,nan,nan,nan,nan,nan,nan,nan,nan,nan,138.56554714171216,558.1088236193173,nan,558.4187523471192,nan,nan,nan,nan
1,301,1,1,1.0,1.0,0.29383021499961615,0.0,3,2,5,8,1,4,nan,nan,nan,nan,nan,nan,nan,nan,nan,nan,nan,nan,0.0,nan,nan,nan,nan,nan,nan,nan,nan,nan,nan,nan,nan,nan,nan,nan,nan,nan,nan,138.56554714171216,559.1089185578749,nan,559.4027487728745,nan,nan,nan,nan
1,302,1,1,1.0,1.0,0.3576691737398505,0.0,2,8,4,0,6,5,nan,nan,nan,nan,nan,nan,nan,nan,nan,nan,nan,nan,0.0,nan,nan,nan,nan,nan,nan,nan,nan,nan,nan,nan,nan,nan,nan,nan,nan,nan,nan,138.56554714171216,560.1090756487101,nan,560.46674482245,nan,nan,nan,nan
1,303,1,1,1.0,1.0,0.32550265407189727,0.0,4,2,3,7,5,6,nan,nan,nan,nan,nan,nan,nan,nan,nan,nan,nan,nan,0.0,nan,nan,nan,nan,nan,nan,nan,nan,nan,nan,nan,nan,nan,nan,nan,nan,nan,nan,138.56554714171216,561.1092227608897,nan,561.4347254149616,nan,nan,nan,nan
1,304,1,1,1.0,1.0,0.33337429258972406,0.0,3,0,7,6,1,5,nan,nan,nan,nan,nan,nan,nan,nan,nan,nan,nan,nan,0.0,nan,nan,nan,nan,nan,nan,nan,nan,nan,nan,nan,nan,nan,nan,nan,nan,nan,nan,138.56554714171216,562.1093493457884,nan,562.4427236383781,nan,nan,nan,nan
1,305,1,1,1.0,1.0,0.3412003149278462,0.0,0,6,1,5,4,7,nan,nan,nan,nan,nan,nan,nan,nan,nan,nan,nan,nan,0.0,nan,nan,nan,nan,nan,nan,nan,nan,nan,nan,nan,nan,nan,nan,nan,nan,nan,nan,138.56554714171216,563.1095035853796,nan,563.4507039003074,nan,nan,nan,nan
1,306,1,1,1.0,1.0,0.3407147880643606,0.0,8,4,2,6,5,3,nan,nan,nan,nan,nan,nan,nan,nan,nan,nan,nan,nan,0.0,nan,nan,nan,nan,nan,nan,nan,nan,nan,nan,nan,nan,nan,nan,nan,nan,nan,nan,138.56554714171216,564.1179881906137,nan,564.458702978678,nan,nan,nan,nan
1,307,1,1,1.0,1.0,0.30861555226147175,0.0,5,6,4,8,0,2,nan,nan,nan,nan,nan,nan,nan,nan,nan,nan,nan,nan,0.0,nan,nan,nan,nan,nan,nan,nan,nan,nan,nan,nan,nan,nan,nan,nan,nan,nan,nan,138.56554714171216,565.1180973844603,nan,565.4267129367217,nan,nan,nan,nan
1,308,1,1,1.0,1.0,0.26042949315160513,0.0,7,4,6,1,3,5,nan,nan,nan,nan,nan,nan,nan,nan,nan,nan,nan,nan,0.0,nan,nan,nan,nan,nan,nan,nan,nan,nan,nan,nan,nan,nan,nan,nan,nan,nan,nan,138.56554714171216,566.1182681601495,nan,566.3786976533011,nan,nan,nan,nan
1,309,1,1,1.0,1.0,0.24429705366492271,0.0,3,1,5,0,6,4,nan,nan,nan,nan,nan,nan,nan,nan,nan,nan,nan,nan,0.0,nan,nan,nan,nan,nan,nan,nan,nan,nan,nan,nan,nan,nan,nan,nan,nan,nan,nan,138.56554714171216,567.1184092848562,nan,567.3627063385211,nan,nan,nan,nan
1,310,1,1,1.0,1.0,0.26814603665843606,0.0,8,2,4,7,3,1,nan,nan,nan,nan,nan,nan,nan,nan,nan,nan,nan,nan,0.0,nan,nan,nan,nan,nan,nan,nan,nan,nan,nan,nan,nan,nan,nan,nan,nan,nan,nan,138.56554714171216,568.1185535462573,nan,568.3866995829158,nan,nan,nan,nan
1,311,1,1,1.0,1.0,0.3880022093653679,0.0,6,0,5,1,2,8,nan,nan,nan,nan,nan,nan,nan,nan,nan,nan,nan,nan,0.0,nan,nan,nan,nan,nan,nan,nan,nan,nan,nan,nan,nan,nan,nan,nan,nan,nan,nan,138.56554714171216,569.1186903943308,nan,569.5066926036961,nan,nan,nan,nan
1,312,1,1,1.0,1.0,0.2998372931033373,0.0,7,3,8,4,0,1,nan,nan,nan,nan,nan,nan,nan,nan,nan,nan,nan,nan,0.0,nan,nan,nan,nan,nan,nan,nan,nan,nan,nan,nan,nan,nan,nan,nan,nan,nan,nan,138.56554714171216,570.118842353113,nan,570.4186796462163,nan,nan,nan,nan
1,313,1,1,1.0,1.0,0.3476755288429558,0.0,8,7,3,1,4,0,nan,nan,nan,nan,nan,nan,nan,nan,nan,nan,nan,nan,0.0,nan,nan,nan,nan,nan,nan,nan,nan,nan,nan,nan,nan,nan,nan,nan,nan,nan,nan,138.56554714171216,571.1189980185591,nan,571.466673547402,nan,nan,nan,nan
1,314,1,1,1.0,1.0,0.29153714794665575,0.0,6,5,0,7,2,4,nan,nan,nan,nan,nan,nan,nan,nan,nan,nan,nan,nan,0.0,nan,nan,nan,nan,nan,nan,nan,nan,nan,nan,nan,nan,nan,nan,nan,nan,nan,nan,138.56554714171216,572.1191297350451,nan,572.4106668829918,nan,nan,nan,nan
1,315,1,1,1.0,1.0,0.2833775575272739,0.0,7,4,2,8,5,6,nan,nan,nan,nan,nan,nan,nan,nan,nan,nan,nan,nan,0.0,nan,nan,nan,nan,nan,nan,nan,nan,nan,nan,nan,nan,nan,nan,nan,nan,nan,nan,138.56554714171216,573.1192794130184,nan,573.4026569705456,nan,nan,nan,nan
1,316,1,1,1.0,1.0,0.38724298495799303,0.0,3,8,5,4,6,1,nan,nan,nan,nan,nan,nan,nan,nan,nan,nan,nan,nan,0.0,nan,nan,nan,nan,nan,nan,nan,nan,nan,nan,nan,nan,nan,nan,nan,nan,nan,nan,138.56554714171216,574.1194114149548,nan,574.5066543999128,nan,nan,nan,nan
1,317,1,1,1.0,1.0,0.3630763995461166,0.0,5,7,4,6,1,2,nan,nan,nan,nan,nan,nan,nan,nan,nan,nan,nan,nan,0.0,nan,nan,nan,nan,nan,nan,nan,nan,nan,nan,nan,nan,nan,nan,nan,nan,nan,nan,138.56554714171216,575.119570216164,nan,575.4826466157101,nan,nan,nan,nan
1,318,1,1,1.0,1.0,0.2749280189163983,0.0,4,1,3,2,8,6,nan,nan,nan,nan,nan,nan,nan,nan,nan,nan,nan,nan,0.0,nan,nan,nan,nan,nan,nan,nan,nan,nan,nan,nan,nan,nan,nan,nan,nan,nan,nan,138.56554714171216,576.1197136221454,nan,576.3946416410618,nan,nan,nan,nan
1,319,1,1,1.0,1.0,0.29878726601600647,0.0,2,3,5,1,0,8,nan,nan,nan,nan,nan,nan,nan,nan,nan,nan,nan,nan,0.0,nan,nan,nan,nan,nan,nan,nan,nan,nan,nan,nan,nan,nan,nan,nan,nan,nan,nan,138.56554714171216,577.1198499002494,nan,577.4186371662654,nan,nan,nan,nan
1,320,1,1,1.0,1.0,0.3386130235157907,0.0,0,2,8,6,4,7,nan,nan,nan,nan,nan,nan,nan,nan,nan,nan,nan,nan,0.0,nan,nan,nan,nan,nan,nan,nan,nan,nan,nan,nan,nan,nan,nan,nan,nan,nan,nan,138.56554714171216,578.1200161143206,nan,578.4586291378364,nan,nan,nan,nan
1,321,1,1,1.0,1.0,0.33846505638211966,0.0,6,8,7,3,5,1,nan,nan,nan,nan,nan,nan,nan,nan,nan,nan,nan,nan,0.0,nan,nan,nan,nan,nan,nan,nan,nan,nan,nan,nan,nan,nan,nan,nan,nan,nan,nan,138.56554714171216,579.1201560986228,nan,579.458621155005,nan,nan,nan,nan
1,322,1,1,1.0,1.0,0.3783224602229893,0.0,8,1,5,6,0,2,nan,nan,nan,nan,nan,nan,nan,nan,nan,nan,nan,nan,0.0,nan,nan,nan,nan,nan,nan,nan,nan,nan,nan,nan,nan,nan,nan,nan,nan,nan,nan,138.56554714171216,580.1202932321467,nan,580.4986156923696,nan,nan,nan,nan
1,323,1,1,1.0,1.0,0.3461730466224253,0.0,3,7,0,2,8,1,nan,nan,nan,nan,nan,nan,nan,nan,nan,nan,nan,nan,0.0,nan,nan,nan,nan,nan,nan,nan,nan,nan,nan,nan,nan,nan,nan,nan,nan,nan,nan,138.56554714171216,581.1204306511208,nan,581.4666036977433,nan,nan,nan,nan
1,324,1,1,1.0,1.0,0.2900206954218447,0.0,2,1,8,4,5,0,nan,nan,nan,nan,nan,nan,nan,nan,nan,nan,nan,nan,0.0,nan,nan,nan,nan,nan,nan,nan,nan,nan,nan,nan,nan,nan,nan,nan,nan,nan,nan,138.56554714171216,582.1205814694986,nan,582.4106021649204,nan,nan,nan,nan
1,325,1,1,1.0,1.0,0.3058686046861112,0.0,0,4,5,7,3,2,nan,nan,nan,nan,nan,nan,nan,nan,nan,nan,nan,nan,0.0,nan,nan,nan,nan,nan,nan,nan,nan,nan,nan,nan,nan,nan,nan,nan,nan,nan,nan,138.56554714171216,583.1207191729918,nan,583.4265877776779,nan,nan,nan,nan
1,326,1,1,1.0,1.0,0.35334419179707766,0.0,3,7,4,5,1,6,nan,nan,nan,nan,nan,nan,nan,nan,nan,nan,nan,nan,0.0,nan,nan,nan,nan,nan,nan,nan,nan,nan,nan,nan,nan,nan,nan,nan,nan,nan,nan,138.56554714171216,584.1292277271859,nan,584.482571918983,nan,nan,nan,nan
1,327,1,1,1.0,1.0,0.28923125099390745,0.0,0,2,8,7,6,4,nan,nan,nan,nan,nan,nan,nan,nan,nan,nan,nan,nan,0.0,nan,nan,nan,nan,nan,nan,nan,nan,nan,nan,nan,nan,nan,nan,nan,nan,nan,nan,138.56554714171216,585.1293468992226,nan,585.4185781502165,nan,nan,nan,nan
1,328,1,1,1.0,1.0,0.3530858904123306,0.0,2,6,5,0,7,1,nan,nan,nan,nan,nan,nan,nan,nan,nan,nan,nan,nan,0.0,nan,nan,nan,nan,nan,nan,nan,nan,nan,nan,nan,nan,nan,nan,nan,nan,nan,nan,138.56554714171216,586.1294877394103,nan,586.4825736298226,nan,nan,nan,nan
1,329,1,1,1.0,1.0,0.6409178655594587,0.0,5,7,0,4,1,2,nan,nan,nan,nan,nan,nan,nan,nan,nan,nan,nan,nan,0.0,nan,nan,nan,nan,nan,nan,nan,nan,nan,nan,nan,nan,nan,nan,nan,nan,nan,nan,138.56554714171216,587.1296471105888,nan,587.7705649761483,nan,nan,nan,nan
1,330,1,1,1.0,1.0,0.41645044134929776,0.0,2,0,4,7,5,8,nan,nan,nan,nan,nan,nan,nan,nan,nan,nan,nan,nan,0.0,nan,nan,nan,nan,nan,nan,nan,nan,nan,nan,nan,nan,nan,nan,nan,nan,nan,nan,138.56554714171216,588.1381083382294,nan,588.5545587795787,nan,nan,nan,nan
1,331,1,1,1.0,1.0,0.30427175387740135,0.0,1,4,0,6,7,3,nan,nan,nan,nan,nan,nan,nan,nan,nan,nan,nan,nan,0.0,nan,nan,nan,nan,nan,nan,nan,nan,nan,nan,nan,nan,nan,nan,nan,nan,nan,nan,138.56554714171216,589.1382788284682,nan,589.4425505823456,nan,nan,nan,nan
1,332,1,1,1.0,1.0,0.39217580249533057,0.0,5,1,4,8,3,2,nan,nan,nan,nan,nan,nan,nan,nan,nan,nan,nan,nan,0.0,nan,nan,nan,nan,nan,nan,nan,nan,nan,nan,nan,nan,nan,nan,nan,nan,nan,nan,138.56554714171216,590.1383592267521,nan,590.5305350292474,nan,nan,nan,nan
1,333,0,0,1.0,0.0,0.37567672273144126,0.0,4,7,2,1,6,0,nan,nan,nan,nan,nan,nan,nan,nan,nan,nan,nan,nan,0.0,nan,nan,nan,nan,nan,nan,nan,nan,nan,nan,nan,nan,nan,nan,nan,nan,nan,nan,138.56554714171216,591.1468846020289,nan,591.5225613247603,nan,nan,nan,nan
1,334,1,1,1.0,1.0,0.5354915098287165,0.0,5,4,3,8,2,7,nan,nan,nan,nan,nan,nan,nan,nan,nan,nan,nan,nan,0.0,nan,nan,nan,nan,nan,nan,nan,nan,nan,nan,nan,nan,nan,nan,nan,nan,nan,nan,138.56554714171216,592.14701688895,nan,592.6825083987787,nan,nan,nan,nan
1,335,0,0,0.0,1.0,0.751334629021585,1.0,1,8,2,7,4,5,1.0,1.0,1.0,1.0,1.0,1.0,1.0,0.0,1.0,0.0,0.0,0.0,2.0,1.0,6.0,2.0,4.0,5.0,8.0,1.0,3.0,4.0,5.0,6.0,2.0,1.536613381933421,3.0969303459860384,4.087886087130755,4.838912806939334,5.687337438575923,2.3034495222382247,138.56554714171216,593.1471708430909,593.9556288775057,593.8985054721124,600.7065655053593,601.7060853955336,594.9807548280805,600.6982265864499
1,336,1,1,1.0,1.0,0.5673404270783067,0.0,7,1,0,2,3,6,nan,nan,nan,nan,nan,nan,nan,nan,nan,nan,nan,nan,0.0,nan,nan,nan,nan,nan,nan,nan,nan,nan,nan,nan,nan,nan,nan,nan,nan,nan,nan,138.56554714171216,601.9151063328609,nan,602.4824467599392,nan,nan,nan,nan
1,337,1,1,1.0,1.0,0.694894895888865,0.0,2,0,3,7,8,4,nan,nan,nan,nan,nan,nan,nan,nan,nan,nan,nan,nan,0.0,nan,nan,nan,nan,nan,nan,nan,nan,nan,nan,nan,nan,nan,nan,nan,nan,nan,nan,138.56554714171216,602.9235564414412,nan,603.61845133733,nan,nan,nan,nan
1,338,1,1,nan,nan,nan,0.0,3,6,1,4,2,8,nan,nan,nan,nan,nan,nan,nan,nan,nan,nan,nan,nan,0.0,nan,nan,nan,nan,nan,nan,nan,nan,nan,nan,nan,nan,nan,nan,nan,nan,nan,nan,138.56554714171216,603.9237226550467,nan,nan,nan,nan,nan,nan
1,339,1,1,1.0,1.0,0.590223487932235,0.0,7,1,6,0,4,3,nan,nan,nan,nan,nan,nan,nan,nan,nan,nan,nan,nan,0.0,nan,nan,nan,nan,nan,nan,nan,nan,nan,nan,nan,nan,nan,nan,nan,nan,nan,nan,138.56554714171216,604.9321969971061,nan,605.5224204850383,nan,nan,nan,nan
1,340,1,1,1.0,1.0,0.5180712691508234,0.0,4,8,2,5,6,1,nan,nan,nan,nan,nan,nan,nan,nan,nan,nan,nan,nan,0.0,nan,nan,nan,nan,nan,nan,nan,nan,nan,nan,nan,nan,nan,nan,nan,nan,nan,nan,138.56554714171216,605.9323663469404,nan,606.4504376160912,nan,nan,nan,nan
1,341,1,1,1.0,1.0,0.33360094809904695,0.0,3,1,4,2,0,7,nan,nan,nan,nan,nan,nan,nan,nan,nan,nan,nan,nan,0.0,nan,nan,nan,nan,nan,nan,nan,nan,nan,nan,nan,nan,nan,nan,nan,nan,nan,nan,138.56554714171216,606.9408247233368,nan,607.2744256714359,nan,nan,nan,nan
1,342,0,0,1.0,0.0,0.3091290192678571,1.0,7,3,0,5,2,6,1.0,1.0,1.0,1.0,1.0,1.0,0.0,0.0,1.0,1.0,0.0,0.0,2.0,8.0,4.0,0.0,5.0,6.0,3.0,5.0,6.0,1.0,2.0,3.0,4.0,5.838276176713407,6.677302169147879,1.9898786297999322,2.8079508398659527,3.989947339054197,4.830624636262655,138.56554714171216,607.9492959291674,608.757737712469,608.2584249484353,616.4838400483131,617.4932301347144,609.7662174711004,616.4755088272505
1,343,1,1,1.0,1.0,0.5336164003238082,0.0,0,5,6,4,7,8,nan,nan,nan,nan,nan,nan,nan,nan,nan,nan,nan,nan,0.0,nan,nan,nan,nan,nan,nan,nan,nan,nan,nan,nan,nan,nan,nan,nan,nan,nan,nan,138.56554714171216,617.7007434582338,nan,618.2343598585576,nan,nan,nan,nan
1,344,0,0,0.0,1.0,0.4614795772358775,1.0,6,2,1,0,5,3,1.0,1.0,1.0,1.0,1.0,1.0,0.0,0.0,1.0,1.0,0.0,0.0,2.0,7.0,1.0,1.0,0.0,6.0,5.0,5.0,6.0,1.0,2.0,3.0,4.0,5.317093885969371,6.460993194952607,1.4151130327954888,2.5494494843296707,3.519197702873498,4.541520540602505,138.56554714171216,618.700850085821,619.5092861671001,619.1623296630569,627.0353693440557,628.0387626164593,620.5344531722367,627.0270375530235
1,345,1,1,1.0,1.0,0.5263719842769206,0.0,5,6,8,2,4,0,nan,nan,nan,nan,nan,nan,nan,nan,nan,nan,nan,nan,0.0,nan,nan,nan,nan,nan,nan,nan,nan,nan,nan,nan,nan,nan,nan,nan,nan,nan,nan,138.56554714171216,628.2439030441456,nan,628.7702750284225,nan,nan,nan,nan
1,346,1,1,1.0,1.0,0.39790291152894497,0.0,1,4,7,3,6,8,nan,nan,nan,nan,nan,nan,nan,nan,nan,nan,nan,nan,0.0,nan,nan,nan,nan,nan,nan,nan,nan,nan,nan,nan,nan,nan,nan,nan,nan,nan,nan,138.56554714171216,629.2523676925339,nan,629.6502706040628,nan,nan,nan,nan
1,347,1,1,1.0,1.0,0.309742271900177,0.0,4,7,6,0,1,5,nan,nan,nan,nan,nan,nan,nan,nan,nan,nan,nan,nan,0.0,nan,nan,nan,nan,nan,nan,nan,nan,nan,nan,nan,nan,nan,nan,nan,nan,nan,nan,138.56554714171216,630.2525253533386,nan,630.5622676252387,nan,nan,nan,nan
1,348,1,1,1.0,1.0,0.34959368826821446,0.0,0,2,7,8,6,1,nan,nan,nan,nan,nan,nan,nan,nan,nan,nan,nan,nan,0.0,nan,nan,nan,nan,nan,nan,nan,nan,nan,nan,nan,nan,nan,nan,nan,nan,nan,nan,138.56554714171216,631.2526639127173,nan,631.6022576009855,nan,nan,nan,nan
1,349,1,1,1.0,1.0,0.5414432780817151,0.0,6,0,3,5,7,8,nan,nan,nan,nan,nan,nan,nan,nan,nan,nan,nan,nan,0.0,nan,nan,nan,nan,nan,nan,nan,nan,nan,nan,nan,nan,nan,nan,nan,nan,nan,nan,138.56554714171216,632.2528090290725,nan,632.7942523071542,nan,nan,nan,nan
1,350,1,1,1.0,1.0,0.3733126656152308,0.0,5,3,7,4,1,2,nan,nan,nan,nan,nan,nan,nan,nan,nan,nan,nan,nan,0.0,nan,nan,nan,nan,nan,nan,nan,nan,nan,nan,nan,nan,nan,nan,nan,nan,nan,nan,138.56554714171216,633.2529609878547,nan,633.62627365347,nan,nan,nan,nan
1,351,1,1,1.0,1.0,0.38878680719062686,0.0,1,5,8,2,0,6,nan,nan,nan,nan,nan,nan,nan,nan,nan,nan,nan,nan,0.0,nan,nan,nan,nan,nan,nan,nan,nan,nan,nan,nan,nan,nan,nan,nan,nan,nan,nan,138.56554714171216,634.2614758140408,nan,634.6502626212314,nan,nan,nan,nan
1,352,1,1,1.0,1.0,0.42065454041585326,0.0,0,1,5,8,2,3,nan,nan,nan,nan,nan,nan,nan,nan,nan,nan,nan,nan,0.0,nan,nan,nan,nan,nan,nan,nan,nan,nan,nan,nan,nan,nan,nan,nan,nan,nan,nan,138.56554714171216,635.2615864332765,nan,635.6822409736924,nan,nan,nan,nan
1,353,1,1,nan,nan,nan,0.0,5,2,7,1,4,8,nan,nan,nan,nan,nan,nan,nan,nan,nan,nan,nan,nan,0.0,nan,nan,nan,nan,nan,nan,nan,nan,nan,nan,nan,nan,nan,nan,nan,nan,nan,nan,138.56554714171216,636.261732975021,nan,nan,nan,nan,nan,nan
1,354,1,1,1.0,1.0,0.17238118359819055,0.0,3,8,4,0,7,6,nan,nan,nan,nan,nan,nan,nan,nan,nan,nan,nan,nan,0.0,nan,nan,nan,nan,nan,nan,nan,nan,nan,nan,nan,nan,nan,nan,nan,nan,nan,nan,138.56554714171216,637.2618664023466,nan,637.4342475859448,nan,nan,nan,nan
1,355,1,1,1.0,1.0,0.37186919897794724,0.0,8,1,6,7,2,3,nan,nan,nan,nan,nan,nan,nan,nan,nan,nan,nan,nan,0.0,nan,nan,nan,nan,nan,nan,nan,nan,nan,nan,nan,nan,nan,nan,nan,nan,nan,nan,138.56554714171216,638.2703490122221,nan,638.6422182112001,nan,nan,nan,nan
1,356,1,1,1.0,1.0,0.32371279038488865,0.0,5,6,8,4,3,0,nan,nan,nan,nan,nan,nan,nan,nan,nan,nan,nan,nan,0.0,nan,nan,nan,nan,nan,nan,nan,nan,nan,nan,nan,nan,nan,nan,nan,nan,nan,nan,138.56554714171216,639.270500401035,nan,639.5942131914198,nan,nan,nan,nan
1,357,1,1,1.0,1.0,0.3875494687817991,0.0,4,3,0,5,8,1,nan,nan,nan,nan,nan,nan,nan,nan,nan,nan,nan,nan,0.0,nan,nan,nan,nan,nan,nan,nan,nan,nan,nan,nan,nan,nan,nan,nan,nan,nan,nan,138.56554714171216,640.2706503639929,nan,640.6581998327747,nan,nan,nan,nan
1,358,1,1,1.0,1.0,0.5394008145667613,0.0,6,8,2,4,5,7,nan,nan,nan,nan,nan,nan,nan,nan,nan,nan,nan,nan,0.0,nan,nan,nan,nan,nan,nan,nan,nan,nan,nan,nan,nan,nan,nan,nan,nan,nan,nan,138.56554714171216,641.27079177415,nan,641.8101925887167,nan,nan,nan,nan
1,359,1,1,1.0,1.0,0.37922708550468087,0.0,0,3,1,8,7,2,nan,nan,nan,nan,nan,nan,nan,nan,nan,nan,nan,nan,0.0,nan,nan,nan,nan,nan,nan,nan,nan,nan,nan,nan,nan,nan,nan,nan,nan,nan,nan,138.56554714171216,642.2709656856023,nan,642.650192771107,nan,nan,nan,nan
1,360,1,1,1.0,1.0,0.3231117972172797,0.0,5,8,2,7,6,3,nan,nan,nan,nan,nan,nan,nan,nan,nan,nan,nan,nan,0.0,nan,nan,nan,nan,nan,nan,nan,nan,nan,nan,nan,nan,nan,nan,nan,nan,nan,nan,138.56554714171216,643.2710780156776,nan,643.5941898128949,nan,nan,nan,nan
1,361,1,1,1.0,1.0,0.290965520311147,0.0,1,3,7,5,4,6,nan,nan,nan,nan,nan,nan,nan,nan,nan,nan,nan,nan,0.0,nan,nan,nan,nan,nan,nan,nan,nan,nan,nan,nan,nan,nan,nan,nan,nan,nan,nan,138.56554714171216,644.271216289606,nan,644.5621818099171,nan,nan,nan,nan
1,362,1,1,1.0,1.0,0.2588124005123973,0.0,4,6,1,0,5,8,nan,nan,nan,nan,nan,nan,nan,nan,nan,nan,nan,nan,0.0,nan,nan,nan,nan,nan,nan,nan,nan,nan,nan,nan,nan,nan,nan,nan,nan,nan,nan,138.56554714171216,645.2713585547172,nan,645.5301709552296,nan,nan,nan,nan
1,363,1,1,1.0,1.0,0.1946535580791533,0.0,7,0,6,4,8,5,nan,nan,nan,nan,nan,nan,nan,nan,nan,nan,nan,nan,0.0,nan,nan,nan,nan,nan,nan,nan,nan,nan,nan,nan,nan,nan,nan,nan,nan,nan,nan,138.56554714171216,646.2715179263614,nan,646.4661714844406,nan,nan,nan,nan
1,364,1,1,1.0,1.0,0.25048688100650907,0.0,3,5,4,1,7,2,nan,nan,nan,nan,nan,nan,nan,nan,nan,nan,nan,nan,0.0,nan,nan,nan,nan,nan,nan,nan,nan,nan,nan,nan,nan,nan,nan,nan,nan,nan,nan,138.56554714171216,647.2716590515338,nan,647.5221459325403,nan,nan,nan,nan
1,365,1,1,1.0,1.0,0.3623454002663493,0.0,4,3,8,0,6,7,nan,nan,nan,nan,nan,nan,nan,nan,nan,nan,nan,nan,0.0,nan,nan,nan,nan,nan,nan,nan,nan,nan,nan,nan,nan,nan,nan,nan,nan,nan,nan,138.56554714171216,648.2718041678891,nan,648.6341495681554,nan,nan,nan,nan
1,366,1,1,1.0,1.0,0.33020425494760275,0.0,8,0,1,5,7,6,nan,nan,nan,nan,nan,nan,nan,nan,nan,nan,nan,nan,0.0,nan,nan,nan,nan,nan,nan,nan,nan,nan,nan,nan,nan,nan,nan,nan,nan,nan,nan,138.56554714171216,649.2719361693598,nan,649.6021404243074,nan,nan,nan,nan
1,367,1,1,1.0,1.0,0.41006132774055004,0.0,0,3,6,2,5,4,nan,nan,nan,nan,nan,nan,nan,nan,nan,nan,nan,nan,0.0,nan,nan,nan,nan,nan,nan,nan,nan,nan,nan,nan,nan,nan,nan,nan,nan,nan,nan,138.56554714171216,650.272075869143,nan,650.6821371968836,nan,nan,nan,nan
1,368,0,0,1.0,0.0,0.24989472655579448,1.0,6,1,4,5,8,0,1.0,1.0,1.0,1.0,1.0,1.0,0.0,0.0,1.0,1.0,0.0,0.0,2.0,1.0,3.0,4.0,5.0,6.0,2.0,4.0,5.0,1.0,2.0,3.0,6.0,3.7700774534605443,4.770560699980706,0.9221437657251954,1.6900293626822531,2.6827396154403687,5.7465127161704,138.56554714171216,651.2722406573594,652.080654215999,651.5221353839152,658.8733002636582,659.8781763459556,653.0891391062178,658.8649641959928
1,369,1,1,1.0,1.0,0.24823429808020592,0.0,8,5,6,4,1,7,nan,nan,nan,nan,nan,nan,nan,nan,nan,nan,nan,nan,0.0,nan,nan,nan,nan,nan,nan,nan,nan,nan,nan,nan,nan,nan,nan,nan,nan,nan,nan,138.56554714171216,660.0818373849615,nan,660.3300716830418,nan,nan,nan,nan
1,370,1,1,1.0,1.0,0.19207339407876134,0.0,3,4,0,8,5,2,nan,nan,nan,nan,nan,nan,nan,nan,nan,nan,nan,nan,0.0,nan,nan,nan,nan,nan,nan,nan,nan,nan,nan,nan,nan,nan,nan,nan,nan,nan,nan,138.56554714171216,661.0819730930962,nan,661.2740464871749,nan,nan,nan,nan
1,371,1,1,1.0,1.0,0.1119166798889637,0.0,8,6,1,4,0,5,nan,nan,nan,nan,nan,nan,nan,nan,nan,nan,nan,nan,0.0,nan,nan,nan,nan,nan,nan,nan,nan,nan,nan,nan,nan,nan,nan,nan,nan,nan,nan,138.56554714171216,662.0821421579458,nan,662.1940588378347,nan,nan,nan,nan
1,372,1,1,1.0,1.0,0.13546345569193363,0.0,6,3,4,7,8,0,nan,nan,nan,nan,nan,nan,nan,nan,nan,nan,nan,nan,0.0,nan,nan,nan,nan,nan,nan,nan,nan,nan,nan,nan,nan,nan,nan,nan,nan,nan,nan,138.56554714171216,663.0905919810757,nan,663.2260554367676,nan,nan,nan,nan
1,373,0,0,0.0,1.0,0.5513066318817437,0.0,0,2,8,1,5,3,nan,nan,nan,nan,nan,nan,nan,nan,nan,nan,nan,nan,0.0,nan,nan,nan,nan,nan,nan,nan,nan,nan,nan,nan,nan,nan,nan,nan,nan,nan,nan,138.56554714171216,664.0907436548732,nan,664.642050286755,nan,nan,nan,nan
1,374,1,1,1.0,1.0,0.44713129941374063,0.0,1,7,6,5,0,4,nan,nan,nan,nan,nan,nan,nan,nan,nan,nan,nan,nan,0.0,nan,nan,nan,nan,nan,nan,nan,nan,nan,nan,nan,nan,nan,nan,nan,nan,nan,nan,138.56554714171216,665.0909218429588,nan,665.5380531423725,nan,nan,nan,nan
1,375,1,1,1.0,1.0,0.2469975301064551,0.0,6,2,0,3,8,5,nan,nan,nan,nan,nan,nan,nan,nan,nan,nan,nan,nan,0.0,nan,nan,nan,nan,nan,nan,nan,nan,nan,nan,nan,nan,nan,nan,nan,nan,nan,nan,138.56554714171216,666.091040445026,nan,666.3380379751325,nan,nan,nan,nan
1,376,0,0,nan,nan,nan,1.0,0,3,4,6,5,8,1.0,1.0,1.0,1.0,1.0,1.0,0.0,0.0,1.0,1.0,1.0,0.0,3.0,2.0,8.0,4.0,6.0,5.0,3.0,5.0,6.0,1.0,2.0,3.0,4.0,5.254415858071297,6.1343316049315035,1.0494556138291955,2.144742637872696,3.1194427758455276,3.7756560244597495,138.56554714171216,667.0911801443435,667.8996039666235,nan,675.1006320975721,676.1020561768673,668.9247604226694,675.092329101637
1,377,1,1,1.0,1.0,0.5168017139658332,0.0,1,8,5,7,2,6,nan,nan,nan,nan,nan,nan,nan,nan,nan,nan,nan,nan,0.0,nan,nan,nan,nan,nan,nan,nan,nan,nan,nan,nan,nan,nan,nan,nan,nan,nan,nan,138.56554714171216,676.3091623764485,nan,676.8259640904143,nan,nan,nan,nan
1,378,1,1,1.0,1.0,0.31629759864881635,0.0,4,5,7,8,3,0,nan,nan,nan,nan,nan,nan,nan,nan,nan,nan,nan,nan,0.0,nan,nan,nan,nan,nan,nan,nan,nan,nan,nan,nan,nan,nan,nan,nan,nan,nan,nan,138.56554714171216,677.3176444158889,nan,677.6339420145378,nan,nan,nan,nan
1,379,1,1,1.0,1.0,0.3161427890881896,0.0,7,1,5,2,8,6,nan,nan,nan,nan,nan,nan,nan,nan,nan,nan,nan,nan,0.0,nan,nan,nan,nan,nan,nan,nan,nan,nan,nan,nan,nan,nan,nan,nan,nan,nan,nan,138.56554714171216,678.3178097745404,nan,678.6339525636286,nan,nan,nan,nan
