block,trial,freq_trials,correct_response,actual_response,acc,rts,probe_trials,fast_rt_trigger,slow_rt_trigger,rt_triggered,rts_runningavg,rts_runningstd,rts_runningfastthresh,rts_runningslowthresh,rts_runningstd,rts_trailingavg,trials_colorind,trials_colorrgb0,trials_colorrgb1,trials_colorrgb2,wm_respdeg,wm_respdeg_in_colorspace,wm_respcolorminusorigcolor,wm_resptexind,wm_resptexrgb0,wm_resptexrgb1,wm_resptexrgb2,wm_rts,time_blockstart,time_encarray_offset,time_encarray_onset,time_response,time_iti_offset,time_iti_onset,time_memprobe_offset,time_memprobe_onset
1,1,1,1,1.0,1.0,0.420375603018,0,nan,nan,nan,nan,nan,nan,nan,nan,nan,126,1.0,-0.311411754845,-0.177408431044,nan,nan,nan,nan,nan,nan,nan,nan,2920.59131734,2921.6029504,nan,2922.02332601,nan,nan,nan,nan
1,2,1,1,1.0,1.0,0.262550579617,0,nan,nan,nan,nan,nan,nan,nan,nan,nan,412,0.0618891196837,0.462096609288,-0.571158935758,nan,nan,nan,nan,nan,nan,nan,nan,2920.59131734,2922.54476824,nan,2922.80731882,nan,nan,nan,nan
1,3,1,1,1.0,1.0,0.288747506449,0,nan,nan,nan,nan,nan,nan,nan,nan,nan,277,0.258470646878,0.33263615818,0.624824240443,nan,nan,nan,nan,nan,nan,nan,nan,2920.59131734,2923.48653704,nan,2923.77528455,nan,nan,nan,nan
1,4,0,0,0.0,1.0,0.514934055856,0,nan,nan,nan,nan,nan,nan,nan,nan,nan,133,1.0,-0.306259573676,-0.105336427414,nan,nan,nan,nan,nan,nan,nan,nan,2920.59131734,2924.42833293,nan,2924.94326698,nan,nan,nan,nan
1,5,1,1,1.0,1.0,0.357125853188,0,nan,nan,nan,nan,nan,nan,nan,nan,nan,74,1.0,-0.159715158178,-0.810443278181,nan,nan,nan,nan,nan,nan,nan,nan,2920.59131734,2925.37013052,nan,2925.72725637,nan,nan,nan,nan
1,6,1,1,1.0,1.0,0.367311773007,0,nan,nan,nan,nan,nan,nan,nan,nan,nan,152,1.0,-0.259184487343,0.0830625546756,nan,nan,nan,nan,nan,nan,nan,nan,2920.59131734,2926.31192042,nan,2926.67923219,nan,nan,nan,nan
1,7,0,0,0.0,1.0,0.417479024734,0,nan,nan,nan,nan,nan,nan,nan,nan,nan,358,-0.170583909915,0.474268316859,0.0585874414746,nan,nan,nan,nan,nan,nan,nan,nan,2920.59131734,2927.25371602,nan,2927.67119504,nan,nan,nan,nan
1,8,1,1,1.0,1.0,0.331665044883,1,nan,nan,nan,nan,nan,nan,nan,nan,nan,252,0.524721685615,0.240693665738,0.655694012224,-91.390401264,181.390401264,4.20290126404,258.0,0.459642287315,0.26499291187,0.655490062901,2.15058699902,2920.59131734,2928.19552188,2929.0039272,2928.52718692,2932.19597604,2933.19635892,2930.02901539,2932.18764182
1,9,1,1,1.0,1.0,0.45320016297,0,nan,nan,nan,nan,nan,nan,nan,nan,nan,429,0.177531820842,0.442080780324,-0.901885199234,nan,nan,nan,nan,nan,nan,nan,nan,2920.59131734,2933.33785277,nan,2933.79105294,nan,nan,nan,nan
1,10,1,1,1.0,1.0,0.319380246336,0,nan,nan,nan,nan,nan,nan,nan,nan,nan,75,1.0,-0.164714458691,-0.791355921409,nan,nan,nan,nan,nan,nan,nan,nan,2920.59131734,2934.27965351,nan,2934.59903375,nan,nan,nan,nan
1,11,1,1,1.0,1.0,0.281586743309,0,nan,nan,nan,nan,nan,nan,nan,nan,nan,407,0.0305886347219,0.46645515455,-0.502577406972,nan,nan,nan,nan,nan,nan,nan,nan,2920.59131734,2935.22144141,nan,2935.50302815,nan,nan,nan,nan
1,12,1,1,1.0,1.0,0.323773009703,0,nan,nan,nan,nan,nan,nan,nan,nan,nan,63,1.0,-0.102744642793,-1.0,nan,nan,nan,nan,nan,nan,nan,nan,2920.59131734,2936.16323729,nan,2936.4870103,nan,nan,nan,nan
1,13,0,0,0.0,1.0,0.501947920304,0,nan,nan,nan,nan,nan,nan,nan,nan,nan,186,1.0,-0.0967386681424,0.377881386018,nan,nan,nan,nan,nan,nan,nan,nan,2920.59131734,2937.10502975,nan,2937.60697767,nan,nan,nan,nan
1,14,1,1,1.0,1.0,0.440129638999,0,nan,nan,nan,nan,nan,nan,nan,nan,nan,231,0.749609680972,0.145151270079,0.620821461523,nan,nan,nan,nan,nan,nan,nan,nan,2920.59131734,2938.04682279,nan,2938.48695243,nan,nan,nan,nan
1,15,0,0,1.0,0.0,0.298307354911,0,0.0,0.0,0.0,nan,nan,nan,nan,nan,nan,332,-0.146647089803,0.45205423783,0.302714191958,nan,nan,nan,nan,nan,nan,nan,nan,2920.59131734,2938.98861782,nan,2939.28692517,nan,nan,nan,nan
1,16,1,1,1.0,1.0,0.0845529990038,0,nan,nan,nan,nan,nan,nan,nan,nan,nan,192,1.0,-0.0635997558896,0.421658406928,nan,nan,nan,nan,nan,nan,nan,nan,2920.59131734,2939.93040857,nan,2940.01496157,nan,nan,nan,nan
1,17,1,1,1.0,1.0,0.278685033321,0,nan,nan,nan,nan,nan,nan,nan,nan,nan,473,0.522594813828,0.349396171415,-1.0,nan,nan,nan,nan,nan,nan,nan,nan,2920.59131734,2940.87219961,nan,2941.15088464,nan,nan,nan,nan
1,18,1,1,1.0,1.0,0.312869217596,0,nan,nan,nan,nan,nan,nan,nan,nan,nan,87,1.0,-0.220959007447,-0.612675615602,nan,nan,nan,nan,nan,nan,nan,nan,2920.59131734,2941.81399749,nan,2942.1268667,nan,nan,nan,nan
1,19,1,1,1.0,1.0,0.331054368755,0,nan,nan,nan,nan,nan,nan,nan,nan,nan,250,0.546428449327,0.232286661223,0.654747725831,nan,nan,nan,nan,nan,nan,nan,nan,2920.59131734,2942.75578852,nan,2943.08684289,nan,nan,nan,nan
1,20,1,1,1.0,1.0,0.269221547525,0,nan,nan,nan,nan,nan,nan,nan,nan,nan,435,0.221263830514,0.433027056876,-1.0,nan,nan,nan,nan,nan,nan,nan,nan,2920.59131734,2943.69759809,nan,2943.96681964,nan,nan,nan,nan
1,21,1,1,1.0,1.0,0.375432170345,0,nan,nan,nan,nan,nan,nan,nan,nan,nan,251,0.535576518695,0.236509187076,0.655284151108,nan,nan,nan,nan,nan,nan,nan,nan,2920.59131734,2944.63937345,nan,2945.01480562,nan,nan,nan,nan
1,22,1,1,1.0,1.0,0.329617768526,0,nan,nan,nan,nan,nan,nan,nan,nan,nan,100,1.0,-0.270427092546,-0.457439896749,nan,nan,nan,nan,nan,nan,nan,nan,2920.59131734,2945.58116905,nan,2945.91078682,nan,nan,nan,nan
1,23,1,1,1.0,1.0,0.30779935047,0,nan,nan,nan,nan,nan,nan,nan,nan,nan,68,1.0,-0.129018143495,-0.972903198114,nan,nan,nan,nan,nan,nan,nan,nan,2920.59131734,2946.52296037,nan,2946.83075972,nan,nan,nan,nan
1,24,1,1,1.0,1.0,0.317986125476,0,nan,nan,nan,nan,nan,nan,nan,nan,nan,236,0.697004556276,0.169301754335,0.634065852989,nan,nan,nan,nan,nan,nan,nan,nan,2920.59131734,2947.46474827,nan,2947.7827344,nan,nan,nan,nan
1,25,1,1,1.0,1.0,0.328168053995,0,nan,nan,nan,nan,nan,nan,nan,nan,nan,392,-0.0541067903503,0.475522277549,-0.315549842675,nan,nan,nan,nan,nan,nan,nan,nan,2920.59131734,2948.40654387,nan,2948.73471193,nan,nan,nan,nan
1,26,1,1,1.0,1.0,0.322354085627,0,nan,nan,nan,nan,nan,nan,nan,nan,nan,44,1.0,-0.00106984144607,-1.0,nan,nan,nan,nan,nan,nan,nan,nan,2920.59131734,2949.34833748,nan,2949.67069156,nan,nan,nan,nan
1,27,0,0,0.0,1.0,0.404547912767,0,nan,nan,nan,nan,nan,nan,nan,nan,nan,464,0.448404880525,0.373503555275,-1.0,nan,nan,nan,nan,nan,nan,nan,nan,2920.59131734,2950.29012538,nan,2950.69467329,nan,nan,nan,nan
1,28,1,1,1.0,1.0,0.310734416475,0,nan,nan,nan,nan,nan,nan,nan,nan,nan,293,0.103830259013,0.378659598285,0.564617056734,nan,nan,nan,nan,nan,nan,nan,nan,2920.59131734,2951.23192155,nan,2951.54265596,nan,nan,nan,nan
1,29,1,1,1.0,1.0,0.328912725439,1,nan,nan,nan,nan,nan,nan,nan,nan,nan,434,0.213881816697,0.43461034373,-1.0,156.763838489,293.236161511,-11.9200884888,417.0,0.0945046041228,0.457053563907,-0.645720198395,1.51717719331,2920.59131734,2952.173718,2952.98213102,2952.50263073,2955.54076549,2956.54902188,2954.00722691,2955.53243384
1,30,1,1,1.0,1.0,0.29954780871,0,nan,nan,nan,nan,nan,nan,nan,nan,nan,193,1.0,-0.0580453890011,0.428658791268,nan,nan,nan,nan,nan,nan,nan,nan,2920.59131734,2956.69097816,nan,2956.99052597,nan,nan,nan,nan
1,31,1,1,1.0,1.0,0.237716983189,0,nan,nan,nan,nan,nan,nan,nan,nan,nan,64,1.0,-0.108036866323,-1.0,nan,nan,nan,nan,nan,nan,nan,nan,2920.59131734,2957.63278031,nan,2957.8704973,nan,nan,nan,nan
1,32,1,1,1.0,1.0,0.28792386339,0,nan,nan,nan,nan,nan,nan,nan,nan,nan,129,1.0,-0.310070485259,-0.146368003411,nan,nan,nan,nan,nan,nan,nan,nan,2920.59131734,2958.57456764,nan,2958.86249151,nan,nan,nan,nan
1,33,1,1,1.0,1.0,0.298102085479,1,nan,nan,nan,nan,nan,nan,nan,nan,nan,410,0.0492046846968,0.463921527344,-0.54316189137,153.557637671,296.442362329,8.16111232924,422.0,0.128328379107,0.451313674078,-0.730894888444,1.15872307657,2920.59131734,2959.51636239,2960.32478596,2959.81446447,2962.51670878,2963.52210309,2961.34154477,2962.50837627
1,34,1,1,1.0,1.0,0.251436671359,0,nan,nan,nan,nan,nan,nan,nan,nan,nan,66,1.0,-0.118568705386,-1.0,nan,nan,nan,nan,nan,nan,nan,nan,2920.59131734,2963.66692401,nan,2963.91836068,nan,nan,nan,nan
1,35,1,1,1.0,1.0,0.213658278459,1,nan,nan,nan,nan,nan,nan,nan,nan,nan,508,0.814199817736,0.228638933499,-1.0,100.551809506,349.448190494,-7.73930950619,497.0,0.723174939644,0.271260599794,-1.0,1.25875224196,2920.59131734,2964.60867286,2965.41712864,2964.82233114,2967.71739632,2968.71676198,2966.44225589,2967.70906438
1,36,1,1,1.0,1.0,0.298963646521,0,nan,nan,nan,nan,nan,nan,nan,nan,nan,378,-0.117450136118,0.478670924818,-0.154810124165,nan,nan,nan,nan,nan,nan,nan,nan,2920.59131734,2968.85928303,nan,2969.15824668,nan,nan,nan,nan
1,37,1,1,1.0,1.0,0.285063492367,0,nan,nan,nan,nan,nan,nan,nan,nan,nan,437,0.23613482661,0.429770237144,-1.0,nan,nan,nan,nan,nan,nan,nan,nan,2920.59131734,2969.80115818,nan,2970.08622167,nan,nan,nan,nan
1,38,1,1,1.0,1.0,0.303015149781,0,nan,nan,nan,nan,nan,nan,nan,nan,nan,260,0.438016636947,0.272781976488,0.654406567654,nan,nan,nan,nan,nan,nan,nan,nan,2920.59131734,2970.75119049,nan,2971.05420564,nan,nan,nan,nan
1,39,1,1,1.0,1.0,0.297176662949,0,nan,nan,nan,nan,nan,nan,nan,nan,nan,17,0.981069150956,0.135921910835,-1.0,nan,nan,nan,nan,nan,nan,nan,nan,2920.59131734,2971.69299322,nan,2971.99016988,nan,nan,nan,nan
1,40,1,1,1.0,1.0,0.323355343775,0,nan,nan,nan,nan,nan,nan,nan,nan,nan,420,0.1146601879,0.45369410126,-0.695047497311,nan,nan,nan,nan,nan,nan,nan,nan,2920.59131734,2972.63479338,nan,2972.95814872,nan,nan,nan,nan
1,41,1,1,1.0,1.0,0.301546333707,0,nan,nan,nan,nan,nan,nan,nan,nan,nan,372,-0.138660017671,0.478458869494,-0.0888123791441,nan,nan,nan,nan,nan,nan,nan,nan,2920.59131734,2973.57658584,nan,2973.87813217,nan,nan,nan,nan
1,42,1,1,1.0,1.0,0.271752632223,0,nan,nan,nan,nan,nan,nan,nan,nan,nan,269,0.34171296506,0.305888347675,0.643262349404,nan,nan,nan,nan,nan,nan,nan,nan,2920.59131734,2974.51837574,nan,2974.79012837,nan,nan,nan,nan
1,43,0,0,1.0,0.0,0.313908963581,0,0.0,0.0,0.0,nan,nan,nan,nan,nan,nan,72,1.0,-0.149607777062,-0.853203742106,nan,nan,nan,nan,nan,nan,nan,nan,2920.59131734,2975.46017675,nan,2975.77408572,nan,nan,nan,nan
1,44,1,1,1.0,1.0,0.268125352333,0,nan,nan,nan,nan,nan,nan,nan,nan,nan,197,1.0,-0.035797595552,0.455774741445,nan,nan,nan,nan,nan,nan,nan,nan,2920.59131734,2976.40195696,nan,2976.67008231,nan,nan,nan,nan
1,45,1,1,1.0,1.0,0.326287559001,0,nan,nan,nan,nan,nan,nan,nan,nan,nan,402,0.000724920831492,0.470139955471,-0.437811562499,nan,nan,nan,nan,nan,nan,nan,nan,2920.59131734,2977.34375541,nan,2977.67004297,nan,nan,nan,nan
1,46,1,1,1.0,1.0,0.424476998043,0,nan,nan,nan,nan,nan,nan,nan,nan,nan,130,1.0,-0.309333154106,-0.136071487739,nan,nan,nan,nan,nan,nan,nan,nan,2920.59131734,2978.2855473,nan,2978.7100243,nan,nan,nan,nan
1,47,1,1,1.0,1.0,0.346663960139,0,nan,nan,nan,nan,nan,nan,nan,nan,nan,79,1.0,-0.184296021705,-0.724170777997,nan,nan,nan,nan,nan,nan,nan,nan,2920.59131734,2979.22734176,nan,2979.57400572,nan,nan,nan,nan
1,48,1,1,1.0,1.0,0.316840893705,0,nan,nan,nan,nan,nan,nan,nan,nan,nan,159,1.0,-0.231765974528,0.149055008463,nan,nan,nan,nan,nan,nan,nan,nan,2920.59131734,2980.16913479,nan,2980.48597569,nan,nan,nan,nan
1,49,1,1,1.0,1.0,0.495026923018,0,nan,nan,nan,nan,nan,nan,nan,nan,nan,241,0.64365311028,0.192605941253,0.644254782112,nan,nan,nan,nan,nan,nan,nan,nan,2920.59131734,2981.11093096,nan,2981.60595788,nan,nan,nan,nan
1,50,1,1,1.0,1.0,0.441209013457,0,nan,nan,nan,nan,nan,nan,nan,nan,nan,109,1.0,-0.294638327523,-0.357773695079,nan,nan,nan,nan,nan,nan,nan,nan,2920.59131734,2982.05272713,nan,2982.49393614,nan,nan,nan,nan
1,51,1,1,1.0,1.0,0.355400735629,0,nan,nan,nan,nan,nan,nan,nan,nan,nan,18,0.988682696815,0.131162580546,-1.0,nan,nan,nan,nan,nan,nan,nan,nan,2920.59131734,2982.99451703,nan,2983.34991776,nan,nan,nan,nan
1,52,1,1,1.0,1.0,0.349580780254,0,nan,nan,nan,nan,nan,nan,nan,nan,nan,264,0.394966959701,0.287889713878,0.650717615019,nan,nan,nan,nan,nan,nan,nan,nan,2920.59131734,2983.93630407,nan,2984.28588485,nan,nan,nan,nan
1,53,1,1,1.0,1.0,0.367763650604,0,nan,nan,nan,nan,nan,nan,nan,nan,nan,420,0.1146601879,0.45369410126,-0.695047497311,nan,nan,nan,nan,nan,nan,nan,nan,2920.59131734,2984.8781011,nan,2985.24586475,nan,nan,nan,nan
1,54,1,1,1.0,1.0,0.289955174318,0,nan,nan,nan,nan,nan,nan,nan,nan,nan,19,0.99625917486,0.126374530333,-1.0,nan,nan,nan,nan,nan,nan,nan,nan,2920.59131734,2985.81989356,nan,2986.10984874,nan,nan,nan,nan
1,55,1,1,1.0,1.0,0.324161025812,0,nan,nan,nan,nan,nan,nan,nan,nan,nan,168,1.0,-0.190790017254,0.230361799274,nan,nan,nan,nan,nan,nan,nan,nan,2920.59131734,2986.76167063,nan,2987.08583166,nan,nan,nan,nan
1,56,0,0,0.0,1.0,0.446336469962,0,nan,nan,nan,nan,nan,nan,nan,nan,nan,338,-0.162891363375,0.458928707883,0.250399161362,nan,nan,nan,nan,nan,nan,nan,nan,2920.59131734,2987.70347507,nan,2988.14981154,nan,nan,nan,nan
1,57,1,1,1.0,1.0,0.376500996179,0,nan,nan,nan,nan,nan,nan,nan,nan,nan,465,0.456588679398,0.37096152752,-1.0,nan,nan,nan,nan,nan,nan,nan,nan,2920.59131734,2988.64527124,nan,2989.02177223,nan,nan,nan,nan
1,58,1,1,1.0,1.0,0.290709824185,0,nan,nan,nan,nan,nan,nan,nan,nan,nan,306,-0.00395437407881,0.408974006242,0.494128827808,nan,nan,nan,nan,nan,nan,nan,nan,2920.59131734,2989.58705971,nan,2989.87776953,nan,nan,nan,nan
1,59,1,1,1.0,1.0,0.244891431066,0,nan,nan,nan,nan,nan,nan,nan,nan,nan,492,0.681403316433,0.289222019555,-1.0,nan,nan,nan,nan,nan,nan,nan,nan,2920.59131734,2990.52885559,nan,2990.77374702,nan,nan,nan,nan
1,60,1,1,1.0,1.0,0.33507280075,0,nan,nan,nan,nan,nan,nan,nan,nan,nan,72,1.0,-0.149607777062,-0.853203742106,nan,nan,nan,nan,nan,nan,nan,nan,2920.59131734,2991.47065148,nan,2991.80572428,nan,nan,nan,nan
1,61,1,1,1.0,1.0,0.33724665991,0,nan,nan,nan,nan,nan,nan,nan,nan,nan,473,0.522594813828,0.349396171415,-1.0,nan,nan,nan,nan,nan,nan,nan,nan,2920.59131734,2992.41244109,nan,2992.74968775,nan,nan,nan,nan
1,62,1,1,1.0,1.0,0.291451929719,0,nan,nan,nan,nan,nan,nan,nan,nan,nan,291,0.122027637739,0.373441943191,0.573791926984,nan,nan,nan,nan,nan,nan,nan,nan,2920.59131734,2993.35423298,nan,2993.64568491,nan,nan,nan,nan
1,63,1,1,1.0,1.0,0.397634613211,0,nan,nan,nan,nan,nan,nan,nan,nan,nan,182,1.0,-0.118523835432,0.347089474713,nan,nan,nan,nan,nan,nan,nan,nan,2920.59131734,2994.29602117,nan,2994.69365578,nan,nan,nan,nan
1,64,0,0,0.0,1.0,0.567800028832,0,nan,nan,nan,nan,nan,nan,nan,nan,nan,242,0.632911854383,0.197161183215,0.645921401967,nan,nan,nan,nan,nan,nan,nan,nan,2920.59131734,2995.2378199,nan,2995.80561993,nan,nan,nan,nan
1,65,1,1,1.0,1.0,0.417993053328,0,nan,nan,nan,nan,nan,nan,nan,nan,nan,373,-0.135407706169,0.478559568072,-0.0996974893599,nan,nan,nan,nan,nan,nan,nan,nan,2920.59131734,2996.17961664,nan,2996.5976097,nan,nan,nan,nan
1,66,0,0,0.0,1.0,0.460172477528,0,nan,nan,nan,nan,nan,nan,nan,nan,nan,34,1.0,0.0514419701458,-1.0,nan,nan,nan,nan,nan,nan,nan,nan,2920.59131734,2997.12140027,nan,2997.58157275,nan,nan,nan,nan
1,67,1,1,1.0,1.0,0.366361832246,0,nan,nan,nan,nan,nan,nan,nan,nan,nan,510,0.830554458933,0.220436700166,-1.0,nan,nan,nan,nan,nan,nan,nan,nan,2920.59131734,2998.06319786,nan,2998.42955969,nan,nan,nan,nan
1,68,1,1,1.0,1.0,0.352549487725,0,nan,nan,nan,nan,nan,nan,nan,nan,nan,251,0.535576518695,0.236509187076,0.655284151108,nan,nan,nan,nan,nan,nan,nan,nan,2920.59131734,2999.00499061,nan,2999.3575401,nan,nan,nan,nan
1,69,1,1,1.0,1.0,0.418738580076,0,nan,nan,nan,nan,nan,nan,nan,nan,nan,306,-0.00395437407881,0.408974006242,0.494128827808,nan,nan,nan,nan,nan,nan,nan,nan,2920.59131734,2999.94678222,nan,3000.3655208,nan,nan,nan,nan
1,70,1,1,1.0,1.0,0.372935011983,0,nan,nan,nan,nan,nan,nan,nan,nan,nan,241,0.64365311028,0.192605941253,0.644254782112,nan,nan,nan,nan,nan,nan,nan,nan,2920.59131734,3000.88856584,nan,3001.26150086,nan,nan,nan,nan
1,71,1,1,1.0,1.0,0.41510958958,0,nan,nan,nan,nan,nan,nan,nan,nan,nan,103,1.0,-0.279537473278,-0.423758835275,nan,nan,nan,nan,nan,nan,nan,nan,2920.59131734,3001.83037484,nan,3002.24548443,nan,nan,nan,nan
1,72,1,1,1.0,1.0,0.377298125532,0,nan,nan,nan,nan,nan,nan,nan,nan,nan,14,0.95801504718,0.150023555696,-1.0,nan,nan,nan,nan,nan,nan,nan,nan,2920.59131734,3002.77216274,nan,3003.14946087,nan,nan,nan,nan
1,73,1,1,1.0,1.0,0.315485546016,0,nan,nan,nan,nan,nan,nan,nan,nan,nan,375,-0.128556699755,0.478682433309,-0.121605159467,nan,nan,nan,nan,nan,nan,nan,nan,2920.59131734,3003.71395435,nan,3004.0294399,nan,nan,nan,nan
1,74,1,1,1.0,1.0,0.317668243195,0,nan,nan,nan,nan,nan,nan,nan,nan,nan,257,0.470472903111,0.261039853404,0.655841377839,nan,nan,nan,nan,nan,nan,nan,nan,2920.59131734,3004.65574767,nan,3004.97341591,nan,nan,nan,nan
1,75,1,1,1.0,1.0,0.319841532037,0,nan,nan,nan,nan,nan,nan,nan,nan,nan,414,0.0747837862165,0.460162189034,-0.600089175003,nan,nan,nan,nan,nan,nan,nan,nan,2920.59131734,3005.5975407,nan,3005.91738223,nan,nan,nan,nan
1,76,1,1,1.0,1.0,0.33803038951,0,nan,nan,nan,nan,nan,nan,nan,nan,nan,139,1.0,-0.296335611021,-0.0445992895203,nan,nan,nan,nan,nan,nan,nan,nan,2920.59131734,3006.53933003,nan,3006.87736042,nan,nan,nan,nan
1,77,1,1,1.0,1.0,0.260214785812,0,nan,nan,nan,nan,nan,nan,nan,nan,nan,1,0.854939129564,0.207877072944,-1.0,nan,nan,nan,nan,nan,nan,nan,nan,2920.59131734,3007.48112734,nan,3007.74134212,nan,nan,nan,nan
1,78,1,1,1.0,1.0,0.286402589525,0,nan,nan,nan,nan,nan,nan,nan,nan,nan,319,-0.0891891826932,0.433308674125,0.406137099325,nan,nan,nan,nan,nan,nan,nan,nan,2920.59131734,3008.42291895,nan,3008.70932154,nan,nan,nan,nan
1,79,1,1,1.0,1.0,0.336597780813,0,nan,nan,nan,nan,nan,nan,nan,nan,nan,494,0.698129958021,0.282143999684,-1.0,nan,nan,nan,nan,nan,nan,nan,nan,2920.59131734,3009.36471198,nan,3009.70130976,nan,nan,nan,nan
1,80,1,1,1.0,1.0,0.282778445631,0,nan,nan,nan,nan,nan,nan,nan,nan,nan,339,-0.164955840019,0.45996923152,0.241423096872,nan,nan,nan,nan,nan,nan,nan,nan,2920.59131734,3010.30649874,nan,3010.58927719,nan,nan,nan,nan
1,81,1,1,1.0,1.0,0.300965022412,0,0.0,0.0,0.0,0.338686656234,0.0732210672807,0.265465588954,0.411907723515,0.0732210672807,0.306780416286,155,1.0,-0.2479831371,0.111611878621,nan,nan,nan,nan,nan,nan,nan,nan,2920.59131734,3011.24829348,nan,3011.54925851,nan,nan,nan,nan
1,82,1,1,1.0,1.0,0.319160437095,0,0.0,0.0,0.0,0.338220957052,0.0728867996162,0.265334157435,0.411107756668,0.0728867996162,0.300967968379,442,0.273907262724,0.421095538958,-1.0,nan,nan,nan,nan,nan,nan,nan,nan,2920.59131734,3012.19008395,nan,3012.50924439,nan,nan,nan,nan
1,83,1,1,1.0,1.0,0.305301907007,0,0.0,0.0,0.0,0.337988511686,0.0724712056456,0.265517306041,0.410459717332,0.0724712056456,0.308475788838,306,-0.00395437407881,0.408974006242,0.494128827808,nan,nan,nan,nan,nan,nan,nan,nan,2920.59131734,3013.13191889,nan,3013.4372208,nan,nan,nan,nan
1,84,1,1,1.0,1.0,0.331491421326,0,0.0,0.0,0.0,0.337594697172,0.0721215293608,0.265473167811,0.409716226533,0.0721215293608,0.318651255143,41,1.0,0.0148395037771,-1.0,nan,nan,nan,nan,nan,nan,nan,nan,2920.59131734,3014.07370395,nan,3014.40519537,nan,nan,nan,nan
1,85,1,1,1.0,1.0,0.309706074302,0,0.0,0.0,0.0,0.337522039126,0.0716940051375,0.265828033989,0.409216044264,0.0716940051375,0.315499800878,414,0.0747837862165,0.460162189034,-0.600089175003,nan,nan,nan,nan,nan,nan,nan,nan,2920.59131734,3015.01546647,nan,3015.32517255,nan,nan,nan,nan
1,86,1,1,1.0,1.0,0.327899493277,0,0.0,0.0,0.0,0.337194792481,0.0713341083767,0.265860684104,0.408528900858,0.0713341083767,0.323032329635,130,1.0,-0.309333154106,-0.136071487739,nan,nan,nan,nan,nan,nan,nan,nan,2920.59131734,3015.95725808,nan,3016.28515757,nan,nan,nan,nan
1,87,1,1,1.0,1.0,0.322094647912,0,0.0,0.0,0.0,0.337086707607,0.0709251631821,0.266161544425,0.408011870789,0.0709251631821,0.31990007183,291,0.122027637739,0.373441943191,0.573791926984,nan,nan,nan,nan,nan,nan,nan,nan,2920.59131734,3016.89904798,nan,3017.22114263,nan,nan,nan,nan
1,88,1,1,1.0,1.0,0.316260437714,0,0.0,0.0,0.0,0.336914385082,0.0705344745588,0.266379910523,0.40744885964,0.0705344745588,0.322084859634,397,-0.0275613476434,0.473159987783,-0.37569455347,nan,nan,nan,nan,nan,nan,nan,nan,2920.59131734,3017.84084415,nan,3018.15710459,nan,nan,nan,nan
1,89,1,1,1.0,1.0,0.318438858376,0,0.0,0.0,0.0,0.336679681134,0.0701667244036,0.266512956731,0.406846405538,0.0701667244036,0.318931314667,471,0.506014005179,0.354993781952,-1.0,nan,nan,nan,nan,nan,nan,nan,nan,2920.59131734,3018.78264545,nan,3019.10108431,nan,nan,nan,nan
1,90,1,1,1.0,1.0,0.320626402157,0,0.0,0.0,0.0,0.336474728069,0.0697979008645,0.266676827205,0.406272628934,0.0697979008645,0.318441899416,223,0.83172397378,0.104890589731,0.593432239612,nan,nan,nan,nan,nan,nan,nan,nan,2920.59131734,3019.72442907,nan,3020.04505548,nan,nan,nan,nan
1,91,1,1,1.0,1.0,0.314798749168,0,0.0,0.0,0.0,0.336298635559,0.0694289291735,0.266869706386,0.405727564733,0.0694289291735,0.317954669901,32,1.0,0.061735800531,-1.0,nan,nan,nan,nan,nan,nan,nan,nan,2920.59131734,3020.66623608,nan,3020.98103483,nan,nan,nan,nan
1,92,1,1,1.0,1.0,0.309004452312,0,0.0,0.0,0.0,0.336062373071,0.0690827680088,0.266979605063,0.40514514108,0.0690827680088,0.314809867879,327,-0.128086156831,0.445480682368,0.344176439252,nan,nan,nan,nan,nan,nan,nan,nan,2920.59131734,3021.60801542,nan,3021.91701988,nan,nan,nan,nan
1,93,1,1,1.0,1.0,0.279185092193,0,0.0,0.0,0.0,0.335768265237,0.0687635518014,0.267004713436,0.404531817039,0.0687635518014,0.300996097891,178,1.0,-0.139919655122,0.315097826042,nan,nan,nan,nan,nan,nan,nan,nan,2920.59131734,3022.54980817,nan,3022.82899327,nan,nan,nan,nan
1,94,1,1,1.0,1.0,0.297357699252,0,0.0,0.0,0.0,0.335159844022,0.0686413795896,0.266518464432,0.403801223611,0.0686413795896,0.295182414586,458,0.399688045963,0.388050214986,-1.0,nan,nan,nan,nan,nan,nan,nan,nan,2920.59131734,3023.49161318,nan,3023.78897088,nan,nan,nan,nan
1,95,0,0,0.0,1.0,0.467555615818,0,0.0,0.0,0.0,0.334757693545,0.068385346372,0.266372347173,0.403143039917,0.068385346372,0.348032802421,80,1.0,-0.189075709245,-0.708965549488,nan,nan,nan,nan,nan,nan,nan,nan,2920.59131734,3024.43339281,nan,3024.90094843,nan,nan,nan,nan
1,96,1,1,1.0,1.0,0.429753844975,0,0.0,0.0,0.0,0.336155566411,0.0693614392947,0.266794127117,0.405517005706,0.0693614392947,0.398222386682,392,-0.0541067903503,0.475522277549,-0.315549842675,nan,nan,nan,nan,nan,nan,nan,nan,2920.59131734,3025.37518072,nan,3025.80493456,nan,nan,nan,nan
1,97,1,1,1.0,1.0,0.36793128727,0,0.0,0.0,0.0,0.33713054848,0.0696505609054,0.267479987574,0.406781109385,0.0696505609054,0.421746916021,26,1.0,0.0920921692153,-1.0,nan,nan,nan,nan,nan,nan,nan,nan,2920.59131734,3026.31697574,nan,3026.68490703,nan,nan,nan,nan
1,98,1,1,1.0,1.0,0.306128401076,0,0.0,0.0,0.0,0.337448081869,0.0693604187725,0.268087663097,0.406808500642,0.0693604187725,0.367937844441,198,1.0,-0.0302354974571,0.462326941081,nan,nan,nan,nan,nan,nan,nan,nan,2920.59131734,3027.25877248,nan,3027.56490088,nan,nan,nan,nan
1,99,1,1,1.0,1.0,0.252298232284,0,0.0,0.0,0.0,0.33712849329,0.0690773803866,0.268051112903,0.406205873676,0.0690773803866,0.308785973544,429,0.177531820842,0.442080780324,-0.901885199234,nan,nan,nan,nan,nan,nan,nan,nan,2920.59131734,3028.2005658,nan,3028.45286403,nan,nan,nan,nan
1,100,1,1,1.0,1.0,0.302472041338,0,0.0,0.0,0.0,0.336271621967,0.0692491157884,0.267022506178,0.405520737755,0.0692491157884,0.2869662249,263,0.405698801511,0.284171736334,0.651829885785,nan,nan,nan,nan,nan,nan,nan,nan,2920.59131734,3029.14237109,nan,3029.44484314,nan,nan,nan,nan
1,101,1,1,1.0,1.0,0.296676033991,0,0.0,0.0,0.0,0.33593362616,0.0689840236028,0.266949602557,0.404917649763,0.0689840236028,0.283815435871,91,1.0,-0.237709898716,-0.562722318432,nan,nan,nan,nan,nan,nan,nan,nan,2920.59131734,3030.08415386,nan,3030.3808299,nan,nan,nan,nan
1,102,1,1,1.0,1.0,0.298823664198,0,0.0,0.0,0.0,0.335544937129,0.0687516301007,0.266793307028,0.40429656723,0.0687516301007,0.299323913176,298,0.0600896634305,0.391050340636,0.53969689008,nan,nan,nan,nan,nan,nan,nan,nan,2920.59131734,3031.02596799,nan,3031.32479166,nan,nan,nan,nan
1,103,1,1,1.0,1.0,0.341036444646,0,0.0,0.0,0.0,0.335184924649,0.0685093869739,0.266675537675,0.403694311623,0.0685093869739,0.312178714278,340,-0.166837174664,0.460980112934,0.232376404312,nan,nan,nan,nan,nan,nan,nan,nan,2920.59131734,3031.96773822,nan,3032.30877466,nan,nan,nan,nan
1,104,1,1,1.0,1.0,0.327222674736,0,0.0,0.0,0.0,0.335241735523,0.068178420298,0.267063315225,0.403420155821,0.068178420298,0.32236092786,476,0.547545041103,0.340739382997,-1.0,nan,nan,nan,nan,nan,nan,nan,nan,2920.59131734,3032.90953097,nan,3033.23675364,nan,nan,nan,nan
1,105,1,1,1.0,1.0,0.297416714136,0,0.0,0.0,0.0,0.335164629169,0.0678543602584,0.267310268911,0.403018989428,0.0678543602584,0.321891944506,337,-0.160643365934,0.457858386897,0.259303564052,nan,nan,nan,nan,nan,nan,nan,nan,2920.59131734,3033.85132258,nan,3034.14873929,nan,nan,nan,nan
1,106,1,1,1.0,1.0,0.371600761428,0,0.0,0.0,0.0,0.334805125217,0.0676299181468,0.26717520707,0.402435043363,0.0676299181468,0.3320800501,79,1.0,-0.184296021705,-0.724170777997,nan,nan,nan,nan,nan,nan,nan,nan,2920.59131734,3034.79312131,nan,3035.16472207,nan,nan,nan,nan
1,107,1,1,1.0,1.0,0.325775811099,0,0.0,0.0,0.0,0.33515225386,0.0674040728587,0.267748181001,0.402556326719,0.0674040728587,0.331597762221,11,0.934659501434,0.163852895862,-1.0,nan,nan,nan,nan,nan,nan,nan,nan,2920.59131734,3035.73491235,nan,3036.06068816,nan,nan,nan,nan
1,108,1,1,1.0,1.0,0.327975899098,0,0.0,0.0,0.0,0.335064623554,0.0670944273937,0.26797019616,0.402159050948,0.0670944273937,0.341784157208,351,-0.175686286722,0.4701852659,0.128489978773,nan,nan,nan,nan,nan,nan,nan,nan,2920.59131734,3036.6767031,nan,3037.004679,nan,nan,nan,nan
1,109,1,1,1.0,1.0,0.354155434994,0,0.0,0.0,0.0,0.334998987216,0.0667865338207,0.268212453396,0.401785521037,0.0667865338207,0.335969048397,186,1.0,-0.0967386681424,0.377881386018,nan,nan,nan,nan,nan,nan,nan,nan,2920.59131734,3037.61849727,nan,3037.97265271,nan,nan,nan,nan
1,110,1,1,1.0,1.0,0.308337897295,0,0.0,0.0,0.0,0.335174734444,0.0665045519291,0.268670182514,0.401679286373,0.0665045519291,0.330156410462,308,-0.0186828559465,0.413097475488,0.481682330771,nan,nan,nan,nan,nan,nan,nan,nan,2920.59131734,3038.56029202,nan,3038.86862992,nan,nan,nan,nan
1,111,1,1,1.0,1.0,0.302520792815,0,0.0,0.0,0.0,0.334930763197,0.0662505512832,0.268680211914,0.40118131448,0.0662505512832,0.321671375035,220,0.861731547614,0.0893272636146,0.581247684387,nan,nan,nan,nan,nan,nan,nan,nan,2920.59131734,3039.50208078,nan,3039.80460157,nan,nan,nan,nan
1,112,1,1,1.0,1.0,0.288713009912,0,0.0,0.0,0.0,0.334638781482,0.0660225086549,0.268616272827,0.400661290137,0.0660225086549,0.299857233341,320,-0.0946500390753,0.43494401576,0.398701238857,nan,nan,nan,nan,nan,nan,nan,nan,2920.59131734,3040.44387694,nan,3040.73258995,nan,nan,nan,nan
1,113,1,1,1.0,1.0,0.322897193953,0,0.0,0.0,0.0,0.33422872995,0.0658689308406,0.268359799109,0.40009766079,0.0658689308406,0.304710332227,184,1.0,-0.107671891867,0.362640045218,nan,nan,nan,nan,nan,nan,nan,nan,2920.59131734,3041.38567539,nan,3041.70857259,nan,nan,nan,nan
1,114,1,1,1.0,1.0,0.325076184818,0,0.0,0.0,0.0,0.33412845087,0.0655854144832,0.268543036387,0.399713865353,0.0655854144832,0.312228796228,400,-0.0107874812989,0.471427301814,-0.412692688905,nan,nan,nan,nan,nan,nan,nan,nan,2920.59131734,3042.32745902,nan,3042.6525352,nan,nan,nan,nan
1,115,1,1,1.0,1.0,0.319265352446,0,0.0,0.0,0.0,0.334049045028,0.0653025811343,0.268746463893,0.399351626162,0.0653025811343,0.322412910406,285,0.178734351563,0.356878681702,0.598527012995,nan,nan,nan,nan,nan,nan,nan,nan,2920.59131734,3043.2692435,nan,3043.58850885,nan,nan,nan,nan
1,116,1,1,1.0,1.0,0.337453354616,0,0.0,0.0,0.0,0.333920491179,0.0650325234208,0.268887967758,0.3989530146,0.0650325234208,0.32726496396,367,-0.15309091083,0.477560897992,-0.0350816338538,nan,nan,nan,nan,nan,nan,nan,nan,2920.59131734,3044.21103454,nan,3044.54848789,nan,nan,nan,nan
1,117,1,1,1.0,1.0,0.331646798761,0,0.0,0.0,0.0,0.333950946898,0.0647524277479,0.26919851915,0.398703374646,0.0647524277479,0.329455168607,219,0.871627318206,0.0840881726889,0.576959667802,nan,nan,nan,nan,nan,nan,nan,nan,2920.59131734,3045.15282729,nan,3045.48447408,nan,nan,nan,nan
1,118,1,1,1.0,1.0,0.365828132024,0,0.0,0.0,0.0,0.333931253325,0.0644754630354,0.269455790289,0.39840671636,0.0644754630354,0.344976095133,288,0.150005133015,0.365331945294,0.586687239957,nan,nan,nan,nan,nan,nan,nan,nan,2920.59131734,3046.09463229,nan,3046.46046042,nan,nan,nan,nan
1,119,1,1,1.0,1.0,0.392001110828,0,0.0,0.0,0.0,0.334201565856,0.0642682258512,0.269933340005,0.398469791707,0.0642682258512,0.363158680537,195,1.0,-0.0469245268387,0.442396054288,nan,nan,nan,nan,nan,nan,nan,nan,2920.59131734,3047.0364259,nan,3047.42842701,nan,nan,nan,nan
1,120,1,1,1.0,1.0,0.490183992661,0,0.0,1.0,0.0,0.334687276318,0.0642147451806,0.270472531137,0.398902021498,0.0642147451806,0.416004411837,151,1.0,-0.262720288689,0.0734626651272,nan,nan,nan,nan,nan,nan,nan,nan,2920.59131734,3047.97821693,nan,3048.46840093,nan,nan,nan,nan
1,121,1,1,1.0,1.0,0.436389746028,1,0.0,0.0,1.0,0.335983082287,0.0654903441709,0.270492738116,0.401473426458,0.0654903441709,0.439524949839,376,-0.124962824795,0.478704673615,-0.132627625282,-152.700427789,242.700427789,-21.6745722113,345.0,-0.173519535469,0.465595146217,0.186119282857,1.89226069092,2920.59131734,3048.92000797,3049.72843325,3049.35639772,3052.66212071,3053.67245716,3050.75352172,3052.65380103
1,122,1,1,1.0,1.0,0.367950958898,0,0.0,0.0,0.0,0.336812889426,0.0658495907925,0.270963298633,0.402662480218,0.0658495907925,0.431508232529,69,1.0,-0.134207199312,-0.939648005704,nan,nan,nan,nan,nan,nan,nan,nan,2920.59131734,3053.81232568,nan,3054.18027664,nan,nan,nan,nan
1,123,0,0,1.0,0.0,0.282111320412,0,0.0,0.0,0.0,0.337068119503,0.0656392296679,0.271428889835,0.402707349171,0.0656392296679,0.362150675113,159,1.0,-0.231765974528,0.149055008463,nan,nan,nan,nan,nan,nan,nan,nan,2920.59131734,3054.75413497,nan,3055.03624629,nan,nan,nan,nan
1,124,1,1,1.0,1.0,0.196319292998,0,0.0,0.0,0.0,0.336621316259,0.0655578766454,0.271063439613,0.402179192904,0.0655578766454,0.282127190769,408,0.036737934283,0.465637664749,-0.515938449969,nan,nan,nan,nan,nan,nan,nan,nan,2920.59131734,3055.69591346,nan,3055.89223275,nan,nan,nan,nan
1,125,1,1,1.0,1.0,0.214496746659,0,0.0,0.0,0.0,0.335489848329,0.0664879105487,0.26900193778,0.401977758878,0.0664879105487,0.23097578669,87,1.0,-0.220959007447,-0.612675615602,nan,nan,nan,nan,nan,nan,nan,nan,2920.59131734,3056.63770934,nan,3056.85220609,nan,nan,nan,nan
1,126,1,1,1.0,1.0,0.21667488222,0,1.0,0.0,0.0,0.334521903516,0.0670928821798,0.267429021336,0.401614785696,0.0670928821798,0.209163640626,189,1.0,-0.0802194643608,0.400143472992,nan,nan,nan,nan,nan,nan,nan,nan,2920.59131734,3057.57950238,nan,3057.79617726,nan,nan,nan,nan
1,127,1,1,1.0,1.0,0.186883461429,1,0.0,0.0,1.0,0.333586609696,0.067639306792,0.265947302904,0.401225916488,0.067639306792,0.206018363436,497,0.723174939644,0.271260599794,-1.0,111.750206837,338.249793163,-11.2033318373,481.0,0.589289488337,0.325611856148,-1.0,1.39220523974,2920.59131734,3058.52129199,3059.32971527,3058.70817545,3061.75508434,3062.75146931,3060.34650089,3061.74677349
1,128,1,1,1.0,1.0,0.331175249536,0,0.0,0.0,0.0,0.332431466796,0.0686088940969,0.263822572699,0.401040360893,0.0686088940969,0.244911197728,128,1.0,-0.310663006781,-0.156689791083,nan,nan,nan,nan,nan,nan,nan,nan,2920.59131734,3062.8968784,nan,3063.22805364,nan,nan,nan,nan
1,129,1,1,1.0,1.0,0.269377209945,0,0.0,0.0,0.0,0.332421652599,0.0683404546017,0.264081197997,0.400762107201,0.0683404546017,0.262478640303,262,0.416452475899,0.2804144186,0.652815538838,nan,nan,nan,nan,nan,nan,nan,nan,2920.59131734,3063.8386663,nan,3064.10804351,nan,nan,nan,nan
1,130,1,1,1.0,1.0,0.279561989475,0,0.0,0.0,0.0,0.331932935989,0.0682992311001,0.263633704889,0.400232167089,0.0682992311001,0.293371482985,395,-0.0383984177995,0.474183508328,-0.351427224487,nan,nan,nan,nan,nan,nan,nan,nan,2920.59131734,3064.78046076,nan,3065.06002274,nan,nan,nan,nan
1,131,1,1,1.0,1.0,0.321740843588,0,0.0,0.0,0.0,0.331530082554,0.068189717204,0.26334036535,0.399719799758,0.068189717204,0.290226681003,72,1.0,-0.149607777062,-0.853203742106,nan,nan,nan,nan,nan,nan,nan,nan,2920.59131734,3065.72225978,nan,3066.04400062,nan,nan,nan,nan
1,132,1,1,1.0,1.0,0.331921916688,0,0.0,0.0,0.0,0.331455355539,0.0679342956529,0.263521059887,0.399389651192,0.0679342956529,0.311074916584,251,0.535576518695,0.236509187076,0.655284151108,nan,nan,nan,nan,nan,nan,nan,nan,2920.59131734,3066.66405423,nan,3066.99597615,nan,nan,nan,nan
1,133,1,1,1.0,1.0,0.334098911844,0,0.0,0.0,0.0,0.331458890094,0.0676764916503,0.263782398443,0.399135381744,0.0676764916503,0.329253890707,100,1.0,-0.270427092546,-0.457439896749,nan,nan,nan,nan,nan,nan,nan,nan,2920.59131734,3067.60585012,nan,3067.93994903,nan,nan,nan,nan
1,134,1,1,1.0,1.0,0.376282897661,0,0.0,0.0,0.0,0.331478739881,0.0674219744096,0.264056765472,0.398900714291,0.0674219744096,0.347434575398,165,1.0,-0.205056383665,0.203745440608,nan,nan,nan,nan,nan,nan,nan,nan,2920.59131734,3068.54763802,nan,3068.92392092,nan,nan,nan,nan
1,135,0,0,0.0,1.0,0.506468121777,0,0.0,0.0,0.0,0.331813099268,0.0672805189082,0.264532580359,0.399093618176,0.0672805189082,0.405616643761,499,0.739831889234,0.263827757734,-1.0,nan,nan,nan,nan,nan,nan,nan,nan,2920.59131734,3069.48943077,nan,3069.99589889,nan,nan,nan,nan
1,136,1,1,1.0,1.0,0.34865849372,0,0.0,0.0,0.0,0.333106840175,0.0686834909611,0.264423349214,0.401790331136,0.0686834909611,0.41046983772,180,1.0,-0.129278616986,0.331238955499,nan,nan,nan,nan,nan,nan,nan,nan,2920.59131734,3070.4312315,nan,3070.77988999,nan,nan,nan,nan
1,137,1,1,1.0,1.0,0.29489019094,0,0.0,0.0,0.0,0.333221190569,0.068443409225,0.264777781344,0.401664599794,0.068443409225,0.383338935479,238,0.675741828754,0.178727669763,0.638511091232,nan,nan,nan,nan,nan,nan,nan,nan,2920.59131734,3071.37297892,nan,3071.66786911,nan,nan,nan,nan
1,138,1,1,1.0,1.0,0.281043919967,0,0.0,0.0,0.0,0.33294140225,0.0682711734055,0.264670228845,0.401212575656,0.0682711734055,0.308197534876,10,0.926811495151,0.168400576072,-1.0,nan,nan,nan,nan,nan,nan,nan,nan,2920.59131734,3072.31481072,nan,3072.59585464,nan,nan,nan,nan
1,139,1,1,1.0,1.0,0.267231860547,0,0.0,0.0,0.0,0.332565333538,0.0681656342098,0.264399699328,0.400730967748,0.0681656342098,0.281055323818,432,0.199227897075,0.437687328843,-1.0,nan,nan,nan,nan,nan,nan,nan,nan,2920.59131734,3073.25660176,nan,3073.52383362,nan,nan,nan,nan
1,140,1,1,1.0,1.0,0.269418549025,0,0.0,0.0,0.0,0.332095308553,0.0681440583224,0.26395125023,0.400239366875,0.0681440583224,0.272564776513,29,1.0,0.0770173926463,-1.0,nan,nan,nan,nan,nan,nan,nan,nan,2920.59131734,3074.19839593,nan,3074.46781448,nan,nan,nan,nan
1,141,1,1,1.0,1.0,0.295587536413,0,0.0,0.0,0.0,0.331647617413,0.0681050910369,0.263542526376,0.39975270845,0.0681050910369,0.277412648662,84,1.0,-0.20765784414,-0.652191087791,nan,nan,nan,nan,nan,nan,nan,nan,2920.59131734,3075.14018897,nan,3075.4357765,nan,nan,nan,nan
1,142,1,1,1.0,1.0,0.305770320119,0,0.0,0.0,0.0,0.331391872158,0.067930585491,0.263461286667,0.399322457649,0.067930585491,0.290258801853,221,0.851781464038,0.0945411604707,0.585422935822,nan,nan,nan,nan,nan,nan,nan,nan,2920.59131734,3076.08197801,nan,3076.38774833,nan,nan,nan,nan
1,143,1,1,1.0,1.0,0.339957355289,0,0.0,0.0,0.0,0.331211438693,0.0677248694471,0.263486569246,0.39893630814,0.0677248694471,0.313771737274,455,0.375608248681,0.394875365091,-1.0,nan,nan,nan,nan,nan,nan,nan,nan,2920.59131734,3077.02377133,nan,3077.36372868,nan,nan,nan,nan
1,144,1,1,1.0,1.0,0.350141564617,0,0.0,0.0,0.0,0.331272598949,0.0674915889018,0.263781010047,0.39876418785,0.0674915889018,0.331956413342,203,1.0,-0.00249325098487,0.493674673203,nan,nan,nan,nan,nan,nan,nan,nan,2920.59131734,3077.96556864,nan,3078.3157102,nan,nan,nan,nan
1,145,0,0,0.0,1.0,0.520327507285,0,0.0,0.0,0.0,0.331403633432,0.0672750856375,0.264128547795,0.39867871907,0.0672750856375,0.40347547573,142,1.0,-0.289568116499,-0.0146273521697,nan,nan,nan,nan,nan,nan,nan,nan,2920.59131734,3078.90735939,nan,3079.4276869,nan,nan,nan,nan
1,146,1,1,1.0,1.0,0.442528153886,0,0.0,0.0,0.0,0.3327065567,0.0688416987731,0.263864857927,0.401548255474,0.0688416987731,0.437665741929,189,1.0,-0.0802194643608,0.400143472992,nan,nan,nan,nan,nan,nan,nan,nan,2920.59131734,3079.84914758,nan,3080.29167573,nan,nan,nan,nan
1,147,1,1,1.0,1.0,0.372701518238,0,0.0,0.0,0.0,0.333458759421,0.0692008789808,0.26425788044,0.402659638402,0.0692008789808,0.44518572647,476,0.547545041103,0.340739382997,-1.0,nan,nan,nan,nan,nan,nan,nan,nan,2920.59131734,3080.79094489,nan,3081.1636464,nan,nan,nan,nan
1,148,1,1,1.0,1.0,0.334929112345,0,0.0,0.0,0.0,0.333725716964,0.0690404948272,0.264685222137,0.402766211791,0.0690404948272,0.38338626149,258,0.459642287315,0.26499291187,0.655490062901,nan,nan,nan,nan,nan,nan,nan,nan,2920.59131734,3081.73270029,nan,3082.0676294,nan,nan,nan,nan
1,149,1,1,1.0,1.0,0.329075230402,0,0.0,0.0,0.0,0.333733848014,0.0688069252041,0.26492692281,0.402540773218,0.0688069252041,0.345568620328,461,0.423959648591,0.380927367285,-1.0,nan,nan,nan,nan,nan,nan,nan,nan,2920.59131734,3082.67453352,nan,3083.00360875,nan,nan,nan,nan
1,150,0,0,0.0,1.0,0.491247971891,0,0.0,0.0,0.0,0.333702582124,0.0685766956403,0.265125886483,0.402279277764,0.0685766956403,0.385084104879,124,1.0,-0.311577186586,-0.198226518473,nan,nan,nan,nan,nan,nan,nan,nan,2920.59131734,3083.61633083,nan,3084.1075788,nan,nan,nan,nan
1,151,1,1,1.0,1.0,0.445425017271,0,0.0,0.0,0.0,0.334752884722,0.0695397629208,0.265213121801,0.404292647643,0.0695397629208,0.421916073188,357,-0.1717918326,0.473767524415,0.068739031695,nan,nan,nan,nan,nan,nan,nan,nan,2920.59131734,3084.55812215,nan,3085.00354717,nan,nan,nan,nan
1,152,1,1,1.0,1.0,0.423619428417,0,0.0,0.0,0.0,0.335485812752,0.0698879898671,0.265597822885,0.405373802619,0.0698879898671,0.45343080586,80,1.0,-0.189075709245,-0.708965549488,nan,nan,nan,nan,nan,nan,nan,nan,2920.59131734,3085.49990948,nan,3085.92352891,nan,nan,nan,nan
1,153,1,1,1.0,1.0,0.601756421151,0,0.0,1.0,0.0,0.336065639171,0.0700211637315,0.26604447544,0.406086802903,0.0700211637315,0.490266955613,193,1.0,-0.0580453890011,0.428658791268,nan,nan,nan,nan,nan,nan,nan,nan,2920.59131734,3086.44170337,nan,3087.04345979,nan,nan,nan,nan
1,154,1,1,1.0,1.0,0.531983098364,1,0.0,0.0,1.0,0.33780218023,0.0730019536387,0.264800226591,0.410804133869,0.0730019536387,0.519119649311,24,1.0,0.102019060141,-1.0,83.1135726686,6.88642733143,-9.98857266857,10.0,0.926811495151,0.168400576072,-1.0,1.22545271157,2920.59131734,3087.38349441,3088.19190914,3087.91547751,3090.45050885,3091.45481865,3089.2086728,3090.44217378
1,155,1,1,1.0,1.0,0.234993743594,0,0.0,0.0,0.0,0.339063095283,0.0744173045915,0.264645790691,0.413480399874,0.0744173045915,0.456244421036,423,0.135229581944,0.450080889006,-0.750039916123,nan,nan,nan,nan,nan,nan,nan,nan,2920.59131734,3091.59239614,nan,3091.82738988,nan,nan,nan,nan
1,156,1,1,1.0,1.0,0.229182626121,0,0.0,0.0,0.0,0.33839168011,0.0746433490116,0.263748331099,0.413035029122,0.0746433490116,0.332053156026,368,-0.150457169737,0.477793263397,-0.0457341785459,nan,nan,nan,nan,nan,nan,nan,nan,2920.59131734,3092.53418205,nan,3092.76336467,nan,nan,nan,nan
1,157,1,1,1.0,1.0,0.191395110101,0,1.0,0.0,0.0,0.337691622072,0.0749124593941,0.262779162678,0.412604081466,0.0749124593941,0.218523826605,168,1.0,-0.190790017254,0.230361799274,nan,nan,nan,nan,nan,nan,nan,nan,2920.59131734,3093.47597536,nan,3093.66737047,nan,nan,nan,nan
1,158,1,1,1.0,1.0,0.145581848803,1,0.0,0.0,1.0,0.336759797155,0.0755750393527,0.261184757802,0.412334836508,0.0755750393527,0.188719861675,211,0.948675772315,0.0413606888024,0.538689155053,-47.2259238951,137.225923895,-11.1334511049,195.0,1.0,-0.0469245268387,0.442396054288,1.08375957597,2920.59131734,3094.41776897,3095.2261894,3094.56335082,3097.34318522,3098.34991605,3096.2429639,3097.33477117
1,159,1,1,1.0,1.0,0.30193178379,0,0.0,0.0,0.0,0.33554981014,0.0768459241438,0.258703885996,0.412395734284,0.0768459241438,0.212969580898,33,1.0,0.0565990290419,-1.0,nan,nan,nan,nan,nan,nan,nan,nan,2920.59131734,3098.49331549,nan,3098.79524727,nan,nan,nan,nan
1,160,0,0,1.0,0.0,0.20815335447,0,0.0,0.0,0.0,0.335338376012,0.0766499779806,0.258688398032,0.411988353993,0.0766499779806,0.218555662354,345,-0.173519535469,0.465595146217,0.186119282857,nan,nan,nan,nan,nan,nan,nan,nan,2920.59131734,3099.43506604,nan,3099.6432194,nan,nan,nan,nan
1,161,1,1,1.0,1.0,0.08230615512,0,0.0,0.0,0.0,0.334543469628,0.077064695642,0.257478773986,0.41160816527,0.077064695642,0.19746376446,273,0.299732959835,0.319577193062,0.635038033336,nan,nan,nan,nan,nan,nan,nan,nan,2920.59131734,3100.3769027,nan,3100.45920885,nan,nan,nan,nan
1,162,1,1,1.0,1.0,0.0765292493161,0,0.0,0.0,0.0,0.332976778233,0.0793397934629,0.25363698477,0.412316571696,0.0793397934629,0.122329586302,442,0.273907262724,0.421095538958,-1.0,nan,nan,nan,nan,nan,nan,nan,nan,2920.59131734,3101.31868946,nan,3101.39521871,nan,nan,nan,nan
1,163,1,1,1.0,1.0,0.0547165330499,0,1.0,0.0,0.0,0.331393768795,0.0816051405173,0.249788628278,0.412998909313,0.0816051405173,0.071183979162,70,1.0,-0.13936984996,-0.906436913284,nan,nan,nan,nan,nan,nan,nan,nan,2920.59131734,3102.26046367,nan,3102.31518021,nan,nan,nan,nan
1,164,0,0,1.0,0.0,0.192835131427,0,0.0,0.0,0.0,0.329696362441,0.0841742018686,0.245522160572,0.41387056431,0.0841742018686,0.108026971264,119,1.0,-0.309446327048,-0.250710895617,nan,nan,nan,nan,nan,nan,nan,nan,2920.59131734,3103.2023009,nan,3103.39513603,nan,nan,nan,nan
1,165,1,1,1.0,1.0,0.203050701297,0,0.0,0.0,0.0,0.32886184274,0.0845908399576,0.244271002782,0.413452682697,0.0845908399576,0.150200788591,266,0.373577590308,0.295207490188,0.648113769863,nan,nan,nan,nan,nan,nan,nan,nan,2920.59131734,3104.1440774,nan,3104.3471281,nan,nan,nan,nan
1,166,1,1,1.0,1.0,0.285226282314,0,0.0,0.0,0.0,0.328099350973,0.0848975349225,0.243201816051,0.412996885896,0.0848975349225,0.22703737168,493,0.689769084006,0.285700779988,-1.0,nan,nan,nan,nan,nan,nan,nan,nan,2920.59131734,3105.08586273,nan,3105.37108901,nan,nan,nan,nan
1,167,1,1,1.0,1.0,0.335404082667,0,0.0,0.0,0.0,0.327841079475,0.0847064247735,0.243134654702,0.412547504249,0.0847064247735,0.274560355426,353,-0.175041255135,0.471490071959,0.108799216003,nan,nan,nan,nan,nan,nan,nan,nan,2920.59131734,3106.02765719,nan,3106.36306127,nan,nan,nan,nan
1,168,1,1,1.0,1.0,0.37758863857,0,0.0,0.0,0.0,0.32788636692,0.0844544475793,0.24343191934,0.412340814499,0.0844544475793,0.332739667851,458,0.399688045963,0.388050214986,-1.0,nan,nan,nan,nan,nan,nan,nan,nan,2920.59131734,3106.9694525,nan,3107.34704114,nan,nan,nan,nan
1,169,1,1,1.0,1.0,0.363785987371,0,0.0,0.0,0.0,0.328182213775,0.0842894701279,0.243892743647,0.412471683903,0.0842894701279,0.358926236203,321,-0.0999433513493,0.43654647086,0.391174984052,nan,nan,nan,nan,nan,nan,nan,nan,2920.59131734,3107.91124069,nan,3108.27502668,nan,nan,nan,nan
1,170,1,1,1.0,1.0,0.349969366449,0,0.0,0.0,0.0,0.328392886991,0.0840840735238,0.244308813468,0.412476960515,0.0840840735238,0.363781330797,225,0.81146624694,0.115131125244,0.600981946568,nan,nan,nan,nan,nan,nan,nan,nan,2920.59131734,3108.85303629,nan,3109.20300566,nan,nan,nan,nan
1,171,1,1,1.0,1.0,0.400060497457,0,0.0,0.0,0.0,0.328519807459,0.0838526374066,0.244667170052,0.412372444865,0.0838526374066,0.371271950426,72,1.0,-0.149607777062,-0.853203742106,nan,nan,nan,nan,nan,nan,nan,nan,2920.59131734,3109.79490687,nan,3110.19496737,nan,nan,nan,nan
1,172,1,1,1.0,1.0,0.38633624767,0,0.0,0.0,0.0,0.328938174067,0.0837848524356,0.245153321631,0.412723026502,0.0837848524356,0.378788703859,3,0.871087178923,0.199335109687,-1.0,nan,nan,nan,nan,nan,nan,nan,nan,2920.59131734,3110.73661779,nan,3111.12295404,nan,nan,nan,nan
1,173,1,1,1.0,1.0,0.388524076552,0,0.0,0.0,0.0,0.329271883797,0.0836548327972,0.245617051,0.412926716594,0.0836548327972,0.391640273893,337,-0.160643365934,0.457858386897,0.259303564052,nan,nan,nan,nan,nan,nan,nan,nan,2920.59131734,3111.67841539,nan,3112.06693947,nan,nan,nan,nan
1,174,0,0,0.0,1.0,0.518684212235,0,0.0,0.0,0.0,0.329614382021,0.0835335614679,0.246080820553,0.413147943489,0.0835335614679,0.431181512152,228,0.780729811514,0.1302769546,0.611433142569,nan,nan,nan,nan,nan,nan,nan,nan,2920.59131734,3112.62020643,nan,3113.13889064,nan,nan,nan,nan
1,175,1,1,1.0,1.0,0.480873888475,0,0.0,0.0,0.0,0.330700990241,0.084510457256,0.246190532985,0.415211447497,0.084510457256,0.462694059087,142,1.0,-0.289568116499,-0.0146273521697,nan,nan,nan,nan,nan,nan,nan,nan,2920.59131734,3113.56199946,nan,3114.04287335,nan,nan,nan,nan
1,176,1,1,1.0,1.0,0.427079356858,0,0.0,0.0,0.0,0.331559121088,0.0850255106748,0.246533610413,0.416584631763,0.0850255106748,0.475545819189,264,0.394966959701,0.287889713878,0.650717615019,nan,nan,nan,nan,nan,nan,nan,nan,2920.59131734,3114.50377909,nan,3114.93085845,nan,nan,nan,nan
1,177,1,1,1.0,1.0,0.421257405658,0,0.0,1.0,0.0,0.3321018497,0.0850870653808,0.247014784319,0.417188915081,0.0850870653808,0.443070216997,341,-0.168535884224,0.46196150489,0.223260112086,nan,nan,nan,nan,nan,nan,nan,nan,2920.59131734,3115.4455861,nan,3115.8668435,nan,nan,nan,nan
1,178,1,1,1.0,1.0,0.551411839551,1,0.0,0.0,1.0,0.332605553406,0.0851091069607,0.247496446445,0.417714660367,0.0851091069607,0.466582867356,67,1.0,-0.12380466598,-1.0,54.3170860691,35.6829139309,-11.4264610691,51.0,1.0,-0.0385160204876,-1.0,1.25046221237,2920.59131734,3116.38741562,3117.19579671,3116.93882746,3119.47939196,3120.4857804,3118.21255667,3119.47106259
1,179,1,1,1.0,1.0,0.285114524537,0,0.0,0.0,0.0,0.333834802205,0.0864310259202,0.247403776285,0.420265828125,0.0864310259202,0.419261256582,12,0.942476689623,0.159273951266,-1.0,nan,nan,nan,nan,nan,nan,nan,nan,2920.59131734,3120.62960833,nan,3120.91472286,nan,nan,nan,nan
1,180,0,0,1.0,0.0,0.231300321175,0,0.0,0.0,0.0,0.333562621883,0.0862657244596,0.247296897423,0.419828346342,0.0862657244596,0.355942228421,126,1.0,-0.311411754845,-0.177408431044,nan,nan,nan,nan,nan,nan,nan,nan,2920.59131734,3121.57139367,nan,3121.80269399,nan,nan,nan,nan
1,181,1,1,1.0,1.0,0.153500397922,0,0.0,0.0,0.0,0.33299449799,0.0863609107902,0.2466335872,0.41935540878,0.0863609107902,0.223305081211,438,0.243622561222,0.428096439079,-1.0,nan,nan,nan,nan,nan,nan,nan,nan,2920.59131734,3122.51319183,nan,3122.66669223,nan,nan,nan,nan
1,182,1,1,1.0,1.0,0.203684470267,0,0.0,0.0,0.0,0.332002817879,0.0871436667181,0.244859151161,0.419146484597,0.0871436667181,0.196161729788,261,0.427225806086,0.276617811781,0.653674462902,nan,nan,nan,nan,nan,nan,nan,nan,2920.59131734,3123.45499,nan,3123.65867447,nan,nan,nan,nan
1,183,1,1,1.0,1.0,0.253847160493,0,1.0,0.0,0.0,0.331297772013,0.0874200577826,0.24387771423,0.418717829796,0.0874200577826,0.203677342894,104,1.0,-0.282351481576,-0.412644567278,nan,nan,nan,nan,nan,nan,nan,nan,2920.59131734,3124.39678446,nan,3124.65063162,nan,nan,nan,nan
1,184,1,1,1.0,1.0,0.296056519845,1,0.0,0.0,1.0,0.330874544628,0.0873676460823,0.243506898545,0.41824219071,0.0873676460823,0.251196050202,245,0.600577697281,0.210610106048,0.650172825369,-88.3316625517,178.331662552,6.06603755171,254.0,0.503011129055,0.248947817922,0.65613358125,1.45047122135,2920.59131734,3125.33856865,3126.14699108,3125.63462517,3128.63061187,3129.62718444,3127.16376786,3128.62227965
1,185,1,1,1.0,1.0,0.269975342089,0,0.0,0.0,0.0,0.330685316232,0.087167505781,0.243517810451,0.417852822013,0.087167505781,0.273293007476,495,0.706485112283,0.278551693791,-1.0,nan,nan,nan,nan,nan,nan,nan,nan,2920.59131734,3129.77254534,nan,3130.04252068,nan,nan,nan,nan
1,186,1,1,1.0,1.0,0.264217822696,0,0.0,0.0,0.0,0.33035715421,0.0870454931085,0.243311661101,0.417402647318,0.0870454931085,0.276749894877,418,0.101175887384,0.455961754156,-0.661679309199,nan,nan,nan,nan,nan,nan,nan,nan,2920.59131734,3130.71428449,nan,3130.97850232,nan,nan,nan,nan
1,187,1,1,1.0,1.0,0.250393789145,0,0.0,0.0,0.0,0.330001566406,0.0869458086964,0.243055757709,0.416947375102,0.0869458086964,0.261528984644,116,1.0,-0.306446923025,-0.282515442494,nan,nan,nan,nan,nan,nan,nan,nan,2920.59131734,3131.6560875,nan,3131.90648129,nan,nan,nan,nan
1,188,1,1,1.0,1.0,0.284573697019,0,0.0,0.0,0.0,0.329575856367,0.0869071730253,0.242668683342,0.416483029392,0.0869071730253,0.266395102954,72,1.0,-0.149607777062,-0.853203742106,nan,nan,nan,nan,nan,nan,nan,nan,2920.59131734,3132.59788082,nan,3132.88245452,nan,nan,nan,nan
1,189,1,1,1.0,1.0,0.310756368912,0,0.0,0.0,0.0,0.329336483179,0.086737517628,0.242598965551,0.416074000807,0.086737517628,0.281907951692,239,0.665069831863,0.183388857662,0.640549267122,nan,nan,nan,nan,nan,nan,nan,nan,2920.59131734,3133.53967471,nan,3133.85043108,nan,nan,nan,nan
1,190,1,1,1.0,1.0,0.312935644994,0,0.0,0.0,0.0,0.329238175696,0.0865182496993,0.242719925997,0.415756425395,0.0865182496993,0.302755236975,299,0.0516645560415,0.393417669654,0.534378752182,nan,nan,nan,nan,nan,nan,nan,nan,2920.59131734,3134.48146546,nan,3134.79440111,nan,nan,nan,nan
1,191,1,1,1.0,1.0,0.35511193308,0,0.0,0.0,0.0,0.329152372903,0.0862983319065,0.242854040996,0.415450704809,0.0862983319065,0.326267982329,119,1.0,-0.309446327048,-0.250710895617,nan,nan,nan,nan,nan,nan,nan,nan,2920.59131734,3135.42325593,nan,3135.77836786,nan,nan,nan,nan
1,192,0,0,1.0,0.0,0.317313298234,0,0.0,0.0,0.0,0.32928828683,0.0860925098313,0.243195776999,0.415380796662,0.0860925098313,0.328453625436,39,1.0,0.0253789930673,-1.0,nan,nan,nan,nan,nan,nan,nan,nan,2920.59131734,3136.36504953,nan,3136.68236283,nan,nan,nan,nan
1,193,1,1,1.0,1.0,0.1674903573,0,0.0,0.0,0.0,0.329225917098,0.0858723441196,0.243353572979,0.415098261218,0.0858723441196,0.279971862872,479,0.572572153349,0.331768222426,-1.0,nan,nan,nan,nan,nan,nan,nan,nan,2920.59131734,3137.30685312,nan,3137.47434347,nan,nan,nan,nan
1,194,1,1,1.0,1.0,0.257716487162,0,0.0,0.0,0.0,0.328387909016,0.0864331265846,0.241954782432,0.414821035601,0.0864331265846,0.247506714232,202,1.0,-0.00802826454356,0.487596984314,nan,nan,nan,nan,nan,nan,nan,nan,2920.59131734,3138.2486336,nan,3138.50635009,nan,nan,nan,nan
1,195,1,1,1.0,1.0,0.331872024806,0,0.0,0.0,0.0,0.328023623337,0.0863584886771,0.24166513466,0.414382112014,0.0863584886771,0.252359623089,317,-0.077772836126,0.429938605076,0.420733606481,nan,nan,nan,nan,nan,nan,nan,nan,2920.59131734,3139.19042721,nan,3139.52229923,nan,nan,nan,nan
1,196,0,0,0.0,1.0,0.526060508331,0,0.0,0.0,0.0,0.328043358729,0.0861372106424,0.241906148086,0.414180569371,0.0861372106424,0.371883006766,43,1.0,0.00424534395127,-1.0,nan,nan,nan,nan,nan,nan,nan,nan,2920.59131734,3140.13221825,nan,3140.65827875,nan,nan,nan,nan
1,197,1,1,1.0,1.0,0.440243107267,0,0.0,0.0,0.0,0.329053650308,0.087067779504,0.241985870804,0.416121429812,0.087067779504,0.432725213468,210,0.958022500947,0.0359304984579,0.533421856807,nan,nan,nan,nan,nan,nan,nan,nan,2920.59131734,3141.07400558,nan,3141.51424868,nan,nan,nan,nan
1,198,1,1,1.0,1.0,0.354406889877,0,0.0,0.0,0.0,0.329618063796,0.0872052480361,0.242412815759,0.416823311832,0.0872052480361,0.440236835158,31,1.0,0.0668515730764,-1.0,nan,nan,nan,nan,nan,nan,nan,nan,2920.59131734,3142.01583767,nan,3142.37024456,nan,nan,nan,nan
1,199,1,1,1.0,1.0,0.380620067241,0,0.0,0.0,0.0,0.329743259887,0.0870025012292,0.242740758658,0.416745761116,0.0870025012292,0.391756688128,301,0.0351599448551,0.39804275895,0.523414514543,nan,nan,nan,nan,nan,nan,nan,nan,2920.59131734,3142.95759849,nan,3143.33821855,nan,nan,nan,nan
1,200,1,1,1.0,1.0,0.446785496664,0,0.0,0.0,0.0,0.329998922235,0.0868581589606,0.243140763275,0.416857081196,0.0868581589606,0.393937484594,137,1.0,-0.300190217086,-0.0647316600203,nan,nan,nan,nan,nan,nan,nan,nan,2920.59131734,3143.89939266,nan,3144.34617816,nan,nan,nan,nan
1,201,1,1,1.0,1.0,0.536951186135,0,0.0,1.0,0.0,0.330582855107,0.0870314461639,0.243551408944,0.417614301271,0.0870314461639,0.454785583347,465,0.456588679398,0.37096152752,-1.0,nan,nan,nan,nan,nan,nan,nan,nan,2920.59131734,3144.84120194,nan,3145.37815313,nan,nan,nan,nan
1,202,1,1,1.0,1.0,0.435159840621,1,0.0,0.0,1.0,0.331609563222,0.0880205350387,0.243589028183,0.419630098261,0.0880205350387,0.472965507807,111,1.0,-0.298677811705,-0.336106236365,-6.24631562099,96.246315621,18.199440621,137.0,1.0,-0.300190217086,-0.0647316600203,1.66717660881,2920.59131734,3145.78297445,3146.59138747,3146.21813429,3149.30004245,3150.29671452,3147.61648991,3149.2917108
1,203,1,1,1.0,1.0,0.240108940983,0,0.0,0.0,0.0,0.332122188358,0.0881026659715,0.244019522386,0.420224854329,0.0881026659715,0.40407332258,167,1.0,-0.195605812978,0.221546716301,nan,nan,nan,nan,nan,nan,nan,nan,2920.59131734,3150.44193202,nan,3150.68204096,nan,nan,nan,nan
1,204,1,1,1.0,1.0,0.250287448289,0,0.0,0.0,0.0,0.331668921129,0.0881211895271,0.243547731602,0.419790110656,0.0881211895271,0.308518743298,510,0.830554458933,0.220436700166,-1.0,nan,nan,nan,nan,nan,nan,nan,nan,2920.59131734,3151.38371963,nan,3151.63400708,nan,nan,nan,nan
1,205,0,0,1.0,0.0,0.196478946833,0,0.0,0.0,0.0,0.331269992341,0.0880885060599,0.243181486281,0.419358498401,0.0880885060599,0.228958445368,68,1.0,-0.129018143495,-0.972903198114,nan,nan,nan,nan,nan,nan,nan,nan,2920.59131734,3152.32551609,nan,3152.52199504,nan,nan,nan,nan
1,206,1,1,1.0,1.0,0.214663813007,0,0.0,0.0,0.0,0.330612475046,0.0883737991764,0.242238675869,0.418986274222,0.0883737991764,0.220476736043,317,-0.077772836126,0.429938605076,0.420733606481,nan,nan,nan,nan,nan,nan,nan,nan,2920.59131734,3153.26730855,nan,3153.48197236,nan,nan,nan,nan
1,207,1,1,1.0,1.0,0.264851876884,0,0.0,0.0,0.0,0.330049617463,0.0885266168006,0.241523000662,0.418576234264,0.0885266168006,0.225331545575,239,0.665069831863,0.183388857662,0.640549267122,nan,nan,nan,nan,nan,nan,nan,nan,2920.59131734,3154.20909788,nan,3154.47394976,nan,nan,nan,nan
1,208,1,1,1.0,1.0,0.323030333966,0,0.0,0.0,0.0,0.329734652533,0.0884281514102,0.241306501122,0.418162803943,0.0884281514102,0.267515341286,359,-0.169222339917,0.474741883077,0.0483828026834,nan,nan,nan,nan,nan,nan,nan,nan,2920.59131734,3155.15091486,nan,3155.47394519,nan,nan,nan,nan
1,209,0,0,0.0,1.0,0.437186875264,0,0.0,0.0,0.0,0.329702420232,0.0882165465545,0.241485873677,0.417918966786,0.0882165465545,0.341689695371,478,0.56422249903,0.334793662244,-1.0,nan,nan,nan,nan,nan,nan,nan,nan,2920.59131734,3156.09271046,nan,3156.52989733,nan,nan,nan,nan
1,210,1,1,1.0,1.0,0.431388302008,0,0.0,0.0,0.0,0.330216699921,0.0883172489585,0.241899450962,0.418533948879,0.0883172489585,0.397201837079,249,0.557275547736,0.228026269286,0.654084877906,nan,nan,nan,nan,nan,nan,nan,nan,2920.59131734,3157.03448268,nan,3157.46587098,nan,nan,nan,nan
1,211,1,1,1.0,1.0,0.433567007771,0,0.0,0.0,0.0,0.330698469455,0.0883815772811,0.242316892174,0.419080046736,0.0883815772811,0.434047395014,51,1.0,-0.0385160204876,-1.0,nan,nan,nan,nan,nan,nan,nan,nan,2920.59131734,3157.97628027,nan,3158.40984728,nan,nan,nan,nan
1,212,1,1,1.0,1.0,0.419772339286,0,0.0,1.0,0.0,0.331185998072,0.0884544881874,0.242731509885,0.41964048626,0.0884544881874,0.428242549688,475,0.539218753276,0.343659807328,-1.0,nan,nan,nan,nan,nan,nan,nan,nan,2920.59131734,3158.9180659,nan,3159.33783823,nan,nan,nan,nan
1,213,1,1,1.0,1.0,0.429949135985,1,0.0,0.0,1.0,0.331603858172,0.0884541236103,0.243149734562,0.420057981783,0.0884541236103,0.427762827681,0,0.846831709088,0.212097570855,-1.0,95.952459438,354.047540562,-5.95245943797,504.0,0.78128615449,0.244628286196,-1.0,1.26712694508,2920.59131734,3159.8598575,3160.66827366,3160.28980664,3162.9685918,3163.97760027,3161.68503818,3162.96021795
1,214,0,0,1.0,0.0,0.282965468825,0,0.0,0.0,0.0,0.332065573092,0.0885019393629,0.243563633729,0.420567512455,0.0885019393629,0.377562314699,461,0.423959648591,0.380927367285,-1.0,nan,nan,nan,nan,nan,nan,nan,nan,2920.59131734,3164.11875229,nan,3164.40171776,nan,nan,nan,nan
1,215,1,1,1.0,1.0,0.13315564231,0,0.0,0.0,0.0,0.331836133352,0.0883583908885,0.243477742464,0.420194524241,0.0883583908885,0.282023415707,216,0.900975005756,0.0682271079607,0.563426584804,nan,nan,nan,nan,nan,nan,nan,nan,2920.59131734,3165.06058153,nan,3165.19373718,nan,nan,nan,nan
1,216,0,0,1.0,0.0,0.151341363788,0,0.0,0.0,0.0,0.330912038045,0.0891831733857,0.241728864659,0.420095211431,0.0891831733857,0.189154158308,502,0.764740937618,0.25241357569,-1.0,nan,nan,nan,nan,nan,nan,nan,nan,2920.59131734,3166.00234292,nan,3166.15368428,nan,nan,nan,nan
1,217,1,1,1.0,1.0,0.113536171848,0,0.0,0.0,0.0,0.330080692331,0.0898076287952,0.240273063536,0.419888321126,0.0898076287952,0.132677725982,250,0.546428449327,0.232286661223,0.654747725831,nan,nan,nan,nan,nan,nan,nan,nan,2920.59131734,3166.94413938,nan,3167.05767555,nan,nan,nan,nan
1,218,0,0,1.0,0.0,0.187657497823,0,0.0,0.0,0.0,0.329082791315,0.0907928223567,0.238289968958,0.419875613671,0.0907928223567,0.150845011153,35,1.0,0.0462653595507,-1.0,nan,nan,nan,nan,nan,nan,nan,nan,2920.59131734,3167.88597631,nan,3168.07363381,nan,nan,nan,nan
1,219,1,1,1.0,1.0,0.245894684806,0,0.0,0.0,0.0,0.328434051436,0.0910870489431,0.237347002493,0.419521100379,0.0910870489431,0.182362784826,128,1.0,-0.310663006781,-0.156689791083,nan,nan,nan,nan,nan,nan,nan,nan,2920.59131734,3168.8277166,nan,3169.07361129,nan,nan,nan,nan
1,220,1,1,1.0,1.0,0.480076189036,0,0.0,0.0,0.0,0.328057159351,0.091049062101,0.23700809725,0.419106221452,0.091049062101,0.304542790555,91,1.0,-0.237709898716,-0.562722318432,nan,nan,nan,nan,nan,nan,nan,nan,2920.59131734,3169.76952133,nan,3170.24959752,nan,nan,nan,nan
1,221,1,1,1.0,1.0,0.354254933656,0,0.0,0.0,0.0,0.328748154941,0.0914156288926,0.237332526048,0.420163783833,0.0914156288926,0.360075269166,384,-0.0924750057551,0.477945316949,-0.222479273925,nan,nan,nan,nan,nan,nan,nan,nan,2920.59131734,3170.7113135,nan,3171.06556844,nan,nan,nan,nan
1,222,1,1,1.0,1.0,0.308446233859,0,0.0,0.0,0.0,0.328863570229,0.0912246354054,0.237638934824,0.420088205634,0.0912246354054,0.380925785517,32,1.0,0.061735800531,-1.0,nan,nan,nan,nan,nan,nan,nan,nan,2920.59131734,3171.6531054,nan,3171.96155163,nan,nan,nan,nan
1,223,1,1,1.0,1.0,0.302625708166,0,0.0,0.0,0.0,0.328771600245,0.0910292109095,0.237742389336,0.419800811155,0.0910292109095,0.321775625227,480,0.580928072941,0.32870764083,-1.0,nan,nan,nan,nan,nan,nan,nan,nan,2920.59131734,3172.59489586,nan,3172.89752157,nan,nan,nan,nan
1,224,1,1,1.0,1.0,0.312807636685,0,0.0,0.0,0.0,0.328654354093,0.0908416788932,0.237812675199,0.419496032986,0.0908416788932,0.30795985957,215,0.910639861846,0.0628947364355,0.558695148714,nan,nan,nan,nan,nan,nan,nan,nan,2920.59131734,3173.53668975,nan,3173.84949739,nan,nan,nan,nan
1,225,1,1,1.0,1.0,0.307003646623,0,0.0,0.0,0.0,0.328583609818,0.090644836907,0.237938772911,0.419228446725,0.090644836907,0.307478997158,280,0.228089347314,0.342018854333,0.61587222022,nan,nan,nan,nan,nan,nan,nan,nan,2920.59131734,3174.47848136,nan,3174.78548501,nan,nan,nan,nan
1,226,1,1,1.0,1.0,0.341184409685,0,0.0,0.0,0.0,0.328487698871,0.090454570344,0.238285717197,0.418802040818,0.090454570344,0.320331897664,449,0.328095008353,0.407646248688,-1.0,nan,nan,nan,nan,nan,nan,nan,nan,2920.59131734,3175.42027468,nan,3175.76145909,nan,nan,nan,nan
1,227,1,1,nan,nan,nan,0,0.0,0.0,0.0,0.328543879007,0.0902581618104,0.238285717197,0.418802040818,0.0902581618104,0.324094028154,119,1.0,-0.309446327048,-0.250710895617,nan,nan,nan,nan,nan,nan,nan,nan,2920.59131734,3176.3620717,nan,nan,nan,nan,nan,nan
1,228,1,1,1.0,1.0,0.0736001700861,0,0.0,0.0,0.0,0.328543879007,0.0902581618104,0.238285717197,0.418802040818,0.0902581618104,0.207392289885,368,-0.150457169737,0.477793263397,-0.0457341785459,nan,nan,nan,nan,nan,nan,nan,nan,2920.59131734,3177.30385989,nan,3177.37746006,nan,nan,nan,nan
1,229,1,1,1.0,1.0,0.0837501678616,0,0.0,0.0,0.0,0.327420778968,0.091628128249,0.235792650719,0.419048907217,0.091628128249,0.0786751689739,316,-0.0718215561597,0.428203514031,0.427892255365,nan,nan,nan,nan,nan,nan,nan,nan,2920.59131734,3178.24565378,nan,3178.32940395,nan,nan,nan,nan
1,230,1,1,1.0,1.0,0.157938776771,0,1.0,0.0,0.0,0.326352048217,0.0928340814009,0.233517966817,0.419186129618,0.0928340814009,0.105096371573,501,0.7564492333,0.256253544744,-1.0,nan,nan,nan,nan,nan,nan,nan,nan,2920.59131734,3179.18744225,nan,3179.34538103,nan,nan,nan,nan
1,231,1,1,1.0,1.0,0.400106968125,1,0.0,0.0,1.0,0.325616619085,0.0932944152892,0.232322203795,0.418911034374,0.0932944152892,0.213931970919,142,1.0,-0.289568116499,-0.0146273521697,-4.88275956383,94.8827595638,-4.96099043617,135.0,1.0,-0.303502321856,-0.0849788702499,1.26718339417,2920.59131734,3180.12923842,3180.93765201,3180.52934539,3183.24625989,3184.25715627,3181.96275189,3183.23792824
1,232,0,0,0.0,1.0,0.452766246395,0,0.0,0.0,0.0,0.325940490167,0.0932203061818,0.232720183986,0.419160796349,0.0932203061818,0.33693733043,473,0.522594813828,0.349396171415,-1.0,nan,nan,nan,nan,nan,nan,nan,nan,2920.59131734,3184.39647085,nan,3184.8492371,nan,nan,nan,nan
1,233,1,1,1.0,1.0,0.326958390418,0,0.0,0.0,0.0,0.326489519415,0.0933902347309,0.233099284684,0.419879754146,0.0933902347309,0.393277201646,224,0.821619416966,0.11002478857,0.597264883709,nan,nan,nan,nan,nan,nan,nan,nan,2920.59131734,3185.33826987,nan,3185.66522826,nan,nan,nan,nan
1,234,1,1,1.0,1.0,0.249152765144,0,0.0,0.0,0.0,0.326491540411,0.093188750379,0.233302790032,0.41968029079,0.093188750379,0.342959133986,439,0.251144291643,0.426392204401,-1.0,nan,nan,nan,nan,nan,nan,nan,nan,2920.59131734,3186.2800592,nan,3186.52921196,nan,nan,nan,nan
1,235,1,1,1.0,1.0,0.291341597564,0,0.0,0.0,0.0,0.326159614337,0.0931258974586,0.233033716878,0.419285511795,0.0931258974586,0.289150917709,3,0.871087178923,0.199335109687,-1.0,nan,nan,nan,nan,nan,nan,nan,nan,2920.59131734,3187.2218528,nan,3187.5131944,nan,nan,nan,nan
1,236,1,1,1.0,1.0,0.301514688064,0,0.0,0.0,0.0,0.326010819393,0.0929544496183,0.233056369775,0.418965269011,0.0929544496183,0.280669683591,87,1.0,-0.220959007447,-0.612675615602,nan,nan,nan,nan,nan,nan,nan,nan,2920.59131734,3188.16365239,nan,3188.46516708,nan,nan,nan,nan
1,237,1,1,1.0,1.0,0.319704971043,0,0.0,0.0,0.0,0.325906580536,0.0927701680246,0.233136412512,0.418676748561,0.0927701680246,0.304187085557,15,0.965734432428,0.145352784795,-1.0,nan,nan,nan,nan,nan,nan,nan,nan,2920.59131734,3189.10543374,nan,3189.42513871,nan,nan,nan,nan
1,238,0,0,0.0,1.0,0.489885781892,0,0.0,0.0,0.0,0.32588030253,0.0925742888742,0.233306013656,0.418454591404,0.0925742888742,0.370368480333,199,1.0,-0.0246761787097,0.468786302982,nan,nan,nan,nan,nan,nan,nan,nan,2920.59131734,3190.04722962,nan,3190.5371154,nan,nan,nan,nan
1,239,1,1,1.0,1.0,0.412069037789,0,0.0,0.0,0.0,0.326572308772,0.0929884539618,0.23358385481,0.419560762734,0.0929884539618,0.407219930242,344,-0.172543464245,0.464730234515,0.195503824632,nan,nan,nan,nan,nan,nan,nan,nan,2920.59131734,3190.98902351,nan,3191.40109255,nan,nan,nan,nan
1,240,1,1,1.0,1.0,0.398248710553,0,0.0,0.0,0.0,0.326931538726,0.0929575451308,0.233973993595,0.419889083857,0.0929575451308,0.433401176745,268,0.35230222188,0.302367520405,0.645005310408,nan,nan,nan,nan,nan,nan,nan,nan,2920.59131734,3191.93082566,nan,3192.32907438,nan,nan,nan,nan
1,241,0,0,0.0,1.0,0.448437344632,0,0.0,0.0,0.0,0.327229936935,0.0928770252522,0.234352911682,0.420106962187,0.0928770252522,0.419585030992,169,1.0,-0.185917379452,0.239118302078,nan,nan,nan,nan,nan,nan,nan,nan,2920.59131734,3192.87261927,nan,3193.32105661,nan,nan,nan,nan
1,242,1,1,1.0,1.0,0.418605725281,0,0.0,0.0,0.0,0.3277349678,0.0930116013621,0.234723366438,0.420746569162,0.0930116013621,0.421763926822,105,1.0,-0.285049837405,-0.401580786678,nan,nan,nan,nan,nan,nan,nan,nan,2920.59131734,3193.81441116,nan,3194.23301689,nan,nan,nan,nan
1,243,1,1,1.0,1.0,0.428836405161,0,0.0,0.0,0.0,0.328112024885,0.0930020556639,0.235109969221,0.421114080549,0.0930020556639,0.431959825025,483,0.606025706087,0.319314454546,-1.0,nan,nan,nan,nan,nan,nan,nan,nan,2920.59131734,3194.75618139,nan,3195.18501779,nan,nan,nan,nan
1,244,1,1,1.0,1.0,0.367001873441,0,0.0,0.0,0.0,0.328528241332,0.0930343539554,0.235493887377,0.421562595288,0.0930343539554,0.404814667961,58,1.0,-0.0760896648475,-1.0,nan,nan,nan,nan,nan,nan,nan,nan,2920.59131734,3195.69798924,nan,3196.06499112,nan,nan,nan,nan
1,245,1,1,1.0,1.0,0.337191636325,0,0.0,0.0,0.0,0.328686569036,0.0928753923115,0.235811176725,0.421561961348,0.0928753923115,0.377676638309,162,1.0,-0.218739557155,0.176632971453,nan,nan,nan,nan,nan,nan,nan,nan,2920.59131734,3196.63978171,nan,3196.97697334,nan,nan,nan,nan
1,246,1,1,1.0,1.0,0.339368631481,0,0.0,0.0,0.0,0.32872142587,0.0926864712059,0.236034954664,0.421407897076,0.0926864712059,0.347854047082,78,1.0,-0.179467652321,-0.739907630878,nan,nan,nan,nan,nan,nan,nan,nan,2920.59131734,3197.58157189,nan,3197.92094052,nan,nan,nan,nan
1,247,0,0,0.0,1.0,0.405557723832,0,0.0,0.0,0.0,0.328764883852,0.0924996126801,0.236265271172,0.421264496532,0.0924996126801,0.360705997213,358,-0.170583909915,0.474268316859,0.0585874414746,nan,nan,nan,nan,nan,nan,nan,nan,2920.59131734,3198.52336122,nan,3198.92891894,nan,nan,nan,nan
1,248,1,1,1.0,1.0,0.327752953861,0,0.0,0.0,0.0,0.329077049868,0.0924406393341,0.236636410534,0.421517689202,0.0924406393341,0.357559769725,310,-0.032854544558,0.417080732083,0.468828018046,nan,nan,nan,nan,nan,nan,nan,nan,2920.59131734,3199.46515653,nan,3199.79290948,nan,nan,nan,nan
1,249,1,1,1.0,1.0,0.265910724411,0,0.0,0.0,0.0,0.329071689155,0.0922533610648,0.236818328091,0.42132505022,0.0922533610648,0.333073800701,126,1.0,-0.311411754845,-0.177408431044,nan,nan,nan,nan,nan,nan,nan,nan,2920.59131734,3200.40697266,nan,3200.67288338,nan,nan,nan,nan
1,250,1,1,1.0,1.0,0.244117394672,0,0.0,0.0,0.0,0.328817007846,0.0921541448537,0.236662862992,0.4209711527,0.0921541448537,0.279260357648,208,0.97651257568,0.025020743352,0.522574479073,nan,nan,nan,nan,nan,nan,nan,nan,2920.59131734,3201.34874345,nan,3201.59286085,nan,nan,nan,nan
1,251,1,1,1.0,1.0,0.238310553599,0,0.0,0.0,0.0,0.328476848757,0.0921247853688,0.236352063388,0.420601634126,0.0921247853688,0.249446224227,511,0.838703193994,0.216284169582,-1.0,nan,nan,nan,nan,nan,nan,nan,nan,2920.59131734,3202.29052252,nan,3202.52883307,nan,nan,nan,nan
1,252,1,1,1.0,1.0,0.344489815994,0,0.0,0.0,0.0,0.328116183576,0.0921163282957,0.23599985528,0.420232511872,0.0921163282957,0.275639254755,159,1.0,-0.231765974528,0.149055008463,nan,nan,nan,nan,nan,nan,nan,nan,2920.59131734,3203.23232923,nan,3203.57681905,nan,nan,nan,nan
1,253,1,1,1.0,1.0,0.282678376883,0,0.0,0.0,0.0,0.328181417171,0.0919384323784,0.236242984793,0.42011984955,0.0919384323784,0.288492915492,275,0.279002393219,0.326185254474,0.630178474337,nan,nan,nan,nan,nan,nan,nan,nan,2920.59131734,3204.17412027,nan,3204.45679865,nan,nan,nan,nan
1,254,1,1,1.0,1.0,0.292849756777,0,0.0,0.0,0.0,0.328000849551,0.0918004180641,0.236200431487,0.419801267615,0.0918004180641,0.306672649885,38,1.0,0.0306259494545,-1.0,nan,nan,nan,nan,nan,nan,nan,nan,2920.59131734,3205.11591216,nan,3205.40876192,nan,nan,nan,nan
1,255,1,1,1.0,1.0,0.295037015458,0,0.0,0.0,0.0,0.327861912426,0.091645358271,0.236216554155,0.419507270697,0.091645358271,0.290188383039,411,0.0555201669072,0.463022710015,-0.557054760163,nan,nan,nan,nan,nan,nan,nan,nan,2920.59131734,3206.05771232,nan,3206.35274934,nan,nan,nan,nan
1,256,1,1,1.0,1.0,0.313254382578,0,0.0,0.0,0.0,0.327732680548,0.0914878712771,0.236244809271,0.419220551825,0.0914878712771,0.300380384938,279,0.238157575771,0.338930353633,0.618978422254,nan,nan,nan,nan,nan,nan,nan,nan,2920.59131734,3206.99948882,nan,3207.3127432,nan,nan,nan,nan
1,257,1,1,1.0,1.0,0.299426928046,0,0.0,0.0,0.0,0.327675902909,0.0913127907871,0.236363112122,0.418988693696,0.0913127907871,0.302572775361,410,0.0492046846968,0.463921527344,-0.54316189137,nan,nan,nan,nan,nan,nan,nan,nan,2920.59131734,3207.94129839,nan,3208.24072532,nan,nan,nan,nan
1,258,1,1,1.0,1.0,0.317607802688,0,0.0,0.0,0.0,0.327565555351,0.0911513048563,0.236414250494,0.418716860207,0.0911513048563,0.310096371104,58,1.0,-0.0760896648475,-1.0,nan,nan,nan,nan,nan,nan,nan,nan,2920.59131734,3208.88308373,nan,3209.20069153,nan,nan,nan,nan
1,259,1,1,1.0,1.0,0.27979377273,0,0.0,0.0,0.0,0.327526809231,0.0909759070925,0.236550902139,0.418502716324,0.0909759070925,0.298942834488,336,-0.158211608236,0.456758111158,0.268135266647,nan,nan,nan,nan,nan,nan,nan,nan,2920.59131734,3209.82487847,nan,3210.10467224,nan,nan,nan,nan
1,260,1,1,1.0,1.0,0.313985939603,0,0.0,0.0,0.0,0.327341797462,0.0908478547341,0.236493942728,0.418189652196,0.0908478547341,0.30379583834,241,0.64365311028,0.192605941253,0.644254782112,nan,nan,nan,nan,nan,nan,nan,nan,2920.59131734,3210.76666352,nan,3211.08064946,nan,nan,nan,nan
1,261,1,1,1.0,1.0,0.396158669726,0,0.0,0.0,0.0,0.327290230443,0.0906760862794,0.236614144164,0.417966316723,0.0906760862794,0.329979460686,66,1.0,-0.118568705386,-1.0,nan,nan,nan,nan,nan,nan,nan,nan,2920.59131734,3211.70845826,nan,3212.10461693,nan,nan,nan,nan
1,262,1,1,1.0,1.0,0.342339049559,0,0.0,0.0,0.0,0.327555109056,0.0906018795334,0.236953229522,0.418156988589,0.0906018795334,0.350827886296,171,1.0,-0.176011872558,0.256450910142,nan,nan,nan,nan,nan,nan,nan,nan,2920.59131734,3212.65025557,nan,3212.99259462,nan,nan,nan,nan
1,263,1,1,1.0,1.0,0.248536101775,0,0.0,0.0,0.0,0.327611752506,0.0904327585549,0.237178993951,0.418044511061,0.0904327585549,0.329011273687,261,0.427225806086,0.276617811781,0.653674462902,nan,nan,nan,nan,nan,nan,nan,nan,2920.59131734,3213.59204177,nan,3213.84057787,nan,nan,nan,nan
1,264,1,1,1.0,1.0,0.21072121663,0,0.0,0.0,0.0,0.327309937045,0.090391619749,0.236918317296,0.417701556794,0.090391619749,0.267198789322,82,1.0,-0.198479155091,-0.679872484948,nan,nan,nan,nan,nan,nan,nan,nan,2920.59131734,3214.53383879,nan,3214.74456001,nan,nan,nan,nan
1,265,1,1,1.0,1.0,0.164909950923,0,1.0,0.0,0.0,0.326866633926,0.090504505168,0.236362128758,0.417371139094,0.090504505168,0.208055756443,146,1.0,-0.278792578557,0.0248813210997,nan,nan,nan,nan,nan,nan,nan,nan,2920.59131734,3215.47563097,nan,3215.64054092,nan,nan,nan,nan
1,266,1,1,1.0,1.0,0.175093019847,1,0.0,0.0,1.0,0.326253161642,0.0908791410645,0.235374020577,0.417132302706,0.0908791410645,0.183574729133,498,0.731507943485,0.267561876527,-1.0,111.801409486,338.198590514,-11.9576594864,481.0,0.589289488337,0.325611856148,-1.0,2.30894372682,2920.59131734,3216.41742628,3217.22584614,3216.5925193,3220.57625399,3221.58717033,3218.25093661,3220.56792148
1,267,1,1,1.0,1.0,0.305934535572,0,0.0,0.0,0.0,0.325682746012,0.0911797724681,0.234502973544,0.41686251848,0.0911797724681,0.215312502114,225,0.81146624694,0.115131125244,0.600981946568,nan,nan,nan,nan,nan,nan,nan,nan,2920.59131734,3221.7264581,nan,3222.03239264,nan,nan,nan,nan
1,268,1,1,1.0,1.0,0.172123171855,0,0.0,0.0,0.0,0.32560850462,0.0910162448551,0.234592259765,0.416624749475,0.0910162448551,0.217716909091,176,1.0,-0.150429669724,0.298675466069,nan,nan,nan,nan,nan,nan,nan,nan,2920.59131734,3222.66825798,nan,3222.84038115,nan,nan,nan,nan
1,269,1,1,1.0,1.0,0.150318153203,0,1.0,0.0,0.0,0.325033653186,0.0913281532792,0.233705499907,0.416361806465,0.0913281532792,0.20945862021,337,-0.160643365934,0.457858386897,0.259303564052,nan,nan,nan,nan,nan,nan,nan,nan,2920.59131734,3223.61005016,nan,3223.76036831,nan,nan,nan,nan
1,270,0,0,1.0,0.0,0.0485407775268,0,0.0,0.0,0.0,0.324381729679,0.0917779124451,0.232603817234,0.416159642124,0.0917779124451,0.123660700861,277,0.258470646878,0.33263615818,0.624824240443,nan,nan,nan,nan,nan,nan,nan,nan,2920.59131734,3224.55184348,nan,3224.60038425,nan,nan,nan,nan
1,271,1,1,1.0,1.0,0.426630330156,0,0.0,0.0,0.0,0.32335629863,0.093132575529,0.230223723101,0.416488874159,0.093132575529,0.208496420295,87,1.0,-0.220959007447,-0.612675615602,nan,nan,nan,nan,nan,nan,nan,nan,2920.59131734,3225.49363109,nan,3225.92026142,nan,nan,nan,nan
1,272,1,1,1.0,1.0,0.260863094823,0,0.0,0.0,0.0,0.323738795043,0.0931713879876,0.230567407055,0.41691018303,0.0931713879876,0.245344734169,14,0.95801504718,0.150023555696,-1.0,nan,nan,nan,nan,nan,nan,nan,nan,2920.59131734,3226.43542954,nan,3226.69629264,nan,nan,nan,nan
1,273,1,1,1.0,1.0,0.335026900284,0,0.0,0.0,0.0,0.323506781389,0.0930774347573,0.230429346632,0.416584216146,0.0930774347573,0.340840108421,218,0.881467392804,0.0788246127756,0.572559633417,nan,nan,nan,nan,nan,nan,nan,nan,2920.59131734,3227.37722058,nan,3227.71224748,nan,nan,nan,nan
1,274,1,1,1.0,1.0,0.29721971252,0,0.0,0.0,0.0,0.323549134767,0.0929087951449,0.230640339622,0.416457929912,0.0929087951449,0.297703235876,147,1.0,-0.275801134503,0.0346720467303,nan,nan,nan,nan,nan,nan,nan,nan,2920.59131734,3228.31901447,nan,3228.61623418,nan,nan,nan,nan
1,275,1,1,1.0,1.0,0.251417569933,0,0.0,0.0,0.0,0.323452689997,0.09275211609,0.230700573907,0.416204806087,0.09275211609,0.294554727579,354,-0.174470673547,0.472100788149,0.0988677247603,nan,nan,nan,nan,nan,nan,nan,nan,2920.59131734,3229.26080893,nan,3229.5122265,nan,nan,nan,nan
1,276,1,1,1.0,1.0,0.365599484765,0,0.0,0.0,0.0,0.323189788099,0.0926845534349,0.230505234664,0.415874341534,0.0926845534349,0.304745589073,140,1.0,-0.294209249228,-0.0345777392028,nan,nan,nan,nan,nan,nan,nan,nan,2920.59131734,3230.20260224,nan,3230.56820173,nan,nan,nan,nan
1,277,1,1,1.0,1.0,0.33578297554,0,0.0,0.0,0.0,0.323344005178,0.0925510942545,0.230792910923,0.415895099432,0.0925510942545,0.317600010079,206,0.994723455659,0.014051917983,0.511316161583,nan,nan,nan,nan,nan,nan,nan,nan,2920.59131734,3231.14438958,nan,3231.48017255,nan,nan,nan,nan
1,278,1,1,1.0,1.0,0.32196492923,0,0.0,0.0,0.0,0.323389073911,0.0923863001854,0.231002773726,0.415775374096,0.0923863001854,0.341115796512,485,0.622774561467,0.312875618285,-1.0,nan,nan,nan,nan,nan,nan,nan,nan,2920.59131734,3232.08618175,nan,3232.40814668,nan,nan,nan,nan
1,279,1,1,1.0,1.0,0.300145370653,0,0.0,0.0,0.0,0.323383932594,0.0922194266863,0.231164505908,0.415603359281,0.0922194266863,0.319297758474,430,0.184725017221,0.440645728776,-0.941904167281,nan,nan,nan,nan,nan,nan,nan,nan,2920.59131734,3233.02797992,nan,3233.32812529,nan,nan,nan,nan
1,280,1,1,1.0,1.0,0.310338702984,0,0.0,0.0,0.0,0.323300340645,0.0920639276754,0.23123641297,0.41536426832,0.0920639276754,0.310816334289,341,-0.168535884224,0.46196150489,0.223260112086,nan,nan,nan,nan,nan,nan,nan,nan,2920.59131734,3233.96977039,nan,3234.28010909,nan,nan,nan,nan
1,281,1,1,1.0,1.0,0.304517607088,0,0.0,0.0,0.0,0.323253883162,0.091902054892,0.23135182827,0.415155938054,0.091902054892,0.305000560242,454,0.367627362238,0.397084843583,-1.0,nan,nan,nan,nan,nan,nan,nan,nan,2920.59131734,3234.9115637,nan,3235.21608131,nan,nan,nan,nan
1,282,1,1,1.0,1.0,0.314706377918,0,0.0,0.0,0.0,0.323186967891,0.0917446059284,0.231442361962,0.414931573819,0.0917446059284,0.30985422933,508,0.814199817736,0.228638933499,-1.0,nan,nan,nan,nan,nan,nan,nan,nan,2920.59131734,3235.85335645,nan,3236.16806283,nan,nan,nan,nan
1,283,1,1,1.0,1.0,0.32490655256,0,0.0,0.0,0.0,0.323156787855,0.0915826061826,0.231574181673,0.414739394038,0.0915826061826,0.314710179189,419,0.107894673663,0.454841969249,-0.678098861371,nan,nan,nan,nan,nan,nan,nan,nan,2920.59131734,3236.79513438,nan,3237.12004093,nan,nan,nan,nan
1,284,1,1,1.0,1.0,0.255062811077,0,0.0,0.0,0.0,0.323162992695,0.0914201406342,0.23174285206,0.414583133329,0.0914201406342,0.298225247185,371,-0.14179360683,0.478331938097,-0.0779732583494,nan,nan,nan,nan,nan,nan,nan,nan,2920.59131734,3237.73696134,nan,3237.99202415,nan,nan,nan,nan
1,285,1,1,1.0,1.0,0.257269741269,0,0.0,0.0,0.0,0.32292235601,0.0913479025768,0.231574453434,0.414270258587,0.0913479025768,0.279079701635,463,0.440238315199,0.376011795327,-1.0,nan,nan,nan,nan,nan,nan,nan,nan,2920.59131734,3238.67873242,nan,3238.93600216,nan,nan,nan,nan
1,286,1,1,1.0,1.0,0.323450280819,0,0.0,0.0,0.0,0.322691184832,0.0912698254017,0.23142135943,0.413961010233,0.0912698254017,0.278594277722,51,1.0,-0.0385160204876,-1.0,nan,nan,nan,nan,nan,nan,nan,nan,2920.59131734,3239.62052402,nan,3239.9439743,nan,nan,nan,nan
1,287,1,1,1.0,1.0,0.333630498732,0,0.0,0.0,0.0,0.322693848326,0.0911095732525,0.231584275074,0.413803421579,0.0911095732525,0.30478350694,501,0.7564492333,0.256253544744,-1.0,nan,nan,nan,nan,nan,nan,nan,nan,2920.59131734,3240.56232048,nan,3240.89595098,nan,nan,nan,nan
1,288,1,1,1.0,1.0,0.351824487909,0,0.0,0.0,0.0,0.322732088363,0.090952442397,0.231779645966,0.41368453076,0.090952442397,0.33630175582,222,0.841778467246,0.0997291618919,0.589484691865,nan,nan,nan,nan,nan,nan,nan,nan,2920.59131734,3241.50410924,nan,3241.85593372,nan,nan,nan,nan
1,289,1,1,1.0,1.0,0.313995918026,0,0.0,0.0,0.0,0.322833455609,0.0908100325468,0.232023423062,0.413643488155,0.0908100325468,0.333150301555,104,1.0,-0.282351481576,-0.412644567278,nan,nan,nan,nan,nan,nan,nan,nan,2920.59131734,3242.4459054,nan,3242.75990132,nan,nan,nan,nan
1,290,1,1,1.0,1.0,0.276200134191,0,0.0,0.0,0.0,0.322802769714,0.0906537297005,0.232149040014,0.413456499415,0.0906537297005,0.314006846709,216,0.900975005756,0.0682271079607,0.563426584804,nan,nan,nan,nan,nan,nan,nan,nan,2920.59131734,3243.38769445,nan,3243.66389458,nan,nan,nan,nan
1,291,1,1,1.0,1.0,0.302381380694,0,0.0,0.0,0.0,0.32264151492,0.0905381205692,0.232103394351,0.413179635489,0.0905381205692,0.29752581097,49,1.0,-0.027785429985,-1.0,nan,nan,nan,nan,nan,nan,nan,nan,2920.59131734,3244.32947978,nan,3244.63186116,nan,nan,nan,nan
1,292,1,1,1.0,1.0,0.38455753203,0,0.0,0.0,0.0,0.322571652388,0.0903896884651,0.232181963923,0.412961340853,0.0903896884651,0.321046348972,122,1.0,-0.311159539646,-0.219144224573,nan,nan,nan,nan,nan,nan,nan,nan,2920.59131734,3245.27128051,nan,3245.65583804,nan,nan,nan,nan
1,293,1,1,1.0,1.0,0.426752351457,0,0.0,0.0,0.0,0.322784662284,0.0903071281547,0.232477534129,0.413091790439,0.0903071281547,0.371230421394,230,0.760023132926,0.140224214653,0.61781109556,nan,nan,nan,nan,nan,nan,nan,nan,2920.59131734,3246.21307269,nan,3246.63982504,nan,nan,nan,nan
1,294,1,1,1.0,1.0,0.260935224127,0,0.0,0.0,0.0,0.323140716014,0.0903567337291,0.232783982285,0.413497449743,0.0903567337291,0.357415035871,37,1.0,0.0358565504353,-1.0,nan,nan,nan,nan,nan,nan,nan,nan,2920.59131734,3247.15486601,nan,3247.41580123,nan,nan,nan,nan
1,295,1,1,1.0,1.0,0.3831081026,0,0.0,0.0,0.0,0.322928410581,0.0902753353975,0.232653075183,0.413203745978,0.0902753353975,0.356931892728,457,0.391639248186,0.390358177281,-1.0,nan,nan,nan,nan,nan,nan,nan,nan,2920.59131734,3248.0966579,nan,3248.479766,nan,nan,nan,nan
1,296,1,1,1.0,1.0,0.337309095892,0,0.0,0.0,0.0,0.323133103411,0.0901897598538,0.232943343557,0.413322863265,0.0901897598538,0.327117474206,20,1.0,0.121558187834,-1.0,nan,nan,nan,nan,nan,nan,nan,nan,2920.59131734,3249.03845179,nan,3249.37576089,nan,nan,nan,nan
1,297,1,1,1.0,1.0,0.355475715944,0,0.0,0.0,0.0,0.323181157623,0.0900405361744,0.233140621448,0.413221693797,0.0900405361744,0.358630971479,480,0.580928072941,0.32870764083,-1.0,nan,nan,nan,nan,nan,nan,nan,nan,2920.59131734,3249.98024967,nan,3250.33572539,nan,nan,nan,nan
1,298,1,1,1.0,1.0,0.349674291792,0,0.0,0.0,0.0,0.32329026086,0.0899078426564,0.233382418204,0.413198103517,0.0899078426564,0.347486367876,407,0.0305886347219,0.46645515455,-0.502577406972,nan,nan,nan,nan,nan,nan,nan,nan,2920.59131734,3250.92203643,nan,3251.27171072,nan,nan,nan,nan
1,299,1,1,1.0,1.0,0.399847245426,0,0.0,0.0,0.0,0.323379095981,0.0897693667411,0.23360972924,0.413148462722,0.0897693667411,0.368332417721,96,1.0,-0.25681952169,-0.503302481145,nan,nan,nan,nan,nan,nan,nan,nan,2920.59131734,3251.86383574,nan,3252.26368298,nan,nan,nan,nan
1,300,1,1,1.0,1.0,0.490046006045,0,0.0,0.0,0.0,0.32363570051,0.0897276621492,0.23390803836,0.413363362659,0.0897276621492,0.413189181088,192,1.0,-0.0635997558896,0.421658406928,nan,nan,nan,nan,nan,nan,nan,nan,2920.59131734,3252.80561908,nan,3253.29566508,nan,nan,nan,nan
1,301,1,1,1.0,1.0,0.388264638837,0,0.0,1.0,0.0,0.324192256715,0.090091252008,0.234101004707,0.414283508723,0.090091252008,0.426052630103,108,1.0,-0.292426609412,-0.368663285579,nan,nan,nan,nan,nan,nan,nan,nan,2920.59131734,3253.74737362,nan,3254.13563826,nan,nan,nan,nan
1,302,1,1,1.0,1.0,0.382414178224,1,0.0,0.0,1.0,0.324405831322,0.0900167624897,0.234389068833,0.414422593812,0.0900167624897,0.420241607702,308,-0.0186828559465,0.413097475488,0.481682330771,-128.094693701,218.094693701,1.53219370141,310.0,-0.032854544558,0.417080732083,0.468828018046,1.11712211277,2920.59131734,3254.68920856,3255.49762158,3255.07162274,3257.64797509,3258.65192139,3256.51438525,3257.63954166
1,303,1,1,1.0,1.0,0.345761630335,0,0.0,0.0,0.0,0.324598550083,0.08992907962,0.234669470463,0.414527629703,0.08992907962,0.372146815799,162,1.0,-0.218739557155,0.176632971453,nan,nan,nan,nan,nan,nan,nan,nan,2920.59131734,3258.7897586,nan,3259.13552023,nan,nan,nan,nan
1,304,1,1,1.0,1.0,0.347963429056,0,0.0,0.0,0.0,0.324668626508,0.0897882984877,0.23488032802,0.414456924995,0.0897882984877,0.358713079205,217,0.891250405156,0.0735373331823,0.568048345461,nan,nan,nan,nan,nan,nan,nan,nan,2920.59131734,3259.73153795,nan,3260.07950138,nan,nan,nan,nan
1,305,0,0,1.0,0.0,0.294139532372,0,0.0,0.0,0.0,0.324745507044,0.0896499665014,0.235095540543,0.414395473545,0.0896499665014,0.329288197254,444,0.289241202529,0.417409780569,-1.0,nan,nan,nan,nan,nan,nan,nan,nan,2920.59131734,3260.67334039,nan,3260.96747992,nan,nan,nan,nan
1,306,1,1,1.0,1.0,0.128370586433,0,0.0,0.0,0.0,0.324644829496,0.0895195498705,0.235125279625,0.414164379366,0.0895195498705,0.256824515954,150,1.0,-0.266152531622,0.0638227105866,nan,nan,nan,nan,nan,nan,nan,nan,2920.59131734,3261.61513029,nan,3261.74350087,nan,nan,nan,nan
1,307,1,1,1.0,1.0,0.330484176171,0,0.0,0.0,0.0,0.324001307387,0.0900742355699,0.233927071818,0.414075542957,0.0900742355699,0.250998098326,106,1.0,-0.287630069369,-0.390564445695,nan,nan,nan,nan,nan,nan,nan,nan,2920.59131734,3262.55694014,nan,3262.88742432,nan,nan,nan,nan
1,308,1,1,1.0,1.0,0.372678710497,0,0.0,0.0,0.0,0.324022493233,0.0899276961536,0.23409479708,0.413950189387,0.0899276961536,0.277177824367,348,-0.175384772129,0.468017843042,0.157582163916,nan,nan,nan,nan,nan,nan,nan,nan,2920.59131734,3263.49873374,nan,3263.87141246,nan,nan,nan,nan
1,309,1,1,1.0,1.0,0.374868534971,0,0.0,0.0,0.0,0.32418098254,0.0898239106145,0.234357071926,0.414004893155,0.0898239106145,0.359343807213,304,0.0113092810281,0.404708921832,0.506160370659,nan,nan,nan,nan,nan,nan,nan,nan,2920.59131734,3264.44051053,nan,3264.81537906,nan,nan,nan,nan
1,310,1,1,1.0,1.0,0.409045021515,0,0.0,0.0,0.0,0.324345552516,0.0897243199554,0.23462123256,0.414069872471,0.0897243199554,0.385530755661,64,1.0,-0.108036866323,-1.0,nan,nan,nan,nan,nan,nan,nan,nan,2920.59131734,3265.38231525,nan,3265.79136027,nan,nan,nan,nan
1,311,1,1,1.0,1.0,0.411302983994,0,0.0,0.0,0.0,0.324619660829,0.0897080934858,0.234911567344,0.414327754315,0.0897080934858,0.398405513493,236,0.697004556276,0.169301754335,0.634065852989,nan,nan,nan,nan,nan,nan,nan,nan,2920.59131734,3266.32409716,nan,3266.73540015,nan,nan,nan,nan
1,312,1,1,1.0,1.0,0.413437214796,0,0.0,0.0,0.0,0.324899284453,0.0896980643011,0.235201220152,0.414597348754,0.0896980643011,0.411261740102,379,-0.113535935895,0.478614986251,-0.165970515924,nan,nan,nan,nan,nan,nan,nan,nan,2920.59131734,3267.26589362,nan,3267.67933083,nan,nan,nan,nan
1,313,1,1,1.0,1.0,0.28763449064,0,0.0,0.0,0.0,0.325183972332,0.0896939062163,0.235490066115,0.414877878548,0.0896939062163,0.370791563143,293,0.103830259013,0.378659598285,0.564617056734,nan,nan,nan,nan,nan,nan,nan,nan,2920.59131734,3268.20767924,nan,3268.49531373,nan,nan,nan,nan
1,314,1,1,1.0,1.0,0.393872482702,0,0.0,0.0,0.0,0.325063621429,0.0895751985531,0.235488422876,0.414638819982,0.0895751985531,0.364981396046,111,1.0,-0.298677811705,-0.336106236365,nan,nan,nan,nan,nan,nan,nan,nan,2920.59131734,3269.14947797,nan,3269.54335046,nan,nan,nan,nan
1,315,1,1,1.0,1.0,0.419991578208,0,0.0,0.0,0.0,0.325283458046,0.0895162538256,0.235767204221,0.414799711872,0.0895162538256,0.36716618385,247,0.578947625354,0.219392674348,0.6523805853,nan,nan,nan,nan,nan,nan,nan,nan,2920.59131734,3270.09128156,nan,3270.51127313,nan,nan,nan,nan
1,316,1,1,1.0,1.0,0.374192001531,0,0.0,0.0,0.0,0.325585076263,0.089532758267,0.236052317996,0.41511783453,0.089532758267,0.39601868748,475,0.539218753276,0.343659807328,-1.0,nan,nan,nan,nan,nan,nan,nan,nan,2920.59131734,3271.0330629,nan,3271.4072549,nan,nan,nan,nan
1,317,1,1,1.0,1.0,0.344365799101,0,0.0,0.0,0.0,0.325739383962,0.0894323399634,0.236307043999,0.415171723926,0.0894323399634,0.379516459613,78,1.0,-0.179467652321,-0.739907630878,nan,nan,nan,nan,nan,nan,nan,nan,2920.59131734,3271.97485166,nan,3272.31921746,nan,nan,nan,nan
1,318,1,1,1.0,1.0,0.41056258895,0,0.0,0.0,0.0,0.325798328314,0.0892968493195,0.236501478995,0.415095177634,0.0892968493195,0.376373463194,423,0.135229581944,0.450080889006,-0.750039916123,nan,nan,nan,nan,nan,nan,nan,nan,2920.59131734,3272.91664726,nan,3273.32720985,nan,nan,nan,nan
1,319,1,1,1.0,1.0,0.364800645038,0,0.0,0.0,0.0,0.326065723458,0.089282512314,0.236783211144,0.415348235772,0.089282512314,0.37324301103,106,1.0,-0.287630069369,-0.390564445695,nan,nan,nan,nan,nan,nan,nan,nan,2920.59131734,3273.8584343,nan,3274.22323495,nan,nan,nan,nan
1,320,1,1,1.0,1.0,0.398913840181,0,0.0,0.0,0.0,0.326187531388,0.0891683979709,0.237019133417,0.415355929359,0.0891683979709,0.39142569139,433,0.206536295144,0.436163724167,-1.0,nan,nan,nan,nan,nan,nan,nan,nan,2920.59131734,3274.8002453,nan,3275.19915914,nan,nan,nan,nan
1,321,1,1,1.0,1.0,0.417123794788,0,0.0,0.0,0.0,0.326415513547,0.0891213035521,0.237294209995,0.415536817099,0.0891213035521,0.393612760003,305,0.00361192545304,0.406859252708,0.500196907155,nan,nan,nan,nan,nan,nan,nan,nan,2920.59131734,3275.74200954,nan,3276.15913333,nan,nan,nan,nan
1,322,1,1,1.0,1.0,0.38729531155,0,0.0,0.0,0.0,0.326698976926,0.0891258560977,0.237573120828,0.415824833023,0.0891258560977,0.401110982173,397,-0.0275613476434,0.473159987783,-0.37569455347,nan,nan,nan,nan,nan,nan,nan,nan,2920.59131734,3276.68381084,nan,3277.07110615,nan,nan,nan,nan
1,323,1,1,1.0,1.0,0.413447193219,0,0.0,0.0,0.0,0.326887750554,0.0890509726417,0.237836777912,0.415938723196,0.0890509726417,0.405955433186,319,-0.0891891826932,0.433308674125,0.406137099325,nan,nan,nan,nan,nan,nan,nan,nan,2920.59131734,3277.62563437,nan,3278.03908157,nan,nan,nan,nan
1,324,1,1,1.0,1.0,0.367665007245,0,0.0,0.0,0.0,0.327156568699,0.0890429371128,0.238113631586,0.416199505812,0.0890429371128,0.389469170671,138,1.0,-0.29832987918,-0.0546508148191,nan,nan,nan,nan,nan,nan,nan,nan,2920.59131734,3278.5673989,nan,3278.93506391,nan,nan,nan,nan
1,325,1,1,1.0,1.0,0.29785433691,0,0.0,0.0,0.0,0.327281981821,0.088933471334,0.238348510487,0.416215453155,0.088933471334,0.359655512458,446,0.304696255059,0.41359904426,-1.0,nan,nan,nan,nan,nan,nan,nan,nan,2920.59131734,3279.50919079,nan,3279.80704513,nan,nan,nan,nan
1,326,1,1,1.0,1.0,0.340032335604,0,0.0,0.0,0.0,0.327191155757,0.0888111247339,0.238380031023,0.416002280491,0.0888111247339,0.335183893253,58,1.0,-0.0760896648475,-1.0,nan,nan,nan,nan,nan,nan,nan,nan,2920.59131734,3280.45098924,nan,3280.79102158,nan,nan,nan,nan
1,327,1,1,1.0,1.0,0.254240593291,0,0.0,0.0,0.0,0.327230667079,0.088677238993,0.238553428086,0.415907906072,0.088677238993,0.297375755268,192,1.0,-0.0635997558896,0.421658406928,nan,nan,nan,nan,nan,nan,nan,nan,2920.59131734,3281.39277486,nan,3281.64701546,nan,nan,nan,nan
1,328,1,1,1.0,1.0,0.272417191649,0,0.0,0.0,0.0,0.327006771147,0.0886330814794,0.238373689668,0.415639852627,0.0886330814794,0.288896706848,236,0.697004556276,0.169301754335,0.634065852989,nan,nan,nan,nan,nan,nan,nan,nan,2920.59131734,3282.33457274,nan,3282.60698993,nan,nan,nan,nan
1,329,1,1,1.0,1.0,0.306598809897,0,0.0,0.0,0.0,0.326839830537,0.088548769371,0.238291061166,0.415388599908,0.088548769371,0.277752198279,501,0.7564492333,0.256253544744,-1.0,nan,nan,nan,nan,nan,nan,nan,nan,2920.59131734,3283.27637319,nan,3283.582972,nan,nan,nan,nan
1,330,1,1,1.0,1.0,0.276788002695,0,0.0,0.0,0.0,0.326778120109,0.0884207254842,0.238357394624,0.415198845593,0.0884207254842,0.285268001414,266,0.373577590308,0.295207490188,0.648113769863,nan,nan,nan,nan,nan,nan,nan,nan,2920.59131734,3284.21815453,nan,3284.49494253,nan,nan,nan,nan
1,331,1,1,1.0,1.0,0.302925914642,0,0.0,0.0,0.0,0.326626174463,0.0883291219669,0.238297052496,0.41495529643,0.0883291219669,0.295437575745,38,1.0,0.0306259494545,-1.0,nan,nan,nan,nan,nan,nan,nan,nan,2920.59131734,3285.1599929,nan,3285.46291881,nan,nan,nan,nan
1,332,1,1,1.0,1.0,0.313162581646,0,0.0,0.0,0.0,0.326554355494,0.0882048084351,0.238349547059,0.414759163929,0.0882048084351,0.297625499661,274,0.289344050657,0.322900892411,0.632670269059,nan,nan,nan,nan,nan,nan,nan,nan,2920.59131734,3286.10172777,nan,3286.41489035,nan,nan,nan,nan
1,333,1,1,1.0,1.0,0.331354004913,0,0.0,0.0,0.0,0.326513896963,0.0880745343865,0.238439362576,0.414588431349,0.0880745343865,0.315814167067,167,1.0,-0.195605812978,0.221546716301,nan,nan,nan,nan,nan,nan,nan,nan,2920.59131734,3287.04351995,nan,3287.37487395,nan,nan,nan,nan
1,334,1,1,1.0,1.0,0.34952119505,0,0.0,0.0,0.0,0.326528475601,0.087942191961,0.23858628364,0.414470667562,0.087942191961,0.331345927203,299,0.0516645560415,0.393417669654,0.534378752182,nan,nan,nan,nan,nan,nan,nan,nan,2920.59131734,3287.98531754,nan,3288.33483874,nan,nan,nan,nan
1,335,1,1,1.0,1.0,0.415704300394,0,0.0,0.0,0.0,0.326597522806,0.0878190596074,0.238778463199,0.414416582414,0.0878190596074,0.365526500119,244,0.611372359265,0.206163547436,0.648880721676,nan,nan,nan,nan,nan,nan,nan,nan,2920.59131734,3288.92711941,nan,3289.34282371,nan,nan,nan,nan
1,336,1,1,1.0,1.0,0.393886737525,0,0.0,0.0,0.0,0.326864309566,0.0878225380107,0.239041771555,0.414686847576,0.0878225380107,0.386370744323,172,1.0,-0.170984061773,0.265024678188,nan,nan,nan,nan,nan,nan,nan,nan,2920.59131734,3289.8689096,nan,3290.26279633,nan,nan,nan,nan
1,337,1,1,1.0,1.0,0.428078049095,0,0.0,0.0,0.0,0.327064376515,0.0877675557959,0.239296820719,0.414831932311,0.0877675557959,0.412556362338,265,0.384259149088,0.291568309415,0.649478858709,nan,nan,nan,nan,nan,nan,nan,nan,2920.59131734,3290.81070491,nan,3291.23878296,nan,nan,nan,nan
1,338,1,1,1.0,1.0,0.478272384964,0,0.0,1.0,0.0,0.327365012445,0.0878094287904,0.239555583655,0.415174441236,0.0878094287904,0.433412390528,103,1.0,-0.279537473278,-0.423758835275,nan,nan,nan,nan,nan,nan,nan,nan,2920.59131734,3291.75249709,nan,3292.23076947,nan,nan,nan,nan
1,339,0,0,0.0,1.0,0.672430363018,1,0.0,0.0,1.0,0.327812808803,0.0880624279998,0.239750380803,0.415875236803,0.0880624279998,0.526260265692,444,0.289241202529,0.417409780569,-1.0,147.315018479,302.684981521,-9.50251847927,430.0,0.184725017221,0.440645728776,-0.941904167281,1.20887208206,2920.59131734,3292.69428641,3293.502702,3293.36671678,3295.74463014,3296.74627401,3294.51947935,3295.73629592
1,340,1,1,1.0,1.0,0.424161396455,0,0.0,0.0,0.0,0.328832387366,0.0899020166313,0.238930370734,0.418734403997,0.0899020166313,0.524954714812,192,1.0,-0.0635997558896,0.421658406928,nan,nan,nan,nan,nan,nan,nan,nan,2920.59131734,3296.88650916,nan,3297.31067056,nan,nan,nan,nan
1,341,0,0,1.0,0.0,0.258283543633,0,0.0,0.0,0.0,0.329113593882,0.0899180674213,0.239195526461,0.419031661303,0.0899180674213,0.451625101035,127,1.0,-0.31111021432,-0.167036648065,nan,nan,nan,nan,nan,nan,nan,nan,2920.59131734,3297.82834809,nan,3298.08663164,nan,nan,nan,nan
1,342,1,1,1.0,1.0,0.00448541971855,0,0.0,0.0,0.0,0.328905270205,0.0898676296197,0.239037640585,0.418772899825,0.0898676296197,0.228976786602,389,-0.0691208065164,0.476626077068,-0.280234315682,nan,nan,nan,nan,nan,nan,nan,nan,2920.59131734,3298.77010378,nan,3298.7745892,nan,nan,nan,nan
1,343,0,0,0.0,1.0,0.494654017151,0,0.0,0.0,0.0,0.327953892344,0.0914343904272,0.236519501917,0.419388282771,0.0914343904272,0.252474326834,112,1.0,-0.300501516081,-0.325324861792,nan,nan,nan,nan,nan,nan,nan,nan,2920.59131734,3299.71188911,nan,3300.20654313,nan,nan,nan,nan
1,344,1,1,1.0,1.0,0.280868585687,0,0.0,0.0,0.0,0.32844131961,0.091743224189,0.236698095421,0.420184543799,0.091743224189,0.260002674186,385,-0.0879796604702,0.477733444059,-0.233926720364,nan,nan,nan,nan,nan,nan,nan,nan,2920.59131734,3300.65368671,nan,3300.93455529,nan,nan,nan,nan
1,345,1,1,1.0,1.0,0.251070607803,0,0.0,0.0,0.0,0.328302623592,0.0916452904697,0.236657333123,0.419947914062,0.0916452904697,0.34219773688,142,1.0,-0.289568116499,-0.0146273521697,nan,nan,nan,nan,nan,nan,nan,nan,2920.59131734,3301.59547318,nan,3301.84654379,nan,nan,nan,nan
1,346,0,0,0.0,1.0,0.389285853715,0,0.0,0.0,0.0,0.328078111919,0.0916064029441,0.236471708974,0.419684514863,0.0916064029441,0.307075015735,87,1.0,-0.220959007447,-0.612675615602,nan,nan,nan,nan,nan,nan,nan,nan,2920.59131734,3302.53727021,nan,3302.92655606,nan,nan,nan,nan
1,347,1,1,1.0,1.0,0.327416825341,0,0.0,0.0,0.0,0.328255525663,0.0915327089921,0.236722816671,0.419788234655,0.0915327089921,0.32259109562,411,0.0555201669072,0.463022710015,-0.557054760163,nan,nan,nan,nan,nan,nan,nan,nan,2920.59131734,3303.47906495,nan,3303.80648178,nan,nan,nan,nan
1,348,1,1,1.0,1.0,0.305606960086,0,0.0,0.0,0.0,0.328253101674,0.0914003516694,0.236852750004,0.419653453343,0.0914003516694,0.340769879714,224,0.821619416966,0.11002478857,0.597264883709,nan,nan,nan,nan,nan,nan,nan,nan,2920.59131734,3304.42085742,nan,3304.72646438,nan,nan,nan,nan
1,349,1,1,1.0,1.0,0.195800702786,0,0.0,0.0,0.0,0.328187839018,0.0912766288569,0.236911210161,0.419464467875,0.0912766288569,0.276274829404,88,1.0,-0.225257592204,-0.599932847766,nan,nan,nan,nan,nan,nan,nan,nan,2920.59131734,3305.36266014,nan,3305.55846084,nan,nan,nan,nan
1,350,0,0,1.0,0.0,0.134000952821,0,0.0,0.0,0.0,0.327807416212,0.0914204597949,0.236386956418,0.419227876007,0.0914204597949,0.211802871898,510,0.830554458933,0.220436700166,-1.0,nan,nan,nan,nan,nan,nan,nan,nan,2920.59131734,3306.30444149,nan,3306.43844244,nan,nan,nan,nan
1,351,1,1,1.0,1.0,0.144194570137,0,0.0,0.0,0.0,0.327252096833,0.0918752905227,0.23537680631,0.419127387356,0.0918752905227,0.157998741915,222,0.841778467246,0.0997291618919,0.589484691865,nan,nan,nan,nan,nan,nan,nan,nan,2920.59131734,3307.24623281,nan,3307.39042738,nan,nan,nan,nan
1,352,1,1,1.0,1.0,0.322357506724,0,0.0,0.0,0.0,0.326729075328,0.0922627830721,0.234466292256,0.4189918584,0.0922627830721,0.200184343227,294,0.0948761993654,0.381212130724,0.559858230992,nan,nan,nan,nan,nan,nan,nan,nan,2920.59131734,3308.18802812,nan,3308.51038563,nan,nan,nan,nan
1,353,1,1,1.0,1.0,0.37254699599,0,0.0,0.0,0.0,0.326716620717,0.0921315555019,0.234585065215,0.418848176219,0.0921315555019,0.27969969095,83,1.0,-0.203097876184,-0.665876706514,nan,nan,nan,nan,nan,nan,nan,nan,2920.59131734,3309.12981574,nan,3309.50236274,nan,nan,nan,nan
1,354,1,1,1.0,1.0,0.254743788275,0,0.0,0.0,0.0,0.326846820647,0.0920329256704,0.234813894976,0.418879746317,0.0920329256704,0.31654943033,182,1.0,-0.118523835432,0.347089474713,nan,nan,nan,nan,nan,nan,nan,nan,2920.59131734,3310.07161447,nan,3310.32635826,nan,nan,nan,nan
1,355,1,1,1.0,1.0,0.312924811267,0,0.0,0.0,0.0,0.326642562765,0.0919823395891,0.234660223175,0.418624902354,0.0919823395891,0.313405198511,271,0.320642857732,0.312811632898,0.639400143054,nan,nan,nan,nan,nan,nan,nan,nan,2920.59131734,3311.0134001,nan,3311.32632491,nan,nan,nan,nan
1,356,1,1,1.0,1.0,0.299110186053,0,0.0,0.0,0.0,0.326603812054,0.091855214557,0.234748597497,0.418459026611,0.091855214557,0.288926261865,4,0.879126049628,0.195014037372,-1.0,nan,nan,nan,nan,nan,nan,nan,nan,2920.59131734,3311.95519227,nan,3312.25430246,nan,nan,nan,nan
1,357,1,1,1.0,1.0,0.325397203211,0,0.0,0.0,0.0,0.32652636522,0.0917373232045,0.234789042016,0.418263688425,0.0917373232045,0.312477400177,463,0.440238315199,0.376011795327,-1.0,nan,nan,nan,nan,nan,nan,nan,nan,2920.59131734,3312.89700469,nan,3313.2224019,nan,nan,nan,nan
1,358,1,1,1.0,1.0,0.335489611607,0,0.0,0.0,0.0,0.326523193417,0.0916084075343,0.234914785883,0.418131600951,0.0916084075343,0.31999900029,71,1.0,-0.144504067012,-0.877980773838,nan,nan,nan,nan,nan,nan,nan,nan,2920.59131734,3313.83877748,nan,3314.1742671,nan,nan,nan,nan
1,359,0,0,0.0,1.0,0.441668018582,0,0.0,0.0,0.0,0.326548309434,0.0914812418861,0.235067067548,0.41802955132,0.0914812418861,0.3675182778,296,0.0772713571413,0.386205321608,0.550001308524,nan,nan,nan,nan,nan,nan,nan,nan,2920.59131734,3314.78055997,nan,3315.22222799,nan,nan,nan,nan
1,360,1,1,1.0,1.0,0.347846254357,0,0.0,0.0,0.0,0.326869872868,0.0915552069376,0.23531466593,0.418425079805,0.0915552069376,0.375001294849,195,1.0,-0.0469245268387,0.442396054288,nan,nan,nan,nan,nan,nan,nan,nan,2920.59131734,3315.72236013,nan,3316.07020638,nan,nan,nan,nan
1,361,1,1,1.0,1.0,0.286028543254,0,0.0,0.0,0.0,0.3269283029,0.0914342877324,0.235494015167,0.418362590632,0.0914342877324,0.358514272065,442,0.273907262724,0.421095538958,-1.0,nan,nan,nan,nan,nan,nan,nan,nan,2920.59131734,3316.66415744,nan,3316.95018598,nan,nan,nan,nan
1,362,1,1,1.0,1.0,0.272214203025,0,0.0,0.0,0.0,0.326814692456,0.0913325782367,0.235482114219,0.418147270693,0.0913325782367,0.302029666879,238,0.675741828754,0.178727669763,0.638511091232,nan,nan,nan,nan,nan,nan,nan,nan,2920.59131734,3317.60594762,nan,3317.87816182,nan,nan,nan,nan
1,363,1,1,1.0,1.0,0.242396268412,0,0.0,0.0,0.0,0.326663444563,0.0912511268141,0.235412317749,0.417914571377,0.0912511268141,0.266879671564,193,1.0,-0.0580453890011,0.428658791268,nan,nan,nan,nan,nan,nan,nan,nan,2920.59131734,3318.54773837,nan,3318.79013464,nan,nan,nan,nan
1,364,1,1,1.0,1.0,0.172602703795,0,1.0,0.0,0.0,0.326430662308,0.091232273558,0.23519838875,0.417662935866,0.091232273558,0.229071058411,15,0.965734432428,0.145352784795,-1.0,nan,nan,nan,nan,nan,nan,nan,nan,2920.59131734,3319.48953654,nan,3319.66213924,nan,nan,nan,nan
1,365,1,1,1.0,1.0,0.166765927686,1,0.0,0.0,1.0,0.326006893828,0.0914625952048,0.234544298623,0.417469489033,0.0914625952048,0.193921633298,447,0.312467642152,0.411646472288,-1.0,137.194931123,312.805068877,-1.4918061232,445.0,0.296953900578,0.415520102116,-1.0,1.09203991236,2920.59131734,3320.43135038,3321.23974687,3320.59811631,3323.35667455,3324.35764473,3322.24818315,3323.34833976
1,366,0,0,1.0,0.0,0.275482831988,0,0.0,0.0,0.0,0.325569418646,0.0917163945114,0.233853024135,0.417285813157,0.0917163945114,0.204950487823,343,-0.171388175652,0.463836419185,0.204822810802,nan,nan,nan,nan,nan,nan,nan,nan,2920.59131734,3324.49853247,nan,3324.7740153,nan,nan,nan,nan
1,367,1,1,1.0,1.0,0.237658538506,0,0.0,0.0,0.0,0.325432195121,0.0916280795207,0.2338041156,0.417060274642,0.0916280795207,0.22663576606,134,1.0,-0.304950998219,-0.095144111098,nan,nan,nan,nan,nan,nan,nan,nan,2920.59131734,3325.44032778,nan,3325.67798632,nan,nan,nan,nan
1,368,1,1,1.0,1.0,0.263841780717,0,0.0,0.0,0.0,0.325192376387,0.0916174553578,0.233574921029,0.416809831745,0.0916174553578,0.258994383737,366,-0.155593376329,0.477302029306,-0.0244766492797,nan,nan,nan,nan,nan,nan,nan,nan,2920.59131734,3326.3821191,nan,3326.64596088,nan,nan,nan,nan
1,369,1,1,1.0,1.0,0.218031370197,0,0.0,0.0,0.0,0.325025208551,0.0915484284513,0.2334767801,0.416573637003,0.0915484284513,0.239843896474,88,1.0,-0.225257592204,-0.599932847766,nan,nan,nan,nan,nan,nan,nan,nan,2920.59131734,3327.32392012,nan,3327.54195149,nan,nan,nan,nan
1,370,1,1,1.0,1.0,0.204210187774,0,1.0,0.0,0.0,0.324734464425,0.0915934674604,0.233140996965,0.416327931886,0.0915934674604,0.22869444623,370,-0.144805996584,0.478178727438,-0.0671803333712,nan,nan,nan,nan,nan,nan,nan,nan,2920.59131734,3328.26571287,nan,3328.46992306,nan,nan,nan,nan
1,371,1,1,1.0,1.0,0.150410524453,1,0.0,0.0,1.0,0.324407840369,0.0916836262611,0.232724214108,0.41609146663,0.0916836262611,0.190884027475,418,0.101175887384,0.455961754156,-0.661679309199,151.237042422,298.762957578,4.85670757833,425.0,0.149162615564,0.447529597292,-0.791715667876,1.69217442081,2920.59131734,3329.20750105,3330.0159175,3329.35791158,3332.74123749,3333.74865399,3331.03268087,3332.73290584
1,372,1,1,1.0,1.0,0.130373387714,0,0.0,0.0,0.0,0.323937577353,0.0920041959111,0.231933381442,0.415941773264,0.0920041959111,0.16166469998,341,-0.168535884224,0.46196150489,0.223260112086,nan,nan,nan,nan,nan,nan,nan,nan,2920.59131734,3333.8914533,nan,3334.02182669,nan,nan,nan,nan
