block,trial,time,setsize,freqtrials,colorind,colordeg,colorrgb,correctresp,actualresp,acc,rts,probe_trials,fast_rt_trigger,slow_rt_trigger,rt_trailingavg,rt_runningavg,rt_runningstd,rt_runningslowthresh,rt_runningfastthresh,wm_mousepos,wm_respdeg,wm_colorind,wm_colorrgb,wm_colorhsv,wm_degdiff,wm_rts,timeBlockStart,timeEncArrayOnset,timeResponse,timeProbeOnset,timeProbeOffset
0,0,19:40:29:004000,6,1,126,88.59375,[ 1.         -0.31141175 -0.17740843],1,1,1,0.420375603,0,nan,nan,nan,nan,nan,nan,nan,nan,nan,nan,[ nan  nan  nan],nan,nan,nan,2920.591317,2921.60295,2922.023326,nan,nan
0,1,19:40:29:940000,6,1,412,289.6875,[ 0.06188912  0.46209661 -0.57115894],1,1,1,0.26255058,0,nan,nan,nan,nan,nan,nan,nan,nan,nan,nan,[ nan  nan  nan],nan,nan,nan,2920.591317,2922.544768,2922.807319,nan,nan
0,2,19:40:30:892000,6,1,277,194.765625,[ 0.25847065  0.33263616  0.62482424],1,1,1,0.288747506,0,nan,nan,nan,nan,nan,nan,nan,nan,nan,nan,[ nan  nan  nan],nan,nan,nan,2920.591317,2923.486537,2923.775285,nan,nan
0,3,19:40:31:828000,6,0,133,93.515625,[ 1.         -0.30625957 -0.10533643],0,0,1,0.514934056,0,nan,nan,nan,nan,nan,nan,nan,nan,nan,nan,[ nan  nan  nan],nan,nan,nan,2920.591317,2924.428333,2924.943267,nan,nan
0,4,19:40:32:764000,6,1,74,52.03125,[ 1.         -0.15971516 -0.81044328],1,1,1,0.357125853,0,nan,nan,nan,nan,nan,nan,nan,nan,nan,nan,[ nan  nan  nan],nan,nan,nan,2920.591317,2925.370131,2925.727256,nan,nan
0,5,19:40:33:715000,6,1,152,106.875,[ 1.         -0.25918449  0.08306255],1,1,1,0.367311773,0,nan,nan,nan,nan,nan,nan,nan,nan,nan,nan,[ nan  nan  nan],nan,nan,nan,2920.591317,2926.31192,2926.679232,nan,nan
0,6,19:40:34:651000,6,0,358,251.71875,[-0.17058391  0.47426832  0.05858744],0,0,1,0.417479025,0,nan,nan,nan,nan,nan,nan,nan,nan,nan,nan,[ nan  nan  nan],nan,nan,nan,2920.591317,2927.253716,2927.671195,nan,nan
0,7,19:40:39:799000,6,1,252,177.1875,[ 0.52472169  0.24069367  0.65569401],1,1,1,0.331665045,1,nan,nan,nan,nan,nan,nan,nan,nan,-91.39040126,258,[ 0.45964229  0.26499291  0.65549006],nan,4.202901264,2.150586999,2920.591317,2928.195522,2928.527187,2930.029015,2932.187642
0,8,19:40:40:735000,6,1,429,301.640625,[ 0.17753182  0.44208078 -0.9018852 ],1,1,1,0.453200163,0,nan,nan,nan,nan,nan,nan,nan,nan,nan,nan,[ nan  nan  nan],nan,nan,nan,2920.591317,2933.337853,2933.791053,nan,nan
0,9,19:40:41:687000,6,1,75,52.734375,[ 1.         -0.16471446 -0.79135592],1,1,1,0.319380246,0,nan,nan,nan,nan,nan,nan,nan,nan,nan,nan,[ nan  nan  nan],nan,nan,nan,2920.591317,2934.279654,2934.599034,nan,nan
0,10,19:40:42:623000,6,1,407,286.171875,[ 0.03058863  0.46645515 -0.50257741],1,1,1,0.281586743,0,nan,nan,nan,nan,nan,nan,nan,nan,nan,nan,[ nan  nan  nan],nan,nan,nan,2920.591317,2935.221441,2935.503028,nan,nan
0,11,19:40:43:559000,6,1,63,44.296875,[ 1.         -0.10274464 -1.        ],1,1,1,0.32377301,0,nan,nan,nan,nan,nan,nan,nan,nan,nan,nan,[ nan  nan  nan],nan,nan,nan,2920.591317,2936.163237,2936.48701,nan,nan
0,12,19:40:44:511000,6,0,186,130.78125,[ 1.         -0.09673867  0.37788139],0,0,1,0.50194792,0,nan,nan,nan,nan,nan,nan,nan,nan,nan,nan,[ nan  nan  nan],nan,nan,nan,2920.591317,2937.10503,2937.606978,nan,nan
0,13,19:40:45:447000,6,1,231,162.421875,[ 0.74960968  0.14515127  0.62082146],1,1,1,0.440129639,0,nan,nan,nan,nan,nan,nan,nan,nan,nan,nan,[ nan  nan  nan],nan,nan,nan,2920.591317,2938.046823,2938.486952,nan,nan
0,14,19:40:46:383000,6,0,332,233.4375,[-0.14664709  0.45205424  0.30271419],0,1,0,0.298307355,0,0,0,nan,nan,nan,nan,nan,nan,nan,nan,[ nan  nan  nan],nan,nan,nan,2920.591317,2938.988618,2939.286925,nan,nan
0,15,19:40:47:334000,6,1,192,135,[ 1.         -0.06359976  0.42165841],1,1,1,0.084552999,0,nan,nan,nan,nan,nan,nan,nan,nan,nan,nan,[ nan  nan  nan],nan,nan,nan,2920.591317,2939.930409,2940.014962,nan,nan
0,16,19:40:48:270000,6,1,473,332.578125,[ 0.52259481  0.34939617 -1.        ],1,1,1,0.278685033,0,nan,nan,nan,nan,nan,nan,nan,nan,nan,nan,[ nan  nan  nan],nan,nan,nan,2920.591317,2940.8722,2941.150885,nan,nan
0,17,19:40:49:222000,6,1,87,61.171875,[ 1.         -0.22095901 -0.61267562],1,1,1,0.312869218,0,nan,nan,nan,nan,nan,nan,nan,nan,nan,nan,[ nan  nan  nan],nan,nan,nan,2920.591317,2941.813997,2942.126867,nan,nan
0,18,19:40:50:158000,6,1,250,175.78125,[ 0.54642845  0.23228666  0.65474773],1,1,1,0.331054369,0,nan,nan,nan,nan,nan,nan,nan,nan,nan,nan,[ nan  nan  nan],nan,nan,nan,2920.591317,2942.755789,2943.086843,nan,nan
0,19,19:40:51:094000,6,1,435,305.859375,[ 0.22126383  0.43302706 -1.        ],1,1,1,0.269221548,0,nan,nan,nan,nan,nan,nan,nan,nan,nan,nan,[ nan  nan  nan],nan,nan,nan,2920.591317,2943.697598,2943.96682,nan,nan
0,20,19:40:52:045000,6,1,251,176.484375,[ 0.53557652  0.23650919  0.65528415],1,1,1,0.37543217,0,nan,nan,nan,nan,nan,nan,nan,nan,nan,nan,[ nan  nan  nan],nan,nan,nan,2920.591317,2944.639373,2945.014806,nan,nan
0,21,19:40:52:981000,6,1,100,70.3125,[ 1.         -0.27042709 -0.4574399 ],1,1,1,0.329617769,0,nan,nan,nan,nan,nan,nan,nan,nan,nan,nan,[ nan  nan  nan],nan,nan,nan,2920.591317,2945.581169,2945.910787,nan,nan
0,22,19:40:53:917000,6,1,68,47.8125,[ 1.         -0.12901814 -0.9729032 ],1,1,1,0.30779935,0,nan,nan,nan,nan,nan,nan,nan,nan,nan,nan,[ nan  nan  nan],nan,nan,nan,2920.591317,2946.52296,2946.83076,nan,nan
0,23,19:40:54:869000,6,1,236,165.9375,[ 0.69700456  0.16930175  0.63406585],1,1,1,0.317986125,0,nan,nan,nan,nan,nan,nan,nan,nan,nan,nan,[ nan  nan  nan],nan,nan,nan,2920.591317,2947.464748,2947.782734,nan,nan
0,24,19:40:55:805000,6,1,392,275.625,[-0.05410679  0.47552228 -0.31554984],1,1,1,0.328168054,0,nan,nan,nan,nan,nan,nan,nan,nan,nan,nan,[ nan  nan  nan],nan,nan,nan,2920.591317,2948.406544,2948.734712,nan,nan
0,25,19:40:56:757000,6,1,44,30.9375,[ 1.         -0.00106984 -1.        ],1,1,1,0.322354086,0,nan,nan,nan,nan,nan,nan,nan,nan,nan,nan,[ nan  nan  nan],nan,nan,nan,2920.591317,2949.348337,2949.670692,nan,nan
0,26,19:40:57:693000,6,0,464,326.25,[ 0.44840488  0.37350356 -1.        ],0,0,1,0.404547913,0,nan,nan,nan,nan,nan,nan,nan,nan,nan,nan,[ nan  nan  nan],nan,nan,nan,2920.591317,2950.290125,2950.694673,nan,nan
0,27,19:40:58:629000,6,1,293,206.015625,[ 0.10383026  0.3786596   0.56461706],1,1,1,0.310734416,0,nan,nan,nan,nan,nan,nan,nan,nan,nan,nan,[ nan  nan  nan],nan,nan,nan,2920.591317,2951.231922,2951.542656,nan,nan
0,28,19:41:03:153000,6,1,434,305.15625,[ 0.21388182  0.43461034 -1.        ],1,1,1,0.328912725,1,nan,nan,nan,nan,nan,nan,nan,nan,156.7638385,417,[ 0.0945046   0.45705356 -0.6457202 ],nan,-11.92008849,1.517177193,2920.591317,2952.173718,2952.502631,2954.007227,2955.532434
0,29,19:41:04:089000,6,1,193,135.703125,[ 1.         -0.05804539  0.42865879],1,1,1,0.299547809,0,nan,nan,nan,nan,nan,nan,nan,nan,nan,nan,[ nan  nan  nan],nan,nan,nan,2920.591317,2956.690978,2956.990526,nan,nan
0,30,19:41:05:040000,6,1,64,45,[ 1.         -0.10803687 -1.        ],1,1,1,0.237716983,0,nan,nan,nan,nan,nan,nan,nan,nan,nan,nan,[ nan  nan  nan],nan,nan,nan,2920.591317,2957.63278,2957.870497,nan,nan
0,31,19:41:05:976000,6,1,129,90.703125,[ 1.         -0.31007049 -0.146368  ],1,1,1,0.287923863,0,nan,nan,nan,nan,nan,nan,nan,nan,nan,nan,[ nan  nan  nan],nan,nan,nan,2920.591317,2958.574568,2958.862492,nan,nan
0,32,19:41:10:126000,6,1,410,288.28125,[ 0.04920468  0.46392153 -0.54316189],1,1,1,0.298102085,1,nan,nan,nan,nan,nan,nan,nan,nan,153.5576377,422,[ 0.12832838  0.45131367 -0.73089489],nan,8.161112329,1.158723077,2920.591317,2959.516362,2959.814464,2961.341545,2962.508376
0,33,19:41:11:062000,6,1,66,46.40625,[ 1.         -0.11856871 -1.        ],1,1,1,0.251436671,0,nan,nan,nan,nan,nan,nan,nan,nan,nan,nan,[ nan  nan  nan],nan,nan,nan,2920.591317,2963.666924,2963.918361,nan,nan
0,34,19:41:15:321000,6,1,508,357.1875,[ 0.81419982  0.22863893 -1.        ],1,1,1,0.213658278,1,nan,nan,nan,nan,nan,nan,nan,nan,100.5518095,497,[ 0.72317494  0.2712606  -1.        ],nan,-7.739309506,1.258752242,2920.591317,2964.608673,2964.822331,2966.442256,2967.709064
0,35,19:41:16:257000,6,1,378,265.78125,[-0.11745014  0.47867092 -0.15481012],1,1,1,0.298963647,0,nan,nan,nan,nan,nan,nan,nan,nan,nan,nan,[ nan  nan  nan],nan,nan,nan,2920.591317,2968.859283,2969.158247,nan,nan
0,36,19:41:17:208000,6,1,437,307.265625,[ 0.23613483  0.42977024 -1.        ],1,1,1,0.285063492,0,nan,nan,nan,nan,nan,nan,nan,nan,nan,nan,[ nan  nan  nan],nan,nan,nan,2920.591317,2969.801158,2970.086222,nan,nan
0,37,19:41:18:160000,6,1,260,182.8125,[ 0.43801664  0.27278198  0.65440657],1,1,1,0.30301515,0,nan,nan,nan,nan,nan,nan,nan,nan,nan,nan,[ nan  nan  nan],nan,nan,nan,2920.591317,2970.75119,2971.054206,nan,nan
0,38,19:41:19:096000,6,1,17,11.953125,[ 0.98106915  0.13592191 -1.        ],1,1,1,0.297176663,0,nan,nan,nan,nan,nan,nan,nan,nan,nan,nan,[ nan  nan  nan],nan,nan,nan,2920.591317,2971.692993,2971.99017,nan,nan
0,39,19:41:20:032000,6,1,420,295.3125,[ 0.11466019  0.4536941  -0.6950475 ],1,1,1,0.323355344,0,nan,nan,nan,nan,nan,nan,nan,nan,nan,nan,[ nan  nan  nan],nan,nan,nan,2920.591317,2972.634793,2972.958149,nan,nan
0,40,19:41:20:983000,6,1,372,261.5625,[-0.13866002  0.47845887 -0.08881238],1,1,1,0.301546334,0,nan,nan,nan,nan,nan,nan,nan,nan,nan,nan,[ nan  nan  nan],nan,nan,nan,2920.591317,2973.576586,2973.878132,nan,nan
0,41,19:41:21:919000,6,1,269,189.140625,[ 0.34171297  0.30588835  0.64326235],1,1,1,0.271752632,0,nan,nan,nan,nan,nan,nan,nan,nan,nan,nan,[ nan  nan  nan],nan,nan,nan,2920.591317,2974.518376,2974.790128,nan,nan
0,42,19:41:22:855000,6,0,72,50.625,[ 1.         -0.14960778 -0.85320374],0,1,0,0.313908964,0,0,0,nan,nan,nan,nan,nan,nan,nan,nan,[ nan  nan  nan],nan,nan,nan,2920.591317,2975.460177,2975.774086,nan,nan
0,43,19:41:23:807000,6,1,197,138.515625,[ 1.         -0.0357976   0.45577474],1,1,1,0.268125352,0,nan,nan,nan,nan,nan,nan,nan,nan,nan,nan,[ nan  nan  nan],nan,nan,nan,2920.591317,2976.401957,2976.670082,nan,nan
0,44,19:41:24:743000,6,1,402,282.65625,[ 0.00072492  0.47013996 -0.43781156],1,1,1,0.326287559,0,nan,nan,nan,nan,nan,nan,nan,nan,nan,nan,[ nan  nan  nan],nan,nan,nan,2920.591317,2977.343755,2977.670043,nan,nan
0,45,19:41:25:695000,6,1,130,91.40625,[ 1.         -0.30933315 -0.13607149],1,1,1,0.424476998,0,nan,nan,nan,nan,nan,nan,nan,nan,nan,nan,[ nan  nan  nan],nan,nan,nan,2920.591317,2978.285547,2978.710024,nan,nan
0,46,19:41:26:631000,6,1,79,55.546875,[ 1.         -0.18429602 -0.72417078],1,1,1,0.34666396,0,nan,nan,nan,nan,nan,nan,nan,nan,nan,nan,[ nan  nan  nan],nan,nan,nan,2920.591317,2979.227342,2979.574006,nan,nan
0,47,19:41:27:567000,6,1,159,111.796875,[ 1.         -0.23176597  0.14905501],1,1,1,0.316840894,0,nan,nan,nan,nan,nan,nan,nan,nan,nan,nan,[ nan  nan  nan],nan,nan,nan,2920.591317,2980.169135,2980.485976,nan,nan
0,48,19:41:28:518000,6,1,241,169.453125,[ 0.64365311  0.19260594  0.64425478],1,1,1,0.495026923,0,nan,nan,nan,nan,nan,nan,nan,nan,nan,nan,[ nan  nan  nan],nan,nan,nan,2920.591317,2981.110931,2981.605958,nan,nan
0,49,19:41:29:454000,6,1,109,76.640625,[ 1.         -0.29463833 -0.3577737 ],1,1,1,0.441209013,0,nan,nan,nan,nan,nan,nan,nan,nan,nan,nan,[ nan  nan  nan],nan,nan,nan,2920.591317,2982.052727,2982.493936,nan,nan
0,50,19:41:30:390000,6,1,18,12.65625,[ 0.9886827   0.13116258 -1.        ],1,1,1,0.355400736,0,nan,nan,nan,nan,nan,nan,nan,nan,nan,nan,[ nan  nan  nan],nan,nan,nan,2920.591317,2982.994517,2983.349918,nan,nan
0,51,19:41:31:342000,6,1,264,185.625,[ 0.39496696  0.28788971  0.65071762],1,1,1,0.34958078,0,nan,nan,nan,nan,nan,nan,nan,nan,nan,nan,[ nan  nan  nan],nan,nan,nan,2920.591317,2983.936304,2984.285885,nan,nan
0,52,19:41:32:278000,6,1,420,295.3125,[ 0.11466019  0.4536941  -0.6950475 ],1,1,1,0.367763651,0,nan,nan,nan,nan,nan,nan,nan,nan,nan,nan,[ nan  nan  nan],nan,nan,nan,2920.591317,2984.878101,2985.245865,nan,nan
0,53,19:41:33:229000,6,1,19,13.359375,[ 0.99625917  0.12637453 -1.        ],1,1,1,0.289955174,0,nan,nan,nan,nan,nan,nan,nan,nan,nan,nan,[ nan  nan  nan],nan,nan,nan,2920.591317,2985.819894,2986.109849,nan,nan
0,54,19:41:34:165000,6,1,168,118.125,[ 1.         -0.19079002  0.2303618 ],1,1,1,0.324161026,0,nan,nan,nan,nan,nan,nan,nan,nan,nan,nan,[ nan  nan  nan],nan,nan,nan,2920.591317,2986.761671,2987.085832,nan,nan
0,55,19:41:35:101000,6,0,338,237.65625,[-0.16289136  0.45892871  0.25039916],0,0,1,0.44633647,0,nan,nan,nan,nan,nan,nan,nan,nan,nan,nan,[ nan  nan  nan],nan,nan,nan,2920.591317,2987.703475,2988.149812,nan,nan
0,56,19:41:36:053000,6,1,465,326.953125,[ 0.45658868  0.37096153 -1.        ],1,1,1,0.376500996,0,nan,nan,nan,nan,nan,nan,nan,nan,nan,nan,[ nan  nan  nan],nan,nan,nan,2920.591317,2988.645271,2989.021772,nan,nan
0,57,19:41:36:989000,6,1,306,215.15625,[-0.00395437  0.40897401  0.49412883],1,1,1,0.290709824,0,nan,nan,nan,nan,nan,nan,nan,nan,nan,nan,[ nan  nan  nan],nan,nan,nan,2920.591317,2989.58706,2989.87777,nan,nan
0,58,19:41:37:925000,6,1,492,345.9375,[ 0.68140332  0.28922202 -1.        ],1,1,1,0.244891431,0,nan,nan,nan,nan,nan,nan,nan,nan,nan,nan,[ nan  nan  nan],nan,nan,nan,2920.591317,2990.528856,2990.773747,nan,nan
0,59,19:41:38:877000,6,1,72,50.625,[ 1.         -0.14960778 -0.85320374],1,1,1,0.335072801,0,nan,nan,nan,nan,nan,nan,nan,nan,nan,nan,[ nan  nan  nan],nan,nan,nan,2920.591317,2991.470651,2991.805724,nan,nan
0,60,19:41:39:813000,6,1,473,332.578125,[ 0.52259481  0.34939617 -1.        ],1,1,1,0.33724666,0,nan,nan,nan,nan,nan,nan,nan,nan,nan,nan,[ nan  nan  nan],nan,nan,nan,2920.591317,2992.412441,2992.749688,nan,nan
0,61,19:41:40:764000,6,1,291,204.609375,[ 0.12202764  0.37344194  0.57379193],1,1,1,0.29145193,0,nan,nan,nan,nan,nan,nan,nan,nan,nan,nan,[ nan  nan  nan],nan,nan,nan,2920.591317,2993.354233,2993.645685,nan,nan
0,62,19:41:41:700000,6,1,182,127.96875,[ 1.         -0.11852384  0.34708947],1,1,1,0.397634613,0,nan,nan,nan,nan,nan,nan,nan,nan,nan,nan,[ nan  nan  nan],nan,nan,nan,2920.591317,2994.296021,2994.693656,nan,nan
0,63,19:41:42:636000,6,0,242,170.15625,[ 0.63291185  0.19716118  0.6459214 ],0,0,1,0.567800029,0,nan,nan,nan,nan,nan,nan,nan,nan,nan,nan,[ nan  nan  nan],nan,nan,nan,2920.591317,2995.23782,2995.80562,nan,nan
0,64,19:41:43:588000,6,1,373,262.265625,[-0.13540771  0.47855957 -0.09969749],1,1,1,0.417993053,0,nan,nan,nan,nan,nan,nan,nan,nan,nan,nan,[ nan  nan  nan],nan,nan,nan,2920.591317,2996.179617,2996.59761,nan,nan
0,65,19:41:44:524000,6,0,34,23.90625,[ 1.          0.05144197 -1.        ],0,0,1,0.460172478,0,nan,nan,nan,nan,nan,nan,nan,nan,nan,nan,[ nan  nan  nan],nan,nan,nan,2920.591317,2997.1214,2997.581573,nan,nan
0,66,19:41:45:460000,6,1,510,358.59375,[ 0.83055446  0.2204367  -1.        ],1,1,1,0.366361832,0,nan,nan,nan,nan,nan,nan,nan,nan,nan,nan,[ nan  nan  nan],nan,nan,nan,2920.591317,2998.063198,2998.42956,nan,nan
0,67,19:41:46:411000,6,1,251,176.484375,[ 0.53557652  0.23650919  0.65528415],1,1,1,0.352549488,0,nan,nan,nan,nan,nan,nan,nan,nan,nan,nan,[ nan  nan  nan],nan,nan,nan,2920.591317,2999.004991,2999.35754,nan,nan
0,68,19:41:47:347000,6,1,306,215.15625,[-0.00395437  0.40897401  0.49412883],1,1,1,0.41873858,0,nan,nan,nan,nan,nan,nan,nan,nan,nan,nan,[ nan  nan  nan],nan,nan,nan,2920.591317,2999.946782,3000.365521,nan,nan
0,69,19:41:48:283000,6,1,241,169.453125,[ 0.64365311  0.19260594  0.64425478],1,1,1,0.372935012,0,nan,nan,nan,nan,nan,nan,nan,nan,nan,nan,[ nan  nan  nan],nan,nan,nan,2920.591317,3000.888566,3001.261501,nan,nan
0,70,19:41:49:235000,6,1,103,72.421875,[ 1.         -0.27953747 -0.42375884],1,1,1,0.41510959,0,nan,nan,nan,nan,nan,nan,nan,nan,nan,nan,[ nan  nan  nan],nan,nan,nan,2920.591317,3001.830375,3002.245484,nan,nan
0,71,19:41:50:171000,6,1,14,9.84375,[ 0.95801505  0.15002356 -1.        ],1,1,1,0.377298126,0,nan,nan,nan,nan,nan,nan,nan,nan,nan,nan,[ nan  nan  nan],nan,nan,nan,2920.591317,3002.772163,3003.149461,nan,nan
0,72,19:41:51:123000,6,1,375,263.671875,[-0.1285567   0.47868243 -0.12160516],1,1,1,0.315485546,0,nan,nan,nan,nan,nan,nan,nan,nan,nan,nan,[ nan  nan  nan],nan,nan,nan,2920.591317,3003.713954,3004.02944,nan,nan
0,73,19:41:52:059000,6,1,257,180.703125,[ 0.4704729   0.26103985  0.65584138],1,1,1,0.317668243,0,nan,nan,nan,nan,nan,nan,nan,nan,nan,nan,[ nan  nan  nan],nan,nan,nan,2920.591317,3004.655748,3004.973416,nan,nan
0,74,19:41:52:995000,6,1,414,291.09375,[ 0.07478379  0.46016219 -0.60008918],1,1,1,0.319841532,0,nan,nan,nan,nan,nan,nan,nan,nan,nan,nan,[ nan  nan  nan],nan,nan,nan,2920.591317,3005.597541,3005.917382,nan,nan
0,75,19:41:53:946000,6,1,139,97.734375,[ 1.         -0.29633561 -0.04459929],1,1,1,0.33803039,0,nan,nan,nan,nan,nan,nan,nan,nan,nan,nan,[ nan  nan  nan],nan,nan,nan,2920.591317,3006.53933,3006.87736,nan,nan
0,76,19:41:54:882000,6,1,1,0.703125,[ 0.85493913  0.20787707 -1.        ],1,1,1,0.260214786,0,nan,nan,nan,nan,nan,nan,nan,nan,nan,nan,[ nan  nan  nan],nan,nan,nan,2920.591317,3007.481127,3007.741342,nan,nan
0,77,19:41:55:818000,6,1,319,224.296875,[-0.08918918  0.43330867  0.4061371 ],1,1,1,0.28640259,0,nan,nan,nan,nan,nan,nan,nan,nan,nan,nan,[ nan  nan  nan],nan,nan,nan,2920.591317,3008.422919,3008.709322,nan,nan
0,78,19:41:56:770000,6,1,494,347.34375,[ 0.69812996  0.282144   -1.        ],1,1,1,0.336597781,0,nan,nan,nan,nan,nan,nan,nan,nan,nan,nan,[ nan  nan  nan],nan,nan,nan,2920.591317,3009.364712,3009.70131,nan,nan
0,79,19:41:57:706000,6,1,339,238.359375,[-0.16495584  0.45996923  0.2414231 ],1,1,1,0.282778446,0,nan,nan,nan,nan,nan,nan,nan,nan,nan,nan,[ nan  nan  nan],nan,nan,nan,2920.591317,3010.306499,3010.589277,nan,nan
0,80,19:41:58:658000,6,1,155,108.984375,[ 1.         -0.24798314  0.11161188],1,1,1,0.300965022,0,0,0,0.306780416,0.338686656,0.073221067,0.411907724,0.265465589,nan,nan,nan,[ nan  nan  nan],nan,nan,nan,2920.591317,3011.248293,3011.549259,nan,nan
0,81,19:41:59:594000,6,1,442,310.78125,[ 0.27390726  0.42109554 -1.        ],1,1,1,0.319160437,0,0,0,0.300967968,0.338220957,0.0728868,0.411107757,0.265334157,nan,nan,nan,[ nan  nan  nan],nan,nan,nan,2920.591317,3012.190084,3012.509244,nan,nan
0,82,19:42:00:530000,6,1,306,215.15625,[-0.00395437  0.40897401  0.49412883],1,1,1,0.305301907,0,0,0,0.308475789,0.337988512,0.072471206,0.410459717,0.265517306,nan,nan,nan,[ nan  nan  nan],nan,nan,nan,2920.591317,3013.131919,3013.437221,nan,nan
0,83,19:42:01:481000,6,1,41,28.828125,[ 1.         0.0148395 -1.       ],1,1,1,0.331491421,0,0,0,0.318651255,0.337594697,0.072121529,0.409716227,0.265473168,nan,nan,nan,[ nan  nan  nan],nan,nan,nan,2920.591317,3014.073704,3014.405195,nan,nan
0,84,19:42:02:417000,6,1,414,291.09375,[ 0.07478379  0.46016219 -0.60008918],1,1,1,0.309706074,0,0,0,0.315499801,0.337522039,0.071694005,0.409216044,0.265828034,nan,nan,nan,[ nan  nan  nan],nan,nan,nan,2920.591317,3015.015466,3015.325173,nan,nan
0,85,19:42:03:353000,6,1,130,91.40625,[ 1.         -0.30933315 -0.13607149],1,1,1,0.327899493,0,0,0,0.32303233,0.337194792,0.071334108,0.408528901,0.265860684,nan,nan,nan,[ nan  nan  nan],nan,nan,nan,2920.591317,3015.957258,3016.285158,nan,nan
0,86,19:42:04:305000,6,1,291,204.609375,[ 0.12202764  0.37344194  0.57379193],1,1,1,0.322094648,0,0,0,0.319900072,0.337086708,0.070925163,0.408011871,0.266161544,nan,nan,nan,[ nan  nan  nan],nan,nan,nan,2920.591317,3016.899048,3017.221143,nan,nan
0,87,19:42:05:241000,6,1,397,279.140625,[-0.02756135  0.47315999 -0.37569455],1,1,1,0.316260438,0,0,0,0.32208486,0.336914385,0.070534475,0.40744886,0.266379911,nan,nan,nan,[ nan  nan  nan],nan,nan,nan,2920.591317,3017.840844,3018.157105,nan,nan
0,88,19:42:06:192000,6,1,471,331.171875,[ 0.50601401  0.35499378 -1.        ],1,1,1,0.318438858,0,0,0,0.318931315,0.336679681,0.070166724,0.406846406,0.266512957,nan,nan,nan,[ nan  nan  nan],nan,nan,nan,2920.591317,3018.782645,3019.101084,nan,nan
0,89,19:42:07:128000,6,1,223,156.796875,[ 0.83172397  0.10489059  0.59343224],1,1,1,0.320626402,0,0,0,0.318441899,0.336474728,0.069797901,0.406272629,0.266676827,nan,nan,nan,[ nan  nan  nan],nan,nan,nan,2920.591317,3019.724429,3020.045055,nan,nan
0,90,19:42:08:064000,6,1,32,22.5,[ 1.         0.0617358 -1.       ],1,1,1,0.314798749,0,0,0,0.31795467,0.336298636,0.069428929,0.405727565,0.266869706,nan,nan,nan,[ nan  nan  nan],nan,nan,nan,2920.591317,3020.666236,3020.981035,nan,nan
0,91,19:42:09:016000,6,1,327,229.921875,[-0.12808616  0.44548068  0.34417644],1,1,1,0.309004452,0,0,0,0.314809868,0.336062373,0.069082768,0.405145141,0.266979605,nan,nan,nan,[ nan  nan  nan],nan,nan,nan,2920.591317,3021.608015,3021.91702,nan,nan
0,92,19:42:09:952000,6,1,178,125.15625,[ 1.         -0.13991966  0.31509783],1,1,1,0.279185092,0,0,0,0.300996098,0.335768265,0.068763552,0.404531817,0.267004713,nan,nan,nan,[ nan  nan  nan],nan,nan,nan,2920.591317,3022.549808,3022.828993,nan,nan
0,93,19:42:10:888000,6,1,458,322.03125,[ 0.39968805  0.38805021 -1.        ],1,1,1,0.297357699,0,0,0,0.295182415,0.335159844,0.06864138,0.403801224,0.266518464,nan,nan,nan,[ nan  nan  nan],nan,nan,nan,2920.591317,3023.491613,3023.788971,nan,nan
0,94,19:42:11:840000,6,0,80,56.25,[ 1.         -0.18907571 -0.70896555],0,0,1,0.467555616,0,0,0,0.348032802,0.334757694,0.068385346,0.40314304,0.266372347,nan,nan,nan,[ nan  nan  nan],nan,nan,nan,2920.591317,3024.433393,3024.900948,nan,nan
0,95,19:42:12:776000,6,1,392,275.625,[-0.05410679  0.47552228 -0.31554984],1,1,1,0.429753845,0,0,0,0.398222387,0.336155566,0.069361439,0.405517006,0.266794127,nan,nan,nan,[ nan  nan  nan],nan,nan,nan,2920.591317,3025.375181,3025.804935,nan,nan
0,96,19:42:13:727000,6,1,26,18.28125,[ 1.          0.09209217 -1.        ],1,1,1,0.367931287,0,0,0,0.421746916,0.337130548,0.069650561,0.406781109,0.267479988,nan,nan,nan,[ nan  nan  nan],nan,nan,nan,2920.591317,3026.316976,3026.684907,nan,nan
0,97,19:42:14:663000,6,1,198,139.21875,[ 1.         -0.0302355   0.46232694],1,1,1,0.306128401,0,0,0,0.367937844,0.337448082,0.069360419,0.406808501,0.268087663,nan,nan,nan,[ nan  nan  nan],nan,nan,nan,2920.591317,3027.258772,3027.564901,nan,nan
0,98,19:42:15:599000,6,1,429,301.640625,[ 0.17753182  0.44208078 -0.9018852 ],1,1,1,0.252298232,0,0,0,0.308785974,0.337128493,0.06907738,0.406205874,0.268051113,nan,nan,nan,[ nan  nan  nan],nan,nan,nan,2920.591317,3028.200566,3028.452864,nan,nan
0,99,19:42:16:551000,6,1,263,184.921875,[ 0.4056988   0.28417174  0.65182989],1,1,1,0.302472041,0,0,0,0.286966225,0.336271622,0.069249116,0.405520738,0.267022506,nan,nan,nan,[ nan  nan  nan],nan,nan,nan,2920.591317,3029.142371,3029.444843,nan,nan
0,100,19:42:17:487000,6,1,91,63.984375,[ 1.         -0.2377099  -0.56272232],1,1,1,0.296676034,0,0,0,0.283815436,0.335933626,0.068984024,0.40491765,0.266949603,nan,nan,nan,[ nan  nan  nan],nan,nan,nan,2920.591317,3030.084154,3030.38083,nan,nan
0,101,19:42:18:423000,6,1,298,209.53125,[ 0.06008966  0.39105034  0.53969689],1,1,1,0.298823664,0,0,0,0.299323913,0.335544937,0.06875163,0.404296567,0.266793307,nan,nan,nan,[ nan  nan  nan],nan,nan,nan,2920.591317,3031.025968,3031.324792,nan,nan
0,102,19:42:19:374000,6,1,340,239.0625,[-0.16683717  0.46098011  0.2323764 ],1,1,1,0.341036445,0,0,0,0.312178714,0.335184925,0.068509387,0.403694312,0.266675538,nan,nan,nan,[ nan  nan  nan],nan,nan,nan,2920.591317,3031.967738,3032.308775,nan,nan
0,103,19:42:20:310000,6,1,476,334.6875,[ 0.54754504  0.34073938 -1.        ],1,1,1,0.327222675,0,0,0,0.322360928,0.335241736,0.06817842,0.403420156,0.267063315,nan,nan,nan,[ nan  nan  nan],nan,nan,nan,2920.591317,3032.909531,3033.236754,nan,nan
0,104,19:42:21:262000,6,1,337,236.953125,[-0.16064337  0.45785839  0.25930356],1,1,1,0.297416714,0,0,0,0.321891945,0.335164629,0.06785436,0.403018989,0.267310269,nan,nan,nan,[ nan  nan  nan],nan,nan,nan,2920.591317,3033.851323,3034.148739,nan,nan
0,105,19:42:22:198000,6,1,79,55.546875,[ 1.         -0.18429602 -0.72417078],1,1,1,0.371600761,0,0,0,0.33208005,0.334805125,0.067629918,0.402435043,0.267175207,nan,nan,nan,[ nan  nan  nan],nan,nan,nan,2920.591317,3034.793121,3035.164722,nan,nan
0,106,19:42:23:134000,6,1,11,7.734375,[ 0.9346595  0.1638529 -1.       ],1,1,1,0.325775811,0,0,0,0.331597762,0.335152254,0.067404073,0.402556327,0.267748181,nan,nan,nan,[ nan  nan  nan],nan,nan,nan,2920.591317,3035.734912,3036.060688,nan,nan
0,107,19:42:24:086000,6,1,351,246.796875,[-0.17568629  0.47018527  0.12848998],1,1,1,0.327975899,0,0,0,0.341784157,0.335064624,0.067094427,0.402159051,0.267970196,nan,nan,nan,[ nan  nan  nan],nan,nan,nan,2920.591317,3036.676703,3037.004679,nan,nan
0,108,19:42:25:022000,6,1,186,130.78125,[ 1.         -0.09673867  0.37788139],1,1,1,0.354155435,0,0,0,0.335969048,0.334998987,0.066786534,0.401785521,0.268212453,nan,nan,nan,[ nan  nan  nan],nan,nan,nan,2920.591317,3037.618497,3037.972653,nan,nan
0,109,19:42:25:958000,6,1,308,216.5625,[-0.01868286  0.41309748  0.48168233],1,1,1,0.308337897,0,0,0,0.33015641,0.335174734,0.066504552,0.401679286,0.268670183,nan,nan,nan,[ nan  nan  nan],nan,nan,nan,2920.591317,3038.560292,3038.86863,nan,nan
0,110,19:42:26:909000,6,1,220,154.6875,[ 0.86173155  0.08932726  0.58124768],1,1,1,0.302520793,0,0,0,0.321671375,0.334930763,0.066250551,0.401181314,0.268680212,nan,nan,nan,[ nan  nan  nan],nan,nan,nan,2920.591317,3039.502081,3039.804602,nan,nan
0,111,19:42:27:845000,6,1,320,225,[-0.09465004  0.43494402  0.39870124],1,1,1,0.28871301,0,0,0,0.299857233,0.334638781,0.066022509,0.40066129,0.268616273,nan,nan,nan,[ nan  nan  nan],nan,nan,nan,2920.591317,3040.443877,3040.73259,nan,nan
0,112,19:42:28:797000,6,1,184,129.375,[ 1.         -0.10767189  0.36264005],1,1,1,0.322897194,0,0,0,0.304710332,0.33422873,0.065868931,0.400097661,0.268359799,nan,nan,nan,[ nan  nan  nan],nan,nan,nan,2920.591317,3041.385675,3041.708573,nan,nan
0,113,19:42:29:733000,6,1,400,281.25,[-0.01078748  0.4714273  -0.41269269],1,1,1,0.325076185,0,0,0,0.312228796,0.334128451,0.065585414,0.399713865,0.268543036,nan,nan,nan,[ nan  nan  nan],nan,nan,nan,2920.591317,3042.327459,3042.652535,nan,nan
0,114,19:42:30:669000,6,1,285,200.390625,[ 0.17873435  0.35687868  0.59852701],1,1,1,0.319265352,0,0,0,0.32241291,0.334049045,0.065302581,0.399351626,0.268746464,nan,nan,nan,[ nan  nan  nan],nan,nan,nan,2920.591317,3043.269244,3043.588509,nan,nan
0,115,19:42:31:620000,6,1,367,258.046875,[-0.15309091  0.4775609  -0.03508163],1,1,1,0.337453355,0,0,0,0.327264964,0.333920491,0.065032523,0.398953015,0.268887968,nan,nan,nan,[ nan  nan  nan],nan,nan,nan,2920.591317,3044.211035,3044.548488,nan,nan
0,116,19:42:32:556000,6,1,219,153.984375,[ 0.87162732  0.08408817  0.57695967],1,1,1,0.331646799,0,0,0,0.329455169,0.333950947,0.064752428,0.398703375,0.269198519,nan,nan,nan,[ nan  nan  nan],nan,nan,nan,2920.591317,3045.152827,3045.484474,nan,nan
0,117,19:42:33:492000,6,1,288,202.5,[ 0.15000513  0.36533195  0.58668724],1,1,1,0.365828132,0,0,0,0.344976095,0.333931253,0.064475463,0.398406716,0.26945579,nan,nan,nan,[ nan  nan  nan],nan,nan,nan,2920.591317,3046.094632,3046.46046,nan,nan
0,118,19:42:34:444000,6,1,195,137.109375,[ 1.         -0.04692453  0.44239605],1,1,1,0.392001111,0,0,0,0.363158681,0.334201566,0.064268226,0.398469792,0.26993334,nan,nan,nan,[ nan  nan  nan],nan,nan,nan,2920.591317,3047.036426,3047.428427,nan,nan
0,119,19:42:35:380000,6,1,151,106.171875,[ 1.         -0.26272029  0.07346267],1,1,1,0.490183993,0,0,1,0.416004412,0.334687276,0.064214745,0.398902021,0.270472531,nan,nan,nan,[ nan  nan  nan],nan,nan,nan,2920.591317,3047.978217,3048.468401,nan,nan
0,120,19:42:40:278000,6,1,376,264.375,[-0.12496282  0.47870467 -0.13262763],1,1,1,0.436389746,1,0,0,0.43952495,0.335983082,0.065490344,0.401473426,0.270492738,nan,-152.7004278,345,[-0.17351954  0.46559515  0.18611928],nan,-21.67457221,1.892260691,2920.591317,3048.920008,3049.356398,3050.753522,3052.653801
0,121,19:42:41:214000,6,1,69,48.515625,[ 1.         -0.1342072  -0.93964801],1,1,1,0.367950959,0,0,0,0.431508233,0.336812889,0.065849591,0.40266248,0.270963299,nan,nan,nan,[ nan  nan  nan],nan,nan,nan,2920.591317,3053.812326,3054.180277,nan,nan
0,122,19:42:42:150000,6,0,159,111.796875,[ 1.         -0.23176597  0.14905501],0,1,0,0.28211132,0,0,0,0.362150675,0.33706812,0.06563923,0.402707349,0.27142889,nan,nan,nan,[ nan  nan  nan],nan,nan,nan,2920.591317,3054.754135,3055.036246,nan,nan
0,123,19:42:43:102000,6,1,408,286.875,[ 0.03673793  0.46563766 -0.51593845],1,1,1,0.196319293,0,0,0,0.282127191,0.336621316,0.065557877,0.402179193,0.27106344,nan,nan,nan,[ nan  nan  nan],nan,nan,nan,2920.591317,3055.695913,3055.892233,nan,nan
0,124,19:42:44:038000,6,1,87,61.171875,[ 1.         -0.22095901 -0.61267562],1,1,1,0.214496747,0,0,0,0.230975787,0.335489848,0.066487911,0.401977759,0.269001938,nan,nan,nan,[ nan  nan  nan],nan,nan,nan,2920.591317,3056.637709,3056.852206,nan,nan
0,125,19:42:44:990000,6,1,189,132.890625,[ 1.         -0.08021946  0.40014347],1,1,1,0.216674882,0,1,0,0.209163641,0.334521904,0.067092882,0.401614786,0.267429021,nan,nan,nan,[ nan  nan  nan],nan,nan,nan,2920.591317,3057.579502,3057.796177,nan,nan
0,126,19:42:49:358000,6,1,497,349.453125,[ 0.72317494  0.2712606  -1.        ],1,1,1,0.186883461,1,0,0,0.206018363,0.33358661,0.067639307,0.401225916,0.265947303,nan,111.7502068,481,[ 0.58928949  0.32561186 -1.        ],nan,-11.20333184,1.39220524,2920.591317,3058.521292,3058.708175,3060.346501,3061.746773
0,127,19:42:50:294000,6,1,128,90,[ 1.         -0.31066301 -0.15668979],1,1,1,0.33117525,0,0,0,0.244911198,0.332431467,0.068608894,0.401040361,0.263822573,nan,nan,nan,[ nan  nan  nan],nan,nan,nan,2920.591317,3062.896878,3063.228054,nan,nan
0,128,19:42:51:245000,6,1,262,184.21875,[ 0.41645248  0.28041442  0.65281554],1,1,1,0.26937721,0,0,0,0.26247864,0.332421653,0.068340455,0.400762107,0.264081198,nan,nan,nan,[ nan  nan  nan],nan,nan,nan,2920.591317,3063.838666,3064.108044,nan,nan
0,129,19:42:52:181000,6,1,395,277.734375,[-0.03839842  0.47418351 -0.35142722],1,1,1,0.279561989,0,0,0,0.293371483,0.331932936,0.068299231,0.400232167,0.263633705,nan,nan,nan,[ nan  nan  nan],nan,nan,nan,2920.591317,3064.780461,3065.060023,nan,nan
0,130,19:42:53:133000,6,1,72,50.625,[ 1.         -0.14960778 -0.85320374],1,1,1,0.321740844,0,0,0,0.290226681,0.331530083,0.068189717,0.3997198,0.263340365,nan,nan,nan,[ nan  nan  nan],nan,nan,nan,2920.591317,3065.72226,3066.044001,nan,nan
0,131,19:42:54:069000,6,1,251,176.484375,[ 0.53557652  0.23650919  0.65528415],1,1,1,0.331921917,0,0,0,0.311074917,0.331455356,0.067934296,0.399389651,0.26352106,nan,nan,nan,[ nan  nan  nan],nan,nan,nan,2920.591317,3066.664054,3066.995976,nan,nan
0,132,19:42:55:005000,6,1,100,70.3125,[ 1.         -0.27042709 -0.4574399 ],1,1,1,0.334098912,0,0,0,0.329253891,0.33145889,0.067676492,0.399135382,0.263782398,nan,nan,nan,[ nan  nan  nan],nan,nan,nan,2920.591317,3067.60585,3067.939949,nan,nan
0,133,19:42:55:956000,6,1,165,116.015625,[ 1.         -0.20505638  0.20374544],1,1,1,0.376282898,0,0,0,0.347434575,0.33147874,0.067421974,0.398900714,0.264056765,nan,nan,nan,[ nan  nan  nan],nan,nan,nan,2920.591317,3068.547638,3068.923921,nan,nan
0,134,19:42:56:892000,6,0,499,350.859375,[ 0.73983189  0.26382776 -1.        ],0,0,1,0.506468122,0,0,0,0.405616644,0.331813099,0.067280519,0.399093618,0.26453258,nan,nan,nan,[ nan  nan  nan],nan,nan,nan,2920.591317,3069.489431,3069.995899,nan,nan
0,135,19:42:57:828000,6,1,180,126.5625,[ 1.         -0.12927862  0.33123896],1,1,1,0.348658494,0,0,0,0.410469838,0.33310684,0.068683491,0.401790331,0.264423349,nan,nan,nan,[ nan  nan  nan],nan,nan,nan,2920.591317,3070.431232,3070.77989,nan,nan
0,136,19:42:58:780000,6,1,238,167.34375,[ 0.67574183  0.17872767  0.63851109],1,1,1,0.294890191,0,0,0,0.383338935,0.333221191,0.068443409,0.4016646,0.264777781,nan,nan,nan,[ nan  nan  nan],nan,nan,nan,2920.591317,3071.372979,3071.667869,nan,nan
0,137,19:42:59:716000,6,1,10,7.03125,[ 0.9268115   0.16840058 -1.        ],1,1,1,0.28104392,0,0,0,0.308197535,0.332941402,0.068271173,0.401212576,0.264670229,nan,nan,nan,[ nan  nan  nan],nan,nan,nan,2920.591317,3072.314811,3072.595855,nan,nan
0,138,19:43:00:668000,6,1,432,303.75,[ 0.1992279   0.43768733 -1.        ],1,1,1,0.267231861,0,0,0,0.281055324,0.332565334,0.068165634,0.400730968,0.264399699,nan,nan,nan,[ nan  nan  nan],nan,nan,nan,2920.591317,3073.256602,3073.523834,nan,nan
0,139,19:43:01:604000,6,1,29,20.390625,[ 1.          0.07701739 -1.        ],1,1,1,0.269418549,0,0,0,0.272564777,0.332095309,0.068144058,0.400239367,0.26395125,nan,nan,nan,[ nan  nan  nan],nan,nan,nan,2920.591317,3074.198396,3074.467814,nan,nan
0,140,19:43:02:540000,6,1,84,59.0625,[ 1.         -0.20765784 -0.65219109],1,1,1,0.295587536,0,0,0,0.277412649,0.331647617,0.068105091,0.399752708,0.263542526,nan,nan,nan,[ nan  nan  nan],nan,nan,nan,2920.591317,3075.140189,3075.435777,nan,nan
0,141,19:43:03:491000,6,1,221,155.390625,[ 0.85178146  0.09454116  0.58542294],1,1,1,0.30577032,0,0,0,0.290258802,0.331391872,0.067930585,0.399322458,0.263461287,nan,nan,nan,[ nan  nan  nan],nan,nan,nan,2920.591317,3076.081978,3076.387748,nan,nan
0,142,19:43:04:427000,6,1,455,319.921875,[ 0.37560825  0.39487537 -1.        ],1,1,1,0.339957355,0,0,0,0.313771737,0.331211439,0.067724869,0.398936308,0.263486569,nan,nan,nan,[ nan  nan  nan],nan,nan,nan,2920.591317,3077.023771,3077.363729,nan,nan
0,143,19:43:05:363000,6,1,203,142.734375,[ 1.         -0.00249325  0.49367467],1,1,1,0.350141565,0,0,0,0.331956413,0.331272599,0.067491589,0.398764188,0.26378101,nan,nan,nan,[ nan  nan  nan],nan,nan,nan,2920.591317,3077.965569,3078.31571,nan,nan
0,144,19:43:06:315000,6,0,142,99.84375,[ 1.         -0.28956812 -0.01462735],0,0,1,0.520327507,0,0,0,0.403475476,0.331403633,0.067275086,0.398678719,0.264128548,nan,nan,nan,[ nan  nan  nan],nan,nan,nan,2920.591317,3078.907359,3079.427687,nan,nan
0,145,19:43:07:251000,6,1,189,132.890625,[ 1.         -0.08021946  0.40014347],1,1,1,0.442528154,0,0,0,0.437665742,0.332706557,0.068841699,0.401548255,0.263864858,nan,nan,nan,[ nan  nan  nan],nan,nan,nan,2920.591317,3079.849148,3080.291676,nan,nan
0,146,19:43:08:202000,6,1,476,334.6875,[ 0.54754504  0.34073938 -1.        ],1,1,1,0.372701518,0,0,0,0.445185726,0.333458759,0.069200879,0.402659638,0.26425788,nan,nan,nan,[ nan  nan  nan],nan,nan,nan,2920.591317,3080.790945,3081.163646,nan,nan
0,147,19:43:09:138000,6,1,258,181.40625,[ 0.45964229  0.26499291  0.65549006],1,1,1,0.334929112,0,0,0,0.383386261,0.333725717,0.069040495,0.402766212,0.264685222,nan,nan,nan,[ nan  nan  nan],nan,nan,nan,2920.591317,3081.7327,3082.067629,nan,nan
0,148,19:43:10:074000,6,1,461,324.140625,[ 0.42395965  0.38092737 -1.        ],1,1,1,0.32907523,0,0,0,0.34556862,0.333733848,0.068806925,0.402540773,0.264926923,nan,nan,nan,[ nan  nan  nan],nan,nan,nan,2920.591317,3082.674534,3083.003609,nan,nan
0,149,19:43:11:026000,6,0,124,87.1875,[ 1.         -0.31157719 -0.19822652],0,0,1,0.491247972,0,0,0,0.385084105,0.333702582,0.068576696,0.402279278,0.265125886,nan,nan,nan,[ nan  nan  nan],nan,nan,nan,2920.591317,3083.616331,3084.107579,nan,nan
0,150,19:43:11:962000,6,1,357,251.015625,[-0.17179183  0.47376752  0.06873903],1,1,1,0.445425017,0,0,0,0.421916073,0.334752885,0.069539763,0.404292648,0.265213122,nan,nan,nan,[ nan  nan  nan],nan,nan,nan,2920.591317,3084.558122,3085.003547,nan,nan
0,151,19:43:12:898000,6,1,80,56.25,[ 1.         -0.18907571 -0.70896555],1,1,1,0.423619428,0,0,0,0.453430806,0.335485813,0.06988799,0.405373803,0.265597823,nan,nan,nan,[ nan  nan  nan],nan,nan,nan,2920.591317,3085.499909,3085.923529,nan,nan
0,152,19:43:13:850000,6,1,193,135.703125,[ 1.         -0.05804539  0.42865879],1,1,1,0.601756421,0,0,1,0.490266956,0.336065639,0.070021164,0.406086803,0.266044475,nan,nan,nan,[ nan  nan  nan],nan,nan,nan,2920.591317,3086.441703,3087.04346,nan,nan
0,153,19:43:18:062000,6,1,24,16.875,[ 1.          0.10201906 -1.        ],1,1,1,0.531983098,1,0,0,0.519119649,0.33780218,0.073001954,0.410804134,0.264800227,nan,83.11357267,10,[ 0.9268115   0.16840058 -1.        ],nan,-9.988572669,1.225452712,2920.591317,3087.383494,3087.915478,3089.208673,3090.442174
0,154,19:43:18:998000,6,1,423,297.421875,[ 0.13522958  0.45008089 -0.75003992],1,1,1,0.234993744,0,0,0,0.456244421,0.339063095,0.074417305,0.4134804,0.264645791,nan,nan,nan,[ nan  nan  nan],nan,nan,nan,2920.591317,3091.592396,3091.82739,nan,nan
0,155,19:43:19:934000,6,1,368,258.75,[-0.15045717  0.47779326 -0.04573418],1,1,1,0.229182626,0,0,0,0.332053156,0.33839168,0.074643349,0.413035029,0.263748331,nan,nan,nan,[ nan  nan  nan],nan,nan,nan,2920.591317,3092.534182,3092.763365,nan,nan
0,156,19:43:20:885000,6,1,168,118.125,[ 1.         -0.19079002  0.2303618 ],1,1,1,0.19139511,0,1,0,0.218523827,0.337691622,0.074912459,0.412604081,0.262779163,nan,nan,nan,[ nan  nan  nan],nan,nan,nan,2920.591317,3093.475975,3093.66737,nan,nan
0,157,19:43:24:957000,6,1,211,148.359375,[ 0.94867577  0.04136069  0.53868916],1,1,1,0.145581849,1,0,0,0.188719862,0.336759797,0.075575039,0.412334837,0.261184758,nan,-47.2259239,195,[ 1.         -0.04692453  0.44239605],nan,-11.1334511,1.083759576,2920.591317,3094.417769,3094.563351,3096.242964,3097.334771
0,158,19:43:25:893000,6,1,33,23.203125,[ 1.          0.05659903 -1.        ],1,1,1,0.301931784,0,0,0,0.212969581,0.33554981,0.076845924,0.412395734,0.258703886,nan,nan,nan,[ nan  nan  nan],nan,nan,nan,2920.591317,3098.493315,3098.795247,nan,nan
0,159,19:43:26:844000,6,0,345,242.578125,[-0.17351954  0.46559515  0.18611928],0,1,0,0.208153354,0,0,0,0.218555662,0.335338376,0.076649978,0.411988354,0.258688398,nan,nan,nan,[ nan  nan  nan],nan,nan,nan,2920.591317,3099.435066,3099.643219,nan,nan
0,160,19:43:27:780000,6,1,273,191.953125,[ 0.29973296  0.31957719  0.63503803],1,1,1,0.082306155,0,0,0,0.197463764,0.33454347,0.077064696,0.411608165,0.257478774,nan,nan,nan,[ nan  nan  nan],nan,nan,nan,2920.591317,3100.376903,3100.459209,nan,nan
0,161,19:43:28:716000,6,1,442,310.78125,[ 0.27390726  0.42109554 -1.        ],1,1,1,0.076529249,0,0,0,0.122329586,0.332976778,0.079339793,0.412316572,0.253636985,nan,nan,nan,[ nan  nan  nan],nan,nan,nan,2920.591317,3101.318689,3101.395219,nan,nan
0,162,19:43:29:668000,6,1,70,49.21875,[ 1.         -0.13936985 -0.90643691],1,1,1,0.054716533,0,1,0,0.071183979,0.331393769,0.081605141,0.412998909,0.249788628,nan,nan,nan,[ nan  nan  nan],nan,nan,nan,2920.591317,3102.260464,3102.31518,nan,nan
0,163,19:43:30:604000,6,0,119,83.671875,[ 1.         -0.30944633 -0.2507109 ],0,1,0,0.192835131,0,0,0,0.108026971,0.329696362,0.084174202,0.413870564,0.245522161,nan,nan,nan,[ nan  nan  nan],nan,nan,nan,2920.591317,3103.202301,3103.395136,nan,nan
0,164,19:43:31:556000,6,1,266,187.03125,[ 0.37357759  0.29520749  0.64811377],1,1,1,0.203050701,0,0,0,0.150200789,0.328861843,0.08459084,0.413452683,0.244271003,nan,nan,nan,[ nan  nan  nan],nan,nan,nan,2920.591317,3104.144077,3104.347128,nan,nan
0,165,19:43:32:492000,6,1,493,346.640625,[ 0.68976908  0.28570078 -1.        ],1,1,1,0.285226282,0,0,0,0.227037372,0.328099351,0.084897535,0.412996886,0.243201816,nan,nan,nan,[ nan  nan  nan],nan,nan,nan,2920.591317,3105.085863,3105.371089,nan,nan
0,166,19:43:33:428000,6,1,353,248.203125,[-0.17504126  0.47149007  0.10879922],1,1,1,0.335404083,0,0,0,0.274560355,0.327841079,0.084706425,0.412547504,0.243134655,nan,nan,nan,[ nan  nan  nan],nan,nan,nan,2920.591317,3106.027657,3106.363061,nan,nan
0,167,19:43:34:379000,6,1,458,322.03125,[ 0.39968805  0.38805021 -1.        ],1,1,1,0.377588639,0,0,0,0.332739668,0.327886367,0.084454448,0.412340814,0.243431919,nan,nan,nan,[ nan  nan  nan],nan,nan,nan,2920.591317,3106.969453,3107.347041,nan,nan
0,168,19:43:35:315000,6,1,321,225.703125,[-0.09994335  0.43654647  0.39117498],1,1,1,0.363785987,0,0,0,0.358926236,0.328182214,0.08428947,0.412471684,0.243892744,nan,nan,nan,[ nan  nan  nan],nan,nan,nan,2920.591317,3107.911241,3108.275027,nan,nan
0,169,19:43:36:251000,6,1,225,158.203125,[ 0.81146625  0.11513113  0.60098195],1,1,1,0.349969366,0,0,0,0.363781331,0.328392887,0.084084074,0.412476961,0.244308813,nan,nan,nan,[ nan  nan  nan],nan,nan,nan,2920.591317,3108.853036,3109.203006,nan,nan
0,170,19:43:37:203000,6,1,72,50.625,[ 1.         -0.14960778 -0.85320374],1,1,1,0.400060497,0,0,0,0.37127195,0.328519807,0.083852637,0.412372445,0.24466717,nan,nan,nan,[ nan  nan  nan],nan,nan,nan,2920.591317,3109.794907,3110.194967,nan,nan
0,171,19:43:38:139000,6,1,3,2.109375,[ 0.87108718  0.19933511 -1.        ],1,1,1,0.386336248,0,0,0,0.378788704,0.328938174,0.083784852,0.412723027,0.245153322,nan,nan,nan,[ nan  nan  nan],nan,nan,nan,2920.591317,3110.736618,3111.122954,nan,nan
0,172,19:43:39:090000,6,1,337,236.953125,[-0.16064337  0.45785839  0.25930356],1,1,1,0.388524077,0,0,0,0.391640274,0.329271884,0.083654833,0.412926717,0.245617051,nan,nan,nan,[ nan  nan  nan],nan,nan,nan,2920.591317,3111.678415,3112.066939,nan,nan
0,173,19:43:40:026000,6,0,228,160.3125,[ 0.78072981  0.13027695  0.61143314],0,0,1,0.518684212,0,0,0,0.431181512,0.329614382,0.083533561,0.413147943,0.246080821,nan,nan,nan,[ nan  nan  nan],nan,nan,nan,2920.591317,3112.620206,3113.138891,nan,nan
0,174,19:43:40:962000,6,1,142,99.84375,[ 1.         -0.28956812 -0.01462735],1,1,1,0.480873888,0,0,0,0.462694059,0.33070099,0.084510457,0.415211447,0.246190533,nan,nan,nan,[ nan  nan  nan],nan,nan,nan,2920.591317,3113.561999,3114.042873,nan,nan
0,175,19:43:41:914000,6,1,264,185.625,[ 0.39496696  0.28788971  0.65071762],1,1,1,0.427079357,0,0,0,0.475545819,0.331559121,0.085025511,0.416584632,0.24653361,nan,nan,nan,[ nan  nan  nan],nan,nan,nan,2920.591317,3114.503779,3114.930858,nan,nan
0,176,19:43:42:850000,6,1,341,239.765625,[-0.16853588  0.4619615   0.22326011],1,1,1,0.421257406,0,0,1,0.443070217,0.33210185,0.085087065,0.417188915,0.247014784,nan,nan,nan,[ nan  nan  nan],nan,nan,nan,2920.591317,3115.445586,3115.866844,nan,nan
0,177,19:43:47:093000,6,1,67,47.109375,[ 1.         -0.12380467 -1.        ],1,1,1,0.55141184,1,0,0,0.466582867,0.332605553,0.085109107,0.41771466,0.247496446,nan,54.31708607,51,[ 1.         -0.03851602 -1.        ],nan,-11.42646107,1.250462212,2920.591317,3116.387416,3116.938827,3118.212557,3119.471063
0,178,19:43:48:029000,6,1,12,8.4375,[ 0.94247669  0.15927395 -1.        ],1,1,1,0.285114525,0,0,0,0.419261257,0.333834802,0.086431026,0.420265828,0.247403776,nan,nan,nan,[ nan  nan  nan],nan,nan,nan,2920.591317,3120.629608,3120.914723,nan,nan
0,179,19:43:48:981000,6,0,126,88.59375,[ 1.         -0.31141175 -0.17740843],0,1,0,0.231300321,0,0,0,0.355942228,0.333562622,0.086265724,0.419828346,0.247296897,nan,nan,nan,[ nan  nan  nan],nan,nan,nan,2920.591317,3121.571394,3121.802694,nan,nan
0,180,19:43:49:917000,6,1,438,307.96875,[ 0.24362256  0.42809644 -1.        ],1,1,1,0.153500398,0,0,0,0.223305081,0.332994498,0.086360911,0.419355409,0.246633587,nan,nan,nan,[ nan  nan  nan],nan,nan,nan,2920.591317,3122.513192,3122.666692,nan,nan
0,181,19:43:50:853000,6,1,261,183.515625,[ 0.42722581  0.27661781  0.65367446],1,1,1,0.20368447,0,0,0,0.19616173,0.332002818,0.087143667,0.419146485,0.244859151,nan,nan,nan,[ nan  nan  nan],nan,nan,nan,2920.591317,3123.45499,3123.658674,nan,nan
0,182,19:43:51:805000,6,1,104,73.125,[ 1.         -0.28235148 -0.41264457],1,1,1,0.25384716,0,1,0,0.203677343,0.331297772,0.087420058,0.41871783,0.243877714,nan,nan,nan,[ nan  nan  nan],nan,nan,nan,2920.591317,3124.396784,3124.650632,nan,nan
0,183,19:43:56:235000,6,1,245,172.265625,[ 0.6005777   0.21061011  0.65017283],1,1,1,0.29605652,1,0,0,0.25119605,0.330874545,0.087367646,0.418242191,0.243506899,nan,-88.33166255,254,[ 0.50301113  0.24894782  0.65613358],nan,6.066037552,1.450471221,2920.591317,3125.338569,3125.634625,3127.163768,3128.62228
0,184,19:43:57:171000,6,1,495,348.046875,[ 0.70648511  0.27855169 -1.        ],1,1,1,0.269975342,0,0,0,0.273293007,0.330685316,0.087167506,0.417852822,0.24351781,nan,nan,nan,[ nan  nan  nan],nan,nan,nan,2920.591317,3129.772545,3130.042521,nan,nan
0,185,19:43:58:123000,6,1,418,293.90625,[ 0.10117589  0.45596175 -0.66167931],1,1,1,0.264217823,0,0,0,0.276749895,0.330357154,0.087045493,0.417402647,0.243311661,nan,nan,nan,[ nan  nan  nan],nan,nan,nan,2920.591317,3130.714284,3130.978502,nan,nan
0,186,19:43:59:059000,6,1,116,81.5625,[ 1.         -0.30644692 -0.28251544],1,1,1,0.250393789,0,0,0,0.261528985,0.330001566,0.086945809,0.416947375,0.243055758,nan,nan,nan,[ nan  nan  nan],nan,nan,nan,2920.591317,3131.656088,3131.906481,nan,nan
0,187,19:44:00:010000,6,1,72,50.625,[ 1.         -0.14960778 -0.85320374],1,1,1,0.284573697,0,0,0,0.266395103,0.329575856,0.086907173,0.416483029,0.242668683,nan,nan,nan,[ nan  nan  nan],nan,nan,nan,2920.591317,3132.597881,3132.882455,nan,nan
0,188,19:44:00:946000,6,1,239,168.046875,[ 0.66506983  0.18338886  0.64054927],1,1,1,0.310756369,0,0,0,0.281907952,0.329336483,0.086737518,0.416074001,0.242598966,nan,nan,nan,[ nan  nan  nan],nan,nan,nan,2920.591317,3133.539675,3133.850431,nan,nan
0,189,19:44:01:882000,6,1,299,210.234375,[ 0.05166456  0.39341767  0.53437875],1,1,1,0.312935645,0,0,0,0.302755237,0.329238176,0.08651825,0.415756425,0.242719926,nan,nan,nan,[ nan  nan  nan],nan,nan,nan,2920.591317,3134.481465,3134.794401,nan,nan
0,190,19:44:02:834000,6,1,119,83.671875,[ 1.         -0.30944633 -0.2507109 ],1,1,1,0.355111933,0,0,0,0.326267982,0.329152373,0.086298332,0.415450705,0.242854041,nan,nan,nan,[ nan  nan  nan],nan,nan,nan,2920.591317,3135.423256,3135.778368,nan,nan
0,191,19:44:03:770000,6,0,39,27.421875,[ 1.          0.02537899 -1.        ],0,1,0,0.317313298,0,0,0,0.328453625,0.329288287,0.08609251,0.415380797,0.243195777,nan,nan,nan,[ nan  nan  nan],nan,nan,nan,2920.591317,3136.36505,3136.682363,nan,nan
0,192,19:44:04:706000,6,1,479,336.796875,[ 0.57257215  0.33176822 -1.        ],1,1,1,0.167490357,0,0,0,0.279971863,0.329225917,0.085872344,0.415098261,0.243353573,nan,nan,nan,[ nan  nan  nan],nan,nan,nan,2920.591317,3137.306853,3137.474343,nan,nan
0,193,19:44:05:657000,6,1,202,142.03125,[ 1.         -0.00802826  0.48759698],1,1,1,0.257716487,0,0,0,0.247506714,0.328387909,0.086433127,0.414821036,0.241954782,nan,nan,nan,[ nan  nan  nan],nan,nan,nan,2920.591317,3138.248634,3138.50635,nan,nan
0,194,19:44:06:593000,6,1,317,222.890625,[-0.07777284  0.42993861  0.42073361],1,1,1,0.331872025,0,0,0,0.252359623,0.328023623,0.086358489,0.414382112,0.241665135,nan,nan,nan,[ nan  nan  nan],nan,nan,nan,2920.591317,3139.190427,3139.522299,nan,nan
0,195,19:44:07:545000,6,0,43,30.234375,[ 1.          0.00424534 -1.        ],0,0,1,0.526060508,0,0,0,0.371883007,0.328043359,0.086137211,0.414180569,0.241906148,nan,nan,nan,[ nan  nan  nan],nan,nan,nan,2920.591317,3140.132218,3140.658279,nan,nan
0,196,19:44:08:481000,6,1,210,147.65625,[ 0.9580225   0.0359305   0.53342186],1,1,1,0.440243107,0,0,0,0.432725213,0.32905365,0.08706778,0.41612143,0.241985871,nan,nan,nan,[ nan  nan  nan],nan,nan,nan,2920.591317,3141.074006,3141.514249,nan,nan
0,197,19:44:09:417000,6,1,31,21.796875,[ 1.          0.06685157 -1.        ],1,1,1,0.35440689,0,0,0,0.440236835,0.329618064,0.087205248,0.416823312,0.242412816,nan,nan,nan,[ nan  nan  nan],nan,nan,nan,2920.591317,3142.015838,3142.370245,nan,nan
0,198,19:44:10:369000,6,1,301,211.640625,[ 0.03515994  0.39804276  0.52341451],1,1,1,0.380620067,0,0,0,0.391756688,0.32974326,0.087002501,0.416745761,0.242740759,nan,nan,nan,[ nan  nan  nan],nan,nan,nan,2920.591317,3142.957598,3143.338219,nan,nan
0,199,19:44:11:305000,6,1,137,96.328125,[ 1.         -0.30019022 -0.06473166],1,1,1,0.446785497,0,0,0,0.393937485,0.329998922,0.086858159,0.416857081,0.243140763,nan,nan,nan,[ nan  nan  nan],nan,nan,nan,2920.591317,3143.899393,3144.346178,nan,nan
0,200,19:44:12:241000,6,1,465,326.953125,[ 0.45658868  0.37096153 -1.        ],1,1,1,0.536951186,0,0,1,0.454785583,0.330582855,0.087031446,0.417614301,0.243551409,nan,nan,nan,[ nan  nan  nan],nan,nan,nan,2920.591317,3144.841202,3145.378153,nan,nan
0,201,19:44:16:905000,6,1,111,78.046875,[ 1.         -0.29867781 -0.33610624],1,1,1,0.435159841,1,0,0,0.472965508,0.331609563,0.088020535,0.419630098,0.243589028,nan,-6.246315621,137,[ 1.         -0.30019022 -0.06473166],nan,18.19944062,1.667176609,2920.591317,3145.782974,3146.218134,3147.61649,3149.291711
0,202,19:44:17:841000,6,1,167,117.421875,[ 1.         -0.19560581  0.22154672],1,1,1,0.240108941,0,0,0,0.404073323,0.332122188,0.088102666,0.420224854,0.244019522,nan,nan,nan,[ nan  nan  nan],nan,nan,nan,2920.591317,3150.441932,3150.682041,nan,nan
0,203,19:44:18:793000,6,1,510,358.59375,[ 0.83055446  0.2204367  -1.        ],1,1,1,0.250287448,0,0,0,0.308518743,0.331668921,0.08812119,0.419790111,0.243547732,nan,nan,nan,[ nan  nan  nan],nan,nan,nan,2920.591317,3151.38372,3151.634007,nan,nan
0,204,19:44:19:729000,6,0,68,47.8125,[ 1.         -0.12901814 -0.9729032 ],0,1,0,0.196478947,0,0,0,0.228958445,0.331269992,0.088088506,0.419358498,0.243181486,nan,nan,nan,[ nan  nan  nan],nan,nan,nan,2920.591317,3152.325516,3152.521995,nan,nan
0,205,19:44:20:680000,6,1,317,222.890625,[-0.07777284  0.42993861  0.42073361],1,1,1,0.214663813,0,0,0,0.220476736,0.330612475,0.088373799,0.418986274,0.242238676,nan,nan,nan,[ nan  nan  nan],nan,nan,nan,2920.591317,3153.267309,3153.481972,nan,nan
0,206,19:44:21:616000,6,1,239,168.046875,[ 0.66506983  0.18338886  0.64054927],1,1,1,0.264851877,0,0,0,0.225331546,0.330049617,0.088526617,0.418576234,0.241523001,nan,nan,nan,[ nan  nan  nan],nan,nan,nan,2920.591317,3154.209098,3154.47395,nan,nan
0,207,19:44:22:552000,6,1,359,252.421875,[-0.16922234  0.47474188  0.0483828 ],1,1,1,0.323030334,0,0,0,0.267515341,0.329734653,0.088428151,0.418162804,0.241306501,nan,nan,nan,[ nan  nan  nan],nan,nan,nan,2920.591317,3155.150915,3155.473945,nan,nan
0,208,19:44:23:504000,6,0,478,336.09375,[ 0.5642225   0.33479366 -1.        ],0,0,1,0.437186875,0,0,0,0.341689695,0.32970242,0.088216547,0.417918967,0.241485874,nan,nan,nan,[ nan  nan  nan],nan,nan,nan,2920.591317,3156.09271,3156.529897,nan,nan
0,209,19:44:24:440000,6,1,249,175.078125,[ 0.55727555  0.22802627  0.65408488],1,1,1,0.431388302,0,0,0,0.397201837,0.3302167,0.088317249,0.418533949,0.241899451,nan,nan,nan,[ nan  nan  nan],nan,nan,nan,2920.591317,3157.034483,3157.465871,nan,nan
0,210,19:44:25:376000,6,1,51,35.859375,[ 1.         -0.03851602 -1.        ],1,1,1,0.433567008,0,0,0,0.434047395,0.330698469,0.088381577,0.419080047,0.242316892,nan,nan,nan,[ nan  nan  nan],nan,nan,nan,2920.591317,3157.97628,3158.409847,nan,nan
0,211,19:44:26:327000,6,1,475,333.984375,[ 0.53921875  0.34365981 -1.        ],1,1,1,0.419772339,0,0,1,0.42824255,0.331185998,0.088454488,0.419640486,0.24273151,nan,nan,nan,[ nan  nan  nan],nan,nan,nan,2920.591317,3158.918066,3159.337838,nan,nan
0,212,19:44:30:586000,6,1,0,0,[ 0.84683171  0.21209757 -1.        ],1,1,1,0.429949136,1,0,0,0.427762828,0.331603858,0.088454124,0.420057982,0.243149735,nan,95.95245944,504,[ 0.78128615  0.24462829 -1.        ],nan,-5.952459438,1.267126945,2920.591317,3159.859858,3160.289807,3161.685038,3162.960218
0,213,19:44:31:522000,6,0,461,324.140625,[ 0.42395965  0.38092737 -1.        ],0,1,0,0.282965469,0,0,0,0.377562315,0.332065573,0.088501939,0.420567512,0.243563634,nan,nan,nan,[ nan  nan  nan],nan,nan,nan,2920.591317,3164.118752,3164.401718,nan,nan
0,214,19:44:32:474000,6,1,216,151.875,[ 0.90097501  0.06822711  0.56342658],1,1,1,0.133155642,0,0,0,0.282023416,0.331836133,0.088358391,0.420194524,0.243477742,nan,nan,nan,[ nan  nan  nan],nan,nan,nan,2920.591317,3165.060582,3165.193737,nan,nan
0,215,19:44:33:410000,6,0,502,352.96875,[ 0.76474094  0.25241358 -1.        ],0,1,0,0.151341364,0,0,0,0.189154158,0.330912038,0.089183173,0.420095211,0.241728865,nan,nan,nan,[ nan  nan  nan],nan,nan,nan,2920.591317,3166.002343,3166.153684,nan,nan
0,216,19:44:34:346000,6,1,250,175.78125,[ 0.54642845  0.23228666  0.65474773],1,1,1,0.113536172,0,0,0,0.132677726,0.330080692,0.089807629,0.419888321,0.240273064,nan,nan,nan,[ nan  nan  nan],nan,nan,nan,2920.591317,3166.944139,3167.057676,nan,nan
0,217,19:44:35:297000,6,0,35,24.609375,[ 1.          0.04626536 -1.        ],0,1,0,0.187657498,0,0,0,0.150845011,0.329082791,0.090792822,0.419875614,0.238289969,nan,nan,nan,[ nan  nan  nan],nan,nan,nan,2920.591317,3167.885976,3168.073634,nan,nan
0,218,19:44:36:233000,6,1,128,90,[ 1.         -0.31066301 -0.15668979],1,1,1,0.245894685,0,0,0,0.182362785,0.328434051,0.091087049,0.4195211,0.237347002,nan,nan,nan,[ nan  nan  nan],nan,nan,nan,2920.591317,3168.827717,3169.073611,nan,nan
0,219,19:44:37:169000,6,1,91,63.984375,[ 1.         -0.2377099  -0.56272232],1,1,1,0.480076189,0,0,0,0.304542791,0.328057159,0.091049062,0.419106221,0.237008097,nan,nan,nan,[ nan  nan  nan],nan,nan,nan,2920.591317,3169.769521,3170.249598,nan,nan
0,220,19:44:38:121000,6,1,384,270,[-0.09247501  0.47794532 -0.22247927],1,1,1,0.354254934,0,0,0,0.360075269,0.328748155,0.091415629,0.420163784,0.237332526,nan,nan,nan,[ nan  nan  nan],nan,nan,nan,2920.591317,3170.711314,3171.065568,nan,nan
0,221,19:44:39:057000,6,1,32,22.5,[ 1.         0.0617358 -1.       ],1,1,1,0.308446234,0,0,0,0.380925786,0.32886357,0.091224635,0.420088206,0.237638935,nan,nan,nan,[ nan  nan  nan],nan,nan,nan,2920.591317,3171.653105,3171.961552,nan,nan
0,222,19:44:40:009000,6,1,480,337.5,[ 0.58092807  0.32870764 -1.        ],1,1,1,0.302625708,0,0,0,0.321775625,0.3287716,0.091029211,0.419800811,0.237742389,nan,nan,nan,[ nan  nan  nan],nan,nan,nan,2920.591317,3172.594896,3172.897522,nan,nan
0,223,19:44:40:945000,6,1,215,151.171875,[ 0.91063986  0.06289474  0.55869515],1,1,1,0.312807637,0,0,0,0.30795986,0.328654354,0.090841679,0.419496033,0.237812675,nan,nan,nan,[ nan  nan  nan],nan,nan,nan,2920.591317,3173.53669,3173.849497,nan,nan
0,224,19:44:41:881000,6,1,280,196.875,[ 0.22808935  0.34201885  0.61587222],1,1,1,0.307003647,0,0,0,0.307478997,0.32858361,0.090644837,0.419228447,0.237938773,nan,nan,nan,[ nan  nan  nan],nan,nan,nan,2920.591317,3174.478481,3174.785485,nan,nan
0,225,19:44:42:832000,6,1,449,315.703125,[ 0.32809501  0.40764625 -1.        ],1,1,1,0.34118441,0,0,0,0.320331898,0.328487699,0.09045457,0.418942269,0.238033129,nan,nan,nan,[ nan  nan  nan],nan,nan,nan,2920.591317,3175.420275,3175.761459,nan,nan
0,226,19:44:43:768000,6,1,119,83.671875,[ 1.         -0.30944633 -0.2507109 ],1,nan,nan,nan,0,0,0,0.324094028,0.328543879,0.090258162,0.418802041,0.238285717,nan,nan,nan,[ nan  nan  nan],nan,nan,nan,2920.591317,3176.362072,nan,nan,nan
0,227,19:44:44:704000,6,1,368,258.75,[-0.15045717  0.47779326 -0.04573418],1,1,1,0.07360017,0,0,0,0.20739229,0.328543879,0.090258162,0.418802041,0.238285717,nan,nan,nan,[ nan  nan  nan],nan,nan,nan,2920.591317,3177.30386,3177.37746,nan,nan
0,228,19:44:45:656000,6,1,316,222.1875,[-0.07182156  0.42820351  0.42789226],1,1,1,0.083750168,0,0,0,0.078675169,0.327420779,0.091628128,0.419048907,0.235792651,nan,nan,nan,[ nan  nan  nan],nan,nan,nan,2920.591317,3178.245654,3178.329404,nan,nan
0,229,19:44:46:592000,6,1,501,352.265625,[ 0.75644923  0.25625354 -1.        ],1,1,1,0.157938777,0,1,0,0.105096372,0.326352048,0.092834081,0.41918613,0.233517967,nan,nan,nan,[ nan  nan  nan],nan,nan,nan,2920.591317,3179.187442,3179.345381,nan,nan
0,230,19:44:50:866000,6,1,142,99.84375,[ 1.         -0.28956812 -0.01462735],1,1,1,0.400106968,1,0,0,0.213931971,0.325616619,0.093294415,0.418911034,0.232322204,nan,-4.882759564,135,[ 1.         -0.30350232 -0.08497887],nan,-4.960990436,1.267183394,2920.591317,3180.129238,3180.529345,3181.962752,3183.237928
0,231,19:44:51:802000,6,0,473,332.578125,[ 0.52259481  0.34939617 -1.        ],0,0,1,0.452766246,0,0,0,0.33693733,0.32594049,0.093220306,0.419160796,0.232720184,nan,nan,nan,[ nan  nan  nan],nan,nan,nan,2920.591317,3184.396471,3184.849237,nan,nan
0,232,19:44:52:738000,6,1,224,157.5,[ 0.82161942  0.11002479  0.59726488],1,1,1,0.32695839,0,0,0,0.393277202,0.326489519,0.093390235,0.419879754,0.233099285,nan,nan,nan,[ nan  nan  nan],nan,nan,nan,2920.591317,3185.33827,3185.665228,nan,nan
0,233,19:44:53:690000,6,1,439,308.671875,[ 0.25114429  0.4263922  -1.        ],1,1,1,0.249152765,0,0,0,0.342959134,0.32649154,0.09318875,0.419680291,0.23330279,nan,nan,nan,[ nan  nan  nan],nan,nan,nan,2920.591317,3186.280059,3186.529212,nan,nan
0,234,19:44:54:626000,6,1,3,2.109375,[ 0.87108718  0.19933511 -1.        ],1,1,1,0.291341598,0,0,0,0.289150918,0.326159614,0.093125897,0.419285512,0.233033717,nan,nan,nan,[ nan  nan  nan],nan,nan,nan,2920.591317,3187.221853,3187.513194,nan,nan
0,235,19:44:55:577000,6,1,87,61.171875,[ 1.         -0.22095901 -0.61267562],1,1,1,0.301514688,0,0,0,0.280669684,0.326010819,0.09295445,0.418965269,0.23305637,nan,nan,nan,[ nan  nan  nan],nan,nan,nan,2920.591317,3188.163652,3188.465167,nan,nan
0,236,19:44:56:513000,6,1,15,10.546875,[ 0.96573443  0.14535278 -1.        ],1,1,1,0.319704971,0,0,0,0.304187086,0.325906581,0.092770168,0.418676749,0.233136413,nan,nan,nan,[ nan  nan  nan],nan,nan,nan,2920.591317,3189.105434,3189.425139,nan,nan
0,237,19:44:57:449000,6,0,199,139.921875,[ 1.         -0.02467618  0.4687863 ],0,0,1,0.489885782,0,0,0,0.37036848,0.325880303,0.092574289,0.418454591,0.233306014,nan,nan,nan,[ nan  nan  nan],nan,nan,nan,2920.591317,3190.04723,3190.537115,nan,nan
0,238,19:44:58:401000,6,1,344,241.875,[-0.17254346  0.46473023  0.19550382],1,1,1,0.412069038,0,0,0,0.40721993,0.326572309,0.092988454,0.419560763,0.233583855,nan,nan,nan,[ nan  nan  nan],nan,nan,nan,2920.591317,3190.989024,3191.401093,nan,nan
0,239,19:44:59:337000,6,1,268,188.4375,[ 0.35230222  0.30236752  0.64500531],1,1,1,0.398248711,0,0,0,0.433401177,0.326931539,0.092957545,0.419889084,0.233973994,nan,nan,nan,[ nan  nan  nan],nan,nan,nan,2920.591317,3191.930826,3192.329074,nan,nan
0,240,19:45:00:273000,6,0,169,118.828125,[ 1.         -0.18591738  0.2391183 ],0,0,1,0.448437345,0,0,0,0.419585031,0.327229937,0.092877025,0.420106962,0.234352912,nan,nan,nan,[ nan  nan  nan],nan,nan,nan,2920.591317,3192.872619,3193.321057,nan,nan
0,241,19:45:01:225000,6,1,105,73.828125,[ 1.         -0.28504984 -0.40158079],1,1,1,0.418605725,0,0,0,0.421763927,0.327734968,0.093011601,0.420746569,0.234723366,nan,nan,nan,[ nan  nan  nan],nan,nan,nan,2920.591317,3193.814411,3194.233017,nan,nan
0,242,19:45:02:161000,6,1,483,339.609375,[ 0.60602571  0.31931445 -1.        ],1,1,1,0.428836405,0,0,0,0.431959825,0.328112025,0.093002056,0.421114081,0.235109969,nan,nan,nan,[ nan  nan  nan],nan,nan,nan,2920.591317,3194.756181,3195.185018,nan,nan
0,243,19:45:03:112000,6,1,58,40.78125,[ 1.         -0.07608966 -1.        ],1,1,1,0.367001873,0,0,0,0.404814668,0.328528241,0.093034354,0.421562595,0.235493887,nan,nan,nan,[ nan  nan  nan],nan,nan,nan,2920.591317,3195.697989,3196.064991,nan,nan
0,244,19:45:04:048000,6,1,162,113.90625,[ 1.         -0.21873956  0.17663297],1,1,1,0.337191636,0,0,0,0.377676638,0.328686569,0.092875392,0.421561961,0.235811177,nan,nan,nan,[ nan  nan  nan],nan,nan,nan,2920.591317,3196.639782,3196.976973,nan,nan
0,245,19:45:04:984000,6,1,78,54.84375,[ 1.         -0.17946765 -0.73990763],1,1,1,0.339368631,0,0,0,0.347854047,0.328721426,0.092686471,0.421407897,0.236034955,nan,nan,nan,[ nan  nan  nan],nan,nan,nan,2920.591317,3197.581572,3197.920941,nan,nan
0,246,19:45:05:936000,6,0,358,251.71875,[-0.17058391  0.47426832  0.05858744],0,0,1,0.405557724,0,0,0,0.360705997,0.328764884,0.092499613,0.421264497,0.236265271,nan,nan,nan,[ nan  nan  nan],nan,nan,nan,2920.591317,3198.523361,3198.928919,nan,nan
0,247,19:45:06:872000,6,1,310,217.96875,[-0.03285454  0.41708073  0.46882802],1,1,1,0.327752954,0,0,0,0.35755977,0.32907705,0.092440639,0.421517689,0.236636411,nan,nan,nan,[ nan  nan  nan],nan,nan,nan,2920.591317,3199.465157,3199.792909,nan,nan
0,248,19:45:07:808000,6,1,126,88.59375,[ 1.         -0.31141175 -0.17740843],1,1,1,0.265910724,0,0,0,0.333073801,0.329071689,0.092253361,0.42132505,0.236818328,nan,nan,nan,[ nan  nan  nan],nan,nan,nan,2920.591317,3200.406973,3200.672883,nan,nan
0,249,19:45:08:759000,6,1,208,146.25,[ 0.97651258  0.02502074  0.52257448],1,1,1,0.244117395,0,0,0,0.279260358,0.328817008,0.092154145,0.420971153,0.236662863,nan,nan,nan,[ nan  nan  nan],nan,nan,nan,2920.591317,3201.348743,3201.592861,nan,nan
0,250,19:45:09:695000,6,1,511,359.296875,[ 0.83870319  0.21628417 -1.        ],1,1,1,0.238310554,0,0,0,0.249446224,0.328476849,0.092124785,0.420601634,0.236352063,nan,nan,nan,[ nan  nan  nan],nan,nan,nan,2920.591317,3202.290523,3202.528833,nan,nan
0,251,19:45:10:647000,6,1,159,111.796875,[ 1.         -0.23176597  0.14905501],1,1,1,0.344489816,0,0,0,0.275639255,0.328116184,0.092116328,0.420232512,0.235999855,nan,nan,nan,[ nan  nan  nan],nan,nan,nan,2920.591317,3203.232329,3203.576819,nan,nan
0,252,19:45:11:583000,6,1,275,193.359375,[ 0.27900239  0.32618525  0.63017847],1,1,1,0.282678377,0,0,0,0.288492915,0.328181417,0.091938432,0.42011985,0.236242985,nan,nan,nan,[ nan  nan  nan],nan,nan,nan,2920.591317,3204.17412,3204.456799,nan,nan
0,253,19:45:12:519000,6,1,38,26.71875,[ 1.          0.03062595 -1.        ],1,1,1,0.292849757,0,0,0,0.30667265,0.32800085,0.091800418,0.419801268,0.236200431,nan,nan,nan,[ nan  nan  nan],nan,nan,nan,2920.591317,3205.115912,3205.408762,nan,nan
0,254,19:45:13:471000,6,1,411,288.984375,[ 0.05552017  0.46302271 -0.55705476],1,1,1,0.295037015,0,0,0,0.290188383,0.327861912,0.091645358,0.419507271,0.236216554,nan,nan,nan,[ nan  nan  nan],nan,nan,nan,2920.591317,3206.057712,3206.352749,nan,nan
0,255,19:45:14:407000,6,1,279,196.171875,[ 0.23815758  0.33893035  0.61897842],1,1,1,0.313254383,0,0,0,0.300380385,0.327732681,0.091487871,0.419220552,0.236244809,nan,nan,nan,[ nan  nan  nan],nan,nan,nan,2920.591317,3206.999489,3207.312743,nan,nan
0,256,19:45:15:343000,6,1,410,288.28125,[ 0.04920468  0.46392153 -0.54316189],1,1,1,0.299426928,0,0,0,0.302572775,0.327675903,0.091312791,0.418988694,0.236363112,nan,nan,nan,[ nan  nan  nan],nan,nan,nan,2920.591317,3207.941298,3208.240725,nan,nan
0,257,19:45:16:294000,6,1,58,40.78125,[ 1.         -0.07608966 -1.        ],1,1,1,0.317607803,0,0,0,0.310096371,0.327565555,0.091151305,0.41871686,0.23641425,nan,nan,nan,[ nan  nan  nan],nan,nan,nan,2920.591317,3208.883084,3209.200692,nan,nan
0,258,19:45:17:230000,6,1,336,236.25,[-0.15821161  0.45675811  0.26813527],1,1,1,0.279793773,0,0,0,0.298942834,0.327526809,0.090975907,0.418502716,0.236550902,nan,nan,nan,[ nan  nan  nan],nan,nan,nan,2920.591317,3209.824878,3210.104672,nan,nan
0,259,19:45:18:182000,6,1,241,169.453125,[ 0.64365311  0.19260594  0.64425478],1,1,1,0.31398594,0,0,0,0.303795838,0.327341797,0.090847855,0.418189652,0.236493943,nan,nan,nan,[ nan  nan  nan],nan,nan,nan,2920.591317,3210.766664,3211.080649,nan,nan
0,260,19:45:19:118000,6,1,66,46.40625,[ 1.         -0.11856871 -1.        ],1,1,1,0.39615867,0,0,0,0.329979461,0.32729023,0.090676086,0.417966317,0.236614144,nan,nan,nan,[ nan  nan  nan],nan,nan,nan,2920.591317,3211.708458,3212.104617,nan,nan
0,261,19:45:20:054000,6,1,171,120.234375,[ 1.         -0.17601187  0.25645091],1,1,1,0.34233905,0,0,0,0.350827886,0.327555109,0.09060188,0.418156989,0.23695323,nan,nan,nan,[ nan  nan  nan],nan,nan,nan,2920.591317,3212.650256,3212.992595,nan,nan
0,262,19:45:21:005000,6,1,261,183.515625,[ 0.42722581  0.27661781  0.65367446],1,1,1,0.248536102,0,0,0,0.329011274,0.327611753,0.090432759,0.418044511,0.237178994,nan,nan,nan,[ nan  nan  nan],nan,nan,nan,2920.591317,3213.592042,3213.840578,nan,nan
0,263,19:45:21:941000,6,1,82,57.65625,[ 1.         -0.19847916 -0.67987248],1,1,1,0.210721217,0,0,0,0.267198789,0.327309937,0.09039162,0.417701557,0.236918317,nan,nan,nan,[ nan  nan  nan],nan,nan,nan,2920.591317,3214.533839,3214.74456,nan,nan
0,264,19:45:22:877000,6,1,146,102.65625,[ 1.         -0.27879258  0.02488132],1,1,1,0.164909951,0,1,0,0.208055756,0.326866634,0.090504505,0.417371139,0.236362129,nan,nan,nan,[ nan  nan  nan],nan,nan,nan,2920.591317,3215.475631,3215.640541,nan,nan
0,265,19:45:28:197000,6,1,498,350.15625,[ 0.73150794  0.26756188 -1.        ],1,1,1,0.17509302,1,0,0,0.183574729,0.326253162,0.090879141,0.417132303,0.235374021,nan,111.8014095,481,[ 0.58928949  0.32561186 -1.        ],nan,-11.95765949,2.308943727,2920.591317,3216.417426,3216.592519,3218.250937,3220.567921
0,266,19:45:29:133000,6,1,225,158.203125,[ 0.81146625  0.11513113  0.60098195],1,1,1,0.305934536,0,0,0,0.215312502,0.325682746,0.091179772,0.416862518,0.234502974,nan,nan,nan,[ nan  nan  nan],nan,nan,nan,2920.591317,3221.726458,3222.032393,nan,nan
0,267,19:45:30:069000,6,1,176,123.75,[ 1.         -0.15042967  0.29867547],1,1,1,0.172123172,0,0,0,0.217716909,0.325608505,0.091016245,0.416624749,0.23459226,nan,nan,nan,[ nan  nan  nan],nan,nan,nan,2920.591317,3222.668258,3222.840381,nan,nan
0,268,19:45:31:021000,6,1,337,236.953125,[-0.16064337  0.45785839  0.25930356],1,1,1,0.150318153,0,1,0,0.20945862,0.325033653,0.091328153,0.416361806,0.2337055,nan,nan,nan,[ nan  nan  nan],nan,nan,nan,2920.591317,3223.61005,3223.760368,nan,nan
0,269,19:45:31:957000,6,0,277,194.765625,[ 0.25847065  0.33263616  0.62482424],0,1,0,0.048540778,0,0,0,0.123660701,0.32438173,0.091777912,0.416159642,0.232603817,nan,nan,nan,[ nan  nan  nan],nan,nan,nan,2920.591317,3224.551843,3224.600384,nan,nan
0,270,19:45:32:908000,6,1,87,61.171875,[ 1.         -0.22095901 -0.61267562],1,1,1,0.42663033,0,0,0,0.20849642,0.323356299,0.093132576,0.416488874,0.230223723,nan,nan,nan,[ nan  nan  nan],nan,nan,nan,2920.591317,3225.493631,3225.920261,nan,nan
0,271,19:45:33:844000,6,1,14,9.84375,[ 0.95801505  0.15002356 -1.        ],1,1,1,0.260863095,0,0,0,0.245344734,0.323738795,0.093171388,0.416910183,0.230567407,nan,nan,nan,[ nan  nan  nan],nan,nan,nan,2920.591317,3226.43543,3226.696293,nan,nan
0,272,19:45:34:780000,6,1,218,153.28125,[ 0.88146739  0.07882461  0.57255963],1,1,1,0.3350269,0,0,0,0.340840108,0.323506781,0.093077435,0.416584216,0.230429347,nan,nan,nan,[ nan  nan  nan],nan,nan,nan,2920.591317,3227.377221,3227.712247,nan,nan
0,273,19:45:35:732000,6,1,147,103.359375,[ 1.         -0.27580113  0.03467205],1,1,1,0.297219713,0,0,0,0.297703236,0.323549135,0.092908795,0.41645793,0.23064034,nan,nan,nan,[ nan  nan  nan],nan,nan,nan,2920.591317,3228.319014,3228.616234,nan,nan
0,274,19:45:36:668000,6,1,354,248.90625,[-0.17447067  0.47210079  0.09886772],1,1,1,0.25141757,0,0,0,0.294554728,0.32345269,0.092752116,0.416204806,0.230700574,nan,nan,nan,[ nan  nan  nan],nan,nan,nan,2920.591317,3229.260809,3229.512227,nan,nan
0,275,19:45:37:604000,6,1,140,98.4375,[ 1.         -0.29420925 -0.03457774],1,1,1,0.365599485,0,0,0,0.304745589,0.323189788,0.092684553,0.415874342,0.230505235,nan,nan,nan,[ nan  nan  nan],nan,nan,nan,2920.591317,3230.202602,3230.568202,nan,nan
0,276,19:45:38:555000,6,1,206,144.84375,[ 0.99472346  0.01405192  0.51131616],1,1,1,0.335782976,0,0,0,0.31760001,0.323344005,0.092551094,0.415895099,0.230792911,nan,nan,nan,[ nan  nan  nan],nan,nan,nan,2920.591317,3231.14439,3231.480173,nan,nan
0,277,19:45:39:491000,6,1,485,341.015625,[ 0.62277456  0.31287562 -1.        ],1,1,1,0.321964929,0,0,0,0.341115797,0.323389074,0.0923863,0.415775374,0.231002774,nan,nan,nan,[ nan  nan  nan],nan,nan,nan,2920.591317,3232.086182,3232.408147,nan,nan
0,278,19:45:40:443000,6,1,430,302.34375,[ 0.18472502  0.44064573 -0.94190417],1,1,1,0.300145371,0,0,0,0.319297758,0.323383933,0.092219427,0.415603359,0.231164506,nan,nan,nan,[ nan  nan  nan],nan,nan,nan,2920.591317,3233.02798,3233.328125,nan,nan
0,279,19:45:41:379000,6,1,341,239.765625,[-0.16853588  0.4619615   0.22326011],1,1,1,0.310338703,0,0,0,0.310816334,0.323300341,0.092063928,0.415364268,0.231236413,nan,nan,nan,[ nan  nan  nan],nan,nan,nan,2920.591317,3233.96977,3234.280109,nan,nan
0,280,19:45:42:315000,6,1,454,319.21875,[ 0.36762736  0.39708484 -1.        ],1,1,1,0.304517607,0,0,0,0.30500056,0.323253883,0.091902055,0.415155938,0.231351828,nan,nan,nan,[ nan  nan  nan],nan,nan,nan,2920.591317,3234.911564,3235.216081,nan,nan
0,281,19:45:43:267000,6,1,508,357.1875,[ 0.81419982  0.22863893 -1.        ],1,1,1,0.314706378,0,0,0,0.309854229,0.323186968,0.091744606,0.414931574,0.231442362,nan,nan,nan,[ nan  nan  nan],nan,nan,nan,2920.591317,3235.853356,3236.168063,nan,nan
0,282,19:45:44:203000,6,1,419,294.609375,[ 0.10789467  0.45484197 -0.67809886],1,1,1,0.324906553,0,0,0,0.314710179,0.323156788,0.091582606,0.414739394,0.231574182,nan,nan,nan,[ nan  nan  nan],nan,nan,nan,2920.591317,3236.795134,3237.120041,nan,nan
0,283,19:45:45:139000,6,1,371,260.859375,[-0.14179361  0.47833194 -0.07797326],1,1,1,0.255062811,0,0,0,0.298225247,0.323162993,0.091420141,0.414583133,0.231742852,nan,nan,nan,[ nan  nan  nan],nan,nan,nan,2920.591317,3237.736961,3237.992024,nan,nan
0,284,19:45:46:090000,6,1,463,325.546875,[ 0.44023832  0.3760118  -1.        ],1,1,1,0.257269741,0,0,0,0.279079702,0.322922356,0.091347903,0.414270259,0.231574453,nan,nan,nan,[ nan  nan  nan],nan,nan,nan,2920.591317,3238.678732,3238.936002,nan,nan
0,285,19:45:47:026000,6,1,51,35.859375,[ 1.         -0.03851602 -1.        ],1,1,1,0.323450281,0,0,0,0.278594278,0.322691185,0.091269825,0.41396101,0.231421359,nan,nan,nan,[ nan  nan  nan],nan,nan,nan,2920.591317,3239.620524,3239.943974,nan,nan
0,286,19:45:47:978000,6,1,501,352.265625,[ 0.75644923  0.25625354 -1.        ],1,1,1,0.333630499,0,0,0,0.304783507,0.322693848,0.091109573,0.413803422,0.231584275,nan,nan,nan,[ nan  nan  nan],nan,nan,nan,2920.591317,3240.56232,3240.895951,nan,nan
0,287,19:45:48:914000,6,1,222,156.09375,[ 0.84177847  0.09972916  0.58948469],1,1,1,0.351824488,0,0,0,0.336301756,0.322732088,0.090952442,0.413684531,0.231779646,nan,nan,nan,[ nan  nan  nan],nan,nan,nan,2920.591317,3241.504109,3241.855934,nan,nan
0,288,19:45:49:850000,6,1,104,73.125,[ 1.         -0.28235148 -0.41264457],1,1,1,0.313995918,0,0,0,0.333150302,0.322833456,0.090810033,0.413643488,0.232023423,nan,nan,nan,[ nan  nan  nan],nan,nan,nan,2920.591317,3242.445905,3242.759901,nan,nan
0,289,19:45:50:802000,6,1,216,151.875,[ 0.90097501  0.06822711  0.56342658],1,1,1,0.276200134,0,0,0,0.314006847,0.32280277,0.09065373,0.413456499,0.23214904,nan,nan,nan,[ nan  nan  nan],nan,nan,nan,2920.591317,3243.387694,3243.663895,nan,nan
0,290,19:45:51:738000,6,1,49,34.453125,[ 1.         -0.02778543 -1.        ],1,1,1,0.302381381,0,0,0,0.297525811,0.322641515,0.090538121,0.413179635,0.232103394,nan,nan,nan,[ nan  nan  nan],nan,nan,nan,2920.591317,3244.32948,3244.631861,nan,nan
0,291,19:45:52:674000,6,1,122,85.78125,[ 1.         -0.31115954 -0.21914422],1,1,1,0.384557532,0,0,0,0.321046349,0.322571652,0.090389688,0.412961341,0.232181964,nan,nan,nan,[ nan  nan  nan],nan,nan,nan,2920.591317,3245.271281,3245.655838,nan,nan
0,292,19:45:53:625000,6,1,230,161.71875,[ 0.76002313  0.14022421  0.6178111 ],1,1,1,0.426752351,0,0,0,0.371230421,0.322784662,0.090307128,0.41309179,0.232477534,nan,nan,nan,[ nan  nan  nan],nan,nan,nan,2920.591317,3246.213073,3246.639825,nan,nan
0,293,19:45:54:561000,6,1,37,26.015625,[ 1.          0.03585655 -1.        ],1,1,1,0.260935224,0,0,0,0.357415036,0.323140716,0.090356734,0.41349745,0.232783982,nan,nan,nan,[ nan  nan  nan],nan,nan,nan,2920.591317,3247.154866,3247.415801,nan,nan
0,294,19:45:55:497000,6,1,457,321.328125,[ 0.39163925  0.39035818 -1.        ],1,1,1,0.383108103,0,0,0,0.356931893,0.322928411,0.090275335,0.413203746,0.232653075,nan,nan,nan,[ nan  nan  nan],nan,nan,nan,2920.591317,3248.096658,3248.479766,nan,nan
0,295,19:45:56:449000,6,1,20,14.0625,[ 1.          0.12155819 -1.        ],1,1,1,0.337309096,0,0,0,0.327117474,0.323133103,0.09018976,0.413322863,0.232943344,nan,nan,nan,[ nan  nan  nan],nan,nan,nan,2920.591317,3249.038452,3249.375761,nan,nan
0,296,19:45:57:385000,6,1,480,337.5,[ 0.58092807  0.32870764 -1.        ],1,1,1,0.355475716,0,0,0,0.358630971,0.323181158,0.090040536,0.413221694,0.233140621,nan,nan,nan,[ nan  nan  nan],nan,nan,nan,2920.591317,3249.98025,3250.335725,nan,nan
0,297,19:45:58:336000,6,1,407,286.171875,[ 0.03058863  0.46645515 -0.50257741],1,1,1,0.349674292,0,0,0,0.347486368,0.323290261,0.089907843,0.413198104,0.233382418,nan,nan,nan,[ nan  nan  nan],nan,nan,nan,2920.591317,3250.922036,3251.271711,nan,nan
0,298,19:45:59:272000,6,1,96,67.5,[ 1.         -0.25681952 -0.50330248],1,1,1,0.399847245,0,0,0,0.368332418,0.323379096,0.089769367,0.413148463,0.233609729,nan,nan,nan,[ nan  nan  nan],nan,nan,nan,2920.591317,3251.863836,3252.263683,nan,nan
0,299,19:46:00:208000,6,1,192,135,[ 1.         -0.06359976  0.42165841],1,1,1,0.490046006,0,0,0,0.413189181,0.323635701,0.089727662,0.413363363,0.233908038,nan,nan,nan,[ nan  nan  nan],nan,nan,nan,2920.591317,3252.805619,3253.295665,nan,nan
0,300,19:46:01:160000,6,1,108,75.9375,[ 1.         -0.29242661 -0.36866329],1,1,1,0.388264639,0,0,1,0.42605263,0.324192257,0.090091252,0.414283509,0.234101005,nan,nan,nan,[ nan  nan  nan],nan,nan,nan,2920.591317,3253.747374,3254.135638,nan,nan
0,301,19:46:05:263000,6,1,308,216.5625,[-0.01868286  0.41309748  0.48168233],1,1,1,0.382414178,1,0,0,0.420241608,0.324405831,0.090016762,0.414422594,0.234389069,nan,-128.0946937,310,[-0.03285454  0.41708073  0.46882802],nan,1.532193701,1.117122113,2920.591317,3254.689209,3255.071623,3256.514385,3257.639542
0,302,19:46:06:199000,6,1,162,113.90625,[ 1.         -0.21873956  0.17663297],1,1,1,0.34576163,0,0,0,0.372146816,0.32459855,0.08992908,0.41452763,0.23466947,nan,nan,nan,[ nan  nan  nan],nan,nan,nan,2920.591317,3258.789759,3259.13552,nan,nan
0,303,19:46:07:135000,6,1,217,152.578125,[ 0.89125041  0.07353733  0.56804835],1,1,1,0.347963429,0,0,0,0.358713079,0.324668627,0.089788298,0.414456925,0.234880328,nan,nan,nan,[ nan  nan  nan],nan,nan,nan,2920.591317,3259.731538,3260.079501,nan,nan
0,304,19:46:08:086000,6,0,444,312.1875,[ 0.2892412   0.41740978 -1.        ],0,1,0,0.294139532,0,0,0,0.329288197,0.324745507,0.089649967,0.414395474,0.235095541,nan,nan,nan,[ nan  nan  nan],nan,nan,nan,2920.591317,3260.67334,3260.96748,nan,nan
0,305,19:46:09:022000,6,1,150,105.46875,[ 1.         -0.26615253  0.06382271],1,1,1,0.128370586,0,0,0,0.256824516,0.324644829,0.08951955,0.414164379,0.23512528,nan,nan,nan,[ nan  nan  nan],nan,nan,nan,2920.591317,3261.61513,3261.743501,nan,nan
0,306,19:46:09:958000,6,1,106,74.53125,[ 1.         -0.28763007 -0.39056445],1,1,1,0.330484176,0,0,0,0.250998098,0.324001307,0.090074236,0.414075543,0.233927072,nan,nan,nan,[ nan  nan  nan],nan,nan,nan,2920.591317,3262.55694,3262.887424,nan,nan
0,307,19:46:10:910000,6,1,348,244.6875,[-0.17538477  0.46801784  0.15758216],1,1,1,0.37267871,0,0,0,0.277177824,0.324022493,0.089927696,0.413950189,0.234094797,nan,nan,nan,[ nan  nan  nan],nan,nan,nan,2920.591317,3263.498734,3263.871412,nan,nan
0,308,19:46:11:846000,6,1,304,213.75,[ 0.01130928  0.40470892  0.50616037],1,1,1,0.374868535,0,0,0,0.359343807,0.324180983,0.089823911,0.414004893,0.234357072,nan,nan,nan,[ nan  nan  nan],nan,nan,nan,2920.591317,3264.440511,3264.815379,nan,nan
0,309,19:46:12:798000,6,1,64,45,[ 1.         -0.10803687 -1.        ],1,1,1,0.409045022,0,0,0,0.385530756,0.324345553,0.08972432,0.414069872,0.234621233,nan,nan,nan,[ nan  nan  nan],nan,nan,nan,2920.591317,3265.382315,3265.79136,nan,nan
0,310,19:46:13:734000,6,1,236,165.9375,[ 0.69700456  0.16930175  0.63406585],1,1,1,0.411302984,0,0,0,0.398405513,0.324619661,0.089708093,0.414327754,0.234911567,nan,nan,nan,[ nan  nan  nan],nan,nan,nan,2920.591317,3266.324097,3266.7354,nan,nan
0,311,19:46:14:670000,6,1,379,266.484375,[-0.11353594  0.47861499 -0.16597052],1,1,1,0.413437215,0,0,0,0.41126174,0.324899284,0.089698064,0.414597349,0.23520122,nan,nan,nan,[ nan  nan  nan],nan,nan,nan,2920.591317,3267.265894,3267.679331,nan,nan
0,312,19:46:15:621000,6,1,293,206.015625,[ 0.10383026  0.3786596   0.56461706],1,1,1,0.287634491,0,0,0,0.370791563,0.325183972,0.089693906,0.414877879,0.235490066,nan,nan,nan,[ nan  nan  nan],nan,nan,nan,2920.591317,3268.207679,3268.495314,nan,nan
0,313,19:46:16:557000,6,1,111,78.046875,[ 1.         -0.29867781 -0.33610624],1,1,1,0.393872483,0,0,0,0.364981396,0.325063621,0.089575199,0.41463882,0.235488423,nan,nan,nan,[ nan  nan  nan],nan,nan,nan,2920.591317,3269.149478,3269.54335,nan,nan
0,314,19:46:17:493000,6,1,247,173.671875,[ 0.57894763  0.21939267  0.65238059],1,1,1,0.419991578,0,0,0,0.367166184,0.325283458,0.089516254,0.414799712,0.235767204,nan,nan,nan,[ nan  nan  nan],nan,nan,nan,2920.591317,3270.091282,3270.511273,nan,nan
0,315,19:46:18:445000,6,1,475,333.984375,[ 0.53921875  0.34365981 -1.        ],1,1,1,0.374192002,0,0,0,0.396018687,0.325585076,0.089532758,0.415117835,0.236052318,nan,nan,nan,[ nan  nan  nan],nan,nan,nan,2920.591317,3271.033063,3271.407255,nan,nan
0,316,19:46:19:381000,6,1,78,54.84375,[ 1.         -0.17946765 -0.73990763],1,1,1,0.344365799,0,0,0,0.37951646,0.325739384,0.08943234,0.415171724,0.236307044,nan,nan,nan,[ nan  nan  nan],nan,nan,nan,2920.591317,3271.974852,3272.319217,nan,nan
0,317,19:46:20:332000,6,1,423,297.421875,[ 0.13522958  0.45008089 -0.75003992],1,1,1,0.410562589,0,0,0,0.376373463,0.325798328,0.089296849,0.415095178,0.236501479,nan,nan,nan,[ nan  nan  nan],nan,nan,nan,2920.591317,3272.916647,3273.32721,nan,nan
0,318,19:46:21:268000,6,1,106,74.53125,[ 1.         -0.28763007 -0.39056445],1,1,1,0.364800645,0,0,0,0.373243011,0.326065723,0.089282512,0.415348236,0.236783211,nan,nan,nan,[ nan  nan  nan],nan,nan,nan,2920.591317,3273.858434,3274.223235,nan,nan
0,319,19:46:22:204000,6,1,433,304.453125,[ 0.2065363   0.43616372 -1.        ],1,1,1,0.39891384,0,0,0,0.391425691,0.326187531,0.089168398,0.415355929,0.237019133,nan,nan,nan,[ nan  nan  nan],nan,nan,nan,2920.591317,3274.800245,3275.199159,nan,nan
0,320,19:46:23:156000,6,1,305,214.453125,[ 0.00361193  0.40685925  0.50019691],1,1,1,0.417123795,0,0,0,0.39361276,0.326415514,0.089121304,0.415536817,0.23729421,nan,nan,nan,[ nan  nan  nan],nan,nan,nan,2920.591317,3275.74201,3276.159133,nan,nan
0,321,19:46:24:092000,6,1,397,279.140625,[-0.02756135  0.47315999 -0.37569455],1,1,1,0.387295312,0,0,0,0.401110982,0.326698977,0.089125856,0.415824833,0.237573121,nan,nan,nan,[ nan  nan  nan],nan,nan,nan,2920.591317,3276.683811,3277.071106,nan,nan
0,322,19:46:25:028000,6,1,319,224.296875,[-0.08918918  0.43330867  0.4061371 ],1,1,1,0.413447193,0,0,0,0.405955433,0.326887751,0.089050973,0.415938723,0.237836778,nan,nan,nan,[ nan  nan  nan],nan,nan,nan,2920.591317,3277.625634,3278.039082,nan,nan
0,323,19:46:25:980000,6,1,138,97.03125,[ 1.         -0.29832988 -0.05465081],1,1,1,0.367665007,0,0,0,0.389469171,0.327156569,0.089042937,0.416199506,0.238113632,nan,nan,nan,[ nan  nan  nan],nan,nan,nan,2920.591317,3278.567399,3278.935064,nan,nan
0,324,19:46:26:916000,6,1,446,313.59375,[ 0.30469626  0.41359904 -1.        ],1,1,1,0.297854337,0,0,0,0.359655512,0.327281982,0.088933471,0.416215453,0.23834851,nan,nan,nan,[ nan  nan  nan],nan,nan,nan,2920.591317,3279.509191,3279.807045,nan,nan
0,325,19:46:27:867000,6,1,58,40.78125,[ 1.         -0.07608966 -1.        ],1,1,1,0.340032336,0,0,0,0.335183893,0.327191156,0.088811125,0.41600228,0.238380031,nan,nan,nan,[ nan  nan  nan],nan,nan,nan,2920.591317,3280.450989,3280.791022,nan,nan
0,326,19:46:28:803000,6,1,192,135,[ 1.         -0.06359976  0.42165841],1,1,1,0.254240593,0,0,0,0.297375755,0.327230667,0.088677239,0.415907906,0.238553428,nan,nan,nan,[ nan  nan  nan],nan,nan,nan,2920.591317,3281.392775,3281.647015,nan,nan
0,327,19:46:29:739000,6,1,236,165.9375,[ 0.69700456  0.16930175  0.63406585],1,1,1,0.272417192,0,0,0,0.288896707,0.327006771,0.088633081,0.415639853,0.23837369,nan,nan,nan,[ nan  nan  nan],nan,nan,nan,2920.591317,3282.334573,3282.60699,nan,nan
0,328,19:46:30:691000,6,1,501,352.265625,[ 0.75644923  0.25625354 -1.        ],1,1,1,0.30659881,0,0,0,0.277752198,0.326839831,0.088548769,0.4153886,0.238291061,nan,nan,nan,[ nan  nan  nan],nan,nan,nan,2920.591317,3283.276373,3283.582972,nan,nan
0,329,19:46:31:627000,6,1,266,187.03125,[ 0.37357759  0.29520749  0.64811377],1,1,1,0.276788003,0,0,0,0.285268001,0.32677812,0.088420725,0.415198846,0.238357395,nan,nan,nan,[ nan  nan  nan],nan,nan,nan,2920.591317,3284.218155,3284.494943,nan,nan
0,330,19:46:32:563000,6,1,38,26.71875,[ 1.          0.03062595 -1.        ],1,1,1,0.302925915,0,0,0,0.295437576,0.326626174,0.088329122,0.414955296,0.238297052,nan,nan,nan,[ nan  nan  nan],nan,nan,nan,2920.591317,3285.159993,3285.462919,nan,nan
0,331,19:46:33:514000,6,1,274,192.65625,[ 0.28934405  0.32290089  0.63267027],1,1,1,0.313162582,0,0,0,0.2976255,0.326554355,0.088204808,0.414759164,0.238349547,nan,nan,nan,[ nan  nan  nan],nan,nan,nan,2920.591317,3286.101728,3286.41489,nan,nan
0,332,19:46:34:450000,6,1,167,117.421875,[ 1.         -0.19560581  0.22154672],1,1,1,0.331354005,0,0,0,0.315814167,0.326513897,0.088074534,0.414588431,0.238439363,nan,nan,nan,[ nan  nan  nan],nan,nan,nan,2920.591317,3287.04352,3287.374874,nan,nan
0,333,19:46:35:386000,6,1,299,210.234375,[ 0.05166456  0.39341767  0.53437875],1,1,1,0.349521195,0,0,0,0.331345927,0.326528476,0.087942192,0.414470668,0.238586284,nan,nan,nan,[ nan  nan  nan],nan,nan,nan,2920.591317,3287.985318,3288.334839,nan,nan
0,334,19:46:36:338000,6,1,244,171.5625,[ 0.61137236  0.20616355  0.64888072],1,1,1,0.4157043,0,0,0,0.3655265,0.326597523,0.08781906,0.414416582,0.238778463,nan,nan,nan,[ nan  nan  nan],nan,nan,nan,2920.591317,3288.927119,3289.342824,nan,nan
0,335,19:46:37:274000,6,1,172,120.9375,[ 1.         -0.17098406  0.26502468],1,1,1,0.393886738,0,0,0,0.386370744,0.32686431,0.087822538,0.414686848,0.239041772,nan,nan,nan,[ nan  nan  nan],nan,nan,nan,2920.591317,3289.86891,3290.262796,nan,nan
0,336,19:46:38:226000,6,1,265,186.328125,[ 0.38425915  0.29156831  0.64947886],1,1,1,0.428078049,0,0,0,0.412556362,0.327064377,0.087767556,0.414831932,0.239296821,nan,nan,nan,[ nan  nan  nan],nan,nan,nan,2920.591317,3290.810705,3291.238783,nan,nan
0,337,19:46:39:162000,6,1,103,72.421875,[ 1.         -0.27953747 -0.42375884],1,1,1,0.478272385,0,0,1,0.433412391,0.327365012,0.087809429,0.415174441,0.239555584,nan,nan,nan,[ nan  nan  nan],nan,nan,nan,2920.591317,3291.752497,3292.230769,nan,nan
0,338,19:46:43:358000,6,0,444,312.1875,[ 0.2892412   0.41740978 -1.        ],0,0,1,0.672430363,1,0,0,0.526260266,0.327812809,0.088062428,0.415875237,0.239750381,nan,147.3150185,430,[ 0.18472502  0.44064573 -0.94190417],nan,-9.502518479,1.208872082,2920.591317,3292.694286,3293.366717,3294.519479,3295.736296
0,339,19:46:44:294000,6,1,192,135,[ 1.         -0.06359976  0.42165841],1,1,1,0.424161396,0,0,0,0.524954715,0.328832387,0.089902017,0.418734404,0.238930371,nan,nan,nan,[ nan  nan  nan],nan,nan,nan,2920.591317,3296.886509,3297.310671,nan,nan
0,340,19:46:45:246000,6,0,127,89.296875,[ 1.         -0.31111021 -0.16703665],0,1,0,0.258283544,0,0,0,0.451625101,0.329113594,0.089918067,0.419031661,0.239195526,nan,nan,nan,[ nan  nan  nan],nan,nan,nan,2920.591317,3297.828348,3298.086632,nan,nan
0,341,19:46:46:182000,6,1,389,273.515625,[-0.06912081  0.47662608 -0.28023432],1,1,1,0.00448542,0,0,0,0.228976787,0.32890527,0.08986763,0.4187729,0.239037641,nan,nan,nan,[ nan  nan  nan],nan,nan,nan,2920.591317,3298.770104,3298.774589,nan,nan
0,342,19:46:47:118000,6,0,112,78.75,[ 1.         -0.30050152 -0.32532486],0,0,1,0.494654017,0,0,0,0.252474327,0.327953892,0.09143439,0.419388283,0.236519502,nan,nan,nan,[ nan  nan  nan],nan,nan,nan,2920.591317,3299.711889,3300.206543,nan,nan
0,343,19:46:48:069000,6,1,385,270.703125,[-0.08797966  0.47773344 -0.23392672],1,1,1,0.280868586,0,0,0,0.260002674,0.32844132,0.091743224,0.420184544,0.236698095,nan,nan,nan,[ nan  nan  nan],nan,nan,nan,2920.591317,3300.653687,3300.934555,nan,nan
0,344,19:46:49:005000,6,1,142,99.84375,[ 1.         -0.28956812 -0.01462735],1,1,1,0.251070608,0,0,0,0.342197737,0.328302624,0.09164529,0.419947914,0.236657333,nan,nan,nan,[ nan  nan  nan],nan,nan,nan,2920.591317,3301.595473,3301.846544,nan,nan
0,345,19:46:49:941000,6,0,87,61.171875,[ 1.         -0.22095901 -0.61267562],0,0,1,0.389285854,0,0,0,0.307075016,0.328078112,0.091606403,0.419684515,0.236471709,nan,nan,nan,[ nan  nan  nan],nan,nan,nan,2920.591317,3302.53727,3302.926556,nan,nan
0,346,19:46:50:893000,6,1,411,288.984375,[ 0.05552017  0.46302271 -0.55705476],1,1,1,0.327416825,0,0,0,0.322591096,0.328255526,0.091532709,0.419788235,0.236722817,nan,nan,nan,[ nan  nan  nan],nan,nan,nan,2920.591317,3303.479065,3303.806482,nan,nan
0,347,19:46:51:829000,6,1,224,157.5,[ 0.82161942  0.11002479  0.59726488],1,1,1,0.30560696,0,0,0,0.34076988,0.328253102,0.091400352,0.419653453,0.23685275,nan,nan,nan,[ nan  nan  nan],nan,nan,nan,2920.591317,3304.420857,3304.726464,nan,nan
0,348,19:46:52:765000,6,1,88,61.875,[ 1.         -0.22525759 -0.59993285],1,1,1,0.195800703,0,0,0,0.276274829,0.328187839,0.091276629,0.419464468,0.23691121,nan,nan,nan,[ nan  nan  nan],nan,nan,nan,2920.591317,3305.36266,3305.558461,nan,nan
0,349,19:46:53:716000,6,0,510,358.59375,[ 0.83055446  0.2204367  -1.        ],0,1,0,0.134000953,0,0,0,0.211802872,0.327807416,0.09142046,0.419227876,0.236386956,nan,nan,nan,[ nan  nan  nan],nan,nan,nan,2920.591317,3306.304441,3306.438442,nan,nan
0,350,19:46:54:652000,6,1,222,156.09375,[ 0.84177847  0.09972916  0.58948469],1,1,1,0.14419457,0,0,0,0.157998742,0.327252097,0.091875291,0.419127387,0.235376806,nan,nan,nan,[ nan  nan  nan],nan,nan,nan,2920.591317,3307.246233,3307.390427,nan,nan
0,351,19:46:55:604000,6,1,294,206.71875,[ 0.0948762   0.38121213  0.55985823],1,1,1,0.322357507,0,0,0,0.200184343,0.326729075,0.092262783,0.418991858,0.234466292,nan,nan,nan,[ nan  nan  nan],nan,nan,nan,2920.591317,3308.188028,3308.510386,nan,nan
0,352,19:46:56:540000,6,1,83,58.359375,[ 1.         -0.20309788 -0.66587671],1,1,1,0.372546996,0,0,0,0.279699691,0.326716621,0.092131556,0.418848176,0.234585065,nan,nan,nan,[ nan  nan  nan],nan,nan,nan,2920.591317,3309.129816,3309.502363,nan,nan
0,353,19:46:57:476000,6,1,182,127.96875,[ 1.         -0.11852384  0.34708947],1,1,1,0.254743788,0,0,0,0.31654943,0.326846821,0.092032926,0.418879746,0.234813895,nan,nan,nan,[ nan  nan  nan],nan,nan,nan,2920.591317,3310.071614,3310.326358,nan,nan
0,354,19:46:58:428000,6,1,271,190.546875,[ 0.32064286  0.31281163  0.63940014],1,1,1,0.312924811,0,0,0,0.313405199,0.326642563,0.09198234,0.418624902,0.234660223,nan,nan,nan,[ nan  nan  nan],nan,nan,nan,2920.591317,3311.0134,3311.326325,nan,nan
0,355,19:46:59:364000,6,1,4,2.8125,[ 0.87912605  0.19501404 -1.        ],1,1,1,0.299110186,0,0,0,0.288926262,0.326603812,0.091855215,0.418459027,0.234748597,nan,nan,nan,[ nan  nan  nan],nan,nan,nan,2920.591317,3311.955192,3312.254302,nan,nan
0,356,19:47:00:300000,6,1,463,325.546875,[ 0.44023832  0.3760118  -1.        ],1,1,1,0.325397203,0,0,0,0.3124774,0.326526365,0.091737323,0.418263688,0.234789042,nan,nan,nan,[ nan  nan  nan],nan,nan,nan,2920.591317,3312.897005,3313.222402,nan,nan
0,357,19:47:01:251000,6,1,71,49.921875,[ 1.         -0.14450407 -0.87798077],1,1,1,0.335489612,0,0,0,0.319999,0.326523193,0.091608408,0.418131601,0.234914786,nan,nan,nan,[ nan  nan  nan],nan,nan,nan,2920.591317,3313.838777,3314.174267,nan,nan
0,358,19:47:02:187000,6,0,296,208.125,[ 0.07727136  0.38620532  0.55000131],0,0,1,0.441668019,0,0,0,0.367518278,0.326548309,0.091481242,0.418029551,0.235067068,nan,nan,nan,[ nan  nan  nan],nan,nan,nan,2920.591317,3314.78056,3315.222228,nan,nan
0,359,19:47:03:139000,6,1,195,137.109375,[ 1.         -0.04692453  0.44239605],1,1,1,0.347846254,0,0,0,0.375001295,0.326869873,0.091555207,0.41842508,0.235314666,nan,nan,nan,[ nan  nan  nan],nan,nan,nan,2920.591317,3315.72236,3316.070206,nan,nan
0,360,19:47:04:075000,6,1,442,310.78125,[ 0.27390726  0.42109554 -1.        ],1,1,1,0.286028543,0,0,0,0.358514272,0.326928303,0.091434288,0.418362591,0.235494015,nan,nan,nan,[ nan  nan  nan],nan,nan,nan,2920.591317,3316.664157,3316.950186,nan,nan
0,361,19:47:05:011000,6,1,238,167.34375,[ 0.67574183  0.17872767  0.63851109],1,1,1,0.272214203,0,0,0,0.302029667,0.326814692,0.091332578,0.418147271,0.235482114,nan,nan,nan,[ nan  nan  nan],nan,nan,nan,2920.591317,3317.605948,3317.878162,nan,nan
0,362,19:47:05:962000,6,1,193,135.703125,[ 1.         -0.05804539  0.42865879],1,1,1,0.242396268,0,0,0,0.266879672,0.326663445,0.091251127,0.417914571,0.235412318,nan,nan,nan,[ nan  nan  nan],nan,nan,nan,2920.591317,3318.547738,3318.790135,nan,nan
0,363,19:47:06:898000,6,1,15,10.546875,[ 0.96573443  0.14535278 -1.        ],1,1,1,0.172602704,0,1,0,0.229071058,0.326430662,0.091232274,0.417662936,0.235198389,nan,nan,nan,[ nan  nan  nan],nan,nan,nan,2920.591317,3319.489537,3319.662139,nan,nan
0,364,19:47:10:970000,6,1,447,314.296875,[ 0.31246764  0.41164647 -1.        ],1,1,1,0.166765928,1,0,0,0.193921633,0.326006894,0.091462595,0.417469489,0.234544299,nan,137.1949311,445,[ 0.2969539  0.4155201 -1.       ],nan,-1.491806123,1.092039912,2920.591317,3320.43135,3320.598116,3322.248183,3323.34834
0,365,19:47:11:906000,6,0,343,241.171875,[-0.17138818  0.46383642  0.20482281],0,1,0,0.275482832,0,0,0,0.204950488,0.325569419,0.091716395,0.417285813,0.233853024,nan,nan,nan,[ nan  nan  nan],nan,nan,nan,2920.591317,3324.498532,3324.774015,nan,nan
0,366,19:47:12:842000,6,1,134,94.21875,[ 1.         -0.304951   -0.09514411],1,1,1,0.237658539,0,0,0,0.226635766,0.325432195,0.09162808,0.417060275,0.233804116,nan,nan,nan,[ nan  nan  nan],nan,nan,nan,2920.591317,3325.440328,3325.677986,nan,nan
0,367,19:47:13:794000,6,1,366,257.34375,[-0.15559338  0.47730203 -0.02447665],1,1,1,0.263841781,0,0,0,0.258994384,0.325192376,0.091617455,0.416809832,0.233574921,nan,nan,nan,[ nan  nan  nan],nan,nan,nan,2920.591317,3326.382119,3326.645961,nan,nan
0,368,19:47:14:730000,6,1,88,61.875,[ 1.         -0.22525759 -0.59993285],1,1,1,0.21803137,0,0,0,0.239843896,0.325025209,0.091548428,0.416573637,0.23347678,nan,nan,nan,[ nan  nan  nan],nan,nan,nan,2920.591317,3327.32392,3327.541951,nan,nan
0,369,19:47:15:681000,6,1,370,260.15625,[-0.144806    0.47817873 -0.06718033],1,1,1,0.204210188,0,1,0,0.228694446,0.324734464,0.091593467,0.416327932,0.233140997,nan,nan,nan,[ nan  nan  nan],nan,nan,nan,2920.591317,3328.265713,3328.469923,nan,nan
0,370,19:47:20:361000,6,1,418,293.90625,[ 0.10117589  0.45596175 -0.66167931],1,1,1,0.150410524,1,0,0,0.190884027,0.32440784,0.091683626,0.416091467,0.232724214,nan,151.2370424,425,[ 0.14916262  0.4475296  -0.79171567],nan,4.856707578,1.692174421,2920.591317,3329.207501,3329.357912,3331.032681,3332.732906
0,371,19:47:21:297000,6,1,341,239.765625,[-0.16853588  0.4619615   0.22326011],1,1,1,0.130373388,0,0,0,0.1616647,0.323937577,0.092004196,0.415941773,0.231933381,nan,nan,nan,[ nan  nan  nan],nan,nan,nan,2920.591317,3333.891453,3334.021827,nan,nan
0,372,19:47:22:249000,6,1,86,60.46875,[ 1.         -0.21659106 -0.6256178 ],1,1,1,0.220514559,0,0,0,0.16709949,0.323415841,0.092426583,0.415842424,0.230989258,nan,nan,nan,[ nan  nan  nan],nan,nan,nan,2920.591317,3334.833246,3335.053761,nan,nan
0,373,19:47:23:185000,6,1,415,291.796875,[ 0.08130773  0.45915368 -0.61496802],1,1,1,0.350698072,0,0,0,0.233862006,0.323139225,0.092455918,0.415595142,0.230683307,nan,nan,nan,[ nan  nan  nan],nan,nan,nan,2920.591317,3335.775041,3336.125739,nan,nan
0,374,19:47:24:121000,6,1,323,227.109375,[-0.11001989  0.43965345  0.37585536],1,1,1,0.320865598,0,0,0,0.29735941,0.323213109,0.092342895,0.415556004,0.230870214,nan,nan,nan,[ nan  nan  nan],nan,nan,nan,2920.591317,3336.716869,3337.037734,nan,nan
0,375,19:47:25:072000,6,1,372,261.5625,[-0.13866002  0.47845887 -0.08881238],1,1,1,0.315065884,0,0,0,0.328876518,0.323206832,0.092219439,0.415426271,0.230987393,nan,nan,nan,[ nan  nan  nan],nan,nan,nan,2920.591317,3337.658627,3337.973693,nan,nan
0,376,19:47:26:008000,6,1,42,29.53125,[ 1.          0.00954879 -1.        ],1,1,1,0.245256925,0,0,0,0.293729469,0.323185123,0.092097355,0.415282478,0.231087768,nan,nan,nan,[ nan  nan  nan],nan,nan,nan,2920.591317,3338.600415,3338.845672,nan,nan
0,377,19:47:26:944000,6,1,250,175.78125,[ 0.54642845  0.23228666  0.65474773],1,1,1,0.231425479,0,0,0,0.263916096,0.322977867,0.09206233,0.415040197,0.230915537,nan,nan,nan,[ nan  nan  nan],nan,nan,nan,2920.591317,3339.542234,3339.77366,nan,nan
0,378,19:47:27:896000,6,1,379,266.484375,[-0.11353594  0.47861499 -0.16597052],1,1,1,0.265639313,0,0,0,0.247440572,0.322735023,0.092060661,0.414795683,0.230674362,nan,nan,nan,[ nan  nan  nan],nan,nan,nan,2920.591317,3340.483997,3340.749637,nan,nan
0,379,19:47:28:832000,6,1,83,58.359375,[ 1.         -0.20309788 -0.66587671],1,1,1,0.355796734,0,0,0,0.284287175,0.322583976,0.091985572,0.414569548,0.230598404,nan,nan,nan,[ nan  nan  nan],nan,nan,nan,2920.591317,3341.425806,3341.781602,nan,nan
0,380,19:47:29:784000,6,1,357,251.015625,[-0.17179183  0.47376752  0.06873903],1,1,1,0.501997812,0,0,0,0.374477953,0.322671608,0.091879937,0.414551546,0.230791671,nan,nan,nan,[ nan  nan  nan],nan,nan,nan,2920.591317,3342.367591,3342.869589,nan,nan
0,381,19:47:30:720000,6,1,489,343.828125,[ 0.65628486  0.29957244 -1.        ],1,1,1,0.448175341,0,0,1,0.435323296,0.323143519,0.092217735,0.415361254,0.230925785,nan,nan,nan,[ nan  nan  nan],nan,nan,nan,2920.591317,3343.309387,3343.757562,nan,nan
0,382,19:47:35:493000,6,1,149,104.765625,[ 1.         -0.26947852  0.05414366],1,1,1,0.450374574,1,0,0,0.466849242,0.323471687,0.092318545,0.415790232,0.231153142,nan,-11.30993247,144,[ 1.         -0.28442319  0.00519445],nan,-3.455692526,1.783899872,2920.591317,3344.251175,3344.701549,3346.076352,3347.868284
0,383,19:47:36:429000,6,1,453,318.515625,[ 0.35967042  0.39926175 -1.        ],1,1,1,0.274970229,0,0,0,0.391173381,0.323803893,0.092425379,0.416229272,0.231378515,nan,nan,nan,[ nan  nan  nan],nan,nan,nan,2920.591317,3349.018475,3349.293445,nan,nan
0,384,19:47:37:365000,6,0,86,60.46875,[ 1.         -0.21659106 -0.6256178 ],0,1,0,0.253155517,0,0,0,0.326166773,0.32367639,0.092338273,0.416014664,0.231338117,nan,nan,nan,[ nan  nan  nan],nan,nan,nan,2920.591317,3349.960268,3350.213423,nan,nan
0,385,19:47:38:317000,6,1,460,323.4375,[ 0.41584892  0.38333493 -1.        ],1,1,1,0.239311812,0,0,0,0.255812519,0.323492742,0.092287973,0.415780715,0.231204769,nan,nan,nan,[ nan  nan  nan],nan,nan,nan,2920.591317,3350.90208,3351.141392,nan,nan
0,386,19:47:39:253000,6,1,84,59.0625,[ 1.         -0.20765784 -0.65219109],1,1,1,0.377546159,0,0,0,0.290004496,0.323274091,0.09226758,0.41554167,0.231006511,nan,nan,nan,[ nan  nan  nan],nan,nan,nan,2920.591317,3351.843856,3352.221402,nan,nan
0,387,19:47:40:189000,6,1,375,263.671875,[-0.1285567   0.47868243 -0.12160516],1,1,1,0.307710686,0,0,0,0.308189552,0.323414692,0.092189273,0.415603964,0.231225419,nan,nan,nan,[ nan  nan  nan],nan,nan,nan,2920.591317,3352.785643,3353.093353,nan,nan
0,388,19:47:41:141000,6,0,464,326.25,[ 0.44840488  0.37350356 -1.        ],0,1,0,0.26193021,0,0,0,0.315729018,0.323374113,0.09207354,0.415447653,0.231300573,nan,nan,nan,[ nan  nan  nan],nan,nan,nan,2920.591317,3353.727401,3353.989332,nan,nan
0,389,19:47:42:077000,6,1,321,225.703125,[-0.09994335  0.43654647  0.39117498],1,1,1,0.248070254,0,0,0,0.272570383,0.323215752,0.092007568,0.41522332,0.231208184,nan,nan,nan,[ nan  nan  nan],nan,nan,nan,2920.591317,3354.669235,3354.917305,nan,nan
0,390,19:47:43:028000,6,1,264,185.625,[ 0.39496696  0.28788971  0.65071762],1,1,1,0.202275239,0,0,0,0.237425235,0.323022576,0.091967982,0.414990558,0.231054595,nan,nan,nan,[ nan  nan  nan],nan,nan,nan,2920.591317,3355.611026,3355.813301,nan,nan
0,391,19:47:43:964000,6,1,66,46.40625,[ 1.         -0.11856871 -1.        ],1,1,1,0.132471126,0,1,0,0.194272207,0.322712968,0.092052761,0.414765728,0.230660207,nan,nan,nan,[ nan  nan  nan],nan,nan,nan,2920.591317,3356.552813,3356.685285,nan,nan
0,392,19:47:49:221000,6,1,388,272.8125,[-0.07396337  0.47694192 -0.26857716],1,1,1,0.062643065,1,0,0,0.132463143,0.322226416,0.092435733,0.414662148,0.229790683,nan,176.0740923,390,[-0.06419603  0.4762842  -0.29194755],nan,1.113407704,2.275542987,2920.591317,3357.494611,3357.557254,3359.319788,3361.603546
0,393,19:47:50:157000,6,1,207,145.546875,[ 0.98565351  0.01954319  0.51699622],1,1,1,0.371812588,0,0,0,0.188975593,0.321564213,0.093241761,0.414805974,0.228322452,nan,nan,nan,[ nan  nan  nan],nan,nan,nan,2920.591317,3362.745306,3363.117119,nan,nan
0,394,19:47:51:093000,6,1,411,288.984375,[ 0.05552017  0.46302271 -0.55705476],1,1,1,0.333943534,0,0,0,0.256133062,0.321692072,0.093157459,0.414849531,0.228534613,nan,nan,nan,[ nan  nan  nan],nan,nan,nan,2920.591317,3363.687146,3364.021089,nan,nan
0,395,19:47:52:045000,6,1,145,101.953125,[ 1.         -0.28166741  0.01505517],1,1,1,0.31216617,0,0,0,0.339307431,0.321723167,0.093041206,0.414764373,0.228681961,nan,nan,nan,[ nan  nan  nan],nan,nan,nan,2920.591317,3364.628901,3364.941067,nan,nan
0,396,19:47:52:981000,6,1,385,270.703125,[-0.08797966  0.47773344 -0.23392672],1,1,1,0.306358474,0,0,0,0.317489393,0.321698972,0.092924599,0.41462357,0.228774373,nan,nan,nan,[ nan  nan  nan],nan,nan,nan,2920.591317,3365.570691,3365.87705,nan,nan
0,397,19:47:53:917000,6,1,126,88.59375,[ 1.         -0.31141175 -0.17740843],1,1,1,0.29251933,0,0,0,0.303681325,0.321660233,0.092810389,0.414470622,0.228849844,nan,nan,nan,[ nan  nan  nan],nan,nan,nan,2920.591317,3366.512509,3366.805029,nan,nan
0,398,19:47:54:869000,6,1,429,301.640625,[ 0.17753182  0.44208078 -0.9018852 ],1,1,1,0.20674726,0,0,0,0.268541688,0.32158683,0.092704934,0.414291764,0.228881897,nan,nan,nan,[ nan  nan  nan],nan,nan,nan,2920.591317,3367.45428,3367.661027,nan,nan
0,399,19:47:55:805000,6,1,84,59.0625,[ 1.         -0.20765784 -0.65219109],1,1,1,0.256935608,0,0,0,0.252067399,0.321298289,0.092766718,0.414065007,0.228531571,nan,nan,nan,[ nan  nan  nan],nan,nan,nan,2920.591317,3368.396068,3368.653004,nan,nan
0,400,19:47:56:756000,6,1,498,350.15625,[ 0.73150794  0.26756188 -1.        ],1,1,1,0.26714063,0,0,0,0.243607833,0.321136979,0.092706269,0.413843248,0.22843071,nan,nan,nan,[ nan  nan  nan],nan,nan,nan,2920.591317,3369.337828,3369.604969,nan,nan
0,401,19:47:57:692000,6,1,366,257.34375,[-0.15559338  0.47730203 -0.02447665],1,1,1,0.221254954,0,0,0,0.248443731,0.321001988,0.092629568,0.413631556,0.22837242,nan,nan,nan,[ nan  nan  nan],nan,nan,nan,2920.591317,3370.279696,3370.500951,nan,nan
0,402,19:47:58:628000,6,1,308,216.5625,[-0.01868286  0.41309748  0.48168233],1,1,1,0.319490294,0,0,0,0.269295292,0.320753242,0.092647664,0.413400906,0.228105578,nan,nan,nan,[ nan  nan  nan],nan,nan,nan,2920.591317,3371.221444,3371.540934,nan,nan
0,403,19:47:59:580000,6,1,242,170.15625,[ 0.63291185  0.19716118  0.6459214 ],1,1,1,0.313674329,0,0,0,0.284806526,0.320750101,0.09253238,0.413282481,0.228217721,nan,nan,nan,[ nan  nan  nan],nan,nan,nan,2920.591317,3372.163234,3372.476908,nan,nan
0,404,19:48:00:516000,6,1,344,241.875,[-0.17254346  0.46473023  0.19550382],1,1,1,0.283854969,0,0,0,0.305673197,0.320732543,0.092418175,0.413150718,0.228314368,nan,nan,nan,[ nan  nan  nan],nan,nan,nan,2920.591317,3373.105025,3373.38888,nan,nan
0,405,19:48:01:452000,6,1,5,3.515625,[ 0.88714031  0.19065985 -1.        ],1,1,1,0.285966677,0,0,0,0.294498659,0.320641262,0.092321913,0.412963174,0.228319349,nan,nan,nan,[ nan  nan  nan],nan,nan,nan,2920.591317,3374.046885,3374.332852,nan,nan
0,406,19:48:02:403000,6,1,62,43.59375,[ 1.         -0.09743725 -1.        ],1,1,1,0.320244943,0,0,0,0.296688863,0.320555645,0.092223921,0.412779567,0.228331724,nan,nan,nan,[ nan  nan  nan],nan,nan,nan,2920.591317,3374.98861,3375.308854,nan,nan
0,407,19:48:03:339000,6,1,133,93.515625,[ 1.         -0.30625957 -0.10533643],1,1,1,0.298406283,0,0,0,0.301539301,0.32055488,0.092110276,0.412665156,0.228444604,nan,nan,nan,[ nan  nan  nan],nan,nan,nan,2920.591317,3375.930405,3376.228811,nan,nan
0,408,19:48:04:291000,6,0,251,176.484375,[ 0.53557652  0.23650919  0.65528415],0,0,1,0.492581367,0,0,0,0.370410865,0.320500461,0.092003583,0.412504044,0.228496878,nan,nan,nan,[ nan  nan  nan],nan,nan,nan,2920.591317,3376.872196,3377.364778,nan,nan
0,409,19:48:05:227000,6,1,340,239.0625,[-0.16683717  0.46098011  0.2323764 ],1,1,1,0.374778445,0,0,0,0.388588698,0.320922228,0.092283871,0.413206099,0.228638357,nan,nan,nan,[ nan  nan  nan],nan,nan,nan,2920.591317,3377.813988,3378.188767,nan,nan
0,410,19:48:06:163000,6,1,435,305.859375,[ 0.22126383  0.43302706 -1.        ],1,1,1,0.256986641,0,0,0,0.374782151,0.321053906,0.092209353,0.413263259,0.228844552,nan,nan,nan,[ nan  nan  nan],nan,nan,nan,2920.591317,3378.755777,3379.012764,nan,nan
0,411,19:48:07:115000,6,1,148,104.0625,[ 1.         -0.27269559  0.04442646],1,1,1,0.219151799,0,0,0,0.283638961,0.320897644,0.092151038,0.413048682,0.228746607,nan,nan,nan,[ nan  nan  nan],nan,nan,nan,2920.591317,3379.697578,3379.91673,nan,nan
0,412,19:48:08:051000,6,1,23,16.171875,[ 1.          0.10694394 -1.        ],1,1,1,0.157348057,0,1,0,0.211162166,0.320650087,0.092175262,0.41282535,0.228474825,nan,nan,nan,[ nan  nan  nan],nan,nan,nan,2920.591317,3380.63937,3380.796718,nan,nan
