block,trial,freq_trials,correct_response,actual_response,acc,rts,probe_trials,trials_colorind0,trials_colorind1,trials_colorind2,trials_colorind3,trials_colorind4,trials_colorind5,wholereport_resp0,wholereport_resp1,wholereport_resp2,wholereport_resp3,wholereport_resp4,wholereport_resp5,wholereport_respacc0,wholereport_respacc1,wholereport_respacc2,wholereport_respacc3,wholereport_respacc4,wholereport_respacc5,wholereport_respacc_total,wholereport_respcolorind0,wholereport_respcolorind1,wholereport_respcolorind2,wholereport_respcolorind3,wholereport_respcolorind4,wholereport_respcolorind5,wholereport_resporder0,wholereport_resporder1,wholereport_resporder2,wholereport_resporder3,wholereport_resporder4,wholereport_resporder5,wholereport_rts0,wholereport_rts1,wholereport_rts2,wholereport_rts3,wholereport_rts4,wholereport_rts5,time_blockstart,time_encarray_offset,time_encarray_onset,time_response,time_iti_offset,time_iti_onset,time_memprobe_offset,time_memprobe_onset
1,1,1,1,nan,nan,nan,0.0,5,1,0,6,3,4,nan,nan,nan,nan,nan,nan,nan,nan,nan,nan,nan,nan,0.0,nan,nan,nan,nan,nan,nan,nan,nan,nan,nan,nan,nan,nan,nan,nan,nan,nan,nan,194.591774915345,195.61791396746412,nan,nan,nan,nan,nan,nan
1,2,1,1,1.0,1.0,0.3653055503964424,0.0,6,3,8,5,7,4,nan,nan,nan,nan,nan,nan,nan,nan,nan,nan,nan,nan,0.0,nan,nan,nan,nan,nan,nan,nan,nan,nan,nan,nan,nan,nan,nan,nan,nan,nan,nan,194.591774915345,196.62644205242395,nan,196.9917476028204,nan,nan,nan,nan
1,3,1,1,1.0,1.0,0.3811956769786775,0.0,7,8,2,3,1,6,nan,nan,nan,nan,nan,nan,nan,nan,nan,nan,nan,nan,0.0,nan,nan,nan,nan,nan,nan,nan,nan,nan,nan,nan,nan,nan,nan,nan,nan,nan,nan,194.591774915345,197.626516177319,nan,198.00771185429767,nan,nan,nan,nan
1,4,1,1,1.0,1.0,0.2850378337316215,0.0,3,4,1,5,6,2,nan,nan,nan,nan,nan,nan,nan,nan,nan,nan,nan,nan,0.0,nan,nan,nan,nan,nan,nan,nan,nan,nan,nan,nan,nan,nan,nan,nan,nan,nan,nan,194.591774915345,198.62663449253887,nan,198.9116723262705,nan,nan,nan,nan
1,5,1,1,1.0,1.0,0.3152112830430269,0.0,6,7,5,0,3,8,nan,nan,nan,nan,nan,nan,nan,nan,nan,nan,nan,nan,0.0,nan,nan,nan,nan,nan,nan,nan,nan,nan,nan,nan,nan,nan,nan,nan,nan,nan,nan,194.591774915345,199.8684428925626,nan,200.18365417560562,nan,nan,nan,nan
1,6,1,1,1.0,1.0,0.30705439392477274,0.0,4,6,0,7,2,3,nan,nan,nan,nan,nan,nan,nan,nan,nan,nan,nan,nan,0.0,nan,nan,nan,nan,nan,nan,nan,nan,nan,nan,nan,nan,nan,nan,nan,nan,nan,nan,194.591774915345,200.86856947513297,nan,201.17562386905774,nan,nan,nan,nan
1,7,1,1,1.0,1.0,0.2745822127908468,0.0,5,4,3,2,8,0,nan,nan,nan,nan,nan,nan,nan,nan,nan,nan,nan,nan,0.0,nan,nan,nan,nan,nan,nan,nan,nan,nan,nan,nan,nan,nan,nan,nan,nan,nan,nan,194.591774915345,201.8770191585645,nan,202.15160137135535,nan,nan,nan,nan
1,8,1,1,1.0,1.0,0.2900951565243304,0.0,1,0,5,3,2,8,nan,nan,nan,nan,nan,nan,nan,nan,nan,nan,nan,nan,0.0,nan,nan,nan,nan,nan,nan,nan,nan,nan,nan,nan,nan,nan,nan,nan,nan,nan,nan,194.591774915345,202.88548309681937,nan,203.1755782533437,nan,nan,nan,nan
1,9,1,1,1.0,1.0,0.2656259131617844,0.0,4,1,6,2,8,5,nan,nan,nan,nan,nan,nan,nan,nan,nan,nan,nan,nan,0.0,nan,nan,nan,nan,nan,nan,nan,nan,nan,nan,nan,nan,nan,nan,nan,nan,nan,nan,194.591774915345,203.89393192529678,nan,204.15955783845857,nan,nan,nan,nan
1,10,1,1,1.0,1.0,0.2651403942145407,0.0,1,2,7,6,4,0,nan,nan,nan,nan,nan,nan,nan,nan,nan,nan,nan,nan,0.0,nan,nan,nan,nan,nan,nan,nan,nan,nan,nan,nan,nan,nan,nan,nan,nan,nan,nan,194.591774915345,204.90238018333912,nan,205.16752057755366,nan,nan,nan,nan
1,11,1,1,1.0,1.0,0.25667816679924726,0.0,6,0,1,3,8,5,nan,nan,nan,nan,nan,nan,nan,nan,nan,nan,nan,nan,0.0,nan,nan,nan,nan,nan,nan,nan,nan,nan,nan,nan,nan,nan,nan,nan,nan,nan,nan,194.591774915345,205.9108409853652,nan,206.16751915216446,nan,nan,nan,nan
1,12,1,1,1.0,1.0,0.24049382098019123,0.0,5,6,0,8,2,4,nan,nan,nan,nan,nan,nan,nan,nan,nan,nan,nan,nan,0.0,nan,nan,nan,nan,nan,nan,nan,nan,nan,nan,nan,nan,nan,nan,nan,nan,nan,nan,194.591774915345,206.91099009057507,nan,207.15148391155526,nan,nan,nan,nan
1,13,1,1,1.0,1.0,0.22439186833798885,0.0,0,8,1,4,5,7,nan,nan,nan,nan,nan,nan,nan,nan,nan,nan,nan,nan,0.0,nan,nan,nan,nan,nan,nan,nan,nan,nan,nan,nan,nan,nan,nan,nan,nan,nan,nan,194.591774915345,207.9110813215375,nan,208.13547318987548,nan,nan,nan,nan
1,14,1,1,1.0,1.0,0.2718618242070079,0.0,1,7,4,0,6,3,nan,nan,nan,nan,nan,nan,nan,nan,nan,nan,nan,nan,0.0,nan,nan,nan,nan,nan,nan,nan,nan,nan,nan,nan,nan,nan,nan,nan,nan,nan,nan,194.591774915345,208.91957120364532,nan,209.19143302785233,nan,nan,nan,nan
1,15,1,1,1.0,1.0,0.2634067237377167,0.0,7,1,6,4,5,2,nan,nan,nan,nan,nan,nan,nan,nan,nan,nan,nan,nan,0.0,nan,nan,nan,nan,nan,nan,nan,nan,nan,nan,nan,nan,nan,nan,nan,nan,nan,nan,194.591774915345,209.92801775131375,nan,210.19142447505146,nan,nan,nan,nan
1,16,0,0,nan,nan,nan,0.0,2,0,5,1,6,8,nan,nan,nan,nan,nan,nan,nan,nan,nan,nan,nan,nan,0.0,nan,nan,nan,nan,nan,nan,nan,nan,nan,nan,nan,nan,nan,nan,nan,nan,nan,nan,194.591774915345,210.92814091267064,nan,nan,nan,nan,nan,nan
1,17,1,1,0.0,0.0,0.5031076921150088,0.0,8,5,6,2,3,4,nan,nan,nan,nan,nan,nan,nan,nan,nan,nan,nan,nan,0.0,nan,nan,nan,nan,nan,nan,nan,nan,nan,nan,nan,nan,nan,nan,nan,nan,nan,nan,194.591774915345,211.9282657848671,nan,212.43137347698212,nan,nan,nan,nan
1,18,1,1,1.0,1.0,0.510627961717546,0.0,6,2,3,0,4,5,nan,nan,nan,nan,nan,nan,nan,nan,nan,nan,nan,nan,0.0,nan,nan,nan,nan,nan,nan,nan,nan,nan,nan,nan,nan,nan,nan,nan,nan,nan,nan,194.591774915345,212.93669636687264,nan,213.44732432859018,nan,nan,nan,nan
1,19,1,1,1.0,1.0,0.32648684130981565,0.0,1,5,7,2,8,0,nan,nan,nan,nan,nan,nan,nan,nan,nan,nan,nan,nan,0.0,nan,nan,nan,nan,nan,nan,nan,nan,nan,nan,nan,nan,nan,nan,nan,nan,nan,nan,194.591774915345,213.9368411959149,nan,214.2633280372247,nan,nan,nan,nan
1,20,1,1,1.0,1.0,0.20604905858635902,0.0,8,0,3,7,5,6,nan,nan,nan,nan,nan,nan,nan,nan,nan,nan,nan,nan,0.0,nan,nan,nan,nan,nan,nan,nan,nan,nan,nan,nan,nan,nan,nan,nan,nan,nan,nan,194.591774915345,214.9452549573034,nan,215.15130401588976,nan,nan,nan,nan
1,21,1,1,1.0,1.0,0.2375322408042848,0.0,2,8,6,0,3,1,nan,nan,nan,nan,nan,nan,nan,nan,nan,nan,nan,nan,0.0,nan,nan,nan,nan,nan,nan,nan,nan,nan,nan,nan,nan,nan,nan,nan,nan,nan,nan,194.591774915345,215.95375567302108,nan,216.19128791382536,nan,nan,nan,nan
1,22,1,1,1.0,1.0,0.25337675167247653,0.0,6,7,5,4,0,3,nan,nan,nan,nan,nan,nan,nan,nan,nan,nan,nan,nan,0.0,nan,nan,nan,nan,nan,nan,nan,nan,nan,nan,nan,nan,nan,nan,nan,nan,nan,nan,194.591774915345,216.95388254057616,nan,217.20725929224864,nan,nan,nan,nan
1,23,1,1,1.0,1.0,0.2532356292940676,0.0,4,6,3,8,7,2,nan,nan,nan,nan,nan,nan,nan,nan,nan,nan,nan,nan,0.0,nan,nan,nan,nan,nan,nan,nan,nan,nan,nan,nan,nan,nan,nan,nan,nan,nan,nan,194.591774915345,217.95400741277263,nan,218.2072430420667,nan,nan,nan,nan
1,24,1,1,1.0,1.0,0.27708279248327017,0.0,5,1,4,0,2,8,nan,nan,nan,nan,nan,nan,nan,nan,nan,nan,nan,nan,0.0,nan,nan,nan,nan,nan,nan,nan,nan,nan,nan,nan,nan,nan,nan,nan,nan,nan,nan,194.591774915345,218.9541285787709,nan,219.23121137125418,nan,nan,nan,nan
1,25,1,1,1.0,1.0,0.252930860966444,0.0,1,4,8,6,3,5,nan,nan,nan,nan,nan,nan,nan,nan,nan,nan,nan,nan,0.0,nan,nan,nan,nan,nan,nan,nan,nan,nan,nan,nan,nan,nan,nan,nan,nan,nan,nan,194.591774915345,219.95425801258534,nan,220.2071888735518,nan,nan,nan,nan
1,26,0,0,nan,nan,nan,0.0,3,8,2,4,1,6,nan,nan,nan,nan,nan,nan,nan,nan,nan,nan,nan,nan,0.0,nan,nan,nan,nan,nan,nan,nan,nan,nan,nan,nan,nan,nan,nan,nan,nan,nan,nan,194.591774915345,220.9626877391711,nan,nan,nan,nan,nan,nan
1,27,1,1,1.0,1.0,0.06832360848784447,0.0,7,0,5,6,3,1,nan,nan,nan,nan,nan,nan,nan,nan,nan,nan,nan,nan,0.0,nan,nan,nan,nan,nan,nan,nan,nan,nan,nan,nan,nan,nan,nan,nan,nan,nan,nan,194.591774915345,221.9628411210142,nan,222.03116472950205,nan,nan,nan,nan
1,28,1,1,1.0,1.0,0.22816169634461403,0.0,4,3,1,8,0,7,nan,nan,nan,nan,nan,nan,nan,nan,nan,nan,nan,nan,0.0,nan,nan,nan,nan,nan,nan,nan,nan,nan,nan,nan,nan,nan,nan,nan,nan,nan,nan,194.591774915345,222.9629637124017,nan,223.1911254087463,nan,nan,nan,nan
1,29,1,1,1.0,1.0,0.20402402011677623,0.0,2,1,3,0,7,6,nan,nan,nan,nan,nan,nan,nan,nan,nan,nan,nan,nan,0.0,nan,nan,nan,nan,nan,nan,nan,nan,nan,nan,nan,nan,nan,nan,nan,nan,nan,nan,194.591774915345,223.96307090856135,nan,224.16709492867813,nan,nan,nan,nan
1,30,1,1,1.0,1.0,0.2918664598837495,0.0,5,6,0,4,8,2,nan,nan,nan,nan,nan,nan,nan,nan,nan,nan,nan,nan,0.0,nan,nan,nan,nan,nan,nan,nan,nan,nan,nan,nan,nan,nan,nan,nan,nan,nan,nan,194.591774915345,224.96321203140542,nan,225.25507849128917,nan,nan,nan,nan
1,31,1,1,1.0,1.0,0.27572516398504376,0.0,6,2,3,8,0,5,nan,nan,nan,nan,nan,nan,nan,nan,nan,nan,nan,nan,0.0,nan,nan,nan,nan,nan,nan,nan,nan,nan,nan,nan,nan,nan,nan,nan,nan,nan,nan,194.591774915345,225.96332065295428,nan,226.23904581693932,nan,nan,nan,nan
1,32,1,1,1.0,1.0,0.23557077813893557,0.0,3,4,5,1,6,2,nan,nan,nan,nan,nan,nan,nan,nan,nan,nan,nan,nan,0.0,nan,nan,nan,nan,nan,nan,nan,nan,nan,nan,nan,nan,nan,nan,nan,nan,nan,nan,194.591774915345,226.9634483763948,nan,227.19901915453374,nan,nan,nan,nan
1,33,0,0,1.0,0.0,0.2031119973398745,1.0,2,8,0,3,4,7,1.0,1.0,1.0,1.0,1.0,1.0,0.0,0.0,0.0,0.0,0.0,0.0,0.0,5.0,3.0,8.0,4.0,0.0,6.0,6.0,5.0,1.0,2.0,3.0,4.0,6.493819825351238,5.6062526744790375,1.9760775715112686,2.9757132180966437,3.823037888854742,4.679120717570186,194.591774915345,227.9718929277733,228.78030509268865,228.17500492511317,236.33955850545317,237.33940141741186,229.80543804029003,236.33122685179114
1,34,1,1,1.0,1.0,0.7226811479777098,0.0,5,1,8,7,6,3,nan,nan,nan,nan,nan,nan,nan,nan,nan,nan,nan,nan,0.0,nan,nan,nan,nan,nan,nan,nan,nan,nan,nan,nan,nan,nan,nan,nan,nan,nan,nan,194.591774915345,237.5480756429024,nan,238.2707567908801,nan,nan,nan,nan
1,35,1,1,1.0,1.0,0.2985861790366471,0.0,2,5,1,4,7,0,nan,nan,nan,nan,nan,nan,nan,nan,nan,nan,nan,nan,0.0,nan,nan,nan,nan,nan,nan,nan,nan,nan,nan,nan,nan,nan,nan,nan,nan,nan,nan,194.591774915345,238.54816715884954,nan,238.84675333788618,nan,nan,nan,nan
1,36,1,1,1.0,1.0,0.26608548825606704,0.0,5,1,7,0,8,6,nan,nan,nan,nan,nan,nan,nan,nan,nan,nan,nan,nan,0.0,nan,nan,nan,nan,nan,nan,nan,nan,nan,nan,nan,nan,nan,nan,nan,nan,nan,nan,194.591774915345,239.5566553301178,nan,239.82274081837386,nan,nan,nan,nan
1,37,1,1,1.0,1.0,0.281608980614692,0.0,8,2,0,3,1,4,nan,nan,nan,nan,nan,nan,nan,nan,nan,nan,nan,nan,0.0,nan,nan,nan,nan,nan,nan,nan,nan,nan,nan,nan,nan,nan,nan,nan,nan,nan,nan,194.591774915345,240.56511157099158,nan,240.84672055160627,nan,nan,nan,nan
1,38,1,1,1.0,1.0,0.2651264243759215,0.0,2,4,3,8,6,5,nan,nan,nan,nan,nan,nan,nan,nan,nan,nan,nan,nan,0.0,nan,nan,nan,nan,nan,nan,nan,nan,nan,nan,nan,nan,nan,nan,nan,nan,nan,nan,194.591774915345,241.5735661010258,nan,241.8386925254017,nan,nan,nan,nan
1,39,1,1,1.0,1.0,0.2729594446718693,0.0,0,2,5,3,7,1,nan,nan,nan,nan,nan,nan,nan,nan,nan,nan,nan,nan,0.0,nan,nan,nan,nan,nan,nan,nan,nan,nan,nan,nan,nan,nan,nan,nan,nan,nan,nan,194.591774915345,242.57370836427435,nan,242.84666780894622,nan,nan,nan,nan
1,40,1,1,1.0,1.0,0.2725141244009137,0.0,8,1,4,2,6,5,nan,nan,nan,nan,nan,nan,nan,nan,nan,nan,nan,nan,0.0,nan,nan,nan,nan,nan,nan,nan,nan,nan,nan,nan,nan,nan,nan,nan,nan,nan,nan,194.591774915345,243.5821343846619,nan,243.85464850906283,nan,nan,nan,nan
1,41,1,1,1.0,1.0,0.21636783331632614,0.0,6,5,1,4,2,8,nan,nan,nan,nan,nan,nan,nan,nan,nan,nan,nan,nan,0.0,nan,nan,nan,nan,nan,nan,nan,nan,nan,nan,nan,nan,nan,nan,nan,nan,nan,nan,194.591774915345,244.58226039726287,nan,244.7986282305792,nan,nan,nan,nan
1,42,1,1,1.0,1.0,0.2558881645090878,0.0,2,7,5,1,6,0,nan,nan,nan,nan,nan,nan,nan,nan,nan,nan,nan,nan,0.0,nan,nan,nan,nan,nan,nan,nan,nan,nan,nan,nan,nan,nan,nan,nan,nan,nan,nan,194.591774915345,245.59070665948093,nan,245.84659482399002,nan,nan,nan,nan
1,43,1,1,1.0,1.0,0.20770660880953074,0.0,1,2,7,6,0,3,nan,nan,nan,nan,nan,nan,nan,nan,nan,nan,nan,nan,0.0,nan,nan,nan,nan,nan,nan,nan,nan,nan,nan,nan,nan,nan,nan,nan,nan,nan,nan,194.591774915345,246.59086659830064,nan,246.79857320711017,nan,nan,nan,nan
1,44,0,0,1.0,0.0,0.1832824107259512,1.0,0,1,6,8,5,4,1.0,1.0,1.0,1.0,1.0,1.0,0.0,0.0,0.0,0.0,0.0,0.0,0.0,7.0,4.0,2.0,0.0,3.0,6.0,6.0,2.0,1.0,3.0,4.0,5.0,6.714099179953337,3.2432769308798015,1.851191431749612,4.3242485504597425,5.195307771675289,6.162787694483995,194.591774915345,247.59926610486582,248.40773956570774,247.78254851559177,256.17534190882,257.1821377486922,249.42451548576355,256.1670059785247
1,45,1,1,1.0,1.0,0.33449120447039604,0.0,8,5,1,7,3,0,nan,nan,nan,nan,nan,nan,nan,nan,nan,nan,nan,nan,0.0,nan,nan,nan,nan,nan,nan,nan,nan,nan,nan,nan,nan,nan,nan,nan,nan,nan,nan,194.591774915345,257.3838465018198,nan,257.7183377062902,nan,nan,nan,nan
1,46,1,1,1.0,1.0,0.26198580395430326,0.0,1,7,3,4,6,2,nan,nan,nan,nan,nan,nan,nan,nan,nan,nan,nan,nan,0.0,nan,nan,nan,nan,nan,nan,nan,nan,nan,nan,nan,nan,nan,nan,nan,nan,nan,nan,194.591774915345,258.39230530848727,nan,258.65429111244157,nan,nan,nan,nan
1,47,1,1,1.0,1.0,0.1815062607638538,0.0,5,3,4,8,1,6,nan,nan,nan,nan,nan,nan,nan,nan,nan,nan,nan,nan,0.0,nan,nan,nan,nan,nan,nan,nan,nan,nan,nan,nan,nan,nan,nan,nan,nan,nan,nan,194.591774915345,259.40076753590256,nan,259.5822737966664,nan,nan,nan,nan
1,48,1,1,nan,nan,nan,0.0,4,0,2,6,3,1,nan,nan,nan,nan,nan,nan,nan,nan,nan,nan,nan,nan,0.0,nan,nan,nan,nan,nan,nan,nan,nan,nan,nan,nan,nan,nan,nan,nan,nan,nan,nan,194.591774915345,260.4092180747539,nan,nan,nan,nan,nan,nan
1,49,1,1,1.0,1.0,0.18856638483703136,0.0,6,1,3,7,5,2,nan,nan,nan,nan,nan,nan,nan,nan,nan,nan,nan,nan,0.0,nan,nan,nan,nan,nan,nan,nan,nan,nan,nan,nan,nan,nan,nan,nan,nan,nan,nan,194.591774915345,261.4176822984591,nan,261.60624868329614,nan,nan,nan,nan
1,50,1,1,1.0,1.0,0.29206346115097404,0.0,1,6,0,5,3,4,nan,nan,nan,nan,nan,nan,nan,nan,nan,nan,nan,nan,0.0,nan,nan,nan,nan,nan,nan,nan,nan,nan,nan,nan,nan,nan,nan,nan,nan,nan,nan,194.591774915345,262.42612970108166,nan,262.71819316223264,nan,nan,nan,nan
1,51,1,1,1.0,1.0,0.45958232833072543,0.0,0,1,4,7,5,2,nan,nan,nan,nan,nan,nan,nan,nan,nan,nan,nan,nan,0.0,nan,nan,nan,nan,nan,nan,nan,nan,nan,nan,nan,nan,nan,nan,nan,nan,nan,nan,194.591774915345,263.43458622694016,nan,263.8941685552709,nan,nan,nan,nan
1,52,1,1,1.0,1.0,0.3630923484452069,0.0,1,2,7,4,0,5,nan,nan,nan,nan,nan,nan,nan,nan,nan,nan,nan,nan,0.0,nan,nan,nan,nan,nan,nan,nan,nan,nan,nan,nan,nan,nan,nan,nan,nan,nan,nan,194.591774915345,264.4430590029806,nan,264.8061513514258,nan,nan,nan,nan
1,53,1,1,1.0,1.0,0.41062103398144245,0.0,7,0,8,3,5,1,nan,nan,nan,nan,nan,nan,nan,nan,nan,nan,nan,nan,0.0,nan,nan,nan,nan,nan,nan,nan,nan,nan,nan,nan,nan,nan,nan,nan,nan,nan,nan,194.591774915345,265.4515106822364,nan,265.86213171621785,nan,nan,nan,nan
1,54,1,1,1.0,1.0,0.48212802736088634,0.0,6,3,2,5,8,7,nan,nan,nan,nan,nan,nan,nan,nan,nan,nan,nan,nan,0.0,nan,nan,nan,nan,nan,nan,nan,nan,nan,nan,nan,nan,nan,nan,nan,nan,nan,nan,194.591774915345,266.4599697738886,nan,266.9420978012495,nan,nan,nan,nan
1,55,1,1,1.0,1.0,0.3376526371575892,0.0,1,2,6,7,3,4,nan,nan,nan,nan,nan,nan,nan,nan,nan,nan,nan,nan,0.0,nan,nan,nan,nan,nan,nan,nan,nan,nan,nan,nan,nan,nan,nan,nan,nan,nan,nan,194.591774915345,267.4684274401516,nan,267.80608007730916,nan,nan,nan,nan
1,56,1,1,1.0,1.0,0.3051824513822794,0.0,6,1,5,0,2,3,nan,nan,nan,nan,nan,nan,nan,nan,nan,nan,nan,nan,0.0,nan,nan,nan,nan,nan,nan,nan,nan,nan,nan,nan,nan,nan,nan,nan,nan,nan,nan,194.591774915345,268.4768779790029,nan,268.7820604303852,nan,nan,nan,nan
1,57,1,1,1.0,1.0,0.33673947351053357,0.0,1,8,3,2,6,0,nan,nan,nan,nan,nan,nan,nan,nan,nan,nan,nan,nan,0.0,nan,nan,nan,nan,nan,nan,nan,nan,nan,nan,nan,nan,nan,nan,nan,nan,nan,nan,194.591774915345,269.4853071356192,nan,269.82204660912976,nan,nan,nan,nan
1,58,1,1,1.0,1.0,0.28820981504395604,0.0,5,4,1,7,8,6,nan,nan,nan,nan,nan,nan,nan,nan,nan,nan,nan,nan,0.0,nan,nan,nan,nan,nan,nan,nan,nan,nan,nan,nan,nan,nan,nan,nan,nan,nan,nan,194.591774915345,270.4938069959171,nan,270.78201681096107,nan,nan,nan,nan
1,59,1,1,1.0,1.0,0.2877550860866904,0.0,7,1,4,8,3,5,nan,nan,nan,nan,nan,nan,nan,nan,nan,nan,nan,nan,0.0,nan,nan,nan,nan,nan,nan,nan,nan,nan,nan,nan,nan,nan,nan,nan,nan,nan,nan,194.591774915345,271.50225610937923,nan,271.7900111954659,nan,nan,nan,nan
1,60,1,1,1.0,1.0,0.24727882724255323,0.0,5,6,2,1,0,8,nan,nan,nan,nan,nan,nan,nan,nan,nan,nan,nan,nan,0.0,nan,nan,nan,nan,nan,nan,nan,nan,nan,nan,nan,nan,nan,nan,nan,nan,nan,nan,194.591774915345,272.51070294203237,nan,272.7579817692749,nan,nan,nan,nan
1,61,1,1,0.0,0.0,0.29473538370803,0.0,1,0,3,2,5,6,nan,nan,nan,nan,nan,nan,nan,nan,nan,nan,nan,nan,0.0,nan,nan,nan,nan,nan,nan,nan,nan,nan,nan,nan,nan,nan,nan,nan,nan,nan,nan,194.591774915345,273.51920935930684,nan,273.8139447430149,nan,nan,nan,nan
1,62,0,0,0.0,1.0,0.5422836267389357,1.0,5,2,8,4,0,7,1.0,1.0,1.0,1.0,1.0,1.0,1.0,1.0,1.0,1.0,0.0,0.0,4.0,5.0,2.0,8.0,4.0,7.0,6.0,4.0,3.0,2.0,1.0,5.0,6.0,4.41759363329038,3.3549862056970596,2.46724856691435,1.4825151874683797,6.385179611854255,7.0890013561584055,194.591774915345,274.5276248315349,275.33602701779455,275.06990845827386,283.4786569797434,284.4815894803032,276.35283144796267,283.4704042975791
1,63,1,1,1.0,1.0,0.36647872161120176,0.0,7,4,0,8,2,3,nan,nan,nan,nan,nan,nan,nan,nan,nan,nan,nan,nan,0.0,nan,nan,nan,nan,nan,nan,nan,nan,nan,nan,nan,nan,nan,nan,nan,nan,nan,nan,194.591774915345,284.6872337022796,nan,285.05371242389083,nan,nan,nan,nan
1,64,1,1,1.0,1.0,0.27032087836414576,0.0,2,7,3,5,4,6,nan,nan,nan,nan,nan,nan,nan,nan,nan,nan,nan,nan,0.0,nan,nan,nan,nan,nan,nan,nan,nan,nan,nan,nan,nan,nan,nan,nan,nan,nan,nan,194.591774915345,285.6873383326456,nan,285.95765921100974,nan,nan,nan,nan
1,65,1,1,1.0,1.0,0.2778645264916122,0.0,3,5,6,4,8,1,nan,nan,nan,nan,nan,nan,nan,nan,nan,nan,nan,nan,0.0,nan,nan,nan,nan,nan,nan,nan,nan,nan,nan,nan,nan,nan,nan,nan,nan,nan,nan,194.591774915345,286.69578858604655,nan,286.97365311253816,nan,nan,nan,nan
1,66,1,1,1.0,1.0,0.24568884540349245,0.0,8,6,0,2,7,5,nan,nan,nan,nan,nan,nan,nan,nan,nan,nan,nan,nan,0.0,nan,nan,nan,nan,nan,nan,nan,nan,nan,nan,nan,nan,nan,nan,nan,nan,nan,nan,194.591774915345,287.69592742808163,nan,287.9416162734851,nan,nan,nan,nan
1,67,1,1,1.0,1.0,0.2212372780777514,0.0,2,0,7,1,4,3,nan,nan,nan,nan,nan,nan,nan,nan,nan,nan,nan,nan,0.0,nan,nan,nan,nan,nan,nan,nan,nan,nan,nan,nan,nan,nan,nan,nan,nan,nan,nan,194.591774915345,288.7043708395213,nan,288.92560811759904,nan,nan,nan,nan
1,68,1,1,1.0,1.0,0.20507117873057723,0.0,0,2,6,3,8,5,nan,nan,nan,nan,nan,nan,nan,nan,nan,nan,nan,nan,0.0,nan,nan,nan,nan,nan,nan,nan,nan,nan,nan,nan,nan,nan,nan,nan,nan,nan,nan,194.591774915345,289.7045065453276,nan,289.9095777240582,nan,nan,nan,nan
1,69,1,1,1.0,1.0,0.18893301859498024,0.0,6,8,4,7,5,2,nan,nan,nan,nan,nan,nan,nan,nan,nan,nan,nan,nan,0.0,nan,nan,nan,nan,nan,nan,nan,nan,nan,nan,nan,nan,nan,nan,nan,nan,nan,nan,194.591774915345,290.7046228647232,nan,290.8935558833182,nan,nan,nan,nan
1,70,1,1,1.0,1.0,0.20477838441729546,0.0,2,1,5,6,8,0,nan,nan,nan,nan,nan,nan,nan,nan,nan,nan,nan,nan,0.0,nan,nan,nan,nan,nan,nan,nan,nan,nan,nan,nan,nan,nan,nan,nan,nan,nan,nan,194.591774915345,291.7047491623089,nan,291.90952754672617,nan,nan,nan,nan
1,71,1,1,1.0,1.0,0.2126393443904817,0.0,8,3,2,0,7,4,nan,nan,nan,nan,nan,nan,nan,nan,nan,nan,nan,nan,0.0,nan,nan,nan,nan,nan,nan,nan,nan,nan,nan,nan,nan,nan,nan,nan,nan,nan,nan,194.591774915345,292.7048646262847,nan,292.91750397067517,nan,nan,nan,nan
1,72,1,1,1.0,1.0,0.20445936219766736,0.0,3,0,1,7,4,5,nan,nan,nan,nan,nan,nan,nan,nan,nan,nan,nan,nan,0.0,nan,nan,nan,nan,nan,nan,nan,nan,nan,nan,nan,nan,nan,nan,nan,nan,nan,nan,194.591774915345,293.7050425261259,nan,293.9095018883236,nan,nan,nan,nan
1,73,1,1,1.0,1.0,0.18035874795168638,0.0,1,2,7,6,8,0,nan,nan,nan,nan,nan,nan,nan,nan,nan,nan,nan,nan,0.0,nan,nan,nan,nan,nan,nan,nan,nan,nan,nan,nan,nan,nan,nan,nan,nan,nan,nan,194.591774915345,294.7051143706776,nan,294.8854731186293,nan,nan,nan,nan
1,74,1,1,1.0,1.0,0.18020337028428912,0.0,6,3,0,5,7,1,nan,nan,nan,nan,nan,nan,nan,nan,nan,nan,nan,nan,0.0,nan,nan,nan,nan,nan,nan,nan,nan,nan,nan,nan,nan,nan,nan,nan,nan,nan,nan,194.591774915345,295.7052403832786,nan,295.88544375356287,nan,nan,nan,nan
1,75,1,1,1.0,1.0,0.22805478516966105,0.0,2,7,8,0,4,5,nan,nan,nan,nan,nan,nan,nan,nan,nan,nan,nan,nan,0.0,nan,nan,nan,nan,nan,nan,nan,nan,nan,nan,nan,nan,nan,nan,nan,nan,nan,nan,194.591774915345,296.705360123422,nan,296.93341490859166,nan,nan,nan,nan
1,76,0,0,0.0,1.0,0.3798848041333258,0.0,4,5,2,1,7,3,nan,nan,nan,nan,nan,nan,nan,nan,nan,nan,nan,nan,0.0,nan,nan,nan,nan,nan,nan,nan,nan,nan,nan,nan,nan,nan,nan,nan,nan,nan,nan,194.591774915345,297.7054969696328,nan,298.08538177376613,nan,nan,nan,nan
1,77,1,1,nan,nan,nan,0.0,0,7,4,8,2,6,nan,nan,nan,nan,nan,nan,nan,nan,nan,nan,nan,nan,0.0,nan,nan,nan,nan,nan,nan,nan,nan,nan,nan,nan,nan,nan,nan,nan,nan,nan,nan,194.591774915345,298.7056161398068,nan,nan,nan,nan,nan,nan
1,78,1,1,1.0,1.0,0.05963872047141194,0.0,1,3,6,2,4,8,nan,nan,nan,nan,nan,nan,nan,nan,nan,nan,nan,nan,0.0,nan,nan,nan,nan,nan,nan,nan,nan,nan,nan,nan,nan,nan,nan,nan,nan,nan,nan,194.591774915345,299.70573046337813,nan,299.76536918384954,nan,nan,nan,nan
1,79,1,1,1.0,1.0,0.31544620264321566,0.0,4,5,1,7,3,2,nan,nan,nan,nan,nan,nan,nan,nan,nan,nan,nan,nan,0.0,nan,nan,nan,nan,nan,nan,nan,nan,nan,nan,nan,nan,nan,nan,nan,nan,nan,nan,194.591774915345,300.7058547656052,nan,301.0213009682484,nan,nan,nan,nan
1,80,1,1,1.0,1.0,0.30733663914725184,0.0,3,0,8,1,2,6,nan,nan,nan,nan,nan,nan,nan,nan,nan,nan,nan,nan,0.0,nan,nan,nan,nan,nan,nan,nan,nan,nan,nan,nan,nan,nan,nan,nan,nan,nan,nan,194.591774915345,301.7059536939487,nan,302.01329033309594,nan,nan,nan,nan
1,81,0,0,1.0,0.0,0.2671856749802828,0.0,7,8,4,2,3,5,nan,nan,nan,nan,nan,nan,nan,nan,nan,nan,nan,nan,0.0,nan,nan,nan,nan,nan,nan,nan,nan,nan,nan,nan,nan,nan,nan,nan,nan,nan,nan,194.591774915345,302.70609766757116,nan,302.97328334255144,nan,nan,nan,nan
1,82,1,1,1.0,1.0,0.4586742967367172,0.0,6,7,0,8,4,2,nan,nan,nan,nan,nan,nan,nan,nan,nan,nan,nan,nan,0.0,nan,nan,nan,nan,nan,nan,nan,nan,nan,nan,nan,nan,nan,nan,nan,nan,nan,nan,194.591774915345,303.71453623240814,nan,304.17321052914485,nan,nan,nan,nan
1,83,1,1,1.0,1.0,0.32255536364391446,0.0,0,1,7,3,6,8,nan,nan,nan,nan,nan,nan,nan,nan,nan,nan,nan,nan,0.0,nan,nan,nan,nan,nan,nan,nan,nan,nan,nan,nan,nan,nan,nan,nan,nan,nan,nan,194.591774915345,304.714680776,nan,305.03723613964394,nan,nan,nan,nan
1,84,0,0,0.0,1.0,0.5783996237441897,0.0,8,0,3,7,4,5,nan,nan,nan,nan,nan,nan,nan,nan,nan,nan,nan,nan,0.0,nan,nan,nan,nan,nan,nan,nan,nan,nan,nan,nan,nan,nan,nan,nan,nan,nan,nan,194.591774915345,305.71480906940997,nan,306.29320869315416,nan,nan,nan,nan
1,85,1,1,1.0,1.0,0.7619044086895883,0.0,1,4,7,8,3,6,nan,nan,nan,nan,nan,nan,nan,nan,nan,nan,nan,nan,0.0,nan,nan,nan,nan,nan,nan,nan,nan,nan,nan,nan,nan,nan,nan,nan,nan,nan,nan,194.591774915345,306.7232556170784,nan,307.485160025768,nan,nan,nan,nan
1,86,1,1,nan,nan,nan,0.0,4,5,8,1,6,2,nan,nan,nan,nan,nan,nan,nan,nan,nan,nan,nan,nan,0.0,nan,nan,nan,nan,nan,nan,nan,nan,nan,nan,nan,nan,nan,nan,nan,nan,nan,nan,194.591774915345,307.73169817309827,nan,nan,nan,nan,nan,nan
1,87,0,0,nan,nan,nan,1.0,8,3,1,4,7,5,1.0,1.0,1.0,1.0,1.0,1.0,1.0,1.0,1.0,0.0,1.0,0.0,4.0,8.0,3.0,1.0,6.0,7.0,0.0,3.0,2.0,1.0,6.0,5.0,4.0,3.339946236461401,2.7017958499491215,2.1011399002745748,6.01998952543363,5.108837499748915,4.396069719456136,194.591774915345,308.731844142545,309.5402471842244,nan,316.62444438273087,317.6307920515537,310.56536844279617,316.6161184310913
1,88,1,1,1.0,1.0,0.6599656688049436,0.0,1,4,2,6,0,7,nan,nan,nan,nan,nan,nan,nan,nan,nan,nan,nan,nan,0.0,nan,nan,nan,nan,nan,nan,nan,nan,nan,nan,nan,nan,nan,nan,nan,nan,nan,nan,194.591774915345,317.8329580989666,nan,318.4929237677716,nan,nan,nan,nan
1,89,1,1,1.0,1.0,0.41145009361207485,0.0,2,0,7,1,6,4,nan,nan,nan,nan,nan,nan,nan,nan,nan,nan,nan,nan,0.0,nan,nan,nan,nan,nan,nan,nan,nan,nan,nan,nan,nan,nan,nan,nan,nan,nan,nan,194.591774915345,318.8414727845229,nan,319.252922878135,nan,nan,nan,nan
1,90,1,1,1.0,1.0,0.2750064362771809,0.0,8,6,0,7,2,5,nan,nan,nan,nan,nan,nan,nan,nan,nan,nan,nan,nan,0.0,nan,nan,nan,nan,nan,nan,nan,nan,nan,nan,nan,nan,nan,nan,nan,nan,nan,nan,194.591774915345,319.84986202744767,nan,320.12486846372485,nan,nan,nan,nan
1,91,1,1,1.0,1.0,0.24253881676122546,0.0,2,5,1,0,4,8,nan,nan,nan,nan,nan,nan,nan,nan,nan,nan,nan,nan,0.0,nan,nan,nan,nan,nan,nan,nan,nan,nan,nan,nan,nan,nan,nan,nan,nan,nan,nan,194.591774915345,320.8583139916882,nan,321.1008528084494,nan,nan,nan,nan
1,92,1,1,1.0,1.0,0.23401529341936111,0.0,8,6,0,5,7,3,nan,nan,nan,nan,nan,nan,nan,nan,nan,nan,nan,nan,0.0,nan,nan,nan,nan,nan,nan,nan,nan,nan,nan,nan,nan,nan,nan,nan,nan,nan,nan,194.591774915345,321.8668052991852,nan,322.1008205926046,nan,nan,nan,nan
1,93,1,1,1.0,1.0,0.19358008773997426,0.0,4,5,3,2,0,7,nan,nan,nan,nan,nan,nan,nan,nan,nan,nan,nan,nan,0.0,nan,nan,nan,nan,nan,nan,nan,nan,nan,nan,nan,nan,nan,nan,nan,nan,nan,nan,194.591774915345,322.87523274542764,nan,323.0688128331676,nan,nan,nan,nan
1,94,1,1,1.0,1.0,0.28142594918608665,0.0,0,3,7,8,1,4,nan,nan,nan,nan,nan,nan,nan,nan,nan,nan,nan,nan,0.0,nan,nan,nan,nan,nan,nan,nan,nan,nan,nan,nan,nan,nan,nan,nan,nan,nan,nan,194.591774915345,323.87534877937287,nan,324.15677472855896,nan,nan,nan,nan
1,95,1,1,1.0,1.0,0.21723880246281624,0.0,6,2,0,1,7,3,nan,nan,nan,nan,nan,nan,nan,nan,nan,nan,nan,nan,0.0,nan,nan,nan,nan,nan,nan,nan,nan,nan,nan,nan,nan,nan,nan,nan,nan,nan,nan,194.591774915345,324.8755109994672,nan,325.09274980193004,nan,nan,nan,nan
1,96,1,1,1.0,1.0,0.2887737355194986,0.0,4,0,1,3,5,8,nan,nan,nan,nan,nan,nan,nan,nan,nan,nan,nan,nan,0.0,nan,nan,nan,nan,nan,nan,nan,nan,nan,nan,nan,nan,nan,nan,nan,nan,nan,nan,194.591774915345,325.88396353367716,nan,326.17273726919666,nan,nan,nan,nan
1,97,0,0,1.0,0.0,0.16058618063107133,1.0,1,7,2,8,6,5,1.0,1.0,1.0,1.0,1.0,1.0,0.0,0.0,1.0,0.0,0.0,0.0,1.0,7.0,6.0,2.0,0.0,3.0,4.0,1.0,2.0,3.0,4.0,5.0,6.0,2.8359293723478913,3.566383385565132,4.220143363345414,5.180709701497108,6.020698844920844,6.812099029775709,194.591774915345,326.88412233255804,327.6924808989279,327.0447085131891,335.55178303457797,336.55319026997313,328.70094027603045,335.54348245682195
1,98,1,1,1.0,1.0,0.33218677109107375,0.0,8,5,3,4,1,2,nan,nan,nan,nan,nan,nan,nan,nan,nan,nan,nan,nan,0.0,nan,nan,nan,nan,nan,nan,nan,nan,nan,nan,nan,nan,nan,nan,nan,nan,nan,nan,194.591774915345,336.76031043566763,nan,337.0924972067587,nan,nan,nan,nan
1,99,1,1,1.0,1.0,0.2920506317168474,0.0,1,6,8,3,0,5,nan,nan,nan,nan,nan,nan,nan,nan,nan,nan,nan,nan,0.0,nan,nan,nan,nan,nan,nan,nan,nan,nan,nan,nan,nan,nan,nan,nan,nan,nan,nan,194.591774915345,337.7604164914228,nan,338.05246712313965,nan,nan,nan,nan
1,100,1,1,1.0,1.0,0.28358127688989043,0.0,6,1,4,7,2,8,nan,nan,nan,nan,nan,nan,nan,nan,nan,nan,nan,nan,0.0,nan,nan,nan,nan,nan,nan,nan,nan,nan,nan,nan,nan,nan,nan,nan,nan,nan,nan,194.591774915345,338.7688553412445,nan,339.0524366181344,nan,nan,nan,nan
1,101,1,1,1.0,1.0,0.2271054144948721,0.0,7,6,1,8,3,4,nan,nan,nan,nan,nan,nan,nan,nan,nan,nan,nan,nan,0.0,nan,nan,nan,nan,nan,nan,nan,nan,nan,nan,nan,nan,nan,nan,nan,nan,nan,nan,194.591774915345,339.77731528831646,nan,340.00442070281133,nan,nan,nan,nan
1,102,1,1,1.0,1.0,0.19493058929219842,0.0,2,8,3,0,4,5,nan,nan,nan,nan,nan,nan,nan,nan,nan,nan,nan,nan,0.0,nan,nan,nan,nan,nan,nan,nan,nan,nan,nan,nan,nan,nan,nan,nan,nan,nan,nan,194.591774915345,340.7774529894814,nan,340.9723835787736,nan,nan,nan,nan
1,103,1,1,1.0,1.0,0.2187937176786363,0.0,6,4,7,2,3,0,nan,nan,nan,nan,nan,nan,nan,nan,nan,nan,nan,nan,0.0,nan,nan,nan,nan,nan,nan,nan,nan,nan,nan,nan,nan,nan,nan,nan,nan,nan,nan,194.591774915345,341.7775824232958,nan,341.99637614097446,nan,nan,nan,nan
1,104,1,1,1.0,1.0,0.21063910890370607,0.0,5,1,8,7,0,6,nan,nan,nan,nan,nan,nan,nan,nan,nan,nan,nan,nan,0.0,nan,nan,nan,nan,nan,nan,nan,nan,nan,nan,nan,nan,nan,nan,nan,nan,nan,nan,194.591774915345,342.77771584829316,nan,342.98835495719686,nan,nan,nan,nan
1,105,1,1,1.0,1.0,0.22649188758805394,0.0,0,4,6,1,2,7,nan,nan,nan,nan,nan,nan,nan,nan,nan,nan,nan,nan,0.0,nan,nan,nan,nan,nan,nan,nan,nan,nan,nan,nan,nan,nan,nan,nan,nan,nan,nan,194.591774915345,343.7778264656663,nan,344.00431835325435,nan,nan,nan,nan
1,106,1,1,1.0,1.0,0.210348310880363,0.0,2,6,1,8,0,5,nan,nan,nan,nan,nan,nan,nan,nan,nan,nan,nan,nan,0.0,nan,nan,nan,nan,nan,nan,nan,nan,nan,nan,nan,nan,nan,nan,nan,nan,nan,nan,194.591774915345,344.77795247826725,nan,344.9883007891476,nan,nan,nan,nan
1,107,1,1,1.0,1.0,0.18619096279144287,0.0,7,2,4,1,3,6,nan,nan,nan,nan,nan,nan,nan,nan,nan,nan,nan,nan,0.0,nan,nan,nan,nan,nan,nan,nan,nan,nan,nan,nan,nan,nan,nan,nan,nan,nan,nan,194.591774915345,345.7780819120817,nan,345.96427287487313,nan,nan,nan,nan
1,108,0,0,0.0,1.0,0.514031725935638,1.0,0,8,6,3,5,1,1.0,1.0,1.0,1.0,1.0,1.0,0.0,1.0,1.0,1.0,0.0,0.0,3.0,1.0,8.0,6.0,3.0,0.0,2.0,6.0,1.0,2.0,3.0,4.0,5.0,7.13249592948705,1.3493193467147648,2.189870700240135,4.141550017055124,5.462166155688465,6.245180233381689,194.591774915345,346.77821163088083,347.5865989923477,347.29224335681647,355.7792901499197,356.78589754132554,348.6117353611626,355.77094167564064
1,109,1,1,1.0,1.0,0.47224830044433475,0.0,6,7,1,2,3,0,nan,nan,nan,nan,nan,nan,nan,nan,nan,nan,nan,nan,0.0,nan,nan,nan,nan,nan,nan,nan,nan,nan,nan,nan,nan,nan,nan,nan,nan,nan,nan,194.591774915345,356.98778248392045,nan,357.4600307843648,nan,nan,nan,nan
1,110,1,1,1.0,1.0,0.3280853764154017,0.0,5,2,0,8,6,1,nan,nan,nan,nan,nan,nan,nan,nan,nan,nan,nan,nan,0.0,nan,nan,nan,nan,nan,nan,nan,nan,nan,nan,nan,nan,nan,nan,nan,nan,nan,nan,194.591774915345,357.9879102068953,nan,358.3159955833107,nan,nan,nan,nan
1,111,1,1,1.0,1.0,0.18394041247665882,0.0,6,8,4,7,5,2,nan,nan,nan,nan,nan,nan,nan,nan,nan,nan,nan,nan,0.0,nan,nan,nan,nan,nan,nan,nan,nan,nan,nan,nan,nan,nan,nan,nan,nan,nan,nan,194.591774915345,358.98803764535114,nan,359.1719780578278,nan,nan,nan,nan
1,112,1,1,1.0,1.0,0.21569072967395186,0.0,7,3,2,1,4,0,nan,nan,nan,nan,nan,nan,nan,nan,nan,nan,nan,nan,0.0,nan,nan,nan,nan,nan,nan,nan,nan,nan,nan,nan,nan,nan,nan,nan,nan,nan,nan,194.591774915345,359.98825346305966,nan,360.2039441927336,nan,nan,nan,nan
1,113,1,1,1.0,1.0,0.07963280752301216,0.0,4,8,1,7,2,5,nan,nan,nan,nan,nan,nan,nan,nan,nan,nan,nan,nan,0.0,nan,nan,nan,nan,nan,nan,nan,nan,nan,nan,nan,nan,nan,nan,nan,nan,nan,nan,194.591774915345,360.988303639926,nan,361.06793644744903,nan,nan,nan,nan
1,114,1,1,1.0,1.0,0.08750802185386419,0.0,1,4,2,6,3,7,nan,nan,nan,nan,nan,nan,nan,nan,nan,nan,nan,nan,0.0,nan,nan,nan,nan,nan,nan,nan,nan,nan,nan,nan,nan,nan,nan,nan,nan,nan,nan,194.591774915345,361.9883920196444,nan,362.07590004149824,nan,nan,nan,nan
1,115,1,1,1.0,1.0,0.19901886954903603,0.0,4,7,6,0,1,8,nan,nan,nan,nan,nan,nan,nan,nan,nan,nan,nan,nan,0.0,nan,nan,nan,nan,nan,nan,nan,nan,nan,nan,nan,nan,nan,nan,nan,nan,nan,nan,194.591774915345,362.99685424752533,nan,363.19587311707437,nan,nan,nan,nan
1,116,0,0,0.0,1.0,0.3748611225746572,0.0,7,8,0,1,5,2,nan,nan,nan,nan,nan,nan,nan,nan,nan,nan,nan,nan,0.0,nan,nan,nan,nan,nan,nan,nan,nan,nan,nan,nan,nan,nan,nan,nan,nan,nan,nan,194.591774915345,363.9969962253235,nan,364.3718573478982,nan,nan,nan,nan
1,117,1,1,nan,nan,nan,0.0,6,0,1,3,8,5,nan,nan,nan,nan,nan,nan,nan,nan,nan,nan,nan,nan,0.0,nan,nan,nan,nan,nan,nan,nan,nan,nan,nan,nan,nan,nan,nan,nan,nan,nan,nan,194.591774915345,365.0054365010001,nan,nan,nan,nan,nan,nan
1,118,1,1,1.0,1.0,0.030254987068474293,0.0,4,2,3,5,7,1,nan,nan,nan,nan,nan,nan,nan,nan,nan,nan,nan,nan,0.0,nan,nan,nan,nan,nan,nan,nan,nan,nan,nan,nan,nan,nan,nan,nan,nan,nan,nan,194.591774915345,366.0055744876154,nan,366.03582947468385,nan,nan,nan,nan
1,119,1,1,1.0,1.0,0.3340857974253595,0.0,7,3,6,2,0,4,nan,nan,nan,nan,nan,nan,nan,nan,nan,nan,nan,nan,0.0,nan,nan,nan,nan,nan,nan,nan,nan,nan,nan,nan,nan,nan,nan,nan,nan,nan,nan,194.591774915345,367.0056902365759,nan,367.33977603400126,nan,nan,nan,nan
1,120,1,1,1.0,1.0,0.26192137226462364,0.0,6,2,1,5,4,3,nan,nan,nan,nan,nan,nan,nan,nan,nan,nan,nan,nan,0.0,nan,nan,nan,nan,nan,nan,nan,nan,nan,nan,nan,nan,nan,nan,nan,nan,nan,nan,194.591774915345,368.00583791639656,nan,368.2677592886612,nan,nan,nan,nan
1,121,1,1,1.0,1.0,0.24549098825082183,0.0,2,3,0,6,7,4,nan,nan,nan,nan,nan,nan,nan,nan,nan,nan,nan,nan,0.0,nan,nan,nan,nan,nan,nan,nan,nan,nan,nan,nan,nan,nan,nan,nan,nan,nan,nan,194.591774915345,369.01425481401384,nan,369.25974580226466,nan,nan,nan,nan
1,122,1,1,1.0,1.0,0.27731486037373543,0.0,3,5,8,1,2,0,nan,nan,nan,nan,nan,nan,nan,nan,nan,nan,nan,nan,0.0,nan,nan,nan,nan,nan,nan,nan,nan,nan,nan,nan,nan,nan,nan,nan,nan,nan,nan,194.591774915345,370.0143999280408,nan,370.29171478841454,nan,nan,nan,nan
1,123,1,1,1.0,1.0,0.2691631028428674,0.0,1,8,2,6,4,3,nan,nan,nan,nan,nan,nan,nan,nan,nan,nan,nan,nan,0.0,nan,nan,nan,nan,nan,nan,nan,nan,nan,nan,nan,nan,nan,nan,nan,nan,nan,nan,194.591774915345,371.014522804413,nan,371.28368590725586,nan,nan,nan,nan
1,124,1,1,1.0,1.0,0.2207010118290782,0.0,3,0,4,8,5,1,nan,nan,nan,nan,nan,nan,nan,nan,nan,nan,nan,nan,0.0,nan,nan,nan,nan,nan,nan,nan,nan,nan,nan,nan,nan,nan,nan,nan,nan,nan,nan,194.591774915345,372.0229596584104,nan,372.2436606702395,nan,nan,nan,nan
1,125,1,1,1.0,1.0,0.2045443207025528,0.0,7,8,2,5,3,4,nan,nan,nan,nan,nan,nan,nan,nan,nan,nan,nan,nan,0.0,nan,nan,nan,nan,nan,nan,nan,nan,nan,nan,nan,nan,nan,nan,nan,nan,nan,nan,194.591774915345,373.02310334704816,nan,373.2276476677507,nan,nan,nan,nan
1,126,1,1,1.0,1.0,0.14838691102340817,0.0,6,2,1,3,7,0,nan,nan,nan,nan,nan,nan,nan,nan,nan,nan,nan,nan,0.0,nan,nan,nan,nan,nan,nan,nan,nan,nan,nan,nan,nan,nan,nan,nan,nan,nan,nan,194.591774915345,374.0232305000536,nan,374.171617411077,nan,nan,nan,nan
1,127,1,1,1.0,1.0,0.15624501975253224,0.0,8,6,0,4,3,7,nan,nan,nan,nan,nan,nan,nan,nan,nan,nan,nan,nan,0.0,nan,nan,nan,nan,nan,nan,nan,nan,nan,nan,nan,nan,nan,nan,nan,nan,nan,nan,194.591774915345,375.0233471044339,nan,375.17959212418646,nan,nan,nan,nan
1,128,1,1,1.0,1.0,0.1881073797121644,0.0,0,5,3,6,1,8,nan,nan,nan,nan,nan,nan,nan,nan,nan,nan,nan,nan,0.0,nan,nan,nan,nan,nan,nan,nan,nan,nan,nan,nan,nan,nan,nan,nan,nan,nan,nan,194.591774915345,376.0234699808061,nan,376.2115773605183,nan,nan,nan,nan
1,129,1,1,1.0,1.0,0.21194228390231729,0.0,8,0,1,4,3,7,nan,nan,nan,nan,nan,nan,nan,nan,nan,nan,nan,nan,0.0,nan,nan,nan,nan,nan,nan,nan,nan,nan,nan,nan,nan,nan,nan,nan,nan,nan,nan,194.591774915345,377.0235962783918,nan,377.2355385622941,nan,nan,nan,nan
1,130,1,1,1.0,1.0,0.1717961668036878,0.0,7,5,2,1,0,6,nan,nan,nan,nan,nan,nan,nan,nan,nan,nan,nan,nan,0.0,nan,nan,nan,nan,nan,nan,nan,nan,nan,nan,nan,nan,nan,nan,nan,nan,nan,nan,194.591774915345,378.0237274225801,nan,378.1955235893838,nan,nan,nan,nan
1,131,1,1,1.0,1.0,0.1076626181602478,0.0,3,0,4,6,8,1,nan,nan,nan,nan,nan,nan,nan,nan,nan,nan,nan,nan,0.0,nan,nan,nan,nan,nan,nan,nan,nan,nan,nan,nan,nan,nan,nan,nan,nan,nan,nan,194.591774915345,379.0238485885784,nan,379.13151120673865,nan,nan,nan,nan
1,132,1,1,1.0,1.0,0.1715127807110548,0.0,0,4,8,7,3,2,nan,nan,nan,nan,nan,nan,nan,nan,nan,nan,nan,nan,0.0,nan,nan,nan,nan,nan,nan,nan,nan,nan,nan,nan,nan,nan,nan,nan,nan,nan,nan,194.591774915345,380.0239683291875,nan,380.19548110989854,nan,nan,nan,nan
1,133,1,1,1.0,1.0,0.21106247697025537,0.0,6,8,0,3,4,7,nan,nan,nan,nan,nan,nan,nan,nan,nan,nan,nan,nan,0.0,nan,nan,nan,nan,nan,nan,nan,nan,nan,nan,nan,nan,nan,nan,nan,nan,nan,nan,194.591774915345,381.0324000515975,nan,381.24346252856776,nan,nan,nan,nan
1,134,1,1,1.0,1.0,0.06656884076073766,0.0,4,6,1,5,7,8,nan,nan,nan,nan,nan,nan,nan,nan,nan,nan,nan,nan,0.0,nan,nan,nan,nan,nan,nan,nan,nan,nan,nan,nan,nan,nan,nan,nan,nan,nan,nan,194.591774915345,382.04087111726403,nan,382.10743995802477,nan,nan,nan,nan
1,135,0,0,1.0,0.0,0.026100849732756615,0.0,6,1,2,3,8,0,nan,nan,nan,nan,nan,nan,nan,nan,nan,nan,nan,nan,0.0,nan,nan,nan,nan,nan,nan,nan,nan,nan,nan,nan,nan,nan,nan,nan,nan,nan,nan,194.591774915345,383.0493173794821,nan,383.07541822921485,nan,nan,nan,nan
1,136,1,1,1.0,1.0,0.72191281337291,0.0,2,8,1,7,3,5,nan,nan,nan,nan,nan,nan,nan,nan,nan,nan,nan,nan,0.0,nan,nan,nan,nan,nan,nan,nan,nan,nan,nan,nan,nan,nan,nan,nan,nan,nan,nan,194.591774915345,384.04945850232616,nan,384.77137131569907,nan,nan,nan,nan
1,137,1,1,1.0,1.0,0.4494377477094531,0.0,7,4,3,6,0,2,nan,nan,nan,nan,nan,nan,nan,nan,nan,nan,nan,nan,0.0,nan,nan,nan,nan,nan,nan,nan,nan,nan,nan,nan,nan,nan,nan,nan,nan,nan,nan,194.591774915345,385.05791930435225,nan,385.5073570520617,nan,nan,nan,nan
1,138,1,1,1.0,1.0,0.2730130427516997,0.0,5,1,0,8,7,6,nan,nan,nan,nan,nan,nan,nan,nan,nan,nan,nan,nan,0.0,nan,nan,nan,nan,nan,nan,nan,nan,nan,nan,nan,nan,nan,nan,nan,nan,nan,nan,194.591774915345,386.0663399081677,nan,386.3393529509194,nan,nan,nan,nan
1,139,1,1,1.0,1.0,0.22482949122786522,0.0,6,2,8,1,0,4,nan,nan,nan,nan,nan,nan,nan,nan,nan,nan,nan,nan,0.0,nan,nan,nan,nan,nan,nan,nan,nan,nan,nan,nan,nan,nan,nan,nan,nan,nan,nan,194.591774915345,387.0665009873919,nan,387.2913304786198,nan,nan,nan,nan
1,140,1,1,1.0,1.0,0.2406608872115612,0.0,8,4,5,7,6,1,nan,nan,nan,nan,nan,nan,nan,nan,nan,nan,nan,nan,0.0,nan,nan,nan,nan,nan,nan,nan,nan,nan,nan,nan,nan,nan,nan,nan,nan,nan,nan,194.591774915345,388.0666415402666,nan,388.30730242747813,nan,nan,nan,nan
1,141,1,1,1.0,1.0,0.20057207392528653,0.0,1,2,7,3,0,8,nan,nan,nan,nan,nan,nan,nan,nan,nan,nan,nan,nan,0.0,nan,nan,nan,nan,nan,nan,nan,nan,nan,nan,nan,nan,nan,nan,nan,nan,nan,nan,194.591774915345,389.06674902141094,nan,389.26732109533623,nan,nan,nan,nan
1,142,0,0,1.0,0.0,0.2083757296204567,0.0,2,6,5,7,1,4,nan,nan,nan,nan,nan,nan,nan,nan,nan,nan,nan,nan,0.0,nan,nan,nan,nan,nan,nan,nan,nan,nan,nan,nan,nan,nan,nan,nan,nan,nan,nan,194.591774915345,390.06687047239393,nan,390.2752462020144,nan,nan,nan,nan
1,143,1,1,1.0,1.0,0.6002123397774994,0.0,3,5,8,0,7,2,nan,nan,nan,nan,nan,nan,nan,nan,nan,nan,nan,nan,0.0,nan,nan,nan,nan,nan,nan,nan,nan,nan,nan,nan,nan,nan,nan,nan,nan,nan,nan,194.591774915345,391.0669904979877,nan,391.6672028377652,nan,nan,nan,nan
1,144,1,1,1.0,1.0,0.3680761158466339,0.0,7,2,4,1,8,6,nan,nan,nan,nan,nan,nan,nan,nan,nan,nan,nan,nan,0.0,nan,nan,nan,nan,nan,nan,nan,nan,nan,nan,nan,nan,nan,nan,nan,nan,nan,nan,194.591774915345,392.0671150851995,nan,392.4351912010461,nan,nan,nan,nan
1,145,1,1,1.0,1.0,0.32793113915249705,0.0,6,8,1,0,5,4,nan,nan,nan,nan,nan,nan,nan,nan,nan,nan,nan,nan,0.0,nan,nan,nan,nan,nan,nan,nan,nan,nan,nan,nan,nan,nan,nan,nan,nan,nan,nan,194.591774915345,393.06724565895274,nan,393.39517679810524,nan,nan,nan,nan
1,146,1,1,1.0,1.0,0.2558171753771603,0.0,8,1,2,4,0,7,nan,nan,nan,nan,nan,nan,nan,nan,nan,nan,nan,nan,0.0,nan,nan,nan,nan,nan,nan,nan,nan,nan,nan,nan,nan,nan,nan,nan,nan,nan,nan,194.591774915345,394.0673673953861,nan,394.32318457076326,nan,nan,nan,nan
1,147,1,1,1.0,1.0,0.2476503076031804,0.0,4,8,7,0,3,2,nan,nan,nan,nan,nan,nan,nan,nan,nan,nan,nan,nan,0.0,nan,nan,nan,nan,nan,nan,nan,nan,nan,nan,nan,nan,nan,nan,nan,nan,nan,nan,194.591774915345,395.0674891313538,nan,395.315139438957,nan,nan,nan,nan
1,148,1,1,1.0,1.0,0.28747996874153614,0.0,6,4,3,1,2,5,nan,nan,nan,nan,nan,nan,nan,nan,nan,nan,nan,nan,0.0,nan,nan,nan,nan,nan,nan,nan,nan,nan,nan,nan,nan,nan,nan,nan,nan,nan,nan,194.591774915345,396.06762426672503,nan,396.35510423546657,nan,nan,nan,nan
1,149,1,1,1.0,1.0,0.3833501492626965,0.0,4,6,1,5,0,3,nan,nan,nan,nan,nan,nan,nan,nan,nan,nan,nan,nan,0.0,nan,nan,nan,nan,nan,nan,nan,nan,nan,nan,nan,nan,nan,nan,nan,nan,nan,nan,194.591774915345,397.0677442923188,nan,397.4510944415815,nan,nan,nan,nan
1,150,1,1,1.0,1.0,0.2788794687949121,0.0,2,0,7,1,4,6,nan,nan,nan,nan,nan,nan,nan,nan,nan,nan,nan,nan,0.0,nan,nan,nan,nan,nan,nan,nan,nan,nan,nan,nan,nan,nan,nan,nan,nan,nan,nan,194.591774915345,398.0761765851639,nan,398.35505605395883,nan,nan,nan,nan
1,151,1,1,1.0,1.0,0.2547090067528188,0.0,3,5,1,2,8,0,nan,nan,nan,nan,nan,nan,nan,nan,nan,nan,nan,nan,0.0,nan,nan,nan,nan,nan,nan,nan,nan,nan,nan,nan,nan,nan,nan,nan,nan,nan,nan,194.591774915345,399.076327115763,nan,399.3310361225158,nan,nan,nan,nan
1,152,1,1,1.0,1.0,0.2625805148854852,0.0,4,1,0,7,6,3,nan,nan,nan,nan,nan,nan,nan,nan,nan,nan,nan,nan,0.0,nan,nan,nan,nan,nan,nan,nan,nan,nan,nan,nan,nan,nan,nan,nan,nan,nan,nan,194.591774915345,400.0764414393343,nan,400.3390219542198,nan,nan,nan,nan
1,153,1,1,1.0,1.0,0.2464366527274251,0.0,7,3,4,5,0,6,nan,nan,nan,nan,nan,nan,nan,nan,nan,nan,nan,nan,0.0,nan,nan,nan,nan,nan,nan,nan,nan,nan,nan,nan,nan,nan,nan,nan,nan,nan,nan,194.591774915345,401.0765534825623,nan,401.32299013528973,nan,nan,nan,nan
1,154,1,1,1.0,1.0,0.27027640398591757,0.0,5,1,2,4,8,7,nan,nan,nan,nan,nan,nan,nan,nan,nan,nan,nan,nan,0.0,nan,nan,nan,nan,nan,nan,nan,nan,nan,nan,nan,nan,nan,nan,nan,nan,nan,nan,194.591774915345,402.0766923241317,nan,402.34696872811764,nan,nan,nan,nan
1,155,1,1,1.0,1.0,0.29413440031930804,0.0,1,0,8,3,4,2,nan,nan,nan,nan,nan,nan,nan,nan,nan,nan,nan,nan,0.0,nan,nan,nan,nan,nan,nan,nan,nan,nan,nan,nan,nan,nan,nan,nan,nan,nan,nan,194.591774915345,403.0768080735579,nan,403.3709424738772,nan,nan,nan,nan
1,156,1,1,1.0,1.0,0.23798639932647347,0.0,8,6,3,2,1,0,nan,nan,nan,nan,nan,nan,nan,nan,nan,nan,nan,nan,0.0,nan,nan,nan,nan,nan,nan,nan,nan,nan,nan,nan,nan,nan,nan,nan,nan,nan,nan,194.591774915345,404.0769357965328,nan,404.31492219585925,nan,nan,nan,nan
1,157,1,1,1.0,1.0,0.2539172940887511,0.0,1,2,0,5,6,8,nan,nan,nan,nan,nan,nan,nan,nan,nan,nan,nan,nan,0.0,nan,nan,nan,nan,nan,nan,nan,nan,nan,nan,nan,nan,nan,nan,nan,nan,nan,nan,194.591774915345,405.07704071188346,nan,405.3309580059722,nan,nan,nan,nan
1,158,1,1,1.0,1.0,0.2613722770474851,0.0,0,1,4,8,5,7,nan,nan,nan,nan,nan,nan,nan,nan,nan,nan,nan,nan,0.0,nan,nan,nan,nan,nan,nan,nan,nan,nan,nan,nan,nan,nan,nan,nan,nan,nan,nan,194.591774915345,406.08549866313115,nan,406.34687094017863,nan,nan,nan,nan
1,159,1,1,1.0,1.0,0.2612171843647957,0.0,8,0,2,4,6,3,nan,nan,nan,nan,nan,nan,nan,nan,nan,nan,nan,nan,0.0,nan,nan,nan,nan,nan,nan,nan,nan,nan,nan,nan,nan,nan,nan,nan,nan,nan,nan,194.591774915345,407.08563379896805,nan,407.34685098333284,nan,nan,nan,nan
1,160,1,1,1.0,1.0,0.2850717599503696,0.0,6,3,4,5,7,0,nan,nan,nan,nan,nan,nan,nan,nan,nan,nan,nan,nan,0.0,nan,nan,nan,nan,nan,nan,nan,nan,nan,nan,nan,nan,nan,nan,nan,nan,nan,nan,194.591774915345,408.0857660835609,nan,408.37083784351125,nan,nan,nan,nan
1,161,1,1,1.0,1.0,0.27691800659522414,0.0,0,5,6,4,8,3,nan,nan,nan,nan,nan,nan,nan,nan,nan,nan,nan,nan,0.0,nan,nan,nan,nan,nan,nan,nan,nan,nan,nan,nan,nan,nan,nan,nan,nan,nan,nan,194.591774915345,409.0858849687502,nan,409.3628029753454,nan,nan,nan,nan
1,162,0,0,1.0,0.0,0.24476912477985024,0.0,5,6,3,2,0,8,nan,nan,nan,nan,nan,nan,nan,nan,nan,nan,nan,nan,0.0,nan,nan,nan,nan,nan,nan,nan,nan,nan,nan,nan,nan,nan,nan,nan,nan,nan,nan,194.591774915345,410.086017253343,nan,410.33078637812287,nan,nan,nan,nan
1,163,1,1,1.0,1.0,0.5243376712314785,0.0,3,5,6,7,1,4,nan,nan,nan,nan,nan,nan,nan,nan,nan,nan,nan,nan,0.0,nan,nan,nan,nan,nan,nan,nan,nan,nan,nan,nan,nan,nan,nan,nan,nan,nan,nan,194.591774915345,411.0944104879163,nan,411.6187481591478,nan,nan,nan,nan
1,164,1,1,1.0,1.0,0.30015363823622465,0.0,0,7,4,2,5,1,nan,nan,nan,nan,nan,nan,nan,nan,nan,nan,nan,nan,0.0,nan,nan,nan,nan,nan,nan,nan,nan,nan,nan,nan,nan,nan,nan,nan,nan,nan,nan,194.591774915345,412.09458354115486,nan,412.3947371793911,nan,nan,nan,nan
1,165,0,0,1.0,0.0,0.2516812840476632,1.0,1,3,0,5,8,2,1.0,1.0,1.0,1.0,1.0,1.0,0.0,0.0,0.0,0.0,0.0,0.0,0.0,7.0,1.0,3.0,0.0,4.0,6.0,6.0,1.0,2.0,3.0,4.0,5.0,7.103038642089814,2.0315125472843647,2.647576810326427,3.9046056452207267,5.078736464958638,6.03130471194163,194.591774915345,413.1030329396017,413.91144767031074,413.35471422364935,422.06244121678174,423.0688712778501,414.9199096127413,422.0541095631197
1,166,1,1,1.0,1.0,0.29953184351325035,0.0,7,6,4,2,3,1,nan,nan,nan,nan,nan,nan,nan,nan,nan,nan,nan,nan,0.0,nan,nan,nan,nan,nan,nan,nan,nan,nan,nan,nan,nan,nan,nan,nan,nan,nan,nan,194.591774915345,423.2709555029869,nan,423.57048734650016,nan,nan,nan,nan
1,167,1,1,1.0,1.0,0.28337116073817015,0.0,1,4,3,6,7,2,nan,nan,nan,nan,nan,nan,nan,nan,nan,nan,nan,nan,0.0,nan,nan,nan,nan,nan,nan,nan,nan,nan,nan,nan,nan,nan,nan,nan,nan,nan,nan,194.591774915345,424.271089783404,nan,424.5544609441422,nan,nan,nan,nan
1,168,0,0,0.0,1.0,0.531207921449095,0.0,8,2,5,0,4,3,nan,nan,nan,nan,nan,nan,nan,nan,nan,nan,nan,nan,0.0,nan,nan,nan,nan,nan,nan,nan,nan,nan,nan,nan,nan,nan,nan,nan,nan,nan,nan,194.591774915345,425.27122092759237,nan,425.80242884904146,nan,nan,nan,nan
1,169,1,1,1.0,1.0,0.6750900261104107,0.0,7,6,3,8,0,1,nan,nan,nan,nan,nan,nan,nan,nan,nan,nan,nan,nan,0.0,nan,nan,nan,nan,nan,nan,nan,nan,nan,nan,nan,nan,nan,nan,nan,nan,nan,nan,194.591774915345,426.27131814556196,nan,426.9464081716724,nan,nan,nan,nan
1,170,1,1,1.0,1.0,0.4749321970157325,0.0,0,3,8,7,1,4,nan,nan,nan,nan,nan,nan,nan,nan,nan,nan,nan,nan,0.0,nan,nan,nan,nan,nan,nan,nan,nan,nan,nan,nan,nan,nan,nan,nan,nan,nan,nan,194.591774915345,427.2714527109638,nan,427.7463849079795,nan,nan,nan,nan
1,171,1,1,1.0,1.0,0.2987780487164855,0.0,5,2,1,4,7,3,nan,nan,nan,nan,nan,nan,nan,nan,nan,nan,nan,nan,0.0,nan,nan,nan,nan,nan,nan,nan,nan,nan,nan,nan,nan,nan,nan,nan,nan,nan,nan,194.591774915345,428.27158242976293,nan,428.5703604784794,nan,nan,nan,nan
1,172,0,0,0.0,1.0,0.40263805305585265,0.0,2,6,0,3,4,8,nan,nan,nan,nan,nan,nan,nan,nan,nan,nan,nan,nan,0.0,nan,nan,nan,nan,nan,nan,nan,nan,nan,nan,nan,nan,nan,nan,nan,nan,nan,nan,194.591774915345,429.2716939020902,nan,429.67433195514604,nan,nan,nan,nan
1,173,1,1,1.0,1.0,0.6184895769692957,0.0,1,3,4,8,6,2,nan,nan,nan,nan,nan,nan,nan,nan,nan,nan,nan,nan,0.0,nan,nan,nan,nan,nan,nan,nan,nan,nan,nan,nan,nan,nan,nan,nan,nan,nan,nan,194.591774915345,430.2718284679577,nan,430.89031804492697,nan,nan,nan,nan
1,174,1,1,1.0,1.0,0.3623422598466277,0.0,0,8,6,4,2,5,nan,nan,nan,nan,nan,nan,nan,nan,nan,nan,nan,nan,0.0,nan,nan,nan,nan,nan,nan,nan,nan,nan,nan,nan,nan,nan,nan,nan,nan,nan,nan,194.591774915345,431.2719476381317,nan,431.6342898979783,nan,nan,nan,nan
1,175,1,1,1.0,1.0,0.2981924610212445,0.0,8,1,7,2,6,3,nan,nan,nan,nan,nan,nan,nan,nan,nan,nan,nan,nan,0.0,nan,nan,nan,nan,nan,nan,nan,nan,nan,nan,nan,nan,nan,nan,nan,nan,nan,nan,194.591774915345,432.2720816330984,nan,432.57027409411967,nan,nan,nan,nan
1,176,0,0,0.0,1.0,0.31403697188943624,0.0,6,7,3,5,8,4,nan,nan,nan,nan,nan,nan,nan,nan,nan,nan,nan,nan,0.0,nan,nan,nan,nan,nan,nan,nan,nan,nan,nan,nan,nan,nan,nan,nan,nan,nan,nan,194.591774915345,433.27220707572997,nan,433.5862440476194,nan,nan,nan,nan
1,177,1,1,1.0,1.0,0.529881083406508,0.0,7,6,1,4,2,0,nan,nan,nan,nan,nan,nan,nan,nan,nan,nan,nan,nan,0.0,nan,nan,nan,nan,nan,nan,nan,nan,nan,nan,nan,nan,nan,nan,nan,nan,nan,nan,194.591774915345,434.2723330883309,nan,434.80221417173743,nan,nan,nan,nan
1,178,1,1,1.0,1.0,0.34574680542573333,0.0,0,3,4,1,6,8,nan,nan,nan,nan,nan,nan,nan,nan,nan,nan,nan,nan,0.0,nan,nan,nan,nan,nan,nan,nan,nan,nan,nan,nan,nan,nan,nan,nan,nan,nan,nan,194.591774915345,435.27245111810043,nan,435.61819792352617,nan,nan,nan,nan
1,179,0,0,0.0,1.0,0.6175960851833224,0.0,3,6,1,5,0,2,nan,nan,nan,nan,nan,nan,nan,nan,nan,nan,nan,nan,0.0,nan,nan,nan,nan,nan,nan,nan,nan,nan,nan,nan,nan,nan,nan,nan,nan,nan,nan,194.591774915345,436.27256943285465,nan,436.890165518038,nan,nan,nan,nan
1,180,1,1,1.0,1.0,0.5294451713562012,0.0,8,5,0,4,1,6,nan,nan,nan,nan,nan,nan,nan,nan,nan,nan,nan,nan,0.0,nan,nan,nan,nan,nan,nan,nan,nan,nan,nan,nan,nan,nan,nan,nan,nan,nan,nan,194.591774915345,437.27268945844844,nan,437.80213462980464,nan,nan,nan,nan
1,181,1,1,1.0,1.0,0.3693100130185485,0.0,7,1,4,2,8,3,nan,nan,nan,nan,nan,nan,nan,nan,nan,nan,nan,nan,0.0,nan,nan,nan,nan,nan,nan,nan,nan,nan,nan,nan,nan,nan,nan,nan,nan,nan,nan,194.591774915345,438.2728168964386,nan,438.64212690945715,nan,nan,nan,nan
1,182,1,1,1.0,1.0,0.3131209574639797,0.0,0,7,6,3,5,1,nan,nan,nan,nan,nan,nan,nan,nan,nan,nan,nan,nan,0.0,nan,nan,nan,nan,nan,nan,nan,nan,nan,nan,nan,nan,nan,nan,nan,nan,nan,nan,194.591774915345,439.272989094723,nan,439.586110052187,nan,nan,nan,nan
1,183,1,1,1.0,1.0,0.257027979940176,0.0,1,6,7,2,3,8,nan,nan,nan,nan,nan,nan,nan,nan,nan,nan,nan,nan,0.0,nan,nan,nan,nan,nan,nan,nan,nan,nan,nan,nan,nan,nan,nan,nan,nan,nan,nan,194.591774915345,440.2730894484557,nan,440.5301174283959,nan,nan,nan,nan
1,184,1,1,1.0,1.0,0.22486968943849206,0.0,5,7,8,3,4,6,nan,nan,nan,nan,nan,nan,nan,nan,nan,nan,nan,nan,0.0,nan,nan,nan,nan,nan,nan,nan,nan,nan,nan,nan,nan,nan,nan,nan,nan,nan,nan,194.591774915345,441.2731866664253,nan,441.4980563558638,nan,nan,nan,nan
1,185,1,1,1.0,1.0,0.2647295705974102,0.0,8,4,1,0,3,2,nan,nan,nan,nan,nan,nan,nan,nan,nan,nan,nan,nan,0.0,nan,nan,nan,nan,nan,nan,nan,nan,nan,nan,nan,nan,nan,nan,nan,nan,nan,nan,194.591774915345,442.2733089728281,nan,442.5380385434255,nan,nan,nan,nan
1,186,1,1,1.0,1.0,0.18458672566339374,0.0,3,0,2,5,8,4,nan,nan,nan,nan,nan,nan,nan,nan,nan,nan,nan,nan,0.0,nan,nan,nan,nan,nan,nan,nan,nan,nan,nan,nan,nan,nan,nan,nan,nan,nan,nan,194.591774915345,443.27343413000926,nan,443.45802085567266,nan,nan,nan,nan
1,187,1,1,1.0,1.0,0.2804571916349232,0.0,8,6,3,2,1,7,nan,nan,nan,nan,nan,nan,nan,nan,nan,nan,nan,nan,0.0,nan,nan,nan,nan,nan,nan,nan,nan,nan,nan,nan,nan,nan,nan,nan,nan,nan,nan,194.591774915345,444.2735444623977,nan,444.5540016540326,nan,nan,nan,nan
1,188,1,1,1.0,1.0,0.24028284987434745,0.0,6,1,0,4,5,2,nan,nan,nan,nan,nan,nan,nan,nan,nan,nan,nan,nan,0.0,nan,nan,nan,nan,nan,nan,nan,nan,nan,nan,nan,nan,nan,nan,nan,nan,nan,nan,194.591774915345,445.2736818785779,nan,445.51396472845227,nan,nan,nan,nan
1,189,1,1,1.0,1.0,0.30382852954789996,0.0,3,2,4,6,1,5,nan,nan,nan,nan,nan,nan,nan,nan,nan,nan,nan,nan,0.0,nan,nan,nan,nan,nan,nan,nan,nan,nan,nan,nan,nan,nan,nan,nan,nan,nan,nan,194.591774915345,446.28212757082656,nan,446.58595610037446,nan,nan,nan,nan
1,190,1,1,1.0,1.0,0.303634378593415,0.0,5,6,1,0,4,3,nan,nan,nan,nan,nan,nan,nan,nan,nan,nan,nan,nan,0.0,nan,nan,nan,nan,nan,nan,nan,nan,nan,nan,nan,nan,nan,nan,nan,nan,nan,nan,194.591774915345,447.28228665469214,nan,447.58592103328556,nan,nan,nan,nan
1,191,1,1,1.0,1.0,0.2392915701493621,0.0,8,1,0,3,5,4,nan,nan,nan,nan,nan,nan,nan,nan,nan,nan,nan,nan,0.0,nan,nan,nan,nan,nan,nan,nan,nan,nan,nan,nan,nan,nan,nan,nan,nan,nan,nan,194.591774915345,448.29068445041776,nan,448.5299760205671,nan,nan,nan,nan
1,192,1,1,1.0,1.0,0.21202866826206446,0.0,5,7,6,8,3,2,nan,nan,nan,nan,nan,nan,nan,nan,nan,nan,nan,nan,0.0,nan,nan,nan,nan,nan,nan,nan,nan,nan,nan,nan,nan,nan,nan,nan,nan,nan,nan,194.591774915345,449.32587245851755,nan,449.5379011267796,nan,nan,nan,nan
1,193,1,1,1.0,1.0,0.22123015066608787,0.0,2,4,3,1,6,5,nan,nan,nan,nan,nan,nan,nan,nan,nan,nan,nan,nan,0.0,nan,nan,nan,nan,nan,nan,nan,nan,nan,nan,nan,nan,nan,nan,nan,nan,nan,nan,194.591774915345,450.33263095095754,nan,450.5538611016236,nan,nan,nan,nan
1,194,1,1,1.0,1.0,0.22906174510717392,0.0,5,0,7,6,2,8,nan,nan,nan,nan,nan,nan,nan,nan,nan,nan,nan,nan,0.0,nan,nan,nan,nan,nan,nan,nan,nan,nan,nan,nan,nan,nan,nan,nan,nan,nan,nan,194.591774915345,451.3327695080079,nan,451.5618312531151,nan,nan,nan,nan
1,195,1,1,1.0,1.0,0.24491024762392044,0.0,1,4,2,0,5,7,nan,nan,nan,nan,nan,nan,nan,nan,nan,nan,nan,nan,0.0,nan,nan,nan,nan,nan,nan,nan,nan,nan,nan,nan,nan,nan,nan,nan,nan,nan,nan,194.591774915345,452.3328889631666,nan,452.57779921079054,nan,nan,nan,nan
1,196,1,1,1.0,1.0,0.2767811603844166,0.0,2,3,5,1,6,4,nan,nan,nan,nan,nan,nan,nan,nan,nan,nan,nan,nan,0.0,nan,nan,nan,nan,nan,nan,nan,nan,nan,nan,nan,nan,nan,nan,nan,nan,nan,nan,194.591774915345,453.3330075633712,nan,453.6097887237556,nan,nan,nan,nan
1,197,1,1,1.0,1.0,0.2603228376246989,0.0,4,5,2,0,1,8,nan,nan,nan,nan,nan,nan,nan,nan,nan,nan,nan,nan,0.0,nan,nan,nan,nan,nan,nan,nan,nan,nan,nan,nan,nan,nan,nan,nan,nan,nan,nan,194.591774915345,454.34144242154434,nan,454.60176525916904,nan,nan,nan,nan
1,198,1,1,1.0,1.0,0.2761439699679613,0.0,2,4,6,7,3,0,nan,nan,nan,nan,nan,nan,nan,nan,nan,nan,nan,nan,0.0,nan,nan,nan,nan,nan,nan,nan,nan,nan,nan,nan,nan,nan,nan,nan,nan,nan,nan,194.591774915345,455.34158896142617,nan,455.61773293139413,nan,nan,nan,nan
1,199,1,1,1.0,1.0,0.2680121688172221,0.0,1,0,2,5,8,7,nan,nan,nan,nan,nan,nan,nan,nan,nan,nan,nan,nan,0.0,nan,nan,nan,nan,nan,nan,nan,nan,nan,nan,nan,nan,nan,nan,nan,nan,nan,nan,194.591774915345,456.3417058507912,nan,456.6097180196084,nan,nan,nan,nan
1,200,1,1,1.0,1.0,0.30785922054201365,0.0,4,8,0,1,7,3,nan,nan,nan,nan,nan,nan,nan,nan,nan,nan,nan,nan,0.0,nan,nan,nan,nan,nan,nan,nan,nan,nan,nan,nan,nan,nan,nan,nan,nan,nan,nan,194.591774915345,457.3418290121481,nan,457.6496882326901,nan,nan,nan,nan
1,201,1,1,1.0,1.0,0.3237097184173763,0.0,0,4,1,3,5,6,nan,nan,nan,nan,nan,nan,nan,nan,nan,nan,nan,nan,0.0,nan,nan,nan,nan,nan,nan,nan,nan,nan,nan,nan,nan,nan,nan,nan,nan,nan,nan,194.591774915345,458.3419593013823,nan,458.6656690197997,nan,nan,nan,nan
1,202,1,1,1.0,1.0,0.3312422474846244,0.0,1,2,5,7,3,4,nan,nan,nan,nan,nan,nan,nan,nan,nan,nan,nan,nan,0.0,nan,nan,nan,nan,nan,nan,nan,nan,nan,nan,nan,nan,nan,nan,nan,nan,nan,nan,194.591774915345,459.3504061335698,nan,459.6816483810544,nan,nan,nan,nan
1,203,1,1,1.0,1.0,0.3950878484174609,0.0,6,5,2,1,0,3,nan,nan,nan,nan,nan,nan,nan,nan,nan,nan,nan,nan,0.0,nan,nan,nan,nan,nan,nan,nan,nan,nan,nan,nan,nan,nan,nan,nan,nan,nan,nan,194.591774915345,460.3505389885977,nan,460.74562683701515,nan,nan,nan,nan
1,204,1,1,1.0,1.0,0.4109414820559323,0.0,8,7,0,3,2,4,nan,nan,nan,nan,nan,nan,nan,nan,nan,nan,nan,nan,0.0,nan,nan,nan,nan,nan,nan,nan,nan,nan,nan,nan,nan,nan,nan,nan,nan,nan,nan,194.591774915345,461.350657873787,nan,461.7615993558429,nan,nan,nan,nan
1,205,1,1,1.0,1.0,0.3547854977659881,0.0,0,1,3,6,5,7,nan,nan,nan,nan,nan,nan,nan,nan,nan,nan,nan,nan,0.0,nan,nan,nan,nan,nan,nan,nan,nan,nan,nan,nan,nan,nan,nan,nan,nan,nan,nan,194.591774915345,462.35078046517447,nan,462.70556596294045,nan,nan,nan,nan
1,206,1,1,1.0,1.0,0.3626467427238822,0.0,6,8,4,0,1,2,nan,nan,nan,nan,nan,nan,nan,nan,nan,nan,nan,nan,0.0,nan,nan,nan,nan,nan,nan,nan,nan,nan,nan,nan,nan,nan,nan,nan,nan,nan,nan,194.591774915345,463.3509150305763,nan,463.71356177330017,nan,nan,nan,nan
1,207,1,1,1.0,1.0,0.29047718551009893,0.0,3,6,5,4,0,7,nan,nan,nan,nan,nan,nan,nan,nan,nan,nan,nan,nan,0.0,nan,nan,nan,nan,nan,nan,nan,nan,nan,nan,nan,nan,nan,nan,nan,nan,nan,nan,194.591774915345,464.3510444643907,nan,464.6415216499008,nan,nan,nan,nan
1,208,1,1,1.0,1.0,0.26634948747232556,0.0,5,1,6,3,2,4,nan,nan,nan,nan,nan,nan,nan,nan,nan,nan,nan,nan,0.0,nan,nan,nan,nan,nan,nan,nan,nan,nan,nan,nan,nan,nan,nan,nan,nan,nan,nan,194.591774915345,465.3511528009549,nan,465.6175022884272,nan,nan,nan,nan
1,209,1,1,1.0,1.0,0.29022744158282876,0.0,0,6,7,5,8,3,nan,nan,nan,nan,nan,nan,nan,nan,nan,nan,nan,nan,0.0,nan,nan,nan,nan,nan,nan,nan,nan,nan,nan,nan,nan,nan,nan,nan,nan,nan,nan,194.591774915345,466.3512865109369,nan,466.64151395251974,nan,nan,nan,nan
1,210,1,1,1.0,1.0,0.3220547344535589,0.0,8,5,6,7,4,1,nan,nan,nan,nan,nan,nan,nan,nan,nan,nan,nan,nan,0.0,nan,nan,nan,nan,nan,nan,nan,nan,nan,nan,nan,nan,nan,nan,nan,nan,nan,nan,194.591774915345,467.3514071069658,nan,467.67346184141934,nan,nan,nan,nan
1,211,1,1,1.0,1.0,0.40990544203668833,0.0,4,2,0,1,5,8,nan,nan,nan,nan,nan,nan,nan,nan,nan,nan,nan,nan,0.0,nan,nan,nan,nan,nan,nan,nan,nan,nan,nan,nan,nan,nan,nan,nan,nan,nan,nan,194.591774915345,468.35153083875775,nan,468.76143628079444,nan,nan,nan,nan
1,212,1,1,1.0,1.0,0.36942433658987284,0.0,7,3,8,0,2,5,nan,nan,nan,nan,nan,nan,nan,nan,nan,nan,nan,nan,0.0,nan,nan,nan,nan,nan,nan,nan,nan,nan,nan,nan,nan,nan,nan,nan,nan,nan,nan,194.591774915345,469.35999164078385,nan,469.7294159773737,nan,nan,nan,nan
1,213,1,1,1.0,1.0,0.45729728136211634,0.0,1,0,7,4,8,6,nan,nan,nan,nan,nan,nan,nan,nan,nan,nan,nan,nan,0.0,nan,nan,nan,nan,nan,nan,nan,nan,nan,nan,nan,nan,nan,nan,nan,nan,nan,nan,194.591774915345,470.3600937053561,nan,470.81739098671824,nan,nan,nan,nan
1,214,1,1,1.0,1.0,0.3448222381994128,0.0,2,5,6,8,7,1,nan,nan,nan,nan,nan,nan,nan,nan,nan,nan,nan,nan,0.0,nan,nan,nan,nan,nan,nan,nan,nan,nan,nan,nan,nan,nan,nan,nan,nan,nan,nan,194.591774915345,471.36854709498584,nan,471.71336933318526,nan,nan,nan,nan
1,215,1,1,1.0,1.0,0.30466129537671804,0.0,4,7,3,2,8,0,nan,nan,nan,nan,nan,nan,nan,nan,nan,nan,nan,nan,0.0,nan,nan,nan,nan,nan,nan,nan,nan,nan,nan,nan,nan,nan,nan,nan,nan,nan,nan,194.591774915345,472.3686679759994,nan,472.67332927137613,nan,nan,nan,nan
1,216,1,1,1.0,1.0,0.2644889489747584,0.0,2,8,1,0,4,6,nan,nan,nan,nan,nan,nan,nan,nan,nan,nan,nan,nan,0.0,nan,nan,nan,nan,nan,nan,nan,nan,nan,nan,nan,nan,nan,nan,nan,nan,nan,nan,194.591774915345,473.36881679622456,nan,473.6333057451993,nan,nan,nan,nan
1,217,1,1,1.0,1.0,0.24006275506690145,0.0,0,2,7,5,8,3,nan,nan,nan,nan,nan,nan,nan,nan,nan,nan,nan,nan,0.0,nan,nan,nan,nan,nan,nan,nan,nan,nan,nan,nan,nan,nan,nan,nan,nan,nan,nan,194.591774915345,474.3772482336499,nan,474.6173109887168,nan,nan,nan,nan
1,218,1,1,1.0,1.0,0.21556443208828568,0.0,7,3,5,6,1,4,nan,nan,nan,nan,nan,nan,nan,nan,nan,nan,nan,nan,0.0,nan,nan,nan,nan,nan,nan,nan,nan,nan,nan,nan,nan,nan,nan,nan,nan,nan,nan,194.591774915345,475.38571359729394,nan,475.60127802938223,nan,nan,nan,nan
1,219,1,1,1.0,1.0,0.17541489331051707,0.0,2,8,3,4,0,6,nan,nan,nan,nan,nan,nan,nan,nan,nan,nan,nan,nan,0.0,nan,nan,nan,nan,nan,nan,nan,nan,nan,nan,nan,nan,nan,nan,nan,nan,nan,nan,194.591774915345,476.3858558605425,nan,476.561270753853,nan,nan,nan,nan
1,220,1,1,1.0,1.0,0.21492695715278387,0.0,0,1,2,3,6,4,nan,nan,nan,nan,nan,nan,nan,nan,nan,nan,nan,nan,0.0,nan,nan,nan,nan,nan,nan,nan,nan,nan,nan,nan,nan,nan,nan,nan,nan,nan,nan,194.591774915345,477.3943024077453,nan,477.60922936489806,nan,nan,nan,nan
1,221,0,0,1.0,0.0,0.2867672280408442,1.0,1,6,4,7,8,3,1.0,1.0,1.0,1.0,1.0,1.0,0.0,1.0,0.0,0.0,0.0,0.0,1.0,0.0,6.0,8.0,4.0,2.0,5.0,3.0,1.0,2.0,6.0,5.0,4.0,3.6902899341657758,2.1806880342774093,2.835919394157827,6.993704503867775,5.650429483503103,4.714313002303243,194.591774915345,478.3944395389408,479.202841155231,478.68120676698163,487.25382007611915,488.2598153660074,480.2196316155605,487.245496975258
1,222,1,1,1.0,1.0,0.37062915321439505,0.0,3,5,0,1,2,6,nan,nan,nan,nan,nan,nan,nan,nan,nan,nan,nan,nan,0.0,nan,nan,nan,nan,nan,nan,nan,nan,nan,nan,nan,nan,nan,nan,nan,nan,nan,nan,194.591774915345,488.46234519639984,nan,488.83297434961423,nan,nan,nan,nan
1,223,1,1,1.0,1.0,0.2901692818850279,0.0,1,6,7,2,5,3,nan,nan,nan,nan,nan,nan,nan,nan,nan,nan,nan,nan,0.0,nan,nan,nan,nan,nan,nan,nan,nan,nan,nan,nan,nan,nan,nan,nan,nan,nan,nan,194.591774915345,489.47078262036666,nan,489.7609519022517,nan,nan,nan,nan
1,224,1,1,1.0,1.0,0.241993997246027,0.0,3,2,0,1,7,6,nan,nan,nan,nan,nan,nan,nan,nan,nan,nan,nan,nan,0.0,nan,nan,nan,nan,nan,nan,nan,nan,nan,nan,nan,nan,nan,nan,nan,nan,nan,nan,194.591774915345,490.4709328664467,nan,490.7129268636927,nan,nan,nan,nan
1,225,1,1,1.0,1.0,0.1938443724066019,0.0,4,7,6,8,5,2,nan,nan,nan,nan,nan,nan,nan,nan,nan,nan,nan,nan,0.0,nan,nan,nan,nan,nan,nan,nan,nan,nan,nan,nan,nan,nan,nan,nan,nan,nan,nan,194.591774915345,491.4710526065901,nan,491.6648969789967,nan,nan,nan,nan
1,226,0,0,0.0,1.0,0.3536975705064833,1.0,7,5,1,2,8,4,1.0,1.0,1.0,1.0,1.0,1.0,1.0,1.0,1.0,0.0,0.0,0.0,3.0,7.0,5.0,1.0,6.0,3.0,0.0,3.0,2.0,1.0,6.0,5.0,4.0,3.884571644011885,2.7808798467740417,2.142521910369396,8.07662304583937,5.949557630345225,5.126040494535118,194.591774915345,492.4711726321839,493.2795725381002,492.82487020269036,502.4140353468247,503.4226660663262,494.29637041082606,502.405696565751
1,227,1,1,1.0,1.0,0.4740923033095896,0.0,8,7,5,6,1,2,nan,nan,nan,nan,nan,nan,nan,nan,nan,nan,nan,nan,0.0,nan,nan,nan,nan,nan,nan,nan,nan,nan,nan,nan,nan,nan,nan,nan,nan,nan,nan,194.591774915345,503.62255191383883,nan,504.0966442171484,nan,nan,nan,nan
1,228,1,1,1.0,1.0,0.28195822378620505,0.0,6,5,7,3,2,1,nan,nan,nan,nan,nan,nan,nan,nan,nan,nan,nan,nan,0.0,nan,nan,nan,nan,nan,nan,nan,nan,nan,nan,nan,nan,nan,nan,nan,nan,nan,nan,194.591774915345,504.622641148977,nan,504.9045993727632,nan,nan,nan,nan
1,229,1,1,1.0,1.0,0.257794888690114,0.0,4,2,1,5,0,6,nan,nan,nan,nan,nan,nan,nan,nan,nan,nan,nan,nan,0.0,nan,nan,nan,nan,nan,nan,nan,nan,nan,nan,nan,nan,nan,nan,nan,nan,nan,nan,194.591774915345,505.62279139459133,nan,505.88058628328145,nan,nan,nan,nan
1,230,1,1,1.0,1.0,0.24163335049524903,0.0,2,5,7,1,3,4,nan,nan,nan,nan,nan,nan,nan,nan,nan,nan,nan,nan,0.0,nan,nan,nan,nan,nan,nan,nan,nan,nan,nan,nan,nan,nan,nan,nan,nan,nan,nan,194.591774915345,506.6229310920462,nan,506.86456444254145,nan,nan,nan,nan
1,231,1,1,1.0,1.0,0.2735005575232208,0.0,8,3,2,7,6,1,nan,nan,nan,nan,nan,nan,nan,nan,nan,nan,nan,nan,0.0,nan,nan,nan,nan,nan,nan,nan,nan,nan,nan,nan,nan,nan,nan,nan,nan,nan,nan,194.591774915345,507.62303857319057,nan,507.8965391307138,nan,nan,nan,nan
1,232,1,1,1.0,1.0,0.21735683269798756,0.0,1,5,0,4,2,7,nan,nan,nan,nan,nan,nan,nan,nan,nan,nan,nan,nan,0.0,nan,nan,nan,nan,nan,nan,nan,nan,nan,nan,nan,nan,nan,nan,nan,nan,nan,nan,194.591774915345,508.6231554625556,nan,508.8405122952536,nan,nan,nan,nan
1,233,1,1,1.0,1.0,0.19322058139368892,0.0,3,1,5,6,0,4,nan,nan,nan,nan,nan,nan,nan,nan,nan,nan,nan,nan,0.0,nan,nan,nan,nan,nan,nan,nan,nan,nan,nan,nan,nan,nan,nan,nan,nan,nan,nan,194.591774915345,509.6232717819512,nan,509.8164923633449,nan,nan,nan,nan
1,234,0,0,1.0,0.0,0.21705805137753487,1.0,0,6,2,4,7,1,1.0,1.0,1.0,1.0,1.0,1.0,0.0,1.0,0.0,0.0,0.0,0.0,1.0,7.0,6.0,0.0,8.0,1.0,2.0,3.0,1.0,2.0,6.0,5.0,4.0,4.172963350545615,2.1816185885109007,2.860205890610814,7.252099235076457,5.820642794948071,4.739904954563826,194.591774915345,510.623410908971,511.4318156610243,510.8404689603485,519.741166505497,520.7383280871436,512.4486089725979,519.732833141461
1,235,1,1,0.0,0.0,0.7148783477023244,0.0,5,7,3,1,2,6,nan,nan,nan,nan,nan,nan,nan,nan,nan,nan,nan,nan,0.0,nan,nan,nan,nan,nan,nan,nan,nan,nan,nan,nan,nan,nan,nan,nan,nan,nan,nan,194.591774915345,520.941346002277,nan,521.6562243499793,nan,nan,nan,nan
1,236,1,1,1.0,1.0,0.7786888824775815,0.0,7,2,6,4,8,5,nan,nan,nan,nan,nan,nan,nan,nan,nan,nan,nan,nan,0.0,nan,nan,nan,nan,nan,nan,nan,nan,nan,nan,nan,nan,nan,nan,nan,nan,nan,nan,194.591774915345,521.9414788568392,nan,522.7201677393168,nan,nan,nan,nan
1,237,1,1,1.0,1.0,0.5225629471242428,0.0,8,4,5,1,7,0,nan,nan,nan,nan,nan,nan,nan,nan,nan,nan,nan,nan,0.0,nan,nan,nan,nan,nan,nan,nan,nan,nan,nan,nan,nan,nan,nan,nan,nan,nan,nan,194.591774915345,522.941601163242,nan,523.4641641103663,nan,nan,nan,nan
1,238,1,1,1.0,1.0,0.31442128168419003,0.0,3,6,2,5,4,8,nan,nan,nan,nan,nan,nan,nan,nan,nan,nan,nan,nan,0.0,nan,nan,nan,nan,nan,nan,nan,nan,nan,nan,nan,nan,nan,nan,nan,nan,nan,nan,194.591774915345,523.9417223292403,nan,524.2561436109245,nan,nan,nan,nan
1,239,1,1,1.0,1.0,0.24227709835395217,0.0,4,7,8,1,0,6,nan,nan,nan,nan,nan,nan,nan,nan,nan,nan,nan,nan,0.0,nan,nan,nan,nan,nan,nan,nan,nan,nan,nan,nan,nan,nan,nan,nan,nan,nan,nan,194.591774915345,524.9418472014368,nan,525.1841242997907,nan,nan,nan,nan
1,240,1,1,1.0,1.0,0.2341415910050273,0.0,6,2,0,8,3,5,nan,nan,nan,nan,nan,nan,nan,nan,nan,nan,nan,nan,0.0,nan,nan,nan,nan,nan,nan,nan,nan,nan,nan,nan,nan,nan,nan,nan,nan,nan,nan,194.591774915345,525.9419692223892,nan,526.1761108133942,nan,nan,nan,nan
1,241,1,1,1.0,1.0,0.24197774706408381,0.0,5,8,4,3,1,0,nan,nan,nan,nan,nan,nan,nan,nan,nan,nan,nan,nan,0.0,nan,nan,nan,nan,nan,nan,nan,nan,nan,nan,nan,nan,nan,nan,nan,nan,nan,nan,194.591774915345,526.9421040732414,nan,527.1840818203054,nan,nan,nan,nan
1,242,0,0,0.0,1.0,0.4738593795336783,0.0,7,6,5,1,8,4,nan,nan,nan,nan,nan,nan,nan,nan,nan,nan,nan,nan,0.0,nan,nan,nan,nan,nan,nan,nan,nan,nan,nan,nan,nan,nan,nan,nan,nan,nan,nan,194.591774915345,527.9422335070558,nan,528.4160928865895,nan,nan,nan,nan
1,243,1,1,1.0,1.0,0.47337414557114244,0.0,0,1,8,7,3,2,nan,nan,nan,nan,nan,nan,nan,nan,nan,nan,nan,nan,0.0,nan,nan,nan,nan,nan,nan,nan,nan,nan,nan,nan,nan,nan,nan,nan,nan,nan,nan,194.591774915345,528.9506561062299,nan,529.424030251801,nan,nan,nan,nan
1,244,1,1,1.0,1.0,0.3768998458981514,0.0,5,0,7,2,4,3,nan,nan,nan,nan,nan,nan,nan,nan,nan,nan,nan,nan,0.0,nan,nan,nan,nan,nan,nan,nan,nan,nan,nan,nan,nan,nan,nan,nan,nan,nan,nan,194.591774915345,529.9591143424623,nan,530.3360141883604,nan,nan,nan,nan
1,245,1,1,1.0,1.0,0.31272125244140625,0.0,2,6,5,7,8,0,nan,nan,nan,nan,nan,nan,nan,nan,nan,nan,nan,nan,0.0,nan,nan,nan,nan,nan,nan,nan,nan,nan,nan,nan,nan,nan,nan,nan,nan,nan,nan,194.591774915345,530.9592660139315,nan,531.2719872663729,nan,nan,nan,nan
1,246,1,1,1.0,1.0,0.28058805083855987,0.0,6,1,8,2,7,4,nan,nan,nan,nan,nan,nan,nan,nan,nan,nan,nan,nan,0.0,nan,nan,nan,nan,nan,nan,nan,nan,nan,nan,nan,nan,nan,nan,nan,nan,nan,nan,194.591774915345,531.9593783416785,nan,532.2399663925171,nan,nan,nan,nan
1,247,1,1,1.0,1.0,0.26443192968145013,0.0,0,4,7,1,5,6,nan,nan,nan,nan,nan,nan,nan,nan,nan,nan,nan,nan,0.0,nan,nan,nan,nan,nan,nan,nan,nan,nan,nan,nan,nan,nan,nan,nan,nan,nan,nan,194.591774915345,532.9595134775154,nan,533.2239454071969,nan,nan,nan,nan
1,248,0,0,0.0,1.0,0.42428541323170066,1.0,5,2,8,4,7,0,1.0,1.0,1.0,1.0,1.0,1.0,1.0,1.0,1.0,0.0,1.0,1.0,5.0,5.0,2.0,8.0,3.0,7.0,0.0,3.0,2.0,1.0,6.0,5.0,4.0,3.3561773379333317,2.628712844569236,1.7325585936196148,6.5711390767246485,5.739890699740499,4.819677459076047,194.591774915345,533.9596374942921,534.7680331235752,534.3839229075238,542.3939708406106,543.4045621673577,535.7848409744911,542.3856389019638
1,249,1,1,1.0,1.0,0.3169061806984246,0.0,7,4,5,8,0,2,nan,nan,nan,nan,nan,nan,nan,nan,nan,nan,nan,nan,0.0,nan,nan,nan,nan,nan,nan,nan,nan,nan,nan,nan,nan,nan,nan,nan,nan,nan,nan,194.591774915345,543.6108167809434,nan,543.9277229616418,nan,nan,nan,nan
1,250,1,1,1.0,1.0,0.2927334373816848,0.0,0,2,7,5,1,6,nan,nan,nan,nan,nan,nan,nan,nan,nan,nan,nan,nan,0.0,nan,nan,nan,nan,nan,nan,nan,nan,nan,nan,nan,nan,nan,nan,nan,nan,nan,nan,194.591774915345,544.6109439339489,nan,544.9036773713306,nan,nan,nan,nan
1,251,1,1,1.0,1.0,0.26859433576464653,0.0,8,3,5,2,6,1,nan,nan,nan,nan,nan,nan,nan,nan,nan,nan,nan,nan,0.0,nan,nan,nan,nan,nan,nan,nan,nan,nan,nan,nan,nan,nan,nan,nan,nan,nan,nan,194.591774915345,545.6110628186725,nan,545.8796571544372,nan,nan,nan,nan
1,252,1,1,1.0,1.0,0.25215169275179505,0.0,5,8,0,4,1,3,nan,nan,nan,nan,nan,nan,nan,nan,nan,nan,nan,nan,0.0,nan,nan,nan,nan,nan,nan,nan,nan,nan,nan,nan,nan,nan,nan,nan,nan,nan,nan,194.591774915345,546.6194794313051,nan,546.8716311240569,nan,nan,nan,nan
1,253,1,1,1.0,1.0,0.3239472033455968,0.0,0,1,3,5,7,8,nan,nan,nan,nan,nan,nan,nan,nan,nan,nan,nan,nan,0.0,nan,nan,nan,nan,nan,nan,nan,nan,nan,nan,nan,nan,nan,nan,nan,nan,nan,nan,194.591774915345,547.6196613227949,nan,547.9436085261405,nan,nan,nan,nan
1,254,1,1,1.0,1.0,0.28379566920921206,0.0,4,6,2,8,5,7,nan,nan,nan,nan,nan,nan,nan,nan,nan,nan,nan,nan,0.0,nan,nan,nan,nan,nan,nan,nan,nan,nan,nan,nan,nan,nan,nan,nan,nan,nan,nan,194.591774915345,548.6197782121599,nan,548.9035738813691,nan,nan,nan,nan
1,255,1,1,1.0,1.0,0.2676600753329694,0.0,6,4,7,0,1,3,nan,nan,nan,nan,nan,nan,nan,nan,nan,nan,nan,nan,0.0,nan,nan,nan,nan,nan,nan,nan,nan,nan,nan,nan,nan,nan,nan,nan,nan,nan,nan,194.591774915345,549.6199045097455,nan,549.8875645850785,nan,nan,nan,nan
1,256,1,1,1.0,1.0,0.1875098180025816,0.0,4,5,1,3,2,7,nan,nan,nan,nan,nan,nan,nan,nan,nan,nan,nan,nan,0.0,nan,nan,nan,nan,nan,nan,nan,nan,nan,nan,nan,nan,nan,nan,nan,nan,nan,nan,194.591774915345,550.6200285265222,nan,550.8075383445248,nan,nan,nan,nan
1,257,1,1,1.0,1.0,0.20336145628243685,0.0,1,4,5,0,3,8,nan,nan,nan,nan,nan,nan,nan,nan,nan,nan,nan,nan,0.0,nan,nan,nan,nan,nan,nan,nan,nan,nan,nan,nan,nan,nan,nan,nan,nan,nan,nan,194.591774915345,551.6201499775052,nan,551.8235114337876,nan,nan,nan,nan
1,258,1,1,1.0,1.0,0.2032277463003993,0.0,3,2,8,6,7,1,nan,nan,nan,nan,nan,nan,nan,nan,nan,nan,nan,nan,0.0,nan,nan,nan,nan,nan,nan,nan,nan,nan,nan,nan,nan,nan,nan,nan,nan,nan,nan,194.591774915345,552.6202651564963,nan,552.8234929027967,nan,nan,nan,nan
1,259,1,1,1.0,1.0,0.22708032606169581,0.0,5,3,7,4,2,0,nan,nan,nan,nan,nan,nan,nan,nan,nan,nan,nan,nan,0.0,nan,nan,nan,nan,nan,nan,nan,nan,nan,nan,nan,nan,nan,nan,nan,nan,nan,nan,194.591774915345,553.6203840416856,nan,553.8474643677473,nan,nan,nan,nan
1,260,1,1,1.0,1.0,0.23493729485198855,0.0,2,1,0,3,7,8,nan,nan,nan,nan,nan,nan,nan,nan,nan,nan,nan,nan,0.0,nan,nan,nan,nan,nan,nan,nan,nan,nan,nan,nan,nan,nan,nan,nan,nan,nan,nan,194.591774915345,554.6204986502416,nan,554.8554359450936,nan,nan,nan,nan
1,261,0,0,1.0,0.0,0.23477193899452686,0.0,8,0,3,5,4,7,nan,nan,nan,nan,nan,nan,nan,nan,nan,nan,nan,nan,0.0,nan,nan,nan,nan,nan,nan,nan,nan,nan,nan,nan,nan,nan,nan,nan,nan,nan,nan,194.591774915345,555.6206508916803,nan,555.8554228306748,nan,nan,nan,nan
1,262,1,1,1.0,1.0,0.4982881392352283,0.0,3,2,1,7,0,8,nan,nan,nan,nan,nan,nan,nan,nan,nan,nan,nan,nan,0.0,nan,nan,nan,nan,nan,nan,nan,nan,nan,nan,nan,nan,nan,nan,nan,nan,nan,nan,194.591774915345,556.6290811887011,nan,557.1273693279363,nan,nan,nan,nan
1,263,1,1,1.0,1.0,0.3221431141719222,0.0,5,6,3,8,7,1,nan,nan,nan,nan,nan,nan,nan,nan,nan,nan,nan,nan,0.0,nan,nan,nan,nan,nan,nan,nan,nan,nan,nan,nan,nan,nan,nan,nan,nan,nan,nan,194.591774915345,557.6292188903317,nan,557.9513620045036,nan,nan,nan,nan
1,264,1,1,1.0,1.0,0.5300039597786963,0.0,0,8,4,5,6,2,nan,nan,nan,nan,nan,nan,nan,nan,nan,nan,nan,nan,0.0,nan,nan,nan,nan,nan,nan,nan,nan,nan,nan,nan,nan,nan,nan,nan,nan,nan,nan,194.591774915345,558.629337775521,nan,559.1593417352997,nan,nan,nan,nan
1,265,1,1,1.0,1.0,0.32186257978901267,0.0,4,2,0,8,5,6,nan,nan,nan,nan,nan,nan,nan,nan,nan,nan,nan,nan,0.0,nan,nan,nan,nan,nan,nan,nan,nan,nan,nan,nan,nan,nan,nan,nan,nan,nan,nan,194.591774915345,559.629466923885,nan,559.9513295036741,nan,nan,nan,nan
1,266,1,1,1.0,1.0,0.289427746552974,0.0,2,1,7,6,0,8,nan,nan,nan,nan,nan,nan,nan,nan,nan,nan,nan,nan,0.0,nan,nan,nan,nan,nan,nan,nan,nan,nan,nan,nan,nan,nan,nan,nan,nan,nan,nan,194.591774915345,560.6378809702583,nan,560.9273087168112,nan,nan,nan,nan
1,267,1,1,1.0,1.0,0.28921620501205325,0.0,6,3,5,8,1,0,nan,nan,nan,nan,nan,nan,nan,nan,nan,nan,nan,nan,0.0,nan,nan,nan,nan,nan,nan,nan,nan,nan,nan,nan,nan,nan,nan,nan,nan,nan,nan,194.591774915345,561.6380805377848,nan,561.9272967427969,nan,nan,nan,nan
1,268,0,0,0.0,1.0,0.36907794466242194,1.0,2,8,1,6,7,3,1.0,1.0,1.0,1.0,1.0,1.0,1.0,0.0,1.0,0.0,0.0,0.0,2.0,2.0,5.0,1.0,3.0,5.0,8.0,3.0,2.0,1.0,6.0,5.0,4.0,7.099909424781799,2.854482582770288,1.8219405533745885,9.987753689289093,9.060490873176605,8.068055332638323,194.591774915345,562.6381771853194,563.446572244633,563.0072551299818,574.489597549662,575.4930782900192,564.4633723981678,574.481273593381
1,269,1,1,1.0,1.0,0.5968544757924974,0.0,3,4,7,8,1,0,nan,nan,nan,nan,nan,nan,nan,nan,nan,nan,nan,nan,0.0,nan,nan,nan,nan,nan,nan,nan,nan,nan,nan,nan,nan,nan,nan,nan,nan,nan,nan,194.591774915345,575.6981049934402,nan,576.2949594692327,nan,nan,nan,nan
1,270,1,1,1.0,1.0,0.33268682984635234,0.0,4,2,0,5,8,1,nan,nan,nan,nan,nan,nan,nan,nan,nan,nan,nan,nan,0.0,nan,nan,nan,nan,nan,nan,nan,nan,nan,nan,nan,nan,nan,nan,nan,nan,nan,nan,194.591774915345,576.6982392738573,nan,577.0309261037037,nan,nan,nan,nan
1,271,0,0,0.0,1.0,0.4205361120402813,0.0,6,1,2,7,5,3,nan,nan,nan,nan,nan,nan,nan,nan,nan,nan,nan,nan,0.0,nan,nan,nan,nan,nan,nan,nan,nan,nan,nan,nan,nan,nan,nan,nan,nan,nan,nan,194.591774915345,577.6983641460538,nan,578.1189002580941,nan,nan,nan,nan
1,272,1,1,1.0,1.0,0.588362883310765,0.0,5,2,3,4,7,0,nan,nan,nan,nan,nan,nan,nan,nan,nan,nan,nan,nan,0.0,nan,nan,nan,nan,nan,nan,nan,nan,nan,nan,nan,nan,nan,nan,nan,nan,nan,nan,194.591774915345,578.6985203786753,nan,579.2868832619861,nan,nan,nan,nan
1,273,1,1,1.0,1.0,0.3799175904132426,0.0,8,6,0,2,3,5,nan,nan,nan,nan,nan,nan,nan,nan,nan,nan,nan,nan,0.0,nan,nan,nan,nan,nan,nan,nan,nan,nan,nan,nan,nan,nan,nan,nan,nan,nan,nan,194.591774915345,579.706933284644,nan,580.0868508750573,nan,nan,nan,nan
1,274,1,1,1.0,1.0,0.2597489384934306,0.0,2,7,4,5,1,0,nan,nan,nan,nan,nan,nan,nan,nan,nan,nan,nan,nan,0.0,nan,nan,nan,nan,nan,nan,nan,nan,nan,nan,nan,nan,nan,nan,nan,nan,nan,nan,194.591774915345,580.7070781136863,nan,580.9668270521797,nan,nan,nan,nan
1,275,1,1,1.0,1.0,0.25929877161979675,0.0,6,5,2,0,4,8,nan,nan,nan,nan,nan,nan,nan,nan,nan,nan,nan,nan,0.0,nan,nan,nan,nan,nan,nan,nan,nan,nan,nan,nan,nan,nan,nan,nan,nan,nan,nan,194.591774915345,581.7155098360963,nan,581.9748086077161,nan,nan,nan,nan
1,276,1,1,1.0,1.0,0.23513828730210662,0.0,0,7,8,5,6,4,nan,nan,nan,nan,nan,nan,nan,nan,nan,nan,nan,nan,0.0,nan,nan,nan,nan,nan,nan,nan,nan,nan,nan,nan,nan,nan,nan,nan,nan,nan,nan,194.591774915345,582.7156472527422,nan,582.9507855400443,nan,nan,nan,nan
1,277,1,1,1.0,1.0,0.27498334320262074,0.0,2,5,4,0,7,8,nan,nan,nan,nan,nan,nan,nan,nan,nan,nan,nan,nan,0.0,nan,nan,nan,nan,nan,nan,nan,nan,nan,nan,nan,nan,nan,nan,nan,nan,nan,nan,194.591774915345,583.715781247709,nan,583.9907645909116,nan,nan,nan,nan
1,278,1,1,1.0,1.0,0.25888709258288145,0.0,0,8,1,4,6,5,nan,nan,nan,nan,nan,nan,nan,nan,nan,nan,nan,nan,0.0,nan,nan,nan,nan,nan,nan,nan,nan,nan,nan,nan,nan,nan,nan,nan,nan,nan,nan,194.591774915345,584.7158633554354,nan,584.9747504480183,nan,nan,nan,nan
1,279,1,1,1.0,1.0,0.2347117834724486,0.0,5,7,0,8,4,6,nan,nan,nan,nan,nan,nan,nan,nan,nan,nan,nan,nan,0.0,nan,nan,nan,nan,nan,nan,nan,nan,nan,nan,nan,nan,nan,nan,nan,nan,nan,nan,194.591774915345,585.71602472011,nan,585.9507365035824,nan,nan,nan,nan
1,280,0,0,1.0,0.0,0.21854682452976704,0.0,7,2,3,6,8,5,nan,nan,nan,nan,nan,nan,nan,nan,nan,nan,nan,nan,0.0,nan,nan,nan,nan,nan,nan,nan,nan,nan,nan,nan,nan,nan,nan,nan,nan,nan,nan,194.591774915345,586.7161444602534,nan,586.9346912847832,nan,nan,nan,nan
1,281,1,1,1.0,1.0,0.46606399212032557,0.0,2,5,7,1,4,3,nan,nan,nan,nan,nan,nan,nan,nan,nan,nan,nan,nan,0.0,nan,nan,nan,nan,nan,nan,nan,nan,nan,nan,nan,nan,nan,nan,nan,nan,nan,nan,194.591774915345,587.7245827401057,nan,588.190646732226,nan,nan,nan,nan
1,282,1,1,1.0,1.0,0.3779361709021032,0.0,8,7,3,0,6,1,nan,nan,nan,nan,nan,nan,nan,nan,nan,nan,nan,nan,0.0,nan,nan,nan,nan,nan,nan,nan,nan,nan,nan,nan,nan,nan,nan,nan,nan,nan,nan,194.591774915345,588.7247124589048,nan,589.1026486298069,nan,nan,nan,nan
1,283,1,1,1.0,1.0,0.2414648588746786,0.0,6,3,1,4,0,8,nan,nan,nan,nan,nan,nan,nan,nan,nan,nan,nan,nan,0.0,nan,nan,nan,nan,nan,nan,nan,nan,nan,nan,nan,nan,nan,nan,nan,nan,nan,nan,194.591774915345,589.7331686997786,nan,589.9746335586533,nan,nan,nan,nan
1,284,1,1,1.0,1.0,0.33695443579927087,0.0,3,1,0,6,8,5,nan,nan,nan,nan,nan,nan,nan,nan,nan,nan,nan,nan,0.0,nan,nan,nan,nan,nan,nan,nan,nan,nan,nan,nan,nan,nan,nan,nan,nan,nan,nan,194.591774915345,590.7416406208649,nan,591.0785950566642,nan,nan,nan,nan
1,285,1,1,1.0,1.0,0.3048163880594075,0.0,7,5,6,2,3,1,nan,nan,nan,nan,nan,nan,nan,nan,nan,nan,nan,nan,0.0,nan,nan,nan,nan,nan,nan,nan,nan,nan,nan,nan,nan,nan,nan,nan,nan,nan,nan,194.591774915345,591.7417677734047,nan,592.0465841614641,nan,nan,nan,nan
1,286,1,1,1.0,1.0,0.2643421245738864,0.0,1,6,3,7,4,5,nan,nan,nan,nan,nan,nan,nan,nan,nan,nan,nan,nan,0.0,nan,nan,nan,nan,nan,nan,nan,nan,nan,nan,nan,nan,nan,nan,nan,nan,nan,nan,194.591774915345,592.7502091894858,nan,593.0145513140596,nan,nan,nan,nan
1,287,0,0,0.0,1.0,0.4081746223382652,1.0,3,5,1,8,2,6,1.0,1.0,1.0,1.0,1.0,1.0,0.0,0.0,1.0,0.0,0.0,0.0,1.0,8.0,3.0,1.0,0.0,6.0,4.0,1.0,2.0,3.0,4.0,5.0,6.0,1.6287310905754566,2.163393808528781,2.835309572983533,3.7403371604159474,4.7629709537141025,6.242848145775497,194.591774915345,593.7503531631082,594.5587416649796,594.1585277854465,601.8679756196216,602.8704513958655,595.5838831653818,601.8596522337757
1,288,1,1,1.0,1.0,0.2818458955734968,0.0,6,3,4,1,7,2,nan,nan,nan,nan,nan,nan,nan,nan,nan,nan,nan,nan,0.0,nan,nan,nan,nan,nan,nan,nan,nan,nan,nan,nan,nan,nan,nan,nan,nan,nan,nan,194.591774915345,603.0764967482537,nan,603.3583426438272,nan,nan,nan,nan
1,289,1,1,1.0,1.0,0.297674726229161,0.0,2,7,8,5,6,3,nan,nan,nan,nan,nan,nan,nan,nan,nan,nan,nan,nan,0.0,nan,nan,nan,nan,nan,nan,nan,nan,nan,nan,nan,nan,nan,nan,nan,nan,nan,nan,194.591774915345,604.0766261820681,nan,604.3743009082973,nan,nan,nan,nan
1,290,1,1,1.0,1.0,0.43351483531296253,0.0,8,6,3,4,5,1,nan,nan,nan,nan,nan,nan,nan,nan,nan,nan,nan,nan,0.0,nan,nan,nan,nan,nan,nan,nan,nan,nan,nan,nan,nan,nan,nan,nan,nan,nan,nan,194.591774915345,605.0767447818071,nan,605.51025961712,nan,nan,nan,nan
1,291,1,1,1.0,1.0,0.34537133341655135,0.0,0,1,2,7,8,4,nan,nan,nan,nan,nan,nan,nan,nan,nan,nan,nan,nan,0.0,nan,nan,nan,nan,nan,nan,nan,nan,nan,nan,nan,nan,nan,nan,nan,nan,nan,nan,194.591774915345,606.0768713648431,nan,606.4222426982597,nan,nan,nan,nan
1,292,1,1,1.0,1.0,0.31321675004437566,0.0,3,0,8,5,2,6,nan,nan,nan,nan,nan,nan,nan,nan,nan,nan,nan,nan,0.0,nan,nan,nan,nan,nan,nan,nan,nan,nan,nan,nan,nan,nan,nan,nan,nan,nan,nan,194.591774915345,607.0769976624288,nan,607.3902144124731,nan,nan,nan,nan
1,293,1,1,1.0,1.0,0.2650859407149255,0.0,7,8,4,6,1,5,nan,nan,nan,nan,nan,nan,nan,nan,nan,nan,nan,nan,0.0,nan,nan,nan,nan,nan,nan,nan,nan,nan,nan,nan,nan,nan,nan,nan,nan,nan,nan,194.591774915345,608.0771239600144,nan,608.3422099007294,nan,nan,nan,nan
1,294,1,1,1.0,1.0,0.30493584321811795,0.0,5,3,7,8,2,4,nan,nan,nan,nan,nan,nan,nan,nan,nan,nan,nan,nan,0.0,nan,nan,nan,nan,nan,nan,nan,nan,nan,nan,nan,nan,nan,nan,nan,nan,nan,nan,194.591774915345,609.0772496876307,nan,609.3821855308488,nan,nan,nan,nan
1,295,1,1,1.0,1.0,0.2327754097059369,0.0,7,8,6,4,3,2,nan,nan,nan,nan,nan,nan,nan,nan,nan,nan,nan,nan,0.0,nan,nan,nan,nan,nan,nan,nan,nan,nan,nan,nan,nan,nan,nan,nan,nan,nan,nan,194.591774915345,610.0773728489876,nan,610.3101482586935,nan,nan,nan,nan
1,296,1,1,1.0,1.0,0.3286353265866637,0.0,1,6,3,2,5,4,nan,nan,nan,nan,nan,nan,nan,nan,nan,nan,nan,nan,0.0,nan,nan,nan,nan,nan,nan,nan,nan,nan,nan,nan,nan,nan,nan,nan,nan,nan,nan,194.591774915345,611.0774951553904,nan,611.406130481977,nan,nan,nan,nan
1,297,1,1,1.0,1.0,0.2724850447848439,0.0,0,3,5,6,1,8,nan,nan,nan,nan,nan,nan,nan,nan,nan,nan,nan,nan,0.0,nan,nan,nan,nan,nan,nan,nan,nan,nan,nan,nan,nan,nan,nan,nan,nan,nan,nan,194.591774915345,612.0776131851599,nan,612.3500982299447,nan,nan,nan,nan
1,298,1,1,1.0,1.0,0.2803414426743984,0.0,6,8,2,3,4,5,nan,nan,nan,nan,nan,nan,nan,nan,nan,nan,nan,nan,0.0,nan,nan,nan,nan,nan,nan,nan,nan,nan,nan,nan,nan,nan,nan,nan,nan,nan,nan,194.591774915345,613.0777409086004,nan,613.3580823512748,nan,nan,nan,nan
1,299,1,1,1.0,1.0,0.30421768594533205,0.0,8,4,3,0,7,6,nan,nan,nan,nan,nan,nan,nan,nan,nan,nan,nan,nan,0.0,nan,nan,nan,nan,nan,nan,nan,nan,nan,nan,nan,nan,nan,nan,nan,nan,nan,nan,194.591774915345,614.0778478193097,nan,614.382065505255,nan,nan,nan,nan
1,300,1,1,1.0,1.0,0.3440519077703357,0.0,6,7,2,3,0,1,nan,nan,nan,nan,nan,nan,nan,nan,nan,nan,nan,nan,0.0,nan,nan,nan,nan,nan,nan,nan,nan,nan,nan,nan,nan,nan,nan,nan,nan,nan,nan,194.591774915345,615.077988657169,nan,615.4220405649394,nan,nan,nan,nan
1,301,1,1,1.0,1.0,0.28792557399719954,0.0,0,8,5,2,1,4,nan,nan,nan,nan,nan,nan,nan,nan,nan,nan,nan,nan,0.0,nan,nan,nan,nan,nan,nan,nan,nan,nan,nan,nan,nan,nan,nan,nan,nan,nan,nan,194.591774915345,616.0780927170999,nan,616.3660182910971,nan,nan,nan,nan
1,302,1,1,1.0,1.0,0.2957711382769048,0.0,5,0,1,7,2,6,nan,nan,nan,nan,nan,nan,nan,nan,nan,nan,nan,nan,0.0,nan,nan,nan,nan,nan,nan,nan,nan,nan,nan,nan,nan,nan,nan,nan,nan,nan,nan,194.591774915345,617.0782153084874,nan,617.3739864467643,nan,nan,nan,nan
1,303,1,1,1.0,1.0,0.31161365332081914,0.0,7,4,3,6,8,0,nan,nan,nan,nan,nan,nan,nan,nan,nan,nan,nan,nan,0.0,nan,nan,nan,nan,nan,nan,nan,nan,nan,nan,nan,nan,nan,nan,nan,nan,nan,nan,194.591774915345,618.078353010118,nan,618.3899666634388,nan,nan,nan,nan
1,304,1,1,1.0,1.0,0.30347586516290903,0.0,3,8,0,5,2,1,nan,nan,nan,nan,nan,nan,nan,nan,nan,nan,nan,nan,0.0,nan,nan,nan,nan,nan,nan,nan,nan,nan,nan,nan,nan,nan,nan,nan,nan,nan,nan,194.591774915345,619.0784750315361,nan,619.381950896699,nan,nan,nan,nan
1,305,1,1,1.0,1.0,0.3033187771216035,0.0,4,0,7,3,1,8,nan,nan,nan,nan,nan,nan,nan,nan,nan,nan,nan,nan,0.0,nan,nan,nan,nan,nan,nan,nan,nan,nan,nan,nan,nan,nan,nan,nan,nan,nan,nan,194.591774915345,620.0785967675038,nan,620.3819155446254,nan,nan,nan,nan
1,306,1,1,1.0,1.0,0.28718204284086823,0.0,0,6,1,5,3,4,nan,nan,nan,nan,nan,nan,nan,nan,nan,nan,nan,nan,0.0,nan,nan,nan,nan,nan,nan,nan,nan,nan,nan,nan,nan,nan,nan,nan,nan,nan,nan,194.591774915345,621.0787099506706,nan,621.3658919935115,nan,nan,nan,nan
1,307,1,1,1.0,1.0,0.27906706230714917,0.0,2,4,6,1,0,8,nan,nan,nan,nan,nan,nan,nan,nan,nan,nan,nan,nan,0.0,nan,nan,nan,nan,nan,nan,nan,nan,nan,nan,nan,nan,nan,nan,nan,nan,nan,nan,194.591774915345,622.0787991858087,nan,622.3578662481159,nan,nan,nan,nan
1,308,1,1,1.0,1.0,0.446881003677845,0.0,4,2,7,6,1,3,nan,nan,nan,nan,nan,nan,nan,nan,nan,nan,nan,nan,0.0,nan,nan,nan,nan,nan,nan,nan,nan,nan,nan,nan,nan,nan,nan,nan,nan,nan,nan,194.591774915345,623.0789645416662,nan,623.525845545344,nan,nan,nan,nan
1,309,1,1,1.0,1.0,0.31874619238078594,0.0,0,4,2,1,3,7,nan,nan,nan,nan,nan,nan,nan,nan,nan,nan,nan,nan,0.0,nan,nan,nan,nan,nan,nan,nan,nan,nan,nan,nan,nan,nan,nan,nan,nan,nan,nan,194.591774915345,624.0790874180384,nan,624.3978336104192,nan,nan,nan,nan
1,310,1,1,1.0,1.0,0.31057846872135997,0.0,3,1,5,8,4,2,nan,nan,nan,nan,nan,nan,nan,nan,nan,nan,nan,nan,0.0,nan,nan,nan,nan,nan,nan,nan,nan,nan,nan,nan,nan,nan,nan,nan,nan,nan,nan,194.591774915345,625.0792259750888,nan,625.3898044438101,nan,nan,nan,nan
1,311,0,0,1.0,0.0,0.2624259926378727,1.0,7,0,2,1,8,5,1.0,1.0,1.0,1.0,1.0,1.0,1.0,1.0,0.0,0.0,0.0,0.0,2.0,7.0,0.0,1.0,8.0,3.0,6.0,2.0,1.0,3.0,4.0,5.0,6.0,2.2495430619455874,1.667340824380517,3.611328528728336,4.81722677173093,5.377848361618817,6.297393051441759,194.591774915345,626.0793499918655,626.8877407745458,626.3417759845033,634.2386361337267,635.2397172185592,627.9045443488285,634.2303158836439
1,312,1,1,1.0,1.0,0.7424089554697275,0.0,3,6,0,2,1,4,nan,nan,nan,nan,nan,nan,nan,nan,nan,nan,nan,nan,0.0,nan,nan,nan,nan,nan,nan,nan,nan,nan,nan,nan,nan,nan,nan,nan,nan,nan,nan,194.591774915345,635.4471618235111,nan,636.1895707789809,nan,nan,nan,nan
1,313,1,1,1.0,1.0,0.6782583012245595,0.0,0,7,8,4,6,1,nan,nan,nan,nan,nan,nan,nan,nan,nan,nan,nan,nan,0.0,nan,nan,nan,nan,nan,nan,nan,nan,nan,nan,nan,nan,nan,nan,nan,nan,nan,nan,194.591774915345,636.4472849853337,nan,637.1255432865582,nan,nan,nan,nan
1,314,1,1,1.0,1.0,0.598122013732791,0.0,7,8,6,2,4,3,nan,nan,nan,nan,nan,nan,nan,nan,nan,nan,nan,nan,0.0,nan,nan,nan,nan,nan,nan,nan,nan,nan,nan,nan,nan,nan,nan,nan,nan,nan,nan,194.591774915345,637.4474035855383,nan,638.0455255992711,nan,nan,nan,nan
1,315,1,1,1.0,1.0,0.33395978482440114,0.0,5,1,7,4,0,8,nan,nan,nan,nan,nan,nan,nan,nan,nan,nan,nan,nan,0.0,nan,nan,nan,nan,nan,nan,nan,nan,nan,nan,nan,nan,nan,nan,nan,nan,nan,nan,194.591774915345,638.4475335893221,nan,638.7814933741465,nan,nan,nan,nan
1,316,1,1,1.0,1.0,0.25350818084552884,0.0,3,6,4,5,1,7,nan,nan,nan,nan,nan,nan,nan,nan,nan,nan,nan,nan,0.0,nan,nan,nan,nan,nan,nan,nan,nan,nan,nan,nan,nan,nan,nan,nan,nan,nan,nan,194.591774915345,639.455978426151,nan,639.7094866069965,nan,nan,nan,nan
1,317,1,1,1.0,1.0,0.2773419446311891,0.0,0,5,2,3,8,4,nan,nan,nan,nan,nan,nan,nan,nan,nan,nan,nan,nan,0.0,nan,nan,nan,nan,nan,nan,nan,nan,nan,nan,nan,nan,nan,nan,nan,nan,nan,nan,194.591774915345,640.4561184085906,nan,640.7334603532217,nan,nan,nan,nan
1,318,1,1,1.0,1.0,0.2451870758086443,0.0,1,7,8,4,5,0,nan,nan,nan,nan,nan,nan,nan,nan,nan,nan,nan,nan,0.0,nan,nan,nan,nan,nan,nan,nan,nan,nan,nan,nan,nan,nan,nan,nan,nan,nan,nan,194.591774915345,641.4562464165501,nan,641.7014334923588,nan,nan,nan,nan
1,319,1,1,1.0,1.0,0.3007329539395869,0.0,5,6,1,7,0,3,nan,nan,nan,nan,nan,nan,nan,nan,nan,nan,nan,nan,0.0,nan,nan,nan,nan,nan,nan,nan,nan,nan,nan,nan,nan,nan,nan,nan,nan,nan,nan,194.591774915345,642.4646815601736,nan,642.7654145141132,nan,nan,nan,nan
1,320,1,1,1.0,1.0,0.28456713957712054,0.0,4,3,7,0,6,2,nan,nan,nan,nan,nan,nan,nan,nan,nan,nan,nan,nan,0.0,nan,nan,nan,nan,nan,nan,nan,nan,nan,nan,nan,nan,nan,nan,nan,nan,nan,nan,194.591774915345,643.4648226830177,nan,643.7493898225948,nan,nan,nan,nan
1,321,1,1,1.0,1.0,0.34011330315843225,0.0,8,1,2,4,0,3,nan,nan,nan,nan,nan,nan,nan,nan,nan,nan,nan,nan,0.0,nan,nan,nan,nan,nan,nan,nan,nan,nan,nan,nan,nan,nan,nan,nan,nan,nan,nan,194.591774915345,644.473261247389,nan,644.8133745505475,nan,nan,nan,nan
1,322,1,1,1.0,1.0,0.30761318234726787,0.0,2,4,7,5,1,6,nan,nan,nan,nan,nan,nan,nan,nan,nan,nan,nan,nan,0.0,nan,nan,nan,nan,nan,nan,nan,nan,nan,nan,nan,nan,nan,nan,nan,nan,nan,nan,194.591774915345,645.4817174882628,nan,645.7893306706101,nan,nan,nan,nan
1,323,1,1,1.0,1.0,0.35545832524076104,0.0,5,2,1,3,8,7,nan,nan,nan,nan,nan,nan,nan,nan,nan,nan,nan,nan,0.0,nan,nan,nan,nan,nan,nan,nan,nan,nan,nan,nan,nan,nan,nan,nan,nan,nan,nan,194.591774915345,646.4818506282754,nan,646.8373089535162,nan,nan,nan,nan
1,324,1,1,1.0,1.0,0.34698782954365015,0.0,0,6,8,1,7,3,nan,nan,nan,nan,nan,nan,nan,nan,nan,nan,nan,nan,0.0,nan,nan,nan,nan,nan,nan,nan,nan,nan,nan,nan,nan,nan,nan,nan,nan,nan,nan,194.591774915345,647.4903037329204,nan,647.8372915624641,nan,nan,nan,nan
1,325,1,1,1.0,1.0,0.4188186922110617,0.0,8,0,6,4,5,2,nan,nan,nan,nan,nan,nan,nan,nan,nan,nan,nan,nan,0.0,nan,nan,nan,nan,nan,nan,nan,nan,nan,nan,nan,nan,nan,nan,nan,nan,nan,nan,194.591774915345,648.4904428599402,nan,648.9092615521513,nan,nan,nan,nan
1,326,1,1,1.0,1.0,0.4426641445606947,0.0,1,5,2,3,7,4,nan,nan,nan,nan,nan,nan,nan,nan,nan,nan,nan,nan,0.0,nan,nan,nan,nan,nan,nan,nan,nan,nan,nan,nan,nan,nan,nan,nan,nan,nan,nan,194.591774915345,649.4905711533502,nan,649.9332352979109,nan,nan,nan,nan
1,327,1,1,1.0,1.0,0.37820359133183956,0.0,0,2,5,8,1,6,nan,nan,nan,nan,nan,nan,nan,nan,nan,nan,nan,nan,0.0,nan,nan,nan,nan,nan,nan,nan,nan,nan,nan,nan,nan,nan,nan,nan,nan,nan,nan,194.591774915345,650.4990028757602,nan,650.877206467092,nan,nan,nan,nan
1,328,1,1,1.0,1.0,0.33005054434761405,0.0,7,8,3,1,5,2,nan,nan,nan,nan,nan,nan,nan,nan,nan,nan,nan,nan,0.0,nan,nan,nan,nan,nan,nan,nan,nan,nan,nan,nan,nan,nan,nan,nan,nan,nan,nan,194.591774915345,651.4991477048025,nan,651.8291982491501,nan,nan,nan,nan
1,329,1,1,1.0,1.0,0.27388971392065287,0.0,2,6,5,8,0,7,nan,nan,nan,nan,nan,nan,nan,nan,nan,nan,nan,nan,0.0,nan,nan,nan,nan,nan,nan,nan,nan,nan,nan,nan,nan,nan,nan,nan,nan,nan,nan,194.591774915345,652.4992737169378,nan,652.7731634308584,nan,nan,nan,nan
1,330,1,1,1.0,1.0,0.2897373605519533,0.0,4,1,7,2,5,8,nan,nan,nan,nan,nan,nan,nan,nan,nan,nan,nan,nan,0.0,nan,nan,nan,nan,nan,nan,nan,nan,nan,nan,nan,nan,nan,nan,nan,nan,nan,nan,194.591774915345,653.4993957383558,nan,653.7891330989078,nan,nan,nan,nan
1,331,1,1,1.0,1.0,0.25760900555178523,0.0,0,3,8,5,6,2,nan,nan,nan,nan,nan,nan,nan,nan,nan,nan,nan,nan,0.0,nan,nan,nan,nan,nan,nan,nan,nan,nan,nan,nan,nan,nan,nan,nan,nan,nan,nan,194.591774915345,654.4995191851631,nan,654.7571281907149,nan,nan,nan,nan
1,332,1,1,1.0,1.0,0.2814938020892441,0.0,7,5,4,6,3,8,nan,nan,nan,nan,nan,nan,nan,nan,nan,nan,nan,nan,0.0,nan,nan,nan,nan,nan,nan,nan,nan,nan,nan,nan,nan,nan,nan,nan,nan,nan,nan,194.591774915345,655.4996104156598,nan,655.7811042177491,nan,nan,nan,nan
1,333,1,1,1.0,1.0,0.2729959371499717,0.0,1,4,7,2,5,3,nan,nan,nan,nan,nan,nan,nan,nan,nan,nan,nan,nan,0.0,nan,nan,nan,nan,nan,nan,nan,nan,nan,nan,nan,nan,nan,nan,nan,nan,nan,nan,194.591774915345,656.5080883237533,nan,656.7810842609033,nan,nan,nan,nan
1,334,1,1,1.0,1.0,0.272515834774822,0.0,6,1,4,8,7,0,nan,nan,nan,nan,nan,nan,nan,nan,nan,nan,nan,nan,0.0,nan,nan,nan,nan,nan,nan,nan,nan,nan,nan,nan,nan,nan,nan,nan,nan,nan,nan,194.591774915345,657.5165394330397,nan,657.7890552678145,nan,nan,nan,nan
1,335,1,1,1.0,1.0,0.3123574694618583,0.0,7,8,3,6,1,5,nan,nan,nan,nan,nan,nan,nan,nan,nan,nan,nan,nan,0.0,nan,nan,nan,nan,nan,nan,nan,nan,nan,nan,nan,nan,nan,nan,nan,nan,nan,nan,194.591774915345,658.5166762792505,nan,658.8290337487124,nan,nan,nan,nan
1,336,0,0,0.0,1.0,0.41587108140811324,1.0,6,3,8,4,0,1,1.0,1.0,1.0,1.0,1.0,1.0,1.0,1.0,1.0,0.0,0.0,0.0,3.0,6.0,3.0,8.0,0.0,1.0,2.0,1.0,2.0,3.0,4.0,5.0,6.0,2.196492346469313,3.2850777469575405,3.923958550207317,5.043986934702843,5.947654612828046,6.650605957955122,194.591774915345,659.525128243491,660.3335389825515,659.9409993248992,668.0428251670673,669.044193059206,661.3503399915062,668.0344932284206
1,337,1,1,1.0,1.0,0.4574606418609619,0.0,3,1,5,7,8,2,nan,nan,nan,nan,nan,nan,nan,nan,nan,nan,nan,nan,0.0,nan,nan,nan,nan,nan,nan,nan,nan,nan,nan,nan,nan,nan,nan,nan,nan,nan,nan,194.591774915345,669.2513328962959,nan,669.7087935381569,nan,nan,nan,nan
1,338,0,0,0.0,1.0,0.5372858894988894,0.0,6,7,8,2,1,4,nan,nan,nan,nan,nan,nan,nan,nan,nan,nan,nan,nan,0.0,nan,nan,nan,nan,nan,nan,nan,nan,nan,nan,nan,nan,nan,nan,nan,nan,nan,nan,194.591774915345,670.251466606278,nan,670.7887524957769,nan,nan,nan,nan
1,339,1,1,1.0,1.0,0.5211406019516289,0.0,5,4,0,7,2,8,nan,nan,nan,nan,nan,nan,nan,nan,nan,nan,nan,nan,0.0,nan,nan,nan,nan,nan,nan,nan,nan,nan,nan,nan,nan,nan,nan,nan,nan,nan,nan,194.591774915345,671.2515900530852,nan,671.7727306550369,nan,nan,nan,nan
1,340,1,1,1.0,1.0,0.37701046327129006,0.0,4,0,5,1,3,6,nan,nan,nan,nan,nan,nan,nan,nan,nan,nan,nan,nan,0.0,nan,nan,nan,nan,nan,nan,nan,nan,nan,nan,nan,nan,nan,nan,nan,nan,nan,nan,194.591774915345,672.2517075128853,nan,672.6287179761566,nan,nan,nan,nan
1,341,1,1,1.0,1.0,0.2888681022450328,0.0,0,5,1,8,6,2,nan,nan,nan,nan,nan,nan,nan,nan,nan,nan,nan,nan,0.0,nan,nan,nan,nan,nan,nan,nan,nan,nan,nan,nan,nan,nan,nan,nan,nan,nan,nan,194.591774915345,673.251831529662,nan,673.540699631907,nan,nan,nan,nan
1,342,1,1,1.0,1.0,0.24873110791668296,0.0,1,3,7,6,2,5,nan,nan,nan,nan,nan,nan,nan,nan,nan,nan,nan,nan,0.0,nan,nan,nan,nan,nan,nan,nan,nan,nan,nan,nan,nan,nan,nan,nan,nan,nan,nan,194.591774915345,674.2519438574091,nan,674.5006749653257,nan,nan,nan,nan
1,343,1,1,1.0,1.0,0.23256044695153832,0.0,0,8,3,2,1,4,nan,nan,nan,nan,nan,nan,nan,nan,nan,nan,nan,nan,0.0,nan,nan,nan,nan,nan,nan,nan,nan,nan,nan,nan,nan,nan,nan,nan,nan,nan,nan,194.591774915345,675.2520792782307,nan,675.4846397251822,nan,nan,nan,nan
1,344,0,0,1.0,0.0,0.2484237737953663,1.0,3,1,5,8,6,2,1.0,1.0,1.0,1.0,1.0,1.0,0.0,0.0,0.0,0.0,0.0,0.0,0.0,5.0,0.0,3.0,6.0,4.0,1.0,4.0,5.0,6.0,2.0,1.0,3.0,4.284311978612095,5.41909495042637,6.531227593310177,2.1421318985521793,1.5813198643736541,3.6918288841843605,194.591774915345,676.2521927468479,677.0606103283353,676.5006165206432,684.6448772330768,685.6422161445953,678.0774010736495,684.6365432986058
1,345,1,1,1.0,1.0,0.4633746789768338,0.0,6,4,3,2,8,1,nan,nan,nan,nan,nan,nan,nan,nan,nan,nan,nan,nan,0.0,nan,nan,nan,nan,nan,nan,nan,nan,nan,nan,nan,nan,nan,nan,nan,nan,nan,nan,194.591774915345,685.8450450408272,nan,686.3084197198041,nan,nan,nan,nan
1,346,1,1,1.0,1.0,0.31119228107854724,0.0,2,6,4,0,3,7,nan,nan,nan,nan,nan,nan,nan,nan,nan,nan,nan,nan,0.0,nan,nan,nan,nan,nan,nan,nan,nan,nan,nan,nan,nan,nan,nan,nan,nan,nan,nan,194.591774915345,686.8452135329135,nan,687.156405813992,nan,nan,nan,nan
1,347,0,0,0.0,1.0,0.48705135472118855,0.0,3,2,1,7,8,4,nan,nan,nan,nan,nan,nan,nan,nan,nan,nan,nan,nan,0.0,nan,nan,nan,nan,nan,nan,nan,nan,nan,nan,nan,nan,nan,nan,nan,nan,nan,nan,194.591774915345,687.8453021976165,nan,688.3323535523377,nan,nan,nan,nan
1,348,1,1,1.0,1.0,0.4708952335640788,0.0,5,6,2,4,3,1,nan,nan,nan,nan,nan,nan,nan,nan,nan,nan,nan,nan,0.0,nan,nan,nan,nan,nan,nan,nan,nan,nan,nan,nan,nan,nan,nan,nan,nan,nan,nan,194.591774915345,688.845431631431,nan,689.3163268649951,nan,nan,nan,nan
1,349,1,1,1.0,1.0,0.36673644883558154,0.0,8,1,3,7,0,5,nan,nan,nan,nan,nan,nan,nan,nan,nan,nan,nan,nan,0.0,nan,nan,nan,nan,nan,nan,nan,nan,nan,nan,nan,nan,nan,nan,nan,nan,nan,nan,194.591774915345,689.8455639160238,nan,690.2123003648594,nan,nan,nan,nan
1,350,1,1,1.0,1.0,0.3262792914174497,0.0,7,0,2,4,5,1,nan,nan,nan,nan,nan,nan,nan,nan,nan,nan,nan,nan,0.0,nan,nan,nan,nan,nan,nan,nan,nan,nan,nan,nan,nan,nan,nan,nan,nan,nan,nan,194.591774915345,690.8540078974329,nan,691.1802871888503,nan,nan,nan,nan
1,351,1,1,1.0,1.0,0.30981526616960764,0.0,6,1,0,5,3,8,nan,nan,nan,nan,nan,nan,nan,nan,nan,nan,nan,nan,0.0,nan,nan,nan,nan,nan,nan,nan,nan,nan,nan,nan,nan,nan,nan,nan,nan,nan,nan,194.591774915345,691.8624481731094,nan,692.172263439279,nan,nan,nan,nan
1,352,1,1,1.0,1.0,0.2533308509737253,0.0,2,8,1,3,7,4,nan,nan,nan,nan,nan,nan,nan,nan,nan,nan,nan,nan,0.0,nan,nan,nan,nan,nan,nan,nan,nan,nan,nan,nan,nan,nan,nan,nan,nan,nan,nan,194.591774915345,692.8709064093418,nan,693.1242372603156,nan,nan,nan,nan
1,353,1,1,1.0,1.0,0.23716703243553638,0.0,8,6,4,7,0,1,nan,nan,nan,nan,nan,nan,nan,nan,nan,nan,nan,nan,0.0,nan,nan,nan,nan,nan,nan,nan,nan,nan,nan,nan,nan,nan,nan,nan,nan,nan,nan,194.591774915345,693.8710595062003,nan,694.1082265386358,nan,nan,nan,nan
1,354,1,1,1.0,1.0,0.2690162779763341,0.0,6,8,7,5,2,3,nan,nan,nan,nan,nan,nan,nan,nan,nan,nan,nan,nan,0.0,nan,nan,nan,nan,nan,nan,nan,nan,nan,nan,nan,nan,nan,nan,nan,nan,nan,nan,194.591774915345,694.871181242168,nan,695.1401975201443,nan,nan,nan,nan
1,355,1,1,1.0,1.0,0.28487589908763766,0.0,2,3,1,7,0,4,nan,nan,nan,nan,nan,nan,nan,nan,nan,nan,nan,nan,0.0,nan,nan,nan,nan,nan,nan,nan,nan,nan,nan,nan,nan,nan,nan,nan,nan,nan,nan,194.591774915345,695.8712972761132,nan,696.1561731752008,nan,nan,nan,nan
1,356,1,1,1.0,1.0,0.4127247594296932,0.0,3,1,0,8,4,5,nan,nan,nan,nan,nan,nan,nan,nan,nan,nan,nan,nan,0.0,nan,nan,nan,nan,nan,nan,nan,nan,nan,nan,nan,nan,nan,nan,nan,nan,nan,nan,194.591774915345,696.8714207229204,nan,697.2841454823501,nan,nan,nan,nan
1,357,0,0,0.0,1.0,0.46856200555339456,0.0,1,8,2,7,3,4,nan,nan,nan,nan,nan,nan,nan,nan,nan,nan,nan,nan,0.0,nan,nan,nan,nan,nan,nan,nan,nan,nan,nan,nan,nan,nan,nan,nan,nan,nan,nan,194.591774915345,697.871548446361,nan,698.3401104519144,nan,nan,nan,nan
1,358,1,1,1.0,1.0,0.5084475451149046,0.0,3,0,6,4,2,1,nan,nan,nan,nan,nan,nan,nan,nan,nan,nan,nan,nan,0.0,nan,nan,nan,nan,nan,nan,nan,nan,nan,nan,nan,nan,nan,nan,nan,nan,nan,nan,194.591774915345,698.871653076727,nan,699.3801006218418,nan,nan,nan,nan
1,359,1,1,1.0,1.0,0.46823414461687207,0.0,2,6,1,5,8,3,nan,nan,nan,nan,nan,nan,nan,nan,nan,nan,nan,nan,0.0,nan,nan,nan,nan,nan,nan,nan,nan,nan,nan,nan,nan,nan,nan,nan,nan,nan,nan,194.591774915345,699.8718292661943,nan,700.3400634108111,nan,nan,nan,nan
1,360,1,1,1.0,1.0,0.3401292683556676,0.0,7,3,5,4,0,6,nan,nan,nan,nan,nan,nan,nan,nan,nan,nan,nan,nan,0.0,nan,nan,nan,nan,nan,nan,nan,nan,nan,nan,nan,nan,nan,nan,nan,nan,nan,nan,194.591774915345,700.8719276241027,nan,701.2120568924583,nan,nan,nan,nan
1,361,1,1,1.0,1.0,0.3396534430794418,0.0,0,2,3,5,6,8,nan,nan,nan,nan,nan,nan,nan,nan,nan,nan,nan,nan,0.0,nan,nan,nan,nan,nan,nan,nan,nan,nan,nan,nan,nan,nan,nan,nan,nan,nan,nan,194.591774915345,701.8803690397181,nan,702.2200224827975,nan,nan,nan,nan
1,362,0,0,0.0,1.0,0.4274933165870607,1.0,6,7,0,3,4,2,1.0,1.0,1.0,1.0,1.0,1.0,1.0,1.0,1.0,0.0,0.0,1.0,4.0,6.0,7.0,0.0,4.0,5.0,2.0,3.0,2.0,1.0,4.0,5.0,6.0,3.192127522546798,2.3439544052816927,1.527019857428968,4.231739654671401,4.990586976520717,5.902172348462045,194.591774915345,702.8805132987909,703.6889023706317,703.308006615378,710.64809055347,711.6468187388964,704.7056993879378,710.6397571889684
1,363,1,1,1.0,1.0,0.29954951955005527,0.0,3,8,1,0,5,7,nan,nan,nan,nan,nan,nan,nan,nan,nan,nan,nan,nan,0.0,nan,nan,nan,nan,nan,nan,nan,nan,nan,nan,nan,nan,nan,nan,nan,nan,nan,nan,194.591774915345,711.8482720456086,nan,712.1478215651587,nan,nan,nan,nan
1,364,1,1,1.0,1.0,0.3470536866225302,0.0,4,1,3,6,2,8,nan,nan,nan,nan,nan,nan,nan,nan,nan,nan,nan,nan,0.0,nan,nan,nan,nan,nan,nan,nan,nan,nan,nan,nan,nan,nan,nan,nan,nan,nan,nan,194.591774915345,712.8567128912546,nan,713.2037665778771,nan,nan,nan,nan
1,365,1,1,1.0,1.0,0.23489139415323734,0.0,8,0,6,3,7,5,nan,nan,nan,nan,nan,nan,nan,nan,nan,nan,nan,nan,0.0,nan,nan,nan,nan,nan,nan,nan,nan,nan,nan,nan,nan,nan,nan,nan,nan,nan,nan,194.591774915345,713.856856294442,nan,714.0917476885952,nan,nan,nan,nan
1,366,1,1,1.0,1.0,0.22677584318444133,0.0,5,8,2,0,6,1,nan,nan,nan,nan,nan,nan,nan,nan,nan,nan,nan,nan,0.0,nan,nan,nan,nan,nan,nan,nan,nan,nan,nan,nan,nan,nan,nan,nan,nan,nan,nan,194.591774915345,714.8569478103891,nan,715.0837236535735,nan,nan,nan,nan
1,367,1,1,1.0,1.0,0.250288303475827,0.0,0,1,8,7,5,6,nan,nan,nan,nan,nan,nan,nan,nan,nan,nan,nan,nan,0.0,nan,nan,nan,nan,nan,nan,nan,nan,nan,nan,nan,nan,nan,nan,nan,nan,nan,nan,194.591774915345,715.8654174506664,nan,716.1157057541423,nan,nan,nan,nan
1,368,1,1,1.0,1.0,0.25012465845793486,0.0,8,7,3,1,4,5,nan,nan,nan,nan,nan,nan,nan,nan,nan,nan,nan,nan,0.0,nan,nan,nan,nan,nan,nan,nan,nan,nan,nan,nan,nan,nan,nan,nan,nan,nan,nan,194.591774915345,716.8655599988997,nan,717.1156846573576,nan,nan,nan,nan
1,369,0,0,nan,nan,nan,0.0,6,5,2,8,1,0,nan,nan,nan,nan,nan,nan,nan,nan,nan,nan,nan,nan,0.0,nan,nan,nan,nan,nan,nan,nan,nan,nan,nan,nan,nan,nan,nan,nan,nan,nan,nan,194.591774915345,717.8740028399043,nan,nan,nan,nan,nan,nan
1,370,1,1,1.0,1.0,0.617150479927659,0.0,8,4,1,2,7,3,nan,nan,nan,nan,nan,nan,nan,nan,nan,nan,nan,nan,0.0,nan,nan,nan,nan,nan,nan,nan,nan,nan,nan,nan,nan,nan,nan,nan,nan,nan,nan,194.591774915345,718.8824542341754,nan,719.499604714103,nan,nan,nan,nan
1,371,1,1,1.0,1.0,0.576710713095963,0.0,2,1,5,3,4,8,nan,nan,nan,nan,nan,nan,nan,nan,nan,nan,nan,nan,0.0,nan,nan,nan,nan,nan,nan,nan,nan,nan,nan,nan,nan,nan,nan,nan,nan,nan,nan,194.591774915345,719.8908967901953,nan,720.4676075032912,nan,nan,nan,nan
1,372,1,1,1.0,1.0,0.40821225522086024,0.0,3,0,8,7,2,5,nan,nan,nan,nan,nan,nan,nan,nan,nan,nan,nan,nan,0.0,nan,nan,nan,nan,nan,nan,nan,nan,nan,nan,nan,nan,nan,nan,nan,nan,nan,nan,194.591774915345,720.899390663486,nan,721.3076029187068,nan,nan,nan,nan
1,373,1,1,1.0,1.0,0.2560304277576506,0.0,0,4,7,8,1,6,nan,nan,nan,nan,nan,nan,nan,nan,nan,nan,nan,nan,0.0,nan,nan,nan,nan,nan,nan,nan,nan,nan,nan,nan,nan,nan,nan,nan,nan,nan,nan,194.591774915345,721.8995295055211,nan,722.1555599332787,nan,nan,nan,nan
1,374,1,1,1.0,1.0,0.23990538250654936,0.0,7,2,4,5,0,1,nan,nan,nan,nan,nan,nan,nan,nan,nan,nan,nan,nan,0.0,nan,nan,nan,nan,nan,nan,nan,nan,nan,nan,nan,nan,nan,nan,nan,nan,nan,nan,194.591774915345,722.8996441140771,nan,723.1395494965836,nan,nan,nan,nan
1,375,1,1,1.0,1.0,0.26375283068045974,0.0,3,7,8,1,5,4,nan,nan,nan,nan,nan,nan,nan,nan,nan,nan,nan,nan,0.0,nan,nan,nan,nan,nan,nan,nan,nan,nan,nan,nan,nan,nan,nan,nan,nan,nan,nan,194.591774915345,723.8997607184574,nan,724.1635135491379,nan,nan,nan,nan
1,376,1,1,1.0,1.0,0.335605361033231,0.0,5,3,6,8,2,1,nan,nan,nan,nan,nan,nan,nan,nan,nan,nan,nan,nan,0.0,nan,nan,nan,nan,nan,nan,nan,nan,nan,nan,nan,nan,nan,nan,nan,nan,nan,nan,194.591774915345,724.8998941434547,nan,725.235499504488,nan,nan,nan,nan
1,377,1,1,1.0,1.0,0.19945791782811284,0.0,7,8,0,4,3,2,nan,nan,nan,nan,nan,nan,nan,nan,nan,nan,nan,nan,0.0,nan,nan,nan,nan,nan,nan,nan,nan,nan,nan,nan,nan,nan,nan,nan,nan,nan,nan,194.591774915345,725.9000218668953,nan,726.0994797847234,nan,nan,nan,nan
1,378,1,1,1.0,1.0,0.24730790732428432,0.0,6,0,7,1,4,3,nan,nan,nan,nan,nan,nan,nan,nan,nan,nan,nan,nan,0.0,nan,nan,nan,nan,nan,nan,nan,nan,nan,nan,nan,nan,nan,nan,nan,nan,nan,nan,194.591774915345,726.9001353350468,nan,727.1474432423711,nan,nan,nan,nan
1,379,1,1,1.0,1.0,0.29484400525689125,0.0,2,4,3,6,7,0,nan,nan,nan,nan,nan,nan,nan,nan,nan,nan,nan,nan,0.0,nan,nan,nan,nan,nan,nan,nan,nan,nan,nan,nan,nan,nan,nan,nan,nan,nan,nan,194.591774915345,727.9085833081044,nan,728.2034273133613,nan,nan,nan,nan
1,380,1,1,1.0,1.0,0.29467665404081345,0.0,8,3,2,1,4,5,nan,nan,nan,nan,nan,nan,nan,nan,nan,nan,nan,nan,0.0,nan,nan,nan,nan,nan,nan,nan,nan,nan,nan,nan,nan,nan,nan,nan,nan,nan,nan,194.591774915345,728.9087278516963,nan,729.2034045057371,nan,nan,nan,nan
1,381,1,1,1.0,1.0,0.27054268354550004,0.0,6,2,4,7,0,3,nan,nan,nan,nan,nan,nan,nan,nan,nan,nan,nan,nan,0.0,nan,nan,nan,nan,nan,nan,nan,nan,nan,nan,nan,nan,nan,nan,nan,nan,nan,nan,194.591774915345,729.9088467368856,nan,730.1793894204311,nan,nan,nan,nan
1,382,1,1,1.0,1.0,0.25406782468780875,0.0,1,4,2,0,8,7,nan,nan,nan,nan,nan,nan,nan,nan,nan,nan,nan,nan,0.0,nan,nan,nan,nan,nan,nan,nan,nan,nan,nan,nan,nan,nan,nan,nan,nan,nan,nan,194.591774915345,730.9172813105397,nan,731.1713491352275,nan,nan,nan,nan
1,383,1,1,1.0,1.0,0.2539138733409345,0.0,2,1,3,8,0,5,nan,nan,nan,nan,nan,nan,nan,nan,nan,nan,nan,nan,0.0,nan,nan,nan,nan,nan,nan,nan,nan,nan,nan,nan,nan,nan,nan,nan,nan,nan,nan,194.591774915345,731.9174249987118,nan,732.1713388720527,nan,nan,nan,nan
1,384,0,0,1.0,0.0,0.18977690394967794,0.0,8,2,0,1,7,3,nan,nan,nan,nan,nan,nan,nan,nan,nan,nan,nan,nan,0.0,nan,nan,nan,nan,nan,nan,nan,nan,nan,nan,nan,nan,nan,nan,nan,nan,nan,nan,194.591774915345,732.9175367564894,nan,733.1073136604391,nan,nan,nan,nan
