block,trial,freq_trials,correct_response,actual_response,acc,rts,probe_trials,fast_rt_trigger,slow_rt_trigger,rt_triggered,rts_runningavg,rts_runningstd,rts_runningfastthresh,rts_runningslowthresh,rts_runningstd,rts_trailingavg,trials_colorind,trials_colorrgb0,trials_colorrgb1,trials_colorrgb2,wm_respdeg,wm_respdeg_in_colorspace,wm_respcolorminusorigcolor,wm_resptexind,wm_resptexrgb0,wm_resptexrgb1,wm_resptexrgb2,wm_rts,time_blockstart,time_encarray_offset,time_encarray_onset,time_response,time_iti_offset,time_iti_onset,time_memprobe_offset,time_memprobe_onset
1,1,1,1,1.0,1.0,0.382668325678,0,nan,nan,nan,nan,nan,nan,nan,nan,nan,259,0.44882283482,0.268906983076,0.655011783756,nan,nan,nan,nan,0.0,0.0,0.0,nan,200.45984095,201.477160878,201.977207635,201.859829204,nan,nan,nan,nan
1,2,0,0,0.0,1.0,0.438463520957,0,nan,nan,nan,nan,nan,nan,nan,nan,nan,99,1.0,-0.267176270739,-0.468793303331,nan,nan,nan,nan,0.0,0.0,0.0,nan,200.45984095,202.477344481,202.977345906,202.915808002,nan,nan,nan,nan
1,3,1,1,1.0,1.0,0.310023896862,0,nan,nan,nan,nan,nan,nan,nan,nan,nan,259,0.44882283482,0.268906983076,0.655011783756,nan,nan,nan,nan,0.0,0.0,0.0,nan,200.45984095,203.485740303,203.985805875,203.7957642,nan,nan,nan,nan
1,4,1,1,1.0,1.0,0.324524215888,0,nan,nan,nan,nan,nan,nan,nan,nan,nan,483,0.606025706087,0.319314454546,-1.0,nan,nan,nan,nan,0.0,0.0,0.0,nan,200.45984095,204.519218675,205.019238346,204.843742891,nan,nan,nan,nan
1,5,1,1,1.0,1.0,0.300382486079,0,nan,nan,nan,nan,nan,nan,nan,nan,nan,120,1.0,-0.310161497659,-0.240162905937,nan,nan,nan,nan,0.0,0.0,0.0,nan,200.45984095,205.519355236,206.019370061,205.819737722,nan,nan,nan,nan
1,6,1,1,1.0,1.0,0.267924476648,0,nan,nan,nan,nan,nan,nan,nan,nan,nan,385,-0.0879796604702,0.477733444059,-0.233926720364,nan,nan,nan,nan,0.0,0.0,0.0,nan,200.45984095,206.527811784,207.027853408,206.79573626,nan,nan,nan,nan
1,7,1,1,1.0,1.0,0.243786738254,0,nan,nan,nan,nan,nan,nan,nan,nan,nan,15,0.965734432428,0.145352784795,-1.0,nan,nan,nan,nan,0.0,0.0,0.0,nan,200.45984095,207.52791898,208.027985978,207.771705718,nan,nan,nan,nan
1,8,1,1,1.0,1.0,0.211316754576,0,nan,nan,nan,nan,nan,nan,nan,nan,nan,367,-0.15309091083,0.477560897992,-0.0350816338538,nan,nan,nan,nan,0.0,0.0,0.0,nan,200.45984095,208.536401757,209.036431692,208.747718511,nan,nan,nan,nan
1,9,1,1,1.0,1.0,0.25884613255,0,nan,nan,nan,nan,nan,nan,nan,nan,nan,53,1.0,-0.049257555853,-1.0,nan,nan,nan,nan,0.0,0.0,0.0,nan,200.45984095,209.544848896,210.044909336,209.803695028,nan,nan,nan,nan
1,10,0,0,1.0,0.0,0.210682698991,0,0.0,0.0,0.0,nan,nan,nan,nan,nan,nan,419,0.107894673663,0.454841969249,-0.678098861371,nan,nan,nan,nan,0.0,0.0,0.0,nan,200.45984095,210.544977474,211.045045898,210.755660173,nan,nan,nan,nan
1,11,1,1,1.0,1.0,0.33024069597,0,nan,nan,nan,nan,nan,nan,nan,nan,nan,85,1.0,-0.212156452387,-0.638781227021,nan,nan,nan,nan,0.0,0.0,0.0,nan,200.45984095,211.553405512,212.053463957,211.883646208,nan,nan,nan,nan
1,12,0,0,0.0,1.0,0.426009628456,0,nan,nan,nan,nan,nan,nan,nan,nan,nan,398,-0.0220377755791,0.472608796233,-0.387943383198,nan,nan,nan,nan,0.0,0.0,0.0,nan,200.45984095,212.553598523,213.053629599,212.979608151,nan,nan,nan,nan
1,13,1,1,1.0,1.0,0.305554716149,0,nan,nan,nan,nan,nan,nan,nan,nan,nan,470,0.497741612616,0.357740777197,-1.0,nan,nan,nan,nan,0.0,0.0,0.0,nan,200.45984095,213.562016297,214.062075597,213.867571014,nan,nan,nan,nan
1,14,1,1,1.0,1.0,0.353441035375,0,nan,nan,nan,nan,nan,nan,nan,nan,nan,425,0.149162615564,0.447529597292,-0.791715667876,nan,nan,nan,nan,0.0,0.0,0.0,nan,200.45984095,214.562135753,215.062179088,214.915576788,nan,nan,nan,nan
1,15,1,1,1.0,1.0,0.488938520895,0,nan,nan,nan,nan,nan,nan,nan,nan,nan,21,1.0,0.116713997928,-1.0,nan,nan,nan,nan,0.0,0.0,0.0,nan,200.45984095,215.570607411,216.078954766,216.059545932,nan,nan,nan,nan
1,16,1,1,1.0,1.0,0.504466614919,0,nan,nan,nan,nan,nan,nan,nan,nan,nan,407,0.0305886347219,0.46645515455,-0.502577406972,nan,nan,nan,nan,0.0,0.0,0.0,nan,200.45984095,216.579047708,217.079144641,217.083514323,nan,nan,nan,nan
1,17,1,1,1.0,1.0,0.328008956509,0,nan,nan,nan,nan,nan,nan,nan,nan,nan,209,0.967301840512,0.0304835193525,0.52804999659,nan,nan,nan,nan,0.0,0.0,0.0,nan,200.45984095,217.587503685,218.087562415,217.915512641,nan,nan,nan,nan
1,18,1,1,1.0,1.0,0.271510711871,0,nan,nan,nan,nan,nan,nan,nan,nan,nan,368,-0.150457169737,0.477793263397,-0.0457341785459,nan,nan,nan,nan,0.0,0.0,0.0,nan,200.45984095,218.595975913,219.096047757,218.867486625,nan,nan,nan,nan
1,19,1,1,1.0,1.0,0.31138010323,0,nan,nan,nan,nan,nan,nan,nan,nan,nan,483,0.606025706087,0.319314454546,-1.0,nan,nan,nan,nan,0.0,0.0,0.0,nan,200.45984095,219.596121597,220.096176051,219.907501701,nan,nan,nan,nan
1,20,1,1,1.0,1.0,0.438896583393,0,nan,nan,nan,nan,nan,nan,nan,nan,nan,131,1.0,-0.308451667147,-0.125800503078,nan,nan,nan,nan,0.0,0.0,0.0,nan,200.45984095,220.604554767,221.104605514,221.04345135,nan,nan,nan,nan
1,21,0,0,0.0,1.0,0.470708563225,0,nan,nan,nan,nan,nan,nan,nan,nan,nan,76,1.0,-0.169674511773,-0.773365826749,nan,nan,nan,nan,0.0,0.0,0.0,nan,200.45984095,221.604732667,222.104762318,222.075441231,nan,nan,nan,nan
1,22,1,1,1.0,1.0,0.374244278995,0,nan,nan,nan,nan,nan,nan,nan,nan,nan,327,-0.128086156831,0.445480682368,0.344176439252,nan,nan,nan,nan,0.0,0.0,0.0,nan,200.45984095,222.61318893,223.113223997,222.987433209,nan,nan,nan,nan
1,23,1,1,1.0,1.0,0.357785628643,0,nan,nan,nan,nan,nan,nan,nan,nan,nan,474,0.530901762182,0.346545376391,-1.0,nan,nan,nan,nan,0.0,0.0,0.0,nan,200.45984095,223.621632933,224.121669711,223.979418562,nan,nan,nan,nan
1,24,1,1,1.0,1.0,0.333300357219,0,nan,nan,nan,nan,nan,nan,nan,nan,nan,188,1.0,-0.0857393506835,0.392804289229,nan,nan,nan,nan,0.0,0.0,0.0,nan,200.45984095,224.630079217,225.130117135,224.963379574,nan,nan,nan,nan
1,25,1,1,1.0,1.0,0.276808954775,0,nan,nan,nan,nan,nan,nan,nan,nan,nan,402,0.000724920831492,0.470139955471,-0.437811562499,nan,nan,nan,nan,0.0,0.0,0.0,nan,200.45984095,225.638542322,226.13861046,225.915351277,nan,nan,nan,nan
1,26,1,1,1.0,1.0,0.332293394487,1,nan,nan,nan,nan,nan,nan,nan,nan,nan,104,1.0,-0.282351481576,-0.412644567278,16.3268535106,73.6731464894,0.548146489435,105.0,1.0,-0.285049837405,-0.401580786678,2.88400628581,200.45984095,226.647021107,227.147062731,226.979314501,231.372554794,232.371801853,228.47219905,231.364221409
1,27,1,1,1.0,1.0,0.414129065583,0,nan,nan,nan,nan,nan,nan,nan,nan,nan,243,0.622151010882,0.20168048164,0.647463484622,nan,nan,nan,nan,0.0,0.0,0.0,nan,200.45984095,232.581065624,233.081107819,232.99519469,nan,nan,nan,nan
1,28,1,1,1.0,1.0,0.325966236414,0,nan,nan,nan,nan,nan,nan,nan,nan,nan,510,0.830554458933,0.220436700166,-1.0,nan,nan,nan,nan,0.0,0.0,0.0,nan,200.45984095,233.581221572,234.081239819,233.907187809,nan,nan,nan,nan
1,29,0,0,0.0,1.0,0.429793150863,0,nan,nan,nan,nan,nan,nan,nan,nan,nan,406,0.0244967455079,0.467245700284,-0.489366101921,nan,nan,nan,nan,0.0,0.0,0.0,nan,200.45984095,234.581380941,235.081404035,235.011174092,nan,nan,nan,nan
1,30,1,1,1.0,1.0,0.357355987653,0,nan,nan,nan,nan,nan,nan,nan,nan,nan,264,0.394966959701,0.287889713878,0.650717615019,nan,nan,nan,nan,0.0,0.0,0.0,nan,200.45984095,235.589791303,236.089867139,235.947147291,nan,nan,nan,nan
1,31,1,1,1.0,1.0,0.418176302919,0,nan,nan,nan,nan,nan,nan,nan,nan,nan,479,0.572572153349,0.331768222426,-1.0,nan,nan,nan,nan,0.0,0.0,0.0,nan,200.45984095,236.664945156,237.164979083,237.083121459,nan,nan,nan,nan
1,32,1,1,1.0,1.0,0.441700227326,0,nan,nan,nan,nan,nan,nan,nan,nan,nan,50,1.0,-0.033148730948,-1.0,nan,nan,nan,nan,0.0,0.0,0.0,nan,200.45984095,237.673379751,238.173426792,238.115079978,nan,nan,nan,nan
1,33,0,0,0.0,1.0,0.481545670656,0,nan,nan,nan,nan,nan,nan,nan,nan,nan,195,1.0,-0.0469245268387,0.442396054288,nan,nan,nan,nan,0.0,0.0,0.0,nan,200.45984095,238.673563638,239.173575613,239.155109309,nan,nan,nan,nan
1,34,1,1,1.0,1.0,0.433078323491,0,nan,nan,nan,nan,nan,nan,nan,nan,nan,429,0.177531820842,0.442080780324,-0.901885199234,nan,nan,nan,nan,0.0,0.0,0.0,nan,200.45984095,239.681991676,240.182015339,240.11507,nan,nan,nan,nan
1,35,1,1,1.0,1.0,0.504592342535,0,nan,nan,nan,nan,nan,nan,nan,nan,nan,247,0.578947625354,0.219392674348,0.6523805853,nan,nan,nan,nan,0.0,0.0,0.0,nan,200.45984095,240.690429693,241.190521779,241.195022035,nan,nan,nan,nan
1,36,1,1,1.0,1.0,0.344138034852,0,nan,nan,nan,nan,nan,nan,nan,nan,nan,478,0.56422249903,0.334793662244,-1.0,nan,nan,nan,nan,0.0,0.0,0.0,nan,200.45984095,241.698879113,242.198943259,242.043017148,nan,nan,nan,nan
1,37,1,1,nan,nan,nan,0,nan,nan,nan,nan,nan,nan,nan,nan,nan,413,0.0683106243366,0.461143133648,-0.585495598612,nan,nan,nan,nan,0.0,0.0,0.0,nan,200.45984095,242.707351911,243.207430027,nan,nan,nan,nan,nan
1,38,1,1,1.0,1.0,0.167164351093,0,nan,nan,nan,nan,nan,nan,nan,nan,nan,246,0.589768841079,0.215019897151,0.651339528662,nan,nan,nan,nan,0.0,0.0,0.0,nan,200.45984095,243.715814445,244.215852078,243.882978796,nan,nan,nan,nan
1,39,1,1,1.0,1.0,0.366975730751,0,nan,nan,nan,nan,nan,nan,nan,nan,nan,487,0.639529740128,0.306295026098,-1.0,nan,nan,nan,nan,0.0,0.0,0.0,nan,200.45984095,244.715971819,245.215979801,245.08294755,nan,nan,nan,nan
1,40,1,1,1.0,1.0,0.350510523189,1,nan,nan,nan,nan,nan,nan,nan,nan,nan,331,-0.143297839787,0.450801753776,0.311166711333,-139.830419958,229.830419958,-2.90395504171,327.0,-0.128086156831,0.445480682368,0.344176439252,1.50049521332,200.45984095,245.724402423,246.224451459,246.074912946,249.066463811,250.066484623,247.549611156,249.058134702
1,41,1,1,1.0,1.0,0.503847099142,0,nan,nan,nan,nan,nan,nan,nan,nan,nan,411,0.0555201669072,0.463022710015,-0.557054760163,nan,nan,nan,nan,0.0,0.0,0.0,nan,200.45984095,250.2749735,250.775060455,250.778820599,nan,nan,nan,nan
1,42,1,1,1.0,1.0,0.343377111014,0,nan,nan,nan,nan,nan,nan,nan,nan,nan,150,1.0,-0.266152531622,0.0638227105866,nan,nan,nan,nan,0.0,0.0,0.0,nan,200.45984095,251.283434894,251.783477089,251.626812005,nan,nan,nan,nan
1,43,1,1,1.0,1.0,0.318904383574,0,nan,nan,nan,nan,nan,nan,nan,nan,nan,104,1.0,-0.282351481576,-0.412644567278,nan,nan,nan,nan,0.0,0.0,0.0,nan,200.45984095,252.291888591,252.791949317,252.610792974,nan,nan,nan,nan
1,44,1,1,1.0,1.0,0.35839374084,0,nan,nan,nan,nan,nan,nan,nan,nan,nan,192,1.0,-0.0635997558896,0.421658406928,nan,nan,nan,nan,0.0,0.0,0.0,nan,200.45984095,253.300375929,253.800399022,253.65876967,nan,nan,nan,nan
1,45,1,1,1.0,1.0,0.350259637926,0,nan,nan,nan,nan,nan,nan,nan,nan,nan,407,0.0305886347219,0.46645515455,-0.502577406972,nan,nan,nan,nan,0.0,0.0,0.0,nan,200.45984095,254.3004951,254.800536153,254.650754737,nan,nan,nan,nan
1,46,1,1,1.0,1.0,0.301766061923,1,nan,nan,nan,nan,nan,nan,nan,nan,nan,331,-0.143297839787,0.450801753776,0.311166711333,-145.702847596,235.702847596,2.96847259616,335.0,-0.155595990888,0.455627721073,0.276893227044,1.38379702461,200.45984095,255.308953928,255.808987854,255.61071999,258.534334518,259.533829326,257.134178912,258.526002843
1,47,1,1,1.0,1.0,0.524137168191,0,nan,nan,nan,nan,nan,nan,nan,nan,nan,110,1.0,-0.296722754836,-0.346921960777,nan,nan,nan,nan,0.0,0.0,0.0,nan,200.45984095,259.73450398,260.234586658,260.258641148,nan,nan,nan,nan
1,48,0,0,0.0,1.0,0.435951246182,0,nan,nan,nan,nan,nan,nan,nan,nan,nan,45,1.0,-0.0063957592436,-1.0,nan,nan,nan,nan,0.0,0.0,0.0,nan,200.45984095,260.734671332,261.234696705,261.170622578,nan,nan,nan,nan
1,49,1,1,1.0,1.0,0.395815574098,0,nan,nan,nan,nan,nan,nan,nan,nan,nan,244,0.611372359265,0.206163547436,0.648880721676,nan,nan,nan,nan,0.0,0.0,0.0,nan,200.45984095,261.734781379,262.234794494,262.130596953,nan,nan,nan,nan
1,50,1,1,1.0,1.0,0.379654565128,0,nan,nan,nan,nan,nan,nan,nan,nan,nan,403,0.00657627305109,0.469456436931,-0.450524507496,nan,nan,nan,nan,0.0,0.0,0.0,nan,200.45984095,262.734919651,263.234924213,263.114574216,nan,nan,nan,nan
1,51,1,1,1.0,1.0,0.387537497329,0,nan,nan,nan,nan,nan,nan,nan,nan,nan,473,0.522594813828,0.349396171415,-1.0,nan,nan,nan,nan,0.0,0.0,0.0,nan,200.45984095,263.735023141,264.235049085,264.122560639,nan,nan,nan,nan
1,52,1,1,1.0,1.0,0.291394802975,0,nan,nan,nan,nan,nan,nan,nan,nan,nan,75,1.0,-0.164714458691,-0.791355921409,nan,nan,nan,nan,0.0,0.0,0.0,nan,200.45984095,264.735150295,265.2351808,265.026545098,nan,nan,nan,nan
1,53,1,1,1.0,1.0,0.26354196528,0,nan,nan,nan,nan,nan,nan,nan,nan,nan,193,1.0,-0.0580453890011,0.428658791268,nan,nan,nan,nan,0.0,0.0,0.0,nan,200.45984095,265.771046859,266.276977732,266.034588824,nan,nan,nan,nan
1,54,1,1,1.0,1.0,0.265408495441,0,nan,nan,nan,nan,nan,nan,nan,nan,nan,423,0.135229581944,0.450080889006,-0.750039916123,nan,nan,nan,nan,0.0,0.0,0.0,nan,200.45984095,266.777084074,267.277102035,267.042492569,nan,nan,nan,nan
1,55,1,1,1.0,1.0,0.272906261729,0,nan,nan,nan,nan,nan,nan,nan,nan,nan,26,1.0,0.0920921692153,-1.0,nan,nan,nan,nan,0.0,0.0,0.0,nan,200.45984095,267.785528932,268.285572837,268.058435194,nan,nan,nan,nan
1,56,1,1,1.0,1.0,0.376813288312,0,nan,nan,nan,nan,nan,nan,nan,nan,nan,425,0.149162615564,0.447529597292,-0.791715667876,nan,nan,nan,nan,0.0,0.0,0.0,nan,200.45984095,268.785653804,269.285707973,269.162467093,nan,nan,nan,nan
1,57,1,1,1.0,1.0,0.302971167024,0,nan,nan,nan,nan,nan,nan,nan,nan,nan,371,-0.14179360683,0.478331938097,-0.0779732583494,nan,nan,nan,nan,0.0,0.0,0.0,nan,200.45984095,269.827470694,270.327486374,270.130441861,nan,nan,nan,nan
1,58,1,1,1.0,1.0,0.286509095458,1,nan,nan,nan,nan,nan,nan,nan,nan,nan,208,0.97651257568,0.025020743352,0.522574479073,-50.4118691523,140.411869152,-5.83813084768,200.0,1.0,-0.0191209939188,0.47515178387,1.23379009683,200.45984095,270.835915837,271.335958887,271.122424933,273.911271538,274.911360204,272.66112058,273.902946421
1,59,1,1,1.0,1.0,0.426508262986,0,nan,nan,nan,nan,nan,nan,nan,nan,nan,16,0.973419431522,0.140652110383,-1.0,nan,nan,nan,nan,0.0,0.0,0.0,nan,200.45984095,275.11980318,275.619821712,275.546311443,nan,nan,nan,nan
1,60,1,1,1.0,1.0,0.322363750776,0,nan,nan,nan,nan,nan,nan,nan,nan,nan,457,0.391639248186,0.390358177281,-1.0,nan,nan,nan,nan,0.0,0.0,0.0,nan,200.45984095,276.119911517,276.619965116,276.442275268,nan,nan,nan,nan
1,61,1,1,1.0,1.0,0.265903708991,0,nan,nan,nan,nan,nan,nan,nan,nan,nan,204,1.0,0.00303256528985,0.499654420455,nan,nan,nan,nan,0.0,0.0,0.0,nan,200.45984095,277.128378328,277.628410544,277.394282037,nan,nan,nan,nan
1,62,1,1,1.0,1.0,0.249739278806,0,nan,nan,nan,nan,nan,nan,nan,nan,nan,146,1.0,-0.278792578557,0.0248813210997,nan,nan,nan,nan,0.0,0.0,0.0,nan,200.45984095,278.128535132,278.62854511,278.37827441,nan,nan,nan,nan
1,63,1,1,1.0,1.0,0.273585648043,0,nan,nan,nan,nan,nan,nan,nan,nan,nan,30,1.0,0.071945658744,-1.0,nan,nan,nan,nan,0.0,0.0,0.0,nan,200.45984095,279.128650881,279.628704479,279.402236529,nan,nan,nan,nan
1,64,1,1,1.0,1.0,0.249457602855,0,nan,nan,nan,nan,nan,nan,nan,nan,nan,229,0.770397026975,0.135265939772,0.614681466938,nan,nan,nan,nan,0.0,0.0,0.0,nan,200.45984095,280.128754371,280.628800842,280.378211974,nan,nan,nan,nan
1,65,1,1,1.0,1.0,0.305324642686,0,nan,nan,nan,nan,nan,nan,nan,nan,nan,152,1.0,-0.259184487343,0.0830625546756,nan,nan,nan,nan,0.0,0.0,0.0,nan,200.45984095,281.128878389,281.628922864,281.434203031,nan,nan,nan,nan
1,66,1,1,1.0,1.0,0.313144283602,0,nan,nan,nan,nan,nan,nan,nan,nan,nan,495,0.706485112283,0.278551693791,-1.0,nan,nan,nan,nan,0.0,0.0,0.0,nan,200.45984095,282.129022648,282.629049732,282.442166931,nan,nan,nan,nan
1,67,1,1,1.0,1.0,0.281003872165,0,nan,nan,nan,nan,nan,nan,nan,nan,nan,82,1.0,-0.198479155091,-0.679872484948,nan,nan,nan,nan,0.0,0.0,0.0,nan,200.45984095,283.129163201,283.629193136,283.410167073,nan,nan,nan,nan
1,68,1,1,1.0,1.0,0.20885978872,0,nan,nan,nan,nan,nan,nan,nan,nan,nan,302,0.027086081288,0.400300843718,0.517770016443,nan,nan,nan,nan,0.0,0.0,0.0,nan,200.45984095,284.129292064,284.629299477,284.338151853,nan,nan,nan,nan
1,69,1,1,1.0,1.0,0.216432250571,0,nan,nan,nan,nan,nan,nan,nan,nan,nan,211,0.948675772315,0.0413606888024,0.538689155053,nan,nan,nan,nan,0.0,0.0,0.0,nan,200.45984095,285.137718391,285.63777313,285.354150642,nan,nan,nan,nan
1,70,1,1,1.0,1.0,0.192268283106,0,nan,nan,nan,nan,nan,nan,nan,nan,nan,484,0.614398947124,0.316112737715,-1.0,nan,nan,nan,nan,0.0,0.0,0.0,nan,200.45984095,286.137854098,286.637897147,286.330122381,nan,nan,nan,nan
1,71,1,1,1.0,1.0,0.215822142782,0,nan,nan,nan,nan,nan,nan,nan,nan,nan,140,1.0,-0.294209249228,-0.0345777392028,nan,nan,nan,nan,0.0,0.0,0.0,nan,200.45984095,287.14631036,287.646349989,287.362132503,nan,nan,nan,nan
1,72,1,1,1.0,1.0,0.215604613768,0,nan,nan,nan,nan,nan,nan,nan,nan,nan,405,0.018463324075,0.468009379796,-0.476293327428,nan,nan,nan,nan,0.0,0.0,0.0,nan,200.45984095,288.146462887,288.646474861,288.362067501,nan,nan,nan,nan
1,73,1,1,1.0,1.0,0.239134525182,0,nan,nan,nan,nan,nan,nan,nan,nan,nan,87,1.0,-0.220959007447,-0.612675615602,nan,nan,nan,nan,0.0,0.0,0.0,nan,200.45984095,289.154894631,289.654944238,289.394029156,nan,nan,nan,nan
1,74,1,1,1.0,1.0,0.25464095152,0,nan,nan,nan,nan,nan,nan,nan,nan,nan,277,0.258470646878,0.33263615818,0.624824240443,nan,nan,nan,nan,0.0,0.0,0.0,nan,200.45984095,290.163358306,290.663392232,290.417999258,nan,nan,nan,nan
1,75,1,1,1.0,1.0,0.262540134368,0,nan,nan,nan,nan,nan,nan,nan,nan,nan,118,1.0,-0.308588151016,-0.261285249573,nan,nan,nan,nan,0.0,0.0,0.0,nan,200.45984095,291.163478902,291.663521382,291.426019036,nan,nan,nan,nan
1,76,1,1,1.0,1.0,0.222037542611,0,nan,nan,nan,nan,nan,nan,nan,nan,nan,245,0.600577697281,0.210610106048,0.650172825369,nan,nan,nan,nan,0.0,0.0,0.0,nan,200.45984095,292.17196567,292.671975648,292.394003212,nan,nan,nan,nan
1,77,1,1,1.0,1.0,0.237547960365,0,nan,nan,nan,nan,nan,nan,nan,nan,nan,460,0.415848916989,0.383334931935,-1.0,nan,nan,nan,nan,0.0,0.0,0.0,nan,200.45984095,293.180419366,293.680483798,293.417967327,nan,nan,nan,nan
1,78,1,1,1.0,1.0,0.237383459462,0,nan,nan,nan,nan,nan,nan,nan,nan,nan,277,0.258470646878,0.33263615818,0.624824240443,nan,nan,nan,nan,0.0,0.0,0.0,nan,200.45984095,294.180549371,294.680577595,294.41793283,nan,nan,nan,nan
1,79,0,0,1.0,0.0,0.229237382766,0,0.0,0.0,0.0,nan,nan,nan,nan,nan,nan,406,0.0244967455079,0.467245700284,-0.489366101921,nan,nan,nan,nan,0.0,0.0,0.0,nan,200.45984095,295.180689068,295.680729267,295.409926451,nan,nan,nan,nan
1,80,1,1,1.0,1.0,0.356791780563,0,nan,nan,nan,nan,nan,nan,nan,nan,nan,79,1.0,-0.184296021705,-0.724170777997,nan,nan,nan,nan,0.0,0.0,0.0,nan,200.45984095,296.189109408,296.689162436,296.545901189,nan,nan,nan,nan
1,81,1,1,1.0,1.0,0.289635754423,0,0.0,0.0,0.0,0.329390569192,0.0850605582812,0.244330010911,0.414451127473,0.0850605582812,0.291888305917,449,0.328095008353,0.407646248688,-1.0,nan,nan,nan,nan,0.0,0.0,0.0,nan,200.45984095,297.264256704,297.764299183,297.553892458,nan,nan,nan,nan
1,82,1,1,1.0,1.0,0.345459744567,0,0.0,0.0,0.0,0.328893634008,0.0846425777287,0.244251056279,0.413536211736,0.0846425777287,0.330629093184,330,-0.139766326074,0.449518327743,0.319540245599,nan,nan,nan,nan,0.0,0.0,0.0,nan,200.45984095,298.264405809,298.764430043,298.609865554,nan,nan,nan,nan
1,83,1,1,1.0,1.0,0.384943114594,0,0.0,0.0,0.0,0.329098153891,0.0841383579151,0.244959795976,0.413236511806,0.0841383579151,0.340012871195,205,1.0,0.00854800403903,0.505535240796,nan,nan,nan,nan,0.0,0.0,0.0,nan,200.45984095,299.272890011,299.772874901,299.657833126,nan,nan,nan,nan
1,84,1,1,1.0,1.0,0.472496121423,0,0.0,0.0,0.0,0.329779189997,0.0838480734312,0.245931116566,0.413627263428,0.0838480734312,0.400966326861,66,1.0,-0.118568705386,-1.0,nan,nan,nan,nan,0.0,0.0,0.0,nan,200.45984095,300.281316053,300.781361099,300.753812175,nan,nan,nan,nan
1,85,1,1,1.0,1.0,0.360339242732,0,0.0,0.0,0.0,0.331498671099,0.084783471603,0.246715199496,0.416282142702,0.084783471603,0.405926159583,439,0.251144291643,0.426392204401,-1.0,nan,nan,nan,nan,0.0,0.0,0.0,nan,200.45984095,301.281445773,301.781502222,301.641785015,nan,nan,nan,nan
1,86,1,1,1.0,1.0,0.383888825774,0,0.0,0.0,0.0,0.331842011237,0.0843353250411,0.247506686196,0.416177336278,0.0843353250411,0.405574729977,135,1.0,-0.303502321856,-0.0849788702499,nan,nan,nan,nan,0.0,0.0,0.0,nan,200.45984095,302.289888065,302.78993026,302.673776891,nan,nan,nan,nan
1,87,1,1,1.0,1.0,0.415693678195,0,0.0,0.0,0.0,0.332454326702,0.084025385101,0.248428941601,0.416479711803,0.084025385101,0.386640582234,226,0.801265930663,0.120208988367,0.60458276857,nan,nan,nan,nan,0.0,0.0,0.0,nan,200.45984095,303.290040307,303.790051996,303.705733985,nan,nan,nan,nan
1,88,0,0,0.0,1.0,0.471474048449,0,0.0,0.0,0.0,0.333422226138,0.0840107119645,0.249411514174,0.417432938103,0.0840107119645,0.423685517473,372,-0.138660017671,0.478458869494,-0.0888123791441,nan,nan,nan,nan,0.0,0.0,0.0,nan,200.45984095,304.29023959,304.790204238,304.761713638,nan,nan,nan,nan
1,89,1,1,1.0,1.0,0.391424795147,0,0.0,0.0,0.0,0.335009028694,0.0848128447352,0.250196183958,0.419821873429,0.0848128447352,0.426197507263,210,0.958022500947,0.0359304984579,0.533421856807,nan,nan,nan,nan,0.0,0.0,0.0,nan,200.45984095,305.290284635,305.790308013,305.68170943,nan,nan,nan,nan
1,90,1,1,1.0,1.0,0.431256553624,0,0.0,0.0,0.0,0.335650116949,0.0845413153575,0.251108801591,0.420191432306,0.0845413153575,0.431385132407,276,0.268710435127,0.329430325417,0.627563005949,nan,nan,nan,nan,0.0,0.0,0.0,nan,200.45984095,306.290422052,306.790452557,306.721678606,nan,nan,nan,nan
1,91,1,1,1.0,1.0,0.335136667127,0,0.0,0.0,0.0,0.336724346574,0.0846668606938,0.25205748588,0.421391207268,0.0846668606938,0.385939338633,367,-0.15309091083,0.477560897992,-0.0350816338538,nan,nan,nan,nan,0.0,0.0,0.0,nan,200.45984095,307.290523261,307.790572013,307.625659928,nan,nan,nan,nan
1,92,1,1,1.0,1.0,0.279022163013,0,0.0,0.0,0.0,0.336706705691,0.0841953398285,0.252511365863,0.42090204552,0.0841953398285,0.348471794588,102,1.0,-0.276610342793,-0.434926949461,nan,nan,nan,nan,0.0,0.0,0.0,nan,200.45984095,308.290649559,308.790686622,308.569671722,nan,nan,nan,nan
1,93,1,1,1.0,1.0,0.342521819752,0,0.0,0.0,0.0,0.336072809618,0.0839471257487,0.252125683869,0.420019935367,0.0839471257487,0.318893549964,204,1.0,0.00303256528985,0.499654420455,nan,nan,nan,nan,0.0,0.0,0.0,nan,200.45984095,309.299102401,309.799155144,309.64162422,nan,nan,nan,nan
1,94,1,1,1.0,1.0,0.317316393368,0,0.0,0.0,0.0,0.336142907554,0.0834923226439,0.25265058491,0.419635230198,0.0834923226439,0.312953458711,415,0.0813077335083,0.459153678902,-0.614968023274,nan,nan,nan,nan,0.0,0.0,0.0,nan,200.45984095,310.324273616,310.824291577,310.641590009,nan,nan,nan,nan
1,95,1,1,1.0,1.0,0.316875062883,0,0.0,0.0,0.0,0.335940471918,0.0830649232416,0.252875548676,0.41900539516,0.0830649232416,0.325571092001,327,-0.128086156831,0.445480682368,0.344176439252,nan,nan,nan,nan,0.0,0.0,0.0,nan,200.45984095,311.332705075,311.83274955,311.649580138,nan,nan,nan,nan
1,96,1,1,1.0,1.0,0.364715481875,0,0.0,0.0,0.0,0.335737648418,0.0826450562236,0.253092592194,0.418382704641,0.0826450562236,0.332968979375,83,1.0,-0.203097876184,-0.665876706514,nan,nan,nan,nan,0.0,0.0,0.0,nan,200.45984095,312.332847908,312.832884401,312.69756339,nan,nan,nan,nan
1,97,1,1,1.0,1.0,0.380555186421,0,0.0,0.0,0.0,0.336042678243,0.0822621084122,0.253780569831,0.418304786656,0.0822621084122,0.35404857706,285,0.178734351563,0.356878681702,0.598527012995,nan,nan,nan,nan,0.0,0.0,0.0,nan,200.45984095,313.332985895,313.832991597,313.713541082,nan,nan,nan,nan
1,98,1,1,1.0,1.0,0.324075758457,0,0.0,0.0,0.0,0.336506350204,0.081957236043,0.254549114161,0.418463586247,0.081957236043,0.356448808918,449,0.328095008353,0.407646248688,-1.0,nan,nan,nan,nan,0.0,0.0,0.0,nan,200.45984095,314.341446434,314.841457268,314.665522192,nan,nan,nan,nan
1,99,0,0,1.0,0.0,0.331935027614,0,0.0,0.0,0.0,0.336378199773,0.081543349198,0.254834850575,0.417921548971,0.081543349198,0.345521990831,235,0.707591924495,0.164537776567,0.631659631194,nan,nan,nan,nan,0.0,0.0,0.0,nan,200.45984095,315.341576153,315.841608939,315.673511181,nan,nan,nan,nan
1,100,1,1,1.0,1.0,0.539467119379,0,0.0,0.0,0.0,0.336332861282,0.0811274738171,0.255205387465,0.417460335099,0.0811274738171,0.39849263515,470,0.497741612616,0.357740777197,-1.0,nan,nan,nan,nan,0.0,0.0,0.0,nan,200.45984095,316.349998489,316.850081737,316.889465608,nan,nan,nan,nan
1,101,1,1,1.0,1.0,0.443283085944,0,0.0,0.0,0.0,0.338384722475,0.08323327874,0.255151443735,0.421618001215,0.08323327874,0.438228410979,54,1.0,-0.0546292063271,-1.0,nan,nan,nan,nan,0.0,0.0,0.0,nan,200.45984095,317.350158143,317.850161279,317.793441229,nan,nan,nan,nan
1,102,1,1,1.0,1.0,0.331170112127,0,0.0,1.0,0.0,0.339433706109,0.0834711758802,0.255962530229,0.42290488199,0.0834711758802,0.43797343915,200,1.0,-0.0191209939188,0.47515178387,nan,nan,nan,nan,0.0,0.0,0.0,nan,200.45984095,318.350280735,318.850309245,318.681450847,nan,nan,nan,nan
1,103,0,0,0.0,1.0,0.450939936331,1,0.0,0.0,1.0,0.339351888347,0.083060954068,0.256290934279,0.422412842415,0.083060954068,0.408464378134,430,0.184725017221,0.440645728776,-0.941904167281,129.656944241,320.343055759,17.9993057586,456.0,0.383612429175,0.392633185378,-1.0,1.59229359962,200.45984095,319.350477167,319.850519361,319.801417103,322.784114851,323.784131101,321.175610065,322.775801707
1,104,1,1,1.0,1.0,0.408659479581,0,0.0,0.0,0.0,0.340445888818,0.083380838199,0.257065050619,0.423826727017,0.083380838199,0.396923176013,95,1.0,-0.253175017597,-0.514975443931,nan,nan,nan,nan,0.0,0.0,0.0,nan,200.45984095,323.992631953,324.492681275,324.401291433,nan,nan,nan,nan
1,105,1,1,1.0,1.0,0.384185326751,0,0.0,0.0,0.0,0.341108156689,0.0832442344445,0.257863922245,0.424352391134,0.0832442344445,0.414594914221,319,-0.0891891826932,0.433308674125,0.406137099325,nan,nan,nan,nan,0.0,0.0,0.0,nan,200.45984095,325.001128129,325.501131835,325.385313456,nan,nan,nan,nan
1,106,1,1,1.0,1.0,0.488049018662,0,0.0,1.0,0.0,0.341522360247,0.0829496409086,0.258572719339,0.424472001156,0.0829496409086,0.426964608332,170,1.0,-0.180990482069,0.247815061387,nan,nan,nan,nan,0.0,0.0,0.0,nan,200.45984095,326.001230194,326.509590378,326.489279212,nan,nan,nan,nan
1,107,0,0,0.0,1.0,0.471501417691,1,0.0,0.0,1.0,0.342917852232,0.0837713696542,0.259146482578,0.426689221887,0.0837713696542,0.447911921035,465,0.456588679398,0.37096152752,-1.0,121.297699842,328.702300158,1.74917515812,467.0,0.473005185182,0.365775667588,-1.0,1.40878463723,200.45984095,327.009782819,327.509744046,327.481284237,330.260062927,331.259392664,328.834915432,330.251732107
1,108,1,1,1.0,1.0,0.396886113565,0,0.0,0.0,0.0,0.344130904737,0.0842967693338,0.259834135403,0.42842767407,0.0842967693338,0.45214551664,274,0.289344050657,0.322900892411,0.632670269059,nan,nan,nan,nan,0.0,0.0,0.0,nan,200.45984095,331.460256621,331.960282851,331.857142735,nan,nan,nan,nan
1,109,1,1,1.0,1.0,0.380417769775,0,0.0,0.0,0.0,0.344623944071,0.0840553503441,0.260568593727,0.428679294416,0.0840553503441,0.416268433677,423,0.135229581944,0.450080889006,-0.750039916123,nan,nan,nan,nan,0.0,0.0,0.0,nan,200.45984095,332.46871716,332.968767908,332.84913493,nan,nan,nan,nan
1,110,1,1,1.0,1.0,0.30026702187,0,0.0,0.0,0.0,0.344955368384,0.0837355095597,0.261219858824,0.428690877943,0.0837355095597,0.359190301737,335,-0.155595990888,0.455627721073,0.276893227044,nan,nan,nan,nan,0.0,0.0,0.0,nan,200.45984095,333.468865981,333.96887767,333.769133003,nan,nan,nan,nan
1,111,0,0,0.0,1.0,0.44412469212,0,0.0,0.0,0.0,0.344545383553,0.0834593439111,0.261086039642,0.428004727464,0.0834593439111,0.374936494588,388,-0.0739633693698,0.476941921698,-0.268577162136,nan,nan,nan,nan,0.0,0.0,0.0,nan,200.45984095,334.469001117,334.969026491,334.913125809,nan,nan,nan,nan
1,112,1,1,1.0,1.0,0.347625911701,0,0.0,0.0,0.0,0.345450649995,0.0836149867097,0.261835663285,0.429065636704,0.0836149867097,0.36400587523,470,0.497741612616,0.357740777197,-1.0,nan,nan,nan,nan,0.0,0.0,0.0,nan,200.45984095,335.477424308,335.977461941,335.82505022,nan,nan,nan,nan
1,113,1,1,1.0,1.0,0.33919046144,0,0.0,0.0,0.0,0.345470246947,0.0832377442433,0.262232502704,0.42870799119,0.0832377442433,0.376980355087,149,1.0,-0.269478519393,0.0541436597792,nan,nan,nan,nan,0.0,0.0,0.0,nan,200.45984095,336.485874869,336.985927041,336.82506533,nan,nan,nan,nan
1,114,1,1,1.0,1.0,0.280992468353,0,0.0,0.0,0.0,0.345414177434,0.0828674195524,0.262546757881,0.428281596986,0.0828674195524,0.322602947165,95,1.0,-0.253175017597,-0.514975443931,nan,nan,nan,nan,0.0,0.0,0.0,nan,200.45984095,337.536041109,338.036050802,337.817033577,nan,nan,nan,nan
1,115,1,1,1.0,1.0,0.264542655786,0,0.0,0.0,0.0,0.344844073813,0.0827202590759,0.262123814737,0.427564332889,0.0827202590759,0.294908528527,224,0.821619416966,0.11002478857,0.597264883709,nan,nan,nan,nan,0.0,0.0,0.0,nan,200.45984095,338.544487678,339.044524455,338.809030334,nan,nan,nan,nan
1,116,1,1,1.0,1.0,0.304374414496,0,0.0,0.0,0.0,0.34413967541,0.0826963488081,0.261443326602,0.426836024218,0.0826963488081,0.283303179545,10,0.926811495151,0.168400576072,-1.0,nan,nan,nan,nan,0.0,0.0,0.0,nan,200.45984095,339.544630797,340.044644766,339.849005211,nan,nan,nan,nan
1,117,1,1,1.0,1.0,0.279835829744,0,0.0,0.0,0.0,0.343793890532,0.0824187474375,0.261375143095,0.42621263797,0.0824187474375,0.282917633342,502,0.764740937618,0.25241357569,-1.0,nan,nan,nan,nan,0.0,0.0,0.0,nan,200.45984095,340.553129824,341.05310388,340.832965653,nan,nan,nan,nan
1,118,1,1,1.0,1.0,0.35974253458,0,0.0,0.0,0.0,0.343242527939,0.0822754578206,0.260967070119,0.42551798576,0.0822754578206,0.314650926273,135,1.0,-0.303502321856,-0.0849788702499,nan,nan,nan,nan,0.0,0.0,0.0,nan,200.45984095,341.553216208,342.053226757,341.912958743,nan,nan,nan,nan
1,119,1,1,1.0,1.0,0.39156990964,0,0.0,0.0,0.0,0.343383553637,0.0819371780725,0.261446375564,0.425320731709,0.0819371780725,0.343716091321,418,0.101175887384,0.455961754156,-0.661679309199,nan,nan,nan,nan,0.0,0.0,0.0,nan,200.45984095,342.553366169,343.053357901,342.944936079,nan,nan,nan,nan
1,120,1,1,1.0,1.0,0.383291262668,0,0.0,0.0,0.0,0.343791912586,0.0817087262824,0.262083186304,0.425500638868,0.0817087262824,0.378201235629,209,0.967301840512,0.0304835193525,0.52804999659,nan,nan,nan,nan,0.0,0.0,0.0,nan,200.45984095,343.561781377,344.061814164,343.94507264,nan,nan,nan,nan
1,121,0,0,0.0,1.0,0.510964830872,0,0.0,0.0,0.0,0.344123839898,0.0814445405945,0.262679299303,0.425568380492,0.0814445405945,0.428608667726,109,1.0,-0.294638327523,-0.357773695079,nan,nan,nan,nan,0.0,0.0,0.0,nan,200.45984095,344.561943027,345.061988928,345.072907858,nan,nan,nan,nan
1,122,1,1,1.0,1.0,0.454829799943,0,0.0,0.0,0.0,0.345514181489,0.0825104195554,0.263003761934,0.428024601045,0.0825104195554,0.449695297827,389,-0.0691208065164,0.476626077068,-0.280234315682,nan,nan,nan,nan,0.0,0.0,0.0,nan,200.45984095,345.56203996,346.062068185,346.01686976,nan,nan,nan,nan
1,123,1,1,1.0,1.0,0.382404325763,0,0.0,0.0,0.0,0.346417616352,0.0827626031012,0.263655013251,0.429180219454,0.0827626031012,0.449399652192,56,1.0,-0.0653675053377,-1.0,nan,nan,nan,nan,0.0,0.0,0.0,nan,200.45984095,346.570482253,347.07053129,346.952886579,nan,nan,nan,nan
1,124,1,1,1.0,1.0,0.349889011588,0,0.0,0.0,0.0,0.34671258938,0.0824865559472,0.264226033433,0.429199145328,0.0824865559472,0.395707712431,358,-0.170583909915,0.474268316859,0.0585874414746,nan,nan,nan,nan,0.0,0.0,0.0,nan,200.45984095,347.578947639,348.079014066,347.92883665,nan,nan,nan,nan
1,125,1,1,1.0,1.0,0.48572205659,0,0.0,0.0,0.0,0.346738413951,0.0821510556368,0.264587358314,0.428889469588,0.0821510556368,0.406005131314,12,0.942476689623,0.159273951266,-1.0,nan,nan,nan,nan,0.0,0.0,0.0,nan,200.45984095,348.579097315,349.079108718,349.064819371,nan,nan,nan,nan
1,126,1,1,1.0,1.0,0.373253566911,0,0.0,0.0,0.0,0.347859249779,0.0827580312822,0.265101218497,0.430617281061,0.0827580312822,0.402954878363,510,0.830554458933,0.220436700166,-1.0,nan,nan,nan,nan,0.0,0.0,0.0,nan,200.45984095,349.587535901,350.087584082,349.960789468,nan,nan,nan,nan
1,127,0,0,0.0,1.0,0.437026347034,0,0.0,0.0,0.0,0.348062404316,0.0824573726646,0.265605031651,0.430519776981,0.0824573726646,0.432000656845,412,0.0618891196837,0.462096609288,-0.571158935758,nan,nan,nan,nan,0.0,0.0,0.0,nan,200.45984095,350.587741456,351.087732333,351.024767803,nan,nan,nan,nan
1,128,1,1,1.0,1.0,0.396618692437,0,0.0,0.0,0.0,0.348768467353,0.082508011025,0.266260456328,0.431276478378,0.082508011025,0.402299535461,212,0.93926288676,0.0467731277665,0.543851001166,nan,nan,nan,nan,0.0,0.0,0.0,nan,200.45984095,351.596126729,352.096164647,351.992745422,nan,nan,nan,nan
1,129,1,1,1.0,1.0,0.364455473144,0,0.0,0.0,0.0,0.349145240779,0.0822912856267,0.266853955152,0.431436526406,0.0822912856267,0.399366837538,53,1.0,-0.049257555853,-1.0,nan,nan,nan,nan,0.0,0.0,0.0,nan,200.45984095,352.596284103,353.096308621,352.960739576,nan,nan,nan,nan
1,130,1,1,1.0,1.0,0.404313460691,0,0.0,0.0,0.0,0.34926485197,0.081980287483,0.267284564487,0.431245139453,0.081980287483,0.388462542091,192,1.0,-0.0635997558896,0.421658406928,nan,nan,nan,nan,0.0,0.0,0.0,nan,200.45984095,353.596399282,354.096412396,354.000712743,nan,nan,nan,nan
1,131,1,1,1.0,1.0,0.324168414809,0,0.0,0.0,0.0,0.349691585371,0.0818045080743,0.267887077296,0.431496093445,0.0818045080743,0.364312449548,453,0.359670421306,0.39926174925,-1.0,nan,nan,nan,nan,0.0,0.0,0.0,nan,200.45984095,354.596514176,355.096545822,354.920682591,nan,nan,nan,nan
1,132,1,1,1.0,1.0,0.291702137562,0,0.0,0.0,0.0,0.349495253289,0.0815197722143,0.267975481075,0.431015025504,0.0815197722143,0.340061337687,47,1.0,-0.0170755915744,-1.0,nan,nan,nan,nan,0.0,0.0,0.0,nan,200.45984095,355.604965877,356.105008926,355.896668014,nan,nan,nan,nan
1,133,1,1,1.0,1.0,0.379217226291,0,0.0,0.0,0.0,0.349054084467,0.0813636672552,0.267690417212,0.430417751722,0.0813636672552,0.33169592622,336,-0.158211608236,0.456758111158,0.268135266647,nan,nan,nan,nan,0.0,0.0,0.0,nan,200.45984095,356.613433258,357.113470036,356.992650484,nan,nan,nan,nan
1,134,1,1,1.0,1.0,0.451055400539,0,0.0,0.0,0.0,0.349282593117,0.081097070265,0.268185522852,0.430379663382,0.081097070265,0.373991588131,431,0.191957257768,0.43918128748,-0.982298765802,nan,nan,nan,nan,0.0,0.0,0.0,nan,200.45984095,357.613564688,358.113586925,358.064620088,nan,nan,nan,nan
1,135,1,1,1.0,1.0,0.394588801544,0,0.0,0.0,0.0,0.350047802195,0.0812685523614,0.268779249834,0.431316354557,0.0812685523614,0.408287142791,370,-0.144805996584,0.478178727438,-0.0671803333712,nan,nan,nan,nan,0.0,0.0,0.0,nan,200.45984095,358.622029503,359.122083386,359.016618305,nan,nan,nan,nan
1,136,1,1,1.0,1.0,0.38610146381,0,0.0,0.0,0.0,0.350380197713,0.0810554406077,0.269324757105,0.431435638321,0.0810554406077,0.410581888631,456,0.383612429175,0.392633185378,-1.0,nan,nan,nan,nan,0.0,0.0,0.0,nan,200.45984095,359.630474932,360.130516271,360.016576396,nan,nan,nan,nan
1,137,1,1,1.0,1.0,0.374133376172,0,0.0,0.0,0.0,0.350644799684,0.0808127453056,0.269832054378,0.43145754499,0.0808127453056,0.384941213842,159,1.0,-0.231765974528,0.149055008463,nan,nan,nan,nan,0.0,0.0,0.0,nan,200.45984095,360.658439242,361.163981528,361.032572618,nan,nan,nan,nan
1,138,1,1,1.0,1.0,0.392533822451,0,0.0,0.0,0.0,0.350817509805,0.0805400946016,0.270277415204,0.431357604407,0.0805400946016,0.384256220811,205,1.0,0.00854800403903,0.505535240796,nan,nan,nan,nan,0.0,0.0,0.0,nan,200.45984095,361.664067627,362.164112958,362.05660145,nan,nan,nan,nan
1,139,1,1,1.0,1.0,0.344303961378,0,0.0,0.0,0.0,0.351122008438,0.0803241461459,0.270797862292,0.431446154584,0.0803241461459,0.37032372,94,1.0,-0.249439013202,-0.526745155233,nan,nan,nan,nan,0.0,0.0,0.0,nan,200.45984095,362.664217303,363.164253226,363.008521265,nan,nan,nan,nan
1,140,1,1,1.0,1.0,0.336216614582,0,0.0,0.0,0.0,0.3510726023,0.0800346766838,0.271037925616,0.431107278983,0.0800346766838,0.35768479947,246,0.589768841079,0.215019897151,0.651339528662,nan,nan,nan,nan,0.0,0.0,0.0,nan,200.45984095,363.664333908,364.164380664,364.000550522,nan,nan,nan,nan
1,141,1,1,1.0,1.0,0.384018830024,0,0.0,0.0,0.0,0.35096572469,0.0797561454171,0.271209579273,0.430721870107,0.0797561454171,0.354846468661,448,0.32026743599,0.409662251776,-1.0,nan,nan,nan,nan,0.0,0.0,0.0,nan,200.45984095,364.664477882,365.164504681,365.048496712,nan,nan,nan,nan
1,142,1,1,1.0,1.0,0.310164734721,0,0.0,0.0,0.0,0.3512018183,0.0795195233828,0.271682294917,0.430721341682,0.0795195233828,0.343466726442,390,-0.0641960347588,0.476284203309,-0.291947553613,nan,nan,nan,nan,0.0,0.0,0.0,nan,200.45984095,365.706285648,366.206287358,366.016450383,nan,nan,nan,nan
1,143,1,1,1.0,1.0,0.366046884796,0,0.0,0.0,0.0,0.350910775154,0.0793118337217,0.271598941432,0.430222608875,0.0793118337217,0.353410149847,155,1.0,-0.2479831371,0.111611878621,nan,nan,nan,nan,0.0,0.0,0.0,nan,200.45984095,366.706397976,367.206432473,367.072444861,nan,nan,nan,nan
1,144,1,1,1.0,1.0,0.285916093737,0,0.0,0.0,0.0,0.351017367475,0.0790422079684,0.271975159507,0.430059575444,0.0790422079684,0.320709237751,449,0.328095008353,0.407646248688,-1.0,nan,nan,nan,nan,0.0,0.0,0.0,nan,200.45984095,367.706523989,368.206542805,367.992440083,nan,nan,nan,nan
1,145,1,1,1.0,1.0,0.333448037272,0,0.0,0.0,0.0,0.350562113813,0.0789519535758,0.271610160237,0.429514067388,0.0789519535758,0.328470338602,85,1.0,-0.212156452387,-0.638781227021,nan,nan,nan,nan,0.0,0.0,0.0,nan,200.45984095,368.714988519,369.215003629,369.048436556,nan,nan,nan,nan
1,146,1,1,1.0,1.0,0.341263401788,0,0.0,0.0,0.0,0.350443266059,0.0786901724614,0.271753093598,0.42913343852,0.0786901724614,0.320209177599,362,-0.164239727892,0.476000155386,0.0174578511848,nan,nan,nan,nan,0.0,0.0,0.0,nan,200.45984095,369.715113962,370.215118523,370.056377364,nan,nan,nan,nan
1,147,1,1,1.0,1.0,0.308793703327,0,0.0,0.0,0.0,0.35037995665,0.0784220375248,0.271957919125,0.428801994175,0.0784220375248,0.327835047462,218,0.881467392804,0.0788246127756,0.572559633417,nan,nan,nan,nan,0.0,0.0,0.0,nan,200.45984095,370.723551693,371.223581343,371.032345396,nan,nan,nan,nan
1,148,1,1,1.0,1.0,0.284319550265,0,0.0,0.0,0.0,0.350095119299,0.0782282350462,0.271866884252,0.428323354345,0.0782282350462,0.311458885126,69,1.0,-0.134207199312,-0.939648005704,nan,nan,nan,nan,0.0,0.0,0.0,nan,200.45984095,371.732004819,372.232041027,372.01632437,nan,nan,nan,nan
1,149,1,1,1.0,1.0,0.26817194093,0,0.0,0.0,0.0,0.349647666448,0.0781489455601,0.271498720888,0.427796612008,0.0781489455601,0.287095064841,8,0.91102658764,0.177400941622,-1.0,nan,nan,nan,nan,0.0,0.0,0.0,nan,200.45984095,372.732132258,373.232174737,373.000304199,nan,nan,nan,nan
1,150,1,1,1.0,1.0,0.364035525359,0,0.0,0.0,0.0,0.349097154789,0.0781699604146,0.270927194375,0.427267115204,0.0781699604146,0.305509005518,150,1.0,-0.266152531622,0.0638227105866,nan,nan,nan,nan,0.0,0.0,0.0,nan,200.45984095,373.732261407,374.23230189,374.096296932,nan,nan,nan,nan
1,151,1,1,1.0,1.0,0.347877082182,0,0.0,0.0,0.0,0.34919741231,0.0779167503806,0.271280661929,0.42711416269,0.0779167503806,0.32669484949,436,0.228681708805,0.431413732101,-1.0,nan,nan,nan,nan,0.0,0.0,0.0,nan,200.45984095,374.732411368,375.232428188,375.08028845,nan,nan,nan,nan
1,152,1,1,1.0,1.0,0.371409559622,0,0.0,0.0,0.0,0.349188610109,0.0776566678889,0.27153194222,0.426845277998,0.0776566678889,0.361107389055,126,1.0,-0.311411754845,-0.177408431044,nan,nan,nan,nan,0.0,0.0,0.0,nan,200.45984095,375.740838835,376.240892148,376.112248395,nan,nan,nan,nan
1,153,1,1,1.0,1.0,0.243273563916,0,0.0,0.0,0.0,0.349335768715,0.0774200810207,0.271915687694,0.426755849736,0.0774200810207,0.320853401907,418,0.101175887384,0.455961754156,-0.661679309199,nan,nan,nan,nan,0.0,0.0,0.0,nan,200.45984095,376.741003336,377.241020727,376.9842769,nan,nan,nan,nan
1,154,1,1,1.0,1.0,0.27476851549,0,0.0,0.0,0.0,0.348637991052,0.0776399158982,0.270998075154,0.42627790695,0.0776399158982,0.296483879676,169,1.0,-0.185917379452,0.239118302078,nan,nan,nan,nan,0.0,0.0,0.0,nan,200.45984095,377.749437931,378.249477275,378.024206447,nan,nan,nan,nan
1,155,1,1,1.0,1.0,0.386611502152,0,0.0,0.0,0.0,0.348155184022,0.0776143654962,0.270540818526,0.425769549518,0.0776143654962,0.301551193853,99,1.0,-0.267176270739,-0.468793303331,nan,nan,nan,nan,0.0,0.0,0.0,nan,200.45984095,378.749584756,379.24960956,379.136196258,nan,nan,nan,nan
1,156,1,1,1.0,1.0,0.354153492721,0,0.0,0.0,0.0,0.348404900373,0.0774235992972,0.270981301076,0.425828499671,0.0774235992972,0.338511170121,444,0.289241202529,0.417409780569,-1.0,nan,nan,nan,nan,0.0,0.0,0.0,nan,200.45984095,379.758029615,380.258062116,380.112183108,nan,nan,nan,nan
1,157,1,1,1.0,1.0,0.31368539785,0,0.0,0.0,0.0,0.348441988066,0.0771748140115,0.271267174054,0.425616802078,0.0771748140115,0.351483464241,213,0.929785093221,0.0521668813814,0.548906519778,nan,nan,nan,nan,0.0,0.0,0.0,nan,200.45984095,380.766482171,381.266518093,381.080167569,nan,nan,nan,nan
1,158,1,1,1.0,1.0,0.321190576535,0,0.0,0.0,0.0,0.348219189411,0.0769770538607,0.27124213555,0.425196243271,0.0769770538607,0.329676489035,457,0.391639248186,0.390358177281,-1.0,nan,nan,nan,nan,0.0,0.0,0.0,nan,200.45984095,381.774937863,382.274984619,382.09612844,nan,nan,nan,nan
1,159,1,1,1.0,1.0,0.34504663921,0,0.0,0.0,0.0,0.348047032641,0.0767616343945,0.271285398246,0.424808667035,0.0767616343945,0.326640871198,338,-0.162891363375,0.458928707883,0.250399161362,nan,nan,nan,nan,0.0,0.0,0.0,nan,200.45984095,382.775095522,383.275115764,383.120142161,nan,nan,nan,nan
1,160,1,1,1.0,1.0,0.384878682671,0,0.0,0.0,0.0,0.348028042809,0.0765187021992,0.27150934061,0.424546745008,0.0765187021992,0.350371966138,204,1.0,0.00303256528985,0.499654420455,nan,nan,nan,nan,0.0,0.0,0.0,nan,200.45984095,383.775203574,384.275229517,384.160082256,nan,nan,nan,nan
1,161,1,1,1.0,1.0,0.280760684283,0,0.0,0.0,0.0,0.34825980784,0.076333309626,0.271926498214,0.424593117466,0.076333309626,0.336895335388,278,0.248285521772,0.335802812283,0.621962573991,nan,nan,nan,nan,0.0,0.0,0.0,nan,200.45984095,384.775324455,385.275361802,385.056085139,nan,nan,nan,nan
1,162,1,1,1.0,1.0,0.248275590828,0,0.0,0.0,0.0,0.347837938317,0.0762801066405,0.271557831677,0.424118044958,0.0762801066405,0.304638319261,220,0.861731547614,0.0893272636146,0.581247684387,nan,nan,nan,nan,0.0,0.0,0.0,nan,200.45984095,385.783778436,386.283814929,386.032054027,nan,nan,nan,nan
1,163,1,1,1.0,1.0,0.295766195282,0,0.0,0.0,0.0,0.347219538644,0.0764441028589,0.270775435785,0.423663641502,0.0764441028589,0.274934156798,66,1.0,-0.118568705386,-1.0,nan,nan,nan,nan,0.0,0.0,0.0,nan,200.45984095,386.792264634,387.292286301,387.088030829,nan,nan,nan,nan
1,164,1,1,1.0,1.0,0.287626105594,0,0.0,0.0,0.0,0.346901925413,0.0763142845004,0.270587640912,0.423216209913,0.0763142845004,0.277222630568,482,0.597655625539,0.322480811492,-1.0,nan,nan,nan,nan,0.0,0.0,0.0,nan,200.45984095,387.792396919,388.292431131,388.080023024,nan,nan,nan,nan
1,165,1,1,1.0,1.0,0.271471083397,0,0.0,0.0,0.0,0.346538270077,0.0762204990661,0.270317771011,0.422758769143,0.0762204990661,0.284954461424,348,-0.175384772129,0.468017843042,0.157582163916,nan,nan,nan,nan,0.0,0.0,0.0,nan,200.45984095,388.792523502,389.292541178,389.063994586,nan,nan,nan,nan
1,166,1,1,1.0,1.0,0.279322655173,0,0.0,0.0,0.0,0.346080543329,0.0762121450276,0.269868398301,0.422292688356,0.0762121450276,0.279473281388,175,1.0,-0.155629953633,0.290361762956,nan,nan,nan,nan,0.0,0.0,0.0,nan,200.45984095,389.792664055,390.292664055,390.07198671,nan,nan,nan,nan
1,167,1,1,1.0,1.0,0.246852956479,0,1.0,0.0,0.0,0.345675950067,0.076157306818,0.269518643249,0.421833256885,0.076157306818,0.265882231683,55,1.0,-0.0599996532909,-1.0,nan,nan,nan,nan,0.0,0.0,0.0,nan,200.45984095,390.80108411,391.301155669,391.047937067,nan,nan,nan,nan
1,168,1,1,1.0,1.0,0.254712511087,1,0.0,0.0,1.0,0.345080630829,0.0763116821744,0.268768948654,0.421392313003,0.0763116821744,0.260296040913,504,0.78128615449,0.244628286196,-1.0,55.0315777324,34.9684222676,40.5934222676,50.0,1.0,-0.033148730948,-1.0,1.99220316717,200.45984095,391.801240058,392.301275695,392.055952569,395.634996285,396.634726868,393.626438813,395.62666233
1,169,1,1,1.0,1.0,0.532313750358,0,0.0,0.0,0.0,0.344539504363,0.0764016328676,0.268137871495,0.420941137231,0.0764016328676,0.344626405975,165,1.0,-0.205056383665,0.203745440608,nan,nan,nan,nan,0.0,0.0,0.0,nan,200.45984095,396.843514243,397.343598061,397.375827993,nan,nan,nan,nan
1,170,1,1,1.0,1.0,0.299857052276,0,0.0,0.0,0.0,0.345657208208,0.077531225613,0.268125982595,0.423188433821,0.077531225613,0.362294437907,336,-0.158211608236,0.456758111158,0.268135266647,nan,nan,nan,nan,0.0,0.0,0.0,nan,200.45984095,397.85198419,398.352020682,398.151841242,nan,nan,nan,nan
1,171,1,1,1.0,1.0,0.259713682812,0,0.0,0.0,0.0,0.345386201368,0.0773812707986,0.26800493057,0.422767472167,0.0773812707986,0.363961495149,429,0.177531820842,0.442080780324,-0.901885199234,nan,nan,nan,nan,0.0,0.0,0.0,nan,200.45984095,398.85210336,399.352140708,399.111817043,nan,nan,nan,nan
1,172,0,0,1.0,0.0,0.243478263495,0,0.0,0.0,0.0,0.344882245377,0.0774309987383,0.267451246639,0.422313244115,0.0774309987383,0.267682999528,272,0.310166696092,0.316214117232,0.637281430288,nan,nan,nan,nan,0.0,0.0,0.0,nan,200.45984095,399.852288388,400.352346548,400.095766652,nan,nan,nan,nan
1,173,1,1,1.0,1.0,0.587365412852,0,0.0,0.0,0.0,0.344289239635,0.0775904588302,0.266698780805,0.421879698465,0.0775904588302,0.36351911972,0,0.846831709088,0.212097570855,-1.0,nan,nan,nan,nan,0.0,0.0,0.0,nan,200.45984095,400.852370211,401.352454315,401.439735624,nan,nan,nan,nan
1,174,1,1,1.0,1.0,0.47489777836,0,0.0,0.0,0.0,0.3457024732,0.0795412085363,0.266161264664,0.425243681736,0.0795412085363,0.435247151569,115,1.0,-0.305166285737,-0.293172749504,nan,nan,nan,nan,0.0,0.0,0.0,nan,200.45984095,401.860825618,402.360873515,402.335723397,nan,nan,nan,nan
1,175,1,1,1.0,1.0,0.330721369712,0,0.0,1.0,0.0,0.346449266872,0.0799134361065,0.266535830765,0.426362702978,0.0799134361065,0.464328186975,305,0.00361192545304,0.406859252708,0.500196907155,nan,nan,nan,nan,0.0,0.0,0.0,nan,200.45984095,402.860975009,403.360984417,403.191696379,nan,nan,nan,nan
1,176,0,0,0.0,1.0,0.474561364157,1,0.0,0.0,1.0,0.346358876658,0.0796923377412,0.266666538917,0.426051214399,0.0796923377412,0.42672683741,364,-0.160194321586,0.476704516321,-0.00341124574885,-150.809688482,240.809688482,-15.1278115182,342.0,-0.170052622031,0.462913557708,0.21407524247,1.84218797134,200.45984095,403.861107294,404.361130957,404.335668658,407.544836637,408.544152974,405.686279821,407.536502681
1,177,1,1,1.0,1.0,0.558557215147,0,0.0,0.0,0.0,0.347091462301,0.0800497385155,0.267041723785,0.427141200816,0.0800497385155,0.454613316339,85,1.0,-0.212156452387,-0.638781227021,nan,nan,nan,nan,0.0,0.0,0.0,nan,200.45984095,408.745014651,409.245110159,409.303571866,nan,nan,nan,nan
1,178,1,1,1.0,1.0,0.326049199793,0,0.0,0.0,0.0,0.34829297226,0.0813891046214,0.266903867639,0.429682076882,0.0813891046214,0.453055926366,426,0.156193047225,0.446210853967,-0.81485970128,nan,nan,nan,nan,0.0,0.0,0.0,nan,200.45984095,409.753488019,410.253526222,410.079537219,nan,nan,nan,nan
1,179,0,0,0.0,1.0,0.397915028501,0,0.0,0.0,0.0,0.348167301229,0.0811759889009,0.266991312328,0.42934329013,0.0811759889009,0.427507147814,359,-0.169222339917,0.474741883077,0.0483828026834,nan,nan,nan,nan,0.0,0.0,0.0,nan,200.45984095,410.753666775,411.253692149,411.151581804,nan,nan,nan,nan
1,180,1,1,1.0,1.0,0.325752128614,0,0.0,0.0,0.0,0.348446782843,0.081032997877,0.267413784966,0.42947978072,0.081032997877,0.349905452303,306,-0.00395437407881,0.408974006242,0.494128827808,nan,nan,nan,nan,0.0,0.0,0.0,nan,200.45984095,411.753744322,412.253799916,412.07949645,nan,nan,nan,nan
1,181,1,1,1.0,1.0,0.325614141533,0,0.0,0.0,0.0,0.348319997065,0.0808240343482,0.267495962717,0.429144031414,0.0808240343482,0.349760432883,76,1.0,-0.169674511773,-0.773365826749,nan,nan,nan,nan,0.0,0.0,0.0,nan,200.45984095,412.753895993,413.253909393,413.079510135,nan,nan,nan,nan
1,182,1,1,1.0,1.0,0.285134357633,0,0.0,0.0,0.0,0.348193853424,0.0806168779629,0.267576975461,0.428810731386,0.0806168779629,0.312166875927,341,-0.168535884224,0.46196150489,0.223260112086,nan,nan,nan,nan,0.0,0.0,0.0,nan,200.45984095,413.762346269,414.262365085,414.047480626,nan,nan,nan,nan
1,183,1,1,1.0,1.0,0.284978409531,0,0.0,0.0,0.0,0.347845458419,0.0805296387784,0.267315819641,0.428375097198,0.0805296387784,0.298575636232,155,1.0,-0.2479831371,0.111611878621,nan,nan,nan,nan,0.0,0.0,0.0,nan,200.45984095,414.762474562,415.262498796,415.047452972,nan,nan,nan,nan
1,184,1,1,1.0,1.0,0.276523287641,0,0.0,0.0,0.0,0.347500035074,0.0804424462449,0.267057588829,0.427942481319,0.0804424462449,0.282212018268,462,0.432089675478,0.378486360879,-1.0,nan,nan,nan,nan,0.0,0.0,0.0,nan,200.45984095,415.77090089,416.27094565,416.047424177,nan,nan,nan,nan
1,185,1,1,1.0,1.0,0.300352836028,0,0.0,0.0,0.0,0.347112183995,0.0803928140564,0.266719369938,0.427504998051,0.0803928140564,0.2872848444,400,-0.0107874812989,0.471427301814,-0.412692688905,nan,nan,nan,nan,0.0,0.0,0.0,nan,200.45984095,416.771043153,417.27107993,417.071395989,nan,nan,nan,nan
1,186,0,0,0.0,1.0,0.492206302937,0,0.0,0.0,0.0,0.346858057104,0.0802477274097,0.266610329694,0.427105784513,0.0802477274097,0.356360808869,182,1.0,-0.118523835432,0.347089474713,nan,nan,nan,nan,0.0,0.0,0.0,nan,200.45984095,417.771196535,418.279563562,418.263402838,nan,nan,nan,nan
1,187,1,1,1.0,1.0,0.380094469758,0,0.0,0.0,0.0,0.347643723297,0.0807370206849,0.266906702612,0.428380743982,0.0807370206849,0.390884536241,120,1.0,-0.310161497659,-0.240162905937,nan,nan,nan,nan,0.0,0.0,0.0,nan,200.45984095,418.771280639,419.271324259,419.151375108,nan,nan,nan,nan
1,188,0,0,0.0,1.0,0.44387722807,0,0.0,0.0,0.0,0.347818189676,0.0805546529749,0.267263536701,0.428372842651,0.0805546529749,0.438726000255,23,1.0,0.106943944166,-1.0,nan,nan,nan,nan,0.0,0.0,0.0,nan,200.45984095,419.771471084,420.271502729,420.215348312,nan,nan,nan,nan
1,189,1,1,1.0,1.0,0.307757945964,0,0.0,0.0,0.0,0.348331874373,0.0806438558636,0.26768801851,0.428975730237,0.0806438558636,0.377243214597,98,1.0,-0.263822910468,-0.480217789416,nan,nan,nan,nan,0.0,0.0,0.0,nan,200.45984095,420.771547775,421.271611351,421.079305721,nan,nan,nan,nan
1,190,1,1,1.0,1.0,0.33929708763,0,0.0,0.0,0.0,0.348116055605,0.0804832206449,0.26763283496,0.42859927625,0.0804832206449,0.363644087221,327,-0.128086156831,0.445480682368,0.344176439252,nan,nan,nan,nan,0.0,0.0,0.0,nan,200.45984095,421.780014016,422.280043666,422.119311103,nan,nan,nan,nan
1,191,1,1,1.0,1.0,0.331153861713,0,0.0,0.0,0.0,0.348069394399,0.0802725693297,0.267796825069,0.428341963729,0.0802725693297,0.326069631769,126,1.0,-0.311411754845,-0.177408431044,nan,nan,nan,nan,0.0,0.0,0.0,nan,200.45984095,422.780137463,423.280174525,423.111291324,nan,nan,nan,nan
1,192,1,1,1.0,1.0,0.338966660202,0,0.0,0.0,0.0,0.34798036528,0.0800704021594,0.26790996312,0.428050767439,0.0800704021594,0.336472536515,431,0.191957257768,0.43918128748,-0.982298765802,nan,nan,nan,nan,0.0,0.0,0.0,nan,200.45984095,423.780289704,424.280305099,424.119256364,nan,nan,nan,nan
1,193,1,1,1.0,1.0,0.298818443902,0,0.0,0.0,0.0,0.347933173106,0.0798631679575,0.268070005149,0.427796341064,0.0798631679575,0.322979655272,477,0.555879874869,0.337784025865,-1.0,nan,nan,nan,nan,0.0,0.0,0.0,nan,200.45984095,424.780407164,425.280429972,425.079225608,nan,nan,nan,nan
1,194,1,1,1.0,1.0,0.298388232477,0,0.0,0.0,0.0,0.347677367225,0.0797333342587,0.267944032967,0.427410701484,0.0797333342587,0.31205777886,111,1.0,-0.298677811705,-0.336106236365,nan,nan,nan,nan,0.0,0.0,0.0,nan,200.45984095,425.788834917,426.288894502,426.087223149,nan,nan,nan,nan
1,195,1,1,1.0,1.0,0.266233851202,0,0.0,0.0,0.0,0.347421983107,0.0796051952638,0.267816787844,0.427027178371,0.0796051952638,0.287813509194,308,-0.0186828559465,0.413097475488,0.481682330771,nan,nan,nan,nan,0.0,0.0,0.0,nan,200.45984095,426.788963496,427.289007401,427.055197347,nan,nan,nan,nan
1,196,1,1,1.0,1.0,0.234088593395,0,1.0,0.0,0.0,0.347003487582,0.0796123354912,0.267391152091,0.426615823073,0.0796123354912,0.266236892358,444,0.289241202529,0.417409780569,-1.0,nan,nan,nan,nan,0.0,0.0,0.0,nan,200.45984095,427.789103193,428.289127711,428.023191787,nan,nan,nan,nan
1,197,1,1,1.0,1.0,0.185957945883,1,0.0,0.0,1.0,0.346424436843,0.0798164702037,0.266607966639,0.426240907046,0.0798164702037,0.22876013016,249,0.557275547736,0.228026269286,0.654084877906,-92.2679545359,182.267954536,7.18982953591,259.0,0.44882283482,0.268906983076,0.655011783756,1.9089802138,200.45984095,428.789216662,429.289282804,428.975174608,432.539673245,433.539078817,430.614426251,432.531332732
1,198,1,1,1.0,1.0,0.347166620428,0,0.0,0.0,0.0,0.345605730256,0.0804292869266,0.265176443329,0.426035017183,0.0804292869266,0.255737719902,112,1.0,-0.300501516081,-0.325324861792,nan,nan,nan,nan,0.0,0.0,0.0,nan,200.45984095,433.739861808,434.239883475,434.087028428,nan,nan,nan,nan
1,199,1,1,1.0,1.0,0.298700413899,0,0.0,0.0,0.0,0.345613653556,0.0802249686544,0.265388684902,0.425838622211,0.0802249686544,0.277274993404,160,1.0,-0.227501418013,0.158297521075,nan,nan,nan,nan,0.0,0.0,0.0,nan,200.45984095,434.7483041,435.248349146,435.047004514,nan,nan,nan,nan
1,200,1,1,1.0,1.0,0.298530495958,0,0.0,0.0,0.0,0.345376718003,0.0800911954636,0.265285522539,0.425467913466,0.0800911954636,0.314799176762,449,0.328095008353,0.407646248688,-1.0,nan,nan,nan,nan,0.0,0.0,0.0,nan,200.45984095,435.748446079,436.248471738,436.046976575,nan,nan,nan,nan
1,201,1,1,1.0,1.0,0.257406677818,0,0.0,0.0,0.0,0.345141309852,0.0799583515807,0.265182958271,0.425099661432,0.0799583515807,0.284879195892,383,-0.0968787136249,0.478131214543,-0.211081409456,nan,nan,nan,nan,0.0,0.0,0.0,nan,200.45984095,436.773626132,437.273600758,437.03103281,nan,nan,nan,nan
1,202,1,1,1.0,1.0,0.305269049015,0,0.0,0.0,0.0,0.344702636692,0.0799979105459,0.264704726146,0.424700547237,0.0799979105459,0.28706874093,112,1.0,-0.300501516081,-0.325324861792,nan,nan,nan,nan,0.0,0.0,0.0,nan,200.45984095,437.773717078,438.27373846,438.078986127,nan,nan,nan,nan
1,203,1,1,1.0,1.0,0.305108824279,0,0.0,0.0,0.0,0.344506449688,0.0798468811349,0.264659568553,0.424353330823,0.0798468811349,0.289261517037,208,0.97651257568,0.025020743352,0.522574479073,nan,nan,nan,nan,0.0,0.0,0.0,nan,200.45984095,438.773845657,439.273861907,439.078954481,nan,nan,nan,nan
1,204,0,0,1.0,0.0,0.168973006541,0,0.0,0.0,0.0,0.344311411939,0.0796969786713,0.264614433267,0.42400839061,0.0796969786713,0.259783626612,450,0.335949728395,0.405598329481,-1.0,nan,nan,nan,nan,0.0,0.0,0.0,nan,200.45984095,439.773974805,440.274014434,439.942947812,nan,nan,nan,nan
1,205,1,1,1.0,1.0,0.232839298435,0,0.0,0.0,0.0,0.343447675951,0.0804426488175,0.263005027134,0.423890324769,0.0804426488175,0.235640376418,330,-0.139766326074,0.449518327743,0.319540245599,nan,nan,nan,nan,0.0,0.0,0.0,nan,200.45984095,440.774078866,441.274108801,441.006918164,nan,nan,nan,nan
1,206,1,1,1.0,1.0,0.272363437107,0,0.0,0.0,0.0,0.342905478022,0.0806162311099,0.262289246913,0.423521709132,0.0806162311099,0.224725247361,37,1.0,0.0358565504353,-1.0,nan,nan,nan,nan,0.0,0.0,0.0,nan,200.45984095,441.78252629,442.282566774,442.054889727,nan,nan,nan,nan
1,207,1,1,1.0,1.0,0.375903258566,0,0.0,0.0,0.0,0.342561370506,0.0805694112517,0.261991959254,0.423130781757,0.0805694112517,0.293701998036,266,0.373577590308,0.295207490188,0.648113769863,nan,nan,nan,nan,0.0,0.0,0.0,nan,200.45984095,442.790986544,443.291024747,443.166889803,nan,nan,nan,nan
1,208,0,0,0.0,1.0,0.463690900244,0,0.0,0.0,0.0,0.342723224331,0.0804070180311,0.2623162063,0.423130242362,0.0804070180311,0.370652531972,171,1.0,-0.176011872558,0.256450910142,nan,nan,nan,nan,0.0,0.0,0.0,nan,200.45984095,443.791153896,444.291182691,444.254844796,nan,nan,nan,nan
1,209,1,1,1.0,1.0,0.48759086756,0,0.0,0.0,0.0,0.343307609239,0.0806498942904,0.262657714949,0.423957503529,0.0806498942904,0.44239500879,504,0.78128615449,0.244628286196,-1.0,nan,nan,nan,nan,0.0,0.0,0.0,nan,200.45984095,444.791251684,445.299608733,445.278842552,nan,nan,nan,nan
1,210,1,1,1.0,1.0,0.335069384193,0,0.0,0.0,0.0,0.34400127875,0.0810724243432,0.262928854407,0.425073703093,0.0810724243432,0.428783717332,325,-0.119404900653,0.442631039184,0.360186421743,nan,nan,nan,nan,0.0,0.0,0.0,nan,200.45984095,445.799756983,446.299751282,446.134826367,nan,nan,nan,nan
1,211,1,1,1.0,1.0,0.299912076211,0,0.0,0.0,0.0,0.343958542413,0.0808805871136,0.263077955299,0.424839129526,0.0808805871136,0.374190775988,16,0.973419431522,0.140652110383,-1.0,nan,nan,nan,nan,0.0,0.0,0.0,nan,200.45984095,446.874838706,447.37490884,447.174750783,nan,nan,nan,nan
1,212,1,1,1.0,1.0,0.315802813275,0,0.0,0.0,0.0,0.343748797335,0.0807447403968,0.263004056939,0.424493537732,0.0807447403968,0.316928091226,373,-0.135407706169,0.478559568072,-0.0996974893599,nan,nan,nan,nan,0.0,0.0,0.0,nan,200.45984095,447.874976123,448.375016037,448.190778936,nan,nan,nan,nan
1,213,1,1,1.0,1.0,0.291341489647,0,0.0,0.0,0.0,0.343616351913,0.0805760371537,0.26304031476,0.424192389067,0.0805760371537,0.302352126377,304,0.0113092810281,0.404708921832,0.506160370659,nan,nan,nan,nan,0.0,0.0,0.0,nan,200.45984095,448.88343039,449.383468023,449.17477188,nan,nan,nan,nan
1,214,1,1,1.0,1.0,0.331176099367,0,0.0,0.0,0.0,0.343369772374,0.0804655322726,0.262904240102,0.423835304647,0.0804655322726,0.31277346743,361,-0.166047812515,0.475607712818,0.0278173107143,nan,nan,nan,nan,0.0,0.0,0.0,nan,200.45984095,449.883568947,450.383595746,450.214745046,nan,nan,nan,nan
1,215,1,1,1.0,1.0,0.315035902429,0,0.0,0.0,0.0,0.343312525083,0.0802807511174,0.263031773966,0.423593276201,0.0802807511174,0.312517830481,493,0.689769084006,0.285700779988,-1.0,nan,nan,nan,nan,0.0,0.0,0.0,nan,200.45984095,450.883689543,451.383720904,451.198725445,nan,nan,nan,nan
1,216,0,0,0.0,1.0,0.418845140375,0,0.0,0.0,0.0,0.343180391333,0.0801161720198,0.263064219313,0.423296563352,0.0801161720198,0.355019047391,47,1.0,-0.0170755915744,-1.0,nan,nan,nan,nan,0.0,0.0,0.0,nan,200.45984095,451.883850623,452.383872861,452.302695763,nan,nan,nan,nan
1,217,1,1,1.0,1.0,0.322726964252,0,0.0,0.0,0.0,0.343532320398,0.0800952672211,0.263437053177,0.423627587619,0.0800952672211,0.352202669019,463,0.440238315199,0.376011795327,-1.0,nan,nan,nan,nan,0.0,0.0,0.0,nan,200.45984095,452.883955254,453.383987184,453.206682218,nan,nan,nan,nan
1,218,1,1,1.0,1.0,0.298608327284,0,0.0,0.0,0.0,0.343435999305,0.0799221265242,0.26351387278,0.423358125829,0.0799221265242,0.346726810637,276,0.268710435127,0.329430325417,0.627563005949,nan,nan,nan,nan,0.0,0.0,0.0,nan,200.45984095,453.884071003,454.384118899,454.18267933,nan,nan,nan,nan
1,219,1,1,1.0,1.0,0.298461502651,0,0.0,0.0,0.0,0.343229420171,0.0797955412138,0.263433878957,0.423024961385,0.0797955412138,0.306598931396,490,0.664660387652,0.296157848571,-1.0,nan,nan,nan,nan,0.0,0.0,0.0,nan,200.45984095,454.884200152,455.384259452,455.182661654,nan,nan,nan,nan
1,220,1,1,1.0,1.0,0.353963332949,0,0.0,0.0,0.0,0.343024062751,0.0796697666718,0.263354296079,0.422693829423,0.0796697666718,0.317011054295,221,0.851781464038,0.0945411604707,0.585422935822,nan,nan,nan,nan,0.0,0.0,0.0,nan,200.45984095,455.892668103,456.39268806,456.246631436,nan,nan,nan,nan
1,221,1,1,1.0,1.0,0.28146686987,0,0.0,0.0,0.0,0.343074013757,0.0794910855258,0.263582928231,0.422565099282,0.0794910855258,0.311297235157,428,0.170378320166,0.443486568519,-0.86866140055,nan,nan,nan,nan,0.0,0.0,0.0,nan,200.45984095,456.901109255,457.401154301,457.182576125,nan,nan,nan,nan
1,222,1,1,1.0,1.0,0.401333341608,0,0.0,0.0,0.0,0.342793981284,0.0794184128145,0.26337556847,0.422212394099,0.0794184128145,0.345587848142,326,-0.12383419111,0.444071765824,0.352223541474,nan,nan,nan,nan,0.0,0.0,0.0,nan,200.45984095,457.901230137,458.401279173,458.302563478,nan,nan,nan,nan
1,223,1,1,1.0,1.0,0.488849285757,0,0.0,0.0,0.0,0.343058865268,0.0793358715933,0.263722993674,0.422394736861,0.0793358715933,0.390549832412,181,1.0,-0.123914391386,0.3392011262,nan,nan,nan,nan,0.0,0.0,0.0,nan,200.45984095,458.909686114,459.41807937,459.3985354,nan,nan,nan,nan
1,224,1,1,1.0,1.0,0.36067195097,0,0.0,0.0,0.0,0.343715578873,0.0797567529237,0.26395882595,0.423472331797,0.0797567529237,0.416951526112,507,0.805995650865,0.232688349973,-1.0,nan,nan,nan,nan,0.0,0.0,0.0,nan,200.45984095,459.909856602,460.409868576,460.270528553,nan,nan,nan,nan
1,225,1,1,1.0,1.0,0.312548430869,0,0.0,0.0,0.0,0.343791616417,0.0795857894742,0.264205826942,0.423377405891,0.0795857894742,0.387356555865,40,1.0,0.0201165467467,-1.0,nan,nan,nan,nan,0.0,0.0,0.0,nan,200.45984095,460.909986036,461.40999687,461.222534467,nan,nan,nan,nan
1,226,1,1,1.0,1.0,0.328369889408,0,0.0,0.0,0.0,0.34365213791,0.0794352557433,0.264216882166,0.423087393653,0.0794352557433,0.333863423749,350,-0.175756816429,0.469490941964,0.138247479403,nan,nan,nan,nan,0.0,0.0,0.0,nan,200.45984095,461.910089526,462.410109768,462.238459416,nan,nan,nan,nan
1,227,0,0,0.0,1.0,0.472214730456,0,0.0,0.0,0.0,0.343584216805,0.0792650551183,0.264319161687,0.422849271923,0.0792650551183,0.371044350245,262,0.416452475899,0.2804144186,0.652815538838,nan,nan,nan,nan,0.0,0.0,0.0,nan,200.45984095,462.910235781,463.410266001,463.382450511,nan,nan,nan,nan
1,228,1,1,1.0,1.0,0.264095908729,0,0.0,0.0,0.0,0.34415337837,0.0795489528738,0.264604425496,0.423702331244,0.0795489528738,0.354893509531,480,0.580928072941,0.32870764083,-1.0,nan,nan,nan,nan,0.0,0.0,0.0,nan,200.45984095,463.910338986,464.4103655,464.174434895,nan,nan,nan,nan
1,229,1,1,1.0,1.0,0.263938820455,0,0.0,0.0,0.0,0.343800702292,0.0795504183971,0.264250283895,0.423351120689,0.0795504183971,0.333416486547,38,1.0,0.0306259494545,-1.0,nan,nan,nan,nan,0.0,0.0,0.0,nan,200.45984095,464.910464429,465.410493509,465.174403249,nan,nan,nan,nan
1,230,1,1,1.0,1.0,0.279467199231,0,0.0,0.0,0.0,0.343450430881,0.0795510159903,0.26389941489,0.423001446871,0.0795510159903,0.269167309472,291,0.122027637739,0.373441943191,0.573791926984,nan,nan,nan,nan,0.0,0.0,0.0,nan,200.45984095,465.918916415,466.418955473,466.198383614,nan,nan,nan,nan
1,231,1,1,1.0,1.0,0.286635963712,0,0.0,0.0,0.0,0.343171028122,0.0794891715434,0.263681856579,0.422660199666,0.0794891715434,0.276680661133,200,1.0,-0.0191209939188,0.47515178387,nan,nan,nan,nan,0.0,0.0,0.0,nan,200.45984095,466.935731436,467.435777622,467.2223674,nan,nan,nan,nan
1,232,1,1,1.0,1.0,0.294164520456,0,0.0,0.0,0.0,0.342925223495,0.0794033544042,0.26352186909,0.422328577899,0.0794033544042,0.286755894466,145,1.0,-0.281667413287,0.0150551701241,nan,nan,nan,nan,0.0,0.0,0.0,nan,200.45984095,467.94419112,468.444215638,468.23835564,nan,nan,nan,nan
1,233,1,1,1.0,1.0,0.310019050259,0,0.0,0.0,0.0,0.3427141382,0.0792959449988,0.263418193201,0.422010083199,0.0792959449988,0.296939844809,409,0.0429436170054,0.464793150178,-0.529461854507,nan,nan,nan,nan,0.0,0.0,0.0,nan,200.45984095,468.944304303,469.444343932,469.254323354,nan,nan,nan,nan
1,234,1,1,1.0,1.0,0.285889009247,0,0.0,0.0,0.0,0.342573211097,0.07915384936,0.263419361737,0.421727060457,0.07915384936,0.296690859987,358,-0.170583909915,0.474268316859,0.0585874414746,nan,nan,nan,nan,0.0,0.0,0.0,nan,200.45984095,469.944423474,470.444462532,470.230312483,nan,nan,nan,nan
1,235,1,1,1.0,1.0,0.277750059962,0,0.0,0.0,0.0,0.342329931261,0.0790706833815,0.263259247879,0.421400614642,0.0790706833815,0.291219373156,63,1.0,-0.102744642793,-1.0,nan,nan,nan,nan,0.0,0.0,0.0,nan,200.45984095,470.944547776,471.444601945,471.222297836,nan,nan,nan,nan
1,236,1,1,1.0,1.0,0.237658292986,0,0.0,0.0,0.0,0.342053948905,0.0790139292864,0.263040019618,0.421067878191,0.0790139292864,0.267099120732,510,0.830554458933,0.220436700166,-1.0,nan,nan,nan,nan,0.0,0.0,0.0,nan,200.45984095,471.94467607,472.444711992,472.182334363,nan,nan,nan,nan
1,237,1,1,1.0,1.0,0.237125731772,0,1.0,0.0,0.0,0.341609712071,0.0791379381694,0.262471773902,0.42074765024,0.0791379381694,0.250844694907,467,0.473005185182,0.365775667588,-1.0,nan,nan,nan,nan,0.0,0.0,0.0,nan,200.45984095,472.953130052,473.453175667,473.190255783,nan,nan,nan,nan
1,238,0,0,1.0,0.0,0.292968253372,0,0.0,0.0,0.0,0.341166983341,0.0792612008777,0.261905782463,0.420428184218,0.0792612008777,0.255917426044,403,0.00657627305109,0.469456436931,-0.450524507496,nan,nan,nan,nan,0.0,0.0,0.0,nan,200.45984095,473.953271175,474.453337032,474.246239428,nan,nan,nan,nan
1,239,1,1,1.0,1.0,0.332823960111,0,0.0,0.0,0.0,0.340963613172,0.0791554864419,0.26180812673,0.420119099614,0.0791554864419,0.287639315085,129,1.0,-0.310070485259,-0.146368003411,nan,nan,nan,nan,0.0,0.0,0.0,nan,200.45984095,474.953400038,475.45343425,475.286223999,nan,nan,nan,nan
1,240,1,1,1.0,1.0,0.324652509298,0,0.0,0.0,0.0,0.340929412949,0.078990773065,0.261938639884,0.419920186014,0.078990773065,0.316814907594,42,1.0,0.00954878589686,-1.0,nan,nan,nan,nan,0.0,0.0,0.0,nan,200.45984095,475.953541447,476.453563969,476.278193956,nan,nan,nan,nan
1,241,1,1,1.0,1.0,0.24421039247,0,0.0,0.0,0.0,0.34086130875,0.0788323489785,0.262028959771,0.419693657728,0.0788323489785,0.300562287293,507,0.805995650865,0.232688349973,-1.0,nan,nan,nan,nan,0.0,0.0,0.0,nan,200.45984095,476.961976042,477.462018521,477.206186434,nan,nan,nan,nan
1,242,1,1,1.0,1.0,0.268017703434,0,0.0,0.0,0.0,0.340458596599,0.0789139129259,0.261544683673,0.419372509525,0.0789139129259,0.278960201734,164,1.0,-0.209685835145,0.194761549991,nan,nan,nan,nan,0.0,0.0,0.0,nan,200.45984095,477.962129994,478.462155368,478.230147697,nan,nan,nan,nan
1,243,1,1,1.0,1.0,0.251571312314,0,1.0,0.0,0.0,0.34015801198,0.0788875786353,0.261270433344,0.419045590615,0.0788875786353,0.254599802739,211,0.948675772315,0.0413606888024,0.538689155053,nan,nan,nan,nan,0.0,0.0,0.0,nan,200.45984095,478.970556606,479.470604503,479.222127919,nan,nan,nan,nan
1,244,1,1,1.0,1.0,0.243406418944,1,0.0,0.0,1.0,0.339791951237,0.0789292611531,0.260862690084,0.41872121239,0.0789292611531,0.254331811564,500,0.748145934353,0.260058294274,-1.0,96.8090501796,353.19094982,1.62844982039,502.0,0.764740937618,0.25241357569,-1.0,2.12561773392,200.45984095,479.97069944,480.470727379,480.214105859,483.937864247,484.937855124,481.795895915,483.929523449
1,245,1,1,1.0,1.0,0.380011221394,0,0.0,0.0,0.0,0.339395302956,0.0790080055353,0.260387297421,0.418403308492,0.0790080055353,0.291662984217,347,-0.174938837379,0.46723881498,0.167157479366,nan,nan,nan,nan,0.0,0.0,0.0,nan,200.45984095,485.138024016,485.638049959,485.518035237,nan,nan,nan,nan
1,246,1,1,1.0,1.0,0.291807338363,0,0.0,0.0,0.0,0.339561761638,0.0788886243345,0.260673137304,0.418450385973,0.0788886243345,0.3050749929,390,-0.0641960347588,0.476284203309,-0.291947553613,nan,nan,nan,nan,0.0,0.0,0.0,nan,200.45984095,486.138178823,486.638175972,486.429986161,nan,nan,nan,nan
1,247,1,1,1.0,1.0,0.331350008491,0,0.0,0.0,0.0,0.339366845625,0.0787863152132,0.260580530412,0.418153160838,0.0787863152132,0.334389522749,238,0.675741828754,0.178727669763,0.638511091232,nan,nan,nan,nan,0.0,0.0,0.0,nan,200.45984095,487.146598878,487.646635086,487.477948887,nan,nan,nan,nan
1,248,1,1,1.0,1.0,0.339214979671,0,0.0,0.0,0.0,0.339334256856,0.0786276719869,0.260706584869,0.417961928843,0.0786276719869,0.320790775508,292,0.112881669716,0.376069582356,0.569261850688,nan,nan,nan,nan,0.0,0.0,0.0,nan,200.45984095,488.146751405,488.646801867,488.485966385,nan,nan,nan,nan
1,249,1,1,1.0,1.0,0.363060208503,0,0.0,0.0,0.0,0.339333773953,0.0784683455991,0.260865428354,0.417802119552,0.0784683455991,0.344541732222,155,1.0,-0.2479831371,0.111611878621,nan,nan,nan,nan,0.0,0.0,0.0,nan,200.45984095,489.146874567,489.646895664,489.509934776,nan,nan,nan,nan
1,250,1,1,1.0,1.0,0.290525827324,0,0.0,0.0,0.0,0.33942944506,0.0783244169805,0.261105028079,0.41775386204,0.0783244169805,0.330933671833,263,0.405698801511,0.284171736334,0.651829885785,nan,nan,nan,nan,0.0,0.0,0.0,nan,200.45984095,490.155370743,490.655360765,490.44589657,nan,nan,nan,nan
1,251,1,1,1.0,1.0,0.33010299434,0,0.0,0.0,0.0,0.339233044988,0.0782281470415,0.261004897947,0.41746119203,0.0782281470415,0.327896343389,131,1.0,-0.308451667147,-0.125800503078,nan,nan,nan,nan,0.0,0.0,0.0,nan,200.45984095,491.163791368,491.663819593,491.493894363,nan,nan,nan,nan
1,252,1,1,1.0,1.0,0.305932184448,0,0.0,0.0,0.0,0.339196524786,0.0780736608285,0.261122863957,0.417270185614,0.0780736608285,0.308853668704,335,-0.155595990888,0.455627721073,0.276893227044,nan,nan,nan,nan,0.0,0.0,0.0,nan,200.45984095,492.163926504,492.66394361,492.469858689,nan,nan,nan,nan
1,253,1,1,1.0,1.0,0.249792876886,0,0.0,0.0,0.0,0.339063997533,0.0779461515191,0.261117846014,0.417010149053,0.0779461515191,0.295276018558,425,0.149162615564,0.447529597292,-0.791715667876,nan,nan,nan,nan,0.0,0.0,0.0,nan,200.45984095,493.164043394,493.664074755,493.413836271,nan,nan,nan,nan
1,254,1,1,1.0,1.0,0.249626380391,0,0.0,0.0,0.0,0.338709747055,0.0779935372104,0.260716209844,0.416703284265,0.0779935372104,0.268450480575,280,0.228089347314,0.342018854333,0.61587222022,nan,nan,nan,nan,0.0,0.0,0.0,nan,200.45984095,494.164179385,494.664195066,494.413805766,nan,nan,nan,nan
1,255,1,1,1.0,1.0,0.2415065323,0,1.0,0.0,0.0,0.338357638886,0.0780396783789,0.260317960507,0.416397317265,0.0780396783789,0.246975263193,174,1.0,-0.160790688716,0.281981279739,nan,nan,nan,nan,0.0,0.0,0.0,nan,200.45984095,495.164289718,495.664319653,495.40579625,nan,nan,nan,nan
1,256,1,1,1.0,1.0,0.217363947537,1,0.0,0.0,1.0,0.337976335317,0.0781216906512,0.259854644666,0.416098025968,0.0781216906512,0.236165620076,510,0.830554458933,0.220436700166,-1.0,99.1351883594,350.864811641,-7.72893835941,499.0,0.739831889234,0.263827757734,-1.0,2.00056249648,200.45984095,496.164411454,496.664441675,496.381775402,500.006531002,501.006457447,497.989609354,499.998198757
1,257,1,1,1.0,1.0,0.350968389073,0,0.0,0.0,0.0,0.337503345561,0.0783319215078,0.259171424053,0.415835267069,0.0783319215078,0.269946289637,111,1.0,-0.298677811705,-0.336106236365,nan,nan,nan,nan,0.0,0.0,0.0,nan,200.45984095,501.206719565,501.706749786,501.557687955,nan,nan,nan,nan
1,258,1,1,1.0,1.0,0.254798895447,0,0.0,0.0,0.0,0.337555943387,0.0781832915179,0.259372651869,0.415739234905,0.0781832915179,0.274377077352,485,0.622774561467,0.312875618285,-1.0,nan,nan,nan,nan,0.0,0.0,0.0,nan,200.45984095,502.206833319,502.706951349,502.461632215,nan,nan,nan,nan
1,259,1,1,1.0,1.0,0.254658342572,0,0.0,0.0,0.0,0.337233931527,0.0782009436689,0.259032987859,0.415434875196,0.0782009436689,0.286808542364,85,1.0,-0.212156452387,-0.638781227021,nan,nan,nan,nan,0.0,0.0,0.0,nan,200.45984095,503.206961613,503.707038304,503.461619955,nan,nan,nan,nan
1,260,1,1,1.0,1.0,0.26251704176,0,1.0,0.0,0.0,0.336913871105,0.0782177171568,0.258696153948,0.415131588262,0.0782177171568,0.257324759926,144,1.0,-0.284423189345,0.00519445478499,nan,nan,nan,nan,0.0,0.0,0.0,nan,200.45984095,504.20709903,504.707131531,504.469616071,nan,nan,nan,nan
1,261,1,1,1.0,1.0,0.366387860849,1,0.0,0.0,1.0,0.33662662466,0.0782027961541,0.258423828506,0.414829420814,0.0782027961541,0.294521081727,46,1.0,-0.0117313672748,-1.0,75.2849283494,14.7150716506,-17.6286783494,21.0,1.0,0.116713997928,-1.0,1.60895267338,200.45984095,505.207227893,505.707252982,505.573615754,508.657634698,509.657781808,507.03244461,508.64932355
1,262,1,1,1.0,1.0,0.379357779166,0,0.0,0.0,0.0,0.336741090953,0.0780739972481,0.258667093705,0.414815088201,0.0780739972481,0.336087560592,356,-0.17284377641,0.473239407326,0.0788368070227,nan,nan,nan,nan,0.0,0.0,0.0,nan,200.45984095,509.866127852,510.366186867,510.245485632,nan,nan,nan,nan
1,263,0,0,0.0,1.0,0.52313533728,0,0.0,0.0,0.0,0.336904373283,0.0779687523518,0.258935620931,0.414873125635,0.0779687523518,0.422960325765,216,0.900975005756,0.0682271079607,0.563426584804,nan,nan,nan,nan,0.0,0.0,0.0,nan,200.45984095,510.866326565,511.366375602,511.389461902,nan,nan,nan,nan
1,264,1,1,1.0,1.0,0.307049479801,0,0.0,0.0,0.0,0.337615178489,0.0786625213535,0.258952657136,0.416277699843,0.0786625213535,0.403180865416,377,-0.121259861678,0.478700828387,-0.143695900877,nan,nan,nan,nan,0.0,0.0,0.0,nan,200.45984095,511.866404967,512.366437468,512.173454446,nan,nan,nan,nan
1,265,1,1,1.0,1.0,0.282877244754,0,0.0,0.0,0.0,0.337498959103,0.0785353637431,0.258963595359,0.416034322846,0.0785353637431,0.371020687278,316,-0.0718215561597,0.428203514031,0.427892255365,nan,nan,nan,nan,0.0,0.0,0.0,nan,200.45984095,512.866549511,513.366560059,513.149426755,nan,nan,nan,nan
1,266,1,1,1.0,1.0,0.282429357292,0,0.0,0.0,0.0,0.337292058669,0.0784582622502,0.258833796419,0.41575032092,0.0784582622502,0.290785360616,450,0.335949728395,0.405598329481,-1.0,nan,nan,nan,nan,0.0,0.0,0.0,nan,200.45984095,513.874984961,514.375044261,514.157414319,nan,nan,nan,nan
1,267,0,0,0.0,1.0,0.450240308186,0,0.0,0.0,0.0,0.337085029608,0.0783823014166,0.258702728191,0.415467331024,0.0783823014166,0.338515636744,112,1.0,-0.300501516081,-0.325324861792,nan,nan,nan,nan,0.0,0.0,0.0,nan,200.45984095,514.875144616,515.375168279,515.325384924,nan,nan,nan,nan
1,268,1,1,1.0,1.0,0.274118779227,0,0.0,0.0,0.0,0.337510425392,0.0785407095429,0.258969715849,0.416051134935,0.0785407095429,0.335596148235,344,-0.172543464245,0.464730234515,0.195503824632,nan,nan,nan,nan,0.0,0.0,0.0,nan,200.45984095,515.87524611,516.375273479,516.149364889,nan,nan,nan,nan
1,269,1,1,1.0,1.0,0.369963547681,0,0.0,0.0,0.0,0.337273003496,0.0784890675133,0.258783935983,0.415762071009,0.0784890675133,0.364774211698,185,1.0,-0.102214474652,0.370299946716,nan,nan,nan,nan,0.0,0.0,0.0,nan,200.45984095,516.875387803,517.375401773,517.245351351,nan,nan,nan,nan
1,270,1,1,1.0,1.0,0.250179183437,0,0.0,0.0,0.0,0.337394983138,0.078367846435,0.259027136704,0.415762829573,0.078367846435,0.298087170115,120,1.0,-0.310161497659,-0.240162905937,nan,nan,nan,nan,0.0,0.0,0.0,nan,200.45984095,517.915162828,518.417215811,518.165342011,nan,nan,nan,nan
1,271,1,1,1.0,1.0,0.184019000968,0,0.0,0.0,0.0,0.337070760835,0.0784019171659,0.258668843669,0.415472678001,0.0784019171659,0.268053910695,467,0.473005185182,0.365775667588,-1.0,nan,nan,nan,nan,0.0,0.0,0.0,nan,200.45984095,518.917277677,519.417320442,519.101296678,nan,nan,nan,nan
1,272,1,1,1.0,1.0,0.231861415552,0,1.0,0.0,0.0,0.336503902465,0.0788069274084,0.257696975056,0.415310829873,0.0788069274084,0.222019866652,180,1.0,-0.129278616986,0.331238955499,nan,nan,nan,nan,0.0,0.0,0.0,nan,200.45984095,519.917418515,520.417461565,520.149279931,nan,nan,nan,nan
1,273,0,0,1.0,0.0,0.255355404923,0,0.0,0.0,0.0,0.336117767827,0.078916865782,0.257200902045,0.415034633609,0.078916865782,0.223745273814,490,0.664660387652,0.296157848571,-1.0,nan,nan,nan,nan,0.0,0.0,0.0,nan,200.45984095,520.925915546,521.42594206,521.181270951,nan,nan,nan,nan
1,274,1,1,1.0,1.0,0.367244577268,0,0.0,0.0,0.0,0.335820847375,0.0789231712062,0.256897676169,0.414744018581,0.0789231712062,0.284820465914,285,0.178734351563,0.356878681702,0.598527012995,nan,nan,nan,nan,0.0,0.0,0.0,nan,200.45984095,521.926002786,522.426052108,522.293247363,nan,nan,nan,nan
1,275,1,1,1.0,1.0,0.295073409565,0,0.0,0.0,0.0,0.335935952613,0.0788013602513,0.257134592361,0.414737312864,0.0788013602513,0.305891130585,505,0.789537956352,0.240683140511,-1.0,nan,nan,nan,nan,0.0,0.0,0.0,nan,200.45984095,522.926159875,523.426161015,523.221233284,nan,nan,nan,nan
1,276,1,1,1.0,1.0,0.278938344447,0,0.0,0.0,0.0,0.335786819244,0.078696017264,0.25709080198,0.414482836508,0.078696017264,0.313752110427,393,-0.0489456633786,0.475102171109,-0.327443230616,nan,nan,nan,nan,0.0,0.0,0.0,nan,200.45984095,523.926255382,524.42629216,524.205193726,nan,nan,nan,nan
1,277,1,1,1.0,1.0,0.286788775586,0,0.0,0.0,0.0,0.335580097517,0.0786272979609,0.256952799556,0.414207395478,0.0786272979609,0.286933509866,260,0.438016636947,0.272781976488,0.654406567654,nan,nan,nan,nan,0.0,0.0,0.0,nan,200.45984095,524.926407054,525.426440695,525.213195829,nan,nan,nan,nan
1,278,1,1,1.0,1.0,0.286637104116,0,0.0,0.0,0.0,0.335403317365,0.0785394589171,0.256863858448,0.413942776283,0.0785394589171,0.28412140805,34,1.0,0.0514419701458,-1.0,nan,nan,nan,nan,0.0,0.0,0.0,nan,200.45984095,525.926533637,526.426544755,526.213170741,nan,nan,nan,nan
1,279,1,1,1.0,1.0,0.350491991965,0,0.0,0.0,0.0,0.335227266054,0.0784521013639,0.25677516469,0.413679367418,0.0784521013639,0.307972623889,96,1.0,-0.25681952169,-0.503302481145,nan,nan,nan,nan,0.0,0.0,0.0,nan,200.45984095,526.926632565,527.426696997,527.277124557,nan,nan,nan,nan
1,280,1,1,1.0,1.0,0.462334693642,0,0.0,0.0,0.0,0.33528217514,0.0783162054818,0.256965969658,0.413598380622,0.0783162054818,0.366487929908,5,0.88714030954,0.190659852496,-1.0,nan,nan,nan,nan,0.0,0.0,0.0,nan,200.45984095,527.926786518,528.426812747,528.389121211,nan,nan,nan,nan
1,281,1,1,1.0,1.0,0.350190644385,0,0.0,0.0,0.0,0.335737560511,0.0785435860554,0.257193974456,0.414281146566,0.0785435860554,0.387672443331,268,0.35230222188,0.302367520405,0.645005310408,nan,nan,nan,nan,0.0,0.0,0.0,nan,200.45984095,528.926902267,529.426928496,529.277092912,nan,nan,nan,nan
1,282,1,1,1.0,1.0,0.310039291857,0,0.0,0.0,0.0,0.335789178668,0.0784079447871,0.257381233881,0.414197123455,0.0784079447871,0.374188209961,13,0.950262168777,0.154664060346,-1.0,nan,nan,nan,nan,0.0,0.0,0.0,nan,200.45984095,529.927026284,530.427054509,530.237065576,nan,nan,nan,nan
1,283,1,1,1.0,1.0,0.349893573206,0,0.0,0.0,0.0,0.33569754206,0.0782833234366,0.257414218623,0.413980865496,0.0782833234366,0.336707836483,202,1.0,-0.00802826454356,0.487596984314,nan,nan,nan,nan,0.0,0.0,0.0,nan,200.45984095,530.927150587,531.427184798,531.27704416,nan,nan,nan,nan
1,284,1,1,1.0,1.0,0.309731957503,0,0.0,0.0,0.0,0.335747882596,0.0781489561355,0.25759892646,0.413896838731,0.0781489561355,0.323221607522,282,0.208142307666,0.34807905204,0.609295500931,nan,nan,nan,nan,0.0,0.0,0.0,nan,200.45984095,531.927290569,532.427305679,532.237022527,nan,nan,nan,nan
1,285,1,1,1.0,1.0,0.285611895146,0,0.0,0.0,0.0,0.335655953532,0.0780260347067,0.257629918825,0.413681988239,0.0780260347067,0.315079141951,374,-0.132039125116,0.478634076427,-0.110628443238,nan,nan,nan,nan,0.0,0.0,0.0,nan,200.45984095,532.92741088,533.427443951,533.213022775,nan,nan,nan,nan
1,286,1,1,1.0,1.0,0.365432500606,0,0.0,0.0,0.0,0.335479742059,0.077944932744,0.257534809315,0.413424674803,0.077944932744,0.320258784418,254,0.503011129055,0.248947817922,0.65613358125,nan,nan,nan,nan,0.0,0.0,0.0,nan,200.45984095,533.927550008,534.427565403,534.292982508,nan,nan,nan,nan
1,287,0,0,0.0,1.0,0.541275204858,0,0.0,0.0,0.0,0.335584839457,0.077828222484,0.257756616973,0.413413061941,0.077828222484,0.39743986687,61,1.0,-0.0921163965413,-1.0,nan,nan,nan,nan,0.0,0.0,0.0,nan,200.45984095,534.927682292,535.42771907,535.468957497,nan,nan,nan,nan
1,288,1,1,1.0,1.0,0.317178121302,0,0.0,0.0,0.0,0.336304036539,0.0786350287563,0.257669007783,0.414939065295,0.0786350287563,0.407961942255,350,-0.175756816429,0.469490941964,0.138247479403,nan,nan,nan,nan,0.0,0.0,0.0,nan,200.45984095,535.927777515,536.427802603,536.244955636,nan,nan,nan,nan
1,289,0,0,0.0,1.0,0.405005676439,0,0.0,0.0,0.0,0.336237395719,0.0785060041614,0.257731391558,0.414743399881,0.0785060041614,0.421153000866,138,1.0,-0.29832987918,-0.0546508148191,nan,nan,nan,nan,0.0,0.0,0.0,nan,200.45984095,536.927931182,537.427964539,537.332936859,nan,nan,nan,nan
1,290,1,1,1.0,1.0,0.284880621359,0,0.0,0.0,0.0,0.336476174472,0.0784739198955,0.258002254576,0.414950094367,0.0784739198955,0.3356881397,230,0.760023132926,0.140224214653,0.61781109556,nan,nan,nan,nan,0.0,0.0,0.0,nan,200.45984095,537.928022698,538.428060616,538.21290332,nan,nan,nan,nan
1,291,1,1,1.0,1.0,0.268787750276,0,0.0,0.0,0.0,0.336297643146,0.078396601675,0.257901041471,0.414694244821,0.078396601675,0.319558016025,59,1.0,-0.0814409933332,-1.0,nan,nan,nan,nan,0.0,0.0,0.0,nan,200.45984095,538.928177221,539.428198603,539.196964971,nan,nan,nan,nan
1,292,1,1,1.0,1.0,0.276596557582,0,0.0,0.0,0.0,0.336064850412,0.0783613142896,0.257703536123,0.414426164702,0.0783613142896,0.276754976405,281,0.218083397074,0.345068392493,0.612644422055,nan,nan,nan,nan,0.0,0.0,0.0,nan,200.45984095,539.928280711,540.42832205,540.204877269,nan,nan,nan,nan
1,293,1,1,1.0,1.0,0.260428420966,0,0.0,0.0,0.0,0.335860492018,0.0783039290222,0.257556562995,0.41416442104,0.0783039290222,0.268604242941,219,0.871627318206,0.0840881726889,0.576959667802,nan,nan,nan,nan,0.0,0.0,0.0,nan,200.45984095,540.928420124,541.428455761,541.188848545,nan,nan,nan,nan
1,294,1,1,1.0,1.0,0.276363348123,0,0.0,0.0,0.0,0.335602163007,0.0782938474778,0.257308315529,0.413896010485,0.0782938474778,0.271129442224,67,1.0,-0.12380466598,-1.0,nan,nan,nan,nan,0.0,0.0,0.0,nan,200.45984095,541.928531596,542.428570085,542.204894945,nan,nan,nan,nan
1,295,1,1,1.0,1.0,0.315812221495,0,0.0,0.0,0.0,0.335399982751,0.0782364451118,0.25716353764,0.413636427863,0.0782364451118,0.284201330195,368,-0.150457169737,0.477793263397,-0.0457341785459,nan,nan,nan,nan,0.0,0.0,0.0,nan,200.45984095,542.937015798,543.437031194,543.25282802,nan,nan,nan,nan
1,296,1,1,1.0,1.0,0.259717104025,0,0.0,0.0,0.0,0.335333357713,0.0781116022867,0.257221755426,0.41344496,0.0781116022867,0.283964224548,38,1.0,0.0306259494545,-1.0,nan,nan,nan,nan,0.0,0.0,0.0,nan,200.45984095,543.937130692,544.437163764,544.196847796,nan,nan,nan,nan
1,297,1,1,1.0,1.0,0.259529225063,0,0.0,0.0,0.0,0.33507703143,0.0781028575283,0.256974173901,0.413179888958,0.0781028575283,0.278352850194,210,0.958022500947,0.0359304984579,0.533421856807,nan,nan,nan,nan,0.0,0.0,0.0,nan,200.45984095,544.937238174,545.437281224,545.196767399,nan,nan,nan,nan
1,298,1,1,1.0,1.0,0.243365079863,0,1.0,0.0,0.0,0.334821802354,0.0780939492566,0.256727853097,0.412915751611,0.0780939492566,0.254203802984,343,-0.171388175652,0.463836419185,0.204822810802,nan,nan,nan,nan,0.0,0.0,0.0,nan,200.45984095,545.937381008,546.437406666,546.180746088,nan,nan,nan,nan
1,299,1,1,1.0,1.0,0.275242346572,1,0.0,0.0,1.0,0.334513867261,0.0781421691246,0.256371698137,0.412656036386,0.0781421691246,0.259378883832,434,0.213881816697,0.43461034373,-1.0,138.761437477,311.238562523,6.08231252298,443.0,0.281558783006,0.419268214519,-1.0,1.97557146288,200.45984095,546.937497327,547.437546079,547.212739674,550.754640382,551.754247233,548.76271832,550.746298158
1,300,1,1,0.0,0.0,0.449736256851,0,0.0,0.0,0.0,0.334314969541,0.0780862177739,0.256228751767,0.412401187315,0.0780862177739,0.322781227762,242,0.632911854383,0.197161183215,0.645921401967,nan,nan,nan,nan,0.0,0.0,0.0,nan,200.45984095,551.95489024,552.454837498,552.404626497,nan,nan,nan,nan
1,301,1,1,1.0,1.0,0.345661308151,0,0.0,0.0,0.0,0.334700993913,0.0782398299286,0.256461163985,0.412940823842,0.0782398299286,0.356879970524,118,1.0,-0.308588151016,-0.261285249573,nan,nan,nan,nan,0.0,0.0,0.0,nan,200.45984095,552.95494726,553.454982042,553.300608568,nan,nan,nan,nan
1,302,1,1,1.0,1.0,0.289493490942,0,0.0,0.0,0.0,0.334737528294,0.0781118760337,0.25662565226,0.412849404328,0.0781118760337,0.361630351981,367,-0.15309091083,0.477560897992,-0.0350816338538,nan,nan,nan,nan,0.0,0.0,0.0,nan,200.45984095,553.955090379,554.455080115,554.24458387,nan,nan,nan,nan
1,303,1,1,1.0,1.0,0.313385190675,0,0.0,0.0,0.0,0.334587215878,0.0780254617149,0.256561754163,0.412612677593,0.0780254617149,0.316179996589,126,1.0,-0.311411754845,-0.177408431044,nan,nan,nan,nan,0.0,0.0,0.0,nan,200.45984095,554.95518161,555.455207839,555.2685668,nan,nan,nan,nan
1,304,1,1,1.0,1.0,0.241240822012,0,0.0,0.0,0.0,0.334517010496,0.0779056955131,0.256611314983,0.412422706009,0.0779056955131,0.281373167876,257,0.470472903111,0.261039853404,0.655841377839,nan,nan,nan,nan,0.0,0.0,0.0,nan,200.45984095,555.955310188,556.455337273,556.19655101,nan,nan,nan,nan
1,305,1,1,1.0,1.0,0.329165310133,0,0.0,0.0,0.0,0.33420916829,0.0779607996992,0.256248368591,0.412169967989,0.0779607996992,0.294597107607,140,1.0,-0.294209249228,-0.0345777392028,nan,nan,nan,nan,0.0,0.0,0.0,nan,200.45984095,556.955427363,557.455489229,557.284592673,nan,nan,nan,nan
1,306,1,1,1.0,1.0,0.328951487318,0,0.0,0.0,0.0,0.334192576651,0.07783300491,0.256359571741,0.412025581561,0.07783300491,0.299785873154,500,0.748145934353,0.260058294274,-1.0,nan,nan,nan,nan,0.0,0.0,0.0,nan,200.45984095,557.955573618,558.455596426,558.284525105,nan,nan,nan,nan
1,307,1,1,1.0,1.0,0.304467641283,0,0.0,0.0,0.0,0.334175392752,0.0777058826721,0.25646951008,0.411881275424,0.0777058826721,0.320861479578,231,0.749609680972,0.145151270079,0.620821461523,nan,nan,nan,nan,0.0,0.0,0.0,nan,200.45984095,558.964021042,559.464077207,559.268488684,nan,nan,nan,nan
1,308,1,1,1.0,1.0,0.296322134556,0,0.0,0.0,0.0,0.334078308597,0.0775973339426,0.256480974654,0.411675642539,0.0775973339426,0.309913754386,456,0.383612429175,0.392633185378,-1.0,nan,nan,nan,nan,0.0,0.0,0.0,nan,200.45984095,559.964143349,560.464212628,560.260465484,nan,nan,nan,nan
1,309,1,1,1.0,1.0,0.360151648754,0,0.0,0.0,0.0,0.333955324316,0.0775007162555,0.256454608061,0.411456040572,0.0775007162555,0.320313808198,165,1.0,-0.205056383665,0.203745440608,nan,nan,nan,nan,0.0,0.0,0.0,nan,200.45984095,560.964291029,561.464312127,561.324442678,nan,nan,nan,nan
1,310,1,1,1.0,1.0,0.271694884636,0,0.0,0.0,0.0,0.334040377318,0.0773891509837,0.256651226334,0.411429528301,0.0773891509837,0.309389555982,51,1.0,-0.0385160204876,-1.0,nan,nan,nan,nan,0.0,0.0,0.0,nan,200.45984095,561.972718497,562.472767534,562.244413382,nan,nan,nan,nan
1,311,1,1,1.0,1.0,0.239565021824,0,0.0,0.0,0.0,0.333838611969,0.0773449222808,0.256493689689,0.41118353425,0.0773449222808,0.290470518405,369,-0.147694689129,0.477999187239,-0.0564338676883,nan,nan,nan,nan,0.0,0.0,0.0,nan,200.45984095,562.972852492,563.472886419,563.212417514,nan,nan,nan,nan
1,312,1,1,1.0,1.0,0.303404514445,0,0.0,0.0,0.0,0.333534503614,0.0774048859469,0.256129617667,0.410939389561,0.0774048859469,0.271554806968,266,0.373577590308,0.295207490188,0.648113769863,nan,nan,nan,nan,0.0,0.0,0.0,nan,200.45984095,563.97297822,564.473023836,564.276382735,nan,nan,nan,nan
1,313,0,0,1.0,0.0,0.287216991419,0,0.0,0.0,0.0,0.33343762262,0.0772991635135,0.256138459106,0.410736786133,0.0772991635135,0.276728842563,197,1.0,-0.035797595552,0.455774741445,nan,nan,nan,nan,0.0,0.0,0.0,nan,200.45984095,564.973157261,565.473188907,565.260374253,nan,nan,nan,nan
1,314,1,1,1.0,1.0,0.391047896817,0,0.0,0.0,0.0,0.333289479571,0.0772193942136,0.256070085358,0.410508873785,0.0772193942136,0.327223134227,354,-0.174470673547,0.472100788149,0.0988677247603,nan,nan,nan,nan,0.0,0.0,0.0,nan,200.45984095,565.97322768,566.473265028,566.364275577,nan,nan,nan,nan
1,315,1,1,1.0,1.0,0.334603250492,0,0.0,0.0,0.0,0.333474011256,0.0771648136022,0.256309197653,0.410638824858,0.0771648136022,0.33762271291,57,1.0,-0.0707313323512,-1.0,nan,nan,nan,nan,0.0,0.0,0.0,nan,200.45984095,566.981711882,567.481726137,567.316315133,nan,nan,nan,nan
1,316,1,1,1.0,1.0,0.31811181386,0,0.0,0.0,0.0,0.333477607559,0.0770418679819,0.256435739577,0.410519475541,0.0770418679819,0.347920987057,140,1.0,-0.294209249228,-0.0345777392028,nan,nan,nan,nan,0.0,0.0,0.0,nan,200.45984095,567.990177268,568.490198365,568.308289082,nan,nan,nan,nan
1,317,1,1,1.0,1.0,0.355974122416,0,0.0,0.0,0.0,0.333428827261,0.0769243387624,0.256504488499,0.410353166024,0.0769243387624,0.336229728923,65,1.0,-0.113312155659,-1.0,nan,nan,nan,nan,0.0,0.0,0.0,nan,200.45984095,569.040304449,569.540330963,569.396278572,nan,nan,nan,nan
1,318,1,1,1.0,1.0,0.355845258571,0,0.0,0.0,0.0,0.333500173132,0.0768129644921,0.25668720864,0.410313137624,0.0768129644921,0.343310398282,479,0.572572153349,0.331768222426,-1.0,nan,nan,nan,nan,0.0,0.0,0.0,nan,200.45984095,570.040413927,570.540450419,570.396259185,nan,nan,nan,nan
1,319,1,1,1.0,1.0,0.267697254429,0,0.0,0.0,0.0,0.333570662361,0.0767019485766,0.256868713784,0.410272610937,0.0767019485766,0.326505545139,436,0.228681708805,0.431413732101,-1.0,nan,nan,nan,nan,0.0,0.0,0.0,nan,200.45984095,571.04054279,571.540588691,571.308240045,nan,nan,nan,nan
1,320,1,1,1.0,1.0,0.27555338759,0,0.0,0.0,0.0,0.333363513279,0.0766700138684,0.256693499411,0.410033527148,0.0766700138684,0.29969863353,91,1.0,-0.237709898716,-0.562722318432,nan,nan,nan,nan,0.0,0.0,0.0,nan,200.45984095,572.040675931,572.54073181,572.316229319,nan,nan,nan,nan
1,321,1,1,1.0,1.0,0.267375379801,0,0.0,0.0,0.0,0.333182290315,0.07661793173,0.256564358585,0.409800222045,0.07661793173,0.27020867394,497,0.723174939644,0.271260599794,-1.0,nan,nan,nan,nan,0.0,0.0,0.0,nan,200.45984095,573.040821045,573.540833304,573.308196425,nan,nan,nan,nan
1,322,0,0,1.0,0.0,0.26725421357,0,0.0,0.0,0.0,0.332976643719,0.0765862482978,0.256390395421,0.409562892017,0.0765862482978,0.270060993653,54,1.0,-0.0546292063271,-1.0,nan,nan,nan,nan,0.0,0.0,0.0,nan,200.45984095,574.040953045,574.540980129,574.308207259,nan,nan,nan,nan
1,323,1,1,1.0,1.0,0.323062808486,0,0.0,0.0,0.0,0.332771900946,0.0765545247569,0.256217376189,0.409326425703,0.0765545247569,0.285897467285,157,1.0,-0.240048375319,0.130425901556,nan,nan,nan,nan,0.0,0.0,0.0,nan,200.45984095,575.041042281,575.541109849,575.364105089,nan,nan,nan,nan
1,324,1,1,1.0,1.0,0.282988147344,0,0.0,0.0,0.0,0.332741748485,0.0764374678951,0.25630428059,0.40917921638,0.0764374678951,0.291101723133,205,1.0,0.00854800403903,0.505535240796,nan,nan,nan,nan,0.0,0.0,0.0,nan,200.45984095,576.041185114,576.541209062,576.324173261,nan,nan,nan,nan
1,325,1,1,1.0,1.0,0.330818017479,0,0.0,0.0,0.0,0.332587712568,0.0763690892968,0.256218623272,0.408956801865,0.0763690892968,0.31228965777,317,-0.077772836126,0.429938605076,0.420733606481,nan,nan,nan,nan,0.0,0.0,0.0,nan,200.45984095,577.041299153,577.5413633,577.37211717,nan,nan,nan,nan
1,326,1,1,1.0,1.0,0.314665276092,0,0.0,0.0,0.0,0.332582250546,0.0762512078747,0.256331042672,0.408833458421,0.0762512078747,0.309490480305,396,-0.0330153705648,0.473684876347,-0.363523780775,nan,nan,nan,nan,0.0,0.0,0.0,nan,200.45984095,578.041436855,578.541464794,578.356102131,nan,nan,nan,nan
1,327,1,1,1.0,1.0,0.434492119588,0,0.0,0.0,0.0,0.332527121394,0.076140274631,0.256386846763,0.408667396025,0.076140274631,0.359991804386,144,1.0,-0.284423189345,0.00519445478499,nan,nan,nan,nan,0.0,0.0,0.0,nan,200.45984095,579.041572276,579.541588241,579.476064395,nan,nan,nan,nan
1,328,1,1,1.0,1.0,0.354019212071,0,0.0,0.0,0.0,0.332839897462,0.0762322277475,0.256607669715,0.40907212521,0.0762322277475,0.367725535917,15,0.965734432428,0.145352784795,-1.0,nan,nan,nan,nan,0.0,0.0,0.0,nan,200.45984095,580.050028253,580.55006161,580.404047465,nan,nan,nan,nan
1,329,1,1,1.0,1.0,0.289547374239,0,0.0,0.0,0.0,0.332904666009,0.0761245583598,0.256780107649,0.409029224368,0.0761245583598,0.359352901966,278,0.248285521772,0.335802812283,0.621962573991,nan,nan,nan,nan,0.0,0.0,0.0,nan,200.45984095,581.058485941,581.558539539,581.348033315,nan,nan,nan,nan
1,330,1,1,1.0,1.0,0.273411168484,0,0.0,0.0,0.0,0.332772479143,0.0760460035177,0.256726475626,0.408818482661,0.0760460035177,0.305659251598,355,-0.173737462994,0.472683863687,0.0888799762457,nan,nan,nan,nan,0.0,0.0,0.0,nan,200.45984095,582.058611669,582.558643315,582.332022837,nan,nan,nan,nan
1,331,1,1,1.0,1.0,0.272924793186,0,0.0,0.0,0.0,0.332592049628,0.0760006259014,0.256591423726,0.408592675529,0.0760006259014,0.278627778636,34,1.0,0.0514419701458,-1.0,nan,nan,nan,nan,0.0,0.0,0.0,nan,200.45984095,583.067059378,583.567096726,583.339984172,nan,nan,nan,nan
1,332,1,1,1.0,1.0,0.352430366678,0,0.0,0.0,0.0,0.33241123976,0.0759562213078,0.256455018452,0.408367461068,0.0759562213078,0.299588776116,84,1.0,-0.20765784414,-0.652191087791,nan,nan,nan,nan,0.0,0.0,0.0,nan,200.45984095,584.075531036,584.575555554,584.427961403,nan,nan,nan,nan
1,333,1,1,1.0,1.0,0.279963838402,0,0.0,0.0,0.0,0.332471720506,0.0758493547509,0.256622365755,0.408321075257,0.0758493547509,0.301772999422,447,0.312467642152,0.411646472288,-1.0,nan,nan,nan,nan,0.0,0.0,0.0,nan,200.45984095,585.083979316,585.584028352,585.363943154,nan,nan,nan,nan
1,334,1,1,1.0,1.0,0.279790784465,0,0.0,0.0,0.0,0.332313564234,0.0757896784857,0.256523885749,0.40810324272,0.0757896784857,0.304061663182,17,0.981069150956,0.135921910835,-1.0,nan,nan,nan,nan,0.0,0.0,0.0,nan,200.45984095,586.084129847,586.584148093,586.363920631,nan,nan,nan,nan
1,335,1,1,1.0,1.0,0.295365063706,0,0.0,0.0,0.0,0.332155838169,0.0757303454586,0.25642549271,0.407886183628,0.0757303454586,0.285039895525,69,1.0,-0.134207199312,-0.939648005704,nan,nan,nan,nan,0.0,0.0,0.0,nan,200.45984095,587.092584399,587.592611768,587.387949463,nan,nan,nan,nan
1,336,1,1,1.0,1.0,0.407171843341,0,0.0,0.0,0.0,0.33204568615,0.0756436035239,0.256402082626,0.407689289673,0.0756436035239,0.327442563837,260,0.438016636947,0.272781976488,0.654406567654,nan,nan,nan,nan,0.0,0.0,0.0,nan,200.45984095,588.092715258,588.592730653,588.499887102,nan,nan,nan,nan
1,337,1,1,1.0,1.0,0.446703965077,0,0.0,0.0,0.0,0.332269943335,0.0756417317452,0.25662821159,0.40791167508,0.0756417317452,0.383080290708,128,1.0,-0.310663006781,-0.156689791083,nan,nan,nan,nan,0.0,0.0,0.0,nan,200.45984095,589.101168385,589.601214285,589.54787235,nan,nan,nan,nan
1,338,1,1,1.0,1.0,0.342205647379,0,0.0,0.0,0.0,0.332610520781,0.0757858855644,0.256824635217,0.408396406345,0.0757858855644,0.398693818599,178,1.0,-0.139919655122,0.315097826042,nan,nan,nan,nan,0.0,0.0,0.0,nan,200.45984095,590.109620085,590.609671973,590.451825733,nan,nan,nan,nan
1,339,0,0,0.0,1.0,0.438054691767,0,0.0,0.0,0.0,0.332638992967,0.0756751597705,0.256963833196,0.408314152737,0.0756751597705,0.408988101408,400,-0.0107874812989,0.471427301814,-0.412692688905,nan,nan,nan,nan,0.0,0.0,0.0,nan,200.45984095,591.109778885,591.609805969,591.547833576,nan,nan,nan,nan
1,340,1,1,1.0,1.0,0.317551598186,0,0.0,0.0,0.0,0.332950873732,0.0757797247154,0.257171149017,0.408730598448,0.0757797247154,0.365937312444,505,0.789537956352,0.240683140511,-1.0,nan,nan,nan,nan,0.0,0.0,0.0,nan,200.45984095,592.118236002,592.618248261,592.4357876,nan,nan,nan,nan
1,341,1,1,1.0,1.0,0.281932147918,0,0.0,0.0,0.0,0.332905448141,0.0756724811999,0.257232966941,0.408577929341,0.0756724811999,0.345846145957,105,1.0,-0.285049837405,-0.401580786678,nan,nan,nan,nan,0.0,0.0,0.0,nan,200.45984095,593.15383179,593.660040062,593.435763937,nan,nan,nan,nan
1,342,1,1,1.0,1.0,0.291606914951,0,0.0,0.0,0.0,0.33275552667,0.0756115189375,0.257144007732,0.408367045607,0.0756115189375,0.297030220351,166,1.0,-0.20036215083,0.21267421211,nan,nan,nan,nan,0.0,0.0,0.0,nan,200.45984095,594.160146403,594.660167215,594.451753318,nan,nan,nan,nan
1,343,1,1,1.0,1.0,0.323491309304,0,0.0,0.0,0.0,0.332634856254,0.0755333499876,0.257101506266,0.408168206242,0.0755333499876,0.299010124058,375,-0.128556699755,0.478682433309,-0.121605159467,nan,nan,nan,nan,0.0,0.0,0.0,nan,200.45984095,595.160278688,595.660289522,595.483769997,nan,nan,nan,nan
1,344,1,1,1.0,1.0,0.243312907172,0,0.0,0.0,0.0,0.332608120737,0.0754244560962,0.25718366464,0.408032576833,0.0754244560962,0.286137043809,286,0.169078956243,0.359734776014,0.594698705761,nan,nan,nan,nan,0.0,0.0,0.0,nan,200.45984095,596.160396148,596.660419241,596.403709055,nan,nan,nan,nan
1,345,1,1,1.0,1.0,0.267188926227,0,0.0,0.0,0.0,0.332347784837,0.0754681521439,0.256879632693,0.407815936981,0.0754681521439,0.277997714235,352,-0.17544712699,0.470851603012,0.118673592819,nan,nan,nan,nan,0.0,0.0,0.0,nan,200.45984095,597.160524727,597.660557798,597.427713653,nan,nan,nan,nan
1,346,1,1,1.0,1.0,0.266694853315,0,0.0,0.0,0.0,0.33215836955,0.0754399872504,0.2567183823,0.407598356801,0.0754399872504,0.259065562238,59,1.0,-0.0814409933332,-1.0,nan,nan,nan,nan,0.0,0.0,0.0,nan,200.45984095,598.168977283,598.669003227,598.435672136,nan,nan,nan,nan
1,347,1,1,1.0,1.0,0.290229611332,0,0.0,0.0,0.0,0.331968620228,0.0754127384573,0.256555881771,0.407381358685,0.0754127384573,0.274704463625,108,1.0,-0.292426609412,-0.368663285579,nan,nan,nan,nan,0.0,0.0,0.0,nan,200.45984095,599.177434971,599.677497407,599.467664582,nan,nan,nan,nan
1,348,1,1,1.0,1.0,0.322063543601,0,0.0,0.0,0.0,0.331847987254,0.0753370096263,0.256510977628,0.40718499688,0.0753370096263,0.292996002749,231,0.749609680972,0.145151270079,0.620821461523,nan,nan,nan,nan,0.0,0.0,0.0,nan,200.45984095,600.177588638,600.677605174,600.499652182,nan,nan,nan,nan
1,349,1,1,1.0,1.0,0.27360817045,0,0.0,0.0,0.0,0.33181979001,0.0752302049403,0.25658958507,0.40704999495,0.0752302049403,0.295300441794,355,-0.173737462994,0.472683863687,0.0888799762457,nan,nan,nan,nan,0.0,0.0,0.0,nan,200.45984095,601.186027225,601.686056875,601.459635395,nan,nan,nan,nan
1,350,0,0,0.0,1.0,0.417388579808,0,0.0,0.0,0.0,0.331652515241,0.0751866339056,0.256465881336,0.406839149147,0.0751866339056,0.33768676462,5,0.88714030954,0.190659852496,-1.0,nan,nan,nan,nan,0.0,0.0,0.0,nan,200.45984095,602.18621995,602.686216244,602.60360853,nan,nan,nan,nan
1,351,1,1,1.0,1.0,0.288947245106,0,0.0,0.0,0.0,0.331898177317,0.0752185739985,0.256679603319,0.407116751316,0.0752185739985,0.326647998455,125,1.0,-0.311567427947,-0.187805059354,nan,nan,nan,nan,0.0,0.0,0.0,nan,200.45984095,603.194621759,603.694652835,603.483569004,nan,nan,nan,nan
1,352,1,1,1.0,1.0,0.296816207701,0,0.0,0.0,0.0,0.331775460368,0.0751460204045,0.256629439964,0.406921480773,0.0751460204045,0.334384010872,448,0.32026743599,0.409662251776,-1.0,nan,nan,nan,nan,0.0,0.0,0.0,nan,200.45984095,604.194742355,604.694779988,604.491558563,nan,nan,nan,nan
1,353,1,1,1.0,1.0,0.27265138505,0,0.0,0.0,0.0,0.331675861358,0.0750620294556,0.256613831902,0.406737890813,0.0750620294556,0.286138279286,258,0.459642287315,0.26499291187,0.655490062901,nan,nan,nan,nan,0.0,0.0,0.0,nan,200.45984095,605.194872359,605.694898588,605.467523744,nan,nan,nan,nan
1,354,0,0,0.0,1.0,0.440494267037,0,0.0,0.0,0.0,0.331508178187,0.0750211370358,0.256487041151,0.406529315222,0.0750211370358,0.336653953263,109,1.0,-0.294638327523,-0.357773695079,nan,nan,nan,nan,0.0,0.0,0.0,nan,200.45984095,606.195024316,606.695047124,606.635518583,nan,nan,nan,nan
1,355,1,1,1.0,1.0,0.336371136829,0,0.0,0.0,0.0,0.331816920648,0.0751384088623,0.256678511786,0.40695532951,0.0751384088623,0.349838929639,236,0.697004556276,0.169301754335,0.634065852989,nan,nan,nan,nan,0.0,0.0,0.0,nan,200.45984095,607.195126951,607.695147478,607.531498088,nan,nan,nan,nan
1,356,1,1,1.0,1.0,0.312200897606,0,0.0,0.0,0.0,0.331829785665,0.0750325954401,0.256797190225,0.406862381105,0.0750325954401,0.363022100491,350,-0.175756816429,0.469490941964,0.138247479403,nan,nan,nan,nan,0.0,0.0,0.0,nan,200.45984095,608.195262942,608.695295728,608.50746384,nan,nan,nan,nan
1,357,1,1,1.0,1.0,0.256069287658,0,0.0,0.0,0.0,0.331774493023,0.0749340630698,0.256840429953,0.406708556093,0.0749340630698,0.301547107364,415,0.0813077335083,0.459153678902,-0.614968023274,nan,nan,nan,nan,0.0,0.0,0.0,nan,200.45984095,609.19538753,609.695399504,609.451456817,nan,nan,nan,nan
1,358,1,1,1.0,1.0,0.25563508505,0,0.0,0.0,0.0,0.331561837952,0.0749359385756,0.256625899376,0.406497776527,0.0749359385756,0.274635090105,78,1.0,-0.179467652321,-0.739907630878,nan,nan,nan,nan,0.0,0.0,0.0,nan,200.45984095,610.203821554,610.703893684,610.459456639,nan,nan,nan,nan
1,359,1,1,1.0,1.0,0.223490967415,0,1.0,0.0,0.0,0.331349157972,0.0749384304632,0.256410727508,0.406287588435,0.0749384304632,0.245065113374,169,1.0,-0.185917379452,0.239118302078,nan,nan,nan,nan,0.0,0.0,0.0,nan,200.45984095,611.203960967,611.704026824,611.427451934,nan,nan,nan,nan
1,360,1,1,1.0,1.0,0.343314674683,1,0.0,0.0,1.0,0.33104787811,0.0750498939885,0.255997984121,0.406097772098,0.0750498939885,0.274146909049,90,1.0,-0.233635786423,-0.574971871003,50.614427099,39.385572901,-23.895677099,56.0,1.0,-0.0653675053377,-1.0,1.62550569093,200.45984095,612.20408869,612.704118625,612.547403365,615.671155709,616.6705992,614.029303411,615.662822324
1,361,1,1,1.0,1.0,0.355946752941,0,0.0,0.0,0.0,0.331082047459,0.0749480833039,0.256133964156,0.406030130763,0.0749480833039,0.30758413168,142,1.0,-0.289568116499,-0.0146273521697,nan,nan,nan,nan,0.0,0.0,0.0,nan,200.45984095,616.871344557,617.37138276,617.22729131,nan,nan,nan,nan
1,362,1,1,1.0,1.0,0.299475307344,0,0.0,0.0,0.0,0.331151116086,0.0748553566284,0.256295759457,0.406006472714,0.0748553566284,0.332912244989,416,0.087881616042,0.458117504295,-0.630165317015,nan,nan,nan,nan,0.0,0.0,0.0,nan,200.45984095,617.879801105,618.379841589,618.179276412,nan,nan,nan,nan
1,363,1,1,1.0,1.0,0.291006500833,0,0.0,0.0,0.0,0.331063371463,0.0747701439376,0.256293227526,0.405833515401,0.0747701439376,0.315476187039,248,0.568115903494,0.223728204869,0.653295769881,nan,nan,nan,nan,0.0,0.0,0.0,nan,200.45984095,618.888266491,619.388297566,619.179272991,nan,nan,nan,nan
