block,trial,freq_trials,correct_response,actual_response,acc,rts,probe_trials,fast_rt_trigger,slow_rt_trigger,rt_triggered,rts_runningavg,rts_runningstd,rts_runningfastthresh,rts_runningslowthresh,rts_runningstd,rts_trailingavg,trials_colorind,trials_colorrgb0,trials_colorrgb1,trials_colorrgb2,wm_respdeg,wm_respdeg_in_colorspace,wm_respcolorminusorigcolor,wm_resptexind,wm_resptexrgb0,wm_resptexrgb1,wm_resptexrgb2,wm_rts,time_blockstart,time_encarray_offset,time_encarray_onset,time_response,time_iti_offset,time_iti_onset,time_memprobe_offset,time_memprobe_onset
1,1,1,1,1.0,1.0,0.350633829366,0,nan,nan,nan,nan,nan,nan,nan,nan,nan,172,1.0,-0.170984061773,0.265024678188,nan,nan,nan,nan,0.0,0.0,0.0,nan,158.262978508,159.28833853,159.788381294,159.638972359,nan,nan,nan,nan
1,2,1,1,1.0,1.0,0.334420886356,0,nan,nan,nan,nan,nan,nan,nan,nan,nan,83,1.0,-0.203097876184,-0.665876706514,nan,nan,nan,nan,0.0,0.0,0.0,nan,158.262978508,160.2885304,160.7885304,160.622951287,nan,nan,nan,nan
1,3,1,1,1.0,1.0,0.326342639513,0,nan,nan,nan,nan,nan,nan,nan,nan,nan,263,0.405698801511,0.284171736334,0.651829885785,nan,nan,nan,nan,0.0,0.0,0.0,nan,158.262978508,161.28858742,161.788641304,161.61493006,nan,nan,nan,nan
1,4,1,1,1.0,1.0,0.276839394122,0,nan,nan,nan,nan,nan,nan,nan,nan,nan,471,0.506014005179,0.354993781952,-1.0,nan,nan,nan,nan,0.0,0.0,0.0,nan,158.262978508,162.322088695,162.822106371,162.598928089,nan,nan,nan,nan
1,5,1,1,1.0,1.0,0.268711540382,0,nan,nan,nan,nan,nan,nan,nan,nan,nan,99,1.0,-0.267176270739,-0.468793303331,nan,nan,nan,nan,0.0,0.0,0.0,nan,158.262978508,163.322206155,163.822237231,163.590917696,nan,nan,nan,nan
1,6,1,1,1.0,1.0,0.252557327505,0,nan,nan,nan,nan,nan,nan,nan,nan,nan,348,-0.175384772129,0.468017843042,0.157582163916,nan,nan,nan,nan,0.0,0.0,0.0,nan,158.262978508,164.32233616,164.822366381,164.574893488,nan,nan,nan,nan
1,7,1,1,1.0,1.0,0.284387073945,0,nan,nan,nan,nan,nan,nan,nan,nan,nan,212,0.93926288676,0.0467731277665,0.543851001166,nan,nan,nan,nan,0.0,0.0,0.0,nan,158.262978508,165.322478424,165.822516342,165.606865498,nan,nan,nan,nan
1,8,0,0,1.0,0.0,0.332259560004,0,0.0,0.0,0.0,nan,nan,nan,nan,nan,nan,106,1.0,-0.287630069369,-0.390564445695,nan,nan,nan,nan,0.0,0.0,0.0,nan,158.262978508,166.322610424,166.822642925,166.654869984,nan,nan,nan,nan
1,9,1,1,1.0,1.0,0.364093012642,0,nan,nan,nan,nan,nan,nan,nan,nan,nan,339,-0.164955840019,0.45996923152,0.241423096872,nan,nan,nan,nan,0.0,0.0,0.0,nan,158.262978508,167.322730165,167.822751548,167.686823178,nan,nan,nan,nan
1,10,1,1,1.0,1.0,0.411977472715,0,nan,nan,nan,nan,nan,nan,nan,nan,nan,130,1.0,-0.309333154106,-0.136071487739,nan,nan,nan,nan,0.0,0.0,0.0,nan,158.262978508,168.322839358,168.822865302,168.734816831,nan,nan,nan,nan
1,11,1,1,1.0,1.0,0.355787257664,0,nan,nan,nan,nan,nan,nan,nan,nan,nan,403,0.00657627305109,0.469456436931,-0.450524507496,nan,nan,nan,nan,0.0,0.0,0.0,nan,158.262978508,169.323019539,169.822989319,169.678806797,nan,nan,nan,nan
1,12,1,1,1.0,1.0,0.347713286988,0,nan,nan,nan,nan,nan,nan,nan,nan,nan,6,0.895129075663,0.186272780825,-1.0,nan,nan,nan,nan,0.0,0.0,0.0,nan,158.262978508,170.323070572,170.823133579,170.670783859,nan,nan,nan,nan
1,13,1,1,1.0,1.0,0.435554492287,0,nan,nan,nan,nan,nan,nan,nan,nan,nan,165,1.0,-0.205056383665,0.203745440608,nan,nan,nan,nan,0.0,0.0,0.0,nan,158.262978508,171.323221959,171.823250184,171.758776451,nan,nan,nan,nan
1,14,1,1,1.0,1.0,0.403378352057,1,nan,nan,nan,nan,nan,nan,nan,nan,nan,108,1.0,-0.292426609412,-0.368663285579,-46.5765500552,136.576550055,60.6390500552,194.0,1.0,-0.0524864644427,0.435571704399,2.68398189265,158.262978508,172.323349113,172.823414685,172.726727465,176.848879908,177.844964944,174.148536536,176.8405522
1,15,1,1,1.0,1.0,0.461607587058,0,nan,nan,nan,nan,nan,nan,nan,nan,nan,237,0.686387300223,0.174031846447,0.636349816437,nan,nan,nan,nan,0.0,0.0,0.0,nan,158.262978508,178.049053646,178.549095556,178.510661233,nan,nan,nan,nan
1,16,1,1,1.0,1.0,0.357419728301,0,nan,nan,nan,nan,nan,nan,nan,nan,nan,408,0.036737934283,0.465637664749,-0.515938449969,nan,nan,nan,nan,0.0,0.0,0.0,nan,158.262978508,179.049219288,179.549233828,179.406639016,nan,nan,nan,nan
1,17,1,1,1.0,1.0,0.301288242918,0,nan,nan,nan,nan,nan,nan,nan,nan,nan,362,-0.164239727892,0.476000155386,0.0174578511848,nan,nan,nan,nan,0.0,0.0,0.0,nan,158.262978508,180.049329906,180.549356706,180.350618149,nan,nan,nan,nan
1,18,1,1,1.0,1.0,0.325142093003,0,nan,nan,nan,nan,nan,nan,nan,nan,nan,485,0.622774561467,0.312875618285,-1.0,nan,nan,nan,nan,0.0,0.0,0.0,nan,158.262978508,181.049450217,181.549497544,181.37459231,nan,nan,nan,nan
1,19,1,1,1.0,1.0,0.362934374716,0,nan,nan,nan,nan,nan,nan,nan,nan,nan,282,0.208142307666,0.34807905204,0.609295500931,nan,nan,nan,nan,0.0,0.0,0.0,nan,158.262978508,182.09962943,182.59961546,182.462563805,nan,nan,nan,nan
1,20,1,1,1.0,1.0,0.370876345318,1,nan,nan,nan,nan,nan,nan,nan,nan,nan,438,0.243622561222,0.428096439079,-1.0,162.783926412,287.216073588,-20.7526764122,408.0,0.036737934283,0.465637664749,-0.515938449969,1.53393804468,158.262978508,183.099700989,183.599740903,183.470577335,186.475102407,187.48560142,184.924908655,186.46677641
1,21,0,0,0.0,1.0,0.354824197013,0,nan,nan,nan,nan,nan,nan,nan,nan,nan,231,0.749609680972,0.145151270079,0.620821461523,nan,nan,nan,nan,0.0,0.0,0.0,nan,158.262978508,187.683656882,188.183683395,188.038481079,nan,nan,nan,nan
1,22,1,1,1.0,1.0,0.282728944905,0,nan,nan,nan,nan,nan,nan,nan,nan,nan,386,-0.0833946583454,0.477495592553,-0.245424736514,nan,nan,nan,nan,0.0,0.0,0.0,nan,158.262978508,188.683747543,189.18378546,188.966476487,nan,nan,nan,nan
1,23,1,1,1.0,1.0,0.27454749262,0,nan,nan,nan,nan,nan,nan,nan,nan,nan,311,-0.0397249783266,0.419020224334,0.462250212202,nan,nan,nan,nan,0.0,0.0,0.0,nan,158.262978508,189.683888096,190.183917176,189.958435589,nan,nan,nan,nan
1,24,1,1,1.0,1.0,0.266433038283,0,nan,nan,nan,nan,nan,nan,nan,nan,nan,124,1.0,-0.311577186586,-0.198226518473,nan,nan,nan,nan,0.0,0.0,0.0,nan,158.262978508,190.683996433,191.184050031,190.950429471,nan,nan,nan,nan
1,25,1,1,1.0,1.0,0.290291164536,1,nan,nan,nan,nan,nan,nan,nan,nan,nan,436,0.228681708805,0.431413732101,-1.0,166.274805482,283.725194518,-22.8373054823,404.0,0.0124894593597,0.468746268022,-0.463349101315,1.31711744424,158.262978508,191.684120451,192.184164356,191.974411615,194.842847238,195.847027342,193.509334388,194.834497008
1,26,1,1,1.0,1.0,0.306995616294,0,nan,nan,nan,nan,nan,nan,nan,nan,nan,60,1.0,-0.0867837676833,-1.0,nan,nan,nan,nan,0.0,0.0,0.0,nan,158.262978508,196.051346403,196.551394585,196.358342019,nan,nan,nan,nan
1,27,1,1,1.0,1.0,0.314846070018,0,nan,nan,nan,nan,nan,nan,nan,nan,nan,277,0.258470646878,0.33263615818,0.624824240443,nan,nan,nan,nan,0.0,0.0,0.0,nan,158.262978508,197.051475267,197.5515129,197.366321337,nan,nan,nan,nan
1,28,1,1,1.0,1.0,0.298682163935,0,nan,nan,nan,nan,nan,nan,nan,nan,nan,370,-0.144805996584,0.478178727438,-0.0671803333712,nan,nan,nan,nan,0.0,0.0,0.0,nan,158.262978508,198.051602991,198.551652598,198.350285155,nan,nan,nan,nan
1,29,1,1,1.0,1.0,0.370565873571,0,nan,nan,nan,nan,nan,nan,nan,nan,nan,91,1.0,-0.237709898716,-0.562722318432,nan,nan,nan,nan,0.0,0.0,0.0,nan,158.262978508,199.051738983,199.55177519,199.422304856,nan,nan,nan,nan
1,30,1,1,1.0,1.0,0.274397816509,0,nan,nan,nan,nan,nan,nan,nan,nan,nan,509,0.822386376617,0.224555004187,-1.0,nan,nan,nan,nan,0.0,0.0,0.0,nan,158.262978508,200.051859864,200.551893791,200.326257681,nan,nan,nan,nan
1,31,1,1,1.0,1.0,0.400899426546,0,nan,nan,nan,nan,nan,nan,nan,nan,nan,444,0.289241202529,0.417409780569,-1.0,nan,nan,nan,nan,0.0,0.0,0.0,nan,158.262978508,201.085346029,201.585359429,201.486245456,nan,nan,nan,nan
1,32,1,1,1.0,1.0,0.3367860578,0,nan,nan,nan,nan,nan,nan,nan,nan,nan,80,1.0,-0.189075709245,-0.708965549488,nan,nan,nan,nan,0.0,0.0,0.0,nan,158.262978508,202.085444673,202.585485442,202.422230731,nan,nan,nan,nan
1,33,1,1,1.0,1.0,0.304570574313,0,nan,nan,nan,nan,nan,nan,nan,nan,nan,227,0.791019951953,0.125257787881,0.608066708266,nan,nan,nan,nan,0.0,0.0,0.0,nan,158.262978508,203.085617727,203.585642816,203.390188301,nan,nan,nan,nan
1,34,1,1,1.0,1.0,0.312440129463,0,nan,nan,nan,nan,nan,nan,nan,nan,nan,127,1.0,-0.31111021432,-0.167036648065,nan,nan,nan,nan,0.0,0.0,0.0,nan,158.262978508,204.085754289,204.585755715,204.398194418,nan,nan,nan,nan
1,35,1,1,1.0,1.0,0.280313311145,0,nan,nan,nan,nan,nan,nan,nan,nan,nan,474,0.530901762182,0.346545376391,-1.0,nan,nan,nan,nan,0.0,0.0,0.0,nan,158.262978508,205.085844665,205.585886859,205.366157976,nan,nan,nan,nan
1,36,1,1,1.0,1.0,0.296206089202,0,nan,nan,nan,nan,nan,nan,nan,nan,nan,427,0.163265173604,0.444863218481,-0.840208708629,nan,nan,nan,nan,0.0,0.0,0.0,nan,158.262978508,206.085964976,206.586007456,206.382171066,nan,nan,nan,nan
1,37,1,1,1.0,1.0,0.400064374786,0,nan,nan,nan,nan,nan,nan,nan,nan,nan,151,1.0,-0.262720288689,0.0734626651272,nan,nan,nan,nan,0.0,0.0,0.0,nan,158.262978508,207.086085573,207.586133184,207.486149948,nan,nan,nan,nan
1,38,1,1,1.0,1.0,0.327882452868,0,nan,nan,nan,nan,nan,nan,nan,nan,nan,451,0.343830962376,0.403518361206,-1.0,nan,nan,nan,nan,0.0,0.0,0.0,nan,158.262978508,208.086249219,208.586255491,208.414131672,nan,nan,nan,nan
1,39,1,1,1.0,1.0,0.255733887665,0,nan,nan,nan,nan,nan,nan,nan,nan,nan,330,-0.139766326074,0.449518327743,0.319540245599,nan,nan,nan,nan,0.0,0.0,0.0,nan,158.262978508,209.086374947,209.58639861,209.342108835,nan,nan,nan,nan
1,40,1,1,1.0,1.0,0.295568040572,0,nan,nan,nan,nan,nan,nan,nan,nan,nan,171,1.0,-0.176011872558,0.256450910142,nan,nan,nan,nan,0.0,0.0,0.0,nan,158.262978508,210.086505237,210.586509513,210.382073277,nan,nan,nan,nan
1,41,1,1,1.0,1.0,0.303450425155,0,nan,nan,nan,nan,nan,nan,nan,nan,nan,296,0.0772713571413,0.386205321608,0.550001308524,nan,nan,nan,nan,0.0,0.0,0.0,nan,158.262978508,211.086608727,211.586642369,211.390059152,nan,nan,nan,nan
1,42,0,0,1.0,0.0,0.279295796994,0,0.0,0.0,0.0,nan,nan,nan,nan,nan,nan,36,1.0,0.0410699577143,-1.0,nan,nan,nan,nan,0.0,0.0,0.0,nan,158.262978508,212.086761254,212.586790905,212.366057051,nan,nan,nan,nan
1,43,1,1,1.0,1.0,0.255185644142,0,nan,nan,nan,nan,nan,nan,nan,nan,nan,318,-0.0835627602325,0.431640264478,0.413481556053,nan,nan,nan,nan,0.0,0.0,0.0,nan,158.262978508,213.086857903,213.586899527,213.342043547,nan,nan,nan,nan
1,44,1,1,1.0,1.0,0.263030110858,0,nan,nan,nan,nan,nan,nan,nan,nan,nan,147,1.0,-0.275801134503,0.0346720467303,nan,nan,nan,nan,0.0,0.0,0.0,nan,158.262978508,214.086981065,214.587036944,214.350011176,nan,nan,nan,nan
1,45,1,1,1.0,1.0,0.302856565919,0,nan,nan,nan,nan,nan,nan,nan,nan,nan,9,0.918933560847,0.172916688009,-1.0,nan,nan,nan,nan,0.0,0.0,0.0,nan,158.262978508,215.087135018,215.587151268,215.389991584,nan,nan,nan,nan
1,46,1,1,1.0,1.0,0.286736850161,0,nan,nan,nan,nan,nan,nan,nan,nan,nan,161,1.0,-0.223158351501,0.167490545043,nan,nan,nan,nan,0.0,0.0,0.0,nan,158.262978508,216.087240504,216.587284124,216.373977354,nan,nan,nan,nan
1,47,1,1,1.0,1.0,0.278591034934,0,nan,nan,nan,nan,nan,nan,nan,nan,nan,391,-0.0591907973189,0.475916278612,-0.303718712187,nan,nan,nan,nan,0.0,0.0,0.0,nan,158.262978508,217.087359105,217.587400159,217.36595014,nan,nan,nan,nan
1,48,1,1,1.0,1.0,0.285077580716,0,nan,nan,nan,nan,nan,nan,nan,nan,nan,323,-0.11001989341,0.43965344528,0.375855360355,nan,nan,nan,nan,0.0,0.0,0.0,nan,158.262978508,218.12086266,218.620866082,218.405940241,nan,nan,nan,nan
1,49,1,1,1.0,1.0,0.252967013046,0,nan,nan,nan,nan,nan,nan,nan,nan,nan,398,-0.0220377755791,0.472608796233,-0.387943383198,nan,nan,nan,nan,0.0,0.0,0.0,nan,158.262978508,219.120953036,219.620989814,219.37392005,nan,nan,nan,nan
1,50,1,1,1.0,1.0,0.332829755731,0,nan,nan,nan,nan,nan,nan,nan,nan,nan,269,0.34171296506,0.305888347675,0.643262349404,nan,nan,nan,nan,0.0,0.0,0.0,nan,158.262978508,220.121079905,220.621136354,220.453909661,nan,nan,nan,nan
1,51,1,1,1.0,1.0,0.284624845255,0,nan,nan,nan,nan,nan,nan,nan,nan,nan,161,1.0,-0.223158351501,0.167490545043,nan,nan,nan,nan,0.0,0.0,0.0,nan,158.262978508,221.121252104,221.621254955,221.405876949,nan,nan,nan,nan
1,52,1,1,1.0,1.0,0.223265236709,0,nan,nan,nan,nan,nan,nan,nan,nan,nan,35,1.0,0.0462653595507,-1.0,nan,nan,nan,nan,0.0,0.0,0.0,nan,158.262978508,222.166585509,222.671407083,222.389850745,nan,nan,nan,nan
1,53,1,1,1.0,1.0,0.282387967687,0,nan,nan,nan,nan,nan,nan,nan,nan,nan,373,-0.135407706169,0.478559568072,-0.0996974893599,nan,nan,nan,nan,0.0,0.0,0.0,nan,158.262978508,223.171466099,223.671508863,223.453854066,nan,nan,nan,nan
1,54,1,1,1.0,1.0,0.250214963686,0,nan,nan,nan,nan,nan,nan,nan,nan,nan,284,0.188465149253,0.353984098999,0.602236276499,nan,nan,nan,nan,0.0,0.0,0.0,nan,158.262978508,224.171621762,224.671661675,224.421836725,nan,nan,nan,nan
1,55,1,1,1.0,1.0,0.242050332017,0,nan,nan,nan,nan,nan,nan,nan,nan,nan,223,0.83172397378,0.104890589731,0.593432239612,nan,nan,nan,nan,0.0,0.0,0.0,nan,158.262978508,225.171759749,225.671786834,225.413810081,nan,nan,nan,nan
1,56,1,1,1.0,1.0,0.257913745474,0,nan,nan,nan,nan,nan,nan,nan,nan,nan,446,0.304696255059,0.41359904426,-1.0,nan,nan,nan,nan,0.0,0.0,0.0,nan,158.262978508,226.171888328,226.671932233,226.429802074,nan,nan,nan,nan
1,57,1,1,1.0,1.0,0.233781354968,0,nan,nan,nan,nan,nan,nan,nan,nan,nan,508,0.814199817736,0.228638933499,-1.0,nan,nan,nan,nan,0.0,0.0,0.0,nan,158.262978508,227.172016622,227.672039715,227.405797977,nan,nan,nan,nan
1,58,1,1,1.0,1.0,0.265637330711,0,nan,nan,nan,nan,nan,nan,nan,nan,nan,257,0.470472903111,0.261039853404,0.655841377839,nan,nan,nan,nan,0.0,0.0,0.0,nan,158.262978508,228.172124104,228.672174281,228.437761435,nan,nan,nan,nan
1,59,1,1,1.0,1.0,0.321468607523,0,nan,nan,nan,nan,nan,nan,nan,nan,nan,360,-0.167709501072,0.475188317955,0.0381258551808,nan,nan,nan,nan,0.0,0.0,0.0,nan,158.262978508,229.17227321,229.67230115,229.493741818,nan,nan,nan,nan
1,60,1,1,1.0,1.0,0.361318725627,0,nan,nan,nan,nan,nan,nan,nan,nan,nan,172,1.0,-0.170984061773,0.265024678188,nan,nan,nan,nan,0.0,0.0,0.0,nan,158.262978508,230.17240179,230.672399794,230.533720515,nan,nan,nan,nan
1,61,1,1,1.0,1.0,0.297222748399,0,nan,nan,nan,nan,nan,nan,nan,nan,nan,376,-0.124962824795,0.478704673615,-0.132627625282,nan,nan,nan,nan,0.0,0.0,0.0,nan,158.262978508,231.172499863,231.672527803,231.469722611,nan,nan,nan,nan
1,62,0,0,1.0,0.0,0.296960743144,0,0.0,0.0,0.0,nan,nan,nan,nan,nan,nan,200,1.0,-0.0191209939188,0.47515178387,nan,nan,nan,nan,0.0,0.0,0.0,nan,158.262978508,232.172725376,232.672684322,232.469686119,nan,nan,nan,nan
1,63,1,1,1.0,1.0,0.256944127381,0,nan,nan,nan,nan,nan,nan,nan,nan,nan,387,-0.0787219327085,0.477231755363,-0.256974454483,nan,nan,nan,nan,0.0,0.0,0.0,nan,158.262978508,233.172760728,233.672805773,233.429704855,nan,nan,nan,nan
1,64,1,1,1.0,1.0,0.216812902596,1,nan,nan,nan,nan,nan,nan,nan,nan,nan,19,0.99625917486,0.126374530333,-1.0,66.3998101321,23.6001898679,10.2408148679,34.0,1.0,0.0514419701458,-1.0,1.90886163851,158.262978508,234.172903847,234.672940909,234.38971675,237.923321515,238.933496371,235.998095832,237.914988391
1,65,1,1,1.0,1.0,0.425727170426,0,nan,nan,nan,nan,nan,nan,nan,nan,nan,411,0.0555201669072,0.463022710015,-0.557054760163,nan,nan,nan,nan,0.0,0.0,0.0,nan,158.262978508,239.13183522,239.631909061,239.557562391,nan,nan,nan,nan
1,66,1,1,1.0,1.0,0.313543458004,0,nan,nan,nan,nan,nan,nan,nan,nan,nan,168,1.0,-0.190790017254,0.230361799274,nan,nan,nan,nan,0.0,0.0,0.0,nan,158.262978508,240.132003998,240.632016542,240.445547456,nan,nan,nan,nan
1,67,1,1,1.0,1.0,0.305429004133,0,nan,nan,nan,nan,nan,nan,nan,nan,nan,78,1.0,-0.179467652321,-0.739907630878,nan,nan,nan,nan,0.0,0.0,0.0,nan,158.262978508,241.132109199,241.632135998,241.437538203,nan,nan,nan,nan
1,68,1,1,1.0,1.0,0.313273184933,0,nan,nan,nan,nan,nan,nan,nan,nan,nan,191,1.0,-0.0691479807067,0.414571651978,nan,nan,nan,nan,0.0,0.0,0.0,nan,158.262978508,242.132237494,242.632267714,242.445510678,nan,nan,nan,nan
1,69,0,0,0.0,1.0,0.48110001022,0,nan,nan,nan,nan,nan,nan,nan,nan,nan,327,-0.128086156831,0.445480682368,0.344176439252,nan,nan,nan,nan,0.0,0.0,0.0,nan,158.262978508,243.132379187,243.632410263,243.613479197,nan,nan,nan,nan
1,70,1,1,1.0,1.0,0.304980259854,0,nan,nan,nan,nan,nan,nan,nan,nan,nan,421,0.121471671064,0.452518040197,-0.712610339232,nan,nan,nan,nan,0.0,0.0,0.0,nan,158.262978508,244.132492941,244.632536846,244.437473201,nan,nan,nan,nan
1,71,1,1,1.0,1.0,0.256846909411,0,nan,nan,nan,nan,nan,nan,nan,nan,nan,70,1.0,-0.13936984996,-0.906436913284,nan,nan,nan,nan,0.0,0.0,0.0,nan,158.262978508,245.132608976,245.632643473,245.389455885,nan,nan,nan,nan
1,72,1,1,1.0,1.0,0.256743418984,0,nan,nan,nan,nan,nan,nan,nan,nan,nan,375,-0.128556699755,0.478682433309,-0.121605159467,nan,nan,nan,nan,0.0,0.0,0.0,nan,158.262978508,246.132726151,246.632790298,246.38946957,nan,nan,nan,nan
1,73,1,1,1.0,1.0,0.373907505069,0,nan,nan,nan,nan,nan,nan,nan,nan,nan,482,0.597655625539,0.322480811492,-1.0,nan,nan,nan,nan,0.0,0.0,0.0,nan,158.262978508,247.199574178,247.699569046,247.573481683,nan,nan,nan,nan
1,74,0,0,0.0,1.0,0.49369335128,0,nan,nan,nan,nan,nan,nan,nan,nan,nan,419,0.107894673663,0.454841969249,-0.678098861371,nan,nan,nan,nan,0.0,0.0,0.0,nan,158.262978508,248.199693634,248.708054698,248.693386985,nan,nan,nan,nan
1,75,1,1,1.0,1.0,0.26956198737,0,nan,nan,nan,nan,nan,nan,nan,nan,nan,354,-0.174470673547,0.472100788149,0.0988677247603,nan,nan,nan,nan,0.0,0.0,0.0,nan,158.262978508,249.199817651,249.699840744,249.469379639,nan,nan,nan,nan
1,76,1,1,1.0,1.0,0.24544898374,0,nan,nan,nan,nan,nan,nan,nan,nan,nan,408,0.036737934283,0.465637664749,-0.515938449969,nan,nan,nan,nan,0.0,0.0,0.0,nan,158.262978508,250.199922282,250.699961911,250.445371266,nan,nan,nan,nan
1,77,1,1,1.0,1.0,0.237312291283,0,nan,nan,nan,nan,nan,nan,nan,nan,nan,2,0.863024578927,0.203622855609,-1.0,nan,nan,nan,nan,0.0,0.0,0.0,nan,158.262978508,251.200042594,251.70010617,251.437354885,nan,nan,nan,nan
1,78,1,1,1.0,1.0,0.253159168642,0,nan,nan,nan,nan,nan,nan,nan,nan,nan,468,0.481236483515,0.363131620867,-1.0,nan,nan,nan,nan,0.0,0.0,0.0,nan,158.262978508,252.200171458,252.700240166,252.453330627,nan,nan,nan,nan
1,79,0,0,1.0,0.0,0.260983963497,0,0.0,0.0,0.0,nan,nan,nan,nan,nan,nan,317,-0.077772836126,0.429938605076,0.420733606481,nan,nan,nan,nan,0.0,0.0,0.0,nan,158.262978508,253.200332538,253.700368746,253.461316502,nan,nan,nan,nan
1,80,1,1,1.0,1.0,0.25286209723,0,nan,nan,nan,nan,nan,nan,nan,nan,nan,225,0.81146624694,0.115131125244,0.600981946568,nan,nan,nan,nan,0.0,0.0,0.0,nan,158.262978508,254.200431752,254.700456841,254.453293849,nan,nan,nan,nan
1,81,1,1,1.0,1.0,0.340707578231,0,0.0,0.0,0.0,0.310548729898,0.0588189051241,0.251729824774,0.369367635022,0.0588189051241,0.284851212986,13,0.950262168777,0.154664060346,-1.0,nan,nan,nan,nan,0.0,0.0,0.0,nan,158.262978508,255.200584565,255.700607942,255.541292143,nan,nan,nan,nan
1,82,1,1,1.0,1.0,0.316579464823,0,0.0,0.0,0.0,0.310921061359,0.0585494847206,0.252371576638,0.369470546079,0.0585494847206,0.303383046761,347,-0.174938837379,0.46723881498,0.167157479366,nan,nan,nan,nan,0.0,0.0,0.0,nan,158.262978508,256.200688625,256.700723122,256.51726809,nan,nan,nan,nan
1,83,1,1,1.0,1.0,0.324426497333,0,0.0,0.0,0.0,0.310990066279,0.0581946944733,0.252795371806,0.369184760752,0.0581946944733,0.327237846795,81,1.0,-0.193804253699,-0.694219169772,nan,nan,nan,nan,0.0,0.0,0.0,nan,158.262978508,257.200816919,257.700852272,257.525243416,nan,nan,nan,nan
1,84,1,1,1.0,1.0,0.3562630862,0,0.0,0.0,0.0,0.31115195099,0.0578616343586,0.253290316632,0.369013585349,0.0578616343586,0.332423016119,315,-0.0657111424032,0.426434809442,0.434956515233,nan,nan,nan,nan,0.0,0.0,0.0,nan,158.262978508,258.200970587,258.700974579,258.557233673,nan,nan,nan,nan
1,85,1,1,1.0,1.0,0.316138703842,0,0.0,0.0,0.0,0.311688988314,0.0577239111139,0.2539650772,0.369412899428,0.0577239111139,0.332276095791,211,0.948675772315,0.0413606888024,0.538689155053,nan,nan,nan,nan,0.0,0.0,0.0,nan,158.262978508,259.201058682,259.70109603,259.517197386,nan,nan,nan,nan
1,86,1,1,1.0,1.0,0.30796979554,0,0.0,0.0,0.0,0.311741337909,0.0573853598698,0.254355978039,0.369126697779,0.0573853598698,0.326790528527,336,-0.158211608236,0.456758111158,0.268135266647,nan,nan,nan,nan,0.0,0.0,0.0,nan,158.262978508,260.201213205,260.701239434,260.509183001,nan,nan,nan,nan
1,87,1,1,1.0,1.0,0.259816202801,0,0.0,0.0,0.0,0.311697482765,0.0570521812312,0.254645301534,0.368749663996,0.0570521812312,0.294641567394,486,0.631151757674,0.309603058574,-1.0,nan,nan,nan,nan,0.0,0.0,0.0,nan,158.262978508,261.201351193,261.701379132,261.461167396,nan,nan,nan,nan
1,88,0,0,1.0,0.0,0.283581102267,0,0.0,0.0,0.0,0.311101146214,0.0569922910158,0.254108855198,0.368093437229,0.0569922910158,0.283789033536,409,0.0429436170054,0.464793150178,-0.529461854507,nan,nan,nan,nan,0.0,0.0,0.0,nan,158.262978508,262.201580126,262.701506856,262.485161229,nan,nan,nan,nan
1,89,1,1,1.0,1.0,0.267587114591,0,0.0,0.0,0.0,0.310788418442,0.0567425699984,0.254045848443,0.36753098844,0.0567425699984,0.270328139886,4,0.879126049628,0.195014037372,-1.0,nan,nan,nan,nan,0.0,0.0,0.0,nan,158.262978508,263.201576135,263.701630589,263.469163249,nan,nan,nan,nan
1,90,1,1,1.0,1.0,0.227399155498,0,0.0,0.0,0.0,0.310303010533,0.0566063358905,0.253696674643,0.366909346424,0.0566063358905,0.259522457452,411,0.0555201669072,0.463022710015,-0.557054760163,nan,nan,nan,nan,0.0,0.0,0.0,nan,158.262978508,264.201713552,264.701741491,264.429112707,nan,nan,nan,nan
1,91,1,1,1.0,1.0,0.323286961298,0,0.0,0.0,0.0,0.309381856588,0.0569578165905,0.252424039998,0.366339673179,0.0569578165905,0.272757743796,165,1.0,-0.205056383665,0.203745440608,nan,nan,nan,nan,0.0,0.0,0.0,nan,158.262978508,265.2018236,265.701873207,265.525110561,nan,nan,nan,nan
1,92,1,1,1.0,1.0,0.387142601423,0,0.0,0.0,0.0,0.309534659937,0.0566625431599,0.252872116777,0.366197203097,0.0566625431599,0.31260957274,89,1.0,-0.229484098413,-0.587370487375,nan,nan,nan,nan,0.0,0.0,0.0,nan,158.262978508,266.201952179,266.701988956,266.58909478,nan,nan,nan,nan
1,93,0,0,0.0,1.0,0.514937985688,0,0.0,0.0,0.0,0.310378224518,0.0569254003471,0.253452824171,0.367303624865,0.0569254003471,0.40845584947,21,1.0,0.116713997928,-1.0,nan,nan,nan,nan,0.0,0.0,0.0,nan,158.262978508,267.20211725,267.702173985,267.717055236,nan,nan,nan,nan
1,94,1,1,1.0,1.0,0.322831090074,0,0.0,0.0,0.0,0.312577791842,0.0604215356958,0.252156256147,0.372999327538,0.0604215356958,0.408303892395,99,1.0,-0.267176270739,-0.468793303331,nan,nan,nan,nan,0.0,0.0,0.0,nan,158.262978508,268.202217035,268.702254097,268.525048125,nan,nan,nan,nan
1,95,0,0,0.0,1.0,0.394673175178,0,0.0,0.0,0.0,0.312686869483,0.0601084901668,0.252578379316,0.37279535965,0.0601084901668,0.410814083647,385,-0.0879796604702,0.477733444059,-0.233926720364,nan,nan,nan,nan,0.0,0.0,0.0,nan,158.262978508,269.202359869,269.702398072,269.597033044,nan,nan,nan,nan
1,96,1,1,1.0,1.0,0.282504002564,0,0.0,0.0,0.0,0.313549883227,0.0603739116267,0.253175971601,0.373923794854,0.0603739116267,0.333336089272,133,1.0,-0.306259573676,-0.105336427414,nan,nan,nan,nan,0.0,0.0,0.0,nan,158.262978508,270.202498141,270.702502132,270.485002144,nan,nan,nan,nan
1,97,1,1,1.0,1.0,0.274387267884,0,0.0,0.0,0.0,0.313226488637,0.0601412989968,0.25308518964,0.373367787634,0.0601412989968,0.317188148542,374,-0.132039125116,0.478634076427,-0.110628443238,nan,nan,nan,nan,0.0,0.0,0.0,nan,158.262978508,271.202609899,271.702640975,271.476997167,nan,nan,nan,nan
1,98,1,1,1.0,1.0,0.306264625397,0,0.0,0.0,0.0,0.312826084299,0.0599589734992,0.2528671108,0.372785057799,0.0599589734992,0.287718631948,114,1.0,-0.303747463913,-0.303859371662,nan,nan,nan,nan,0.0,0.0,0.0,nan,158.262978508,272.202745321,272.70275701,272.509009947,nan,nan,nan,nan
1,99,1,1,1.0,1.0,0.282108286861,0,0.0,0.0,0.0,0.312759130637,0.0596559205734,0.253103210064,0.372415051211,0.0596559205734,0.287586726714,371,-0.14179360683,0.478331938097,-0.0779732583494,nan,nan,nan,nan,0.0,0.0,0.0,nan,158.262978508,273.202846816,273.702900414,273.484955103,nan,nan,nan,nan
1,100,1,1,1.0,1.0,0.369963176548,0,0.0,0.0,0.0,0.312449526155,0.0594329443735,0.253016581781,0.371882470528,0.0594329443735,0.319445362935,73,1.0,-0.1546788618,-0.830916872461,nan,nan,nan,nan,0.0,0.0,0.0,nan,158.262978508,274.20298965,274.703037546,274.572952827,nan,nan,nan,nan
1,101,1,1,1.0,1.0,0.353791572619,0,0.0,0.0,0.0,0.313024662659,0.0594112745693,0.253613388089,0.372435937228,0.0594112745693,0.335287678676,197,1.0,-0.035797595552,0.455774741445,nan,nan,nan,nan,0.0,0.0,0.0,nan,158.262978508,275.203132769,275.703160423,275.556924342,nan,nan,nan,nan
1,102,0,0,0.0,1.0,0.500211827923,0,0.0,0.0,0.0,0.31342829543,0.0592540628746,0.254174232556,0.372682358305,0.0592540628746,0.40798885903,311,-0.0397249783266,0.419020224334,0.462250212202,nan,nan,nan,nan,0.0,0.0,0.0,nan,158.262978508,276.203261348,276.703313521,276.703473176,nan,nan,nan,nan
1,103,1,1,1.0,1.0,0.345501213335,0,0.0,0.0,0.0,0.315259506533,0.0617681852728,0.253491321261,0.377027691806,0.0617681852728,0.399834871292,163,1.0,-0.214247802105,0.185723682048,nan,nan,nan,nan,0.0,0.0,0.0,nan,158.262978508,277.203393633,277.703406748,277.548894847,nan,nan,nan,nan
1,104,1,1,1.0,1.0,0.265380457509,0,0.0,0.0,0.0,0.315553115337,0.0615390924939,0.254014022843,0.377092207831,0.0615390924939,0.370364499589,295,0.0860222946478,0.38372732295,0.554986075565,nan,nan,nan,nan,0.0,0.0,0.0,nan,158.262978508,278.203502826,278.703529055,278.468883283,nan,nan,nan,nan
1,105,1,1,1.0,1.0,0.233218286652,0,0.0,0.0,0.0,0.315070685935,0.061437919029,0.253632766906,0.376508604964,0.061437919029,0.281366652499,505,0.789537956352,0.240683140511,-1.0,nan,nan,nan,nan,0.0,0.0,0.0,nan,158.262978508,279.203617435,279.703643664,279.436835722,nan,nan,nan,nan
1,106,1,1,1.0,1.0,0.24105904717,0,1.0,0.0,0.0,0.314291139275,0.0616592995762,0.252631839699,0.375950438851,0.0616592995762,0.24655259711,183,1.0,-0.113108999915,0.354902835149,nan,nan,nan,nan,0.0,0.0,0.0,nan,158.262978508,280.203759414,280.70377595,280.444818461,nan,nan,nan,nan
1,107,1,1,1.0,1.0,0.230221909005,1,0.0,0.0,1.0,0.313600270482,0.0617747440372,0.251825526445,0.375375014519,0.0617747440372,0.234833080942,403,0.00657627305109,0.469456436931,-0.450524507496,151.267418076,298.732581924,15.373206924,425.0,0.149162615564,0.447529597292,-0.791715667876,1.35050525004,158.262978508,281.270587769,281.770581782,281.500809678,284.462609136,285.467488015,283.095741266,284.454274016
1,108,1,1,1.0,1.0,0.357621292118,0,0.0,0.0,0.0,0.312821033459,0.0620066015288,0.25081443193,0.374827634987,0.0620066015288,0.276300749431,76,1.0,-0.169674511773,-0.773365826749,nan,nan,nan,nan,0.0,0.0,0.0,nan,158.262978508,285.671118279,286.171157338,286.028739571,nan,nan,nan,nan
1,109,1,1,1.0,1.0,0.277449503541,0,0.0,0.0,0.0,0.313235850668,0.0618678454902,0.251368005178,0.375103696159,0.0618678454902,0.288430901555,151,1.0,-0.262720288689,0.0734626651272,nan,nan,nan,nan,0.0,0.0,0.0,nan,158.262978508,286.671263394,287.171286772,286.948712897,nan,nan,nan,nan
1,110,1,1,1.0,1.0,0.237336810213,0,0.0,0.0,0.0,0.312907535557,0.0616778391237,0.251229696433,0.374585374681,0.0616778391237,0.290802535291,64,1.0,-0.108036866323,-1.0,nan,nan,nan,nan,0.0,0.0,0.0,nan,158.262978508,287.671390262,288.171394254,287.908727073,nan,nan,nan,nan
1,111,1,1,1.0,1.0,0.197243503295,0,1.0,0.0,0.0,0.312220528963,0.0618143851594,0.250406143804,0.374034914123,0.0618143851594,0.237343272349,343,-0.171388175652,0.463836419185,0.204822810802,nan,nan,nan,nan,0.0,0.0,0.0,nan,158.262978508,288.671499455,289.171522548,288.868742958,nan,nan,nan,nan
1,112,1,1,1.0,1.0,0.189048936591,1,0.0,0.0,1.0,0.311184699903,0.0624869444582,0.248697755445,0.373671644361,0.0624869444582,0.207876416699,200,1.0,-0.0191209939188,0.47515178387,132.345804487,317.654195513,177.029195513,452.0,0.351738073422,0.401406211611,-1.0,1.57547195116,158.262978508,289.671610928,290.171658825,289.860659865,293.097012232,294.094205729,291.505160556,293.088683384
1,113,1,1,1.0,1.0,0.523346660659,0,0.0,0.0,0.0,0.310094202016,0.0632594275276,0.246834774489,0.373353629544,0.0632594275276,0.303213033515,34,1.0,0.0514419701458,-1.0,nan,nan,nan,nan,0.0,0.0,0.0,nan,158.262978508,294.297215621,294.797282904,294.820562281,nan,nan,nan,nan
1,114,1,1,1.0,1.0,0.347273381427,0,0.0,0.0,0.0,0.311981391916,0.0660698706584,0.245911521257,0.378051262574,0.0660698706584,0.353222992892,488,0.647907709101,0.302951493728,-1.0,nan,nan,nan,nan,0.0,0.0,0.0,nan,158.262978508,295.297323958,295.797384399,295.644597339,nan,nan,nan,nan
1,115,1,1,1.0,1.0,0.259135389701,0,0.0,0.0,0.0,0.312290970771,0.0658617199248,0.246429250846,0.378152690696,0.0658617199248,0.376585143929,286,0.169078956243,0.359734776014,0.594698705761,nan,nan,nan,nan,0.0,0.0,0.0,nan,158.262978508,296.297452822,296.797498438,296.556588212,nan,nan,nan,nan
1,116,1,1,1.0,1.0,0.330949250143,0,0.0,0.0,0.0,0.311828748327,0.0657601893154,0.246068559012,0.377588937643,0.0657601893154,0.312452673757,70,1.0,-0.13936984996,-0.906436913284,nan,nan,nan,nan,0.0,0.0,0.0,nan,158.262978508,297.297581116,297.797623311,297.628530366,nan,nan,nan,nan
1,117,1,1,1.0,1.0,0.266817920841,0,0.0,0.0,0.0,0.311993580239,0.065499982185,0.246493598054,0.377493562424,0.065499982185,0.285634186895,445,0.296953900578,0.415520102116,-1.0,nan,nan,nan,nan,0.0,0.0,0.0,nan,158.262978508,298.297708555,298.797756166,298.564526476,nan,nan,nan,nan
1,118,1,1,1.0,1.0,0.322666873224,0,0.0,0.0,0.0,0.311607463492,0.0653519156205,0.246255547872,0.376959379113,0.0653519156205,0.306811348069,342,-0.170052622031,0.462913557708,0.21407524247,nan,nan,nan,nan,0.0,0.0,0.0,nan,158.262978508,299.297833713,299.797889877,299.620500586,nan,nan,nan,nan
1,119,0,0,0.0,1.0,0.394489002414,0,0.0,0.0,0.0,0.311701187304,0.0650823077589,0.246618879545,0.376783495062,0.0650823077589,0.327991265493,70,1.0,-0.13936984996,-0.906436913284,nan,nan,nan,nan,0.0,0.0,0.0,nan,158.262978508,300.297998499,300.798038413,300.692487502,nan,nan,nan,nan
1,120,1,1,1.0,1.0,0.250392009504,0,0.0,0.0,0.0,0.312396883229,0.0652474042502,0.247149478979,0.377644287479,0.0652474042502,0.322515961714,385,-0.0879796604702,0.477733444059,-0.233926720364,nan,nan,nan,nan,0.0,0.0,0.0,nan,158.262978508,301.298098283,301.798129929,301.548490293,nan,nan,nan,nan
1,121,1,1,1.0,1.0,0.210275609512,0,0.0,0.0,0.0,0.311880175948,0.0652190024457,0.246661173502,0.377099178394,0.0652190024457,0.285052207143,237,0.686387300223,0.174031846447,0.636349816437,nan,nan,nan,nan,0.0,0.0,0.0,nan,158.262978508,302.298218595,302.798286733,302.508494204,nan,nan,nan,nan
1,122,1,1,1.0,1.0,0.266078376677,0,1.0,0.0,0.0,0.311040468787,0.0655970899526,0.245443378835,0.37663755874,0.0655970899526,0.242248665231,131,1.0,-0.308451667147,-0.125800503078,nan,nan,nan,nan,0.0,0.0,0.0,nan,158.262978508,303.298353731,303.798400772,303.564432108,nan,nan,nan,nan
1,123,1,1,1.0,1.0,0.289933366701,1,0.0,0.0,1.0,0.310671927049,0.0654533611179,0.245218565931,0.376125288167,0.0654533611179,0.25542911763,0,0.846831709088,0.212097570855,-1.0,-36.4778026238,126.477802624,126.477802624,180.0,1.0,-0.129278616986,0.331238955499,1.95879794797,158.262978508,304.298500272,304.798532773,304.588433638,308.098931225,309.10113104,306.123678857,308.090598956
1,124,1,1,1.0,1.0,0.305181824137,0,0.0,0.0,0.0,0.310503320867,0.0652133443122,0.245289976555,0.375716665179,0.0652133443122,0.287064522505,420,0.1146601879,0.45369410126,-0.695047497311,nan,nan,nan,nan,0.0,0.0,0.0,nan,158.262978508,309.299132048,309.799149724,309.604313872,nan,nan,nan,nan
1,125,1,1,1.0,1.0,0.241079004016,0,0.0,0.0,0.0,0.310460405571,0.0649515988497,0.245508806721,0.37541200442,0.0649515988497,0.278731398284,345,-0.173519535469,0.465595146217,0.186119282857,nan,nan,nan,nan,0.0,0.0,0.0,nan,158.262978508,310.299239815,310.799281725,310.540318819,nan,nan,nan,nan
1,126,0,0,0.0,1.0,0.384890328627,0,0.0,0.0,0.0,0.309905354358,0.0649858650846,0.244919489274,0.374891219443,0.0649858650846,0.310383718926,99,1.0,-0.267176270739,-0.468793303331,nan,nan,nan,nan,0.0,0.0,0.0,nan,158.262978508,311.299403176,311.799437958,311.684293505,nan,nan,nan,nan
1,127,1,1,1.0,1.0,0.248741007876,0,0.0,0.0,0.0,0.310500473202,0.0650685507872,0.245431922414,0.375569023989,0.0650685507872,0.291570113506,294,0.0948761993654,0.381212130724,0.559858230992,nan,nan,nan,nan,0.0,0.0,0.0,nan,158.262978508,312.299527479,312.799538598,312.548268487,nan,nan,nan,nan
1,128,1,1,1.0,1.0,0.232626138721,0,0.0,0.0,0.0,0.310014178199,0.0650413346606,0.244972843539,0.37505551286,0.0650413346606,0.288752491741,424,0.142174562463,0.448819569244,-0.770229420881,nan,nan,nan,nan,0.0,0.0,0.0,nan,158.262978508,313.299616714,313.799678866,313.532242853,nan,nan,nan,nan
1,129,1,1,1.0,1.0,0.328475456685,0,0.0,0.0,0.0,0.309409584141,0.0651440574646,0.244265526676,0.374553641605,0.0651440574646,0.269947534427,494,0.698129958021,0.282143999684,-1.0,nan,nan,nan,nan,0.0,0.0,0.0,nan,158.262978508,314.299766106,314.799788343,314.628241562,nan,nan,nan,nan
1,130,1,1,1.0,1.0,0.328345736954,0,0.0,0.0,0.0,0.309557381602,0.0649126104342,0.244644771168,0.374469992036,0.0649126104342,0.29648244412,408,0.036737934283,0.465637664749,-0.515938449969,nan,nan,nan,nan,0.0,0.0,0.0,nan,158.262978508,315.299877579,315.799917493,315.628223316,nan,nan,nan,nan
1,131,1,1,1.0,1.0,0.288193414919,0,0.0,0.0,0.0,0.309701907413,0.0646832964433,0.245018610969,0.374385203856,0.0646832964433,0.315004869519,119,1.0,-0.309446327048,-0.250710895617,nan,nan,nan,nan,0.0,0.0,0.0,nan,158.262978508,316.300012715,316.800046642,316.58820613,nan,nan,nan,nan
1,132,1,1,1.0,1.0,0.320053951815,0,0.0,0.0,0.0,0.309537720447,0.0644631282785,0.245074592169,0.374000848726,0.0644631282785,0.312197701229,497,0.723174939644,0.271260599794,-1.0,nan,nan,nan,nan,0.0,0.0,0.0,nan,158.262978508,317.300135022,317.800177217,317.620188974,nan,nan,nan,nan
1,133,1,1,1.0,1.0,0.287879236974,0,0.0,0.0,0.0,0.309617388867,0.0642249589326,0.245392429934,0.373842347799,0.0642249589326,0.298708867903,287,0.159501648714,0.36255249221,0.590751920292,nan,nan,nan,nan,0.0,0.0,0.0,nan,158.262978508,318.300275861,318.800302945,318.588155098,nan,nan,nan,nan
1,134,1,1,1.0,1.0,0.279777042102,0,0.0,0.0,0.0,0.309453944115,0.0640106065252,0.24544333759,0.373464550641,0.0640106065252,0.295903410297,240,0.654373017221,0.188015059697,0.642463954019,nan,nan,nan,nan,0.0,0.0,0.0,nan,158.262978508,319.300382202,319.800422971,319.580159244,nan,nan,nan,nan
1,135,0,0,0.0,1.0,0.471581163816,0,0.0,0.0,0.0,0.309232474697,0.0638224406351,0.245410034062,0.373054915332,0.0638224406351,0.346412480964,434,0.213881816697,0.43461034373,-1.0,nan,nan,nan,nan,0.0,0.0,0.0,nan,158.262978508,320.300553831,320.800577209,320.772134995,nan,nan,nan,nan
1,136,1,1,1.0,1.0,0.26343808556,0,0.0,0.0,0.0,0.31043505758,0.0650916496629,0.245343407917,0.375526707243,0.0650916496629,0.338265430493,65,1.0,-0.113312155659,-1.0,nan,nan,nan,nan,0.0,0.0,0.0,nan,158.262978508,321.300674713,321.800687827,321.564112798,nan,nan,nan,nan
1,137,1,1,1.0,1.0,0.247323216405,0,0.0,0.0,0.0,0.310089491609,0.0649760736712,0.245113417938,0.37506556528,0.0649760736712,0.327447488594,156,1.0,-0.244060613314,0.121041471254,nan,nan,nan,nan,0.0,0.0,0.0,nan,158.262978508,322.300776207,322.80082895,322.548099424,nan,nan,nan,nan
1,138,1,1,1.0,1.0,0.271147416439,0,0.0,0.0,0.0,0.309631343615,0.0649586004838,0.244672743131,0.374589944099,0.0649586004838,0.260636239468,502,0.764740937618,0.25241357569,-1.0,nan,nan,nan,nan,0.0,0.0,0.0,nan,158.262978508,323.300911629,323.800935007,323.572059045,nan,nan,nan,nan
1,139,1,1,1.0,1.0,0.279053749051,0,0.0,0.0,0.0,0.309352474577,0.0648050694753,0.244547405102,0.374157544053,0.0648050694753,0.265841460632,38,1.0,0.0306259494545,-1.0,nan,nan,nan,nan,0.0,0.0,0.0,nan,158.262978508,324.30104762,324.801076985,324.580101369,nan,nan,nan,nan
1,140,0,0,1.0,0.0,0.222854125313,0,0.0,0.0,0.0,0.309134498135,0.0646222893179,0.244512208817,0.373756787453,0.0646222893179,0.257685096934,480,0.580928072941,0.32870764083,-1.0,nan,nan,nan,nan,0.0,0.0,0.0,nan,158.262978508,325.301186463,325.801219249,325.524040589,nan,nan,nan,nan
1,141,1,1,1.0,1.0,0.213341836818,0,0.0,0.0,0.0,0.308518209757,0.064799731459,0.243718478298,0.373317941216,0.064799731459,0.238416570394,173,1.0,-0.165909522591,0.273535192888,nan,nan,nan,nan,0.0,0.0,0.0,nan,158.262978508,326.334656092,326.834655522,326.547997929,nan,nan,nan,nan
1,142,1,1,1.0,1.0,0.269266340882,0,0.0,0.0,0.0,0.30784320002,0.0650616197062,0.242781580314,0.372904819726,0.0650616197062,0.235154101004,401,-0.00506340639596,0.470796889516,-0.425203102762,nan,nan,nan,nan,0.0,0.0,0.0,nan,158.262978508,327.334741051,327.834786667,327.604007392,nan,nan,nan,nan
1,143,1,1,1.0,1.0,0.277085433714,0,0.0,0.0,0.0,0.307571531998,0.0649123308318,0.242659201166,0.37248386283,0.0649123308318,0.253231203804,148,1.0,-0.272695592461,0.0444264621409,nan,nan,nan,nan,0.0,0.0,0.0,nan,158.262978508,328.334885311,328.834910114,328.611970745,nan,nan,nan,nan
1,144,1,1,1.0,1.0,0.308947395999,0,0.0,0.0,0.0,0.3073583425,0.0647348341406,0.242623508359,0.37209317664,0.0647348341406,0.285099723532,362,-0.164239727892,0.476000155386,0.0174578511848,nan,nan,nan,nan,0.0,0.0,0.0,nan,158.262978508,329.335006477,329.835038123,329.643953873,nan,nan,nan,nan
1,145,1,1,1.0,1.0,0.309235915076,0,0.0,0.0,0.0,0.307369377593,0.0645098037866,0.242859573807,0.37187918138,0.0645098037866,0.29842291493,258,0.459642287315,0.26499291187,0.655490062901,nan,nan,nan,nan,0.0,0.0,0.0,nan,158.262978508,330.350708525,330.851849487,330.65994444,nan,nan,nan,nan
1,146,1,1,1.0,1.0,0.387973091099,0,0.0,0.0,0.0,0.307382250266,0.0642871569152,0.243095093351,0.371669407181,0.0642871569152,0.335385467391,123,1.0,-0.311441137266,-0.208672863777,nan,nan,nan,nan,0.0,0.0,0.0,nan,158.262978508,331.351950126,331.851996312,331.739923217,nan,nan,nan,nan
1,147,1,1,1.0,1.0,0.419833913445,0,0.0,1.0,0.0,0.307934242326,0.0644104979019,0.243523744424,0.372344740228,0.0644104979019,0.372347639874,283,0.19826868328,0.351050922538,0.605825948857,nan,nan,nan,nan,0.0,0.0,0.0,nan,158.262978508,332.352072433,332.85209182,332.771906347,nan,nan,nan,nan
1,148,1,1,1.0,1.0,0.395682421513,1,0.0,0.0,1.0,0.308695464579,0.0648466712185,0.24384879336,0.373542135797,0.0648466712185,0.401163142019,234,0.71814774995,0.15974031316,0.62913160129,-129.271048715,219.271048715,54.7397987153,312.0,-0.0464483572634,0.420925197877,0.455573212045,1.61717948178,158.262978508,333.352209565,333.852221824,333.747891987,336.819256818,337.820240406,335.185713577,336.810917137
1,149,1,1,1.0,1.0,0.520361401141,0,0.0,0.0,0.0,0.309283214288,0.0650189134142,0.244264300874,0.374302127702,0.0650189134142,0.4452925787,166,1.0,-0.20036215083,0.21267421211,nan,nan,nan,nan,0.0,0.0,0.0,nan,158.262978508,338.019439965,338.519519507,338.539801367,nan,nan,nan,nan
1,150,1,1,1.0,1.0,0.328195205424,0,0.0,0.0,0.0,0.310699846414,0.0670529655344,0.24364688088,0.377752811949,0.0670529655344,0.414746342693,46,1.0,-0.0117313672748,-1.0,nan,nan,nan,nan,0.0,0.0,0.0,nan,158.262978508,339.019592778,339.519608173,339.347787983,nan,nan,nan,nan
1,151,1,1,1.0,1.0,0.256056903396,0,0.0,0.0,0.0,0.310816482141,0.0668442455693,0.243972236572,0.37766072771,0.0668442455693,0.36820450332,1,0.854939129564,0.207877072944,-1.0,nan,nan,nan,nan,0.0,0.0,0.0,nan,158.262978508,340.019709098,340.519739033,340.275766001,nan,nan,nan,nan
1,152,1,1,1.0,1.0,0.239946025424,0,0.0,0.0,0.0,0.310453835924,0.0667704245096,0.243683411414,0.377224260434,0.0667704245096,0.274732711414,477,0.555879874869,0.337784025865,-1.0,nan,nan,nan,nan,0.0,0.0,0.0,nan,158.262978508,341.019827983,341.519857633,341.259774009,nan,nan,nan,nan
1,153,1,1,1.0,1.0,0.271798294503,0,0.0,0.0,0.0,0.30998996875,0.0667940852375,0.243195883512,0.376784053987,0.0667940852375,0.255933741108,328,-0.132159558243,0.44685796506,0.336046158271,nan,nan,nan,nan,0.0,0.0,0.0,nan,158.262978508,342.019948009,342.519984502,342.291746304,nan,nan,nan,nan
1,154,0,0,1.0,0.0,0.311609069351,0,0.0,0.0,0.0,0.309740349964,0.0666465383179,0.243093811646,0.376386888282,0.0666465383179,0.274451129759,78,1.0,-0.179467652321,-0.739907630878,nan,nan,nan,nan,0.0,0.0,0.0,nan,158.262978508,343.020111941,343.520144442,343.33172101,nan,nan,nan,nan
1,155,1,1,1.0,1.0,0.287544817198,0,0.0,0.0,0.0,0.309752484505,0.0664299706023,0.243322513903,0.376182455108,0.0664299706023,0.290317393684,219,0.871627318206,0.0840881726889,0.576959667802,nan,nan,nan,nan,0.0,0.0,0.0,nan,158.262978508,344.020207734,344.52025392,344.307752551,nan,nan,nan,nan
1,156,1,1,1.0,1.0,0.375325011555,0,0.0,0.0,0.0,0.309609209232,0.0662392005459,0.243370008687,0.375848409778,0.0662392005459,0.324826299368,457,0.391639248186,0.390358177281,-1.0,nan,nan,nan,nan,0.0,0.0,0.0,nan,158.262978508,345.020366818,345.52037138,345.39569183,nan,nan,nan,nan
1,157,1,1,1.0,1.0,0.319207496475,0,0.0,0.0,0.0,0.310030464375,0.0662345190109,0.243795945365,0.376264983386,0.0662345190109,0.32735910841,270,0.331159066004,0.309369715406,0.641393874915,nan,nan,nan,nan,0.0,0.0,0.0,nan,158.262978508,346.020504235,346.520508512,346.339711732,nan,nan,nan,nan
1,158,1,1,1.0,1.0,0.3669913169,0,0.0,0.0,0.0,0.310088916809,0.0660272804477,0.244061636362,0.376116197257,0.0660272804477,0.353841274977,225,0.81146624694,0.115131125244,0.600981946568,nan,nan,nan,nan,0.0,0.0,0.0,nan,158.262978508,347.020621981,347.520627398,347.387613298,nan,nan,nan,nan
1,159,1,1,1.0,1.0,0.310863253195,0,0.0,0.0,0.0,0.310449058582,0.0659725137936,0.244476544788,0.376421572376,0.0659725137936,0.33235402219,11,0.934659501434,0.163852895862,-1.0,nan,nan,nan,nan,0.0,0.0,0.0,nan,158.262978508,348.020742862,348.520752841,348.331606116,nan,nan,nan,nan
1,160,1,1,1.0,1.0,0.33477155678,0,0.0,0.0,0.0,0.31045166358,0.0657647339841,0.244686929595,0.376216397564,0.0657647339841,0.337542042291,135,1.0,-0.303502321856,-0.0849788702499,nan,nan,nan,nan,0.0,0.0,0.0,nan,158.262978508,349.020834664,349.520880565,349.355606221,nan,nan,nan,nan
1,161,1,1,1.0,1.0,0.278608141467,0,0.0,0.0,0.0,0.310603662912,0.0655869079029,0.245016755009,0.376190570815,0.0655869079029,0.308080983814,293,0.103830259013,0.378659598285,0.564617056734,nan,nan,nan,nan,0.0,0.0,0.0,nan,158.262978508,350.020980919,350.521011995,350.29958906,nan,nan,nan,nan
1,162,1,1,1.0,1.0,0.326474355068,0,0.0,0.0,0.0,0.310404932965,0.0654312095763,0.244973723389,0.375836142542,0.0654312095763,0.313284684438,50,1.0,-0.033148730948,-1.0,nan,nan,nan,nan,0.0,0.0,0.0,nan,158.262978508,351.021121187,351.521142284,351.347595542,nan,nan,nan,nan
1,163,0,0,1.0,0.0,0.294307337608,0,0.0,0.0,0.0,0.310504126929,0.0652410906544,0.245263036274,0.375745217583,0.0652410906544,0.299796611381,167,1.0,-0.195605812978,0.221546716301,nan,nan,nan,nan,0.0,0.0,0.0,nan,158.262978508,352.021255183,352.521288825,352.315562521,nan,nan,nan,nan
1,164,1,1,1.0,1.0,0.222175022587,0,0.0,0.0,0.0,0.310404760123,0.0650529520956,0.245351808028,0.375457712219,0.0650529520956,0.280985571754,446,0.304696255059,0.41359904426,-1.0,nan,nan,nan,nan,0.0,0.0,0.0,nan,158.262978508,353.021366656,353.521420825,353.243541679,nan,nan,nan,nan
1,165,1,1,1.0,1.0,0.190032524057,0,0.0,0.0,0.0,0.309866773919,0.0652170172759,0.244649756643,0.375083791195,0.0652170172759,0.235504961417,344,-0.172543464245,0.464730234515,0.195503824632,nan,nan,nan,nan,0.0,0.0,0.0,nan,158.262978508,354.021496091,354.521547979,354.211528615,nan,nan,nan,nan
1,166,1,1,1.0,1.0,0.235874543432,0,1.0,0.0,0.0,0.309140505738,0.065680943585,0.243459562153,0.374821449323,0.065680943585,0.216027363359,132,1.0,-0.307426825298,-0.115555361894,nan,nan,nan,nan,0.0,0.0,0.0,nan,158.262978508,355.071640521,355.571652495,355.307515065,nan,nan,nan,nan
1,167,1,1,1.0,1.0,0.235773618799,1,0.0,0.0,1.0,0.308699144519,0.0657277752197,0.242971369299,0.374426919739,0.0657277752197,0.220560228763,257,0.470472903111,0.261039853404,0.655841377839,-89.2461516669,179.246151667,-1.45697333307,255.0,0.492159363509,0.253017189294,0.656163111527,1.79219077155,158.262978508,356.071736884,356.571784496,356.307510503,359.7055102,360.70504435,357.896942839,359.697181637
1,168,1,1,1.0,1.0,0.345733283088,0,0.0,0.0,0.0,0.308262464724,0.0657717701243,0.2424906946,0.374034234848,0.0657717701243,0.272460481773,462,0.432089675478,0.378486360879,-1.0,nan,nan,nan,nan,0.0,0.0,0.0,nan,158.262978508,360.905686504,361.405738677,361.251419787,nan,nan,nan,nan
1,169,1,1,1.0,1.0,0.305575828999,0,0.0,0.0,0.0,0.30848550531,0.0656390429046,0.242846462405,0.374124548214,0.0656390429046,0.295694243629,187,1.0,-0.0912463489427,0.385383214542,nan,nan,nan,nan,0.0,0.0,0.0,nan,158.262978508,361.905821071,362.405864975,362.2113969,nan,nan,nan,nan
1,170,1,1,1.0,1.0,0.289386264514,0,0.0,0.0,0.0,0.30846828829,0.0654449368941,0.243023351396,0.373913225184,0.0654449368941,0.313565125534,105,1.0,-0.285049837405,-0.401580786678,nan,nan,nan,nan,0.0,0.0,0.0,nan,158.262978508,362.90598044,363.405987853,363.195366704,nan,nan,nan,nan
1,171,1,1,1.0,1.0,0.313243249897,0,0.0,0.0,0.0,0.308356041091,0.0652684818101,0.243087559281,0.373624522902,0.0652684818101,0.30273511447,423,0.135229581944,0.450080889006,-0.750039916123,nan,nan,nan,nan,0.0,0.0,0.0,nan,158.262978508,363.906118712,364.406150643,364.219361962,nan,nan,nan,nan
1,172,1,1,1.0,1.0,0.289110859856,0,0.0,0.0,0.0,0.30838462126,0.0650784253449,0.243306195915,0.373463046605,0.0650784253449,0.297246791422,216,0.900975005756,0.0682271079607,0.563426584804,nan,nan,nan,nan,0.0,0.0,0.0,nan,158.262978508,364.906211654,365.406244726,365.195322514,nan,nan,nan,nan
1,173,1,1,1.0,1.0,0.296951904893,0,0.0,0.0,0.0,0.308272564508,0.0649055111646,0.243367053343,0.373178075672,0.0649055111646,0.299768671549,446,0.304696255059,0.41359904426,-1.0,nan,nan,nan,nan,0.0,0.0,0.0,nan,158.262978508,365.906363327,366.406379862,366.203315231,nan,nan,nan,nan
1,174,1,1,1.0,1.0,0.320816873573,0,0.0,0.0,0.0,0.308207127169,0.064723341057,0.243483786112,0.372930468226,0.064723341057,0.302293212774,336,-0.158211608236,0.456758111158,0.268135266647,nan,nan,nan,nan,0.0,0.0,0.0,nan,158.262978508,366.906474229,367.406500458,367.227291103,nan,nan,nan,nan
1,175,1,1,1.0,1.0,0.28733527055,0,0.0,0.0,0.0,0.308279596976,0.0645441252302,0.243735471745,0.372823722206,0.0645441252302,0.301701349672,499,0.739831889234,0.263827757734,-1.0,nan,nan,nan,nan,0.0,0.0,0.0,nan,158.262978508,367.939945569,368.439963815,368.22728084,nan,nan,nan,nan
1,176,1,1,1.0,1.0,0.263214854058,0,0.0,0.0,0.0,0.30815991511,0.0643788089294,0.243781106181,0.37253872404,0.0643788089294,0.29045566606,200,1.0,-0.0191209939188,0.47515178387,nan,nan,nan,nan,0.0,0.0,0.0,nan,158.262978508,368.940057328,369.440096386,369.203272182,nan,nan,nan,nan
1,177,1,1,1.0,1.0,0.271025394555,0,0.0,0.0,0.0,0.307904545445,0.0642844801697,0.243620065276,0.372189025615,0.0642844801697,0.273858506388,433,0.206536295144,0.436163724167,-1.0,nan,nan,nan,nan,0.0,0.0,0.0,nan,158.262978508,369.940211565,370.44022354,370.21123696,nan,nan,nan,nan
1,178,1,1,1.0,1.0,0.294926855247,0,0.0,0.0,0.0,0.307696188661,0.0641621973868,0.243533991274,0.371858386047,0.0641621973868,0.27638903462,69,1.0,-0.134207199312,-0.939648005704,nan,nan,nan,nan,0.0,0.0,0.0,nan,158.262978508,370.940303082,371.440362097,371.235229937,nan,nan,nan,nan
1,179,0,0,0.0,1.0,0.454733307939,0,0.0,0.0,0.0,0.307624450832,0.0639888306766,0.243635620156,0.371613281509,0.0639888306766,0.340228519247,320,-0.0946500390753,0.43494401576,0.398701238857,nan,nan,nan,nan,0.0,0.0,0.0,nan,158.262978508,371.940475851,372.44050208,372.395209159,nan,nan,nan,nan
1,180,1,1,1.0,1.0,0.358629398048,0,0.0,0.0,0.0,0.308446288023,0.0647450374126,0.24370125061,0.373191325436,0.0647450374126,0.369429853745,78,1.0,-0.179467652321,-0.739907630878,nan,nan,nan,nan,0.0,0.0,0.0,nan,158.262978508,372.940567938,373.44060272,373.299197336,nan,nan,nan,nan
1,181,1,1,1.0,1.0,0.286450896878,0,0.0,0.0,0.0,0.308725083079,0.0646725946759,0.244052488403,0.373397677755,0.0646725946759,0.366604534288,150,1.0,-0.266152531622,0.0638227105866,nan,nan,nan,nan,0.0,0.0,0.0,nan,158.262978508,373.94071904,374.440723601,374.227169937,nan,nan,nan,nan
1,182,1,1,1.0,1.0,0.342332066037,0,0.0,0.0,0.0,0.308602021276,0.0645148237131,0.244087197563,0.37311684499,0.0645148237131,0.329137453654,259,0.44882283482,0.268906983076,0.655011783756,nan,nan,nan,nan,0.0,0.0,0.0,nan,158.262978508,374.940832223,375.440863299,375.283164289,nan,nan,nan,nan
1,183,0,0,0.0,1.0,0.390153234359,0,0.0,0.0,0.0,0.308787351193,0.0643856373216,0.244401713871,0.373172988514,0.0643856373216,0.339645399091,356,-0.17284377641,0.473239407326,0.0788368070227,nan,nan,nan,nan,0.0,0.0,0.0,nan,158.262978508,375.940982185,376.441008414,376.331135419,nan,nan,nan,nan
1,184,1,1,1.0,1.0,0.262031698134,0,0.0,0.0,0.0,0.309231973505,0.0644890427105,0.244742930795,0.373721016216,0.0644890427105,0.331505666176,402,0.000724920831492,0.470139955471,-0.437811562499,nan,nan,nan,nan,0.0,0.0,0.0,nan,158.262978508,376.941101356,377.441121598,377.203133054,nan,nan,nan,nan
1,185,1,1,1.0,1.0,0.277877435554,0,0.0,0.0,0.0,0.308975450269,0.0644071146686,0.244568335601,0.373382564938,0.0644071146686,0.310020789349,42,1.0,0.00954878589686,-1.0,nan,nan,nan,nan,0.0,0.0,0.0,nan,158.262978508,377.941225373,378.441232216,378.219102809,nan,nan,nan,nan
1,186,1,1,1.0,1.0,0.333718405571,0,0.0,0.0,0.0,0.308807352893,0.0642732645983,0.244534088294,0.373080617491,0.0642732645983,0.291209179753,360,-0.167709501072,0.475188317955,0.0381258551808,nan,nan,nan,nan,0.0,0.0,0.0,nan,158.262978508,378.941360509,379.441373054,379.275078915,nan,nan,nan,nan
1,187,1,1,1.0,1.0,0.317632901017,0,0.0,0.0,0.0,0.308941283283,0.064126133455,0.244815149828,0.373067416738,0.064126133455,0.309742914047,480,0.580928072941,0.32870764083,-1.0,nan,nan,nan,nan,0.0,0.0,0.0,nan,158.262978508,379.941451171,380.441502488,380.259084072,nan,nan,nan,nan
1,188,1,1,1.0,1.0,0.269470470492,0,0.0,0.0,0.0,0.308987762523,0.0639575847387,0.245030177784,0.372945347261,0.0639575847387,0.30694059236,164,1.0,-0.209685835145,0.194761549991,nan,nan,nan,nan,0.0,0.0,0.0,nan,158.262978508,380.941586592,381.441623655,381.211057063,nan,nan,nan,nan
1,189,1,1,1.0,1.0,0.269327636808,0,0.0,0.0,0.0,0.308777564161,0.0638519895318,0.244925574629,0.372629553692,0.0638519895318,0.285477002772,508,0.814199817736,0.228638933499,-1.0,nan,nan,nan,nan,0.0,0.0,0.0,nan,158.262978508,381.941719163,382.441761927,382.2110468,nan,nan,nan,nan
1,190,1,1,1.0,1.0,0.245149060618,0,0.0,0.0,0.0,0.308568834386,0.0637471218158,0.24482171257,0.372315956202,0.0637471218158,0.261315722639,17,0.981069150956,0.135921910835,-1.0,nan,nan,nan,nan,0.0,0.0,0.0,nan,158.262978508,382.941873115,383.4418868,383.187022176,nan,nan,nan,nan
1,191,1,1,1.0,1.0,0.237025483046,0,0.0,0.0,0.0,0.308235046103,0.0637445294226,0.244490516681,0.371979575526,0.0637445294226,0.250500726824,371,-0.14179360683,0.478331938097,-0.0779732583494,nan,nan,nan,nan,0.0,0.0,0.0,nan,158.262978508,383.94197233,384.442007111,384.178997813,nan,nan,nan,nan
1,192,1,1,1.0,1.0,0.323508482426,0,0.0,0.0,0.0,0.307862221166,0.0637847989047,0.244077422261,0.37164702007,0.0637847989047,0.268561008697,235,0.707591924495,0.164537776567,0.631659631194,nan,nan,nan,nan,0.0,0.0,0.0,nan,158.262978508,384.975448231,385.475480732,385.298956713,nan,nan,nan,nan
1,193,0,0,0.0,1.0,0.379366558045,0,0.0,0.0,0.0,0.30794371211,0.0636284437339,0.244315268376,0.371572155844,0.0636284437339,0.313300174506,138,1.0,-0.29832987918,-0.0546508148191,nan,nan,nan,nan,0.0,0.0,0.0,nan,158.262978508,385.975586218,386.47561986,386.354952776,nan,nan,nan,nan
1,194,1,1,1.0,1.0,0.307239090092,0,0.0,0.0,0.0,0.308313778669,0.0636702129499,0.244643565719,0.371983991619,0.0636702129499,0.336704710188,279,0.238157575771,0.338930353633,0.618978422254,nan,nan,nan,nan,0.0,0.0,0.0,nan,158.262978508,386.975693415,387.475728197,387.282932505,nan,nan,nan,nan
1,195,1,1,1.0,1.0,0.427095355,0,0.0,0.0,0.0,0.308308239037,0.06350594908,0.244802289957,0.371814188117,0.06350594908,0.371233667713,68,1.0,-0.129018143495,-0.972903198114,nan,nan,nan,nan,0.0,0.0,0.0,nan,158.262978508,387.97582399,388.475859057,388.402919345,nan,nan,nan,nan
1,196,1,1,1.0,1.0,0.346954356879,0,0.0,0.0,0.0,0.308917403735,0.0639086326299,0.245008771105,0.372826036364,0.0639086326299,0.360429600657,177,1.0,-0.145192147526,0.306921212481,nan,nan,nan,nan,0.0,0.0,0.0,nan,158.262978508,388.975966254,389.475994193,389.322920611,nan,nan,nan,nan
1,197,1,1,1.0,1.0,0.338811392896,0,0.0,0.0,0.0,0.309111469822,0.0638029702472,0.245308499575,0.372914440069,0.0638029702472,0.370953701592,241,0.64365311028,0.192605941253,0.644254782112,nan,nan,nan,nan,0.0,0.0,0.0,nan,158.262978508,389.976078582,390.476107092,390.314889975,nan,nan,nan,nan
1,198,1,1,1.0,1.0,0.346673250664,0,0.0,0.0,0.0,0.309262230853,0.0636758181619,0.245586412691,0.372938049015,0.0636758181619,0.34414633348,139,1.0,-0.296335611021,-0.0445992895203,nan,nan,nan,nan,0.0,0.0,0.0,nan,158.262978508,390.976205165,391.476270738,391.322878416,nan,nan,nan,nan
1,199,1,1,1.0,1.0,0.330533863045,0,0.0,0.0,0.0,0.309451175397,0.063570157301,0.245881018096,0.373021332698,0.063570157301,0.338672835535,294,0.0948761993654,0.381212130724,0.559858230992,nan,nan,nan,nan,0.0,0.0,0.0,nan,158.262978508,391.976313218,392.476374513,392.306847081,nan,nan,nan,nan
1,200,1,1,1.0,1.0,0.250405409373,0,0.0,0.0,0.0,0.309557118551,0.0634277532351,0.246129365316,0.372984871786,0.0634277532351,0.309204174361,130,1.0,-0.309333154106,-0.136071487739,nan,nan,nan,nan,0.0,0.0,0.0,nan,158.262978508,392.976447213,393.476486272,393.226852623,nan,nan,nan,nan
1,201,1,1,1.0,1.0,0.266261409502,0,0.0,0.0,0.0,0.309261360005,0.0634064005556,0.24585495945,0.372667760561,0.0634064005556,0.282400227307,193,1.0,-0.0580453890011,0.428658791268,nan,nan,nan,nan,0.0,0.0,0.0,nan,158.262978508,393.976570376,394.476650489,394.242831785,nan,nan,nan,nan
1,202,1,1,1.0,1.0,0.282096597832,0,0.0,0.0,0.0,0.309047429903,0.0633207943745,0.245726635529,0.372368224278,0.0633207943745,0.266254472236,302,0.027086081288,0.400300843718,0.517770016443,nan,nan,nan,nan,0.0,0.0,0.0,nan,158.262978508,394.976694108,395.476744571,395.258790706,nan,nan,nan,nan
1,203,1,1,1.0,1.0,0.289953039028,0,0.0,0.0,0.0,0.308914009943,0.0631921819098,0.245721828033,0.372106191853,0.0631921819098,0.279437015454,12,0.942476689623,0.159273951266,-1.0,nan,nan,nan,nan,0.0,0.0,0.0,nan,158.262978508,395.976821547,396.476864882,396.266774586,nan,nan,nan,nan
1,204,1,1,1.0,1.0,0.249774202704,0,0.0,0.0,0.0,0.308820606145,0.0630503208996,0.245770285245,0.371870927045,0.0630503208996,0.273941279855,444,0.289241202529,0.417409780569,-1.0,nan,nan,nan,nan,0.0,0.0,0.0,nan,158.262978508,396.976984623,397.4769889,397.226758826,nan,nan,nan,nan
1,205,0,0,0.0,1.0,0.45761422161,0,0.0,0.0,0.0,0.308531162991,0.063030649609,0.245500513382,0.3715618126,0.063030649609,0.332447154447,363,-0.162287729338,0.476365729747,0.00704812682028,nan,nan,nan,nan,0.0,0.0,0.0,nan,158.262978508,397.977129738,398.477152831,398.434743959,nan,nan,nan,nan
1,206,1,1,1.0,1.0,0.289499733131,0,0.0,0.0,0.0,0.309258397423,0.0637288979602,0.245529499463,0.372987295384,0.0637288979602,0.332296052482,2,0.863024578927,0.203622855609,-1.0,nan,nan,nan,nan,0.0,0.0,0.0,nan,158.262978508,398.977210706,399.477262023,399.266710439,nan,nan,nan,nan
1,207,1,1,1.0,1.0,0.249358815141,0,0.0,0.0,0.0,0.309162481577,0.0635888591202,0.245573622457,0.372751340697,0.0635888591202,0.332157589961,51,1.0,-0.0385160204876,-1.0,nan,nan,nan,nan,0.0,0.0,0.0,nan,158.262978508,399.977350689,400.477402576,400.226709504,nan,nan,nan,nan
1,208,1,1,1.0,1.0,0.265191152226,0,0.0,0.0,0.0,0.308873574976,0.0635704584458,0.24530311653,0.372444033422,0.0635704584458,0.268016566833,370,-0.144805996584,0.478178727438,-0.0671803333712,nan,nan,nan,nan,0.0,0.0,0.0,nan,158.262978508,400.977498084,401.477522603,401.242689237,nan,nan,nan,nan
1,209,1,1,1.0,1.0,0.263029540423,0,0.0,0.0,0.0,0.308663563328,0.0634894009913,0.245174162337,0.372152964319,0.0634894009913,0.259193169264,55,1.0,-0.0599996532909,-1.0,nan,nan,nan,nan,0.0,0.0,0.0,nan,158.262978508,402.027629971,402.527639664,402.290659511,nan,nan,nan,nan
1,210,1,1,1.0,1.0,0.246973686852,0,0.0,0.0,0.0,0.308445218721,0.0634155634247,0.245029655296,0.371860782146,0.0634155634247,0.2583981265,220,0.861731547614,0.0893272636146,0.581247684387,nan,nan,nan,nan,0.0,0.0,0.0,nan,158.262978508,403.027737737,403.527770238,403.274711424,nan,nan,nan,nan
1,211,1,1,1.0,1.0,0.262790343259,0,0.0,0.0,0.0,0.308152497141,0.0634057716782,0.244746725463,0.371558268819,0.0634057716782,0.257597856844,301,0.0351599448551,0.39804275895,0.523414514543,nan,nan,nan,nan,0.0,0.0,0.0,nan,158.262978508,404.027854057,404.527915638,404.290644401,nan,nan,nan,nan
1,212,1,1,1.0,1.0,0.254628278315,0,0.0,0.0,0.0,0.307937510629,0.0633320171642,0.244605493465,0.371269527794,0.0633320171642,0.254797436142,373,-0.135407706169,0.478559568072,-0.0996974893599,nan,nan,nan,nan,0.0,0.0,0.0,nan,158.262978508,405.027991189,405.528028252,405.282619467,nan,nan,nan,nan
1,213,1,1,1.0,1.0,0.23852395732,0,0.0,0.0,0.0,0.307686051986,0.0632879663507,0.244398085636,0.370974018337,0.0632879663507,0.251980859631,283,0.19826868328,0.351050922538,0.605825948857,nan,nan,nan,nan,0.0,0.0,0.0,nan,158.262978508,406.028107794,406.528158827,406.266631752,nan,nan,nan,nan
1,214,0,0,1.0,0.0,0.262331621256,0,0.0,0.0,0.0,0.307361347317,0.0633159850935,0.244045362223,0.37067733241,0.0633159850935,0.251827952297,229,0.770397026975,0.135265939772,0.614681466938,nan,nan,nan,nan,0.0,0.0,0.0,nan,158.262978508,407.028265453,407.528302231,407.290597075,nan,nan,nan,nan
1,215,1,1,1.0,1.0,0.222226340324,0,0.0,0.0,0.0,0.307150928036,0.0632424823344,0.243908445702,0.37039341037,0.0632424823344,0.2410273063,99,1.0,-0.267176270739,-0.468793303331,nan,nan,nan,nan,0.0,0.0,0.0,nan,158.262978508,408.028369514,408.528418836,408.250595855,nan,nan,nan,nan
1,216,1,1,1.0,1.0,0.230018348899,0,0.0,0.0,0.0,0.306755929954,0.063359275194,0.24339665476,0.370115205148,0.063359275194,0.238192103493,414,0.0747837862165,0.460162189034,-0.600089175003,nan,nan,nan,nan,0.0,0.0,0.0,nan,158.262978508,409.028528599,409.528551122,409.258546948,nan,nan,nan,nan
1,217,1,1,1.0,1.0,0.261881452054,0,1.0,0.0,0.0,0.306400663375,0.0634267188327,0.242973944542,0.369827382207,0.0634267188327,0.238042047092,260,0.438016636947,0.272781976488,0.654406567654,nan,nan,nan,nan,0.0,0.0,0.0,nan,158.262978508,410.028644633,410.528687968,410.290526086,nan,nan,nan,nan
1,218,1,1,1.0,1.0,0.237750771921,1,0.0,0.0,1.0,0.306195505719,0.06335219882,0.242843306899,0.369547704539,0.06335219882,0.243216857625,433,0.206536295144,0.436163724167,-1.0,-148.94059117,238.94059117,-65.5125338297,340.0,-0.166837174664,0.460980112934,0.232376404312,1.37544389768,158.262978508,411.028782621,411.528804859,411.266533393,414.245800794,415.241715342,412.853981163,414.237475653
1,219,1,1,1.0,1.0,0.39644762408,0,0.0,0.0,0.0,0.30588153905,0.063375715616,0.242505823434,0.369257254666,0.063375715616,0.298693282685,132,1.0,-0.307426825298,-0.115555361894,nan,nan,nan,nan,0.0,0.0,0.0,nan,158.262978508,415.445984796,415.946013306,415.84243242,nan,nan,nan,nan
1,220,1,1,1.0,1.0,0.268313828856,0,0.0,0.0,0.0,0.306295082817,0.0635249813379,0.242770101479,0.369820064155,0.0635249813379,0.300837408286,467,0.473005185182,0.365775667588,-1.0,nan,nan,nan,nan,0.0,0.0,0.0,nan,158.262978508,416.446123354,416.946147872,416.714437183,nan,nan,nan,nan
1,221,1,1,1.0,1.0,0.244156919885,0,0.0,0.0,0.0,0.306122440754,0.0634319145051,0.242690526249,0.369554355259,0.0634319145051,0.30297279094,376,-0.124962824795,0.478704673615,-0.132627625282,nan,nan,nan,nan,0.0,0.0,0.0,nan,158.262978508,417.446235112,417.946273315,417.690392032,nan,nan,nan,nan
1,222,1,1,1.0,1.0,0.204031967092,0,1.0,0.0,0.0,0.305842053782,0.0634247358345,0.242417317947,0.369266789616,0.0634247358345,0.238834238611,246,0.589768841079,0.215019897151,0.651339528662,nan,nan,nan,nan,0.0,0.0,0.0,nan,158.262978508,418.446367683,418.946412158,418.65039965,nan,nan,nan,nan
1,223,1,1,1.0,1.0,0.106558447238,1,0.0,0.0,1.0,0.305383449787,0.063647914759,0.241735535028,0.369031364546,0.063647914759,0.184915778072,331,-0.143297839787,0.450801753776,0.311166711333,-150.945395901,240.945395901,8.21102090092,343.0,-0.171388175652,0.463836419185,0.204822810802,0.942082662601,158.262978508,419.479873804,419.97985955,419.586432252,422.271827089,423.275591806,421.313367553,422.263493395
1,224,1,1,1.0,1.0,0.266300183255,0,0.0,0.0,0.0,0.304491857848,0.0648796324861,0.239612225362,0.369371490334,0.0648796324861,0.192296865862,231,0.749609680972,0.145151270079,0.620821461523,nan,nan,nan,nan,0.0,0.0,0.0,nan,158.262978508,423.472002538,423.972064975,423.738302722,nan,nan,nan,nan
1,225,1,1,1.0,1.0,0.296153346077,0,0.0,0.0,0.0,0.3043213593,0.064784700749,0.239536658551,0.369106060049,0.064784700749,0.22300399219,136,1.0,-0.301914900238,-0.074841205769,nan,nan,nan,nan,0.0,0.0,0.0,nan,158.262978508,424.522161794,425.022180611,424.81831514,nan,nan,nan,nan
1,226,1,1,1.0,1.0,0.343982782681,0,0.0,0.0,0.0,0.304285057019,0.0646428577812,0.239642199238,0.368927914801,0.0646428577812,0.302145437337,481,0.589289488337,0.325611856148,-1.0,nan,nan,nan,nan,0.0,0.0,0.0,nan,158.262978508,425.522261293,426.022313466,425.866244076,nan,nan,nan,nan
1,227,1,1,1.0,1.0,0.359848476481,0,0.0,0.0,0.0,0.304460710673,0.0645534773626,0.23990723331,0.369014188035,0.0645534773626,0.333328201746,317,-0.077772836126,0.429938605076,0.420733606481,nan,nan,nan,nan,0.0,0.0,0.0,nan,158.262978508,426.522392438,427.022437199,426.882240915,nan,nan,nan,nan
1,228,1,1,1.0,1.0,0.425117061008,0,0.0,1.0,0.0,0.304704709641,0.0645154940033,0.240189215638,0.369220203644,0.0645154940033,0.376316106723,437,0.23613482661,0.429770237144,-1.0,nan,nan,nan,nan,0.0,0.0,0.0,nan,158.262978508,427.537087236,428.039232882,427.962204297,nan,nan,nan,nan
1,229,0,0,0.0,1.0,0.446845221799,1,0.0,0.0,1.0,0.305232833989,0.0648637592791,0.24036907471,0.370096593268,0.0648637592791,0.410603586429,236,0.697004556276,0.169301754335,0.634065852989,-63.2128732702,153.21287327,-12.7246267298,218.0,0.881467392804,0.0788246127756,0.572559633417,1.43388895132,158.262978508,428.539348346,429.039383698,428.986193568,431.823043203,432.822633802,430.372859485,431.814739158
1,230,1,1,1.0,1.0,0.346924421843,0,0.0,0.0,0.0,0.305851228696,0.0653920842762,0.24045914442,0.371243312972,0.0653920842762,0.406295568217,406,0.0244967455079,0.467245700284,-0.489366101921,nan,nan,nan,nan,0.0,0.0,0.0,nan,158.262978508,433.023218937,433.523269399,433.370143359,nan,nan,nan,nan
1,231,1,1,1.0,1.0,0.258717150893,0,0.0,0.0,0.0,0.306029807796,0.0653057100331,0.240724097763,0.37133551783,0.0653057100331,0.350828931512,0,0.846831709088,0.212097570855,-1.0,nan,nan,nan,nan,0.0,0.0,0.0,nan,158.262978508,434.023393417,434.523393702,434.282110568,nan,nan,nan,nan
1,232,1,1,1.0,1.0,0.234613840468,0,0.0,0.0,0.0,0.3058249911,0.065238192362,0.240586798738,0.371063183462,0.065238192362,0.280085137735,188,1.0,-0.0857393506835,0.392804289229,nan,nan,nan,nan,0.0,0.0,0.0,nan,158.262978508,435.023475525,435.523535965,435.258089365,nan,nan,nan,nan
1,233,1,1,1.0,1.0,0.234505218454,0,0.0,0.0,0.0,0.305518046485,0.0652643891074,0.240253657378,0.370782435592,0.0652643891074,0.242612069938,327,-0.128086156831,0.445480682368,0.344176439252,nan,nan,nan,nan,0.0,0.0,0.0,nan,158.262978508,436.02362121,436.523649435,436.258126428,nan,nan,nan,nan
1,234,1,1,1.0,1.0,0.31711687427,0,0.0,0.0,0.0,0.305213270399,0.0652894306027,0.239923839796,0.370502701002,0.0652894306027,0.262078644397,121,1.0,-0.310732805591,-0.229640808446,nan,nan,nan,nan,0.0,0.0,0.0,nan,158.262978508,437.052937249,437.557116498,437.370054123,nan,nan,nan,nan
1,235,1,1,1.0,1.0,0.321163267363,0,0.0,0.0,0.0,0.305264140501,0.065154401155,0.240109739346,0.370418541656,0.065154401155,0.290928453362,347,-0.174938837379,0.46723881498,0.167157479366,nan,nan,nan,nan,0.0,0.0,0.0,nan,158.262978508,438.048872039,438.548907106,438.370035307,nan,nan,nan,nan
1,236,1,1,1.0,1.0,0.289045572281,0,0.0,0.0,0.0,0.30533179636,0.0650238636455,0.240307932715,0.370355660006,0.0650238636455,0.309108571305,30,1.0,0.071945658744,-1.0,nan,nan,nan,nan,0.0,0.0,0.0,nan,158.262978508,439.048990354,439.549035115,439.338035927,nan,nan,nan,nan
1,237,1,1,1.0,1.0,0.304879335221,0,0.0,0.0,0.0,0.305262786936,0.0648945783099,0.240368208626,0.370157365246,0.0648945783099,0.305029391622,378,-0.117450136118,0.478670924818,-0.154810124165,nan,nan,nan,nan,0.0,0.0,0.0,nan,158.262978508,440.049118363,440.549177094,440.353997699,nan,nan,nan,nan
1,238,1,1,1.0,1.0,0.312750600744,0,0.0,0.0,0.0,0.305261168996,0.0647575299632,0.240503639033,0.37001869896,0.0647575299632,0.302225169415,101,1.0,-0.273572672894,-0.446152610616,nan,nan,nan,nan,0.0,0.0,0.0,nan,158.262978508,441.049245232,441.549291418,441.361995833,nan,nan,nan,nan
1,239,1,1,1.0,1.0,0.344574645162,0,0.0,0.0,0.0,0.305292637197,0.064623157377,0.24066947982,0.369915794574,0.064623157377,0.320734860376,473,0.522594813828,0.349396171415,-1.0,nan,nan,nan,nan,0.0,0.0,0.0,nan,158.262978508,442.049385215,442.54944252,442.39395986,nan,nan,nan,nan
1,240,1,1,1.0,1.0,0.34445005795,0,0.0,0.0,0.0,0.305456997063,0.0645376510223,0.240919346041,0.369994648085,0.0645376510223,0.333925101285,291,0.122027637739,0.373441943191,0.573791926984,nan,nan,nan,nan,0.0,0.0,0.0,nan,158.262978508,443.049496973,443.549547436,443.393947031,nan,nan,nan,nan
1,241,0,0,1.0,0.0,0.3042643792,0,0.0,0.0,0.0,0.30561946815,0.0644520180389,0.241167450111,0.370071486189,0.0644520180389,0.33109636077,452,0.351738073422,0.401406211611,-1.0,nan,nan,nan,nan,0.0,0.0,0.0,nan,158.262978508,444.049665466,444.549701103,444.353929846,nan,nan,nan,nan
1,242,1,1,1.0,1.0,0.272157517727,0,0.0,0.0,0.0,0.305613845374,0.0643182201451,0.241295625229,0.369932065519,0.0643182201451,0.306957318292,376,-0.124962824795,0.478704673615,-0.132627625282,nan,nan,nan,nan,0.0,0.0,0.0,nan,158.262978508,445.049757838,445.549814573,445.321915356,nan,nan,nan,nan
1,243,1,1,1.0,1.0,0.295992550906,0,0.0,0.0,0.0,0.305475596086,0.0642210657819,0.241254530305,0.369696661868,0.0642210657819,0.290804815944,239,0.665069831863,0.183388857662,0.640549267122,nan,nan,nan,nan,0.0,0.0,0.0,nan,158.262978508,446.04989554,446.549920629,446.345888091,nan,nan,nan,nan
1,244,1,1,1.0,1.0,0.263856324367,0,0.0,0.0,0.0,0.305436571209,0.0640916626991,0.24134490851,0.369528233908,0.0640916626991,0.277335464333,418,0.101175887384,0.455961754156,-0.661679309199,nan,nan,nan,nan,0.0,0.0,0.0,nan,158.262978508,447.050011005,447.550067739,447.313867329,nan,nan,nan,nan
1,245,1,1,1.0,1.0,0.335685295518,0,0.0,0.0,0.0,0.305266160361,0.0640153333801,0.241250826981,0.369281493742,0.0640153333801,0.298511390264,372,-0.138660017671,0.478458869494,-0.0888123791441,nan,nan,nan,nan,0.0,0.0,0.0,nan,158.262978508,448.050150988,448.550175221,448.385836283,nan,nan,nan,nan
1,246,1,1,1.0,1.0,0.311576568056,0,0.0,0.0,0.0,0.305390320097,0.0639139886463,0.24147633145,0.369304308743,0.0639139886463,0.303706062647,66,1.0,-0.118568705386,-1.0,nan,nan,nan,nan,0.0,0.0,0.0,nan,158.262978508,449.050309788,449.550300949,449.361886356,nan,nan,nan,nan
1,247,1,1,1.0,1.0,0.231444978155,0,0.0,0.0,0.0,0.305415467446,0.0637851643984,0.241630303048,0.369200631845,0.0637851643984,0.292902280577,397,-0.0275613476434,0.473159987783,-0.37569455347,nan,nan,nan,nan,0.0,0.0,0.0,nan,158.262978508,450.050391896,450.550438366,450.281836874,nan,nan,nan,nan
1,248,1,1,1.0,1.0,0.239262075629,0,0.0,0.0,0.0,0.305115991781,0.0638289747852,0.241287016996,0.368944966566,0.0638289747852,0.26076120728,451,0.343830962376,0.403518361206,-1.0,nan,nan,nan,nan,0.0,0.0,0.0,nan,158.262978508,451.050559533,451.550574358,451.289821608,nan,nan,nan,nan
1,249,1,1,1.0,1.0,0.231132226065,0,1.0,0.0,0.0,0.304850451797,0.0638367165715,0.241013735225,0.368687168368,0.0638367165715,0.233946426616,355,-0.173737462994,0.472683863687,0.0888799762457,nan,nan,nan,nan,0.0,0.0,0.0,nan,158.262978508,452.050662738,452.550693244,452.281794964,nan,nan,nan,nan
1,250,1,1,1.0,1.0,0.254997764714,1,0.0,0.0,1.0,0.304554394665,0.0638787724509,0.240675622214,0.368433167116,0.0638787724509,0.241797355469,484,0.614398947124,0.316112737715,-1.0,125.567944973,324.432055027,-15.8804449733,461.0,0.423959648591,0.380927367285,-1.0,1.05042496696,158.262978508,453.050772216,453.550822108,453.305769981,455.951117127,456.955428662,454.884315856,455.942780867
1,251,1,1,1.0,1.0,0.410393184517,0,0.0,0.0,0.0,0.304356168145,0.0638275780842,0.240528590061,0.36818374623,0.0638275780842,0.298841058432,357,-0.1717918326,0.473767524415,0.068739031695,nan,nan,nan,nan,0.0,0.0,0.0,nan,158.262978508,457.151313959,457.651336482,457.561707143,nan,nan,nan,nan
1,252,1,1,1.0,1.0,0.290259233676,0,0.0,0.0,0.0,0.304778626378,0.064049563218,0.24072906316,0.368828189596,0.064049563218,0.318550060969,187,1.0,-0.0912463489427,0.385383214542,nan,nan,nan,nan,0.0,0.0,0.0,nan,158.262978508,458.151433415,458.651475324,458.441692648,nan,nan,nan,nan
1,253,0,0,1.0,0.0,0.250085529406,0,0.0,0.0,0.0,0.30472100974,0.0639288716807,0.240792138059,0.368649881421,0.0639288716807,0.316912649199,429,0.177531820842,0.442080780324,-0.901885199234,nan,nan,nan,nan,0.0,0.0,0.0,nan,158.262978508,459.151591929,459.651621294,459.401677459,nan,nan,nan,nan
1,254,1,1,1.0,1.0,0.145969230216,0,0.0,0.0,0.0,0.304505059225,0.0638944348313,0.240610624394,0.368399494056,0.0638944348313,0.228771331099,133,1.0,-0.306259573676,-0.105336427414,nan,nan,nan,nan,0.0,0.0,0.0,nan,158.262978508,460.151701122,460.651752439,460.297670352,nan,nan,nan,nan
1,255,1,1,1.0,1.0,0.193793819286,0,0.0,0.0,0.0,0.303880902418,0.0645367152682,0.23934418715,0.368417617686,0.0645367152682,0.196616192969,293,0.103830259013,0.378659598285,0.564617056734,nan,nan,nan,nan,0.0,0.0,0.0,nan,158.262978508,461.151828561,461.651847947,461.34562238,nan,nan,nan,nan
1,256,1,1,1.0,1.0,0.225758417509,0,1.0,0.0,0.0,0.303449188366,0.0647764933945,0.238672694972,0.368225681761,0.0647764933945,0.18850715567,481,0.589289488337,0.325611856148,-1.0,nan,nan,nan,nan,0.0,0.0,0.0,nan,158.262978508,462.151955714,462.652000189,462.377714131,nan,nan,nan,nan
1,257,1,1,1.0,1.0,0.289521685801,1,0.0,0.0,1.0,0.303145708793,0.0648312344223,0.23831447437,0.367976943215,0.0648312344223,0.236357974199,421,0.121471671064,0.452518040197,-0.712610339232,154.526165048,295.473834952,-0.541790048185,420.0,0.1146601879,0.45369410126,-0.695047497311,0.808747827541,158.262978508,463.152070893,463.652111663,463.441592579,465.802400125,466.798856359,464.977278559,465.79406643
1,258,1,1,1.0,1.0,0.263263606001,0,0.0,0.0,0.0,0.30309269703,0.0647105396995,0.238382157331,0.36780323673,0.0647105396995,0.259514569771,141,1.0,-0.291952736687,-0.024586852943,nan,nan,nan,nan,0.0,0.0,0.0,nan,158.262978508,466.994268679,467.494270104,467.257532285,nan,nan,nan,nan
1,259,1,1,1.0,1.0,0.255134611856,0,0.0,0.0,0.0,0.302938320708,0.0646324093863,0.238305911322,0.367570730095,0.0646324093863,0.269306634553,376,-0.124962824795,0.478704673615,-0.132627625282,nan,nan,nan,nan,0.0,0.0,0.0,nan,158.262978508,467.99436219,468.494387564,468.249496802,nan,nan,nan,nan
1,260,1,1,1.0,1.0,0.25504965242,0,0.0,0.0,0.0,0.302753750404,0.0645756042472,0.238178146157,0.367329354651,0.0645756042472,0.257815956759,309,-0.0258396312562,0.415106541901,0.475305697888,nan,nan,nan,nan,0.0,0.0,0.0,nan,158.262978508,468.994499893,469.494530113,469.249549545,nan,nan,nan,nan
1,261,0,0,0.0,1.0,0.430820443202,0,0.0,0.0,0.0,0.302570273104,0.064518905169,0.238051367935,0.367089178273,0.064518905169,0.313668235826,32,1.0,0.061735800531,-1.0,nan,nan,nan,nan,0.0,0.0,0.0,nan,158.262978508,469.994643582,470.494672092,470.425464025,nan,nan,nan,nan
1,262,1,1,1.0,1.0,0.230740501545,0,0.0,0.0,0.0,0.303061653066,0.0648808001891,0.238180852877,0.367942453255,0.0648808001891,0.305536865722,395,-0.0383984177995,0.474183508328,-0.351427224487,nan,nan,nan,nan,0.0,0.0,0.0,nan,158.262978508,470.994760472,471.494773587,471.225500974,nan,nan,nan,nan
1,263,1,1,1.0,1.0,0.214617935009,0,0.0,0.0,0.0,0.302785618137,0.0649102329249,0.237875385212,0.367695851061,0.0649102329249,0.292059626585,470,0.497741612616,0.357740777197,-1.0,nan,nan,nan,nan,0.0,0.0,0.0,nan,158.262978508,471.994873941,472.494923548,472.209491876,nan,nan,nan,nan
1,264,1,1,1.0,1.0,0.222393122502,0,1.0,0.0,0.0,0.302450379798,0.0650135589196,0.237436820878,0.367463938717,0.0650135589196,0.222583853019,107,1.0,-0.290089771429,-0.379592780214,nan,nan,nan,nan,0.0,0.0,0.0,nan,158.262978508,472.995024473,473.495039298,473.217417595,nan,nan,nan,nan
1,265,1,1,1.0,1.0,0.262293417938,1,0.0,0.0,1.0,0.302147132611,0.0650763978511,0.23707073476,0.367223530462,0.0650763978511,0.233101491816,162,1.0,-0.218739557155,0.176632971453,-40.3084284342,130.308428434,16.4021784342,185.0,1.0,-0.102214474652,0.370299946716,1.23376624519,158.262978508,473.995121976,474.49516189,474.257415394,477.062147904,478.061885614,475.811999368,477.053816205
1,266,1,1,1.0,1.0,0.250979310833,0,0.0,0.0,0.0,0.301996741235,0.0649994438304,0.236997297404,0.366996185065,0.0649994438304,0.245221950424,257,0.470472903111,0.261039853404,0.655841377839,nan,nan,nan,nan,0.0,0.0,0.0,nan,158.262978508,478.262344166,478.762376382,478.513323477,nan,nan,nan,nan
1,267,1,1,1.0,1.0,0.274849981535,0,0.0,0.0,0.0,0.301804946384,0.064952233269,0.236852713115,0.366757179653,0.064952233269,0.262707570102,316,-0.0718215561597,0.428203514031,0.427892255365,nan,nan,nan,nan,0.0,0.0,0.0,nan,158.262978508,479.262460771,479.762515224,479.537310752,nan,nan,nan,nan
1,268,1,1,1.0,1.0,0.282668789383,0,0.0,0.0,0.0,0.301703991459,0.0648513911169,0.236852600342,0.366555382576,0.0648513911169,0.269499360584,267,0.362924526182,0.298807232282,0.646622522267,nan,nan,nan,nan,0.0,0.0,0.0,nan,158.262978508,480.262608736,480.762644944,480.545277526,nan,nan,nan,nan
1,269,1,1,1.0,1.0,0.298543891404,0,0.0,0.0,0.0,0.301632964586,0.0647406902534,0.236892274332,0.366373654839,0.0647406902534,0.285354220774,420,0.1146601879,0.45369410126,-0.695047497311,nan,nan,nan,nan,0.0,0.0,0.0,nan,158.262978508,481.262721065,481.762758413,481.561264956,nan,nan,nan,nan
1,270,1,1,1.0,1.0,0.27439468028,0,0.0,0.0,0.0,0.301621481042,0.0646205158091,0.237000965233,0.366241996851,0.0646205158091,0.285202453689,199,1.0,-0.0246761787097,0.468786302982,nan,nan,nan,nan,0.0,0.0,0.0,nan,158.262978508,482.262857057,482.762883571,482.537251737,nan,nan,nan,nan
1,271,1,1,1.0,1.0,0.298246534541,0,0.0,0.0,0.0,0.301520641039,0.0645219379629,0.236998703077,0.366042579002,0.0645219379629,0.290395035408,476,0.547545041103,0.340739382997,-1.0,nan,nan,nan,nan,0.0,0.0,0.0,nan,158.262978508,483.262990197,483.763024409,483.561236732,nan,nan,nan,nan
1,272,0,0,0.0,1.0,0.450073669199,0,0.0,0.0,0.0,0.301508559466,0.0644030897419,0.237105469724,0.365911649208,0.0644030897419,0.34090496134,97,1.0,-0.260369742894,-0.491718830742,nan,nan,nan,nan,0.0,0.0,0.0,nan,158.262978508,484.263132461,484.763159545,484.71320613,nan,nan,nan,nan
1,273,1,1,1.0,1.0,0.24996806914,0,0.0,0.0,0.0,0.302054754722,0.064910369642,0.23714438508,0.366965124364,0.064910369642,0.332762757627,323,-0.11001989341,0.43965344528,0.375855360355,nan,nan,nan,nan,0.0,0.0,0.0,nan,158.262978508,485.263241083,485.763265317,485.513209153,nan,nan,nan,nan
1,274,1,1,1.0,1.0,0.305833557621,0,0.0,0.0,0.0,0.301863961002,0.0648677420491,0.236996218953,0.366731703051,0.0648677420491,0.33529176532,395,-0.0383984177995,0.474183508328,-0.351427224487,nan,nan,nan,nan,0.0,0.0,0.0,nan,158.262978508,486.263352842,486.7633919,486.569186399,nan,nan,nan,nan
1,275,0,0,1.0,0.0,0.345649749506,0,0.0,0.0,0.0,0.301878448581,0.0647497045303,0.237128744051,0.366628153111,0.0647497045303,0.300483792089,126,1.0,-0.311411754845,-0.177408431044,nan,nan,nan,nan,0.0,0.0,0.0,nan,158.262978508,487.263512211,487.763542432,487.609161961,nan,nan,nan,nan
1,276,1,1,1.0,1.0,0.225598192308,0,0.0,0.0,0.0,0.302037616948,0.064685549901,0.237352067047,0.366723166849,0.064685549901,0.292360499812,431,0.191957257768,0.43918128748,-0.982298765802,nan,nan,nan,nan,0.0,0.0,0.0,nan,158.262978508,488.263603728,488.763671011,488.48920192,nan,nan,nan,nan
1,277,1,1,1.0,1.0,0.313430844806,0,0.0,0.0,0.0,0.301760662511,0.0647313964112,0.2370292661,0.366492058922,0.0647313964112,0.294892928873,211,0.948675772315,0.0413606888024,0.538689155053,nan,nan,nan,nan,0.0,0.0,0.0,nan,158.262978508,489.263732307,489.763776212,489.577163151,nan,nan,nan,nan
1,278,1,1,1.0,1.0,0.345210698899,0,0.0,0.0,0.0,0.301802793133,0.0646182379038,0.237184555229,0.366421031037,0.0646182379038,0.294746578671,509,0.822386376617,0.224555004187,-1.0,nan,nan,nan,nan,0.0,0.0,0.0,nan,158.262978508,490.263896238,490.763908498,490.609106937,nan,nan,nan,nan
1,279,0,0,0.0,1.0,0.47306794906,0,0.0,0.0,0.0,0.301958936679,0.064554243154,0.237404693525,0.366513179833,0.064554243154,0.377236497588,292,0.112881669716,0.376069582356,0.569261850688,nan,nan,nan,nan,0.0,0.0,0.0,nan,158.262978508,491.264025958,491.764052472,491.737093907,nan,nan,nan,nan
1,280,1,1,1.0,1.0,0.304946903605,0,0.0,0.0,0.0,0.30257223063,0.0652447539727,0.237327476657,0.367816984603,0.0652447539727,0.374408517188,388,-0.0739633693698,0.476941921698,-0.268577162136,nan,nan,nan,nan,0.0,0.0,0.0,nan,158.262978508,492.264122035,492.764166796,492.569068939,nan,nan,nan,nan
1,281,1,1,1.0,1.0,0.328785642982,0,0.0,0.0,0.0,0.302580711605,0.0651282953343,0.237452416271,0.367709006939,0.0651282953343,0.368933498549,117,1.0,-0.307587969795,-0.271886539361,nan,nan,nan,nan,0.0,0.0,0.0,nan,158.262978508,493.264276274,493.764299081,493.593061917,nan,nan,nan,nan
1,282,0,0,0.0,1.0,0.384630319197,0,0.0,0.0,0.0,0.302673967588,0.0650310304673,0.237642937121,0.367704998056,0.0650310304673,0.339454288594,373,-0.135407706169,0.478559568072,-0.0996974893599,nan,nan,nan,nan,0.0,0.0,0.0,nan,158.262978508,494.264420248,494.764440205,494.649050567,nan,nan,nan,nan
1,283,1,1,1.0,1.0,0.216572850477,0,0.0,0.0,0.0,0.302964592949,0.0650981756811,0.237866417267,0.36806276863,0.0650981756811,0.309996270885,41,1.0,0.0148395037771,-1.0,nan,nan,nan,nan,0.0,0.0,0.0,nan,158.262978508,495.264493803,495.76454113,495.481066654,nan,nan,nan,nan
1,284,1,1,1.0,1.0,0.29642846575,0,0.0,0.0,0.0,0.302659321774,0.0651849502124,0.237474371561,0.367844271986,0.0651849502124,0.299210545141,214,0.920243657418,0.0575410437433,0.553854850604,nan,nan,nan,nan,0.0,0.0,0.0,nan,158.262978508,496.264622952,496.764667713,496.561051418,nan,nan,nan,nan
1,285,1,1,1.0,1.0,0.320210470818,0,0.0,0.0,0.0,0.30263738214,0.0650711334942,0.237566248646,0.367708515634,0.0650711334942,0.277737262348,57,1.0,-0.0707313323512,-1.0,nan,nan,nan,nan,0.0,0.0,0.0,nan,158.262978508,497.264769493,497.764802564,497.584979963,nan,nan,nan,nan
1,286,1,1,1.0,1.0,0.304056257941,0,0.0,0.0,0.0,0.3026990421,0.0649651840774,0.237733858023,0.367664226178,0.0649651840774,0.30689839817,254,0.503011129055,0.248947817922,0.65613358125,nan,nan,nan,nan,0.0,0.0,0.0,nan,158.262978508,498.264898927,498.764925441,498.568955185,nan,nan,nan,nan
1,287,1,1,1.0,1.0,0.311919255648,0,0.0,0.0,0.0,0.30270378761,0.064851558611,0.237852228999,0.367555346221,0.064851558611,0.312061994802,453,0.359670421306,0.39926174925,-1.0,nan,nan,nan,nan,0.0,0.0,0.0,nan,158.262978508,499.265028362,499.76508196,499.576947617,nan,nan,nan,nan
1,288,1,1,1.0,1.0,0.303795678541,0,0.0,0.0,0.0,0.302735897255,0.064740755601,0.237995141654,0.367476652856,0.064740755601,0.306590397377,221,0.851781464038,0.0945411604707,0.585422935822,nan,nan,nan,nan,0.0,0.0,0.0,nan,158.262978508,500.265133278,500.765182314,500.568928956,nan,nan,nan,nan
1,289,1,1,1.0,1.0,0.311630166601,0,0.0,0.0,0.0,0.302739577051,0.0646282907852,0.238111286266,0.367367867836,0.0646282907852,0.309115033597,328,-0.132159558243,0.44685796506,0.336046158271,nan,nan,nan,nan,0.0,0.0,0.0,nan,158.262978508,501.265283524,501.765302911,501.576913691,nan,nan,nan,nan
1,290,1,1,1.0,1.0,0.319484896492,0,0.0,0.0,0.0,0.302770340337,0.0645184925178,0.238251847819,0.367288832854,0.0645184925178,0.311636913878,97,1.0,-0.260369742894,-0.491718830742,nan,nan,nan,nan,0.0,0.0,0.0,nan,158.262978508,502.265413814,502.765437762,502.58489871,nan,nan,nan,nan
1,291,1,1,1.0,1.0,0.263317204546,0,0.0,0.0,0.0,0.302827976737,0.0644146101816,0.238413366556,0.367242586919,0.0644146101816,0.298144089213,18,0.988682696815,0.131162580546,-1.0,nan,nan,nan,nan,0.0,0.0,0.0,nan,158.262978508,503.265559499,503.76557632,503.528876703,nan,nan,nan,nan
1,292,1,1,1.0,1.0,0.287186164409,0,0.0,0.0,0.0,0.302692200888,0.0643453931127,0.238346807775,0.367037594,0.0643453931127,0.289996088482,143,1.0,-0.287057525782,-0.00469998909502,nan,nan,nan,nan,0.0,0.0,0.0,nan,158.262978508,504.265688363,504.765717443,504.552874527,nan,nan,nan,nan
1,293,1,1,1.0,1.0,0.335057510063,0,0.0,0.0,0.0,0.302639098023,0.0642415052662,0.238397592757,0.366880603289,0.0642415052662,0.295186959673,293,0.103830259013,0.378659598285,0.564617056734,nan,nan,nan,nan,0.0,0.0,0.0,nan,158.262978508,505.265793279,505.765820934,505.600850789,nan,nan,nan,nan
1,294,1,1,1.0,1.0,0.262893834151,0,0.0,0.0,0.0,0.302749741068,0.0641596477822,0.238590093285,0.36690938885,0.0641596477822,0.295045836208,209,0.967301840512,0.0304835193525,0.52804999659,nan,nan,nan,nan,0.0,0.0,0.0,nan,158.262978508,506.265935828,506.765947232,506.528829662,nan,nan,nan,nan
1,295,1,1,1.0,1.0,0.302777023986,0,0.0,0.0,0.0,0.302614176758,0.0640924605421,0.238521716216,0.3667066373,0.0640924605421,0.3002427894,310,-0.032854544558,0.417080732083,0.468828018046,nan,nan,nan,nan,0.0,0.0,0.0,nan,158.262978508,507.266029625,507.76608807,507.568806649,nan,nan,nan,nan
1,296,1,1,1.0,1.0,0.246610186994,0,0.0,0.0,0.0,0.302614728783,0.0639837377364,0.238630991046,0.366598466519,0.0639837377364,0.270760348377,153,1.0,-0.255547855702,0.0926213922694,nan,nan,nan,nan,0.0,0.0,0.0,nan,158.262978508,508.266199258,508.766194982,508.512809445,nan,nan,nan,nan
1,297,1,1,1.0,1.0,0.286488245241,0,0.0,0.0,0.0,0.30242552425,0.0639581769842,0.238467347266,0.366383701234,0.0639581769842,0.278625152074,401,-0.00506340639596,0.470796889516,-0.425203102762,nan,nan,nan,nan,0.0,0.0,0.0,nan,158.262978508,509.266285073,509.766331544,509.552773318,nan,nan,nan,nan
1,298,1,1,1.0,1.0,0.246341909748,0,0.0,0.0,0.0,0.302371863378,0.0638570865684,0.238514776809,0.366228949946,0.0638570865684,0.259813447328,151,1.0,-0.262720288689,0.0734626651272,nan,nan,nan,nan,0.0,0.0,0.0,nan,158.262978508,510.266411656,510.766455276,510.512753566,nan,nan,nan,nan
1,299,1,1,1.0,1.0,0.230195964687,0,0.0,0.0,0.0,0.302183843399,0.0638321490694,0.23835169433,0.366015992469,0.0638321490694,0.254342039892,417,0.0945046041228,0.457053563907,-0.645720198395,nan,nan,nan,nan,0.0,0.0,0.0,nan,158.262978508,511.266541091,511.766585851,511.496737055,nan,nan,nan,nan
1,300,1,1,1.0,1.0,0.22866156837,0,1.0,0.0,0.0,0.301943081263,0.0638607078641,0.238082373399,0.365803789127,0.0638607078641,0.235066480935,209,0.967301840512,0.0304835193525,0.52804999659,nan,nan,nan,nan,0.0,0.0,0.0,nan,158.262978508,512.300062323,512.800052914,512.528723891,nan,nan,nan,nan
1,301,1,1,1.0,1.0,0.220527157653,1,0.0,0.0,1.0,0.301698809553,0.0638939509968,0.237804858556,0.36559276055,0.0638939509968,0.22646156357,12,0.942476689623,0.159273951266,-1.0,-33.1297354684,123.129735468,114.692235468,175.0,1.0,-0.155629953633,0.290361762956,1.48383181728,158.262978508,513.300174651,513.800175221,513.520701808,516.62555252,517.622803607,515.125340407,516.617221391
1,302,1,1,1.0,1.0,0.238911975641,0,0.0,0.0,0.0,0.301429136291,0.0639585112471,0.237470625044,0.365387647538,0.0639585112471,0.229366900555,454,0.367627362238,0.397084843583,-1.0,nan,nan,nan,nan,0.0,0.0,0.0,nan,158.262978508,517.825704876,518.325757334,518.064616852,nan,nan,nan,nan
1,303,1,1,1.0,1.0,0.230780415237,0,0.0,0.0,0.0,0.301222125825,0.0639534571324,0.237268668693,0.365175582958,0.0639534571324,0.230073182844,21,1.0,0.116713997928,-1.0,nan,nan,nan,nan,0.0,0.0,0.0,nan,158.262978508,518.825851416,519.325882207,519.056631831,nan,nan,nan,nan
1,304,1,1,1.0,1.0,0.190660879482,0,1.0,0.0,0.0,0.300989644932,0.0639755303714,0.237014114561,0.364965175304,0.0639755303714,0.220117756786,206,0.994723455659,0.014051917983,0.511316161583,nan,nan,nan,nan,0.0,0.0,0.0,nan,158.262978508,519.825969161,520.326030172,520.016630041,nan,nan,nan,nan
1,305,1,1,1.0,1.0,0.198462866247,1,0.0,0.0,1.0,0.300626721362,0.0641818845088,0.236444836853,0.364808605871,0.0641818845088,0.206634720322,25,1.0,0.0970682892709,-1.0,69.1022345012,20.8977654988,3.31964049884,30.0,1.0,0.071945658744,-1.0,0.800509355962,158.262978508,520.826130527,521.326158466,521.024593393,523.459778969,524.471107332,522.642972852,523.451434156
1,306,1,1,1.0,1.0,0.228253878187,0,0.0,0.0,0.0,0.300291757902,0.0643421891794,0.235949568723,0.364633947082,0.0643421891794,0.205792541305,341,-0.168535884224,0.46196150489,0.223260112086,nan,nan,nan,nan,0.0,0.0,0.0,nan,158.262978508,524.668252476,525.168316053,524.896506354,nan,nan,nan,nan
1,307,1,1,1.0,1.0,0.188071050681,0,0.0,0.0,0.0,0.300056339995,0.0643684064754,0.235687933519,0.36442474647,0.0643684064754,0.204929265038,201,1.0,-0.0135712615467,0.48142235136,nan,nan,nan,nan,0.0,0.0,0.0,nan,158.262978508,525.668414412,526.168416977,525.856485462,nan,nan,nan,nan
1,308,0,0,1.0,0.0,0.0679670358077,0,0.0,0.0,0.0,0.299691567065,0.06457950008,0.235112066985,0.364271067145,0.06457950008,0.161430654892,411,0.0555201669072,0.463022710015,-0.557054760163,nan,nan,nan,nan,0.0,0.0,0.0,nan,158.262978508,526.668550973,527.168589462,526.736518009,nan,nan,nan,nan
1,309,1,1,1.0,1.0,0.179895015899,0,0.0,0.0,0.0,0.298939214691,0.0658083860531,0.233130828638,0.364747600744,0.0658083860531,0.145311034129,278,0.248285521772,0.335802812283,0.621962573991,nan,nan,nan,nan,0.0,0.0,0.0,nan,158.262978508,527.668655889,528.168717185,527.848550905,nan,nan,nan,nan
1,310,1,1,1.0,1.0,0.123216428328,0,0.0,0.0,0.0,0.298553958384,0.066048788249,0.232505170135,0.364602746634,0.066048788249,0.123692826678,108,1.0,-0.292426609412,-0.368663285579,nan,nan,nan,nan,0.0,0.0,0.0,nan,158.262978508,528.669253454,529.168846335,528.792469882,nan,nan,nan,nan
1,311,1,1,1.0,1.0,0.227511198726,0,1.0,0.0,0.0,0.297988353449,0.0666874943126,0.231300859136,0.364675847761,0.0666874943126,0.176874214318,65,1.0,-0.113312155659,-1.0,nan,nan,nan,nan,0.0,0.0,0.0,nan,158.262978508,529.668888814,530.168934715,529.896400013,nan,nan,nan,nan
1,312,1,1,1.0,1.0,0.219361962285,1,0.0,0.0,1.0,0.297761738803,0.0666996398046,0.231062098999,0.364461378608,0.0666996398046,0.190029863113,373,-0.135407706169,0.478559568072,-0.0996974893599,-157.675573029,247.675573029,-14.5900519708,352.0,-0.17544712699,0.470851603012,0.118673592819,1.08375119185,158.262978508,530.669027372,531.169086672,530.888389334,533.586027983,534.595302785,532.485902198,533.577692578
1,313,1,1,1.0,1.0,0.317779726814,0,0.0,0.0,0.0,0.297510457468,0.0667399438076,0.230770513661,0.364250401276,0.0667399438076,0.254884295942,164,1.0,-0.209685835145,0.194761549991,nan,nan,nan,nan,0.0,0.0,0.0,nan,158.262978508,534.7945759,535.294594716,535.112355627,nan,nan,nan,nan
1,314,1,1,1.0,1.0,0.221608248074,0,0.0,0.0,0.0,0.297575215517,0.0666430624224,0.230932153095,0.36421827794,0.0666430624224,0.252916645724,467,0.473005185182,0.365775667588,-1.0,nan,nan,nan,nan,0.0,0.0,0.0,nan,158.262978508,535.794689369,536.29472244,536.016297617,nan,nan,nan,nan
1,315,1,1,1.0,1.0,0.213470416144,0,0.0,0.0,0.0,0.2973332825,0.0666743870965,0.230658895404,0.364007669597,0.0666743870965,0.250952797011,277,0.258470646878,0.33263615818,0.624824240443,nan,nan,nan,nan,0.0,0.0,0.0,nan,158.262978508,536.794815097,537.294849309,537.008285513,nan,nan,nan,nan
1,316,1,1,1.0,1.0,0.245297596324,0,1.0,0.0,0.0,0.297067051178,0.0667354277861,0.230331623392,0.363802478964,0.0667354277861,0.226792086847,386,-0.0833946583454,0.477495592553,-0.245424736514,nan,nan,nan,nan,0.0,0.0,0.0,nan,158.262978508,537.794945387,538.294978173,538.040242983,nan,nan,nan,nan
1,317,1,1,0.0,0.0,0.397170917131,0,0.0,0.0,0.0,0.29690322379,0.0666931631525,0.230210060637,0.363596386942,0.0666931631525,0.285312976533,146,1.0,-0.278792578557,0.0248813210997,nan,nan,nan,nan,0.0,0.0,0.0,nan,158.262978508,538.795071115,539.295123288,539.192242032,nan,nan,nan,nan
1,318,1,1,1.0,1.0,0.317048735451,0,0.0,0.0,0.0,0.297219525661,0.0668248557583,0.230394669903,0.36404438142,0.0668248557583,0.319839082969,330,-0.139766326074,0.449518327743,0.319540245599,nan,nan,nan,nan,0.0,0.0,0.0,nan,158.262978508,539.795183158,540.295240178,540.112231894,nan,nan,nan,nan
1,319,1,1,1.0,1.0,0.260885605123,0,0.0,0.0,0.0,0.297281881667,0.0667289388752,0.230552942792,0.364010820542,0.0667289388752,0.325035085902,287,0.159501648714,0.36255249221,0.590751920292,nan,nan,nan,nan,0.0,0.0,0.0,nan,158.262978508,540.795320005,541.295353647,541.05620561,nan,nan,nan,nan
1,320,1,1,1.0,1.0,0.284748862963,0,0.0,0.0,0.0,0.297167786756,0.0666553255765,0.23051246118,0.363823112333,0.0666553255765,0.287561067846,426,0.156193047225,0.446210853967,-0.81485970128,nan,nan,nan,nan,0.0,0.0,0.0,nan,158.262978508,541.795443738,542.295488213,542.080192601,nan,nan,nan,nan
1,321,1,1,1.0,1.0,0.324608674739,0,0.0,0.0,0.0,0.297128977619,0.0665547047581,0.230574272861,0.363683682377,0.0665547047581,0.290081047608,193,1.0,-0.0580453890011,0.428658791268,nan,nan,nan,nan,0.0,0.0,0.0,nan,158.262978508,542.795571461,543.295618502,543.120180136,nan,nan,nan,nan
1,322,1,1,1.0,1.0,0.324427067302,0,0.0,0.0,0.0,0.297214584152,0.0664685992304,0.230745984922,0.363683183383,0.0664685992304,0.311261535001,509,0.822386376617,0.224555004187,-1.0,nan,nan,nan,nan,0.0,0.0,0.0,nan,158.262978508,543.79572684,544.295747937,544.120153907,nan,nan,nan,nan
1,323,1,1,1.0,1.0,0.316270703916,0,0.0,0.0,0.0,0.29729909497,0.0663825772469,0.230916517723,0.363681672216,0.0663825772469,0.321768815319,123,1.0,-0.311441137266,-0.208672863777,nan,nan,nan,nan,0.0,0.0,0.0,nan,158.262978508,544.795865967,545.295860265,545.112136671,nan,nan,nan,nan
1,324,1,1,1.0,1.0,0.276170839556,0,0.0,0.0,0.0,0.297357830601,0.0662881177352,0.231069712866,0.363645948336,0.0662881177352,0.305622870258,358,-0.170583909915,0.474268316859,0.0585874414746,nan,nan,nan,nan,0.0,0.0,0.0,nan,158.262978508,545.795952352,546.295997968,546.072123192,nan,nan,nan,nan
1,325,1,1,1.0,1.0,0.260001516901,0,0.0,0.0,0.0,0.297292438653,0.0661961755197,0.231096263134,0.363488614173,0.0661961755197,0.284147686791,13,0.950262168777,0.154664060346,-1.0,nan,nan,nan,nan,0.0,0.0,0.0,nan,158.262978508,546.796094901,547.296123126,547.056096418,nan,nan,nan,nan
1,326,1,1,1.0,1.0,0.29891052749,0,0.0,0.0,0.0,0.297177697356,0.0661265183103,0.231051179045,0.363304215666,0.0661265183103,0.278360961316,388,-0.0739633693698,0.476941921698,-0.268577162136,nan,nan,nan,nan,0.0,0.0,0.0,nan,158.262978508,547.797167439,548.296278219,548.096077967,nan,nan,nan,nan
1,327,1,1,1.0,1.0,0.323737415951,0,0.0,0.0,0.0,0.297183012786,0.0660250889114,0.231157923874,0.363208101697,0.0660250889114,0.294216486781,42,1.0,0.00954878589686,-1.0,nan,nan,nan,nan,0.0,0.0,0.0,nan,158.262978508,548.796342651,549.296384275,549.120080067,nan,nan,nan,nan
1,328,1,1,1.0,1.0,0.323577760719,0,0.0,0.0,0.0,0.297264218911,0.0659403588181,0.231323860093,0.363204577729,0.0659403588181,0.315408568053,254,0.503011129055,0.248947817922,0.65613358125,nan,nan,nan,nan,0.0,0.0,0.0,nan,158.262978508,549.796481494,550.296497174,550.120059255,nan,nan,nan,nan
1,329,1,1,1.0,1.0,0.299424558878,0,0.0,0.0,0.0,0.297344443124,0.0658557436493,0.231488699475,0.363200186773,0.0658557436493,0.315579911849,447,0.312467642152,0.411646472288,-1.0,nan,nan,nan,nan,0.0,0.0,0.0,nan,158.262978508,550.796601805,551.296625183,551.096026364,nan,nan,nan,nan
1,330,1,1,1.0,1.0,0.329255769029,0,0.0,0.0,0.0,0.297350765665,0.0657556824642,0.2315950832,0.363106448129,0.0657556824642,0.317419362875,356,-0.17284377641,0.473239407326,0.0788368070227,nan,nan,nan,nan,0.0,0.0,0.0,nan,158.262978508,551.846753078,552.346766762,552.176008847,nan,nan,nan,nan
1,331,1,1,1.0,1.0,0.337146706879,0,0.0,0.0,0.0,0.297447447493,0.065679392576,0.231768054917,0.363126840069,0.065679392576,0.321942344929,247,0.578947625354,0.219392674348,0.6523805853,nan,nan,nan,nan,0.0,0.0,0.0,nan,158.262978508,552.846854858,553.346895912,553.184001565,nan,nan,nan,nan
1,332,1,1,1.0,1.0,0.312994359527,0,0.0,0.0,0.0,0.297567384832,0.0656162866359,0.231951098197,0.363183671468,0.0656162866359,0.326465611812,457,0.391639248186,0.390358177281,-1.0,nan,nan,nan,nan,0.0,0.0,0.0,nan,158.262978508,553.846997407,554.347057277,554.159991766,nan,nan,nan,nan
1,333,1,1,1.0,1.0,0.344818974379,0,0.0,0.0,0.0,0.297613851624,0.0655228463214,0.232091005302,0.363136697945,0.0655228463214,0.331653346928,201,1.0,-0.0135712615467,0.48142235136,nan,nan,nan,nan,0.0,0.0,0.0,nan,158.262978508,554.847133399,555.34716647,555.191952373,nan,nan,nan,nan
1,334,1,1,1.0,1.0,0.264693941921,0,0.0,0.0,0.0,0.297755608749,0.0654753566976,0.232280252051,0.363230965447,0.0654753566976,0.307502425276,324,-0.114799643766,0.441158325109,0.368064040095,nan,nan,nan,nan,0.0,0.0,0.0,nan,158.262978508,555.847267964,556.347290202,556.111961906,nan,nan,nan,nan
1,335,1,1,1.0,1.0,0.256544135045,0,0.0,0.0,0.0,0.297656621723,0.0654022156821,0.232254406041,0.363058837405,0.0654022156821,0.288685683782,230,0.760023132926,0.140224214653,0.61781109556,nan,nan,nan,nan,0.0,0.0,0.0,nan,158.262978508,556.847390272,557.347429615,557.103934407,nan,nan,nan,nan
1,336,1,1,1.0,1.0,0.28038943233,0,0.0,0.0,0.0,0.297533897882,0.0653430312302,0.232190866652,0.362876929112,0.0653430312302,0.267209169765,365,-0.157962026257,0.477016591838,-0.0139196855225,nan,nan,nan,nan,0.0,0.0,0.0,nan,158.262978508,557.847519136,558.347535672,558.127908568,nan,nan,nan,nan
1,337,1,1,1.0,1.0,0.272300351877,0,0.0,0.0,0.0,0.297482872687,0.0652524057111,0.232230466976,0.362735278398,0.0652524057111,0.269744639751,251,0.535576518695,0.236509187076,0.655284151108,nan,nan,nan,nan,0.0,0.0,0.0,nan,158.262978508,558.84761949,559.347673659,559.119919842,nan,nan,nan,nan
1,338,0,0,1.0,0.0,0.280093785841,0,0.0,0.0,0.0,0.297408147106,0.065169916353,0.232238230753,0.362578063459,0.065169916353,0.277594523349,119,1.0,-0.309446327048,-0.250710895617,nan,nan,nan,nan,0.0,0.0,0.0,nan,158.262978508,559.847788268,560.347817348,560.127882054,nan,nan,nan,nan
1,339,1,1,1.0,1.0,0.112061975524,0,0.0,0.0,0.0,0.297356921185,0.0650802341698,0.232276687015,0.362437155355,0.0650802341698,0.221485371081,46,1.0,-0.0117313672748,-1.0,nan,nan,nan,nan,0.0,0.0,0.0,nan,158.262978508,560.847889478,561.34792369,560.959951453,nan,nan,nan,nan
1,340,1,1,1.0,1.0,0.0317943943664,0,0.0,0.0,0.0,0.296810328425,0.0657565591985,0.231053769226,0.362566887623,0.0657565591985,0.141316718577,256,0.481312611765,0.257047908656,0.656065722404,nan,nan,nan,nan,0.0,0.0,0.0,nan,158.262978508,561.848018627,562.348083059,561.879813022,nan,nan,nan,nan
1,341,1,1,1.0,1.0,0.183795153629,0,1.0,0.0,0.0,0.296030869795,0.0672098880519,0.228820981743,0.363240757847,0.0672098880519,0.109217174506,428,0.170378320166,0.443486568519,-0.86866140055,nan,nan,nan,nan,0.0,0.0,0.0,nan,158.262978508,562.84812896,563.348180848,563.031924114,nan,nan,nan,nan
1,342,1,1,1.0,1.0,0.239551450126,1,0.0,0.0,1.0,0.295701732798,0.067385123116,0.228316609682,0.363086855914,0.067385123116,0.15171366604,306,-0.00395437407881,0.408974006242,0.494128827808,-119.204071011,209.204071011,-5.95217898907,298.0,0.0600896634305,0.391050340636,0.53969689008,0.983768810984,158.262978508,563.848253548,564.348309997,564.087804998,566.673590077,567.682355695,565.673459502,566.665258093
1,343,1,1,1.0,1.0,0.317649721634,0,0.0,0.0,0.0,0.295537550684,0.0673548043779,0.228182746307,0.362892355062,0.0673548043779,0.24699877513,255,0.492159363509,0.253017189294,0.656163111527,nan,nan,nan,nan,0.0,0.0,0.0,nan,158.262978508,567.882101502,568.382149398,568.199751223,nan,nan,nan,nan
1,344,1,1,1.0,1.0,0.285475007258,0,0.0,0.0,0.0,0.295602017655,0.0672671136535,0.228334904002,0.362869131309,0.0672671136535,0.280892059673,316,-0.0718215561597,0.428203514031,0.427892255365,nan,nan,nan,nan,0.0,0.0,0.0,nan,158.262978508,568.882235498,569.382275981,569.167710505,nan,nan,nan,nan
1,345,1,1,1.0,1.0,0.213414536789,0,0.0,0.0,0.0,0.295572578671,0.0671714832754,0.228401095396,0.362744061947,0.0671714832754,0.272179755227,15,0.965734432428,0.145352784795,-1.0,nan,nan,nan,nan,0.0,0.0,0.0,nan,158.262978508,569.882354954,570.382399144,570.095769491,nan,nan,nan,nan
1,346,1,1,1.0,1.0,0.22119542677,0,0.0,0.0,0.0,0.29533443942,0.0672193292528,0.228115110167,0.362553768672,0.0672193292528,0.240028323606,471,0.506014005179,0.354993781952,-1.0,nan,nan,nan,nan,0.0,0.0,0.0,nan,158.262978508,570.88249066,571.382542548,571.103686087,nan,nan,nan,nan
1,347,1,1,1.0,1.0,0.253025743179,0,0.0,0.0,0.0,0.295120164817,0.0672400130062,0.22788015181,0.362360177823,0.0672400130062,0.229211902246,64,1.0,-0.108036866323,-1.0,nan,nan,nan,nan,0.0,0.0,0.0,nan,158.262978508,571.882631498,572.382657728,572.135657242,nan,nan,nan,nan
1,348,1,1,1.0,1.0,0.236903461162,0,0.0,0.0,0.0,0.294998855244,0.0671809618775,0.227817893367,0.362179817122,0.0671809618775,0.237041543704,169,1.0,-0.185917379452,0.239118302078,nan,nan,nan,nan,0.0,0.0,0.0,nan,158.262978508,572.882748674,573.38281225,573.119652135,nan,nan,nan,nan
1,349,1,1,1.0,1.0,0.260741630569,0,0.0,0.0,0.0,0.294831914457,0.0671564074403,0.227675507016,0.361988321897,0.0671564074403,0.250223611637,382,-0.1011887567,0.478291136399,-0.199732273247,nan,nan,nan,nan,0.0,0.0,0.0,nan,158.262978508,573.882885236,574.382916881,574.143626866,nan,nan,nan,nan
1,350,1,1,1.0,1.0,0.24462562101,0,0.0,0.0,0.0,0.29473423456,0.0670848780782,0.227649356482,0.361819112638,0.0670848780782,0.247423570914,58,1.0,-0.0760896648475,-1.0,nan,nan,nan,nan,0.0,0.0,0.0,nan,158.262978508,574.882999845,575.383045176,575.127625466,nan,nan,nan,nan
1,351,1,1,1.0,1.0,0.244446579833,0,0.0,0.0,0.0,0.294591067093,0.0670423452908,0.227548721802,0.361633412384,0.0670423452908,0.249937943804,259,0.44882283482,0.268906983076,0.655011783756,nan,nan,nan,nan,0.0,0.0,0.0,nan,158.262978508,575.8831327,576.383172329,576.12757928,nan,nan,nan,nan
1,352,0,0,1.0,0.0,0.244329119567,0,0.0,0.0,0.0,0.294448205306,0.0670001047667,0.227448100539,0.361448310072,0.0670001047667,0.244467106803,357,-0.1717918326,0.473767524415,0.068739031695,nan,nan,nan,nan,0.0,0.0,0.0,nan,158.262978508,576.883252441,577.383320865,577.127581561,nan,nan,nan,nan
1,353,1,1,1.0,1.0,0.228178897407,0,0.0,0.0,0.0,0.294305821539,0.0669580243811,0.227347797158,0.36126384592,0.0669580243811,0.238984865602,21,1.0,0.116713997928,-1.0,nan,nan,nan,nan,0.0,0.0,0.0,nan,158.262978508,577.883379595,578.383440606,578.111558493,nan,nan,nan,nan
1,354,1,1,1.0,1.0,0.220090387389,0,0.0,0.0,0.0,0.294118493142,0.0669554225063,0.227163070636,0.361073915649,0.0669554225063,0.230866134788,90,1.0,-0.233635786423,-0.574971871003,nan,nan,nan,nan,0.0,0.0,0.0,nan,158.262978508,578.883543241,579.383556641,579.103633629,nan,nan,nan,nan
1,355,0,0,1.0,0.0,0.219863449689,0,0.0,0.0,0.0,0.2939093742,0.0669761273057,0.226933246894,0.360885501505,0.0669761273057,0.222710911495,199,1.0,-0.0246761787097,0.468786302982,nan,nan,nan,nan,0.0,0.0,0.0,nan,158.262978508,579.883673816,580.383709169,580.103537266,nan,nan,nan,nan
1,356,1,1,1.0,1.0,0.187842117622,0,0.0,0.0,0.0,0.293700794131,0.0669967653424,0.226704028788,0.360697559473,0.0669967653424,0.209265318234,406,0.0244967455079,0.467245700284,-0.489366101921,nan,nan,nan,nan,0.0,0.0,0.0,nan,158.262978508,580.883763907,581.383816935,581.071606025,nan,nan,nan,nan
1,357,1,1,1.0,1.0,0.203604890965,0,0.0,0.0,0.0,0.293403438298,0.0671367820775,0.22626665622,0.360540220375,0.0671367820775,0.203770152759,258,0.459642287315,0.26499291187,0.655490062901,nan,nan,nan,nan,0.0,0.0,0.0,nan,158.262978508,581.883893056,582.383932115,582.087497947,nan,nan,nan,nan
1,358,0,0,1.0,0.0,0.25943958899,0,0.0,0.0,0.0,0.293151901751,0.067210462209,0.225941439541,0.36036236396,0.067210462209,0.216962199192,117,1.0,-0.307587969795,-0.271886539361,nan,nan,nan,nan,0.0,0.0,0.0,nan,158.262978508,582.88403646,583.384088634,583.143476049,nan,nan,nan,nan
1,359,1,1,1.0,1.0,0.11536540417,0,0.0,0.0,0.0,0.293057733279,0.0671401071892,0.22591762609,0.360197840468,0.0671401071892,0.192803294708,307,-0.0113868739462,0.411053355611,0.487957006857,nan,nan,nan,nan,0.0,0.0,0.0,nan,158.262978508,583.884147364,584.384228047,583.999512768,nan,nan,nan,nan
