block,trial,time,setsize,freqtrials,trials_colorind,trials_colordeg,colorrgb0,colorrgb1,colorrgb2,correct_response,actual_response,acc,rts,probe_trials,rt_triggered_fast,rt_triggered_slow,rt_strailingavg,rts_runningavg,rts_runningstd,rts_runningslowthresh,rts_runningfastthresh,wm_respdeg,wm_respind,wm_resprgb0,wm_resprgb1,wm_resprgb2,wm_respcolorminusorigcolor,wm_rts,time_blockstart,time_encarray_onset,time_response,time_encarray_offest,time_memprobe_onset,time_memprobe_offset
0,0,4152,6,1,172,120,1.0,-0.170984061773,0.265024678188,1,1.0,1.0,0.350633829366,0,nan,nan,nan,nan,nan,nan,nan,nan,nan,0.0,0.0,0.0,nan,nan,158.262978508,159.28833853,159.638972359,159.788381294,nan,nan
0,1,4153,6,1,83,58,1.0,-0.203097876184,-0.665876706514,1,1.0,1.0,0.334420886356,0,nan,nan,nan,nan,nan,nan,nan,nan,nan,0.0,0.0,0.0,nan,nan,158.262978508,160.2885304,160.622951287,160.7885304,nan,nan
0,2,4154,6,1,263,184,0.405698801511,0.284171736334,0.651829885785,1,1.0,1.0,0.326342639513,0,nan,nan,nan,nan,nan,nan,nan,nan,nan,0.0,0.0,0.0,nan,nan,158.262978508,161.28858742,161.61493006,161.788641304,nan,nan
0,3,4156,6,1,471,331,0.506014005179,0.354993781952,-1.0,1,1.0,1.0,0.276839394122,0,nan,nan,nan,nan,nan,nan,nan,nan,nan,0.0,0.0,0.0,nan,nan,158.262978508,162.322088695,162.598928089,162.822106371,nan,nan
0,4,4157,6,1,99,69,1.0,-0.267176270739,-0.468793303331,1,1.0,1.0,0.268711540382,0,nan,nan,nan,nan,nan,nan,nan,nan,nan,0.0,0.0,0.0,nan,nan,158.262978508,163.322206155,163.590917696,163.822237231,nan,nan
0,5,4158,6,1,348,244,-0.175384772129,0.468017843042,0.157582163916,1,1.0,1.0,0.252557327505,0,nan,nan,nan,nan,nan,nan,nan,nan,nan,0.0,0.0,0.0,nan,nan,158.262978508,164.32233616,164.574893488,164.822366381,nan,nan
0,6,4159,6,1,212,149,0.93926288676,0.0467731277665,0.543851001166,1,1.0,1.0,0.284387073945,0,nan,nan,nan,nan,nan,nan,nan,nan,nan,0.0,0.0,0.0,nan,nan,158.262978508,165.322478424,165.606865498,165.822516342,nan,nan
0,7,4200,6,0,106,74,1.0,-0.287630069369,-0.390564445695,0,1.0,0.0,0.332259560004,0,0.0,0.0,nan,nan,nan,nan,nan,nan,nan,0.0,0.0,0.0,nan,nan,158.262978508,166.322610424,166.654869984,166.822642925,nan,nan
0,8,4201,6,1,339,238,-0.164955840019,0.45996923152,0.241423096872,1,1.0,1.0,0.364093012642,0,nan,nan,nan,nan,nan,nan,nan,nan,nan,0.0,0.0,0.0,nan,nan,158.262978508,167.322730165,167.686823178,167.822751548,nan,nan
0,9,4202,6,1,130,91,1.0,-0.309333154106,-0.136071487739,1,1.0,1.0,0.411977472715,0,nan,nan,nan,nan,nan,nan,nan,nan,nan,0.0,0.0,0.0,nan,nan,158.262978508,168.322839358,168.734816831,168.822865302,nan,nan
0,10,4203,6,1,403,283,0.00657627305109,0.469456436931,-0.450524507496,1,1.0,1.0,0.355787257664,0,nan,nan,nan,nan,nan,nan,nan,nan,nan,0.0,0.0,0.0,nan,nan,158.262978508,169.323019539,169.678806797,169.822989319,nan,nan
0,11,4204,6,1,6,4,0.895129075663,0.186272780825,-1.0,1,1.0,1.0,0.347713286988,0,nan,nan,nan,nan,nan,nan,nan,nan,nan,0.0,0.0,0.0,nan,nan,158.262978508,170.323070572,170.670783859,170.823133579,nan,nan
0,12,4205,6,1,165,116,1.0,-0.205056383665,0.203745440608,1,1.0,1.0,0.435554492287,0,nan,nan,nan,nan,nan,nan,nan,nan,nan,0.0,0.0,0.0,nan,nan,158.262978508,171.323221959,171.758776451,171.823250184,nan,nan
0,13,4210,6,1,108,75,1.0,-0.292426609412,-0.368663285579,1,1.0,1.0,0.403378352057,1,nan,nan,nan,nan,nan,nan,nan,-46.5765500552,194.0,1.0,-0.0524864644427,0.435571704399,60.6390500552,2.68398189265,158.262978508,172.323349113,172.726727465,172.823414685,174.148536536,176.8405522
0,14,4211,6,1,237,166,0.686387300223,0.174031846447,0.636349816437,1,1.0,1.0,0.461607587058,0,nan,nan,nan,nan,nan,nan,nan,nan,nan,0.0,0.0,0.0,nan,nan,158.262978508,178.049053646,178.510661233,178.549095556,nan,nan
0,15,4212,6,1,408,286,0.036737934283,0.465637664749,-0.515938449969,1,1.0,1.0,0.357419728301,0,nan,nan,nan,nan,nan,nan,nan,nan,nan,0.0,0.0,0.0,nan,nan,158.262978508,179.049219288,179.406639016,179.549233828,nan,nan
0,16,4213,6,1,362,254,-0.164239727892,0.476000155386,0.0174578511848,1,1.0,1.0,0.301288242918,0,nan,nan,nan,nan,nan,nan,nan,nan,nan,0.0,0.0,0.0,nan,nan,158.262978508,180.049329906,180.350618149,180.549356706,nan,nan
0,17,4214,6,1,485,341,0.622774561467,0.312875618285,-1.0,1,1.0,1.0,0.325142093003,0,nan,nan,nan,nan,nan,nan,nan,nan,nan,0.0,0.0,0.0,nan,nan,158.262978508,181.049450217,181.37459231,181.549497544,nan,nan
0,18,4215,6,1,282,198,0.208142307666,0.34807905204,0.609295500931,1,1.0,1.0,0.362934374716,0,nan,nan,nan,nan,nan,nan,nan,nan,nan,0.0,0.0,0.0,nan,nan,158.262978508,182.09962943,182.462563805,182.59961546,nan,nan
0,19,4220,6,1,438,307,0.243622561222,0.428096439079,-1.0,1,1.0,1.0,0.370876345318,1,nan,nan,nan,nan,nan,nan,nan,162.783926412,408.0,0.036737934283,0.465637664749,-0.515938449969,-20.7526764122,1.53393804468,158.262978508,183.099700989,183.470577335,183.599740903,184.924908655,186.46677641
0,20,4221,6,0,231,162,0.749609680972,0.145151270079,0.620821461523,0,0.0,1.0,0.354824197013,0,nan,nan,nan,nan,nan,nan,nan,nan,nan,0.0,0.0,0.0,nan,nan,158.262978508,187.683656882,188.038481079,188.183683395,nan,nan
0,21,4222,6,1,386,271,-0.0833946583454,0.477495592553,-0.245424736514,1,1.0,1.0,0.282728944905,0,nan,nan,nan,nan,nan,nan,nan,nan,nan,0.0,0.0,0.0,nan,nan,158.262978508,188.683747543,188.966476487,189.18378546,nan,nan
0,22,4223,6,1,311,218,-0.0397249783266,0.419020224334,0.462250212202,1,1.0,1.0,0.27454749262,0,nan,nan,nan,nan,nan,nan,nan,nan,nan,0.0,0.0,0.0,nan,nan,158.262978508,189.683888096,189.958435589,190.183917176,nan,nan
0,23,4224,6,1,124,87,1.0,-0.311577186586,-0.198226518473,1,1.0,1.0,0.266433038283,0,nan,nan,nan,nan,nan,nan,nan,nan,nan,0.0,0.0,0.0,nan,nan,158.262978508,190.683996433,190.950429471,191.184050031,nan,nan
0,24,4228,6,1,436,306,0.228681708805,0.431413732101,-1.0,1,1.0,1.0,0.290291164536,1,nan,nan,nan,nan,nan,nan,nan,166.274805482,404.0,0.0124894593597,0.468746268022,-0.463349101315,-22.8373054823,1.31711744424,158.262978508,191.684120451,191.974411615,192.184164356,193.509334388,194.834497008
0,25,4229,6,1,60,42,1.0,-0.0867837676833,-1.0,1,1.0,1.0,0.306995616294,0,nan,nan,nan,nan,nan,nan,nan,nan,nan,0.0,0.0,0.0,nan,nan,158.262978508,196.051346403,196.358342019,196.551394585,nan,nan
0,26,4230,6,1,277,194,0.258470646878,0.33263615818,0.624824240443,1,1.0,1.0,0.314846070018,0,nan,nan,nan,nan,nan,nan,nan,nan,nan,0.0,0.0,0.0,nan,nan,158.262978508,197.051475267,197.366321337,197.5515129,nan,nan
0,27,4231,6,1,370,260,-0.144805996584,0.478178727438,-0.0671803333712,1,1.0,1.0,0.298682163935,0,nan,nan,nan,nan,nan,nan,nan,nan,nan,0.0,0.0,0.0,nan,nan,158.262978508,198.051602991,198.350285155,198.551652598,nan,nan
0,28,4232,6,1,91,63,1.0,-0.237709898716,-0.562722318432,1,1.0,1.0,0.370565873571,0,nan,nan,nan,nan,nan,nan,nan,nan,nan,0.0,0.0,0.0,nan,nan,158.262978508,199.051738983,199.422304856,199.55177519,nan,nan
0,29,4233,6,1,509,357,0.822386376617,0.224555004187,-1.0,1,1.0,1.0,0.274397816509,0,nan,nan,nan,nan,nan,nan,nan,nan,nan,0.0,0.0,0.0,nan,nan,158.262978508,200.051859864,200.326257681,200.551893791,nan,nan
0,30,4234,6,1,444,312,0.289241202529,0.417409780569,-1.0,1,1.0,1.0,0.400899426546,0,nan,nan,nan,nan,nan,nan,nan,nan,nan,0.0,0.0,0.0,nan,nan,158.262978508,201.085346029,201.486245456,201.585359429,nan,nan
0,31,4235,6,1,80,56,1.0,-0.189075709245,-0.708965549488,1,1.0,1.0,0.3367860578,0,nan,nan,nan,nan,nan,nan,nan,nan,nan,0.0,0.0,0.0,nan,nan,158.262978508,202.085444673,202.422230731,202.585485442,nan,nan
0,32,4236,6,1,227,159,0.791019951953,0.125257787881,0.608066708266,1,1.0,1.0,0.304570574313,0,nan,nan,nan,nan,nan,nan,nan,nan,nan,0.0,0.0,0.0,nan,nan,158.262978508,203.085617727,203.390188301,203.585642816,nan,nan
0,33,4237,6,1,127,89,1.0,-0.31111021432,-0.167036648065,1,1.0,1.0,0.312440129463,0,nan,nan,nan,nan,nan,nan,nan,nan,nan,0.0,0.0,0.0,nan,nan,158.262978508,204.085754289,204.398194418,204.585755715,nan,nan
0,34,4238,6,1,474,333,0.530901762182,0.346545376391,-1.0,1,1.0,1.0,0.280313311145,0,nan,nan,nan,nan,nan,nan,nan,nan,nan,0.0,0.0,0.0,nan,nan,158.262978508,205.085844665,205.366157976,205.585886859,nan,nan
0,35,4239,6,1,427,300,0.163265173604,0.444863218481,-0.840208708629,1,1.0,1.0,0.296206089202,0,nan,nan,nan,nan,nan,nan,nan,nan,nan,0.0,0.0,0.0,nan,nan,158.262978508,206.085964976,206.382171066,206.586007456,nan,nan
0,36,4240,6,1,151,106,1.0,-0.262720288689,0.0734626651272,1,1.0,1.0,0.400064374786,0,nan,nan,nan,nan,nan,nan,nan,nan,nan,0.0,0.0,0.0,nan,nan,158.262978508,207.086085573,207.486149948,207.586133184,nan,nan
0,37,4241,6,1,451,317,0.343830962376,0.403518361206,-1.0,1,1.0,1.0,0.327882452868,0,nan,nan,nan,nan,nan,nan,nan,nan,nan,0.0,0.0,0.0,nan,nan,158.262978508,208.086249219,208.414131672,208.586255491,nan,nan
0,38,4242,6,1,330,232,-0.139766326074,0.449518327743,0.319540245599,1,1.0,1.0,0.255733887665,0,nan,nan,nan,nan,nan,nan,nan,nan,nan,0.0,0.0,0.0,nan,nan,158.262978508,209.086374947,209.342108835,209.58639861,nan,nan
0,39,4243,6,1,171,120,1.0,-0.176011872558,0.256450910142,1,1.0,1.0,0.295568040572,0,nan,nan,nan,nan,nan,nan,nan,nan,nan,0.0,0.0,0.0,nan,nan,158.262978508,210.086505237,210.382073277,210.586509513,nan,nan
0,40,4244,6,1,296,208,0.0772713571413,0.386205321608,0.550001308524,1,1.0,1.0,0.303450425155,0,nan,nan,nan,nan,nan,nan,nan,nan,nan,0.0,0.0,0.0,nan,nan,158.262978508,211.086608727,211.390059152,211.586642369,nan,nan
0,41,4245,6,0,36,25,1.0,0.0410699577143,-1.0,0,1.0,0.0,0.279295796994,0,0.0,0.0,nan,nan,nan,nan,nan,nan,nan,0.0,0.0,0.0,nan,nan,158.262978508,212.086761254,212.366057051,212.586790905,nan,nan
0,42,4246,6,1,318,223,-0.0835627602325,0.431640264478,0.413481556053,1,1.0,1.0,0.255185644142,0,nan,nan,nan,nan,nan,nan,nan,nan,nan,0.0,0.0,0.0,nan,nan,158.262978508,213.086857903,213.342043547,213.586899527,nan,nan
0,43,4247,6,1,147,103,1.0,-0.275801134503,0.0346720467303,1,1.0,1.0,0.263030110858,0,nan,nan,nan,nan,nan,nan,nan,nan,nan,0.0,0.0,0.0,nan,nan,158.262978508,214.086981065,214.350011176,214.587036944,nan,nan
0,44,4248,6,1,9,6,0.918933560847,0.172916688009,-1.0,1,1.0,1.0,0.302856565919,0,nan,nan,nan,nan,nan,nan,nan,nan,nan,0.0,0.0,0.0,nan,nan,158.262978508,215.087135018,215.389991584,215.587151268,nan,nan
0,45,4249,6,1,161,113,1.0,-0.223158351501,0.167490545043,1,1.0,1.0,0.286736850161,0,nan,nan,nan,nan,nan,nan,nan,nan,nan,0.0,0.0,0.0,nan,nan,158.262978508,216.087240504,216.373977354,216.587284124,nan,nan
0,46,4250,6,1,391,274,-0.0591907973189,0.475916278612,-0.303718712187,1,1.0,1.0,0.278591034934,0,nan,nan,nan,nan,nan,nan,nan,nan,nan,0.0,0.0,0.0,nan,nan,158.262978508,217.087359105,217.36595014,217.587400159,nan,nan
0,47,4251,6,1,323,227,-0.11001989341,0.43965344528,0.375855360355,1,1.0,1.0,0.285077580716,0,nan,nan,nan,nan,nan,nan,nan,nan,nan,0.0,0.0,0.0,nan,nan,158.262978508,218.12086266,218.405940241,218.620866082,nan,nan
0,48,4252,6,1,398,279,-0.0220377755791,0.472608796233,-0.387943383198,1,1.0,1.0,0.252967013046,0,nan,nan,nan,nan,nan,nan,nan,nan,nan,0.0,0.0,0.0,nan,nan,158.262978508,219.120953036,219.37392005,219.620989814,nan,nan
0,49,4253,6,1,269,189,0.34171296506,0.305888347675,0.643262349404,1,1.0,1.0,0.332829755731,0,nan,nan,nan,nan,nan,nan,nan,nan,nan,0.0,0.0,0.0,nan,nan,158.262978508,220.121079905,220.453909661,220.621136354,nan,nan
0,50,4254,6,1,161,113,1.0,-0.223158351501,0.167490545043,1,1.0,1.0,0.284624845255,0,nan,nan,nan,nan,nan,nan,nan,nan,nan,0.0,0.0,0.0,nan,nan,158.262978508,221.121252104,221.405876949,221.621254955,nan,nan
0,51,4255,6,1,35,24,1.0,0.0462653595507,-1.0,1,1.0,1.0,0.223265236709,0,nan,nan,nan,nan,nan,nan,nan,nan,nan,0.0,0.0,0.0,nan,nan,158.262978508,222.166585509,222.389850745,222.671407083,nan,nan
0,52,4256,6,1,373,262,-0.135407706169,0.478559568072,-0.0996974893599,1,1.0,1.0,0.282387967687,0,nan,nan,nan,nan,nan,nan,nan,nan,nan,0.0,0.0,0.0,nan,nan,158.262978508,223.171466099,223.453854066,223.671508863,nan,nan
0,53,4257,6,1,284,199,0.188465149253,0.353984098999,0.602236276499,1,1.0,1.0,0.250214963686,0,nan,nan,nan,nan,nan,nan,nan,nan,nan,0.0,0.0,0.0,nan,nan,158.262978508,224.171621762,224.421836725,224.671661675,nan,nan
0,54,4258,6,1,223,156,0.83172397378,0.104890589731,0.593432239612,1,1.0,1.0,0.242050332017,0,nan,nan,nan,nan,nan,nan,nan,nan,nan,0.0,0.0,0.0,nan,nan,158.262978508,225.171759749,225.413810081,225.671786834,nan,nan
0,55,4259,6,1,446,313,0.304696255059,0.41359904426,-1.0,1,1.0,1.0,0.257913745474,0,nan,nan,nan,nan,nan,nan,nan,nan,nan,0.0,0.0,0.0,nan,nan,158.262978508,226.171888328,226.429802074,226.671932233,nan,nan
0,56,4300,6,1,508,357,0.814199817736,0.228638933499,-1.0,1,1.0,1.0,0.233781354968,0,nan,nan,nan,nan,nan,nan,nan,nan,nan,0.0,0.0,0.0,nan,nan,158.262978508,227.172016622,227.405797977,227.672039715,nan,nan
0,57,4301,6,1,257,180,0.470472903111,0.261039853404,0.655841377839,1,1.0,1.0,0.265637330711,0,nan,nan,nan,nan,nan,nan,nan,nan,nan,0.0,0.0,0.0,nan,nan,158.262978508,228.172124104,228.437761435,228.672174281,nan,nan
0,58,4302,6,1,360,253,-0.167709501072,0.475188317955,0.0381258551808,1,1.0,1.0,0.321468607523,0,nan,nan,nan,nan,nan,nan,nan,nan,nan,0.0,0.0,0.0,nan,nan,158.262978508,229.17227321,229.493741818,229.67230115,nan,nan
0,59,4303,6,1,172,120,1.0,-0.170984061773,0.265024678188,1,1.0,1.0,0.361318725627,0,nan,nan,nan,nan,nan,nan,nan,nan,nan,0.0,0.0,0.0,nan,nan,158.262978508,230.17240179,230.533720515,230.672399794,nan,nan
0,60,4304,6,1,376,264,-0.124962824795,0.478704673615,-0.132627625282,1,1.0,1.0,0.297222748399,0,nan,nan,nan,nan,nan,nan,nan,nan,nan,0.0,0.0,0.0,nan,nan,158.262978508,231.172499863,231.469722611,231.672527803,nan,nan
0,61,4305,6,0,200,140,1.0,-0.0191209939188,0.47515178387,0,1.0,0.0,0.296960743144,0,0.0,0.0,nan,nan,nan,nan,nan,nan,nan,0.0,0.0,0.0,nan,nan,158.262978508,232.172725376,232.469686119,232.672684322,nan,nan
0,62,4306,6,1,387,272,-0.0787219327085,0.477231755363,-0.256974454483,1,1.0,1.0,0.256944127381,0,nan,nan,nan,nan,nan,nan,nan,nan,nan,0.0,0.0,0.0,nan,nan,158.262978508,233.172760728,233.429704855,233.672805773,nan,nan
0,63,4311,6,1,19,13,0.99625917486,0.126374530333,-1.0,1,1.0,1.0,0.216812902596,1,nan,nan,nan,nan,nan,nan,nan,66.3998101321,34.0,1.0,0.0514419701458,-1.0,10.2408148679,1.90886163851,158.262978508,234.172903847,234.38971675,234.672940909,235.998095832,237.914988391
0,64,4312,6,1,411,288,0.0555201669072,0.463022710015,-0.557054760163,1,1.0,1.0,0.425727170426,0,nan,nan,nan,nan,nan,nan,nan,nan,nan,0.0,0.0,0.0,nan,nan,158.262978508,239.13183522,239.557562391,239.631909061,nan,nan
0,65,4313,6,1,168,118,1.0,-0.190790017254,0.230361799274,1,1.0,1.0,0.313543458004,0,nan,nan,nan,nan,nan,nan,nan,nan,nan,0.0,0.0,0.0,nan,nan,158.262978508,240.132003998,240.445547456,240.632016542,nan,nan
0,66,4314,6,1,78,54,1.0,-0.179467652321,-0.739907630878,1,1.0,1.0,0.305429004133,0,nan,nan,nan,nan,nan,nan,nan,nan,nan,0.0,0.0,0.0,nan,nan,158.262978508,241.132109199,241.437538203,241.632135998,nan,nan
0,67,4315,6,1,191,134,1.0,-0.0691479807067,0.414571651978,1,1.0,1.0,0.313273184933,0,nan,nan,nan,nan,nan,nan,nan,nan,nan,0.0,0.0,0.0,nan,nan,158.262978508,242.132237494,242.445510678,242.632267714,nan,nan
0,68,4316,6,0,327,229,-0.128086156831,0.445480682368,0.344176439252,0,0.0,1.0,0.48110001022,0,nan,nan,nan,nan,nan,nan,nan,nan,nan,0.0,0.0,0.0,nan,nan,158.262978508,243.132379187,243.613479197,243.632410263,nan,nan
0,69,4317,6,1,421,296,0.121471671064,0.452518040197,-0.712610339232,1,1.0,1.0,0.304980259854,0,nan,nan,nan,nan,nan,nan,nan,nan,nan,0.0,0.0,0.0,nan,nan,158.262978508,244.132492941,244.437473201,244.632536846,nan,nan
0,70,4318,6,1,70,49,1.0,-0.13936984996,-0.906436913284,1,1.0,1.0,0.256846909411,0,nan,nan,nan,nan,nan,nan,nan,nan,nan,0.0,0.0,0.0,nan,nan,158.262978508,245.132608976,245.389455885,245.632643473,nan,nan
0,71,4319,6,1,375,263,-0.128556699755,0.478682433309,-0.121605159467,1,1.0,1.0,0.256743418984,0,nan,nan,nan,nan,nan,nan,nan,nan,nan,0.0,0.0,0.0,nan,nan,158.262978508,246.132726151,246.38946957,246.632790298,nan,nan
0,72,4320,6,1,482,338,0.597655625539,0.322480811492,-1.0,1,1.0,1.0,0.373907505069,0,nan,nan,nan,nan,nan,nan,nan,nan,nan,0.0,0.0,0.0,nan,nan,158.262978508,247.199574178,247.573481683,247.699569046,nan,nan
0,73,4321,6,0,419,294,0.107894673663,0.454841969249,-0.678098861371,0,0.0,1.0,0.49369335128,0,nan,nan,nan,nan,nan,nan,nan,nan,nan,0.0,0.0,0.0,nan,nan,158.262978508,248.199693634,248.693386985,248.708054698,nan,nan
0,74,4322,6,1,354,248,-0.174470673547,0.472100788149,0.0988677247603,1,1.0,1.0,0.26956198737,0,nan,nan,nan,nan,nan,nan,nan,nan,nan,0.0,0.0,0.0,nan,nan,158.262978508,249.199817651,249.469379639,249.699840744,nan,nan
0,75,4323,6,1,408,286,0.036737934283,0.465637664749,-0.515938449969,1,1.0,1.0,0.24544898374,0,nan,nan,nan,nan,nan,nan,nan,nan,nan,0.0,0.0,0.0,nan,nan,158.262978508,250.199922282,250.445371266,250.699961911,nan,nan
0,76,4324,6,1,2,1,0.863024578927,0.203622855609,-1.0,1,1.0,1.0,0.237312291283,0,nan,nan,nan,nan,nan,nan,nan,nan,nan,0.0,0.0,0.0,nan,nan,158.262978508,251.200042594,251.437354885,251.70010617,nan,nan
0,77,4325,6,1,468,329,0.481236483515,0.363131620867,-1.0,1,1.0,1.0,0.253159168642,0,nan,nan,nan,nan,nan,nan,nan,nan,nan,0.0,0.0,0.0,nan,nan,158.262978508,252.200171458,252.453330627,252.700240166,nan,nan
0,78,4326,6,0,317,222,-0.077772836126,0.429938605076,0.420733606481,0,1.0,0.0,0.260983963497,0,0.0,0.0,nan,nan,nan,nan,nan,nan,nan,0.0,0.0,0.0,nan,nan,158.262978508,253.200332538,253.461316502,253.700368746,nan,nan
0,79,4327,6,1,225,158,0.81146624694,0.115131125244,0.600981946568,1,1.0,1.0,0.25286209723,0,nan,nan,nan,nan,nan,nan,nan,nan,nan,0.0,0.0,0.0,nan,nan,158.262978508,254.200431752,254.453293849,254.700456841,nan,nan
0,80,4328,6,1,13,9,0.950262168777,0.154664060346,-1.0,1,1.0,1.0,0.340707578231,0,0.0,0.0,0.284851212986,0.310548729898,0.0588189051241,0.369367635022,0.251729824774,nan,nan,0.0,0.0,0.0,nan,nan,158.262978508,255.200584565,255.541292143,255.700607942,nan,nan
0,81,4329,6,1,347,243,-0.174938837379,0.46723881498,0.167157479366,1,1.0,1.0,0.316579464823,0,0.0,0.0,0.303383046761,0.310921061359,0.0585494847206,0.369470546079,0.252371576638,nan,nan,0.0,0.0,0.0,nan,nan,158.262978508,256.200688625,256.51726809,256.700723122,nan,nan
0,82,4330,6,1,81,56,1.0,-0.193804253699,-0.694219169772,1,1.0,1.0,0.324426497333,0,0.0,0.0,0.327237846795,0.310990066279,0.0581946944733,0.369184760752,0.252795371806,nan,nan,0.0,0.0,0.0,nan,nan,158.262978508,257.200816919,257.525243416,257.700852272,nan,nan
0,83,4331,6,1,315,221,-0.0657111424032,0.426434809442,0.434956515233,1,1.0,1.0,0.3562630862,0,0.0,0.0,0.332423016119,0.31115195099,0.0578616343586,0.369013585349,0.253290316632,nan,nan,0.0,0.0,0.0,nan,nan,158.262978508,258.200970587,258.557233673,258.700974579,nan,nan
0,84,4332,6,1,211,148,0.948675772315,0.0413606888024,0.538689155053,1,1.0,1.0,0.316138703842,0,0.0,0.0,0.332276095791,0.311688988314,0.0577239111139,0.369412899428,0.2539650772,nan,nan,0.0,0.0,0.0,nan,nan,158.262978508,259.201058682,259.517197386,259.70109603,nan,nan
0,85,4333,6,1,336,236,-0.158211608236,0.456758111158,0.268135266647,1,1.0,1.0,0.30796979554,0,0.0,0.0,0.326790528527,0.311741337909,0.0573853598698,0.369126697779,0.254355978039,nan,nan,0.0,0.0,0.0,nan,nan,158.262978508,260.201213205,260.509183001,260.701239434,nan,nan
0,86,4334,6,1,486,341,0.631151757674,0.309603058574,-1.0,1,1.0,1.0,0.259816202801,0,0.0,0.0,0.294641567394,0.311697482765,0.0570521812312,0.368749663996,0.254645301534,nan,nan,0.0,0.0,0.0,nan,nan,158.262978508,261.201351193,261.461167396,261.701379132,nan,nan
0,87,4335,6,0,409,287,0.0429436170054,0.464793150178,-0.529461854507,0,1.0,0.0,0.283581102267,0,0.0,0.0,0.283789033536,0.311101146214,0.0569922910158,0.368093437229,0.254108855198,nan,nan,0.0,0.0,0.0,nan,nan,158.262978508,262.201580126,262.485161229,262.701506856,nan,nan
0,88,4336,6,1,4,2,0.879126049628,0.195014037372,-1.0,1,1.0,1.0,0.267587114591,0,0.0,0.0,0.270328139886,0.310788418442,0.0567425699984,0.36753098844,0.254045848443,nan,nan,0.0,0.0,0.0,nan,nan,158.262978508,263.201576135,263.469163249,263.701630589,nan,nan
0,89,4337,6,1,411,288,0.0555201669072,0.463022710015,-0.557054760163,1,1.0,1.0,0.227399155498,0,0.0,0.0,0.259522457452,0.310303010533,0.0566063358905,0.366909346424,0.253696674643,nan,nan,0.0,0.0,0.0,nan,nan,158.262978508,264.201713552,264.429112707,264.701741491,nan,nan
0,90,4338,6,1,165,116,1.0,-0.205056383665,0.203745440608,1,1.0,1.0,0.323286961298,0,0.0,0.0,0.272757743796,0.309381856588,0.0569578165905,0.366339673179,0.252424039998,nan,nan,0.0,0.0,0.0,nan,nan,158.262978508,265.2018236,265.525110561,265.701873207,nan,nan
0,91,4339,6,1,89,62,1.0,-0.229484098413,-0.587370487375,1,1.0,1.0,0.387142601423,0,0.0,0.0,0.31260957274,0.309534659937,0.0566625431599,0.366197203097,0.252872116777,nan,nan,0.0,0.0,0.0,nan,nan,158.262978508,266.201952179,266.58909478,266.701988956,nan,nan
0,92,4340,6,0,21,14,1.0,0.116713997928,-1.0,0,0.0,1.0,0.514937985688,0,0.0,0.0,0.40845584947,0.310378224518,0.0569254003471,0.367303624865,0.253452824171,nan,nan,0.0,0.0,0.0,nan,nan,158.262978508,267.20211725,267.717055236,267.702173985,nan,nan
0,93,4341,6,1,99,69,1.0,-0.267176270739,-0.468793303331,1,1.0,1.0,0.322831090074,0,0.0,0.0,0.408303892395,0.312577791842,0.0604215356958,0.372999327538,0.252156256147,nan,nan,0.0,0.0,0.0,nan,nan,158.262978508,268.202217035,268.525048125,268.702254097,nan,nan
0,94,4342,6,0,385,270,-0.0879796604702,0.477733444059,-0.233926720364,0,0.0,1.0,0.394673175178,0,0.0,0.0,0.410814083647,0.312686869483,0.0601084901668,0.37279535965,0.252578379316,nan,nan,0.0,0.0,0.0,nan,nan,158.262978508,269.202359869,269.597033044,269.702398072,nan,nan
0,95,4343,6,1,133,93,1.0,-0.306259573676,-0.105336427414,1,1.0,1.0,0.282504002564,0,0.0,0.0,0.333336089272,0.313549883227,0.0603739116267,0.373923794854,0.253175971601,nan,nan,0.0,0.0,0.0,nan,nan,158.262978508,270.202498141,270.485002144,270.702502132,nan,nan
0,96,4344,6,1,374,262,-0.132039125116,0.478634076427,-0.110628443238,1,1.0,1.0,0.274387267884,0,0.0,0.0,0.317188148542,0.313226488637,0.0601412989968,0.373367787634,0.25308518964,nan,nan,0.0,0.0,0.0,nan,nan,158.262978508,271.202609899,271.476997167,271.702640975,nan,nan
0,97,4345,6,1,114,80,1.0,-0.303747463913,-0.303859371662,1,1.0,1.0,0.306264625397,0,0.0,0.0,0.287718631948,0.312826084299,0.0599589734992,0.372785057799,0.2528671108,nan,nan,0.0,0.0,0.0,nan,nan,158.262978508,272.202745321,272.509009947,272.70275701,nan,nan
0,98,4346,6,1,371,260,-0.14179360683,0.478331938097,-0.0779732583494,1,1.0,1.0,0.282108286861,0,0.0,0.0,0.287586726714,0.312759130637,0.0596559205734,0.372415051211,0.253103210064,nan,nan,0.0,0.0,0.0,nan,nan,158.262978508,273.202846816,273.484955103,273.702900414,nan,nan
0,99,4347,6,1,73,51,1.0,-0.1546788618,-0.830916872461,1,1.0,1.0,0.369963176548,0,0.0,0.0,0.319445362935,0.312449526155,0.0594329443735,0.371882470528,0.253016581781,nan,nan,0.0,0.0,0.0,nan,nan,158.262978508,274.20298965,274.572952827,274.703037546,nan,nan
0,100,4348,6,1,197,138,1.0,-0.035797595552,0.455774741445,1,1.0,1.0,0.353791572619,0,0.0,0.0,0.335287678676,0.313024662659,0.0594112745693,0.372435937228,0.253613388089,nan,nan,0.0,0.0,0.0,nan,nan,158.262978508,275.203132769,275.556924342,275.703160423,nan,nan
0,101,4349,6,0,311,218,-0.0397249783266,0.419020224334,0.462250212202,0,0.0,1.0,0.500211827923,0,0.0,0.0,0.40798885903,0.31342829543,0.0592540628746,0.372682358305,0.254174232556,nan,nan,0.0,0.0,0.0,nan,nan,158.262978508,276.203261348,276.703473176,276.703313521,nan,nan
0,102,4350,6,1,163,114,1.0,-0.214247802105,0.185723682048,1,1.0,1.0,0.345501213335,0,0.0,0.0,0.399834871292,0.315259506533,0.0617681852728,0.377027691806,0.253491321261,nan,nan,0.0,0.0,0.0,nan,nan,158.262978508,277.203393633,277.548894847,277.703406748,nan,nan
0,103,4351,6,1,295,207,0.0860222946478,0.38372732295,0.554986075565,1,1.0,1.0,0.265380457509,0,0.0,0.0,0.370364499589,0.315553115337,0.0615390924939,0.377092207831,0.254014022843,nan,nan,0.0,0.0,0.0,nan,nan,158.262978508,278.203502826,278.468883283,278.703529055,nan,nan
0,104,4352,6,1,505,355,0.789537956352,0.240683140511,-1.0,1,1.0,1.0,0.233218286652,0,0.0,0.0,0.281366652499,0.315070685935,0.061437919029,0.376508604964,0.253632766906,nan,nan,0.0,0.0,0.0,nan,nan,158.262978508,279.203617435,279.436835722,279.703643664,nan,nan
0,105,4353,6,1,183,128,1.0,-0.113108999915,0.354902835149,1,1.0,1.0,0.24105904717,0,1.0,0.0,0.24655259711,0.314291139275,0.0616592995762,0.375950438851,0.252631839699,nan,nan,0.0,0.0,0.0,nan,nan,158.262978508,280.203759414,280.444818461,280.70377595,nan,nan
0,106,4358,6,1,403,283,0.00657627305109,0.469456436931,-0.450524507496,1,1.0,1.0,0.230221909005,1,0.0,0.0,0.234833080942,0.313600270482,0.0617747440372,0.375375014519,0.251825526445,151.267418076,425.0,0.149162615564,0.447529597292,-0.791715667876,15.373206924,1.35050525004,158.262978508,281.270587769,281.500809678,281.770581782,283.095741266,284.454274016
0,107,4359,6,1,76,53,1.0,-0.169674511773,-0.773365826749,1,1.0,1.0,0.357621292118,0,0.0,0.0,0.276300749431,0.312821033459,0.0620066015288,0.374827634987,0.25081443193,nan,nan,0.0,0.0,0.0,nan,nan,158.262978508,285.671118279,286.028739571,286.171157338,nan,nan
0,108,4400,6,1,151,106,1.0,-0.262720288689,0.0734626651272,1,1.0,1.0,0.277449503541,0,0.0,0.0,0.288430901555,0.313235850668,0.0618678454902,0.375103696159,0.251368005178,nan,nan,0.0,0.0,0.0,nan,nan,158.262978508,286.671263394,286.948712897,287.171286772,nan,nan
0,109,4401,6,1,64,45,1.0,-0.108036866323,-1.0,1,1.0,1.0,0.237336810213,0,0.0,0.0,0.290802535291,0.312907535557,0.0616778391237,0.374585374681,0.251229696433,nan,nan,0.0,0.0,0.0,nan,nan,158.262978508,287.671390262,287.908727073,288.171394254,nan,nan
0,110,4402,6,1,343,241,-0.171388175652,0.463836419185,0.204822810802,1,1.0,1.0,0.197243503295,0,1.0,0.0,0.237343272349,0.312220528963,0.0618143851594,0.374034914123,0.250406143804,nan,nan,0.0,0.0,0.0,nan,nan,158.262978508,288.671499455,288.868742958,289.171522548,nan,nan
0,111,4406,6,1,200,140,1.0,-0.0191209939188,0.47515178387,1,1.0,1.0,0.189048936591,1,0.0,0.0,0.207876416699,0.311184699903,0.0624869444582,0.373671644361,0.248697755445,132.345804487,452.0,0.351738073422,0.401406211611,-1.0,177.029195513,1.57547195116,158.262978508,289.671610928,289.860659865,290.171658825,291.505160556,293.088683384
0,112,4407,6,1,34,23,1.0,0.0514419701458,-1.0,1,1.0,1.0,0.523346660659,0,0.0,0.0,0.303213033515,0.310094202016,0.0632594275276,0.373353629544,0.246834774489,nan,nan,0.0,0.0,0.0,nan,nan,158.262978508,294.297215621,294.820562281,294.797282904,nan,nan
0,113,4408,6,1,488,343,0.647907709101,0.302951493728,-1.0,1,1.0,1.0,0.347273381427,0,0.0,0.0,0.353222992892,0.311981391916,0.0660698706584,0.378051262574,0.245911521257,nan,nan,0.0,0.0,0.0,nan,nan,158.262978508,295.297323958,295.644597339,295.797384399,nan,nan
0,114,4409,6,1,286,201,0.169078956243,0.359734776014,0.594698705761,1,1.0,1.0,0.259135389701,0,0.0,0.0,0.376585143929,0.312290970771,0.0658617199248,0.378152690696,0.246429250846,nan,nan,0.0,0.0,0.0,nan,nan,158.262978508,296.297452822,296.556588212,296.797498438,nan,nan
0,115,4410,6,1,70,49,1.0,-0.13936984996,-0.906436913284,1,1.0,1.0,0.330949250143,0,0.0,0.0,0.312452673757,0.311828748327,0.0657601893154,0.377588937643,0.246068559012,nan,nan,0.0,0.0,0.0,nan,nan,158.262978508,297.297581116,297.628530366,297.797623311,nan,nan
0,116,4411,6,1,445,312,0.296953900578,0.415520102116,-1.0,1,1.0,1.0,0.266817920841,0,0.0,0.0,0.285634186895,0.311993580239,0.065499982185,0.377493562424,0.246493598054,nan,nan,0.0,0.0,0.0,nan,nan,158.262978508,298.297708555,298.564526476,298.797756166,nan,nan
0,117,4412,6,1,342,240,-0.170052622031,0.462913557708,0.21407524247,1,1.0,1.0,0.322666873224,0,0.0,0.0,0.306811348069,0.311607463492,0.0653519156205,0.376959379113,0.246255547872,nan,nan,0.0,0.0,0.0,nan,nan,158.262978508,299.297833713,299.620500586,299.797889877,nan,nan
0,118,4413,6,0,70,49,1.0,-0.13936984996,-0.906436913284,0,0.0,1.0,0.394489002414,0,0.0,0.0,0.327991265493,0.311701187304,0.0650823077589,0.376783495062,0.246618879545,nan,nan,0.0,0.0,0.0,nan,nan,158.262978508,300.297998499,300.692487502,300.798038413,nan,nan
0,119,4414,6,1,385,270,-0.0879796604702,0.477733444059,-0.233926720364,1,1.0,1.0,0.250392009504,0,0.0,0.0,0.322515961714,0.312396883229,0.0652474042502,0.377644287479,0.247149478979,nan,nan,0.0,0.0,0.0,nan,nan,158.262978508,301.298098283,301.548490293,301.798129929,nan,nan
0,120,4415,6,1,237,166,0.686387300223,0.174031846447,0.636349816437,1,1.0,1.0,0.210275609512,0,0.0,0.0,0.285052207143,0.311880175948,0.0652190024457,0.377099178394,0.246661173502,nan,nan,0.0,0.0,0.0,nan,nan,158.262978508,302.298218595,302.508494204,302.798286733,nan,nan
0,121,4416,6,1,131,92,1.0,-0.308451667147,-0.125800503078,1,1.0,1.0,0.266078376677,0,1.0,0.0,0.242248665231,0.311040468787,0.0655970899526,0.37663755874,0.245443378835,nan,nan,0.0,0.0,0.0,nan,nan,158.262978508,303.298353731,303.564432108,303.798400772,nan,nan
0,122,4421,6,1,0,0,0.846831709088,0.212097570855,-1.0,1,1.0,1.0,0.289933366701,1,0.0,0.0,0.25542911763,0.310671927049,0.0654533611179,0.376125288167,0.245218565931,-36.4778026238,180.0,1.0,-0.129278616986,0.331238955499,126.477802624,1.95879794797,158.262978508,304.298500272,304.588433638,304.798532773,306.123678857,308.090598956
0,123,4422,6,1,420,295,0.1146601879,0.45369410126,-0.695047497311,1,1.0,1.0,0.305181824137,0,0.0,0.0,0.287064522505,0.310503320867,0.0652133443122,0.375716665179,0.245289976555,nan,nan,0.0,0.0,0.0,nan,nan,158.262978508,309.299132048,309.604313872,309.799149724,nan,nan
0,124,4423,6,1,345,242,-0.173519535469,0.465595146217,0.186119282857,1,1.0,1.0,0.241079004016,0,0.0,0.0,0.278731398284,0.310460405571,0.0649515988497,0.37541200442,0.245508806721,nan,nan,0.0,0.0,0.0,nan,nan,158.262978508,310.299239815,310.540318819,310.799281725,nan,nan
0,125,4424,6,0,99,69,1.0,-0.267176270739,-0.468793303331,0,0.0,1.0,0.384890328627,0,0.0,0.0,0.310383718926,0.309905354358,0.0649858650846,0.374891219443,0.244919489274,nan,nan,0.0,0.0,0.0,nan,nan,158.262978508,311.299403176,311.684293505,311.799437958,nan,nan
0,126,4425,6,1,294,206,0.0948761993654,0.381212130724,0.559858230992,1,1.0,1.0,0.248741007876,0,0.0,0.0,0.291570113506,0.310500473202,0.0650685507872,0.375569023989,0.245431922414,nan,nan,0.0,0.0,0.0,nan,nan,158.262978508,312.299527479,312.548268487,312.799538598,nan,nan
0,127,4426,6,1,424,298,0.142174562463,0.448819569244,-0.770229420881,1,1.0,1.0,0.232626138721,0,0.0,0.0,0.288752491741,0.310014178199,0.0650413346606,0.37505551286,0.244972843539,nan,nan,0.0,0.0,0.0,nan,nan,158.262978508,313.299616714,313.532242853,313.799678866,nan,nan
0,128,4427,6,1,494,347,0.698129958021,0.282143999684,-1.0,1,1.0,1.0,0.328475456685,0,0.0,0.0,0.269947534427,0.309409584141,0.0651440574646,0.374553641605,0.244265526676,nan,nan,0.0,0.0,0.0,nan,nan,158.262978508,314.299766106,314.628241562,314.799788343,nan,nan
0,129,4428,6,1,408,286,0.036737934283,0.465637664749,-0.515938449969,1,1.0,1.0,0.328345736954,0,0.0,0.0,0.29648244412,0.309557381602,0.0649126104342,0.374469992036,0.244644771168,nan,nan,0.0,0.0,0.0,nan,nan,158.262978508,315.299877579,315.628223316,315.799917493,nan,nan
0,130,4429,6,1,119,83,1.0,-0.309446327048,-0.250710895617,1,1.0,1.0,0.288193414919,0,0.0,0.0,0.315004869519,0.309701907413,0.0646832964433,0.374385203856,0.245018610969,nan,nan,0.0,0.0,0.0,nan,nan,158.262978508,316.300012715,316.58820613,316.800046642,nan,nan
0,131,4430,6,1,497,349,0.723174939644,0.271260599794,-1.0,1,1.0,1.0,0.320053951815,0,0.0,0.0,0.312197701229,0.309537720447,0.0644631282785,0.374000848726,0.245074592169,nan,nan,0.0,0.0,0.0,nan,nan,158.262978508,317.300135022,317.620188974,317.800177217,nan,nan
0,132,4431,6,1,287,201,0.159501648714,0.36255249221,0.590751920292,1,1.0,1.0,0.287879236974,0,0.0,0.0,0.298708867903,0.309617388867,0.0642249589326,0.373842347799,0.245392429934,nan,nan,0.0,0.0,0.0,nan,nan,158.262978508,318.300275861,318.588155098,318.800302945,nan,nan
0,133,4432,6,1,240,168,0.654373017221,0.188015059697,0.642463954019,1,1.0,1.0,0.279777042102,0,0.0,0.0,0.295903410297,0.309453944115,0.0640106065252,0.373464550641,0.24544333759,nan,nan,0.0,0.0,0.0,nan,nan,158.262978508,319.300382202,319.580159244,319.800422971,nan,nan
0,134,4433,6,0,434,305,0.213881816697,0.43461034373,-1.0,0,0.0,1.0,0.471581163816,0,0.0,0.0,0.346412480964,0.309232474697,0.0638224406351,0.373054915332,0.245410034062,nan,nan,0.0,0.0,0.0,nan,nan,158.262978508,320.300553831,320.772134995,320.800577209,nan,nan
0,135,4434,6,1,65,45,1.0,-0.113312155659,-1.0,1,1.0,1.0,0.26343808556,0,0.0,0.0,0.338265430493,0.31043505758,0.0650916496629,0.375526707243,0.245343407917,nan,nan,0.0,0.0,0.0,nan,nan,158.262978508,321.300674713,321.564112798,321.800687827,nan,nan
0,136,4435,6,1,156,109,1.0,-0.244060613314,0.121041471254,1,1.0,1.0,0.247323216405,0,0.0,0.0,0.327447488594,0.310089491609,0.0649760736712,0.37506556528,0.245113417938,nan,nan,0.0,0.0,0.0,nan,nan,158.262978508,322.300776207,322.548099424,322.80082895,nan,nan
0,137,4436,6,1,502,352,0.764740937618,0.25241357569,-1.0,1,1.0,1.0,0.271147416439,0,0.0,0.0,0.260636239468,0.309631343615,0.0649586004838,0.374589944099,0.244672743131,nan,nan,0.0,0.0,0.0,nan,nan,158.262978508,323.300911629,323.572059045,323.800935007,nan,nan
0,138,4437,6,1,38,26,1.0,0.0306259494545,-1.0,1,1.0,1.0,0.279053749051,0,0.0,0.0,0.265841460632,0.309352474577,0.0648050694753,0.374157544053,0.244547405102,nan,nan,0.0,0.0,0.0,nan,nan,158.262978508,324.30104762,324.580101369,324.801076985,nan,nan
0,139,4438,6,0,480,337,0.580928072941,0.32870764083,-1.0,0,1.0,0.0,0.222854125313,0,0.0,0.0,0.257685096934,0.309134498135,0.0646222893179,0.373756787453,0.244512208817,nan,nan,0.0,0.0,0.0,nan,nan,158.262978508,325.301186463,325.524040589,325.801219249,nan,nan
0,140,4440,6,1,173,121,1.0,-0.165909522591,0.273535192888,1,1.0,1.0,0.213341836818,0,0.0,0.0,0.238416570394,0.308518209757,0.064799731459,0.373317941216,0.243718478298,nan,nan,0.0,0.0,0.0,nan,nan,158.262978508,326.334656092,326.547997929,326.834655522,nan,nan
0,141,4441,6,1,401,281,-0.00506340639596,0.470796889516,-0.425203102762,1,1.0,1.0,0.269266340882,0,0.0,0.0,0.235154101004,0.30784320002,0.0650616197062,0.372904819726,0.242781580314,nan,nan,0.0,0.0,0.0,nan,nan,158.262978508,327.334741051,327.604007392,327.834786667,nan,nan
0,142,4442,6,1,148,104,1.0,-0.272695592461,0.0444264621409,1,1.0,1.0,0.277085433714,0,0.0,0.0,0.253231203804,0.307571531998,0.0649123308318,0.37248386283,0.242659201166,nan,nan,0.0,0.0,0.0,nan,nan,158.262978508,328.334885311,328.611970745,328.834910114,nan,nan
0,143,4443,6,1,362,254,-0.164239727892,0.476000155386,0.0174578511848,1,1.0,1.0,0.308947395999,0,0.0,0.0,0.285099723532,0.3073583425,0.0647348341406,0.37209317664,0.242623508359,nan,nan,0.0,0.0,0.0,nan,nan,158.262978508,329.335006477,329.643953873,329.835038123,nan,nan
0,144,4444,6,1,258,181,0.459642287315,0.26499291187,0.655490062901,1,1.0,1.0,0.309235915076,0,0.0,0.0,0.29842291493,0.307369377593,0.0645098037866,0.37187918138,0.242859573807,nan,nan,0.0,0.0,0.0,nan,nan,158.262978508,330.350708525,330.65994444,330.851849487,nan,nan
0,145,4445,6,1,123,86,1.0,-0.311441137266,-0.208672863777,1,1.0,1.0,0.387973091099,0,0.0,0.0,0.335385467391,0.307382250266,0.0642871569152,0.371669407181,0.243095093351,nan,nan,0.0,0.0,0.0,nan,nan,158.262978508,331.351950126,331.739923217,331.851996312,nan,nan
0,146,4446,6,1,283,198,0.19826868328,0.351050922538,0.605825948857,1,1.0,1.0,0.419833913445,0,0.0,1.0,0.372347639874,0.307934242326,0.0644104979019,0.372344740228,0.243523744424,nan,nan,0.0,0.0,0.0,nan,nan,158.262978508,332.352072433,332.771906347,332.85209182,nan,nan
0,147,4450,6,1,234,164,0.71814774995,0.15974031316,0.62913160129,1,1.0,1.0,0.395682421513,1,0.0,0.0,0.401163142019,0.308695464579,0.0648466712185,0.373542135797,0.24384879336,-129.271048715,312.0,-0.0464483572634,0.420925197877,0.455573212045,54.7397987153,1.61717948178,158.262978508,333.352209565,333.747891987,333.852221824,335.185713577,336.810917137
0,148,4451,6,1,166,116,1.0,-0.20036215083,0.21267421211,1,1.0,1.0,0.520361401141,0,0.0,0.0,0.4452925787,0.309283214288,0.0650189134142,0.374302127702,0.244264300874,nan,nan,0.0,0.0,0.0,nan,nan,158.262978508,338.019439965,338.539801367,338.519519507,nan,nan
0,149,4452,6,1,46,32,1.0,-0.0117313672748,-1.0,1,1.0,1.0,0.328195205424,0,0.0,0.0,0.414746342693,0.310699846414,0.0670529655344,0.377752811949,0.24364688088,nan,nan,0.0,0.0,0.0,nan,nan,158.262978508,339.019592778,339.347787983,339.519608173,nan,nan
0,150,4453,6,1,1,0,0.854939129564,0.207877072944,-1.0,1,1.0,1.0,0.256056903396,0,0.0,0.0,0.36820450332,0.310816482141,0.0668442455693,0.37766072771,0.243972236572,nan,nan,0.0,0.0,0.0,nan,nan,158.262978508,340.019709098,340.275766001,340.519739033,nan,nan
0,151,4454,6,1,477,335,0.555879874869,0.337784025865,-1.0,1,1.0,1.0,0.239946025424,0,0.0,0.0,0.274732711414,0.310453835924,0.0667704245096,0.377224260434,0.243683411414,nan,nan,0.0,0.0,0.0,nan,nan,158.262978508,341.019827983,341.259774009,341.519857633,nan,nan
0,152,4455,6,1,328,230,-0.132159558243,0.44685796506,0.336046158271,1,1.0,1.0,0.271798294503,0,0.0,0.0,0.255933741108,0.30998996875,0.0667940852375,0.376784053987,0.243195883512,nan,nan,0.0,0.0,0.0,nan,nan,158.262978508,342.019948009,342.291746304,342.519984502,nan,nan
0,153,4456,6,0,78,54,1.0,-0.179467652321,-0.739907630878,0,1.0,0.0,0.311609069351,0,0.0,0.0,0.274451129759,0.309740349964,0.0666465383179,0.376386888282,0.243093811646,nan,nan,0.0,0.0,0.0,nan,nan,158.262978508,343.020111941,343.33172101,343.520144442,nan,nan
0,154,4457,6,1,219,153,0.871627318206,0.0840881726889,0.576959667802,1,1.0,1.0,0.287544817198,0,0.0,0.0,0.290317393684,0.309752484505,0.0664299706023,0.376182455108,0.243322513903,nan,nan,0.0,0.0,0.0,nan,nan,158.262978508,344.020207734,344.307752551,344.52025392,nan,nan
0,155,4458,6,1,457,321,0.391639248186,0.390358177281,-1.0,1,1.0,1.0,0.375325011555,0,0.0,0.0,0.324826299368,0.309609209232,0.0662392005459,0.375848409778,0.243370008687,nan,nan,0.0,0.0,0.0,nan,nan,158.262978508,345.020366818,345.39569183,345.52037138,nan,nan
0,156,4459,6,1,270,189,0.331159066004,0.309369715406,0.641393874915,1,1.0,1.0,0.319207496475,0,0.0,0.0,0.32735910841,0.310030464375,0.0662345190109,0.376264983386,0.243795945365,nan,nan,0.0,0.0,0.0,nan,nan,158.262978508,346.020504235,346.339711732,346.520508512,nan,nan
0,157,4500,6,1,225,158,0.81146624694,0.115131125244,0.600981946568,1,1.0,1.0,0.3669913169,0,0.0,0.0,0.353841274977,0.310088916809,0.0660272804477,0.376116197257,0.244061636362,nan,nan,0.0,0.0,0.0,nan,nan,158.262978508,347.020621981,347.387613298,347.520627398,nan,nan
0,158,4501,6,1,11,7,0.934659501434,0.163852895862,-1.0,1,1.0,1.0,0.310863253195,0,0.0,0.0,0.33235402219,0.310449058582,0.0659725137936,0.376421572376,0.244476544788,nan,nan,0.0,0.0,0.0,nan,nan,158.262978508,348.020742862,348.331606116,348.520752841,nan,nan
0,159,4502,6,1,135,94,1.0,-0.303502321856,-0.0849788702499,1,1.0,1.0,0.33477155678,0,0.0,0.0,0.337542042291,0.31045166358,0.0657647339841,0.376216397564,0.244686929595,nan,nan,0.0,0.0,0.0,nan,nan,158.262978508,349.020834664,349.355606221,349.520880565,nan,nan
0,160,4503,6,1,293,206,0.103830259013,0.378659598285,0.564617056734,1,1.0,1.0,0.278608141467,0,0.0,0.0,0.308080983814,0.310603662912,0.0655869079029,0.376190570815,0.245016755009,nan,nan,0.0,0.0,0.0,nan,nan,158.262978508,350.020980919,350.29958906,350.521011995,nan,nan
0,161,4504,6,1,50,35,1.0,-0.033148730948,-1.0,1,1.0,1.0,0.326474355068,0,0.0,0.0,0.313284684438,0.310404932965,0.0654312095763,0.375836142542,0.244973723389,nan,nan,0.0,0.0,0.0,nan,nan,158.262978508,351.021121187,351.347595542,351.521142284,nan,nan
0,162,4505,6,0,167,117,1.0,-0.195605812978,0.221546716301,0,1.0,0.0,0.294307337608,0,0.0,0.0,0.299796611381,0.310504126929,0.0652410906544,0.375745217583,0.245263036274,nan,nan,0.0,0.0,0.0,nan,nan,158.262978508,352.021255183,352.315562521,352.521288825,nan,nan
0,163,4506,6,1,446,313,0.304696255059,0.41359904426,-1.0,1,1.0,1.0,0.222175022587,0,0.0,0.0,0.280985571754,0.310404760123,0.0650529520956,0.375457712219,0.245351808028,nan,nan,0.0,0.0,0.0,nan,nan,158.262978508,353.021366656,353.243541679,353.521420825,nan,nan
0,164,4507,6,1,344,241,-0.172543464245,0.464730234515,0.195503824632,1,1.0,1.0,0.190032524057,0,0.0,0.0,0.235504961417,0.309866773919,0.0652170172759,0.375083791195,0.244649756643,nan,nan,0.0,0.0,0.0,nan,nan,158.262978508,354.021496091,354.211528615,354.521547979,nan,nan
0,165,4508,6,1,132,92,1.0,-0.307426825298,-0.115555361894,1,1.0,1.0,0.235874543432,0,1.0,0.0,0.216027363359,0.309140505738,0.065680943585,0.374821449323,0.243459562153,nan,nan,0.0,0.0,0.0,nan,nan,158.262978508,355.071640521,355.307515065,355.571652495,nan,nan
0,166,4513,6,1,257,180,0.470472903111,0.261039853404,0.655841377839,1,1.0,1.0,0.235773618799,1,0.0,0.0,0.220560228763,0.308699144519,0.0657277752197,0.374426919739,0.242971369299,-89.2461516669,255.0,0.492159363509,0.253017189294,0.656163111527,-1.45697333307,1.79219077155,158.262978508,356.071736884,356.307510503,356.571784496,357.896942839,359.697181637
0,167,4514,6,1,462,324,0.432089675478,0.378486360879,-1.0,1,1.0,1.0,0.345733283088,0,0.0,0.0,0.272460481773,0.308262464724,0.0657717701243,0.374034234848,0.2424906946,nan,nan,0.0,0.0,0.0,nan,nan,158.262978508,360.905686504,361.251419787,361.405738677,nan,nan
0,168,4515,6,1,187,131,1.0,-0.0912463489427,0.385383214542,1,1.0,1.0,0.305575828999,0,0.0,0.0,0.295694243629,0.30848550531,0.0656390429046,0.374124548214,0.242846462405,nan,nan,0.0,0.0,0.0,nan,nan,158.262978508,361.905821071,362.2113969,362.405864975,nan,nan
0,169,4516,6,1,105,73,1.0,-0.285049837405,-0.401580786678,1,1.0,1.0,0.289386264514,0,0.0,0.0,0.313565125534,0.30846828829,0.0654449368941,0.373913225184,0.243023351396,nan,nan,0.0,0.0,0.0,nan,nan,158.262978508,362.90598044,363.195366704,363.405987853,nan,nan
0,170,4517,6,1,423,297,0.135229581944,0.450080889006,-0.750039916123,1,1.0,1.0,0.313243249897,0,0.0,0.0,0.30273511447,0.308356041091,0.0652684818101,0.373624522902,0.243087559281,nan,nan,0.0,0.0,0.0,nan,nan,158.262978508,363.906118712,364.219361962,364.406150643,nan,nan
0,171,4518,6,1,216,151,0.900975005756,0.0682271079607,0.563426584804,1,1.0,1.0,0.289110859856,0,0.0,0.0,0.297246791422,0.30838462126,0.0650784253449,0.373463046605,0.243306195915,nan,nan,0.0,0.0,0.0,nan,nan,158.262978508,364.906211654,365.195322514,365.406244726,nan,nan
0,172,4519,6,1,446,313,0.304696255059,0.41359904426,-1.0,1,1.0,1.0,0.296951904893,0,0.0,0.0,0.299768671549,0.308272564508,0.0649055111646,0.373178075672,0.243367053343,nan,nan,0.0,0.0,0.0,nan,nan,158.262978508,365.906363327,366.203315231,366.406379862,nan,nan
0,173,4520,6,1,336,236,-0.158211608236,0.456758111158,0.268135266647,1,1.0,1.0,0.320816873573,0,0.0,0.0,0.302293212774,0.308207127169,0.064723341057,0.372930468226,0.243483786112,nan,nan,0.0,0.0,0.0,nan,nan,158.262978508,366.906474229,367.227291103,367.406500458,nan,nan
0,174,4521,6,1,499,350,0.739831889234,0.263827757734,-1.0,1,1.0,1.0,0.28733527055,0,0.0,0.0,0.301701349672,0.308279596976,0.0645441252302,0.372823722206,0.243735471745,nan,nan,0.0,0.0,0.0,nan,nan,158.262978508,367.939945569,368.22728084,368.439963815,nan,nan
0,175,4522,6,1,200,140,1.0,-0.0191209939188,0.47515178387,1,1.0,1.0,0.263214854058,0,0.0,0.0,0.29045566606,0.30815991511,0.0643788089294,0.37253872404,0.243781106181,nan,nan,0.0,0.0,0.0,nan,nan,158.262978508,368.940057328,369.203272182,369.440096386,nan,nan
0,176,4523,6,1,433,304,0.206536295144,0.436163724167,-1.0,1,1.0,1.0,0.271025394555,0,0.0,0.0,0.273858506388,0.307904545445,0.0642844801697,0.372189025615,0.243620065276,nan,nan,0.0,0.0,0.0,nan,nan,158.262978508,369.940211565,370.21123696,370.44022354,nan,nan
0,177,4524,6,1,69,48,1.0,-0.134207199312,-0.939648005704,1,1.0,1.0,0.294926855247,0,0.0,0.0,0.27638903462,0.307696188661,0.0641621973868,0.371858386047,0.243533991274,nan,nan,0.0,0.0,0.0,nan,nan,158.262978508,370.940303082,371.235229937,371.440362097,nan,nan
0,178,4525,6,0,320,225,-0.0946500390753,0.43494401576,0.398701238857,0,0.0,1.0,0.454733307939,0,0.0,0.0,0.340228519247,0.307624450832,0.0639888306766,0.371613281509,0.243635620156,nan,nan,0.0,0.0,0.0,nan,nan,158.262978508,371.940475851,372.395209159,372.44050208,nan,nan
0,179,4526,6,1,78,54,1.0,-0.179467652321,-0.739907630878,1,1.0,1.0,0.358629398048,0,0.0,0.0,0.369429853745,0.308446288023,0.0647450374126,0.373191325436,0.24370125061,nan,nan,0.0,0.0,0.0,nan,nan,158.262978508,372.940567938,373.299197336,373.44060272,nan,nan
0,180,4527,6,1,150,105,1.0,-0.266152531622,0.0638227105866,1,1.0,1.0,0.286450896878,0,0.0,0.0,0.366604534288,0.308725083079,0.0646725946759,0.373397677755,0.244052488403,nan,nan,0.0,0.0,0.0,nan,nan,158.262978508,373.94071904,374.227169937,374.440723601,nan,nan
0,181,4528,6,1,259,182,0.44882283482,0.268906983076,0.655011783756,1,1.0,1.0,0.342332066037,0,0.0,0.0,0.329137453654,0.308602021276,0.0645148237131,0.37311684499,0.244087197563,nan,nan,0.0,0.0,0.0,nan,nan,158.262978508,374.940832223,375.283164289,375.440863299,nan,nan
0,182,4529,6,0,356,250,-0.17284377641,0.473239407326,0.0788368070227,0,0.0,1.0,0.390153234359,0,0.0,0.0,0.339645399091,0.308787351193,0.0643856373216,0.373172988514,0.244401713871,nan,nan,0.0,0.0,0.0,nan,nan,158.262978508,375.940982185,376.331135419,376.441008414,nan,nan
0,183,4530,6,1,402,282,0.000724920831492,0.470139955471,-0.437811562499,1,1.0,1.0,0.262031698134,0,0.0,0.0,0.331505666176,0.309231973505,0.0644890427105,0.373721016216,0.244742930795,nan,nan,0.0,0.0,0.0,nan,nan,158.262978508,376.941101356,377.203133054,377.441121598,nan,nan
0,184,4531,6,1,42,29,1.0,0.00954878589686,-1.0,1,1.0,1.0,0.277877435554,0,0.0,0.0,0.310020789349,0.308975450269,0.0644071146686,0.373382564938,0.244568335601,nan,nan,0.0,0.0,0.0,nan,nan,158.262978508,377.941225373,378.219102809,378.441232216,nan,nan
0,185,4532,6,1,360,253,-0.167709501072,0.475188317955,0.0381258551808,1,1.0,1.0,0.333718405571,0,0.0,0.0,0.291209179753,0.308807352893,0.0642732645983,0.373080617491,0.244534088294,nan,nan,0.0,0.0,0.0,nan,nan,158.262978508,378.941360509,379.275078915,379.441373054,nan,nan
0,186,4533,6,1,480,337,0.580928072941,0.32870764083,-1.0,1,1.0,1.0,0.317632901017,0,0.0,0.0,0.309742914047,0.308941283283,0.064126133455,0.373067416738,0.244815149828,nan,nan,0.0,0.0,0.0,nan,nan,158.262978508,379.941451171,380.259084072,380.441502488,nan,nan
0,187,4534,6,1,164,115,1.0,-0.209685835145,0.194761549991,1,1.0,1.0,0.269470470492,0,0.0,0.0,0.30694059236,0.308987762523,0.0639575847387,0.372945347261,0.245030177784,nan,nan,0.0,0.0,0.0,nan,nan,158.262978508,380.941586592,381.211057063,381.441623655,nan,nan
0,188,4535,6,1,508,357,0.814199817736,0.228638933499,-1.0,1,1.0,1.0,0.269327636808,0,0.0,0.0,0.285477002772,0.308777564161,0.0638519895318,0.372629553692,0.244925574629,nan,nan,0.0,0.0,0.0,nan,nan,158.262978508,381.941719163,382.2110468,382.441761927,nan,nan
0,189,4536,6,1,17,11,0.981069150956,0.135921910835,-1.0,1,1.0,1.0,0.245149060618,0,0.0,0.0,0.261315722639,0.308568834386,0.0637471218158,0.372315956202,0.24482171257,nan,nan,0.0,0.0,0.0,nan,nan,158.262978508,382.941873115,383.187022176,383.4418868,nan,nan
0,190,4537,6,1,371,260,-0.14179360683,0.478331938097,-0.0779732583494,1,1.0,1.0,0.237025483046,0,0.0,0.0,0.250500726824,0.308235046103,0.0637445294226,0.371979575526,0.244490516681,nan,nan,0.0,0.0,0.0,nan,nan,158.262978508,383.94197233,384.178997813,384.442007111,nan,nan
0,191,4538,6,1,235,165,0.707591924495,0.164537776567,0.631659631194,1,1.0,1.0,0.323508482426,0,0.0,0.0,0.268561008697,0.307862221166,0.0637847989047,0.37164702007,0.244077422261,nan,nan,0.0,0.0,0.0,nan,nan,158.262978508,384.975448231,385.298956713,385.475480732,nan,nan
0,192,4539,6,0,138,97,1.0,-0.29832987918,-0.0546508148191,0,0.0,1.0,0.379366558045,0,0.0,0.0,0.313300174506,0.30794371211,0.0636284437339,0.371572155844,0.244315268376,nan,nan,0.0,0.0,0.0,nan,nan,158.262978508,385.975586218,386.354952776,386.47561986,nan,nan
0,193,4540,6,1,279,196,0.238157575771,0.338930353633,0.618978422254,1,1.0,1.0,0.307239090092,0,0.0,0.0,0.336704710188,0.308313778669,0.0636702129499,0.371983991619,0.244643565719,nan,nan,0.0,0.0,0.0,nan,nan,158.262978508,386.975693415,387.282932505,387.475728197,nan,nan
0,194,4541,6,1,68,47,1.0,-0.129018143495,-0.972903198114,1,1.0,1.0,0.427095355,0,0.0,0.0,0.371233667713,0.308308239037,0.06350594908,0.371814188117,0.244802289957,nan,nan,0.0,0.0,0.0,nan,nan,158.262978508,387.97582399,388.402919345,388.475859057,nan,nan
0,195,4542,6,1,177,124,1.0,-0.145192147526,0.306921212481,1,1.0,1.0,0.346954356879,0,0.0,0.0,0.360429600657,0.308917403735,0.0639086326299,0.372826036364,0.245008771105,nan,nan,0.0,0.0,0.0,nan,nan,158.262978508,388.975966254,389.322920611,389.475994193,nan,nan
0,196,4543,6,1,241,169,0.64365311028,0.192605941253,0.644254782112,1,1.0,1.0,0.338811392896,0,0.0,0.0,0.370953701592,0.309111469822,0.0638029702472,0.372914440069,0.245308499575,nan,nan,0.0,0.0,0.0,nan,nan,158.262978508,389.976078582,390.314889975,390.476107092,nan,nan
0,197,4544,6,1,139,97,1.0,-0.296335611021,-0.0445992895203,1,1.0,1.0,0.346673250664,0,0.0,0.0,0.34414633348,0.309262230853,0.0636758181619,0.372938049015,0.245586412691,nan,nan,0.0,0.0,0.0,nan,nan,158.262978508,390.976205165,391.322878416,391.476270738,nan,nan
0,198,4545,6,1,294,206,0.0948761993654,0.381212130724,0.559858230992,1,1.0,1.0,0.330533863045,0,0.0,0.0,0.338672835535,0.309451175397,0.063570157301,0.373021332698,0.245881018096,nan,nan,0.0,0.0,0.0,nan,nan,158.262978508,391.976313218,392.306847081,392.476374513,nan,nan
0,199,4546,6,1,130,91,1.0,-0.309333154106,-0.136071487739,1,1.0,1.0,0.250405409373,0,0.0,0.0,0.309204174361,0.309557118551,0.0634277532351,0.372984871786,0.246129365316,nan,nan,0.0,0.0,0.0,nan,nan,158.262978508,392.976447213,393.226852623,393.476486272,nan,nan
0,200,4547,6,1,193,135,1.0,-0.0580453890011,0.428658791268,1,1.0,1.0,0.266261409502,0,0.0,0.0,0.282400227307,0.309261360005,0.0634064005556,0.372667760561,0.24585495945,nan,nan,0.0,0.0,0.0,nan,nan,158.262978508,393.976570376,394.242831785,394.476650489,nan,nan
0,201,4548,6,1,302,212,0.027086081288,0.400300843718,0.517770016443,1,1.0,1.0,0.282096597832,0,0.0,0.0,0.266254472236,0.309047429903,0.0633207943745,0.372368224278,0.245726635529,nan,nan,0.0,0.0,0.0,nan,nan,158.262978508,394.976694108,395.258790706,395.476744571,nan,nan
0,202,4549,6,1,12,8,0.942476689623,0.159273951266,-1.0,1,1.0,1.0,0.289953039028,0,0.0,0.0,0.279437015454,0.308914009943,0.0631921819098,0.372106191853,0.245721828033,nan,nan,0.0,0.0,0.0,nan,nan,158.262978508,395.976821547,396.266774586,396.476864882,nan,nan
0,203,4550,6,1,444,312,0.289241202529,0.417409780569,-1.0,1,1.0,1.0,0.249774202704,0,0.0,0.0,0.273941279855,0.308820606145,0.0630503208996,0.371870927045,0.245770285245,nan,nan,0.0,0.0,0.0,nan,nan,158.262978508,396.976984623,397.226758826,397.4769889,nan,nan
0,204,4551,6,0,363,255,-0.162287729338,0.476365729747,0.00704812682028,0,0.0,1.0,0.45761422161,0,0.0,0.0,0.332447154447,0.308531162991,0.063030649609,0.3715618126,0.245500513382,nan,nan,0.0,0.0,0.0,nan,nan,158.262978508,397.977129738,398.434743959,398.477152831,nan,nan
0,205,4552,6,1,2,1,0.863024578927,0.203622855609,-1.0,1,1.0,1.0,0.289499733131,0,0.0,0.0,0.332296052482,0.309258397423,0.0637288979602,0.372987295384,0.245529499463,nan,nan,0.0,0.0,0.0,nan,nan,158.262978508,398.977210706,399.266710439,399.477262023,nan,nan
0,206,4553,6,1,51,35,1.0,-0.0385160204876,-1.0,1,1.0,1.0,0.249358815141,0,0.0,0.0,0.332157589961,0.309162481577,0.0635888591202,0.372751340697,0.245573622457,nan,nan,0.0,0.0,0.0,nan,nan,158.262978508,399.977350689,400.226709504,400.477402576,nan,nan
0,207,4554,6,1,370,260,-0.144805996584,0.478178727438,-0.0671803333712,1,1.0,1.0,0.265191152226,0,0.0,0.0,0.268016566833,0.308873574976,0.0635704584458,0.372444033422,0.24530311653,nan,nan,0.0,0.0,0.0,nan,nan,158.262978508,400.977498084,401.242689237,401.477522603,nan,nan
0,208,4555,6,1,55,38,1.0,-0.0599996532909,-1.0,1,1.0,1.0,0.263029540423,0,0.0,0.0,0.259193169264,0.308663563328,0.0634894009913,0.372152964319,0.245174162337,nan,nan,0.0,0.0,0.0,nan,nan,158.262978508,402.027629971,402.290659511,402.527639664,nan,nan
0,209,4556,6,1,220,154,0.861731547614,0.0893272636146,0.581247684387,1,1.0,1.0,0.246973686852,0,0.0,0.0,0.2583981265,0.308445218721,0.0634155634247,0.371860782146,0.245029655296,nan,nan,0.0,0.0,0.0,nan,nan,158.262978508,403.027737737,403.274711424,403.527770238,nan,nan
0,210,4557,6,1,301,211,0.0351599448551,0.39804275895,0.523414514543,1,1.0,1.0,0.262790343259,0,0.0,0.0,0.257597856844,0.308152497141,0.0634057716782,0.371558268819,0.244746725463,nan,nan,0.0,0.0,0.0,nan,nan,158.262978508,404.027854057,404.290644401,404.527915638,nan,nan
0,211,4558,6,1,373,262,-0.135407706169,0.478559568072,-0.0996974893599,1,1.0,1.0,0.254628278315,0,0.0,0.0,0.254797436142,0.307937510629,0.0633320171642,0.371269527794,0.244605493465,nan,nan,0.0,0.0,0.0,nan,nan,158.262978508,405.027991189,405.282619467,405.528028252,nan,nan
0,212,4559,6,1,283,198,0.19826868328,0.351050922538,0.605825948857,1,1.0,1.0,0.23852395732,0,0.0,0.0,0.251980859631,0.307686051986,0.0632879663507,0.370974018337,0.244398085636,nan,nan,0.0,0.0,0.0,nan,nan,158.262978508,406.028107794,406.266631752,406.528158827,nan,nan
0,213,4600,6,0,229,161,0.770397026975,0.135265939772,0.614681466938,0,1.0,0.0,0.262331621256,0,0.0,0.0,0.251827952297,0.307361347317,0.0633159850935,0.37067733241,0.244045362223,nan,nan,0.0,0.0,0.0,nan,nan,158.262978508,407.028265453,407.290597075,407.528302231,nan,nan
0,214,4601,6,1,99,69,1.0,-0.267176270739,-0.468793303331,1,1.0,1.0,0.222226340324,0,0.0,0.0,0.2410273063,0.307150928036,0.0632424823344,0.37039341037,0.243908445702,nan,nan,0.0,0.0,0.0,nan,nan,158.262978508,408.028369514,408.250595855,408.528418836,nan,nan
0,215,4602,6,1,414,291,0.0747837862165,0.460162189034,-0.600089175003,1,1.0,1.0,0.230018348899,0,0.0,0.0,0.238192103493,0.306755929954,0.063359275194,0.370115205148,0.24339665476,nan,nan,0.0,0.0,0.0,nan,nan,158.262978508,409.028528599,409.258546948,409.528551122,nan,nan
0,216,4603,6,1,260,182,0.438016636947,0.272781976488,0.654406567654,1,1.0,1.0,0.261881452054,0,1.0,0.0,0.238042047092,0.306400663375,0.0634267188327,0.369827382207,0.242973944542,nan,nan,0.0,0.0,0.0,nan,nan,158.262978508,410.028644633,410.290526086,410.528687968,nan,nan
0,217,4608,6,1,433,304,0.206536295144,0.436163724167,-1.0,1,1.0,1.0,0.237750771921,1,0.0,0.0,0.243216857625,0.306195505719,0.06335219882,0.369547704539,0.242843306899,-148.94059117,340.0,-0.166837174664,0.460980112934,0.232376404312,-65.5125338297,1.37544389768,158.262978508,411.028782621,411.266533393,411.528804859,412.853981163,414.237475653
0,218,4609,6,1,132,92,1.0,-0.307426825298,-0.115555361894,1,1.0,1.0,0.39644762408,0,0.0,0.0,0.298693282685,0.30588153905,0.063375715616,0.369257254666,0.242505823434,nan,nan,0.0,0.0,0.0,nan,nan,158.262978508,415.445984796,415.84243242,415.946013306,nan,nan
0,219,4610,6,1,467,328,0.473005185182,0.365775667588,-1.0,1,1.0,1.0,0.268313828856,0,0.0,0.0,0.300837408286,0.306295082817,0.0635249813379,0.369820064155,0.242770101479,nan,nan,0.0,0.0,0.0,nan,nan,158.262978508,416.446123354,416.714437183,416.946147872,nan,nan
0,220,4611,6,1,376,264,-0.124962824795,0.478704673615,-0.132627625282,1,1.0,1.0,0.244156919885,0,0.0,0.0,0.30297279094,0.306122440754,0.0634319145051,0.369554355259,0.242690526249,nan,nan,0.0,0.0,0.0,nan,nan,158.262978508,417.446235112,417.690392032,417.946273315,nan,nan
0,221,4612,6,1,246,172,0.589768841079,0.215019897151,0.651339528662,1,1.0,1.0,0.204031967092,0,1.0,0.0,0.238834238611,0.305842053782,0.0634247358345,0.369266789616,0.242417317947,nan,nan,0.0,0.0,0.0,nan,nan,158.262978508,418.446367683,418.65039965,418.946412158,nan,nan
0,222,4616,6,1,331,232,-0.143297839787,0.450801753776,0.311166711333,1,1.0,1.0,0.106558447238,1,0.0,0.0,0.184915778072,0.305383449787,0.063647914759,0.369031364546,0.241735535028,-150.945395901,343.0,-0.171388175652,0.463836419185,0.204822810802,8.21102090092,0.942082662601,158.262978508,419.479873804,419.586432252,419.97985955,421.313367553,422.263493395
0,223,4617,6,1,231,162,0.749609680972,0.145151270079,0.620821461523,1,1.0,1.0,0.266300183255,0,0.0,0.0,0.192296865862,0.304491857848,0.0648796324861,0.369371490334,0.239612225362,nan,nan,0.0,0.0,0.0,nan,nan,158.262978508,423.472002538,423.738302722,423.972064975,nan,nan
0,224,4618,6,1,136,95,1.0,-0.301914900238,-0.074841205769,1,1.0,1.0,0.296153346077,0,0.0,0.0,0.22300399219,0.3043213593,0.064784700749,0.369106060049,0.239536658551,nan,nan,0.0,0.0,0.0,nan,nan,158.262978508,424.522161794,424.81831514,425.022180611,nan,nan
0,225,4619,6,1,481,338,0.589289488337,0.325611856148,-1.0,1,1.0,1.0,0.343982782681,0,0.0,0.0,0.302145437337,0.304285057019,0.0646428577812,0.368927914801,0.239642199238,nan,nan,0.0,0.0,0.0,nan,nan,158.262978508,425.522261293,425.866244076,426.022313466,nan,nan
0,226,4620,6,1,317,222,-0.077772836126,0.429938605076,0.420733606481,1,1.0,1.0,0.359848476481,0,0.0,0.0,0.333328201746,0.304460710673,0.0645534773626,0.369014188035,0.23990723331,nan,nan,0.0,0.0,0.0,nan,nan,158.262978508,426.522392438,426.882240915,427.022437199,nan,nan
0,227,4621,6,1,437,307,0.23613482661,0.429770237144,-1.0,1,1.0,1.0,0.425117061008,0,0.0,1.0,0.376316106723,0.304704709641,0.0645154940033,0.369220203644,0.240189215638,nan,nan,0.0,0.0,0.0,nan,nan,158.262978508,427.537087236,427.962204297,428.039232882,nan,nan
0,228,4625,6,0,236,165,0.697004556276,0.169301754335,0.634065852989,0,0.0,1.0,0.446845221799,1,0.0,0.0,0.410603586429,0.305232833989,0.0648637592791,0.370096593268,0.24036907471,-63.2128732702,218.0,0.881467392804,0.0788246127756,0.572559633417,-12.7246267298,1.43388895132,158.262978508,428.539348346,428.986193568,429.039383698,430.372859485,431.814739158
0,229,4626,6,1,406,285,0.0244967455079,0.467245700284,-0.489366101921,1,1.0,1.0,0.346924421843,0,0.0,0.0,0.406295568217,0.305851228696,0.0653920842762,0.371243312972,0.24045914442,nan,nan,0.0,0.0,0.0,nan,nan,158.262978508,433.023218937,433.370143359,433.523269399,nan,nan
0,230,4627,6,1,0,0,0.846831709088,0.212097570855,-1.0,1,1.0,1.0,0.258717150893,0,0.0,0.0,0.350828931512,0.306029807796,0.0653057100331,0.37133551783,0.240724097763,nan,nan,0.0,0.0,0.0,nan,nan,158.262978508,434.023393417,434.282110568,434.523393702,nan,nan
0,231,4628,6,1,188,132,1.0,-0.0857393506835,0.392804289229,1,1.0,1.0,0.234613840468,0,0.0,0.0,0.280085137735,0.3058249911,0.065238192362,0.371063183462,0.240586798738,nan,nan,0.0,0.0,0.0,nan,nan,158.262978508,435.023475525,435.258089365,435.523535965,nan,nan
0,232,4629,6,1,327,229,-0.128086156831,0.445480682368,0.344176439252,1,1.0,1.0,0.234505218454,0,0.0,0.0,0.242612069938,0.305518046485,0.0652643891074,0.370782435592,0.240253657378,nan,nan,0.0,0.0,0.0,nan,nan,158.262978508,436.02362121,436.258126428,436.523649435,nan,nan
0,233,4630,6,1,121,85,1.0,-0.310732805591,-0.229640808446,1,1.0,1.0,0.31711687427,0,0.0,0.0,0.262078644397,0.305213270399,0.0652894306027,0.370502701002,0.239923839796,nan,nan,0.0,0.0,0.0,nan,nan,158.262978508,437.052937249,437.370054123,437.557116498,nan,nan
0,234,4631,6,1,347,243,-0.174938837379,0.46723881498,0.167157479366,1,1.0,1.0,0.321163267363,0,0.0,0.0,0.290928453362,0.305264140501,0.065154401155,0.370418541656,0.240109739346,nan,nan,0.0,0.0,0.0,nan,nan,158.262978508,438.048872039,438.370035307,438.548907106,nan,nan
0,235,4632,6,1,30,21,1.0,0.071945658744,-1.0,1,1.0,1.0,0.289045572281,0,0.0,0.0,0.309108571305,0.30533179636,0.0650238636455,0.370355660006,0.240307932715,nan,nan,0.0,0.0,0.0,nan,nan,158.262978508,439.048990354,439.338035927,439.549035115,nan,nan
0,236,4633,6,1,378,265,-0.117450136118,0.478670924818,-0.154810124165,1,1.0,1.0,0.304879335221,0,0.0,0.0,0.305029391622,0.305262786936,0.0648945783099,0.370157365246,0.240368208626,nan,nan,0.0,0.0,0.0,nan,nan,158.262978508,440.049118363,440.353997699,440.549177094,nan,nan
0,237,4634,6,1,101,71,1.0,-0.273572672894,-0.446152610616,1,1.0,1.0,0.312750600744,0,0.0,0.0,0.302225169415,0.305261168996,0.0647575299632,0.37001869896,0.240503639033,nan,nan,0.0,0.0,0.0,nan,nan,158.262978508,441.049245232,441.361995833,441.549291418,nan,nan
0,238,4635,6,1,473,332,0.522594813828,0.349396171415,-1.0,1,1.0,1.0,0.344574645162,0,0.0,0.0,0.320734860376,0.305292637197,0.064623157377,0.369915794574,0.24066947982,nan,nan,0.0,0.0,0.0,nan,nan,158.262978508,442.049385215,442.39395986,442.54944252,nan,nan
0,239,4636,6,1,291,204,0.122027637739,0.373441943191,0.573791926984,1,1.0,1.0,0.34445005795,0,0.0,0.0,0.333925101285,0.305456997063,0.0645376510223,0.369994648085,0.240919346041,nan,nan,0.0,0.0,0.0,nan,nan,158.262978508,443.049496973,443.393947031,443.549547436,nan,nan
0,240,4637,6,0,452,317,0.351738073422,0.401406211611,-1.0,0,1.0,0.0,0.3042643792,0,0.0,0.0,0.33109636077,0.30561946815,0.0644520180389,0.370071486189,0.241167450111,nan,nan,0.0,0.0,0.0,nan,nan,158.262978508,444.049665466,444.353929846,444.549701103,nan,nan
0,241,4638,6,1,376,264,-0.124962824795,0.478704673615,-0.132627625282,1,1.0,1.0,0.272157517727,0,0.0,0.0,0.306957318292,0.305613845374,0.0643182201451,0.369932065519,0.241295625229,nan,nan,0.0,0.0,0.0,nan,nan,158.262978508,445.049757838,445.321915356,445.549814573,nan,nan
0,242,4639,6,1,239,168,0.665069831863,0.183388857662,0.640549267122,1,1.0,1.0,0.295992550906,0,0.0,0.0,0.290804815944,0.305475596086,0.0642210657819,0.369696661868,0.241254530305,nan,nan,0.0,0.0,0.0,nan,nan,158.262978508,446.04989554,446.345888091,446.549920629,nan,nan
0,243,4640,6,1,418,293,0.101175887384,0.455961754156,-0.661679309199,1,1.0,1.0,0.263856324367,0,0.0,0.0,0.277335464333,0.305436571209,0.0640916626991,0.369528233908,0.24134490851,nan,nan,0.0,0.0,0.0,nan,nan,158.262978508,447.050011005,447.313867329,447.550067739,nan,nan
0,244,4641,6,1,372,261,-0.138660017671,0.478458869494,-0.0888123791441,1,1.0,1.0,0.335685295518,0,0.0,0.0,0.298511390264,0.305266160361,0.0640153333801,0.369281493742,0.241250826981,nan,nan,0.0,0.0,0.0,nan,nan,158.262978508,448.050150988,448.385836283,448.550175221,nan,nan
0,245,4642,6,1,66,46,1.0,-0.118568705386,-1.0,1,1.0,1.0,0.311576568056,0,0.0,0.0,0.303706062647,0.305390320097,0.0639139886463,0.369304308743,0.24147633145,nan,nan,0.0,0.0,0.0,nan,nan,158.262978508,449.050309788,449.361886356,449.550300949,nan,nan
0,246,4643,6,1,397,279,-0.0275613476434,0.473159987783,-0.37569455347,1,1.0,1.0,0.231444978155,0,0.0,0.0,0.292902280577,0.305415467446,0.0637851643984,0.369200631845,0.241630303048,nan,nan,0.0,0.0,0.0,nan,nan,158.262978508,450.050391896,450.281836874,450.550438366,nan,nan
0,247,4644,6,1,451,317,0.343830962376,0.403518361206,-1.0,1,1.0,1.0,0.239262075629,0,0.0,0.0,0.26076120728,0.305115991781,0.0638289747852,0.368944966566,0.241287016996,nan,nan,0.0,0.0,0.0,nan,nan,158.262978508,451.050559533,451.289821608,451.550574358,nan,nan
0,248,4645,6,1,355,249,-0.173737462994,0.472683863687,0.0888799762457,1,1.0,1.0,0.231132226065,0,1.0,0.0,0.233946426616,0.304850451797,0.0638367165715,0.368687168368,0.241013735225,nan,nan,0.0,0.0,0.0,nan,nan,158.262978508,452.050662738,452.281794964,452.550693244,nan,nan
0,249,4649,6,1,484,340,0.614398947124,0.316112737715,-1.0,1,1.0,1.0,0.254997764714,1,0.0,0.0,0.241797355469,0.304554394665,0.0638787724509,0.368433167116,0.240675622214,125.567944973,461.0,0.423959648591,0.380927367285,-1.0,-15.8804449733,1.05042496696,158.262978508,453.050772216,453.305769981,453.550822108,454.884315856,455.942780867
0,250,4650,6,1,357,251,-0.1717918326,0.473767524415,0.068739031695,1,1.0,1.0,0.410393184517,0,0.0,0.0,0.298841058432,0.304356168145,0.0638275780842,0.36818374623,0.240528590061,nan,nan,0.0,0.0,0.0,nan,nan,158.262978508,457.151313959,457.561707143,457.651336482,nan,nan
0,251,4651,6,1,187,131,1.0,-0.0912463489427,0.385383214542,1,1.0,1.0,0.290259233676,0,0.0,0.0,0.318550060969,0.304778626378,0.064049563218,0.368828189596,0.24072906316,nan,nan,0.0,0.0,0.0,nan,nan,158.262978508,458.151433415,458.441692648,458.651475324,nan,nan
0,252,4652,6,0,429,301,0.177531820842,0.442080780324,-0.901885199234,0,1.0,0.0,0.250085529406,0,0.0,0.0,0.316912649199,0.30472100974,0.0639288716807,0.368649881421,0.240792138059,nan,nan,0.0,0.0,0.0,nan,nan,158.262978508,459.151591929,459.401677459,459.651621294,nan,nan
0,253,4653,6,1,133,93,1.0,-0.306259573676,-0.105336427414,1,1.0,1.0,0.145969230216,0,0.0,0.0,0.228771331099,0.304505059225,0.0638944348313,0.368399494056,0.240610624394,nan,nan,0.0,0.0,0.0,nan,nan,158.262978508,460.151701122,460.297670352,460.651752439,nan,nan
0,254,4654,6,1,293,206,0.103830259013,0.378659598285,0.564617056734,1,1.0,1.0,0.193793819286,0,0.0,0.0,0.196616192969,0.303880902418,0.0645367152682,0.368417617686,0.23934418715,nan,nan,0.0,0.0,0.0,nan,nan,158.262978508,461.151828561,461.34562238,461.651847947,nan,nan
0,255,4655,6,1,481,338,0.589289488337,0.325611856148,-1.0,1,1.0,1.0,0.225758417509,0,1.0,0.0,0.18850715567,0.303449188366,0.0647764933945,0.368225681761,0.238672694972,nan,nan,0.0,0.0,0.0,nan,nan,158.262978508,462.151955714,462.377714131,462.652000189,nan,nan
0,256,4659,6,1,421,296,0.121471671064,0.452518040197,-0.712610339232,1,1.0,1.0,0.289521685801,1,0.0,0.0,0.236357974199,0.303145708793,0.0648312344223,0.367976943215,0.23831447437,154.526165048,420.0,0.1146601879,0.45369410126,-0.695047497311,-0.541790048185,0.808747827541,158.262978508,463.152070893,463.441592579,463.652111663,464.977278559,465.79406643
0,257,4700,6,1,141,99,1.0,-0.291952736687,-0.024586852943,1,1.0,1.0,0.263263606001,0,0.0,0.0,0.259514569771,0.30309269703,0.0647105396995,0.36780323673,0.238382157331,nan,nan,0.0,0.0,0.0,nan,nan,158.262978508,466.994268679,467.257532285,467.494270104,nan,nan
0,258,4701,6,1,376,264,-0.124962824795,0.478704673615,-0.132627625282,1,1.0,1.0,0.255134611856,0,0.0,0.0,0.269306634553,0.302938320708,0.0646324093863,0.367570730095,0.238305911322,nan,nan,0.0,0.0,0.0,nan,nan,158.262978508,467.99436219,468.249496802,468.494387564,nan,nan
0,259,4702,6,1,309,217,-0.0258396312562,0.415106541901,0.475305697888,1,1.0,1.0,0.25504965242,0,0.0,0.0,0.257815956759,0.302753750404,0.0645756042472,0.367329354651,0.238178146157,nan,nan,0.0,0.0,0.0,nan,nan,158.262978508,468.994499893,469.249549545,469.494530113,nan,nan
0,260,4703,6,0,32,22,1.0,0.061735800531,-1.0,0,0.0,1.0,0.430820443202,0,0.0,0.0,0.313668235826,0.302570273104,0.064518905169,0.367089178273,0.238051367935,nan,nan,0.0,0.0,0.0,nan,nan,158.262978508,469.994643582,470.425464025,470.494672092,nan,nan
0,261,4704,6,1,395,277,-0.0383984177995,0.474183508328,-0.351427224487,1,1.0,1.0,0.230740501545,0,0.0,0.0,0.305536865722,0.303061653066,0.0648808001891,0.367942453255,0.238180852877,nan,nan,0.0,0.0,0.0,nan,nan,158.262978508,470.994760472,471.225500974,471.494773587,nan,nan
0,262,4705,6,1,470,330,0.497741612616,0.357740777197,-1.0,1,1.0,1.0,0.214617935009,0,0.0,0.0,0.292059626585,0.302785618137,0.0649102329249,0.367695851061,0.237875385212,nan,nan,0.0,0.0,0.0,nan,nan,158.262978508,471.994873941,472.209491876,472.494923548,nan,nan
0,263,4706,6,1,107,75,1.0,-0.290089771429,-0.379592780214,1,1.0,1.0,0.222393122502,0,1.0,0.0,0.222583853019,0.302450379798,0.0650135589196,0.367463938717,0.237436820878,nan,nan,0.0,0.0,0.0,nan,nan,158.262978508,472.995024473,473.217417595,473.495039298,nan,nan
0,264,4710,6,1,162,113,1.0,-0.218739557155,0.176632971453,1,1.0,1.0,0.262293417938,1,0.0,0.0,0.233101491816,0.302147132611,0.0650763978511,0.367223530462,0.23707073476,-40.3084284342,185.0,1.0,-0.102214474652,0.370299946716,16.4021784342,1.23376624519,158.262978508,473.995121976,474.257415394,474.49516189,475.811999368,477.053816205
0,265,4711,6,1,257,180,0.470472903111,0.261039853404,0.655841377839,1,1.0,1.0,0.250979310833,0,0.0,0.0,0.245221950424,0.301996741235,0.0649994438304,0.366996185065,0.236997297404,nan,nan,0.0,0.0,0.0,nan,nan,158.262978508,478.262344166,478.513323477,478.762376382,nan,nan
0,266,4712,6,1,316,222,-0.0718215561597,0.428203514031,0.427892255365,1,1.0,1.0,0.274849981535,0,0.0,0.0,0.262707570102,0.301804946384,0.064952233269,0.366757179653,0.236852713115,nan,nan,0.0,0.0,0.0,nan,nan,158.262978508,479.262460771,479.537310752,479.762515224,nan,nan
0,267,4713,6,1,267,187,0.362924526182,0.298807232282,0.646622522267,1,1.0,1.0,0.282668789383,0,0.0,0.0,0.269499360584,0.301703991459,0.0648513911169,0.366555382576,0.236852600342,nan,nan,0.0,0.0,0.0,nan,nan,158.262978508,480.262608736,480.545277526,480.762644944,nan,nan
0,268,4714,6,1,420,295,0.1146601879,0.45369410126,-0.695047497311,1,1.0,1.0,0.298543891404,0,0.0,0.0,0.285354220774,0.301632964586,0.0647406902534,0.366373654839,0.236892274332,nan,nan,0.0,0.0,0.0,nan,nan,158.262978508,481.262721065,481.561264956,481.762758413,nan,nan
0,269,4715,6,1,199,139,1.0,-0.0246761787097,0.468786302982,1,1.0,1.0,0.27439468028,0,0.0,0.0,0.285202453689,0.301621481042,0.0646205158091,0.366241996851,0.237000965233,nan,nan,0.0,0.0,0.0,nan,nan,158.262978508,482.262857057,482.537251737,482.762883571,nan,nan
0,270,4716,6,1,476,334,0.547545041103,0.340739382997,-1.0,1,1.0,1.0,0.298246534541,0,0.0,0.0,0.290395035408,0.301520641039,0.0645219379629,0.366042579002,0.236998703077,nan,nan,0.0,0.0,0.0,nan,nan,158.262978508,483.262990197,483.561236732,483.763024409,nan,nan
0,271,4717,6,0,97,68,1.0,-0.260369742894,-0.491718830742,0,0.0,1.0,0.450073669199,0,0.0,0.0,0.34090496134,0.301508559466,0.0644030897419,0.365911649208,0.237105469724,nan,nan,0.0,0.0,0.0,nan,nan,158.262978508,484.263132461,484.71320613,484.763159545,nan,nan
0,272,4718,6,1,323,227,-0.11001989341,0.43965344528,0.375855360355,1,1.0,1.0,0.24996806914,0,0.0,0.0,0.332762757627,0.302054754722,0.064910369642,0.366965124364,0.23714438508,nan,nan,0.0,0.0,0.0,nan,nan,158.262978508,485.263241083,485.513209153,485.763265317,nan,nan
0,273,4719,6,1,395,277,-0.0383984177995,0.474183508328,-0.351427224487,1,1.0,1.0,0.305833557621,0,0.0,0.0,0.33529176532,0.301863961002,0.0648677420491,0.366731703051,0.236996218953,nan,nan,0.0,0.0,0.0,nan,nan,158.262978508,486.263352842,486.569186399,486.7633919,nan,nan
0,274,4720,6,0,126,88,1.0,-0.311411754845,-0.177408431044,0,1.0,0.0,0.345649749506,0,0.0,0.0,0.300483792089,0.301878448581,0.0647497045303,0.366628153111,0.237128744051,nan,nan,0.0,0.0,0.0,nan,nan,158.262978508,487.263512211,487.609161961,487.763542432,nan,nan
0,275,4721,6,1,431,303,0.191957257768,0.43918128748,-0.982298765802,1,1.0,1.0,0.225598192308,0,0.0,0.0,0.292360499812,0.302037616948,0.064685549901,0.366723166849,0.237352067047,nan,nan,0.0,0.0,0.0,nan,nan,158.262978508,488.263603728,488.48920192,488.763671011,nan,nan
0,276,4722,6,1,211,148,0.948675772315,0.0413606888024,0.538689155053,1,1.0,1.0,0.313430844806,0,0.0,0.0,0.294892928873,0.301760662511,0.0647313964112,0.366492058922,0.2370292661,nan,nan,0.0,0.0,0.0,nan,nan,158.262978508,489.263732307,489.577163151,489.763776212,nan,nan
0,277,4723,6,1,509,357,0.822386376617,0.224555004187,-1.0,1,1.0,1.0,0.345210698899,0,0.0,0.0,0.294746578671,0.301802793133,0.0646182379038,0.366421031037,0.237184555229,nan,nan,0.0,0.0,0.0,nan,nan,158.262978508,490.263896238,490.609106937,490.763908498,nan,nan
0,278,4724,6,0,292,205,0.112881669716,0.376069582356,0.569261850688,0,0.0,1.0,0.47306794906,0,0.0,0.0,0.377236497588,0.301958936679,0.064554243154,0.366513179833,0.237404693525,nan,nan,0.0,0.0,0.0,nan,nan,158.262978508,491.264025958,491.737093907,491.764052472,nan,nan
0,279,4725,6,1,388,272,-0.0739633693698,0.476941921698,-0.268577162136,1,1.0,1.0,0.304946903605,0,0.0,0.0,0.374408517188,0.30257223063,0.0652447539727,0.367816984603,0.237327476657,nan,nan,0.0,0.0,0.0,nan,nan,158.262978508,492.264122035,492.569068939,492.764166796,nan,nan
0,280,4726,6,1,117,82,1.0,-0.307587969795,-0.271886539361,1,1.0,1.0,0.328785642982,0,0.0,0.0,0.368933498549,0.302580711605,0.0651282953343,0.367709006939,0.237452416271,nan,nan,0.0,0.0,0.0,nan,nan,158.262978508,493.264276274,493.593061917,493.764299081,nan,nan
0,281,4727,6,0,373,262,-0.135407706169,0.478559568072,-0.0996974893599,0,0.0,1.0,0.384630319197,0,0.0,0.0,0.339454288594,0.302673967588,0.0650310304673,0.367704998056,0.237642937121,nan,nan,0.0,0.0,0.0,nan,nan,158.262978508,494.264420248,494.649050567,494.764440205,nan,nan
0,282,4728,6,1,41,28,1.0,0.0148395037771,-1.0,1,1.0,1.0,0.216572850477,0,0.0,0.0,0.309996270885,0.302964592949,0.0650981756811,0.36806276863,0.237866417267,nan,nan,0.0,0.0,0.0,nan,nan,158.262978508,495.264493803,495.481066654,495.76454113,nan,nan
0,283,4729,6,1,214,150,0.920243657418,0.0575410437433,0.553854850604,1,1.0,1.0,0.29642846575,0,0.0,0.0,0.299210545141,0.302659321774,0.0651849502124,0.367844271986,0.237474371561,nan,nan,0.0,0.0,0.0,nan,nan,158.262978508,496.264622952,496.561051418,496.764667713,nan,nan
0,284,4730,6,1,57,40,1.0,-0.0707313323512,-1.0,1,1.0,1.0,0.320210470818,0,0.0,0.0,0.277737262348,0.30263738214,0.0650711334942,0.367708515634,0.237566248646,nan,nan,0.0,0.0,0.0,nan,nan,158.262978508,497.264769493,497.584979963,497.764802564,nan,nan
0,285,4731,6,1,254,178,0.503011129055,0.248947817922,0.65613358125,1,1.0,1.0,0.304056257941,0,0.0,0.0,0.30689839817,0.3026990421,0.0649651840774,0.367664226178,0.237733858023,nan,nan,0.0,0.0,0.0,nan,nan,158.262978508,498.264898927,498.568955185,498.764925441,nan,nan
0,286,4732,6,1,453,318,0.359670421306,0.39926174925,-1.0,1,1.0,1.0,0.311919255648,0,0.0,0.0,0.312061994802,0.30270378761,0.064851558611,0.367555346221,0.237852228999,nan,nan,0.0,0.0,0.0,nan,nan,158.262978508,499.265028362,499.576947617,499.76508196,nan,nan
0,287,4733,6,1,221,155,0.851781464038,0.0945411604707,0.585422935822,1,1.0,1.0,0.303795678541,0,0.0,0.0,0.306590397377,0.302735897255,0.064740755601,0.367476652856,0.237995141654,nan,nan,0.0,0.0,0.0,nan,nan,158.262978508,500.265133278,500.568928956,500.765182314,nan,nan
0,288,4734,6,1,328,230,-0.132159558243,0.44685796506,0.336046158271,1,1.0,1.0,0.311630166601,0,0.0,0.0,0.309115033597,0.302739577051,0.0646282907852,0.367367867836,0.238111286266,nan,nan,0.0,0.0,0.0,nan,nan,158.262978508,501.265283524,501.576913691,501.765302911,nan,nan
0,289,4735,6,1,97,68,1.0,-0.260369742894,-0.491718830742,1,1.0,1.0,0.319484896492,0,0.0,0.0,0.311636913878,0.302770340337,0.0645184925178,0.367288832854,0.238251847819,nan,nan,0.0,0.0,0.0,nan,nan,158.262978508,502.265413814,502.58489871,502.765437762,nan,nan
0,290,4736,6,1,18,12,0.988682696815,0.131162580546,-1.0,1,1.0,1.0,0.263317204546,0,0.0,0.0,0.298144089213,0.302827976737,0.0644146101816,0.367242586919,0.238413366556,nan,nan,0.0,0.0,0.0,nan,nan,158.262978508,503.265559499,503.528876703,503.76557632,nan,nan
0,291,4737,6,1,143,100,1.0,-0.287057525782,-0.00469998909502,1,1.0,1.0,0.287186164409,0,0.0,0.0,0.289996088482,0.302692200888,0.0643453931127,0.367037594,0.238346807775,nan,nan,0.0,0.0,0.0,nan,nan,158.262978508,504.265688363,504.552874527,504.765717443,nan,nan
0,292,4738,6,1,293,206,0.103830259013,0.378659598285,0.564617056734,1,1.0,1.0,0.335057510063,0,0.0,0.0,0.295186959673,0.302639098023,0.0642415052662,0.366880603289,0.238397592757,nan,nan,0.0,0.0,0.0,nan,nan,158.262978508,505.265793279,505.600850789,505.765820934,nan,nan
0,293,4739,6,1,209,146,0.967301840512,0.0304835193525,0.52804999659,1,1.0,1.0,0.262893834151,0,0.0,0.0,0.295045836208,0.302749741068,0.0641596477822,0.36690938885,0.238590093285,nan,nan,0.0,0.0,0.0,nan,nan,158.262978508,506.265935828,506.528829662,506.765947232,nan,nan
0,294,4740,6,1,310,217,-0.032854544558,0.417080732083,0.468828018046,1,1.0,1.0,0.302777023986,0,0.0,0.0,0.3002427894,0.302614176758,0.0640924605421,0.3667066373,0.238521716216,nan,nan,0.0,0.0,0.0,nan,nan,158.262978508,507.266029625,507.568806649,507.76608807,nan,nan
0,295,4741,6,1,153,107,1.0,-0.255547855702,0.0926213922694,1,1.0,1.0,0.246610186994,0,0.0,0.0,0.270760348377,0.302614728783,0.0639837377364,0.366598466519,0.238630991046,nan,nan,0.0,0.0,0.0,nan,nan,158.262978508,508.266199258,508.512809445,508.766194982,nan,nan
0,296,4742,6,1,401,281,-0.00506340639596,0.470796889516,-0.425203102762,1,1.0,1.0,0.286488245241,0,0.0,0.0,0.278625152074,0.30242552425,0.0639581769842,0.366383701234,0.238467347266,nan,nan,0.0,0.0,0.0,nan,nan,158.262978508,509.266285073,509.552773318,509.766331544,nan,nan
0,297,4743,6,1,151,106,1.0,-0.262720288689,0.0734626651272,1,1.0,1.0,0.246341909748,0,0.0,0.0,0.259813447328,0.302371863378,0.0638570865684,0.366228949946,0.238514776809,nan,nan,0.0,0.0,0.0,nan,nan,158.262978508,510.266411656,510.512753566,510.766455276,nan,nan
0,298,4744,6,1,417,293,0.0945046041228,0.457053563907,-0.645720198395,1,1.0,1.0,0.230195964687,0,0.0,0.0,0.254342039892,0.302183843399,0.0638321490694,0.366015992469,0.23835169433,nan,nan,0.0,0.0,0.0,nan,nan,158.262978508,511.266541091,511.496737055,511.766585851,nan,nan
0,299,4745,6,1,209,146,0.967301840512,0.0304835193525,0.52804999659,1,1.0,1.0,0.22866156837,0,1.0,0.0,0.235066480935,0.301943081263,0.0638607078641,0.365803789127,0.238082373399,nan,nan,0.0,0.0,0.0,nan,nan,158.262978508,512.300062323,512.528723891,512.800052914,nan,nan
0,300,4750,6,1,12,8,0.942476689623,0.159273951266,-1.0,1,1.0,1.0,0.220527157653,1,0.0,0.0,0.22646156357,0.301698809553,0.0638939509968,0.36559276055,0.237804858556,-33.1297354684,175.0,1.0,-0.155629953633,0.290361762956,114.692235468,1.48383181728,158.262978508,513.300174651,513.520701808,513.800175221,515.125340407,516.617221391
0,301,4751,6,1,454,319,0.367627362238,0.397084843583,-1.0,1,1.0,1.0,0.238911975641,0,0.0,0.0,0.229366900555,0.301429136291,0.0639585112471,0.365387647538,0.237470625044,nan,nan,0.0,0.0,0.0,nan,nan,158.262978508,517.825704876,518.064616852,518.325757334,nan,nan
0,302,4752,6,1,21,14,1.0,0.116713997928,-1.0,1,1.0,1.0,0.230780415237,0,0.0,0.0,0.230073182844,0.301222125825,0.0639534571324,0.365175582958,0.237268668693,nan,nan,0.0,0.0,0.0,nan,nan,158.262978508,518.825851416,519.056631831,519.325882207,nan,nan
0,303,4753,6,1,206,144,0.994723455659,0.014051917983,0.511316161583,1,1.0,1.0,0.190660879482,0,1.0,0.0,0.220117756786,0.300989644932,0.0639755303714,0.364965175304,0.237014114561,nan,nan,0.0,0.0,0.0,nan,nan,158.262978508,519.825969161,520.016630041,520.326030172,nan,nan
0,304,4757,6,1,25,17,1.0,0.0970682892709,-1.0,1,1.0,1.0,0.198462866247,1,0.0,0.0,0.206634720322,0.300626721362,0.0641818845088,0.364808605871,0.236444836853,69.1022345012,30.0,1.0,0.071945658744,-1.0,3.31964049884,0.800509355962,158.262978508,520.826130527,521.024593393,521.326158466,522.642972852,523.451434156
0,305,4758,6,1,341,239,-0.168535884224,0.46196150489,0.223260112086,1,1.0,1.0,0.228253878187,0,0.0,0.0,0.205792541305,0.300291757902,0.0643421891794,0.364633947082,0.235949568723,nan,nan,0.0,0.0,0.0,nan,nan,158.262978508,524.668252476,524.896506354,525.168316053,nan,nan
0,306,4759,6,1,201,141,1.0,-0.0135712615467,0.48142235136,1,1.0,1.0,0.188071050681,0,0.0,0.0,0.204929265038,0.300056339995,0.0643684064754,0.36442474647,0.235687933519,nan,nan,0.0,0.0,0.0,nan,nan,158.262978508,525.668414412,525.856485462,526.168416977,nan,nan
0,307,4800,6,0,411,288,0.0555201669072,0.463022710015,-0.557054760163,0,1.0,0.0,0.0679670358077,0,0.0,0.0,0.161430654892,0.299691567065,0.06457950008,0.364271067145,0.235112066985,nan,nan,0.0,0.0,0.0,nan,nan,158.262978508,526.668550973,526.736518009,527.168589462,nan,nan
0,308,4801,6,1,278,195,0.248285521772,0.335802812283,0.621962573991,1,1.0,1.0,0.179895015899,0,0.0,0.0,0.145311034129,0.298939214691,0.0658083860531,0.364747600744,0.233130828638,nan,nan,0.0,0.0,0.0,nan,nan,158.262978508,527.668655889,527.848550905,528.168717185,nan,nan
0,309,4802,6,1,108,75,1.0,-0.292426609412,-0.368663285579,1,1.0,1.0,0.123216428328,0,0.0,0.0,0.123692826678,0.298553958384,0.066048788249,0.364602746634,0.232505170135,nan,nan,0.0,0.0,0.0,nan,nan,158.262978508,528.669253454,528.792469882,529.168846335,nan,nan
0,310,4803,6,1,65,45,1.0,-0.113312155659,-1.0,1,1.0,1.0,0.227511198726,0,1.0,0.0,0.176874214318,0.297988353449,0.0666874943126,0.364675847761,0.231300859136,nan,nan,0.0,0.0,0.0,nan,nan,158.262978508,529.668888814,529.896400013,530.168934715,nan,nan
0,311,4807,6,1,373,262,-0.135407706169,0.478559568072,-0.0996974893599,1,1.0,1.0,0.219361962285,1,0.0,0.0,0.190029863113,0.297761738803,0.0666996398046,0.364461378608,0.231062098999,-157.675573029,352.0,-0.17544712699,0.470851603012,0.118673592819,-14.5900519708,1.08375119185,158.262978508,530.669027372,530.888389334,531.169086672,532.485902198,533.577692578
0,312,4808,6,1,164,115,1.0,-0.209685835145,0.194761549991,1,1.0,1.0,0.317779726814,0,0.0,0.0,0.254884295942,0.297510457468,0.0667399438076,0.364250401276,0.230770513661,nan,nan,0.0,0.0,0.0,nan,nan,158.262978508,534.7945759,535.112355627,535.294594716,nan,nan
0,313,4809,6,1,467,328,0.473005185182,0.365775667588,-1.0,1,1.0,1.0,0.221608248074,0,0.0,0.0,0.252916645724,0.297575215517,0.0666430624224,0.36421827794,0.230932153095,nan,nan,0.0,0.0,0.0,nan,nan,158.262978508,535.794689369,536.016297617,536.29472244,nan,nan
0,314,4810,6,1,277,194,0.258470646878,0.33263615818,0.624824240443,1,1.0,1.0,0.213470416144,0,0.0,0.0,0.250952797011,0.2973332825,0.0666743870965,0.364007669597,0.230658895404,nan,nan,0.0,0.0,0.0,nan,nan,158.262978508,536.794815097,537.008285513,537.294849309,nan,nan
0,315,4811,6,1,386,271,-0.0833946583454,0.477495592553,-0.245424736514,1,1.0,1.0,0.245297596324,0,1.0,0.0,0.226792086847,0.297067051178,0.0667354277861,0.363802478964,0.230331623392,nan,nan,0.0,0.0,0.0,nan,nan,158.262978508,537.794945387,538.040242983,538.294978173,nan,nan
0,316,4812,6,1,146,102,1.0,-0.278792578557,0.0248813210997,1,0.0,0.0,0.397170917131,0,0.0,0.0,0.285312976533,0.29690322379,0.0666931631525,0.363596386942,0.230210060637,nan,nan,0.0,0.0,0.0,nan,nan,158.262978508,538.795071115,539.192242032,539.295123288,nan,nan
0,317,4813,6,1,330,232,-0.139766326074,0.449518327743,0.319540245599,1,1.0,1.0,0.317048735451,0,0.0,0.0,0.319839082969,0.297219525661,0.0668248557583,0.36404438142,0.230394669903,nan,nan,0.0,0.0,0.0,nan,nan,158.262978508,539.795183158,540.112231894,540.295240178,nan,nan
0,318,4814,6,1,287,201,0.159501648714,0.36255249221,0.590751920292,1,1.0,1.0,0.260885605123,0,0.0,0.0,0.325035085902,0.297281881667,0.0667289388752,0.364010820542,0.230552942792,nan,nan,0.0,0.0,0.0,nan,nan,158.262978508,540.795320005,541.05620561,541.295353647,nan,nan
0,319,4815,6,1,426,299,0.156193047225,0.446210853967,-0.81485970128,1,1.0,1.0,0.284748862963,0,0.0,0.0,0.287561067846,0.297167786756,0.0666553255765,0.363823112333,0.23051246118,nan,nan,0.0,0.0,0.0,nan,nan,158.262978508,541.795443738,542.080192601,542.295488213,nan,nan
0,320,4816,6,1,193,135,1.0,-0.0580453890011,0.428658791268,1,1.0,1.0,0.324608674739,0,0.0,0.0,0.290081047608,0.297128977619,0.0665547047581,0.363683682377,0.230574272861,nan,nan,0.0,0.0,0.0,nan,nan,158.262978508,542.795571461,543.120180136,543.295618502,nan,nan
0,321,4817,6,1,509,357,0.822386376617,0.224555004187,-1.0,1,1.0,1.0,0.324427067302,0,0.0,0.0,0.311261535001,0.297214584152,0.0664685992304,0.363683183383,0.230745984922,nan,nan,0.0,0.0,0.0,nan,nan,158.262978508,543.79572684,544.120153907,544.295747937,nan,nan
0,322,4818,6,1,123,86,1.0,-0.311441137266,-0.208672863777,1,1.0,1.0,0.316270703916,0,0.0,0.0,0.321768815319,0.29729909497,0.0663825772469,0.363681672216,0.230916517723,nan,nan,0.0,0.0,0.0,nan,nan,158.262978508,544.795865967,545.112136671,545.295860265,nan,nan
0,323,4819,6,1,358,251,-0.170583909915,0.474268316859,0.0585874414746,1,1.0,1.0,0.276170839556,0,0.0,0.0,0.305622870258,0.297357830601,0.0662881177352,0.363645948336,0.231069712866,nan,nan,0.0,0.0,0.0,nan,nan,158.262978508,545.795952352,546.072123192,546.295997968,nan,nan
0,324,4820,6,1,13,9,0.950262168777,0.154664060346,-1.0,1,1.0,1.0,0.260001516901,0,0.0,0.0,0.284147686791,0.297292438653,0.0661961755197,0.363488614173,0.231096263134,nan,nan,0.0,0.0,0.0,nan,nan,158.262978508,546.796094901,547.056096418,547.296123126,nan,nan
0,325,4821,6,1,388,272,-0.0739633693698,0.476941921698,-0.268577162136,1,1.0,1.0,0.29891052749,0,0.0,0.0,0.278360961316,0.297177697356,0.0661265183103,0.363304215666,0.231051179045,nan,nan,0.0,0.0,0.0,nan,nan,158.262978508,547.797167439,548.096077967,548.296278219,nan,nan
0,326,4822,6,1,42,29,1.0,0.00954878589686,-1.0,1,1.0,1.0,0.323737415951,0,0.0,0.0,0.294216486781,0.297183012786,0.0660250889114,0.363208101697,0.231157923874,nan,nan,0.0,0.0,0.0,nan,nan,158.262978508,548.796342651,549.120080067,549.296384275,nan,nan
0,327,4823,6,1,254,178,0.503011129055,0.248947817922,0.65613358125,1,1.0,1.0,0.323577760719,0,0.0,0.0,0.315408568053,0.297264218911,0.0659403588181,0.363204577729,0.231323860093,nan,nan,0.0,0.0,0.0,nan,nan,158.262978508,549.796481494,550.120059255,550.296497174,nan,nan
0,328,4824,6,1,447,314,0.312467642152,0.411646472288,-1.0,1,1.0,1.0,0.299424558878,0,0.0,0.0,0.315579911849,0.297344443124,0.0658557436493,0.363200186773,0.231488699475,nan,nan,0.0,0.0,0.0,nan,nan,158.262978508,550.796601805,551.096026364,551.296625183,nan,nan
0,329,4825,6,1,356,250,-0.17284377641,0.473239407326,0.0788368070227,1,1.0,1.0,0.329255769029,0,0.0,0.0,0.317419362875,0.297350765665,0.0657556824642,0.363106448129,0.2315950832,nan,nan,0.0,0.0,0.0,nan,nan,158.262978508,551.846753078,552.176008847,552.346766762,nan,nan
0,330,4826,6,1,247,173,0.578947625354,0.219392674348,0.6523805853,1,1.0,1.0,0.337146706879,0,0.0,0.0,0.321942344929,0.297447447493,0.065679392576,0.363126840069,0.231768054917,nan,nan,0.0,0.0,0.0,nan,nan,158.262978508,552.846854858,553.184001565,553.346895912,nan,nan
0,331,4827,6,1,457,321,0.391639248186,0.390358177281,-1.0,1,1.0,1.0,0.312994359527,0,0.0,0.0,0.326465611812,0.297567384832,0.0656162866359,0.363183671468,0.231951098197,nan,nan,0.0,0.0,0.0,nan,nan,158.262978508,553.846997407,554.159991766,554.347057277,nan,nan
0,332,4828,6,1,201,141,1.0,-0.0135712615467,0.48142235136,1,1.0,1.0,0.344818974379,0,0.0,0.0,0.331653346928,0.297613851624,0.0655228463214,0.363136697945,0.232091005302,nan,nan,0.0,0.0,0.0,nan,nan,158.262978508,554.847133399,555.191952373,555.34716647,nan,nan
0,333,4829,6,1,324,227,-0.114799643766,0.441158325109,0.368064040095,1,1.0,1.0,0.264693941921,0,0.0,0.0,0.307502425276,0.297755608749,0.0654753566976,0.363230965447,0.232280252051,nan,nan,0.0,0.0,0.0,nan,nan,158.262978508,555.847267964,556.111961906,556.347290202,nan,nan
0,334,4830,6,1,230,161,0.760023132926,0.140224214653,0.61781109556,1,1.0,1.0,0.256544135045,0,0.0,0.0,0.288685683782,0.297656621723,0.0654022156821,0.363058837405,0.232254406041,nan,nan,0.0,0.0,0.0,nan,nan,158.262978508,556.847390272,557.103934407,557.347429615,nan,nan
0,335,4831,6,1,365,256,-0.157962026257,0.477016591838,-0.0139196855225,1,1.0,1.0,0.28038943233,0,0.0,0.0,0.267209169765,0.297533897882,0.0653430312302,0.362876929112,0.232190866652,nan,nan,0.0,0.0,0.0,nan,nan,158.262978508,557.847519136,558.127908568,558.347535672,nan,nan
0,336,4832,6,1,251,176,0.535576518695,0.236509187076,0.655284151108,1,1.0,1.0,0.272300351877,0,0.0,0.0,0.269744639751,0.297482872687,0.0652524057111,0.362735278398,0.232230466976,nan,nan,0.0,0.0,0.0,nan,nan,158.262978508,558.84761949,559.119919842,559.347673659,nan,nan
0,337,4833,6,0,119,83,1.0,-0.309446327048,-0.250710895617,0,1.0,0.0,0.280093785841,0,0.0,0.0,0.277594523349,0.297408147106,0.065169916353,0.362578063459,0.232238230753,nan,nan,0.0,0.0,0.0,nan,nan,158.262978508,559.847788268,560.127882054,560.347817348,nan,nan
0,338,4834,6,1,46,32,1.0,-0.0117313672748,-1.0,1,1.0,1.0,0.112061975524,0,0.0,0.0,0.221485371081,0.297356921185,0.0650802341698,0.362437155355,0.232276687015,nan,nan,0.0,0.0,0.0,nan,nan,158.262978508,560.847889478,560.959951453,561.34792369,nan,nan
0,339,4835,6,1,256,180,0.481312611765,0.257047908656,0.656065722404,1,1.0,1.0,0.0317943943664,0,0.0,0.0,0.141316718577,0.296810328425,0.0657565591985,0.362566887623,0.231053769226,nan,nan,0.0,0.0,0.0,nan,nan,158.262978508,561.848018627,561.879813022,562.348083059,nan,nan
0,340,4836,6,1,428,300,0.170378320166,0.443486568519,-0.86866140055,1,1.0,1.0,0.183795153629,0,1.0,0.0,0.109217174506,0.296030869795,0.0672098880519,0.363240757847,0.228820981743,nan,nan,0.0,0.0,0.0,nan,nan,158.262978508,562.84812896,563.031924114,563.348180848,nan,nan
0,341,4840,6,1,306,215,-0.00395437407881,0.408974006242,0.494128827808,1,1.0,1.0,0.239551450126,1,0.0,0.0,0.15171366604,0.295701732798,0.067385123116,0.363086855914,0.228316609682,-119.204071011,298.0,0.0600896634305,0.391050340636,0.53969689008,-5.95217898907,0.983768810984,158.262978508,563.848253548,564.087804998,564.348309997,565.673459502,566.665258093
0,342,4841,6,1,255,179,0.492159363509,0.253017189294,0.656163111527,1,1.0,1.0,0.317649721634,0,0.0,0.0,0.24699877513,0.295537550684,0.0673548043779,0.362892355062,0.228182746307,nan,nan,0.0,0.0,0.0,nan,nan,158.262978508,567.882101502,568.199751223,568.382149398,nan,nan
0,343,4842,6,1,316,222,-0.0718215561597,0.428203514031,0.427892255365,1,1.0,1.0,0.285475007258,0,0.0,0.0,0.280892059673,0.295602017655,0.0672671136535,0.362869131309,0.228334904002,nan,nan,0.0,0.0,0.0,nan,nan,158.262978508,568.882235498,569.167710505,569.382275981,nan,nan
0,344,4843,6,1,15,10,0.965734432428,0.145352784795,-1.0,1,1.0,1.0,0.213414536789,0,0.0,0.0,0.272179755227,0.295572578671,0.0671714832754,0.362744061947,0.228401095396,nan,nan,0.0,0.0,0.0,nan,nan,158.262978508,569.882354954,570.095769491,570.382399144,nan,nan
0,345,4844,6,1,471,331,0.506014005179,0.354993781952,-1.0,1,1.0,1.0,0.22119542677,0,0.0,0.0,0.240028323606,0.29533443942,0.0672193292528,0.362553768672,0.228115110167,nan,nan,0.0,0.0,0.0,nan,nan,158.262978508,570.88249066,571.103686087,571.382542548,nan,nan
0,346,4845,6,1,64,45,1.0,-0.108036866323,-1.0,1,1.0,1.0,0.253025743179,0,0.0,0.0,0.229211902246,0.295120164817,0.0672400130062,0.362360177823,0.22788015181,nan,nan,0.0,0.0,0.0,nan,nan,158.262978508,571.882631498,572.135657242,572.382657728,nan,nan
0,347,4846,6,1,169,118,1.0,-0.185917379452,0.239118302078,1,1.0,1.0,0.236903461162,0,0.0,0.0,0.237041543704,0.294998855244,0.0671809618775,0.362179817122,0.227817893367,nan,nan,0.0,0.0,0.0,nan,nan,158.262978508,572.882748674,573.119652135,573.38281225,nan,nan
0,348,4847,6,1,382,268,-0.1011887567,0.478291136399,-0.199732273247,1,1.0,1.0,0.260741630569,0,0.0,0.0,0.250223611637,0.294831914457,0.0671564074403,0.361988321897,0.227675507016,nan,nan,0.0,0.0,0.0,nan,nan,158.262978508,573.882885236,574.143626866,574.382916881,nan,nan
0,349,4848,6,1,58,40,1.0,-0.0760896648475,-1.0,1,1.0,1.0,0.24462562101,0,0.0,0.0,0.247423570914,0.29473423456,0.0670848780782,0.361819112638,0.227649356482,nan,nan,0.0,0.0,0.0,nan,nan,158.262978508,574.882999845,575.127625466,575.383045176,nan,nan
0,350,4849,6,1,259,182,0.44882283482,0.268906983076,0.655011783756,1,1.0,1.0,0.244446579833,0,0.0,0.0,0.249937943804,0.294591067093,0.0670423452908,0.361633412384,0.227548721802,nan,nan,0.0,0.0,0.0,nan,nan,158.262978508,575.8831327,576.12757928,576.383172329,nan,nan
0,351,4850,6,0,357,251,-0.1717918326,0.473767524415,0.068739031695,0,1.0,0.0,0.244329119567,0,0.0,0.0,0.244467106803,0.294448205306,0.0670001047667,0.361448310072,0.227448100539,nan,nan,0.0,0.0,0.0,nan,nan,158.262978508,576.883252441,577.127581561,577.383320865,nan,nan
0,352,4851,6,1,21,14,1.0,0.116713997928,-1.0,1,1.0,1.0,0.228178897407,0,0.0,0.0,0.238984865602,0.294305821539,0.0669580243811,0.36126384592,0.227347797158,nan,nan,0.0,0.0,0.0,nan,nan,158.262978508,577.883379595,578.111558493,578.383440606,nan,nan
0,353,4852,6,1,90,63,1.0,-0.233635786423,-0.574971871003,1,1.0,1.0,0.220090387389,0,0.0,0.0,0.230866134788,0.294118493142,0.0669554225063,0.361073915649,0.227163070636,nan,nan,0.0,0.0,0.0,nan,nan,158.262978508,578.883543241,579.103633629,579.383556641,nan,nan
0,354,4853,6,0,199,139,1.0,-0.0246761787097,0.468786302982,0,1.0,0.0,0.219863449689,0,0.0,0.0,0.222710911495,0.2939093742,0.0669761273057,0.360885501505,0.226933246894,nan,nan,0.0,0.0,0.0,nan,nan,158.262978508,579.883673816,580.103537266,580.383709169,nan,nan
0,355,4854,6,1,406,285,0.0244967455079,0.467245700284,-0.489366101921,1,1.0,1.0,0.187842117622,0,0.0,0.0,0.209265318234,0.293700794131,0.0669967653424,0.360697559473,0.226704028788,nan,nan,0.0,0.0,0.0,nan,nan,158.262978508,580.883763907,581.071606025,581.383816935,nan,nan
0,356,4855,6,1,258,181,0.459642287315,0.26499291187,0.655490062901,1,1.0,1.0,0.203604890965,0,0.0,0.0,0.203770152759,0.293403438298,0.0671367820775,0.360540220375,0.22626665622,nan,nan,0.0,0.0,0.0,nan,nan,158.262978508,581.883893056,582.087497947,582.383932115,nan,nan
0,357,4856,6,0,117,82,1.0,-0.307587969795,-0.271886539361,0,1.0,0.0,0.25943958899,0,0.0,0.0,0.216962199192,0.293151901751,0.067210462209,0.36036236396,0.225941439541,nan,nan,0.0,0.0,0.0,nan,nan,158.262978508,582.88403646,583.143476049,583.384088634,nan,nan
0,358,4857,6,1,307,215,-0.0113868739462,0.411053355611,0.487957006857,1,1.0,1.0,0.11536540417,0,0.0,0.0,0.192803294708,0.293057733279,0.0671401071892,0.360197840468,0.22591762609,nan,nan,0.0,0.0,0.0,nan,nan,158.262978508,583.884147364,583.999512768,584.384228047,nan,nan
0,359,4858,6,1,442,310,0.273907262724,0.421095538958,-1.0,1,1.0,1.0,0.24912047293,0,0.0,0.0,0.207975155363,0.292562768574,0.0676974438613,0.360260212435,0.224865324713,nan,nan,0.0,0.0,0.0,nan,nan,158.262978508,584.934309755,585.183430228,585.434333703,nan,nan
0,360,4859,6,1,81,56,1.0,-0.193804253699,-0.694219169772,1,1.0,1.0,0.305000501685,0,1.0,0.0,0.223162126262,0.292442095531,0.0676420080842,0.360084103615,0.224800087446,nan,nan,0.0,0.0,0.0,nan,nan,158.262978508,585.934417523,586.239418024,586.434479388,nan,nan
0,361,4903,6,1,124,87,1.0,-0.311577186586,-0.198226518473,1,1.0,1.0,0.272859998513,1,0.0,0.0,0.275660324376,0.292476883359,0.0675514809212,0.36002836428,0.224925402438,-34.1012741942,176.0,1.0,-0.150429669724,0.298675466069,36.9137741942,0.942090644967,158.262978508,586.934535268,587.207395266,587.4345863,588.759742078,589.709868775
0,362,4904,6,1,221,155,0.851781464038,0.0945411604707,0.585422935822,1,1.0,1.0,0.304620466661,0,0.0,0.0,0.294160322286,0.29242269307,0.0674659703165,0.359888663386,0.224956722753,nan,nan,0.0,0.0,0.0,nan,nan,158.262978508,590.926710758,591.231331225,591.426754948,nan,nan
0,363,4905,6,1,381,267,-0.105403061426,0.478425078289,-0.188431136224,1,1.0,1.0,0.296468664426,0,0.0,0.0,0.291316376533,0.292456295752,0.067376011303,0.359832307055,0.225080284449,nan,nan,0.0,0.0,0.0,nan,nan,158.262978508,591.926841903,592.223310567,592.426878395,nan,nan
0,364,4906,6,1,239,168,0.665069831863,0.183388857662,0.640549267122,1,1.0,1.0,0.240299261175,0,0.0,0.0,0.280462797421,0.292467318743,0.0672837259533,0.359751044696,0.225183592789,nan,nan,0.0,0.0,0.0,nan,nan,158.262978508,592.926989584,593.167288845,593.427041471,nan,nan
0,365,4907,6,1,425,298,0.149162615564,0.447529597292,-0.791715667876,1,1.0,1.0,0.224172133021,0,0.0,0.0,0.253646686208,0.292324392558,0.0672468030365,0.359571195594,0.225077589521,nan,nan,0.0,0.0,0.0,nan,nan,158.262978508,593.927104193,594.151276326,594.427165489,nan,nan
0,366,4908,6,0,67,47,1.0,-0.12380466598,-1.0,0,1.0,0.0,0.295967462473,0,0.0,0.0,0.25347961889,0.292138184198,0.0672490357714,0.359387219969,0.224889148427,nan,nan,0.0,0.0,0.0,nan,nan,158.262978508,594.927286941,595.223254403,595.427296634,nan,nan
0,367,4909,6,1,334,234,-0.152796554809,0.454467054946,0.285576400052,1,1.0,1.0,0.199927698821,0,0.0,0.0,0.240022431438,0.292148618199,0.0671576499946,0.359306268193,0.224990968204,nan,nan,0.0,0.0,0.0,nan,nan,158.262978508,595.927360211,596.12728791,596.427396704,nan,nan
0,368,4910,6,1,417,293,0.0945046041228,0.457053563907,-0.645720198395,1,1.0,1.0,0.231773125939,0,0.0,0.0,0.242556095744,0.291898017874,0.067237949867,0.359135967741,0.224660068007,nan,nan,0.0,0.0,0.0,nan,nan,158.262978508,596.927481947,597.159255073,597.42751844,nan,nan
0,369,4911,6,1,107,75,1.0,-0.290089771429,-0.379592780214,1,1.0,1.0,0.287559642922,0,0.0,0.0,0.239753489227,0.291735077788,0.0672194929531,0.358954570741,0.224515584835,nan,nan,0.0,0.0,0.0,nan,nan,158.262978508,597.927637041,598.215196684,598.427653006,nan,nan
0,370,4912,6,1,320,225,-0.0946500390753,0.43494401576,0.398701238857,1,1.0,1.0,0.26342668198,0,0.0,0.0,0.260919816947,0.291723792829,0.0671289443567,0.358852737186,0.224594848472,nan,nan,0.0,0.0,0.0,nan,nan,158.262978508,598.92775165,599.191178332,599.427783011,nan,nan
0,371,4913,6,1,469,329,0.489482198204,0.360453357602,-1.0,1,1.0,1.0,0.263318344951,0,0.0,0.0,0.271434889951,0.291647520293,0.0670544651547,0.358701985448,0.224593055138,nan,nan,0.0,0.0,0.0,nan,nan,158.262978508,599.927863408,600.191181753,600.427925275,nan,nan
0,372,4914,6,1,67,47,1.0,-0.12380466598,-1.0,1,1.0,1.0,0.351161260158,0,0.0,0.0,0.29263542903,0.291571366596,0.0669803406814,0.358551707277,0.224591025914,nan,nan,0.0,0.0,0.0,nan,nan,158.262978508,600.928001111,601.279162371,601.428046441,nan,nan
0,373,4915,6,1,334,234,-0.152796554809,0.454467054946,0.285576400052,1,1.0,1.0,0.326960731763,0,0.0,0.0,0.313813445624,0.291731125023,0.0669614270439,0.358692552067,0.22476969798,nan,nan,0.0,0.0,0.0,nan,nan,158.262978508,601.928167323,602.255128054,602.428166182,nan,nan
0,374,4916,6,1,143,100,1.0,-0.287057525782,-0.00469998909502,1,1.0,1.0,0.350841666106,0,0.0,0.0,0.342987886009,0.291825321833,0.0668965880876,0.35872190992,0.224928733745,nan,nan,0.0,0.0,0.0,nan,nan,158.262978508,602.92826226,603.279103926,603.428294191,nan,nan
0,375,4917,6,1,510,358,0.830554458933,0.220436700166,-1.0,1,1.0,1.0,0.39872384537,0,0.0,0.0,0.35884208108,0.291982698751,0.0668766237035,0.358859322454,0.225106075048,nan,nan,0.0,0.0,0.0,nan,nan,158.262978508,603.928376014,604.32709986,604.428417068,nan,nan
0,376,4918,6,1,197,138,1.0,-0.035797595552,0.455774741445,1,1.0,1.0,0.374580050819,0,0.0,1.0,0.374715187432,0.292266584779,0.0670135033095,0.359280088089,0.22525308147,nan,nan,0.0,0.0,0.0,nan,nan,158.262978508,604.928516853,605.303096903,605.428564464,nan,nan
0,377,4922,6,1,25,17,1.0,0.0970682892709,-1.0,1,1.0,1.0,0.398427628446,1,0.0,0.0,0.390577174878,0.292484922885,0.0670583489112,0.359543271797,0.225426573974,78.0983937618,17.0,0.981069150956,0.135921910835,-1.0,-5.67651876183,0.942071258556,158.262978508,605.92863859,606.327066218,606.428659972,607.762167405,608.712286405
0,378,4923,6,1,454,319,0.367627362238,0.397084843583,-1.0,1,1.0,1.0,0.222206383478,0,0.0,0.0,0.331738020914,0.292765194593,0.0671903266443,0.359955521238,0.225574867949,nan,nan,0.0,0.0,0.0,nan,nan,158.262978508,609.920808378,610.143014761,610.420839739,nan,nan
0,379,4924,6,1,397,279,-0.0275613476434,0.473159987783,-0.37569455347,1,1.0,1.0,0.270072597079,0,0.0,0.0,0.296902203001,0.292579023588,0.0671991787503,0.359778202338,0.225379844837,nan,nan,0.0,0.0,0.0,nan,nan,158.262978508,610.920947221,611.191019818,611.420986279,nan,nan
0,380,4925,6,0,92,64,1.0,-0.241703663401,-0.55060883727,0,0.0,1.0,0.461865030229,0,0.0,0.0,0.318048003595,0.29251979615,0.0671206050017,0.359640401151,0.225399191148,nan,nan,0.0,0.0,0.0,nan,nan,158.262978508,611.92109262,612.38295765,612.421125977,nan,nan
0,381,4926,6,1,327,229,-0.128086156831,0.445480682368,0.344176439252,1,1.0,1.0,0.269780942239,0,0.0,0.0,0.333906189849,0.29296427183,0.0675901123488,0.360554384178,0.225374159481,nan,nan,0.0,0.0,0.0,nan,nan,158.262978508,612.921192119,613.190973062,613.421244007,nan,nan
0,382,4927,6,1,503,353,0.773020196022,0.248538461814,-1.0,1,1.0,1.0,0.261592077557,0,0.0,0.0,0.331079350008,0.292903582485,0.0675119793958,0.360415561881,0.225391603089,nan,nan,0.0,0.0,0.0,nan,nan,158.262978508,613.921328396,614.182920474,614.421363178,nan,nan
0,383,4928,6,0,154,108,1.0,-0.251813147593,0.102138173725,0,1.0,0.0,0.253429441713,0,0.0,0.0,0.261600820503,0.292821829208,0.0674427168751,0.360264546084,0.225379112333,nan,nan,0.0,0.0,0.0,nan,nan,158.262978508,614.92148463,615.174914071,615.421511429,nan,nan
0,384,4929,6,1,370,260,-0.144805996584,0.478178727438,-0.0671803333712,1,1.0,1.0,0.213311616331,0,0.0,0.0,0.242777711867,0.292719244866,0.067384756984,0.36010400185,0.225334487882,nan,nan,0.0,0.0,0.0,nan,nan,158.262978508,615.921590686,616.134902303,616.421614349,nan,nan
0,385,4930,6,0,464,326,0.448404880525,0.373503555275,-1.0,0,1.0,0.0,0.373130328488,0,0.0,0.0,0.279957128844,0.292512991285,0.0674184470362,0.359931438322,0.225094544249,nan,nan,0.0,0.0,0.0,nan,nan,158.262978508,616.921735516,617.294865844,617.421770298,nan,nan
