block,trial,freq_trials,correct_response,actual_response,acc,rts,probe_trials,trials_colorind0,trials_colorind1,trials_colorind2,trials_colorind3,trials_colorind4,trials_colorind5,wholereport_resp0,wholereport_resp1,wholereport_resp2,wholereport_resp3,wholereport_resp4,wholereport_resp5,wholereport_respacc0,wholereport_respacc1,wholereport_respacc2,wholereport_respacc3,wholereport_respacc4,wholereport_respacc5,wholereport_respacc_total,wholereport_respcolorind0,wholereport_respcolorind1,wholereport_respcolorind2,wholereport_respcolorind3,wholereport_respcolorind4,wholereport_respcolorind5,wholereport_resporder0,wholereport_resporder1,wholereport_resporder2,wholereport_resporder3,wholereport_resporder4,wholereport_resporder5,wholereport_rts0,wholereport_rts1,wholereport_rts2,wholereport_rts3,wholereport_rts4,wholereport_rts5,time_blockstart,time_encarray_offset,time_encarray_onset,time_response,time_iti_offset,time_iti_onset,time_memprobe_offset,time_memprobe_onset
1,1,1,1,1.0,1.0,0.5915979630080983,0,6,5,2,8,0,1,nan,nan,nan,nan,nan,nan,nan,nan,nan,nan,nan,nan,0.0,nan,nan,nan,nan,nan,nan,nan,nan,nan,nan,nan,nan,nan,nan,nan,nan,nan,nan,345.5736240220722,346.5979901230894,nan,347.1895880860975,nan,nan,nan,nan
1,2,1,1,1.0,1.0,0.5754571958677843,0,1,6,5,3,0,7,nan,nan,nan,nan,nan,nan,nan,nan,nan,nan,nan,nan,0.0,nan,nan,nan,nan,nan,nan,nan,nan,nan,nan,nan,nan,nan,nan,nan,nan,nan,nan,345.5736240220722,347.5981263994472,nan,348.173583595315,nan,nan,nan,nan
1,3,1,1,1.0,1.0,0.6233341068727896,0,2,0,7,8,5,6,nan,nan,nan,nan,nan,nan,nan,nan,nan,nan,nan,nan,0.0,nan,nan,nan,nan,nan,nan,nan,nan,nan,nan,nan,nan,nan,nan,nan,nan,nan,nan,345.5736240220722,348.5982067967998,nan,349.2215409036726,nan,nan,nan,nan
1,4,1,1,1.0,1.0,0.5911389568354934,0,7,2,3,6,4,1,nan,nan,nan,nan,nan,nan,nan,nan,nan,nan,nan,nan,0.0,nan,nan,nan,nan,nan,nan,nan,nan,nan,nan,nan,nan,nan,nan,nan,nan,nan,nan,345.5736240220722,349.59837557422,nan,350.18951453105547,nan,nan,nan,nan
1,5,1,1,1.0,1.0,0.5750113041140139,0,4,5,6,0,8,2,nan,nan,nan,nan,nan,nan,nan,nan,nan,nan,nan,nan,0.0,nan,nan,nan,nan,nan,nan,nan,nan,nan,nan,nan,nan,nan,nan,nan,nan,nan,nan,345.5736240220722,350.5984879024327,nan,351.1734992065467,nan,nan,nan,nan
1,6,1,1,1.0,1.0,0.6068583506857976,0,3,8,2,1,5,7,nan,nan,nan,nan,nan,nan,nan,nan,nan,nan,nan,nan,0.0,nan,nan,nan,nan,nan,nan,nan,nan,nan,nan,nan,nan,nan,nan,nan,nan,nan,nan,345.5736240220722,351.59861847688444,nan,352.20547682757024,nan,nan,nan,nan
1,7,1,1,1.0,1.0,0.6147238921839744,0,7,0,6,3,1,5,nan,nan,nan,nan,nan,nan,nan,nan,nan,nan,nan,nan,0.0,nan,nan,nan,nan,nan,nan,nan,nan,nan,nan,nan,nan,nan,nan,nan,nan,nan,nan,345.5736240220722,352.59872937959153,nan,353.2134532717755,nan,nan,nan,nan
1,8,1,1,1.0,1.0,0.7745720837265253,0,4,2,1,7,8,0,nan,nan,nan,nan,nan,nan,nan,nan,nan,nan,nan,nan,0.0,nan,nan,nan,nan,nan,nan,nan,nan,nan,nan,nan,nan,nan,nan,nan,nan,nan,nan,345.5736240220722,353.59885710303206,nan,354.3734291867586,nan,nan,nan,nan
1,9,1,1,nan,nan,nan,0,5,6,8,3,0,1,nan,nan,nan,nan,nan,nan,nan,nan,nan,nan,nan,nan,0.0,nan,nan,nan,nan,nan,nan,nan,nan,nan,nan,nan,nan,nan,nan,nan,nan,nan,nan,345.5736240220722,354.59898397128563,nan,nan,nan,nan,nan,nan
1,10,1,1,nan,nan,nan,0,6,0,1,7,4,5,nan,nan,nan,nan,nan,nan,nan,nan,nan,nan,nan,nan,0.0,nan,nan,nan,nan,nan,nan,nan,nan,nan,nan,nan,nan,nan,nan,nan,nan,nan,nan,345.5736240220722,355.59910171630327,nan,nan,nan,nan,nan,nan
1,11,0,0,1.0,0.0,0.046168894856236875,0,0,8,5,4,1,7,nan,nan,nan,nan,nan,nan,nan,nan,nan,nan,nan,nan,0.0,nan,nan,nan,nan,nan,nan,nan,nan,nan,nan,nan,nan,nan,nan,nan,nan,nan,nan,345.5736240220722,356.59923400136176,nan,356.645402896218,nan,nan,nan,nan
1,12,1,1,1.0,1.0,0.5819850619882345,0,5,2,4,8,7,3,nan,nan,nan,nan,nan,nan,nan,nan,nan,nan,nan,nan,0.0,nan,nan,nan,nan,nan,nan,nan,nan,nan,nan,nan,nan,nan,nan,nan,nan,nan,nan,345.5736240220722,357.5993628652068,nan,358.181347927195,nan,nan,nan,nan
1,13,1,1,1.0,1.0,0.645906092482619,0,0,3,7,2,5,1,nan,nan,nan,nan,nan,nan,nan,nan,nan,nan,nan,nan,0.0,nan,nan,nan,nan,nan,nan,nan,nan,nan,nan,nan,nan,nan,nan,nan,nan,nan,nan,345.5736240220722,358.5994828910334,nan,359.245388983516,nan,nan,nan,nan
1,14,1,1,1.0,1.0,0.5577124728588387,0,7,4,0,3,6,2,nan,nan,nan,nan,nan,nan,nan,nan,nan,nan,nan,nan,0.0,nan,nan,nan,nan,nan,nan,nan,nan,nan,nan,nan,nan,nan,nan,nan,nan,nan,nan,345.5736240220722,359.5996091889683,nan,360.15732166182715,nan,nan,nan,nan
1,15,0,0,0.0,1.0,0.5575533887604252,0,3,2,1,7,5,8,nan,nan,nan,nan,nan,nan,nan,nan,nan,nan,nan,nan,0.0,nan,nan,nan,nan,nan,nan,nan,nan,nan,nan,nan,nan,nan,nan,nan,nan,nan,nan,345.5736240220722,360.59973919321783,nan,361.15729258197825,nan,nan,nan,nan
1,16,1,1,1.0,1.0,0.5494603398256004,0,8,4,7,6,2,0,nan,nan,nan,nan,nan,nan,nan,nan,nan,nan,nan,nan,0.0,nan,nan,nan,nan,nan,nan,nan,nan,nan,nan,nan,nan,nan,nan,nan,nan,nan,nan,345.5736240220722,361.59983270510565,nan,362.14929304493126,nan,nan,nan,nan
1,17,1,1,1.0,1.0,0.5492750267731026,0,0,2,3,7,5,1,nan,nan,nan,nan,nan,nan,nan,nan,nan,nan,nan,nan,0.0,nan,nan,nan,nan,nan,nan,nan,nan,nan,nan,nan,nan,nan,nan,nan,nan,nan,nan,345.5736240220722,362.5999835213879,nan,363.149258548161,nan,nan,nan,nan
1,18,1,1,1.0,1.0,0.573116549407132,1,1,6,7,8,3,4,1.0,1.0,1.0,1.0,1.0,1.0,0.0,0.0,1.0,0.0,0.0,0.0,1.0,8.0,7.0,7.0,1.0,5.0,1.0,3.0,2.0,1.0,6.0,5.0,4.0,5.066183275193907,2.315103755448945,1.3058526425156742,9.256174773676321,8.328674658201635,6.088717057835311,345.5736240220722,363.6001083938172,364.40854800655507,364.17322494322434,374.7098237016471,375.71604879491497,365.4170133920852,374.70149573287927
1,19,1,1,1.0,1.0,0.6146300951950252,0,0,8,6,5,2,3,nan,nan,nan,nan,nan,nan,nan,nan,nan,nan,nan,nan,0.0,nan,nan,nan,nan,nan,nan,nan,nan,nan,nan,nan,nan,nan,nan,nan,nan,nan,nan,345.5736240220722,375.91837672598194,nan,376.53300682117697,nan,nan,nan,nan
1,20,1,1,1.0,1.0,0.5824588933028281,0,8,0,4,6,7,2,nan,nan,nan,nan,nan,nan,nan,nan,nan,nan,nan,nan,0.0,nan,nan,nan,nan,nan,nan,nan,nan,nan,nan,nan,nan,nan,nan,nan,nan,nan,nan,345.5736240220722,376.9184893392958,nan,377.5009482325986,nan,nan,nan,nan
1,21,1,1,1.0,1.0,0.5743418963393196,0,5,7,1,3,8,0,nan,nan,nan,nan,nan,nan,nan,nan,nan,nan,nan,nan,0.0,nan,nan,nan,nan,nan,nan,nan,nan,nan,nan,nan,nan,nan,nan,nan,nan,nan,nan,345.5736240220722,377.9185882679885,nan,378.49293016432784,nan,nan,nan,nan
1,22,1,1,1.0,1.0,0.5581920059630647,0,4,2,6,7,5,1,nan,nan,nan,nan,nan,nan,nan,nan,nan,nan,nan,nan,0.0,nan,nan,nan,nan,nan,nan,nan,nan,nan,nan,nan,nan,nan,nan,nan,nan,nan,nan,345.5736240220722,378.91872197855264,nan,379.4769139845157,nan,nan,nan,nan
1,23,1,1,1.0,1.0,0.5577595138456672,0,0,5,1,8,7,3,nan,nan,nan,nan,nan,nan,nan,nan,nan,nan,nan,nan,0.0,nan,nan,nan,nan,nan,nan,nan,nan,nan,nan,nan,nan,nan,nan,nan,nan,nan,nan,345.5736240220722,379.9271400378784,nan,380.4848995517241,nan,nan,nan,nan
1,24,1,1,1.0,1.0,0.5895800463622436,0,3,2,6,1,8,5,nan,nan,nan,nan,nan,nan,nan,nan,nan,nan,nan,nan,0.0,nan,nan,nan,nan,nan,nan,nan,nan,nan,nan,nan,nan,nan,nan,nan,nan,nan,nan,345.5736240220722,380.92728030565195,nan,381.5168603520142,nan,nan,nan,nan
1,25,1,1,1.0,1.0,0.5573991512646899,0,4,7,3,6,1,0,nan,nan,nan,nan,nan,nan,nan,nan,nan,nan,nan,nan,0.0,nan,nan,nan,nan,nan,nan,nan,nan,nan,nan,nan,nan,nan,nan,nan,nan,nan,nan,345.5736240220722,381.92744167055935,nan,382.48484082182404,nan,nan,nan,nan
1,26,1,1,1.0,1.0,0.5173185029998422,0,8,2,6,1,0,3,nan,nan,nan,nan,nan,nan,nan,nan,nan,nan,nan,nan,0.0,nan,nan,nan,nan,nan,nan,nan,nan,nan,nan,nan,nan,nan,nan,nan,nan,nan,nan,345.5736240220722,382.92752862512134,nan,383.4448471281212,nan,nan,nan,nan
1,27,1,1,1.0,1.0,0.5251712150638923,0,2,5,8,6,4,1,nan,nan,nan,nan,nan,nan,nan,nan,nan,nan,nan,nan,0.0,nan,nan,nan,nan,nan,nan,nan,nan,nan,nan,nan,nan,nan,nan,nan,nan,nan,nan,345.5736240220722,383.9276554932585,nan,384.4528267083224,nan,nan,nan,nan
1,28,1,1,1.0,1.0,0.5090139121748507,0,7,0,5,4,1,8,nan,nan,nan,nan,nan,nan,nan,nan,nan,nan,nan,nan,0.0,nan,nan,nan,nan,nan,nan,nan,nan,nan,nan,nan,nan,nan,nan,nan,nan,nan,nan,345.5736240220722,384.9277969014365,nan,385.4368108136114,nan,nan,nan,nan
1,29,1,1,1.0,1.0,0.6368804912781343,0,5,8,7,2,0,3,nan,nan,nan,nan,nan,nan,nan,nan,nan,nan,nan,nan,0.0,nan,nan,nan,nan,nan,nan,nan,nan,nan,nan,nan,nan,nan,nan,nan,nan,nan,nan,345.5736240220722,385.92790438304655,nan,386.5647848743247,nan,nan,nan,nan
1,30,1,1,1.0,1.0,0.5327294218586758,0,7,0,5,8,3,4,nan,nan,nan,nan,nan,nan,nan,nan,nan,nan,nan,nan,0.0,nan,nan,nan,nan,nan,nan,nan,nan,nan,nan,nan,nan,nan,nan,nan,nan,nan,nan,345.5736240220722,386.9280323915882,nan,387.4607618134469,nan,nan,nan,nan
1,31,1,1,1.0,1.0,0.5805553005775437,0,3,4,7,6,0,5,nan,nan,nan,nan,nan,nan,nan,nan,nan,nan,nan,nan,0.0,nan,nan,nan,nan,nan,nan,nan,nan,nan,nan,nan,nan,nan,nan,nan,nan,nan,nan,345.5736240220722,387.92818805447314,nan,388.5087433550507,nan,nan,nan,nan
1,32,1,1,1.0,1.0,0.5804238708224148,0,5,2,8,3,7,1,nan,nan,nan,nan,nan,nan,nan,nan,nan,nan,nan,nan,0.0,nan,nan,nan,nan,nan,nan,nan,nan,nan,nan,nan,nan,nan,nan,nan,nan,nan,nan,345.5736240220722,388.92829639138654,nan,389.50872026220895,nan,nan,nan,nan
1,33,1,1,1.0,1.0,0.5642583002336323,0,6,8,2,7,4,0,nan,nan,nan,nan,nan,nan,nan,nan,nan,nan,nan,nan,0.0,nan,nan,nan,nan,nan,nan,nan,nan,nan,nan,nan,nan,nan,nan,nan,nan,nan,nan,345.5736240220722,389.9284235446248,nan,390.49268184485845,nan,nan,nan,nan
1,34,1,1,1.0,1.0,0.5561552729923278,0,7,3,5,4,0,1,nan,nan,nan,nan,nan,nan,nan,nan,nan,nan,nan,nan,0.0,nan,nan,nan,nan,nan,nan,nan,nan,nan,nan,nan,nan,nan,nan,nan,nan,nan,nan,345.5736240220722,390.92853758344427,nan,391.4846928564366,nan,nan,nan,nan
1,35,1,1,1.0,1.0,0.5799828256713226,0,5,8,3,7,6,2,nan,nan,nan,nan,nan,nan,nan,nan,nan,nan,nan,nan,0.0,nan,nan,nan,nan,nan,nan,nan,nan,nan,nan,nan,nan,nan,nan,nan,nan,nan,nan,345.5736240220722,391.9286781363189,nan,392.50866096199024,nan,nan,nan,nan
1,36,0,0,0.0,1.0,0.6038622661726549,0,8,1,4,3,0,5,nan,nan,nan,nan,nan,nan,nan,nan,nan,nan,nan,nan,0.0,nan,nan,nan,nan,nan,nan,nan,nan,nan,nan,nan,nan,nan,nan,nan,nan,nan,nan,345.5736240220722,392.92878191161435,nan,393.532644177787,nan,nan,nan,nan
1,37,1,1,1.0,1.0,0.6436925992602482,0,5,0,1,8,4,6,nan,nan,nan,nan,nan,nan,nan,nan,nan,nan,nan,nan,0.0,nan,nan,nan,nan,nan,nan,nan,nan,nan,nan,nan,nan,nan,nan,nan,nan,nan,nan,345.5736240220722,393.9289059288567,nan,394.57259852811694,nan,nan,nan,nan
1,38,1,1,1.0,1.0,0.6115416393149644,0,8,6,2,3,0,5,nan,nan,nan,nan,nan,nan,nan,nan,nan,nan,nan,nan,0.0,nan,nan,nan,nan,nan,nan,nan,nan,nan,nan,nan,nan,nan,nan,nan,nan,nan,nan,345.5736240220722,394.92905446432997,nan,395.54059610364493,nan,nan,nan,nan
1,39,1,1,1.0,1.0,0.603373039746657,0,7,8,4,0,1,3,nan,nan,nan,nan,nan,nan,nan,nan,nan,nan,nan,nan,0.0,nan,nan,nan,nan,nan,nan,nan,nan,nan,nan,nan,nan,nan,nan,nan,nan,nan,nan,345.5736240220722,395.9291998638073,nan,396.53257290355396,nan,nan,nan,nan
1,40,1,1,1.0,1.0,0.595249485457316,0,3,6,8,1,7,2,nan,nan,nan,nan,nan,nan,nan,nan,nan,nan,nan,nan,0.0,nan,nan,nan,nan,nan,nan,nan,nan,nan,nan,nan,nan,nan,nan,nan,nan,nan,nan,345.5736240220722,396.9292996478034,nan,397.52454913326073,nan,nan,nan,nan
1,41,1,1,nan,nan,nan,0,2,4,3,7,5,0,nan,nan,nan,nan,nan,nan,nan,nan,nan,nan,nan,nan,0.0,nan,nan,nan,nan,nan,nan,nan,nan,nan,nan,nan,nan,nan,nan,nan,nan,nan,nan,345.5736240220722,397.92942509043496,nan,nan,nan,nan,nan,nan
1,42,1,1,nan,nan,nan,0,5,2,0,8,3,7,nan,nan,nan,nan,nan,nan,nan,nan,nan,nan,nan,nan,0.0,nan,nan,nan,nan,nan,nan,nan,nan,nan,nan,nan,nan,nan,nan,nan,nan,nan,nan,345.5736240220722,398.92954483116046,nan,nan,nan,nan,nan,nan
1,43,1,1,1.0,1.0,0.7948282262077555,0,2,4,6,3,1,5,nan,nan,nan,nan,nan,nan,nan,nan,nan,nan,nan,nan,0.0,nan,nan,nan,nan,nan,nan,nan,nan,nan,nan,nan,nan,nan,nan,nan,nan,nan,nan,345.5736240220722,399.9296514574671,nan,400.7244796836749,nan,nan,nan,nan
1,44,1,1,1.0,1.0,0.7946708525996655,0,1,6,2,7,3,0,nan,nan,nan,nan,nan,nan,nan,nan,nan,nan,nan,nan,0.0,nan,nan,nan,nan,nan,nan,nan,nan,nan,nan,nan,nan,nan,nan,nan,nan,nan,nan,345.5736240220722,400.9297848829301,nan,401.7244557355298,nan,nan,nan,nan
1,45,1,1,1.0,1.0,0.7381589233409613,0,7,5,3,0,8,4,nan,nan,nan,nan,nan,nan,nan,nan,nan,nan,nan,nan,0.0,nan,nan,nan,nan,nan,nan,nan,nan,nan,nan,nan,nan,nan,nan,nan,nan,nan,nan,345.5736240220722,401.93827564199455,nan,402.6764345653355,nan,nan,nan,nan
1,46,1,1,1.0,1.0,0.7380386124132201,0,2,8,5,3,4,6,nan,nan,nan,nan,nan,nan,nan,nan,nan,nan,nan,nan,0.0,nan,nan,nan,nan,nan,nan,nan,nan,nan,nan,nan,nan,nan,nan,nan,nan,nan,nan,345.5736240220722,402.93838283850346,nan,403.6764214509167,nan,nan,nan,nan
1,47,0,0,0.0,1.0,0.7378957788459957,0,0,4,2,5,1,3,nan,nan,nan,nan,nan,nan,nan,nan,nan,nan,nan,nan,0.0,nan,nan,nan,nan,nan,nan,nan,nan,nan,nan,nan,nan,nan,nan,nan,nan,nan,nan,345.5736240220722,403.9385045749368,nan,404.6764003537828,nan,nan,nan,nan
1,48,1,1,1.0,1.0,0.7377586470684037,0,1,7,8,4,3,2,nan,nan,nan,nan,nan,nan,nan,nan,nan,nan,nan,nan,0.0,nan,nan,nan,nan,nan,nan,nan,nan,nan,nan,nan,nan,nan,nan,nan,nan,nan,nan,345.5736240220722,404.9386342940852,nan,405.6763929411536,nan,nan,nan,nan
1,49,1,1,1.0,1.0,0.777600669185631,0,8,1,0,2,7,5,nan,nan,nan,nan,nan,nan,nan,nan,nan,nan,nan,nan,0.0,nan,nan,nan,nan,nan,nan,nan,nan,nan,nan,nan,nan,nan,nan,nan,nan,nan,nan,345.5736240220722,405.9387551752152,nan,406.7163558444008,nan,nan,nan,nan
1,50,0,0,nan,nan,nan,0,2,5,3,4,0,1,nan,nan,nan,nan,nan,nan,nan,nan,nan,nan,nan,nan,0.0,nan,nan,nan,nan,nan,nan,nan,nan,nan,nan,nan,nan,nan,nan,nan,nan,nan,nan,345.5736240220722,406.9388880303595,nan,nan,nan,nan,nan,nan
1,51,1,1,1.0,1.0,0.7212669255677611,0,0,8,5,1,2,4,nan,nan,nan,nan,nan,nan,nan,nan,nan,nan,nan,nan,0.0,nan,nan,nan,nan,nan,nan,nan,nan,nan,nan,nan,nan,nan,nan,nan,nan,nan,nan,345.5736240220722,407.93902687262744,nan,408.6602937981952,nan,nan,nan,nan
1,52,1,1,1.0,1.0,0.6971653944347054,0,7,1,2,5,6,0,nan,nan,nan,nan,nan,nan,nan,nan,nan,nan,nan,nan,0.0,nan,nan,nan,nan,nan,nan,nan,nan,nan,nan,nan,nan,nan,nan,nan,nan,nan,nan,345.5736240220722,408.93913663504645,nan,409.63630202948116,nan,nan,nan,nan
1,53,0,0,0.0,1.0,0.665069458191283,0,6,5,8,0,2,1,nan,nan,nan,nan,nan,nan,nan,nan,nan,nan,nan,nan,0.0,nan,nan,nan,nan,nan,nan,nan,nan,nan,nan,nan,nan,nan,nan,nan,nan,nan,nan,345.5736240220722,409.9392233045073,nan,410.6042927626986,nan,nan,nan,nan
1,54,1,1,1.0,1.0,0.560900142416358,0,4,7,1,3,8,2,nan,nan,nan,nan,nan,nan,nan,nan,nan,nan,nan,nan,0.0,nan,nan,nan,nan,nan,nan,nan,nan,nan,nan,nan,nan,nan,nan,nan,nan,nan,nan,345.5736240220722,410.939369559288,nan,411.5002697017044,nan,nan,nan,nan
1,55,1,1,1.0,1.0,0.6167626208625734,0,8,0,4,7,5,3,nan,nan,nan,nan,nan,nan,nan,nan,nan,nan,nan,nan,0.0,nan,nan,nan,nan,nan,nan,nan,nan,nan,nan,nan,nan,nan,nan,nan,nan,nan,nan,345.5736240220722,411.93947989179287,nan,412.55624251265544,nan,nan,nan,nan
1,56,1,1,1.0,1.0,0.552575594978407,0,1,2,6,4,0,7,nan,nan,nan,nan,nan,nan,nan,nan,nan,nan,nan,nan,0.0,nan,nan,nan,nan,nan,nan,nan,nan,nan,nan,nan,nan,nan,nan,nan,nan,nan,nan,345.5736240220722,412.93964838411193,nan,413.49222397909034,nan,nan,nan,nan
1,57,1,1,1.0,1.0,0.5284053555224091,0,7,4,0,5,2,6,nan,nan,nan,nan,nan,nan,nan,nan,nan,nan,nan,nan,0.0,nan,nan,nan,nan,nan,nan,nan,nan,nan,nan,nan,nan,nan,nan,nan,nan,nan,nan,345.5736240220722,413.9397869412787,nan,414.46819229680113,nan,nan,nan,nan
1,58,1,1,1.0,1.0,0.5443015095079318,0,2,3,4,8,1,0,nan,nan,nan,nan,nan,nan,nan,nan,nan,nan,nan,nan,0.0,nan,nan,nan,nan,nan,nan,nan,nan,nan,nan,nan,nan,nan,nan,nan,nan,nan,nan,345.5736240220722,414.9398910016753,nan,415.4841925111832,nan,nan,nan,nan
1,59,1,1,1.0,1.0,0.47213461820501834,0,1,4,6,3,7,5,nan,nan,nan,nan,nan,nan,nan,nan,nan,nan,nan,nan,0.0,nan,nan,nan,nan,nan,nan,nan,nan,nan,nan,nan,nan,nan,nan,nan,nan,nan,nan,345.5736240220722,415.94000646600034,nan,416.41214108420536,nan,nan,nan,nan
1,60,1,1,1.0,1.0,0.4639603167306632,0,4,6,3,2,1,8,nan,nan,nan,nan,nan,nan,nan,nan,nan,nan,nan,nan,0.0,nan,nan,nan,nan,nan,nan,nan,nan,nan,nan,nan,nan,nan,nan,nan,nan,nan,nan,345.5736240220722,416.94017780933063,nan,417.4041381260613,nan,nan,nan,nan
1,61,1,1,1.0,1.0,0.4958147759316489,0,3,7,0,8,2,5,nan,nan,nan,nan,nan,nan,nan,nan,nan,nan,nan,nan,0.0,nan,nan,nan,nan,nan,nan,nan,nan,nan,nan,nan,nan,nan,nan,nan,nan,nan,nan,345.5736240220722,417.94029384374153,nan,418.4361086196732,nan,nan,nan,nan
1,62,1,1,1.0,1.0,0.5837076181778684,0,7,4,2,3,8,0,nan,nan,nan,nan,nan,nan,nan,nan,nan,nan,nan,nan,0.0,nan,nan,nan,nan,nan,nan,nan,nan,nan,nan,nan,nan,nan,nan,nan,nan,nan,nan,345.5736240220722,418.9403882109327,nan,419.5240958291106,nan,nan,nan,nan
1,63,1,1,1.0,1.0,0.6315611513564363,0,6,1,3,0,5,7,nan,nan,nan,nan,nan,nan,nan,nan,nan,nan,nan,nan,0.0,nan,nan,nan,nan,nan,nan,nan,nan,nan,nan,nan,nan,nan,nan,nan,nan,nan,nan,345.5736240220722,419.9405116578564,nan,420.57207280921284,nan,nan,nan,nan
1,64,1,1,1.0,1.0,0.7114225256955251,0,2,8,7,3,0,4,nan,nan,nan,nan,nan,nan,nan,nan,nan,nan,nan,nan,0.0,nan,nan,nan,nan,nan,nan,nan,nan,nan,nan,nan,nan,nan,nan,nan,nan,nan,nan,345.5736240220722,420.9406351048965,nan,421.652057630592,nan,nan,nan,nan
1,65,1,1,1.0,1.0,0.7592783396830782,0,8,6,4,0,7,3,nan,nan,nan,nan,nan,nan,nan,nan,nan,nan,nan,nan,0.0,nan,nan,nan,nan,nan,nan,nan,nan,nan,nan,nan,nan,nan,nan,nan,nan,nan,nan,345.5736240220722,421.94076453894377,nan,422.70004287862685,nan,nan,nan,nan
1,66,1,1,1.0,1.0,0.7911310881609097,0,7,5,1,2,0,6,nan,nan,nan,nan,nan,nan,nan,nan,nan,nan,nan,nan,0.0,nan,nan,nan,nan,nan,nan,nan,nan,nan,nan,nan,nan,nan,nan,nan,nan,nan,nan,345.5736240220722,422.9408899815753,nan,423.7320210697362,nan,nan,nan,nan
1,67,1,1,1.0,1.0,0.7509737488580868,0,8,2,5,6,3,1,nan,nan,nan,nan,nan,nan,nan,nan,nan,nan,nan,nan,0.0,nan,nan,nan,nan,nan,nan,nan,nan,nan,nan,nan,nan,nan,nan,nan,nan,nan,nan,345.5736240220722,423.94101799011696,nan,424.69199173897505,nan,nan,nan,nan
1,68,1,1,1.0,1.0,0.694840713404119,0,0,3,4,7,6,2,nan,nan,nan,nan,nan,nan,nan,nan,nan,nan,nan,nan,0.0,nan,nan,nan,nan,nan,nan,nan,nan,nan,nan,nan,nan,nan,nan,nan,nan,nan,nan,345.5736240220722,424.941135735251,nan,425.63597644865513,nan,nan,nan,nan
1,69,1,1,1.0,1.0,0.638666624086909,0,1,6,3,8,0,7,nan,nan,nan,nan,nan,nan,nan,nan,nan,nan,nan,nan,0.0,nan,nan,nan,nan,nan,nan,nan,nan,nan,nan,nan,nan,nan,nan,nan,nan,nan,nan,345.5736240220722,425.9412654543994,nan,426.5799320784863,nan,nan,nan,nan
1,70,1,1,1.0,1.0,0.6145331622101367,0,3,0,4,2,7,6,nan,nan,nan,nan,nan,nan,nan,nan,nan,nan,nan,nan,0.0,nan,nan,nan,nan,nan,nan,nan,nan,nan,nan,nan,nan,nan,nan,nan,nan,nan,nan,345.5736240220722,426.9413914672332,nan,427.5559246294433,nan,nan,nan,nan
1,71,1,1,1.0,1.0,0.5423959210747853,0,7,1,2,5,0,3,nan,nan,nan,nan,nan,nan,nan,nan,nan,nan,nan,nan,0.0,nan,nan,nan,nan,nan,nan,nan,nan,nan,nan,nan,nan,nan,nan,nan,nan,nan,nan,345.5736240220722,427.94151462917216,nan,428.48391055024695,nan,nan,nan,nan
1,72,1,1,1.0,1.0,0.4542635972611606,0,2,7,1,6,3,4,nan,nan,nan,nan,nan,nan,nan,nan,nan,nan,nan,nan,0.0,nan,nan,nan,nan,nan,nan,nan,nan,nan,nan,nan,nan,nan,nan,nan,nan,nan,nan,345.5736240220722,428.94163807621226,nan,429.3959016734734,nan,nan,nan,nan
1,73,1,1,1.0,1.0,0.5021308150608093,0,7,4,6,1,5,0,nan,nan,nan,nan,nan,nan,nan,nan,nan,nan,nan,nan,0.0,nan,nan,nan,nan,nan,nan,nan,nan,nan,nan,nan,nan,nan,nan,nan,nan,nan,nan,345.5736240220722,429.9417444173014,nan,430.4438752323622,nan,nan,nan,nan
1,74,0,0,1.0,0.0,0.5579816044773906,0,5,6,8,7,4,3,nan,nan,nan,nan,nan,nan,nan,nan,nan,nan,nan,nan,0.0,nan,nan,nan,nan,nan,nan,nan,nan,nan,nan,nan,nan,nan,nan,nan,nan,nan,nan,345.5736240220722,430.941874706652,nan,431.4998563111294,nan,nan,nan,nan
1,75,1,1,1.0,1.0,0.5418086212594062,0,8,5,2,1,3,6,nan,nan,nan,nan,nan,nan,nan,nan,nan,nan,nan,nan,0.0,nan,nan,nan,nan,nan,nan,nan,nan,nan,nan,nan,nan,nan,nan,nan,nan,nan,nan,345.5736240220722,431.9419981536921,nan,432.4838067749515,nan,nan,nan,nan
1,76,1,1,1.0,1.0,0.5656769429333508,0,4,1,6,0,2,5,nan,nan,nan,nan,nan,nan,nan,nan,nan,nan,nan,nan,0.0,nan,nan,nan,nan,nan,nan,nan,nan,nan,nan,nan,nan,nan,nan,nan,nan,nan,nan,345.5736240220722,432.9421426978661,nan,433.5078196407994,nan,nan,nan,nan
1,77,1,1,1.0,1.0,0.5255307223415002,0,3,2,5,4,8,1,nan,nan,nan,nan,nan,nan,nan,nan,nan,nan,nan,nan,0.0,nan,nan,nan,nan,nan,nan,nan,nan,nan,nan,nan,nan,nan,nan,nan,nan,nan,nan,345.5736240220722,433.94226614490617,nan,434.46779686724767,nan,nan,nan,nan
1,78,1,1,1.0,1.0,0.533372315694578,0,2,1,7,3,5,6,nan,nan,nan,nan,nan,nan,nan,nan,nan,nan,nan,nan,0.0,nan,nan,nan,nan,nan,nan,nan,nan,nan,nan,nan,nan,nan,nan,nan,nan,nan,nan,345.5736240220722,434.9423904471332,nan,435.4757627628278,nan,nan,nan,nan
1,79,1,1,1.0,1.0,0.5251897464040667,0,3,5,0,6,1,8,nan,nan,nan,nan,nan,nan,nan,nan,nan,nan,nan,nan,0.0,nan,nan,nan,nan,nan,nan,nan,nan,nan,nan,nan,nan,nan,nan,nan,nan,nan,nan,345.5736240220722,435.94255209714174,nan,436.4677418435458,nan,nan,nan,nan
1,80,1,1,1.0,1.0,0.5010654075304046,0,5,4,1,3,7,0,nan,nan,nan,nan,nan,nan,nan,nan,nan,nan,nan,nan,0.0,nan,nan,nan,nan,nan,nan,nan,nan,nan,nan,nan,nan,nan,nan,nan,nan,nan,nan,345.5736240220722,436.94264304311946,nan,437.44370845064986,nan,nan,nan,nan
1,81,1,1,1.0,1.0,0.4849528649356216,0,6,3,2,5,8,7,nan,nan,nan,nan,nan,nan,nan,nan,nan,nan,nan,nan,0.0,nan,nan,nan,nan,nan,nan,nan,nan,nan,nan,nan,nan,nan,nan,nan,nan,nan,nan,345.5736240220722,437.9427545160288,nan,438.4277073809644,nan,nan,nan,nan
1,82,1,1,1.0,1.0,0.5167942096013576,0,2,0,5,6,7,4,nan,nan,nan,nan,nan,nan,nan,nan,nan,nan,nan,nan,0.0,nan,nan,nan,nan,nan,nan,nan,nan,nan,nan,nan,nan,nan,nan,nan,nan,nan,nan,345.5736240220722,438.94287397165317,nan,439.45966818125453,nan,nan,nan,nan
1,83,1,1,1.0,1.0,0.4366976300952956,0,4,7,2,8,1,3,nan,nan,nan,nan,nan,nan,nan,nan,nan,nan,nan,nan,0.0,nan,nan,nan,nan,nan,nan,nan,nan,nan,nan,nan,nan,nan,nan,nan,nan,nan,nan,345.5736240220722,439.943020511535,nan,440.3797181416303,nan,nan,nan,nan
1,84,1,1,1.0,1.0,0.46050151984672993,0,1,6,0,4,5,8,nan,nan,nan,nan,nan,nan,nan,nan,nan,nan,nan,nan,0.0,nan,nan,nan,nan,nan,nan,nan,nan,nan,nan,nan,nan,nan,nan,nan,nan,nan,nan,345.5736240220722,440.94314566918183,nan,441.40364718902856,nan,nan,nan,nan
1,85,1,1,1.0,1.0,0.40436506329569966,0,5,4,2,6,7,3,nan,nan,nan,nan,nan,nan,nan,nan,nan,nan,nan,nan,0.0,nan,nan,nan,nan,nan,nan,nan,nan,nan,nan,nan,nan,nan,nan,nan,nan,nan,nan,345.5736240220722,441.9432648397051,nan,442.3476299030008,nan,nan,nan,nan
1,86,1,1,1.0,1.0,0.4281891949940473,0,6,3,4,1,0,5,nan,nan,nan,nan,nan,nan,nan,nan,nan,nan,nan,nan,0.0,nan,nan,nan,nan,nan,nan,nan,nan,nan,nan,nan,nan,nan,nan,nan,nan,nan,nan,345.5736240220722,442.94341565598734,nan,443.3716048509814,nan,nan,nan,nan
1,87,1,1,1.0,1.0,0.4520406959345564,0,8,6,1,5,7,2,nan,nan,nan,nan,nan,nan,nan,nan,nan,nan,nan,nan,0.0,nan,nan,nan,nan,nan,nan,nan,nan,nan,nan,nan,nan,nan,nan,nan,nan,nan,nan,345.5736240220722,443.9435376775218,nan,444.3955783734564,nan,nan,nan,nan
1,88,0,0,0.0,1.0,0.5478874596301466,0,0,2,7,8,1,6,nan,nan,nan,nan,nan,nan,nan,nan,nan,nan,nan,nan,0.0,nan,nan,nan,nan,nan,nan,nan,nan,nan,nan,nan,nan,nan,nan,nan,nan,nan,nan,345.5736240220722,444.94366939237807,nan,445.4915568520082,nan,nan,nan,nan
1,89,1,1,1.0,1.0,0.5877465874655172,0,6,1,8,0,5,4,nan,nan,nan,nan,nan,nan,nan,nan,nan,nan,nan,nan,0.0,nan,nan,nan,nan,nan,nan,nan,nan,nan,nan,nan,nan,nan,nan,nan,nan,nan,nan,345.5736240220722,445.9437911288114,nan,446.53153771627694,nan,nan,nan,nan
1,90,1,1,1.0,1.0,0.5396068170666695,0,4,0,2,8,3,5,nan,nan,nan,nan,nan,nan,nan,nan,nan,nan,nan,nan,0.0,nan,nan,nan,nan,nan,nan,nan,nan,nan,nan,nan,nan,nan,nan,nan,nan,nan,nan,345.5736240220722,446.9439105844358,nan,447.48351740150247,nan,nan,nan,nan
1,91,1,1,1.0,1.0,0.6194924246519804,0,5,3,1,7,2,4,nan,nan,nan,nan,nan,nan,nan,nan,nan,nan,nan,nan,0.0,nan,nan,nan,nan,nan,nan,nan,nan,nan,nan,nan,nan,nan,nan,nan,nan,nan,nan,345.5736240220722,447.9440023857169,nan,448.56349481036887,nan,nan,nan,nan
1,92,0,0,0.0,1.0,0.5553436018526554,0,1,5,8,4,3,6,nan,nan,nan,nan,nan,nan,nan,nan,nan,nan,nan,nan,0.0,nan,nan,nan,nan,nan,nan,nan,nan,nan,nan,nan,nan,nan,nan,nan,nan,nan,nan,345.5736240220722,448.94413296005223,nan,449.4994765619049,nan,nan,nan,nan
1,93,1,1,1.0,1.0,0.5148546947166324,0,3,1,6,5,7,4,nan,nan,nan,nan,nan,nan,nan,nan,nan,nan,nan,nan,0.0,nan,nan,nan,nan,nan,nan,nan,nan,nan,nan,nan,nan,nan,nan,nan,nan,nan,nan,345.5736240220722,449.9525812397478,nan,450.46743593446445,nan,nan,nan,nan
1,94,0,0,0.0,1.0,0.5386859537102282,0,7,0,3,8,6,5,nan,nan,nan,nan,nan,nan,nan,nan,nan,nan,nan,nan,0.0,nan,nan,nan,nan,nan,nan,nan,nan,nan,nan,nan,nan,nan,nan,nan,nan,nan,nan,345.5736240220722,450.9527297753375,nan,451.49141572904773,nan,nan,nan,nan
1,95,1,1,1.0,1.0,0.5305655355332419,0,3,7,6,4,2,1,nan,nan,nan,nan,nan,nan,nan,nan,nan,nan,nan,nan,0.0,nan,nan,nan,nan,nan,nan,nan,nan,nan,nan,nan,nan,nan,nan,nan,nan,nan,nan,345.5736240220722,451.9528466651682,nan,452.4834122007014,nan,nan,nan,nan
1,96,1,1,1.0,1.0,0.4980778759345412,0,5,8,0,7,6,3,nan,nan,nan,nan,nan,nan,nan,nan,nan,nan,nan,nan,0.0,nan,nan,nan,nan,nan,nan,nan,nan,nan,nan,nan,nan,nan,nan,nan,nan,nan,nan,345.5736240220722,452.961327160825,nan,453.45940503675956,nan,nan,nan,nan
1,97,1,1,1.0,1.0,0.48194623191375285,0,7,6,3,8,4,5,nan,nan,nan,nan,nan,nan,nan,nan,nan,nan,nan,nan,0.0,nan,nan,nan,nan,nan,nan,nan,nan,nan,nan,nan,nan,nan,nan,nan,nan,nan,nan,345.5736240220722,453.96143350191414,nan,454.4433797338279,nan,nan,nan,nan
1,98,1,1,1.0,1.0,0.497787932283245,0,2,0,4,1,5,3,nan,nan,nan,nan,nan,nan,nan,nan,nan,nan,nan,nan,0.0,nan,nan,nan,nan,nan,nan,nan,nan,nan,nan,nan,nan,nan,nan,nan,nan,nan,nan,345.5736240220722,454.96156094036996,nan,455.4593488726532,nan,nan,nan,nan
1,99,1,1,1.0,1.0,0.5296403957763687,0,0,1,7,5,8,2,nan,nan,nan,nan,nan,nan,nan,nan,nan,nan,nan,nan,0.0,nan,nan,nan,nan,nan,nan,nan,nan,nan,nan,nan,nan,nan,nan,nan,nan,nan,nan,345.5736240220722,455.9616878085071,nan,456.4913282042835,nan,nan,nan,nan
1,100,1,1,1.0,1.0,0.47350850084330887,0,6,7,3,8,4,1,nan,nan,nan,nan,nan,nan,nan,nan,nan,nan,nan,nan,0.0,nan,nan,nan,nan,nan,nan,nan,nan,nan,nan,nan,nan,nan,nan,nan,nan,nan,nan,345.5736240220722,456.9618123958353,nan,457.4353208966786,nan,nan,nan,nan
1,101,1,1,1.0,1.0,0.4813703359104693,0,8,1,2,4,3,7,nan,nan,nan,nan,nan,nan,nan,nan,nan,nan,nan,nan,0.0,nan,nan,nan,nan,nan,nan,nan,nan,nan,nan,nan,nan,nan,nan,nan,nan,nan,nan,345.5736240220722,457.9619381236844,nan,458.44330845959485,nan,nan,nan,nan
1,102,1,1,1.0,1.0,0.5452172411605716,0,3,4,0,6,8,2,nan,nan,nan,nan,nan,nan,nan,nan,nan,nan,nan,nan,0.0,nan,nan,nan,nan,nan,nan,nan,nan,nan,nan,nan,nan,nan,nan,nan,nan,nan,nan,345.5736240220722,458.9620467455825,nan,459.50726398674306,nan,nan,nan,nan
1,103,1,1,1.0,1.0,0.569033675128594,0,8,7,4,3,1,6,nan,nan,nan,nan,nan,nan,nan,nan,nan,nan,nan,nan,0.0,nan,nan,nan,nan,nan,nan,nan,nan,nan,nan,nan,nan,nan,nan,nan,nan,nan,nan,345.5736240220722,459.9622095359955,nan,460.5312432111241,nan,nan,nan,nan
1,104,1,1,1.0,1.0,0.5449190295767039,0,4,6,1,0,2,5,nan,nan,nan,nan,nan,nan,nan,nan,nan,nan,nan,nan,0.0,nan,nan,nan,nan,nan,nan,nan,nan,nan,nan,nan,nan,nan,nan,nan,nan,nan,nan,345.5736240220722,460.9623104603961,nan,461.5072294899728,nan,nan,nan,nan
1,105,1,1,1.0,1.0,0.568780223838985,1,5,3,0,8,6,7,1.0,1.0,1.0,1.0,1.0,1.0,1.0,0.0,0.0,0.0,0.0,0.0,1.0,5.0,6.0,5.0,4.0,0.0,6.0,1.0,2.0,3.0,4.0,5.0,6.0,2.3246411056024954,4.4445024457527325,5.4054832137189806,6.364539576810785,7.307674982468598,8.395707807387225,345.5736240220722,461.9624652680941,462.77090887213126,462.5312454919331,472.22203611722216,473.2296935378108,463.7876811292954,472.21370615274645
1,106,1,1,1.0,1.0,0.6924535962752998,0,4,7,2,3,1,5,nan,nan,nan,nan,nan,nan,nan,nan,nan,nan,nan,nan,0.0,nan,nan,nan,nan,nan,nan,nan,nan,nan,nan,nan,nan,nan,nan,nan,nan,nan,nan,345.5736240220722,473.43052841583267,nan,474.12298201210797,nan,nan,nan,nan
1,107,0,0,0.0,1.0,0.7242675714660436,0,2,6,8,1,4,0,nan,nan,nan,nan,nan,nan,nan,nan,nan,nan,nan,nan,0.0,nan,nan,nan,nan,nan,nan,nan,nan,nan,nan,nan,nan,nan,nan,nan,nan,nan,nan,345.5736240220722,474.4306949125603,nan,475.1549624840263,nan,nan,nan,nan
1,108,1,1,1.0,1.0,0.6601258760783821,1,3,2,7,6,8,5,1.0,1.0,1.0,1.0,1.0,1.0,0.0,0.0,0.0,0.0,0.0,0.0,0.0,0.0,1.0,6.0,0.0,5.0,2.0,2.0,1.0,6.0,5.0,4.0,3.0,7.063999432022683,5.752517834189348,12.07141280954238,10.456098481547087,9.272332076448947,8.472620708635077,345.5736240220722,475.4307887094328,476.23921406734735,476.0909145855112,489.3575107952347,490.3581727903802,477.24769000150263,489.3491794052534
1,109,0,0,0.0,1.0,0.7326246201992035,0,0,5,1,7,3,2,nan,nan,nan,nan,nan,nan,nan,nan,nan,nan,nan,nan,0.0,nan,nan,nan,nan,nan,nan,nan,nan,nan,nan,nan,nan,nan,nan,nan,nan,nan,nan,345.5736240220722,490.566008225549,nan,491.2986328457482,nan,nan,nan,nan
1,110,1,1,1.0,1.0,0.6444492468144745,0,5,8,3,4,7,0,nan,nan,nan,nan,nan,nan,nan,nan,nan,nan,nan,nan,0.0,nan,nan,nan,nan,nan,nan,nan,nan,nan,nan,nan,nan,nan,nan,nan,nan,nan,nan,345.5736240220722,491.56614592741244,nan,492.2105951742269,nan,nan,nan,nan
1,111,1,1,1.0,1.0,0.6203286141389981,0,0,6,2,1,4,7,nan,nan,nan,nan,nan,nan,nan,nan,nan,nan,nan,nan,0.0,nan,nan,nan,nan,nan,nan,nan,nan,nan,nan,nan,nan,nan,nan,nan,nan,nan,nan,345.5736240220722,492.56624941772316,nan,493.18657803186215,nan,nan,nan,nan
1,112,1,1,1.0,1.0,0.5161752639105543,1,8,7,3,4,0,1,1.0,1.0,1.0,1.0,1.0,1.0,0.0,0.0,0.0,0.0,0.0,0.0,0.0,0.0,4.0,7.0,6.0,2.0,3.0,1.0,2.0,3.0,4.0,5.0,6.0,1.151788213988766,2.334890913334675,3.14326866006013,4.167063426692039,5.383787331404164,6.430806670687161,345.5736240220722,493.5663933916949,494.37480335426517,494.0825686556054,501.85907255660277,502.8691096819239,495.39162806922104,501.8507394561311
1,113,0,0,0.0,1.0,0.790460825082846,0,6,2,8,3,5,0,nan,nan,nan,nan,nan,nan,nan,nan,nan,nan,nan,nan,0.0,nan,nan,nan,nan,nan,nan,nan,nan,nan,nan,nan,nan,nan,nan,nan,nan,nan,nan,345.5736240220722,503.0759216188453,nan,503.86638244392816,nan,nan,nan,nan
1,114,1,1,1.0,1.0,0.678292827680707,0,1,8,7,6,0,2,nan,nan,nan,nan,nan,nan,nan,nan,nan,nan,nan,nan,0.0,nan,nan,nan,nan,nan,nan,nan,nan,nan,nan,nan,nan,nan,nan,nan,nan,nan,nan,345.5736240220722,504.07604164467193,nan,504.75433447235264,nan,nan,nan,nan
1,115,1,1,1.0,1.0,0.6381728360429406,0,4,6,0,5,8,3,nan,nan,nan,nan,nan,nan,nan,nan,nan,nan,nan,nan,0.0,nan,nan,nan,nan,nan,nan,nan,nan,nan,nan,nan,nan,nan,nan,nan,nan,nan,nan,345.5736240220722,505.07615026668645,nan,505.7143231027294,nan,nan,nan,nan
1,116,1,1,1.0,1.0,0.5900553031824529,0,1,5,4,3,0,8,nan,nan,nan,nan,nan,nan,nan,nan,nan,nan,nan,nan,0.0,nan,nan,nan,nan,nan,nan,nan,nan,nan,nan,nan,nan,nan,nan,nan,nan,nan,nan,345.5736240220722,506.07625774818007,nan,506.6663130513625,nan,nan,nan,nan
1,117,1,1,1.0,1.0,0.5978963262168691,0,7,3,8,1,4,0,nan,nan,nan,nan,nan,nan,nan,nan,nan,nan,nan,nan,0.0,nan,nan,nan,nan,nan,nan,nan,nan,nan,nan,nan,nan,nan,nan,nan,nan,nan,nan,345.5736240220722,507.07637720380444,nan,507.6742735300213,nan,nan,nan,nan
1,118,1,1,1.0,1.0,0.6297584829153493,0,8,5,7,6,2,4,nan,nan,nan,nan,nan,nan,nan,nan,nan,nan,nan,nan,0.0,nan,nan,nan,nan,nan,nan,nan,nan,nan,nan,nan,nan,nan,nan,nan,nan,nan,nan,345.5736240220722,508.0765226032818,nan,508.7062810861971,nan,nan,nan,nan
1,119,1,1,1.0,1.0,0.621579619939439,0,7,1,6,5,4,2,nan,nan,nan,nan,nan,nan,nan,nan,nan,nan,nan,nan,0.0,nan,nan,nan,nan,nan,nan,nan,nan,nan,nan,nan,nan,nan,nan,nan,nan,nan,nan,345.5736240220722,509.07665203732904,nan,509.6982316572685,nan,nan,nan,nan
1,120,0,0,0.0,1.0,0.6294155111536384,0,2,5,0,1,7,3,nan,nan,nan,nan,nan,nan,nan,nan,nan,nan,nan,nan,0.0,nan,nan,nan,nan,nan,nan,nan,nan,nan,nan,nan,nan,nan,nan,nan,nan,nan,nan,345.5736240220722,510.07680199842434,nan,510.706217509578,nan,nan,nan,nan
1,121,1,1,0.0,0.0,0.6772559297969565,0,6,4,7,2,0,5,nan,nan,nan,nan,nan,nan,nan,nan,nan,nan,nan,nan,0.0,nan,nan,nan,nan,nan,nan,nan,nan,nan,nan,nan,nan,nan,nan,nan,nan,nan,nan,345.5736240220722,511.07694055559114,nan,511.7541964853881,nan,nan,nan,nan
1,122,1,1,1.0,1.0,0.6371082838159055,0,8,1,5,3,2,7,nan,nan,nan,nan,nan,nan,nan,nan,nan,nan,nan,nan,0.0,nan,nan,nan,nan,nan,nan,nan,nan,nan,nan,nan,nan,nan,nan,nan,nan,nan,nan,345.5736240220722,512.0770397692686,nan,512.7141480530845,nan,nan,nan,nan
1,123,1,1,1.0,1.0,0.6046083651017398,0,3,8,0,6,5,2,nan,nan,nan,nan,nan,nan,nan,nan,nan,nan,nan,nan,0.0,nan,nan,nan,nan,nan,nan,nan,nan,nan,nan,nan,nan,nan,nan,nan,nan,nan,nan,345.5736240220722,513.0855231159367,nan,513.6901314810384,nan,nan,nan,nan
1,124,1,1,1.0,1.0,0.5724830637918785,0,8,5,6,4,2,3,nan,nan,nan,nan,nan,nan,nan,nan,nan,nan,nan,nan,0.0,nan,nan,nan,nan,nan,nan,nan,nan,nan,nan,nan,nan,nan,nan,nan,nan,nan,nan,345.5736240220722,514.0856525499839,nan,514.6581356137758,nan,nan,nan,nan
1,125,1,1,1.0,1.0,0.684346292517148,0,4,8,2,1,7,0,nan,nan,nan,nan,nan,nan,nan,nan,nan,nan,nan,nan,0.0,nan,nan,nan,nan,nan,nan,nan,nan,nan,nan,nan,nan,nan,nan,nan,nan,nan,nan,345.5736240220722,515.085745206452,nan,515.7700914989691,nan,nan,nan,nan
1,126,1,1,nan,nan,nan,0,0,7,8,6,5,1,nan,nan,nan,nan,nan,nan,nan,nan,nan,nan,nan,nan,0.0,nan,nan,nan,nan,nan,nan,nan,nan,nan,nan,nan,nan,nan,nan,nan,nan,nan,nan,345.5736240220722,516.0858618111815,nan,nan,nan,nan,nan,nan
1,127,1,1,1.0,1.0,0.7800257044145837,0,4,3,2,8,7,5,nan,nan,nan,nan,nan,nan,nan,nan,nan,nan,nan,nan,0.0,nan,nan,nan,nan,nan,nan,nan,nan,nan,nan,nan,nan,nan,nan,nan,nan,nan,nan,345.5736240220722,517.0859960918315,nan,517.8660217962461,nan,nan,nan,nan
1,128,1,1,1.0,1.0,0.7078773444518447,0,1,4,7,5,8,0,nan,nan,nan,nan,nan,nan,nan,nan,nan,nan,nan,nan,0.0,nan,nan,nan,nan,nan,nan,nan,nan,nan,nan,nan,nan,nan,nan,nan,nan,nan,nan,345.5736240220722,518.0861489038216,nan,518.7940262482734,nan,nan,nan,nan
1,129,1,1,1.0,1.0,0.6197686836821958,0,7,0,5,8,3,2,nan,nan,nan,nan,nan,nan,nan,nan,nan,nan,nan,nan,0.0,nan,nan,nan,nan,nan,nan,nan,nan,nan,nan,nan,nan,nan,nan,nan,nan,nan,nan,345.5736240220722,519.0862518239301,nan,519.7060205076123,nan,nan,nan,nan
1,130,1,1,1.0,1.0,0.5236510777613148,0,0,1,2,7,8,5,nan,nan,nan,nan,nan,nan,nan,nan,nan,nan,nan,nan,0.0,nan,nan,nan,nan,nan,nan,nan,nan,nan,nan,nan,nan,nan,nan,nan,nan,nan,nan,345.5736240220722,520.0863732752623,nan,520.6100243530236,nan,nan,nan,nan
1,131,1,1,nan,nan,nan,0,1,6,0,5,7,2,nan,nan,nan,nan,nan,nan,nan,nan,nan,nan,nan,nan,0.0,nan,nan,nan,nan,nan,nan,nan,nan,nan,nan,nan,nan,nan,nan,nan,nan,nan,nan,345.5736240220722,521.0864995731972,nan,nan,nan,nan,nan,nan
1,132,1,1,1.0,1.0,0.739372011157684,0,5,0,4,2,3,7,nan,nan,nan,nan,nan,nan,nan,nan,nan,nan,nan,nan,0.0,nan,nan,nan,nan,nan,nan,nan,nan,nan,nan,nan,nan,nan,nan,nan,nan,nan,nan,345.5736240220722,522.0866210245294,nan,522.8259930356871,nan,nan,nan,nan
1,133,1,1,1.0,1.0,0.5472029417287558,0,7,5,0,4,2,1,nan,nan,nan,nan,nan,nan,nan,nan,nan,nan,nan,nan,0.0,nan,nan,nan,nan,nan,nan,nan,nan,nan,nan,nan,nan,nan,nan,nan,nan,nan,nan,345.5736240220722,523.0867470373632,nan,523.633949979092,nan,nan,nan,nan
1,134,0,0,0.0,1.0,0.5550442499807104,0,0,3,5,7,1,2,nan,nan,nan,nan,nan,nan,nan,nan,nan,nan,nan,nan,0.0,nan,nan,nan,nan,nan,nan,nan,nan,nan,nan,nan,nan,nan,nan,nan,nan,nan,nan,345.5736240220722,524.0868761863094,nan,524.6419204362901,nan,nan,nan,nan
1,135,1,1,1.0,1.0,0.6029054806567729,0,5,8,2,3,4,7,nan,nan,nan,nan,nan,nan,nan,nan,nan,nan,nan,nan,0.0,nan,nan,nan,nan,nan,nan,nan,nan,nan,nan,nan,nan,nan,nan,nan,nan,nan,nan,345.5736240220722,525.087011892465,nan,525.6899173731217,nan,nan,nan,nan
1,136,1,1,1.0,1.0,0.7067409477895126,0,7,2,3,8,5,4,nan,nan,nan,nan,nan,nan,nan,nan,nan,nan,nan,nan,0.0,nan,nan,nan,nan,nan,nan,nan,nan,nan,nan,nan,nan,nan,nan,nan,nan,nan,nan,345.5736240220722,526.087153300643,nan,526.7938942484325,nan,nan,nan,nan
1,137,1,1,nan,nan,nan,0,6,5,1,3,0,2,nan,nan,nan,nan,nan,nan,nan,nan,nan,nan,nan,nan,0.0,nan,nan,nan,nan,nan,nan,nan,nan,nan,nan,nan,nan,nan,nan,nan,nan,nan,nan,345.5736240220722,527.0872359788045,nan,nan,nan,nan,nan,nan
1,138,1,1,1.0,1.0,0.7624377846950665,0,8,7,0,2,5,1,nan,nan,nan,nan,nan,nan,nan,nan,nan,nan,nan,nan,0.0,nan,nan,nan,nan,nan,nan,nan,nan,nan,nan,nan,nan,nan,nan,nan,nan,nan,nan,345.5736240220722,528.0873753911583,nan,528.8498131758533,nan,nan,nan,nan
1,139,1,1,1.0,1.0,0.7143185411114246,0,0,5,1,8,2,7,nan,nan,nan,nan,nan,nan,nan,nan,nan,nan,nan,nan,0.0,nan,nan,nan,nan,nan,nan,nan,nan,nan,nan,nan,nan,nan,nan,nan,nan,nan,nan,345.5736240220722,529.0874837280717,nan,529.8018022691831,nan,nan,nan,nan
1,140,1,1,1.0,1.0,0.7061850086320192,0,8,1,5,7,6,4,nan,nan,nan,nan,nan,nan,nan,nan,nan,nan,nan,nan,0.0,nan,nan,nan,nan,nan,nan,nan,nan,nan,nan,nan,nan,nan,nan,nan,nan,nan,nan,345.5736240220722,530.0876277020434,nan,530.7938127106754,nan,nan,nan,nan
1,141,1,1,1.0,1.0,0.690004612901248,0,1,4,3,6,5,2,nan,nan,nan,nan,nan,nan,nan,nan,nan,nan,nan,nan,0.0,nan,nan,nan,nan,nan,nan,nan,nan,nan,nan,nan,nan,nan,nan,nan,nan,nan,nan,345.5736240220722,531.087781654438,nan,531.7777862673393,nan,nan,nan,nan
1,142,1,1,1.0,1.0,0.6419640560634434,0,8,5,7,4,2,1,nan,nan,nan,nan,nan,nan,nan,nan,nan,nan,nan,nan,0.0,nan,nan,nan,nan,nan,nan,nan,nan,nan,nan,nan,nan,nan,nan,nan,nan,nan,nan,345.5736240220722,532.0878802980296,nan,532.7298443540931,nan,nan,nan,nan
1,143,1,1,1.0,1.0,0.5697717912262306,0,2,0,6,7,1,5,nan,nan,nan,nan,nan,nan,nan,nan,nan,nan,nan,nan,0.0,nan,nan,nan,nan,nan,nan,nan,nan,nan,nan,nan,nan,nan,nan,nan,nan,nan,nan,345.5736240220722,533.0879849286284,nan,533.6577567198547,nan,nan,nan,nan
1,144,1,1,1.0,1.0,0.713602377451025,0,4,6,0,3,8,7,nan,nan,nan,nan,nan,nan,nan,nan,nan,nan,nan,nan,0.0,nan,nan,nan,nan,nan,nan,nan,nan,nan,nan,nan,nan,nan,nan,nan,nan,nan,nan,345.5736240220722,534.0881317536114,nan,534.8017341310624,nan,nan,nan,nan
1,145,1,1,1.0,1.0,0.6734533059643582,0,6,8,1,7,3,4,nan,nan,nan,nan,nan,nan,nan,nan,nan,nan,nan,nan,0.0,nan,nan,nan,nan,nan,nan,nan,nan,nan,nan,nan,nan,nan,nan,nan,nan,nan,nan,345.5736240220722,535.0882566260407,nan,535.761709932005,nan,nan,nan,nan
1,146,1,1,1.0,1.0,0.6413365575717762,0,8,0,4,3,5,1,nan,nan,nan,nan,nan,nan,nan,nan,nan,nan,nan,nan,0.0,nan,nan,nan,nan,nan,nan,nan,nan,nan,nan,nan,nan,nan,nan,nan,nan,nan,nan,345.5736240220722,536.0883589759469,nan,536.7296955335187,nan,nan,nan,nan
1,147,0,0,nan,nan,nan,0,4,2,8,0,6,7,nan,nan,nan,nan,nan,nan,nan,nan,nan,nan,nan,nan,0.0,nan,nan,nan,nan,nan,nan,nan,nan,nan,nan,nan,nan,nan,nan,nan,nan,nan,nan,345.5736240220722,537.0884875546908,nan,nan,nan,nan,nan,nan
1,148,1,1,1.0,1.0,0.6649725252063945,0,1,3,2,5,0,4,nan,nan,nan,nan,nan,nan,nan,nan,nan,nan,nan,nan,0.0,nan,nan,nan,nan,nan,nan,nan,nan,nan,nan,nan,nan,nan,nan,nan,nan,nan,nan,345.5736240220722,538.0886301031569,nan,538.7536026283633,nan,nan,nan,nan
1,149,1,1,1.0,1.0,0.6808692493941635,0,3,8,7,1,6,2,nan,nan,nan,nan,nan,nan,nan,nan,nan,nan,nan,nan,0.0,nan,nan,nan,nan,nan,nan,nan,nan,nan,nan,nan,nan,nan,nan,nan,nan,nan,nan,345.5736240220722,539.088761532912,nan,539.7696307823062,nan,nan,nan,nan
1,150,1,1,1.0,1.0,0.6887037152191624,0,2,1,4,7,3,5,nan,nan,nan,nan,nan,nan,nan,nan,nan,nan,nan,nan,0.0,nan,nan,nan,nan,nan,nan,nan,nan,nan,nan,nan,nan,nan,nan,nan,nan,nan,nan,345.5736240220722,540.088906077086,nan,540.7776097923052,nan,nan,nan,nan
1,151,1,1,1.0,1.0,0.6965974811464548,0,0,6,7,3,5,2,nan,nan,nan,nan,nan,nan,nan,nan,nan,nan,nan,nan,0.0,nan,nan,nan,nan,nan,nan,nan,nan,nan,nan,nan,nan,nan,nan,nan,nan,nan,nan,345.5736240220722,541.0889884701464,nan,541.7855859512929,nan,nan,nan,nan
1,152,1,1,1.0,1.0,0.616442741942592,0,8,5,3,0,2,4,nan,nan,nan,nan,nan,nan,nan,nan,nan,nan,nan,nan,0.0,nan,nan,nan,nan,nan,nan,nan,nan,nan,nan,nan,nan,nan,nan,nan,nan,nan,nan,345.5736240220722,542.0891170488903,nan,542.7055597908329,nan,nan,nan,nan
1,153,1,1,1.0,1.0,0.5682887166040018,0,6,1,8,3,0,2,nan,nan,nan,nan,nan,nan,nan,nan,nan,nan,nan,nan,0.0,nan,nan,nan,nan,nan,nan,nan,nan,nan,nan,nan,nan,nan,nan,nan,nan,nan,nan,345.5736240220722,543.0892541805515,nan,543.6575428971555,nan,nan,nan,nan
1,154,1,1,1.0,1.0,0.5681447426322848,0,8,2,0,5,4,7,nan,nan,nan,nan,nan,nan,nan,nan,nan,nan,nan,nan,0.0,nan,nan,nan,nan,nan,nan,nan,nan,nan,nan,nan,nan,nan,nan,nan,nan,nan,nan,345.5736240220722,544.0893804784864,nan,544.6575252211187,nan,nan,nan,nan
1,155,1,1,1.0,1.0,0.5439938898198307,0,0,4,1,8,7,5,nan,nan,nan,nan,nan,nan,nan,nan,nan,nan,nan,nan,0.0,nan,nan,nan,nan,nan,nan,nan,nan,nan,nan,nan,nan,nan,nan,nan,nan,nan,nan,345.5736240220722,545.0895101976348,nan,545.6335040874546,nan,nan,nan,nan
1,156,0,0,nan,nan,nan,0,8,5,4,0,6,2,nan,nan,nan,nan,nan,nan,nan,nan,nan,nan,nan,nan,0.0,nan,nan,nan,nan,nan,nan,nan,nan,nan,nan,nan,nan,nan,nan,nan,nan,nan,nan,345.5736240220722,546.0896165388403,nan,nan,nan,nan,nan,nan
1,157,1,1,0.0,0.0,0.10375706537161022,0,1,4,5,7,0,8,nan,nan,nan,nan,nan,nan,nan,nan,nan,nan,nan,nan,0.0,nan,nan,nan,nan,nan,nan,nan,nan,nan,nan,nan,nan,nan,nan,nan,nan,nan,nan,345.5736240220722,547.0897379901726,nan,547.1934950555442,nan,nan,nan,nan
1,158,1,1,1.0,1.0,0.6315292204963043,0,8,7,3,4,1,5,nan,nan,nan,nan,nan,nan,nan,nan,nan,nan,nan,nan,0.0,nan,nan,nan,nan,nan,nan,nan,nan,nan,nan,nan,nan,nan,nan,nan,nan,nan,nan,345.5736240220722,548.0898554500891,nan,548.7213846705854,nan,nan,nan,nan
1,159,1,1,1.0,1.0,0.663414184935391,0,5,3,2,6,4,1,nan,nan,nan,nan,nan,nan,nan,nan,nan,nan,nan,nan,0.0,nan,nan,nan,nan,nan,nan,nan,nan,nan,nan,nan,nan,nan,nan,nan,nan,nan,nan,345.5736240220722,549.090007691877,nan,549.7534218768124,nan,nan,nan,nan
1,160,1,1,1.0,1.0,0.5992337162606418,0,8,5,7,3,2,0,nan,nan,nan,nan,nan,nan,nan,nan,nan,nan,nan,nan,0.0,nan,nan,nan,nan,nan,nan,nan,nan,nan,nan,nan,nan,nan,nan,nan,nan,nan,nan,345.5736240220722,550.0901599336648,nan,550.6893936499255,nan,nan,nan,nan
1,161,0,0,0.0,1.0,0.7351403161883354,0,7,0,5,8,6,2,nan,nan,nan,nan,nan,nan,nan,nan,nan,nan,nan,nan,0.0,nan,nan,nan,nan,nan,nan,nan,nan,nan,nan,nan,nan,nan,nan,nan,nan,nan,nan,345.5736240220722,551.0902397608152,nan,551.8253800770035,nan,nan,nan,nan
1,162,1,1,1.0,1.0,0.63093963987194,0,1,7,4,2,5,0,nan,nan,nan,nan,nan,nan,nan,nan,nan,nan,nan,nan,0.0,nan,nan,nan,nan,nan,nan,nan,nan,nan,nan,nan,nan,nan,nan,nan,nan,nan,nan,345.5736240220722,552.0904108190443,nan,552.7213504589163,nan,nan,nan,nan
1,163,1,1,1.0,1.0,0.5828489060513675,0,3,6,1,7,0,5,nan,nan,nan,nan,nan,nan,nan,nan,nan,nan,nan,nan,0.0,nan,nan,nan,nan,nan,nan,nan,nan,nan,nan,nan,nan,nan,nan,nan,nan,nan,nan,345.5736240220722,553.0904900759924,nan,553.6733389820438,nan,nan,nan,nan
1,164,1,1,1.0,1.0,0.49470061680767685,0,4,8,5,0,3,6,nan,nan,nan,nan,nan,nan,nan,nan,nan,nan,nan,nan,0.0,nan,nan,nan,nan,nan,nan,nan,nan,nan,nan,nan,nan,nan,nan,nan,nan,nan,nan,345.5736240220722,554.0906126677291,nan,554.5853132845368,nan,nan,nan,nan
1,165,1,1,1.0,1.0,0.43051672691944987,0,3,2,7,6,1,4,nan,nan,nan,nan,nan,nan,nan,nan,nan,nan,nan,nan,0.0,nan,nan,nan,nan,nan,nan,nan,nan,nan,nan,nan,nan,nan,nan,nan,nan,nan,nan,345.5736240220722,555.0907631990267,nan,555.5212799259461,nan,nan,nan,nan
1,166,1,1,1.0,1.0,0.42238576023373753,0,6,4,0,7,2,8,nan,nan,nan,nan,nan,nan,nan,nan,nan,nan,nan,nan,0.0,nan,nan,nan,nan,nan,nan,nan,nan,nan,nan,nan,nan,nan,nan,nan,nan,nan,nan,345.5736240220722,556.0908932031598,nan,556.5132789633935,nan,nan,nan,nan
1,167,1,1,1.0,1.0,0.5182593232020736,0,2,5,7,0,4,1,nan,nan,nan,nan,nan,nan,nan,nan,nan,nan,nan,nan,0.0,nan,nan,nan,nan,nan,nan,nan,nan,nan,nan,nan,nan,nan,nan,nan,nan,nan,nan,345.5736240220722,557.091006671777,nan,557.6092659949791,nan,nan,nan,nan
1,168,1,1,1.0,1.0,0.5020749360555783,0,4,1,8,3,0,2,nan,nan,nan,nan,nan,nan,nan,nan,nan,nan,nan,nan,0.0,nan,nan,nan,nan,nan,nan,nan,nan,nan,nan,nan,nan,nan,nan,nan,nan,nan,nan,345.5736240220722,558.0911609092727,nan,558.5932358453283,nan,nan,nan,nan
1,169,1,1,1.0,1.0,0.4616584435570985,1,1,0,4,8,5,7,1.0,1.0,1.0,1.0,1.0,1.0,1.0,0.0,0.0,0.0,0.0,0.0,1.0,1.0,3.0,2.0,0.0,0.0,3.0,1.0,2.0,3.0,4.0,5.0,6.0,1.2197601877851412,2.257620785618201,3.5058156938757747,4.625469483435154,5.881361440871842,6.79260161856655,345.5736240220722,559.0995955043472,559.9080613460392,559.5612539479043,567.75900806766,568.7622088517528,560.9248048083391,567.7506766776787
1,170,1,1,nan,nan,nan,0,8,5,3,6,1,2,nan,nan,nan,nan,nan,nan,nan,nan,nan,nan,nan,nan,0.0,nan,nan,nan,nan,nan,nan,nan,nan,nan,nan,nan,nan,nan,nan,nan,nan,nan,nan,345.5736240220722,568.9674949494656,nan,nan,nan,nan,nan,nan
1,171,1,1,1.0,1.0,0.09741508238948882,0,0,3,8,7,4,5,nan,nan,nan,nan,nan,nan,nan,nan,nan,nan,nan,nan,0.0,nan,nan,nan,nan,nan,nan,nan,nan,nan,nan,nan,nan,nan,nan,nan,nan,nan,nan,345.5736240220722,569.9676044267835,nan,570.065019509173,nan,nan,nan,nan
1,172,1,1,nan,nan,nan,0,2,1,7,6,0,8,nan,nan,nan,nan,nan,nan,nan,nan,nan,nan,nan,nan,0.0,nan,nan,nan,nan,nan,nan,nan,nan,nan,nan,nan,nan,nan,nan,nan,nan,nan,nan,345.5736240220722,570.9677426987328,nan,nan,nan,nan,nan,nan
1,173,1,1,1.0,1.0,0.7770390280056745,0,0,6,5,2,3,7,nan,nan,nan,nan,nan,nan,nan,nan,nan,nan,nan,nan,0.0,nan,nan,nan,nan,nan,nan,nan,nan,nan,nan,nan,nan,nan,nan,nan,nan,nan,nan,345.5736240220722,571.9678955108393,nan,572.744934538845,nan,nan,nan,nan
1,174,1,1,1.0,1.0,0.6649009657558054,0,5,8,4,3,0,1,nan,nan,nan,nan,nan,nan,nan,nan,nan,nan,nan,nan,0.0,nan,nan,nan,nan,nan,nan,nan,nan,nan,nan,nan,nan,nan,nan,nan,nan,nan,nan,345.5736240220722,572.9680001414381,nan,573.6329011071939,nan,nan,nan,nan
1,175,1,1,1.0,1.0,0.5607892398256809,0,1,2,6,8,3,0,nan,nan,nan,nan,nan,nan,nan,nan,nan,nan,nan,nan,0.0,nan,nan,nan,nan,nan,nan,nan,nan,nan,nan,nan,nan,nan,nan,nan,nan,nan,nan,345.5736240220722,573.9681238734629,nan,574.5289131132886,nan,nan,nan,nan
1,176,1,1,1.0,1.0,0.44866400689352304,0,7,6,8,3,2,4,nan,nan,nan,nan,nan,nan,nan,nan,nan,nan,nan,nan,0.0,nan,nan,nan,nan,nan,nan,nan,nan,nan,nan,nan,nan,nan,nan,nan,nan,nan,nan,345.5736240220722,574.9682242276613,nan,575.4168882345548,nan,nan,nan,nan
1,177,1,1,1.0,1.0,0.5525008995318785,0,3,7,0,4,8,5,nan,nan,nan,nan,nan,nan,nan,nan,nan,nan,nan,nan,0.0,nan,nan,nan,nan,nan,nan,nan,nan,nan,nan,nan,nan,nan,nan,nan,nan,nan,nan,345.5736240220722,575.9683499553939,nan,576.5208508549258,nan,nan,nan,nan
1,178,1,1,1.0,1.0,0.6243151256348938,0,5,6,7,8,0,3,nan,nan,nan,nan,nan,nan,nan,nan,nan,nan,nan,nan,0.0,nan,nan,nan,nan,nan,nan,nan,nan,nan,nan,nan,nan,nan,nan,nan,nan,nan,nan,345.5736240220722,576.9685247199377,nan,577.5928398455726,nan,nan,nan,nan
1,179,1,1,1.0,1.0,0.5522089601727203,0,1,2,0,7,6,8,nan,nan,nan,nan,nan,nan,nan,nan,nan,nan,nan,nan,0.0,nan,nan,nan,nan,nan,nan,nan,nan,nan,nan,nan,nan,nan,nan,nan,nan,nan,nan,345.5736240220722,577.9686196572147,nan,578.5208286173875,nan,nan,nan,nan
1,180,1,1,1.0,1.0,0.49601776502095163,0,6,1,7,3,8,0,nan,nan,nan,nan,nan,nan,nan,nan,nan,nan,nan,nan,0.0,nan,nan,nan,nan,nan,nan,nan,nan,nan,nan,nan,nan,nan,nan,nan,nan,nan,nan,345.5736240220722,578.9687550782692,nan,579.4647728432901,nan,nan,nan,nan
1,181,1,1,1.0,1.0,0.5359205126296729,0,8,7,2,0,6,5,nan,nan,nan,nan,nan,nan,nan,nan,nan,nan,nan,nan,0.0,nan,nan,nan,nan,nan,nan,nan,nan,nan,nan,nan,nan,nan,nan,nan,nan,nan,nan,345.5736240220722,579.9688711127965,nan,580.5047916254262,nan,nan,nan,nan
1,182,1,1,1.0,1.0,0.5837481019552797,0,5,0,8,7,2,6,nan,nan,nan,nan,nan,nan,nan,nan,nan,nan,nan,nan,0.0,nan,nan,nan,nan,nan,nan,nan,nan,nan,nan,nan,nan,nan,nan,nan,nan,nan,nan,345.5736240220722,580.9690002617426,nan,581.5527483636979,nan,nan,nan,nan
1,183,0,0,0.0,1.0,0.7835894169984385,0,0,1,6,3,8,4,nan,nan,nan,nan,nan,nan,nan,nan,nan,nan,nan,nan,0.0,nan,nan,nan,nan,nan,nan,nan,nan,nan,nan,nan,nan,nan,nan,nan,nan,nan,nan,345.5736240220722,581.9691242788685,nan,582.752713695867,nan,nan,nan,nan
1,184,1,1,1.0,1.0,0.751447580056265,0,6,0,2,4,5,3,nan,nan,nan,nan,nan,nan,nan,nan,nan,nan,nan,nan,0.0,nan,nan,nan,nan,nan,nan,nan,nan,nan,nan,nan,nan,nan,nan,nan,nan,nan,nan,345.5736240220722,582.9692539980169,nan,583.7207015780732,nan,nan,nan,nan
1,185,1,1,nan,nan,nan,0,8,6,0,2,7,4,nan,nan,nan,nan,nan,nan,nan,nan,nan,nan,nan,nan,0.0,nan,nan,nan,nan,nan,nan,nan,nan,nan,nan,nan,nan,nan,nan,nan,nan,nan,nan,345.5736240220722,583.9693777301582,nan,nan,nan,nan,nan,nan
1,186,1,1,nan,nan,nan,0,4,2,8,0,5,7,nan,nan,nan,nan,nan,nan,nan,nan,nan,nan,nan,nan,0.0,nan,nan,nan,nan,nan,nan,nan,nan,nan,nan,nan,nan,nan,nan,nan,nan,nan,nan,345.5736240220722,584.969490343472,nan,nan,nan,nan,nan,nan
1,187,1,1,1.0,1.0,0.7749928868142888,0,5,4,2,6,7,8,nan,nan,nan,nan,nan,nan,nan,nan,nan,nan,nan,nan,0.0,nan,nan,nan,nan,nan,nan,nan,nan,nan,nan,nan,nan,nan,nan,nan,nan,nan,nan,345.5736240220722,585.9696212030249,nan,586.7446140898392,nan,nan,nan,nan
1,188,1,1,1.0,1.0,0.6948270287830383,0,0,5,1,2,4,6,nan,nan,nan,nan,nan,nan,nan,nan,nan,nan,nan,nan,0.0,nan,nan,nan,nan,nan,nan,nan,nan,nan,nan,nan,nan,nan,nan,nan,nan,nan,nan,345.5736240220722,586.9697634663898,nan,587.6645904951729,nan,nan,nan,nan
1,189,1,1,1.0,1.0,0.5587345456006005,0,2,7,8,3,6,5,nan,nan,nan,nan,nan,nan,nan,nan,nan,nan,nan,nan,0.0,nan,nan,nan,nan,nan,nan,nan,nan,nan,nan,nan,nan,nan,nan,nan,nan,nan,nan,345.5736240220722,587.9698763648048,nan,588.5286109104054,nan,nan,nan,nan
1,190,1,1,1.0,1.0,0.6546006960561499,0,8,3,1,4,0,2,nan,nan,nan,nan,nan,nan,nan,nan,nan,nan,nan,nan,0.0,nan,nan,nan,nan,nan,nan,nan,nan,nan,nan,nan,nan,nan,nan,nan,nan,nan,nan,345.5736240220722,588.969995535328,nan,589.6245962313842,nan,nan,nan,nan
1,191,1,1,1.0,1.0,0.5984300277195871,0,5,8,7,3,1,0,nan,nan,nan,nan,nan,nan,nan,nan,nan,nan,nan,nan,0.0,nan,nan,nan,nan,nan,nan,nan,nan,nan,nan,nan,nan,nan,nan,nan,nan,nan,nan,345.5736240220722,589.9701449262211,nan,590.5685749539407,nan,nan,nan,nan
1,192,1,1,1.0,1.0,0.510282878880389,0,0,7,2,8,3,4,nan,nan,nan,nan,nan,nan,nan,nan,nan,nan,nan,nan,0.0,nan,nan,nan,nan,nan,nan,nan,nan,nan,nan,nan,nan,nan,nan,nan,nan,nan,nan,345.5736240220722,590.9702755006729,nan,591.4805583795533,nan,nan,nan,nan
1,193,1,1,1.0,1.0,0.4541395801352337,0,4,6,3,5,1,8,nan,nan,nan,nan,nan,nan,nan,nan,nan,nan,nan,nan,0.0,nan,nan,nan,nan,nan,nan,nan,nan,nan,nan,nan,nan,nan,nan,nan,nan,nan,nan,345.5736240220722,591.9703732888447,nan,592.42451286898,nan,nan,nan,nan
1,194,1,1,1.0,1.0,0.3740424304269254,0,8,1,5,0,7,3,nan,nan,nan,nan,nan,nan,nan,nan,nan,nan,nan,nan,0.0,nan,nan,nan,nan,nan,nan,nan,nan,nan,nan,nan,nan,nan,nan,nan,nan,nan,nan,345.5736240220722,592.9704759238521,nan,593.344518354279,nan,nan,nan,nan
1,195,1,1,1.0,1.0,0.3818788919597864,0,6,0,3,8,1,2,nan,nan,nan,nan,nan,nan,nan,nan,nan,nan,nan,nan,0.0,nan,nan,nan,nan,nan,nan,nan,nan,nan,nan,nan,nan,nan,nan,nan,nan,nan,nan,345.5736240220722,593.9706207531272,nan,594.3524996450869,nan,nan,nan,nan
1,196,1,1,1.0,1.0,0.36572672077454627,0,7,4,1,2,3,5,nan,nan,nan,nan,nan,nan,nan,nan,nan,nan,nan,nan,0.0,nan,nan,nan,nan,nan,nan,nan,nan,nan,nan,nan,nan,nan,nan,nan,nan,nan,nan,345.5736240220722,594.9707248135237,nan,595.3364515342982,nan,nan,nan,nan
1,197,1,1,1.0,1.0,0.2855255107861012,0,5,6,0,3,1,2,nan,nan,nan,nan,nan,nan,nan,nan,nan,nan,nan,nan,0.0,nan,nan,nan,nan,nan,nan,nan,nan,nan,nan,nan,nan,nan,nan,nan,nan,nan,nan,345.5736240220722,595.9709272324108,nan,596.2564527431969,nan,nan,nan,nan
1,198,1,1,1.0,1.0,0.12543755257502198,0,7,4,2,6,0,3,nan,nan,nan,nan,nan,nan,nan,nan,nan,nan,nan,nan,0.0,nan,nan,nan,nan,nan,nan,nan,nan,nan,nan,nan,nan,nan,nan,nan,nan,nan,nan,345.5736240220722,596.971001357655,nan,597.0964389102301,nan,nan,nan,nan
1,199,0,0,0.0,1.0,0.6213027907069772,0,0,2,6,8,7,1,nan,nan,nan,nan,nan,nan,nan,nan,nan,nan,nan,nan,0.0,nan,nan,nan,nan,nan,nan,nan,nan,nan,nan,nan,nan,nan,nan,nan,nan,nan,nan,345.5736240220722,597.9711034223437,nan,598.5924062130507,nan,nan,nan,nan
1,200,1,1,1.0,1.0,0.5731530418852344,0,7,1,4,3,2,8,nan,nan,nan,nan,nan,nan,nan,nan,nan,nan,nan,nan,0.0,nan,nan,nan,nan,nan,nan,nan,nan,nan,nan,nan,nan,nan,nan,nan,nan,nan,nan,345.5736240220722,598.9712456857087,nan,599.544398727594,nan,nan,nan,nan
1,201,1,1,nan,nan,nan,0,1,5,0,7,3,6,nan,nan,nan,nan,nan,nan,nan,nan,nan,nan,nan,nan,0.0,nan,nan,nan,nan,nan,nan,nan,nan,nan,nan,nan,nan,nan,nan,nan,nan,nan,nan,345.5736240220722,599.9713708433555,nan,nan,nan,nan,nan,nan
1,202,1,1,1.0,1.0,0.6288159522227943,0,0,8,2,4,5,7,nan,nan,nan,nan,nan,nan,nan,nan,nan,nan,nan,nan,0.0,nan,nan,nan,nan,nan,nan,nan,nan,nan,nan,nan,nan,nan,nan,nan,nan,nan,nan,345.5736240220722,600.9714977114927,nan,601.6003136637155,nan,nan,nan,nan
1,203,1,1,1.0,1.0,0.588710215408355,0,7,3,0,6,1,8,nan,nan,nan,nan,nan,nan,nan,nan,nan,nan,nan,nan,0.0,nan,nan,nan,nan,nan,nan,nan,nan,nan,nan,nan,nan,nan,nan,nan,nan,nan,nan,345.5736240220722,601.9716205883306,nan,602.5603308037389,nan,nan,nan,nan
1,204,1,1,1.0,1.0,0.5645804597297683,0,4,2,6,1,8,5,nan,nan,nan,nan,nan,nan,nan,nan,nan,nan,nan,nan,0.0,nan,nan,nan,nan,nan,nan,nan,nan,nan,nan,nan,nan,nan,nan,nan,nan,nan,nan,345.5736240220722,602.9717272146372,nan,603.536307674367,nan,nan,nan,nan
1,205,1,1,1.0,1.0,0.5404350238386542,0,8,5,3,2,4,7,nan,nan,nan,nan,nan,nan,nan,nan,nan,nan,nan,nan,0.0,nan,nan,nan,nan,nan,nan,nan,nan,nan,nan,nan,nan,nan,nan,nan,nan,nan,nan,345.5736240220722,603.971853227471,nan,604.5122882513097,nan,nan,nan,nan
1,206,1,1,1.0,1.0,0.5482244443846866,0,3,4,5,6,8,2,nan,nan,nan,nan,nan,nan,nan,nan,nan,nan,nan,nan,0.0,nan,nan,nan,nan,nan,nan,nan,nan,nan,nan,nan,nan,nan,nan,nan,nan,nan,nan,345.5736240220722,604.9720282769995,nan,605.5202527213842,nan,nan,nan,nan
1,207,0,0,0.0,1.0,0.7161052441224456,0,7,5,2,1,6,3,nan,nan,nan,nan,nan,nan,nan,nan,nan,nan,nan,nan,0.0,nan,nan,nan,nan,nan,nan,nan,nan,nan,nan,nan,nan,nan,nan,nan,nan,nan,nan,345.5736240220722,605.9721240696963,nan,606.6882293138187,nan,nan,nan,nan
1,208,1,1,nan,nan,nan,0,5,6,1,2,4,7,nan,nan,nan,nan,nan,nan,nan,nan,nan,nan,nan,nan,0.0,nan,nan,nan,nan,nan,nan,nan,nan,nan,nan,nan,nan,nan,nan,nan,nan,nan,nan,345.5736240220722,606.9722506527323,nan,nan,nan,nan,nan,nan
1,209,1,1,1.0,1.0,0.22780591051559895,0,0,1,5,6,2,8,nan,nan,nan,nan,nan,nan,nan,nan,nan,nan,nan,nan,0.0,nan,nan,nan,nan,nan,nan,nan,nan,nan,nan,nan,nan,nan,nan,nan,nan,nan,nan,345.5736240220722,607.9723618405405,nan,608.2001677510561,nan,nan,nan,nan
1,210,0,0,0.0,1.0,0.7396876134444028,0,5,7,3,2,0,4,nan,nan,nan,nan,nan,nan,nan,nan,nan,nan,nan,nan,0.0,nan,nan,nan,nan,nan,nan,nan,nan,nan,nan,nan,nan,nan,nan,nan,nan,nan,nan,345.5736240220722,608.9724761644611,nan,609.7121637779055,nan,nan,nan,nan
1,211,1,1,1.0,1.0,0.6835380424745381,0,7,3,1,8,4,6,nan,nan,nan,nan,nan,nan,nan,nan,nan,nan,nan,nan,0.0,nan,nan,nan,nan,nan,nan,nan,nan,nan,nan,nan,nan,nan,nan,nan,nan,nan,nan,345.5736240220722,609.9726073091151,nan,610.6561453515897,nan,nan,nan,nan
1,212,1,1,1.0,1.0,0.659414844121784,0,6,8,3,4,2,1,nan,nan,nan,nan,nan,nan,nan,nan,nan,nan,nan,nan,0.0,nan,nan,nan,nan,nan,nan,nan,nan,nan,nan,nan,nan,nan,nan,nan,nan,nan,nan,345.5736240220722,610.9727307560388,nan,611.6321456001606,nan,nan,nan,nan
1,213,1,1,1.0,1.0,0.683270336361602,0,3,7,4,2,5,0,nan,nan,nan,nan,nan,nan,nan,nan,nan,nan,nan,nan,0.0,nan,nan,nan,nan,nan,nan,nan,nan,nan,nan,nan,nan,nan,nan,nan,nan,nan,nan,345.5736240220722,611.9728496415773,nan,612.6561199779389,nan,nan,nan,nan
1,214,1,1,1.0,1.0,0.6350701253395528,0,1,8,0,5,3,7,nan,nan,nan,nan,nan,nan,nan,nan,nan,nan,nan,nan,0.0,nan,nan,nan,nan,nan,nan,nan,nan,nan,nan,nan,nan,nan,nan,nan,nan,nan,nan,345.5736240220722,612.9730055895634,nan,613.608075714903,nan,nan,nan,nan
1,215,1,1,1.0,1.0,0.6829339219257236,0,3,5,6,4,8,2,nan,nan,nan,nan,nan,nan,nan,nan,nan,nan,nan,nan,0.0,nan,nan,nan,nan,nan,nan,nan,nan,nan,nan,nan,nan,nan,nan,nan,nan,nan,nan,345.5736240220722,613.9731259004911,nan,614.6560598224169,nan,nan,nan,nan
1,216,1,1,1.0,1.0,0.658808157662861,0,5,0,4,1,7,8,nan,nan,nan,nan,nan,nan,nan,nan,nan,nan,nan,nan,0.0,nan,nan,nan,nan,nan,nan,nan,nan,nan,nan,nan,nan,nan,nan,nan,nan,nan,nan,345.5736240220722,614.9732539090328,nan,615.6320620666957,nan,nan,nan,nan
1,217,1,1,1.0,1.0,0.6986701363930479,0,2,4,5,6,8,7,nan,nan,nan,nan,nan,nan,nan,nan,nan,nan,nan,nan,0.0,nan,nan,nan,nan,nan,nan,nan,nan,nan,nan,nan,nan,nan,nan,nan,nan,nan,nan,345.5736240220722,615.9733745051781,nan,616.6720446415711,nan,nan,nan,nan
1,218,1,1,1.0,1.0,0.682513688923791,0,0,7,6,8,1,5,nan,nan,nan,nan,nan,nan,nan,nan,nan,nan,nan,nan,0.0,nan,nan,nan,nan,nan,nan,nan,nan,nan,nan,nan,nan,nan,nan,nan,nan,nan,nan,345.5736240220722,616.9734976670006,nan,617.6560113559244,nan,nan,nan,nan
1,219,1,1,1.0,1.0,0.5303531382232904,0,8,1,0,2,5,3,nan,nan,nan,nan,nan,nan,nan,nan,nan,nan,nan,nan,0.0,nan,nan,nan,nan,nan,nan,nan,nan,nan,nan,nan,nan,nan,nan,nan,nan,nan,nan,345.5736240220722,617.9736282414524,nan,618.5039813796757,nan,nan,nan,nan
1,220,0,0,0.0,1.0,0.6019261723849922,0,2,6,4,3,1,7,nan,nan,nan,nan,nan,nan,nan,nan,nan,nan,nan,nan,0.0,nan,nan,nan,nan,nan,nan,nan,nan,nan,nan,nan,nan,nan,nan,nan,nan,nan,nan,345.5736240220722,618.9820468710968,nan,619.5839730434818,nan,nan,nan,nan
1,221,1,1,nan,nan,nan,0,3,5,6,0,4,8,nan,nan,nan,nan,nan,nan,nan,nan,nan,nan,nan,nan,0.0,nan,nan,nan,nan,nan,nan,nan,nan,nan,nan,nan,nan,nan,nan,nan,nan,nan,nan,345.5736240220722,619.9822105166968,nan,nan,nan,nan,nan,nan
1,222,1,1,nan,nan,nan,0,7,3,4,1,2,6,nan,nan,nan,nan,nan,nan,nan,nan,nan,nan,nan,nan,0.0,nan,nan,nan,nan,nan,nan,nan,nan,nan,nan,nan,nan,nan,nan,nan,nan,nan,nan,345.5736240220722,620.9823328233324,nan,nan,nan,nan,nan,nan
1,223,1,1,nan,nan,nan,0,0,2,1,5,3,4,nan,nan,nan,nan,nan,nan,nan,nan,nan,nan,nan,nan,0.0,nan,nan,nan,nan,nan,nan,nan,nan,nan,nan,nan,nan,nan,nan,nan,nan,nan,nan,345.5736240220722,621.9824594064848,nan,nan,nan,nan,nan,nan
1,224,1,1,nan,nan,nan,1,1,0,6,3,7,8,1.0,1.0,1.0,1.0,1.0,1.0,0.0,0.0,1.0,1.0,0.0,0.0,2.0,0.0,7.0,6.0,3.0,4.0,2.0,3.0,2.0,1.0,6.0,5.0,4.0,3.0445036431774497,2.1334636035608128,0.9429426800925285,6.468257013708353,5.028628871543333,4.068959264666773,345.5736240220722,622.982565747574,623.7909885396948,nan,631.316939780023,632.3153706061421,624.8077810386894,631.3086075348547
1,225,1,1,0.0,0.0,0.5306302525568753,0,5,6,8,2,3,0,nan,nan,nan,nan,nan,nan,nan,nan,nan,nan,nan,nan,0.0,nan,nan,nan,nan,nan,nan,nan,nan,nan,nan,nan,nan,nan,nan,nan,nan,nan,nan,345.5736240220722,632.5170972676715,nan,633.0477275202284,nan,nan,nan,nan
1,226,1,1,1.0,1.0,0.6024413427803665,0,8,0,3,1,5,7,nan,nan,nan,nan,nan,nan,nan,nan,nan,nan,nan,nan,0.0,nan,nan,nan,nan,nan,nan,nan,nan,nan,nan,nan,nan,nan,nan,nan,nan,nan,nan,345.5736240220722,633.5172398161376,nan,634.119681158918,nan,nan,nan,nan
1,227,0,0,0.0,1.0,0.6582941277883947,0,2,5,4,7,8,1,nan,nan,nan,nan,nan,nan,nan,nan,nan,nan,nan,nan,0.0,nan,nan,nan,nan,nan,nan,nan,nan,nan,nan,nan,nan,nan,nan,nan,nan,nan,nan,345.5736240220722,634.5173635482788,nan,635.1756576760672,nan,nan,nan,nan
1,228,1,1,1.0,1.0,0.6341389984590933,0,1,7,0,4,3,8,nan,nan,nan,nan,nan,nan,nan,nan,nan,nan,nan,nan,0.0,nan,nan,nan,nan,nan,nan,nan,nan,nan,nan,nan,nan,nan,nan,nan,nan,nan,nan,345.5736240220722,635.5174946929328,nan,636.1516336913919,nan,nan,nan,nan
1,229,1,1,1.0,1.0,0.6659926023567095,0,2,5,1,3,7,6,nan,nan,nan,nan,nan,nan,nan,nan,nan,nan,nan,nan,0.0,nan,nan,nan,nan,nan,nan,nan,nan,nan,nan,nan,nan,nan,nan,nan,nan,nan,nan,345.5736240220722,636.5176201355644,nan,637.1836127379211,nan,nan,nan,nan
1,230,1,1,1.0,1.0,0.569832231849432,0,6,8,4,1,2,7,nan,nan,nan,nan,nan,nan,nan,nan,nan,nan,nan,nan,0.0,nan,nan,nan,nan,nan,nan,nan,nan,nan,nan,nan,nan,nan,nan,nan,nan,nan,nan,345.5736240220722,637.5177404464921,nan,638.0875726783415,nan,nan,nan,nan
1,231,1,1,1.0,1.0,0.5613314942456782,0,7,2,0,6,3,8,nan,nan,nan,nan,nan,nan,nan,nan,nan,nan,nan,nan,0.0,nan,nan,nan,nan,nan,nan,nan,nan,nan,nan,nan,nan,nan,nan,nan,nan,nan,nan,345.5736240220722,638.5262542985147,nan,639.0875857927604,nan,nan,nan,nan
1,232,1,1,1.0,1.0,0.50521927094087,0,4,7,1,8,5,0,nan,nan,nan,nan,nan,nan,nan,nan,nan,nan,nan,nan,0.0,nan,nan,nan,nan,nan,nan,nan,nan,nan,nan,nan,nan,nan,nan,nan,nan,nan,nan,345.5736240220722,639.5263349809684,nan,640.0315542519093,nan,nan,nan,nan
1,233,1,1,1.0,1.0,0.5050804286729544,0,8,3,2,4,0,6,nan,nan,nan,nan,nan,nan,nan,nan,nan,nan,nan,nan,0.0,nan,nan,nan,nan,nan,nan,nan,nan,nan,nan,nan,nan,nan,nan,nan,nan,nan,nan,345.5736240220722,640.5264504452934,nan,641.0315308739664,nan,nan,nan,nan
1,234,1,1,1.0,1.0,0.4329132523853332,1,1,6,3,0,8,4,1.0,1.0,1.0,1.0,1.0,1.0,1.0,1.0,1.0,1.0,0.0,0.0,4.0,1.0,6.0,3.0,0.0,5.0,7.0,1.0,2.0,3.0,4.0,5.0,6.0,1.109319022973068,1.9168725542258471,2.859594569192268,3.6207987391389906,4.708225447800942,7.0993129732087255,345.5736240220722,641.5265764581272,642.3349892718252,641.9594897105126,650.5026750651887,651.5029541752301,643.3600997611647,650.4943422498181
1,235,1,1,nan,nan,nan,0,7,4,0,8,5,3,nan,nan,nan,nan,nan,nan,nan,nan,nan,nan,nan,nan,0.0,nan,nan,nan,nan,nan,nan,nan,nan,nan,nan,nan,nan,nan,nan,nan,nan,nan,nan,345.5736240220722,651.7028721813112,nan,nan,nan,nan,nan,nan
1,236,1,1,1.0,1.0,0.23232156212907284,0,2,3,4,0,1,5,nan,nan,nan,nan,nan,nan,nan,nan,nan,nan,nan,nan,0.0,nan,nan,nan,nan,nan,nan,nan,nan,nan,nan,nan,nan,nan,nan,nan,nan,nan,nan,345.5736240220722,652.7029736757977,nan,652.9352952379268,nan,nan,nan,nan
1,237,1,1,1.0,1.0,0.7281032666796818,0,7,2,5,8,3,6,nan,nan,nan,nan,nan,nan,nan,nan,nan,nan,nan,nan,0.0,nan,nan,nan,nan,nan,nan,nan,nan,nan,nan,nan,nan,nan,nan,nan,nan,nan,nan,345.5736240220722,653.7030951271299,nan,654.4311983938096,nan,nan,nan,nan
1,238,1,1,1.0,1.0,0.5359994844766334,0,3,4,2,0,6,1,nan,nan,nan,nan,nan,nan,nan,nan,nan,nan,nan,nan,0.0,nan,nan,nan,nan,nan,nan,nan,nan,nan,nan,nan,nan,nan,nan,nan,nan,nan,nan,345.5736240220722,654.7032274121884,nan,655.2392268966651,nan,nan,nan,nan
1,239,1,1,1.0,1.0,0.4078746074810624,0,4,6,7,2,5,8,nan,nan,nan,nan,nan,nan,nan,nan,nan,nan,nan,nan,0.0,nan,nan,nan,nan,nan,nan,nan,nan,nan,nan,nan,nan,nan,nan,nan,nan,nan,nan,345.5736240220722,655.7033491486218,nan,656.1112237561028,nan,nan,nan,nan
1,240,1,1,1.0,1.0,0.43172981473617256,0,0,3,4,5,8,1,nan,nan,nan,nan,nan,nan,nan,nan,nan,nan,nan,nan,0.0,nan,nan,nan,nan,nan,nan,nan,nan,nan,nan,nan,nan,nan,nan,nan,nan,nan,nan,345.5736240220722,656.70347373595,nan,657.1352035506861,nan,nan,nan,nan
1,241,0,0,0.0,1.0,0.7435680689522997,0,5,8,2,3,4,0,nan,nan,nan,nan,nan,nan,nan,nan,nan,nan,nan,nan,0.0,nan,nan,nan,nan,nan,nan,nan,nan,nan,nan,nan,nan,nan,nan,nan,nan,nan,nan,345.5736240220722,657.7036023146939,nan,658.4471703836462,nan,nan,nan,nan
1,242,1,1,1.0,1.0,0.6714271215023473,1,3,1,5,0,6,2,1.0,1.0,1.0,1.0,1.0,1.0,0.0,0.0,0.0,0.0,0.0,0.0,0.0,0.0,5.0,0.0,3.0,3.0,1.0,1.0,2.0,3.0,4.0,5.0,6.0,1.3328479081392288,2.491267193458043,3.6671461048536003,4.779154162737541,5.738952918443829,6.8742645209422335,345.5736240220722,658.703720344929,659.5121357244207,659.3751474664314,667.4464641984086,668.4442527008941,660.5289350657258,667.438110570889
1,243,1,1,1.0,1.0,0.6483031881507486,0,7,5,3,2,8,4,nan,nan,nan,nan,nan,nan,nan,nan,nan,nan,nan,nan,0.0,nan,nan,nan,nan,nan,nan,nan,nan,nan,nan,nan,nan,nan,nan,nan,nan,nan,nan,345.5736240220722,668.6466456340859,nan,669.2949488222366,nan,nan,nan,nan
1,244,1,1,nan,nan,nan,0,5,0,6,7,4,8,nan,nan,nan,nan,nan,nan,nan,nan,nan,nan,nan,nan,0.0,nan,nan,nan,nan,nan,nan,nan,nan,nan,nan,nan,nan,nan,nan,nan,nan,nan,nan,345.5736240220722,669.6467439925764,nan,nan,nan,nan,nan,nan
1,245,1,1,1.0,1.0,0.6720201233401895,0,0,1,7,8,5,3,nan,nan,nan,nan,nan,nan,nan,nan,nan,nan,nan,nan,0.0,nan,nan,nan,nan,nan,nan,nan,nan,nan,nan,nan,nan,nan,nan,nan,nan,nan,nan,345.5736240220722,670.6468614524929,nan,671.3188815758331,nan,nan,nan,nan
1,246,1,1,1.0,1.0,0.5838900802191347,1,8,0,5,6,7,4,1.0,1.0,1.0,1.0,1.0,1.0,1.0,0.0,0.0,0.0,0.0,0.0,1.0,8.0,3.0,2.0,0.0,1.0,6.0,1.0,2.0,3.0,4.0,5.0,6.0,1.3482246154453605,2.9807690663728863,4.028912257985212,4.859735977370292,5.643859951291233,6.771336802863516,345.5736240220722,671.6469968736637,672.4554028449347,672.2308869538829,680.2730796007672,681.2827959919814,673.4638705111574,680.264689765987
1,247,1,1,1.0,1.0,0.5731296638259664,0,1,5,8,7,2,6,nan,nan,nan,nan,nan,nan,nan,nan,nan,nan,nan,nan,0.0,nan,nan,nan,nan,nan,nan,nan,nan,nan,nan,nan,nan,nan,nan,nan,nan,nan,nan,345.5736240220722,681.4815681931796,nan,682.0546978570055,nan,nan,nan,nan
1,248,1,1,1.0,1.0,0.676964845857583,0,6,3,7,1,5,2,nan,nan,nan,nan,nan,nan,nan,nan,nan,nan,nan,nan,0.0,nan,nan,nan,nan,nan,nan,nan,nan,nan,nan,nan,nan,nan,nan,nan,nan,nan,nan,345.5736240220722,682.4816808064934,nan,683.158645652351,nan,nan,nan,nan
1,249,1,1,1.0,1.0,0.7488098625326529,0,1,6,2,8,3,0,nan,nan,nan,nan,nan,nan,nan,nan,nan,nan,nan,nan,0.0,nan,nan,nan,nan,nan,nan,nan,nan,nan,nan,nan,nan,nan,nan,nan,nan,nan,nan,345.5736240220722,683.4818247804651,nan,684.2306346429978,nan,nan,nan,nan
1,250,1,1,1.0,1.0,0.7806369523750618,0,2,1,0,5,7,4,nan,nan,nan,nan,nan,nan,nan,nan,nan,nan,nan,nan,0.0,nan,nan,nan,nan,nan,nan,nan,nan,nan,nan,nan,nan,nan,nan,nan,nan,nan,nan,345.5736240220722,684.4819473722018,nan,685.2625843245769,nan,nan,nan,nan
1,251,1,1,1.0,1.0,0.7084922987269238,0,3,2,1,7,6,8,nan,nan,nan,nan,nan,nan,nan,nan,nan,nan,nan,nan,0.0,nan,nan,nan,nan,nan,nan,nan,nan,nan,nan,nan,nan,nan,nan,nan,nan,nan,nan,345.5736240220722,685.4820776615525,nan,686.1905699602794,nan,nan,nan,nan
1,252,1,1,1.0,1.0,0.6844050225336105,0,2,7,0,1,3,5,nan,nan,nan,nan,nan,nan,nan,nan,nan,nan,nan,nan,0.0,nan,nan,nan,nan,nan,nan,nan,nan,nan,nan,nan,nan,nan,nan,nan,nan,nan,nan,345.5736240220722,686.482207665802,nan,687.1666126883356,nan,nan,nan,nan
1,253,0,0,0.0,1.0,0.724230223800987,0,7,6,5,2,0,3,nan,nan,nan,nan,nan,nan,nan,nan,nan,nan,nan,nan,0.0,nan,nan,nan,nan,nan,nan,nan,nan,nan,nan,nan,nan,nan,nan,nan,nan,nan,nan,345.5736240220722,687.4823276916286,nan,688.2065579154296,nan,nan,nan,nan
1,254,1,1,nan,nan,nan,0,0,3,1,8,6,7,nan,nan,nan,nan,nan,nan,nan,nan,nan,nan,nan,nan,0.0,nan,nan,nan,nan,nan,nan,nan,nan,nan,nan,nan,nan,nan,nan,nan,nan,nan,nan,345.5736240220722,688.4824425857514,nan,nan,nan,nan,nan,nan
1,255,1,1,1.0,1.0,0.5319456901634112,0,2,6,5,0,8,3,nan,nan,nan,nan,nan,nan,nan,nan,nan,nan,nan,nan,0.0,nan,nan,nan,nan,nan,nan,nan,nan,nan,nan,nan,nan,nan,nan,nan,nan,nan,nan,345.5736240220722,689.4826028102543,nan,690.0145485004177,nan,nan,nan,nan
1,256,1,1,1.0,1.0,0.011783344554714859,0,5,7,3,6,0,1,nan,nan,nan,nan,nan,nan,nan,nan,nan,nan,nan,nan,0.0,nan,nan,nan,nan,nan,nan,nan,nan,nan,nan,nan,nan,nan,nan,nan,nan,nan,nan,345.5736240220722,690.4827028792351,nan,690.4944862237899,nan,nan,nan,nan
1,257,1,1,1.0,1.0,0.7236149844247848,0,0,8,4,3,1,7,nan,nan,nan,nan,nan,nan,nan,nan,nan,nan,nan,nan,0.0,nan,nan,nan,nan,nan,nan,nan,nan,nan,nan,nan,nan,nan,nan,nan,nan,nan,nan,345.5736240220722,691.4828209094703,nan,692.2064358938951,nan,nan,nan,nan
1,258,1,1,1.0,1.0,0.6994952072855085,0,4,1,6,0,2,3,nan,nan,nan,nan,nan,nan,nan,nan,nan,nan,nan,nan,0.0,nan,nan,nan,nan,nan,nan,nan,nan,nan,nan,nan,nan,nan,nan,nan,nan,nan,nan,345.5736240220722,692.4829483478097,nan,693.1824435550952,nan,nan,nan,nan
1,259,1,1,1.0,1.0,0.7873509869677946,0,7,8,1,6,5,0,nan,nan,nan,nan,nan,nan,nan,nan,nan,nan,nan,nan,0.0,nan,nan,nan,nan,nan,nan,nan,nan,nan,nan,nan,nan,nan,nan,nan,nan,nan,nan,345.5736240220722,693.4830740755424,nan,694.2704250625102,nan,nan,nan,nan
1,260,1,1,1.0,1.0,0.6991804601857439,1,6,0,2,3,8,4,1.0,1.0,1.0,1.0,1.0,1.0,1.0,0.0,0.0,0.0,0.0,0.0,1.0,6.0,3.0,7.0,2.0,4.0,0.0,1.0,3.0,4.0,5.0,6.0,2.0,0.8169919528299943,3.470402653911151,5.151671894360334,6.062506093876436,7.454507070127875,2.37531966494862,345.5736240220722,694.4831989480881,695.2916163232876,695.1823794082738,703.7926552167628,704.7915615846869,696.3001056569628,703.7843243971001
1,261,1,1,1.0,1.0,0.5093899552011862,0,3,5,6,1,0,2,nan,nan,nan,nan,nan,nan,nan,nan,nan,nan,nan,nan,0.0,nan,nan,nan,nan,nan,nan,nan,nan,nan,nan,nan,nan,nan,nan,nan,nan,nan,nan,345.5736240220722,704.9928457755595,nan,705.5022357307607,nan,nan,nan,nan
1,262,1,1,1.0,1.0,0.40518956386949867,0,1,2,8,7,6,0,nan,nan,nan,nan,nan,nan,nan,nan,nan,nan,nan,nan,0.0,nan,nan,nan,nan,nan,nan,nan,nan,nan,nan,nan,nan,nan,nan,nan,nan,nan,nan,345.5736240220722,705.992972358712,nan,706.3981619225815,nan,nan,nan,nan
1,263,1,1,1.0,1.0,0.3810777693288401,0,4,3,0,6,5,1,nan,nan,nan,nan,nan,nan,nan,nan,nan,nan,nan,nan,0.0,nan,nan,nan,nan,nan,nan,nan,nan,nan,nan,nan,nan,nan,nan,nan,nan,nan,nan,345.5736240220722,706.9930918143364,nan,707.3741695836652,nan,nan,nan,nan
1,264,1,1,1.0,1.0,0.284894305979833,0,3,1,6,7,4,0,nan,nan,nan,nan,nan,nan,nan,nan,nan,nan,nan,nan,0.0,nan,nan,nan,nan,nan,nan,nan,nan,nan,nan,nan,nan,nan,nan,nan,nan,nan,nan,345.5736240220722,707.9932292310987,nan,708.2781235370785,nan,nan,nan,nan
1,265,1,1,1.0,1.0,0.2847543233074248,0,4,0,7,1,6,2,nan,nan,nan,nan,nan,nan,nan,nan,nan,nan,nan,nan,0.0,nan,nan,nan,nan,nan,nan,nan,nan,nan,nan,nan,nan,nan,nan,nan,nan,nan,nan,345.5736240220722,708.9933774815872,nan,709.2781318048947,nan,nan,nan,nan
1,266,1,1,1.0,1.0,0.2846565351355821,0,0,7,1,3,8,5,nan,nan,nan,nan,nan,nan,nan,nan,nan,nan,nan,nan,0.0,nan,nan,nan,nan,nan,nan,nan,nan,nan,nan,nan,nan,nan,nan,nan,nan,nan,nan,345.5736240220722,709.9934541726252,nan,710.2781107077608,nan,nan,nan,nan
1,267,1,1,1.0,1.0,0.26047717256005853,0,7,8,6,1,3,0,nan,nan,nan,nan,nan,nan,nan,nan,nan,nan,nan,nan,0.0,nan,nan,nan,nan,nan,nan,nan,nan,nan,nan,nan,nan,nan,nan,nan,nan,nan,nan,345.5736240220722,710.9936004274059,nan,711.254077599966,nan,nan,nan,nan
1,268,1,1,1.0,1.0,0.27631801774259657,0,0,4,2,5,6,3,nan,nan,nan,nan,nan,nan,nan,nan,nan,nan,nan,nan,0.0,nan,nan,nan,nan,nan,nan,nan,nan,nan,nan,nan,nan,nan,nan,nan,nan,nan,nan,345.5736240220722,711.9937515287893,nan,712.2700695465319,nan,nan,nan,nan
1,269,1,1,1.0,1.0,0.2522076485911384,0,4,7,1,6,8,2,nan,nan,nan,nan,nan,nan,nan,nan,nan,nan,nan,nan,0.0,nan,nan,nan,nan,nan,nan,nan,nan,nan,nan,nan,nan,nan,nan,nan,nan,nan,nan,345.5736240220722,712.9938136800192,nan,713.2460213286104,nan,nan,nan,nan
1,270,1,1,1.0,1.0,0.22806135739665478,0,6,5,3,8,7,4,nan,nan,nan,nan,nan,nan,nan,nan,nan,nan,nan,nan,0.0,nan,nan,nan,nan,nan,nan,nan,nan,nan,nan,nan,nan,nan,nan,nan,nan,nan,nan,345.5736240220722,713.9939582241932,nan,714.2220195815898,nan,nan,nan,nan
1,271,0,0,0.0,1.0,0.5878874254412949,0,1,0,7,4,8,5,nan,nan,nan,nan,nan,nan,nan,nan,nan,nan,nan,nan,0.0,nan,nan,nan,nan,nan,nan,nan,nan,nan,nan,nan,nan,nan,nan,nan,nan,nan,nan,345.5736240220722,714.9941252910066,nan,715.5820127164479,nan,nan,nan,nan
1,272,1,1,1.0,1.0,0.5797598799690604,0,7,2,0,6,3,1,nan,nan,nan,nan,nan,nan,nan,nan,nan,nan,nan,nan,0.0,nan,nan,nan,nan,nan,nan,nan,nan,nan,nan,nan,nan,nan,nan,nan,nan,nan,nan,345.5736240220722,715.994234483107,nan,716.573994363076,nan,nan,nan,nan
1,273,1,1,1.0,1.0,0.5956312305061147,0,0,5,2,1,8,4,nan,nan,nan,nan,nan,nan,nan,nan,nan,nan,nan,nan,0.0,nan,nan,nan,nan,nan,nan,nan,nan,nan,nan,nan,nan,nan,nan,nan,nan,nan,nan,345.5736240220722,716.9943490921287,nan,717.5899803226348,nan,nan,nan,nan
1,274,1,1,1.0,1.0,0.6994507320923731,0,1,4,0,2,5,7,nan,nan,nan,nan,nan,nan,nan,nan,nan,nan,nan,nan,0.0,nan,nan,nan,nan,nan,nan,nan,nan,nan,nan,nan,nan,nan,nan,nan,nan,nan,nan,345.5736240220722,717.9944611352403,nan,718.6939118673326,nan,nan,nan,nan
1,275,1,1,1.0,1.0,0.7633292829850689,0,8,0,6,3,7,2,nan,nan,nan,nan,nan,nan,nan,nan,nan,nan,nan,nan,0.0,nan,nan,nan,nan,nan,nan,nan,nan,nan,nan,nan,nan,nan,nan,nan,nan,nan,nan,345.5736240220722,718.9946016881149,nan,719.7579309711,nan,nan,nan,nan
1,276,0,0,1.0,0.0,0.6911686640232801,0,6,2,5,7,3,1,nan,nan,nan,nan,nan,nan,nan,nan,nan,nan,nan,nan,0.0,nan,nan,nan,nan,nan,nan,nan,nan,nan,nan,nan,nan,nan,nan,nan,nan,nan,nan,345.5736240220722,719.9947131610243,nan,720.6858818250475,nan,nan,nan,nan
1,277,1,1,1.0,1.0,0.6990667063510045,0,1,7,3,4,6,5,nan,nan,nan,nan,nan,nan,nan,nan,nan,nan,nan,nan,0.0,nan,nan,nan,nan,nan,nan,nan,nan,nan,nan,nan,nan,nan,nan,nan,nan,nan,nan,345.5736240220722,720.9948138003238,nan,721.6938805066748,nan,nan,nan,nan
1,278,1,1,1.0,1.0,0.6828238745220006,0,6,3,1,7,0,8,nan,nan,nan,nan,nan,nan,nan,nan,nan,nan,nan,nan,0.0,nan,nan,nan,nan,nan,nan,nan,nan,nan,nan,nan,nan,nan,nan,nan,nan,nan,nan,345.5736240220722,721.9950028195744,nan,722.6778266940964,nan,nan,nan,nan
1,279,1,1,1.0,1.0,0.7067489303881302,0,0,4,2,3,7,6,nan,nan,nan,nan,nan,nan,nan,nan,nan,nan,nan,nan,0.0,nan,nan,nan,nan,nan,nan,nan,nan,nan,nan,nan,nan,nan,nan,nan,nan,nan,nan,345.5736240220722,722.9950963314623,nan,723.7018452618504,nan,nan,nan,nan
1,280,1,1,nan,nan,nan,0,1,6,3,2,4,0,nan,nan,nan,nan,nan,nan,nan,nan,nan,nan,nan,nan,0.0,nan,nan,nan,nan,nan,nan,nan,nan,nan,nan,nan,nan,nan,nan,nan,nan,nan,nan,345.5736240220722,723.9952234847005,nan,nan,nan,nan,nan,nan
1,281,1,1,nan,nan,nan,0,4,5,8,6,1,2,nan,nan,nan,nan,nan,nan,nan,nan,nan,nan,nan,nan,0.0,nan,nan,nan,nan,nan,nan,nan,nan,nan,nan,nan,nan,nan,nan,nan,nan,nan,nan,345.5736240220722,724.9953018863453,nan,nan,nan,nan,nan,nan
1,282,1,1,nan,nan,nan,1,0,1,7,3,6,4,1.0,1.0,1.0,1.0,1.0,1.0,0.0,0.0,0.0,0.0,0.0,0.0,0.0,4.0,6.0,3.0,0.0,1.0,2.0,1.0,2.0,3.0,4.0,5.0,6.0,0.8950116005726159,1.7894795212196186,2.447450633975677,3.1746002512518317,3.8942649315577,4.8779263069154695,345.5736240220722,725.9954726594733,726.8038965918822,nan,732.7296111447504,733.7289568471024,727.8123383143684,732.7212817504769
1,283,1,1,1.0,1.0,0.6758045010501519,0,8,0,5,2,1,3,nan,nan,nan,nan,nan,nan,nan,nan,nan,nan,nan,nan,0.0,nan,nan,nan,nan,nan,nan,nan,nan,nan,nan,nan,nan,nan,nan,nan,nan,nan,nan,345.5736240220722,733.9297857381171,nan,734.6055902391672,nan,nan,nan,nan
1,284,1,1,1.0,1.0,0.5636211083037779,0,2,1,3,5,8,0,nan,nan,nan,nan,nan,nan,nan,nan,nan,nan,nan,nan,0.0,nan,nan,nan,nan,nan,nan,nan,nan,nan,nan,nan,nan,nan,nan,nan,nan,nan,nan,345.5736240220722,734.9299525199458,nan,735.4935736282496,nan,nan,nan,nan
1,285,0,0,0.0,1.0,0.5715048959245905,0,8,3,0,6,4,5,nan,nan,nan,nan,nan,nan,nan,nan,nan,nan,nan,nan,0.0,nan,nan,nan,nan,nan,nan,nan,nan,nan,nan,nan,nan,nan,nan,nan,nan,nan,nan,345.5736240220722,735.9300560101401,nan,736.5015609060647,nan,nan,nan,nan
1,286,1,1,1.0,1.0,0.5473660172428936,0,5,0,6,2,7,8,nan,nan,nan,nan,nan,nan,nan,nan,nan,nan,nan,nan,0.0,nan,nan,nan,nan,nan,nan,nan,nan,nan,nan,nan,nan,nan,nan,nan,nan,nan,nan,345.5736240220722,736.930182308075,nan,737.4775483253179,nan,nan,nan,nan
1,287,1,1,1.0,1.0,0.5312369390157983,0,0,2,5,7,8,4,nan,nan,nan,nan,nan,nan,nan,nan,nan,nan,nan,nan,0.0,nan,nan,nan,nan,nan,nan,nan,nan,nan,nan,nan,nan,nan,nan,nan,nan,nan,nan,345.5736240220722,737.930303189205,nan,738.4615401282208,nan,nan,nan,nan
1,288,1,1,1.0,1.0,0.5630731519777328,0,8,4,1,3,7,2,nan,nan,nan,nan,nan,nan,nan,nan,nan,nan,nan,nan,0.0,nan,nan,nan,nan,nan,nan,nan,nan,nan,nan,nan,nan,nan,nan,nan,nan,nan,nan,345.5736240220722,738.9304237852339,nan,739.4934969372116,nan,nan,nan,nan
1,289,1,1,1.0,1.0,0.602957938448526,1,5,6,4,0,3,8,1.0,1.0,1.0,1.0,1.0,1.0,1.0,0.0,0.0,0.0,0.0,0.0,1.0,5.0,0.0,5.0,3.0,6.0,1.0,1.0,2.0,3.0,4.0,5.0,6.0,0.8637843548785895,1.9347370179602876,2.9358842483488843,3.782257728744298,4.909852040349506,5.861842274083756,345.5736240220722,739.9305409601657,740.7389757263009,740.5334988986142,747.6565188285895,748.6578670523595,741.755783050321,747.648222505697
1,290,1,1,1.0,1.0,0.7242675715824589,0,7,1,6,4,5,0,nan,nan,nan,nan,nan,nan,nan,nan,nan,nan,nan,nan,0.0,nan,nan,nan,nan,nan,nan,nan,nan,nan,nan,nan,nan,nan,nan,nan,nan,nan,nan,345.5736240220722,748.8650590236066,nan,749.589326595189,nan,nan,nan,nan
1,291,1,1,1.0,1.0,0.7481718154158443,0,5,4,3,6,7,1,nan,nan,nan,nan,nan,nan,nan,nan,nan,nan,nan,nan,0.0,nan,nan,nan,nan,nan,nan,nan,nan,nan,nan,nan,nan,nan,nan,nan,nan,nan,nan,345.5736240220722,749.8651157579152,nan,750.613287573331,nan,nan,nan,nan
1,292,1,1,1.0,1.0,0.7080147612141445,0,8,2,7,5,1,3,nan,nan,nan,nan,nan,nan,nan,nan,nan,nan,nan,nan,0.0,nan,nan,nan,nan,nan,nan,nan,nan,nan,nan,nan,nan,nan,nan,nan,nan,nan,nan,345.5736240220722,750.8652374943485,nan,751.5732522555627,nan,nan,nan,nan
1,293,1,1,1.0,1.0,0.6518728877417743,0,4,0,2,8,7,1,nan,nan,nan,nan,nan,nan,nan,nan,nan,nan,nan,nan,0.0,nan,nan,nan,nan,nan,nan,nan,nan,nan,nan,nan,nan,nan,nan,nan,nan,nan,nan,345.5736240220722,751.8653612264898,nan,752.5172341142315,nan,nan,nan,nan
1,294,1,1,1.0,1.0,0.6436857569497079,1,0,1,3,6,8,7,1.0,1.0,1.0,1.0,1.0,1.0,1.0,0.0,0.0,0.0,0.0,1.0,2.0,0.0,2.0,6.0,1.0,3.0,7.0,1.0,2.0,3.0,4.0,5.0,6.0,0.9452656505163759,2.1286428982857615,2.9433241399237886,3.671075026737526,4.55116208398249,5.454524461063556,345.5736240220722,752.8655328548048,753.6739468089072,753.5092186117545,760.1830499563366,761.1844221282518,754.6907184957527,760.1747331063962
1,295,1,1,1.0,1.0,0.5334601255599409,0,6,2,5,0,7,4,nan,nan,nan,nan,nan,nan,nan,nan,nan,nan,nan,nan,0.0,nan,nan,nan,nan,nan,nan,nan,nan,nan,nan,nan,nan,nan,nan,nan,nan,nan,nan,345.5736240220722,761.3916129590943,nan,761.9250730846543,nan,nan,nan,nan
1,296,0,0,nan,nan,nan,0,4,6,7,3,1,2,nan,nan,nan,nan,nan,nan,nan,nan,nan,nan,nan,nan,0.0,nan,nan,nan,nan,nan,nan,nan,nan,nan,nan,nan,nan,nan,nan,nan,nan,nan,nan,345.5736240220722,762.3916942117503,nan,nan,nan,nan,nan,nan
1,297,1,1,nan,nan,nan,0,3,8,5,6,4,0,nan,nan,nan,nan,nan,nan,nan,nan,nan,nan,nan,nan,0.0,nan,nan,nan,nan,nan,nan,nan,nan,nan,nan,nan,nan,nan,nan,nan,nan,nan,nan,345.5736240220722,763.3918173736893,nan,nan,nan,nan,nan,nan
1,298,1,1,1.0,1.0,0.66897215123754,0,8,3,6,0,1,2,nan,nan,nan,nan,nan,nan,nan,nan,nan,nan,nan,nan,0.0,nan,nan,nan,nan,nan,nan,nan,nan,nan,nan,nan,nan,nan,nan,nan,nan,nan,nan,345.5736240220722,764.391967049567,nan,765.0609392008046,nan,nan,nan,nan
1,299,1,1,1.0,1.0,0.4688947758404538,0,4,6,0,2,3,5,nan,nan,nan,nan,nan,nan,nan,nan,nan,nan,nan,nan,0.0,nan,nan,nan,nan,nan,nan,nan,nan,nan,nan,nan,nan,nan,nan,nan,nan,nan,nan,345.5736240220722,765.3920751013793,nan,765.8609698772198,nan,nan,nan,nan
1,300,1,1,1.0,1.0,0.6287500947946683,0,7,0,5,1,2,8,nan,nan,nan,nan,nan,nan,nan,nan,nan,nan,nan,nan,0.0,nan,nan,nan,nan,nan,nan,nan,nan,nan,nan,nan,nan,nan,nan,nan,nan,nan,nan,345.5736240220722,766.392174030072,nan,767.0209241248667,nan,nan,nan,nan
1,301,1,1,1.0,1.0,0.5805886569432914,0,5,1,7,8,0,6,nan,nan,nan,nan,nan,nan,nan,nan,nan,nan,nan,nan,0.0,nan,nan,nan,nan,nan,nan,nan,nan,nan,nan,nan,nan,nan,nan,nan,nan,nan,nan,345.5736240220722,767.3923254165566,nan,767.9729140734999,nan,nan,nan,nan
1,302,1,1,1.0,1.0,0.540426756022498,0,3,0,5,2,6,1,nan,nan,nan,nan,nan,nan,nan,nan,nan,nan,nan,nan,0.0,nan,nan,nan,nan,nan,nan,nan,nan,nan,nan,nan,nan,nan,nan,nan,nan,nan,nan,345.5736240220722,768.3924491486978,nan,768.9328759047203,nan,nan,nan,nan
1,303,1,1,1.0,1.0,0.5242571940179914,0,6,5,4,3,8,2,nan,nan,nan,nan,nan,nan,nan,nan,nan,nan,nan,nan,0.0,nan,nan,nan,nan,nan,nan,nan,nan,nan,nan,nan,nan,nan,nan,nan,nan,nan,nan,345.5736240220722,769.3926059519872,nan,769.9168631460052,nan,nan,nan,nan
1,304,0,0,0.0,1.0,0.6041294021997601,0,0,4,5,1,7,8,nan,nan,nan,nan,nan,nan,nan,nan,nan,nan,nan,nan,0.0,nan,nan,nan,nan,nan,nan,nan,nan,nan,nan,nan,nan,nan,nan,nan,nan,nan,nan,345.5736240220722,770.3927091570804,nan,770.9968385592801,nan,nan,nan,nan
1,305,1,1,1.0,1.0,0.643989670323208,0,5,3,6,0,2,4,nan,nan,nan,nan,nan,nan,nan,nan,nan,nan,nan,nan,0.0,nan,nan,nan,nan,nan,nan,nan,nan,nan,nan,nan,nan,nan,nan,nan,nan,nan,nan,345.5736240220722,771.392849709955,nan,772.0368393802783,nan,nan,nan,nan
1,306,1,1,1.0,1.0,0.6915133461588994,0,6,8,0,1,5,7,nan,nan,nan,nan,nan,nan,nan,nan,nan,nan,nan,nan,0.0,nan,nan,nan,nan,nan,nan,nan,nan,nan,nan,nan,nan,nan,nan,nan,nan,nan,nan,345.5736240220722,772.4012760372134,nan,773.0927893833723,nan,nan,nan,nan
1,307,1,1,1.0,1.0,0.7633634946541861,0,7,4,6,0,2,8,nan,nan,nan,nan,nan,nan,nan,nan,nan,nan,nan,nan,0.0,nan,nan,nan,nan,nan,nan,nan,nan,nan,nan,nan,nan,nan,nan,nan,nan,nan,nan,345.5736240220722,773.4014348362107,nan,774.1647983308649,nan,nan,nan,nan
1,308,0,0,0.0,1.0,0.7072501310613006,0,5,3,7,6,1,4,nan,nan,nan,nan,nan,nan,nan,nan,nan,nan,nan,nan,0.0,nan,nan,nan,nan,nan,nan,nan,nan,nan,nan,nan,nan,nan,nan,nan,nan,nan,nan,345.5736240220722,774.4015314840944,nan,775.1087816151557,nan,nan,nan,nan
1,309,1,1,nan,nan,nan,0,0,1,8,7,4,6,nan,nan,nan,nan,nan,nan,nan,nan,nan,nan,nan,nan,0.0,nan,nan,nan,nan,nan,nan,nan,nan,nan,nan,nan,nan,nan,nan,nan,nan,nan,nan,345.5736240220722,775.401641246397,nan,nan,nan,nan,nan,nan
1,310,1,1,1.0,1.0,0.5389684848487377,0,2,8,0,6,1,4,nan,nan,nan,nan,nan,nan,nan,nan,nan,nan,nan,nan,0.0,nan,nan,nan,nan,nan,nan,nan,nan,nan,nan,nan,nan,nan,nan,nan,nan,nan,nan,345.5736240220722,776.4017875011778,nan,776.9407559860265,nan,nan,nan,nan
1,311,1,1,1.0,1.0,0.4908002046868205,0,3,5,6,4,0,7,nan,nan,nan,nan,nan,nan,nan,nan,nan,nan,nan,nan,0.0,nan,nan,nan,nan,nan,nan,nan,nan,nan,nan,nan,nan,nan,nan,nan,nan,nan,nan,345.5736240220722,777.4019323304528,nan,777.8927325351397,nan,nan,nan,nan
1,312,1,1,1.0,1.0,0.5866660699248314,0,8,0,4,1,7,6,nan,nan,nan,nan,nan,nan,nan,nan,nan,nan,nan,nan,0.0,nan,nan,nan,nan,nan,nan,nan,nan,nan,nan,nan,nan,nan,nan,nan,nan,nan,nan,345.5736240220722,778.4020375312539,nan,778.9887036011787,nan,nan,nan,nan
1,313,1,1,1.0,1.0,0.5305270474636927,0,6,4,2,0,5,1,nan,nan,nan,nan,nan,nan,nan,nan,nan,nan,nan,nan,0.0,nan,nan,nan,nan,nan,nan,nan,nan,nan,nan,nan,nan,nan,nan,nan,nan,nan,nan,345.5736240220722,779.4021509998711,nan,779.9326780473348,nan,nan,nan,nan
1,314,1,1,1.0,1.0,0.4983472926542163,1,1,2,7,4,0,8,1.0,1.0,1.0,1.0,1.0,1.0,1.0,1.0,1.0,0.0,0.0,0.0,3.0,1.0,2.0,7.0,3.0,8.0,5.0,3.0,2.0,1.0,6.0,5.0,4.0,2.869212601915933,1.8537840070202947,0.9986366661032662,6.069271731073968,5.165602874709293,3.7411578587489203,345.5736240220722,780.4022949738428,781.2106978091178,780.900642266497,788.3365658582188,789.3418911852641,782.2275076990481,788.328261552495
1,315,1,1,1.0,1.0,0.6753785661421716,0,7,1,6,0,3,5,nan,nan,nan,nan,nan,nan,nan,nan,nan,nan,nan,nan,0.0,nan,nan,nan,nan,nan,nan,nan,nan,nan,nan,nan,nan,nan,nan,nan,nan,nan,nan,345.5736240220722,789.5450781136751,nan,790.2204566798173,nan,nan,nan,nan
1,316,0,0,0.0,1.0,0.5871932142181322,0,3,8,0,5,4,1,nan,nan,nan,nan,nan,nan,nan,nan,nan,nan,nan,nan,0.0,nan,nan,nan,nan,nan,nan,nan,nan,nan,nan,nan,nan,nan,nan,nan,nan,nan,nan,345.5736240220722,790.5452497421065,nan,791.1324429563247,nan,nan,nan,nan
1,317,1,1,1.0,1.0,0.4990511971991509,0,2,5,1,3,0,7,nan,nan,nan,nan,nan,nan,nan,nan,nan,nan,nan,nan,0.0,nan,nan,nan,nan,nan,nan,nan,nan,nan,nan,nan,nan,nan,nan,nan,nan,nan,nan,345.5736240220722,791.5453780357493,nan,792.0444292329485,nan,nan,nan,nan
1,318,1,1,1.0,1.0,0.49893772846553475,0,3,1,5,6,8,0,nan,nan,nan,nan,nan,nan,nan,nan,nan,nan,nan,nan,0.0,nan,nan,nan,nan,nan,nan,nan,nan,nan,nan,nan,nan,nan,nan,nan,nan,nan,nan,345.5736240220722,792.5454555822071,nan,793.0443933106726,nan,nan,nan,nan
1,319,1,1,1.0,1.0,0.4988005969207734,1,7,8,3,2,6,4,1.0,1.0,1.0,1.0,1.0,1.0,1.0,0.0,0.0,1.0,0.0,0.0,2.0,7.0,0.0,1.0,2.0,1.0,8.0,1.0,4.0,3.0,2.0,5.0,6.0,0.9347866248572245,5.021431027329527,3.582279282156378,1.9413253247039393,8.101178648066707,9.365364362485707,345.5736240220722,793.5455813099397,794.3540206375765,794.0443819068605,804.7803108013468,805.7839406564599,795.3791744617047,804.7719754200662
1,320,1,1,nan,nan,nan,0,5,4,0,3,2,1,nan,nan,nan,nan,nan,nan,nan,nan,nan,nan,nan,nan,0.0,nan,nan,nan,nan,nan,nan,nan,nan,nan,nan,nan,nan,nan,nan,nan,nan,nan,nan,345.5736240220722,805.9888321799226,nan,nan,nan,nan,nan,nan
1,321,0,0,1.0,0.0,0.04718811670318246,0,1,2,3,0,6,4,nan,nan,nan,nan,nan,nan,nan,nan,nan,nan,nan,nan,0.0,nan,nan,nan,nan,nan,nan,nan,nan,nan,nan,nan,nan,nan,nan,nan,nan,nan,nan,345.5736240220722,806.9889390913304,nan,807.0361272080336,nan,nan,nan,nan
1,322,1,1,1.0,1.0,0.5590053878258914,0,8,1,0,7,3,2,nan,nan,nan,nan,nan,nan,nan,nan,nan,nan,nan,nan,0.0,nan,nan,nan,nan,nan,nan,nan,nan,nan,nan,nan,nan,nan,nan,nan,nan,nan,nan,345.5736240220722,807.9890636786586,nan,808.5480690664845,nan,nan,nan,nan
1,323,1,1,1.0,1.0,0.694856678834185,0,4,3,6,5,0,7,nan,nan,nan,nan,nan,nan,nan,nan,nan,nan,nan,nan,0.0,nan,nan,nan,nan,nan,nan,nan,nan,nan,nan,nan,nan,nan,nan,nan,nan,nan,nan,345.5736240220722,808.9891899767099,nan,809.6840466555441,nan,nan,nan,nan
1,324,1,1,1.0,1.0,0.7587132772896439,0,6,0,7,3,2,4,nan,nan,nan,nan,nan,nan,nan,nan,nan,nan,nan,nan,0.0,nan,nan,nan,nan,nan,nan,nan,nan,nan,nan,nan,nan,nan,nan,nan,nan,nan,nan,345.5736240220722,809.989316844847,nan,810.7480301221367,nan,nan,nan,nan
1,325,1,1,1.0,1.0,0.7345339148305357,1,2,8,4,1,0,6,1.0,1.0,1.0,1.0,1.0,1.0,0.0,0.0,0.0,1.0,0.0,0.0,1.0,5.0,0.0,7.0,1.0,6.0,8.0,4.0,3.0,2.0,1.0,6.0,5.0,4.242009728681296,2.8666929146274924,1.7319857177790254,0.8833186317933723,8.673624079092406,6.649744923692197,345.5736240220722,810.9894705121405,811.7978804748273,811.7240044269711,821.524060477037,822.5224134715972,812.8146530169761,821.5157222447451
1,326,1,1,1.0,1.0,0.47148858837317675,1,1,0,3,7,5,8,1.0,1.0,1.0,1.0,1.0,1.0,0.0,0.0,0.0,1.0,1.0,0.0,2.0,3.0,4.0,1.0,7.0,5.0,6.0,4.0,5.0,6.0,2.0,1.0,3.0,4.0025647326838225,4.875175976194441,6.394458227325231,2.4529259221162647,1.1077469980809838,3.251028202357702,345.5736240220722,822.7243123317603,823.532667840831,823.1958009201335,830.9835858247243,831.9914239968639,824.5494674672373,830.9752570006531
1,327,1,1,1.0,1.0,0.46749723027460277,0,4,6,0,2,7,3,nan,nan,nan,nan,nan,nan,nan,nan,nan,nan,nan,nan,0.0,nan,nan,nan,nan,nan,nan,nan,nan,nan,nan,nan,nan,nan,nan,nan,nan,nan,nan,345.5736240220722,832.1920920931734,nan,832.659589323448,nan,nan,nan,nan
1,328,1,1,1.0,1.0,0.7313180204946548,0,8,3,7,4,1,5,nan,nan,nan,nan,nan,nan,nan,nan,nan,nan,nan,nan,0.0,nan,nan,nan,nan,nan,nan,nan,nan,nan,nan,nan,nan,nan,nan,nan,nan,nan,nan,345.5736240220722,833.1922232378274,nan,833.9235412583221,nan,nan,nan,nan
1,329,1,1,1.0,1.0,0.7391778600867838,0,4,1,2,5,7,3,nan,nan,nan,nan,nan,nan,nan,nan,nan,nan,nan,nan,0.0,nan,nan,nan,nan,nan,nan,nan,nan,nan,nan,nan,nan,nan,nan,nan,nan,nan,nan,345.5736240220722,834.1923495357623,nan,834.9315273958491,nan,nan,nan,nan
1,330,1,1,nan,nan,nan,0,7,6,1,3,0,8,nan,nan,nan,nan,nan,nan,nan,nan,nan,nan,nan,nan,0.0,nan,nan,nan,nan,nan,nan,nan,nan,nan,nan,nan,nan,nan,nan,nan,nan,nan,nan,345.5736240220722,835.1924547365634,nan,nan,nan,nan,nan,nan
1,331,1,1,nan,nan,nan,0,0,2,5,8,1,3,nan,nan,nan,nan,nan,nan,nan,nan,nan,nan,nan,nan,0.0,nan,nan,nan,nan,nan,nan,nan,nan,nan,nan,nan,nan,nan,nan,nan,nan,nan,nan,345.5736240220722,836.1925898725167,nan,nan,nan,nan,nan,nan
1,332,1,1,nan,nan,nan,0,5,6,3,7,2,8,nan,nan,nan,nan,nan,nan,nan,nan,nan,nan,nan,nan,0.0,nan,nan,nan,nan,nan,nan,nan,nan,nan,nan,nan,nan,nan,nan,nan,nan,nan,nan,345.5736240220722,837.1927213022718,nan,nan,nan,nan,nan,nan
1,333,1,1,1.0,1.0,0.3385755071649328,0,7,2,8,1,3,6,nan,nan,nan,nan,nan,nan,nan,nan,nan,nan,nan,nan,0.0,nan,nan,nan,nan,nan,nan,nan,nan,nan,nan,nan,nan,nan,nan,nan,nan,nan,nan,345.5736240220722,838.1929202999454,nan,838.5314958071103,nan,nan,nan,nan
1,334,1,1,1.0,1.0,0.3945280760526657,0,8,0,3,5,1,7,nan,nan,nan,nan,nan,nan,nan,nan,nan,nan,nan,nan,0.0,nan,nan,nan,nan,nan,nan,nan,nan,nan,nan,nan,nan,nan,nan,nan,nan,nan,nan,345.5736240220722,839.1929282826604,nan,839.5874563587131,nan,nan,nan,nan
1,335,1,1,1.0,1.0,0.4663502851035446,0,2,7,4,1,0,6,nan,nan,nan,nan,nan,nan,nan,nan,nan,nan,nan,nan,0.0,nan,nan,nan,nan,nan,nan,nan,nan,nan,nan,nan,nan,nan,nan,nan,nan,nan,nan,345.5736240220722,840.1930805244483,nan,840.6594308095518,nan,nan,nan,nan
1,336,1,1,1.0,1.0,0.5542320085223764,0,1,4,5,7,3,8,nan,nan,nan,nan,nan,nan,nan,nan,nan,nan,nan,nan,0.0,nan,nan,nan,nan,nan,nan,nan,nan,nan,nan,nan,nan,nan,nan,nan,nan,nan,nan,345.5736240220722,841.193187150755,nan,841.7474191592773,nan,nan,nan,nan
1,337,1,1,1.0,1.0,0.49005524604581296,0,7,1,2,5,0,3,nan,nan,nan,nan,nan,nan,nan,nan,nan,nan,nan,nan,0.0,nan,nan,nan,nan,nan,nan,nan,nan,nan,nan,nan,nan,nan,nan,nan,nan,nan,nan,345.5736240220722,842.1933282738319,nan,842.6833835198777,nan,nan,nan,nan
1,338,1,1,1.0,1.0,0.5059097759658471,1,5,3,0,4,6,1,1.0,1.0,1.0,1.0,1.0,1.0,1.0,0.0,1.0,0.0,0.0,0.0,2.0,5.0,2.0,0.0,7.0,1.0,0.0,1.0,6.0,5.0,4.0,3.0,2.0,2.208277335506864,7.300971781602129,6.477697431109846,5.614120056619868,4.510943733854219,3.526387153775431,345.5736240220722,843.1934548568679,844.0018844911829,843.6993646328337,852.3529292861931,853.3630074654939,845.0103932115017,852.3445959006203
1,339,1,1,1.0,1.0,0.545447884593159,0,8,4,7,2,5,3,nan,nan,nan,nan,nan,nan,nan,nan,nan,nan,nan,nan,0.0,nan,nan,nan,nan,nan,nan,nan,nan,nan,nan,nan,nan,nan,nan,nan,nan,nan,nan,345.5736240220722,853.5697241800372,nan,854.1151720646303,nan,nan,nan,nan
1,340,1,1,1.0,1.0,0.5292327069910243,0,4,6,8,5,2,0,nan,nan,nan,nan,nan,nan,nan,nan,nan,nan,nan,nan,0.0,nan,nan,nan,nan,nan,nan,nan,nan,nan,nan,nan,nan,nan,nan,nan,nan,nan,nan,345.5736240220722,854.5698952382663,nan,855.0991279452574,nan,nan,nan,nan
1,341,1,1,1.0,1.0,0.5370768661377952,0,5,0,3,1,6,4,nan,nan,nan,nan,nan,nan,nan,nan,nan,nan,nan,nan,0.0,nan,nan,nan,nan,nan,nan,nan,nan,nan,nan,nan,nan,nan,nan,nan,nan,nan,nan,345.5736240220722,855.570023246808,nan,856.1071001129458,nan,nan,nan,nan
1,342,1,1,1.0,1.0,0.5369371685665101,1,1,5,4,6,0,8,1.0,1.0,1.0,1.0,1.0,1.0,1.0,0.0,0.0,0.0,0.0,0.0,1.0,1.0,7.0,0.0,2.0,3.0,2.0,2.0,3.0,4.0,5.0,6.0,1.0,2.5561786509351805,3.5157498992048204,4.443954489426687,5.220520826638676,6.23614129179623,1.6694571012631059,345.5736240220722,856.5701469789492,857.378578608972,857.1070841475157,864.671160840895,865.6711665428011,858.3953559977235,864.6628263149178
1,343,1,1,1.0,1.0,0.5875453090993688,0,5,6,7,2,4,1,nan,nan,nan,nan,nan,nan,nan,nan,nan,nan,nan,nan,0.0,nan,nan,nan,nan,nan,nan,nan,nan,nan,nan,nan,nan,nan,nan,nan,nan,nan,nan,345.5736240220722,865.8713357193628,nan,866.4588810284622,nan,nan,nan,nan
1,344,1,1,1.0,1.0,0.5074182242387906,0,6,4,5,0,1,3,nan,nan,nan,nan,nan,nan,nan,nan,nan,nan,nan,nan,0.0,nan,nan,nan,nan,nan,nan,nan,nan,nan,nan,nan,nan,nan,nan,nan,nan,nan,nan,345.5736240220722,866.8714349331567,nan,867.3788531573955,nan,nan,nan,nan
1,345,1,1,1.0,1.0,0.4672725738491863,0,8,2,7,5,3,4,nan,nan,nan,nan,nan,nan,nan,nan,nan,nan,nan,nan,0.0,nan,nan,nan,nan,nan,nan,nan,nan,nan,nan,nan,nan,nan,nan,nan,nan,nan,nan,345.5736240220722,867.8715817581397,nan,868.3388543319888,nan,nan,nan,nan
1,346,0,0,1.0,0.0,0.35511284426320344,0,6,7,3,0,8,1,nan,nan,nan,nan,nan,nan,nan,nan,nan,nan,nan,nan,0.0,nan,nan,nan,nan,nan,nan,nan,nan,nan,nan,nan,nan,nan,nan,nan,nan,nan,nan,345.5736240220722,868.8717094815802,nan,869.2268223258434,nan,nan,nan,nan
1,347,1,1,1.0,1.0,0.38698440918233246,0,8,4,0,7,2,3,nan,nan,nan,nan,nan,nan,nan,nan,nan,nan,nan,nan,0.0,nan,nan,nan,nan,nan,nan,nan,nan,nan,nan,nan,nan,nan,nan,nan,nan,nan,nan,345.5736240220722,869.8718146823812,nan,870.2587990915636,nan,nan,nan,nan
1,348,1,1,1.0,1.0,0.4588471018942073,0,0,1,3,4,7,6,nan,nan,nan,nan,nan,nan,nan,nan,nan,nan,nan,nan,0.0,nan,nan,nan,nan,nan,nan,nan,nan,nan,nan,nan,nan,nan,nan,nan,nan,nan,nan,345.5736240220722,870.8719332827022,nan,871.3307803845964,nan,nan,nan,nan
1,349,1,1,1.0,1.0,0.45071299909614027,0,1,6,7,8,0,5,nan,nan,nan,nan,nan,nan,nan,nan,nan,nan,nan,nan,0.0,nan,nan,nan,nan,nan,nan,nan,nan,nan,nan,nan,nan,nan,nan,nan,nan,nan,nan,345.5736240220722,871.8720533085288,nan,872.322766307625,nan,nan,nan,nan
1,350,1,1,1.0,1.0,0.394575972459279,0,2,0,8,3,7,4,nan,nan,nan,nan,nan,nan,nan,nan,nan,nan,nan,nan,0.0,nan,nan,nan,nan,nan,nan,nan,nan,nan,nan,nan,nan,nan,nan,nan,nan,nan,nan,345.5736240220722,872.8721807468683,nan,873.2667567193275,nan,nan,nan,nan
1,351,1,1,1.0,1.0,0.362433280213736,0,1,6,4,7,5,8,nan,nan,nan,nan,nan,nan,nan,nan,nan,nan,nan,nan,0.0,nan,nan,nan,nan,nan,nan,nan,nan,nan,nan,nan,nan,nan,nan,nan,nan,nan,nan,345.5736240220722,873.872305619414,nan,874.2347388996277,nan,nan,nan,nan
1,352,0,0,0.0,1.0,0.4262590880971402,0,7,1,3,2,8,0,nan,nan,nan,nan,nan,nan,nan,nan,nan,nan,nan,nan,0.0,nan,nan,nan,nan,nan,nan,nan,nan,nan,nan,nan,nan,nan,nan,nan,nan,nan,nan,345.5736240220722,874.8724296366563,nan,875.2986887247534,nan,nan,nan,nan
1,353,1,1,1.0,1.0,0.5221366424812004,0,1,2,6,8,4,3,nan,nan,nan,nan,nan,nan,nan,nan,nan,nan,nan,nan,0.0,nan,nan,nan,nan,nan,nan,nan,nan,nan,nan,nan,nan,nan,nan,nan,nan,nan,nan,345.5736240220722,875.8725602109917,nan,876.3946968534729,nan,nan,nan,nan
1,354,1,1,1.0,1.0,0.6179688662523404,0,3,4,8,6,7,1,nan,nan,nan,nan,nan,nan,nan,nan,nan,nan,nan,nan,0.0,nan,nan,nan,nan,nan,nan,nan,nan,nan,nan,nan,nan,nan,nan,nan,nan,nan,nan,345.5736240220722,876.8726962023648,nan,877.4906650686171,nan,nan,nan,nan
1,355,1,1,1.0,1.0,0.6258098894031718,0,1,6,5,7,8,0,nan,nan,nan,nan,nan,nan,nan,nan,nan,nan,nan,nan,0.0,nan,nan,nan,nan,nan,nan,nan,nan,nan,nan,nan,nan,nan,nan,nan,nan,nan,nan,345.5736240220722,877.8728116665734,nan,878.4986215559766,nan,nan,nan,nan
1,356,1,1,1.0,1.0,0.6256716172210872,0,6,7,3,4,0,1,nan,nan,nan,nan,nan,nan,nan,nan,nan,nan,nan,nan,0.0,nan,nan,nan,nan,nan,nan,nan,nan,nan,nan,nan,nan,nan,nan,nan,nan,nan,nan,345.5736240220722,878.8729368242202,nan,879.4986084414413,nan,nan,nan,nan
1,357,1,1,1.0,1.0,0.6655740798451006,0,3,1,8,2,7,4,nan,nan,nan,nan,nan,nan,nan,nan,nan,nan,nan,nan,0.0,nan,nan,nan,nan,nan,nan,nan,nan,nan,nan,nan,nan,nan,nan,nan,nan,nan,nan,345.5736240220722,879.873059415957,nan,880.5386334958021,nan,nan,nan,nan
1,358,1,1,1.0,1.0,0.6333946101367474,0,7,6,5,0,3,1,nan,nan,nan,nan,nan,nan,nan,nan,nan,nan,nan,nan,0.0,nan,nan,nan,nan,nan,nan,nan,nan,nan,nan,nan,nan,nan,nan,nan,nan,nan,nan,345.5736240220722,880.8731723143719,nan,881.5065669245087,nan,nan,nan,nan
1,359,1,1,1.0,1.0,0.6892308596288785,0,6,5,4,1,8,2,nan,nan,nan,nan,nan,nan,nan,nan,nan,nan,nan,nan,0.0,nan,nan,nan,nan,nan,nan,nan,nan,nan,nan,nan,nan,nan,nan,nan,nan,nan,nan,345.5736240220722,881.8733353897696,nan,882.5625662493985,nan,nan,nan,nan
1,360,1,1,nan,nan,nan,0,5,3,7,4,2,8,nan,nan,nan,nan,nan,nan,nan,nan,nan,nan,nan,nan,0.0,nan,nan,nan,nan,nan,nan,nan,nan,nan,nan,nan,nan,nan,nan,nan,nan,nan,nan,345.5736240220722,882.873417497729,nan,nan,nan,nan,nan,nan
1,361,1,1,1.0,1.0,0.7369586649583653,0,4,2,3,5,1,6,nan,nan,nan,nan,nan,nan,nan,nan,nan,nan,nan,nan,0.0,nan,nan,nan,nan,nan,nan,nan,nan,nan,nan,nan,nan,nan,nan,nan,nan,nan,nan,345.5736240220722,883.8735335322563,nan,884.6104921972146,nan,nan,nan,nan
1,362,0,0,0.0,1.0,0.7128092376515269,0,2,4,7,1,5,0,nan,nan,nan,nan,nan,nan,nan,nan,nan,nan,nan,nan,0.0,nan,nan,nan,nan,nan,nan,nan,nan,nan,nan,nan,nan,nan,nan,nan,nan,nan,nan,345.5736240220722,884.8736692384118,nan,885.5864784760633,nan,nan,nan,nan
1,363,1,1,1.0,1.0,0.6486638358328491,0,6,0,5,4,7,2,nan,nan,nan,nan,nan,nan,nan,nan,nan,nan,nan,nan,0.0,nan,nan,nan,nan,nan,nan,nan,nan,nan,nan,nan,nan,nan,nan,nan,nan,nan,nan,345.5736240220722,885.873792970553,nan,886.5224568063859,nan,nan,nan,nan
1,364,1,1,nan,nan,nan,0,4,3,7,0,6,8,nan,nan,nan,nan,nan,nan,nan,nan,nan,nan,nan,nan,0.0,nan,nan,nan,nan,nan,nan,nan,nan,nan,nan,nan,nan,nan,nan,nan,nan,nan,nan,345.5736240220722,886.8739466378465,nan,nan,nan,nan,nan,nan
1,365,1,1,1.0,1.0,0.1283883067080751,0,1,6,2,7,3,5,nan,nan,nan,nan,nan,nan,nan,nan,nan,nan,nan,nan,0.0,nan,nan,nan,nan,nan,nan,nan,nan,nan,nan,nan,nan,nan,nan,nan,nan,nan,nan,345.5736240220722,887.8740592511604,nan,888.0024475578684,nan,nan,nan,nan
1,366,0,0,nan,nan,nan,0,2,8,6,5,4,7,nan,nan,nan,nan,nan,nan,nan,nan,nan,nan,nan,nan,0.0,nan,nan,nan,nan,nan,nan,nan,nan,nan,nan,nan,nan,nan,nan,nan,nan,nan,nan,345.5736240220722,888.8741638817592,nan,nan,nan,nan,nan,nan
1,367,1,1,1.0,1.0,0.6960660603363067,0,6,4,0,1,3,8,nan,nan,nan,nan,nan,nan,nan,nan,nan,nan,nan,nan,0.0,nan,nan,nan,nan,nan,nan,nan,nan,nan,nan,nan,nan,nan,nan,nan,nan,nan,nan,345.5736240220722,889.8743084259331,nan,890.5703744862694,nan,nan,nan,nan
1,368,0,0,1.0,0.0,0.5999450332019478,0,5,8,1,4,2,6,nan,nan,nan,nan,nan,nan,nan,nan,nan,nan,nan,nan,0.0,nan,nan,nan,nan,nan,nan,nan,nan,nan,nan,nan,nan,nan,nan,nan,nan,nan,nan,345.5736240220722,890.8744387152838,nan,891.4743837484857,nan,nan,nan,nan
1,369,1,1,1.0,1.0,0.6078057280974463,0,0,5,2,7,6,1,nan,nan,nan,nan,nan,nan,nan,nan,nan,nan,nan,nan,0.0,nan,nan,nan,nan,nan,nan,nan,nan,nan,nan,nan,nan,nan,nan,nan,nan,nan,nan,345.5736240220722,891.8745641579153,nan,892.4823698860127,nan,nan,nan,nan
1,370,1,1,1.0,1.0,0.5756379473023117,1,5,1,0,8,7,6,1.0,1.0,1.0,1.0,1.0,1.0,1.0,1.0,1.0,0.0,1.0,0.0,4.0,5.0,1.0,0.0,6.0,7.0,2.0,3.0,4.0,1.0,5.0,2.0,6.0,3.2029993346659467,4.250640470418148,0.9636213365010917,5.170769972959533,2.1885697196703404,6.30689410190098,345.5736240220722,892.8746898857644,893.6831066906452,893.4503278330667,901.0423808109481,902.0496450826759,894.699915440171,901.0340479954612
1,371,1,1,nan,nan,nan,0,4,0,5,2,3,1,nan,nan,nan,nan,nan,nan,nan,nan,nan,nan,nan,nan,0.0,nan,nan,nan,nan,nan,nan,nan,nan,nan,nan,nan,nan,nan,nan,nan,nan,nan,nan,345.5736240220722,902.2509016193217,nan,nan,nan,nan,nan,nan
1,372,1,1,1.0,1.0,0.07915205310564488,0,0,5,4,3,8,2,nan,nan,nan,nan,nan,nan,nan,nan,nan,nan,nan,nan,0.0,nan,nan,nan,nan,nan,nan,nan,nan,nan,nan,nan,nan,nan,nan,nan,nan,nan,nan,345.5736240220722,903.2510119518265,nan,903.3301640049322,nan,nan,nan,nan
1,373,1,1,nan,nan,nan,0,3,0,6,1,4,7,nan,nan,nan,nan,nan,nan,nan,nan,nan,nan,nan,nan,0.0,nan,nan,nan,nan,nan,nan,nan,nan,nan,nan,nan,nan,nan,nan,nan,nan,nan,nan,345.5736240220722,904.2594391343882,nan,nan,nan,nan,nan,nan
1,374,1,1,1.0,1.0,0.7424904021900147,0,2,1,8,0,6,3,nan,nan,nan,nan,nan,nan,nan,nan,nan,nan,nan,nan,0.0,nan,nan,nan,nan,nan,nan,nan,nan,nan,nan,nan,nan,nan,nan,nan,nan,nan,nan,345.5736240220722,905.2595480413875,nan,906.0020384435775,nan,nan,nan,nan
1,375,1,1,nan,nan,nan,0,6,0,2,3,8,1,nan,nan,nan,nan,nan,nan,nan,nan,nan,nan,nan,nan,0.0,nan,nan,nan,nan,nan,nan,nan,nan,nan,nan,nan,nan,nan,nan,nan,nan,nan,nan,345.5736240220722,906.2596769052325,nan,nan,nan,nan,nan,nan
1,376,0,0,1.0,0.0,0.006273559760302305,0,3,8,5,7,2,6,nan,nan,nan,nan,nan,nan,nan,nan,nan,nan,nan,nan,0.0,nan,nan,nan,nan,nan,nan,nan,nan,nan,nan,nan,nan,nan,nan,nan,nan,nan,nan,345.5736240220722,907.2598032031674,nan,907.2660767629277,nan,nan,nan,nan
1,377,1,1,1.0,1.0,0.5980594016145915,0,7,5,2,3,6,4,nan,nan,nan,nan,nan,nan,nan,nan,nan,nan,nan,nan,0.0,nan,nan,nan,nan,nan,nan,nan,nan,nan,nan,nan,nan,nan,nan,nan,nan,nan,nan,345.5736240220722,908.259927790612,nan,908.8579871922266,nan,nan,nan,nan
1,378,1,1,1.0,1.0,0.5899572297930717,0,4,3,8,6,7,0,nan,nan,nan,nan,nan,nan,nan,nan,nan,nan,nan,nan,0.0,nan,nan,nan,nan,nan,nan,nan,nan,nan,nan,nan,nan,nan,nan,nan,nan,nan,nan,345.5736240220722,909.2600483866408,nan,909.8500056164339,nan,nan,nan,nan
1,379,1,1,nan,nan,nan,0,0,5,3,7,6,4,nan,nan,nan,nan,nan,nan,nan,nan,nan,nan,nan,nan,0.0,nan,nan,nan,nan,nan,nan,nan,nan,nan,nan,nan,nan,nan,nan,nan,nan,nan,nan,345.5736240220722,910.2601772504859,nan,nan,nan,nan,nan,nan
1,380,1,1,1.0,1.0,0.7096021813340485,0,1,8,6,3,7,2,nan,nan,nan,nan,nan,nan,nan,nan,nan,nan,nan,nan,0.0,nan,nan,nan,nan,nan,nan,nan,nan,nan,nan,nan,nan,nan,nan,nan,nan,nan,nan,345.5736240220722,911.2603160927538,nan,911.9699182740878,nan,nan,nan,nan
1,381,1,1,1.0,1.0,0.7174848285503685,0,2,1,5,6,3,7,nan,nan,nan,nan,nan,nan,nan,nan,nan,nan,nan,nan,0.0,nan,nan,nan,nan,nan,nan,nan,nan,nan,nan,nan,nan,nan,nan,nan,nan,nan,nan,345.5736240220722,912.2604480927112,nan,912.9779329212615,nan,nan,nan,nan
1,382,1,1,1.0,1.0,0.6773123791208491,0,5,0,3,7,6,2,nan,nan,nan,nan,nan,nan,nan,nan,nan,nan,nan,nan,0.0,nan,nan,nan,nan,nan,nan,nan,nan,nan,nan,nan,nan,nan,nan,nan,nan,nan,nan,345.5736240220722,913.2605778117431,nan,913.937890190864,nan,nan,nan,nan
1,383,1,1,1.0,1.0,0.6692210409091786,0,2,6,7,1,0,3,nan,nan,nan,nan,nan,nan,nan,nan,nan,nan,nan,nan,0.0,nan,nan,nan,nan,nan,nan,nan,nan,nan,nan,nan,nan,nan,nan,nan,nan,nan,nan,345.5736240220722,914.2606773106381,nan,914.9298983515473,nan,nan,nan,nan
1,384,1,1,1.0,1.0,0.6130480918800458,0,0,4,5,8,3,2,nan,nan,nan,nan,nan,nan,nan,nan,nan,nan,nan,nan,0.0,nan,nan,nan,nan,nan,nan,nan,nan,nan,nan,nan,nan,nan,nan,nan,nan,nan,nan,345.5736240220722,915.2608321183361,nan,915.8738802102162,nan,nan,nan,nan
1,385,1,1,1.0,1.0,0.5809339093975723,0,3,0,6,4,8,1,nan,nan,nan,nan,nan,nan,nan,nan,nan,nan,nan,nan,0.0,nan,nan,nan,nan,nan,nan,nan,nan,nan,nan,nan,nan,nan,nan,nan,nan,nan,nan,345.5736240220722,916.2609281960176,nan,916.8418621054152,nan,nan,nan,nan
1,386,1,1,1.0,1.0,0.5967730439733714,0,8,2,5,6,0,3,nan,nan,nan,nan,nan,nan,nan,nan,nan,nan,nan,nan,0.0,nan,nan,nan,nan,nan,nan,nan,nan,nan,nan,nan,nan,nan,nan,nan,nan,nan,nan,345.5736240220722,917.2610550641548,nan,917.8578281081282,nan,nan,nan,nan
1,387,1,1,1.0,1.0,0.5885956065030769,0,0,1,4,7,2,8,nan,nan,nan,nan,nan,nan,nan,nan,nan,nan,nan,nan,0.0,nan,nan,nan,nan,nan,nan,nan,nan,nan,nan,nan,nan,nan,nan,nan,nan,nan,nan,345.5736240220722,918.2611990381265,nan,918.8497946446296,nan,nan,nan,nan
1,388,1,1,1.0,1.0,0.6044843478593975,0,1,5,3,2,7,6,nan,nan,nan,nan,nan,nan,nan,nan,nan,nan,nan,nan,0.0,nan,nan,nan,nan,nan,nan,nan,nan,nan,nan,nan,nan,nan,nan,nan,nan,nan,nan,345.5736240220722,919.2613062346354,nan,919.8657905824948,nan,nan,nan,nan
