block,trial,freq_trials,correct_response,actual_response,acc,rts,probe_trials,trials_colorind0,trials_colorind1,trials_colorind2,trials_colorind3,trials_colorind4,trials_colorind5,wholereport_resp0,wholereport_resp1,wholereport_resp2,wholereport_resp3,wholereport_resp4,wholereport_resp5,wholereport_respacc0,wholereport_respacc1,wholereport_respacc2,wholereport_respacc3,wholereport_respacc4,wholereport_respacc5,wholereport_respacc_total,wholereport_respcolorind0,wholereport_respcolorind1,wholereport_respcolorind2,wholereport_respcolorind3,wholereport_respcolorind4,wholereport_respcolorind5,wholereport_resporder0,wholereport_resporder1,wholereport_resporder2,wholereport_resporder3,wholereport_resporder4,wholereport_resporder5,wholereport_rts0,wholereport_rts1,wholereport_rts2,wholereport_rts3,wholereport_rts4,wholereport_rts5,time_blockstart,time_encarray_offset,time_encarray_onset,time_response,time_iti_offset,time_iti_onset,time_memprobe_offset,time_memprobe_onset
1,1,1,1,nan,nan,nan,0.0,5,0,6,4,2,3,nan,nan,nan,nan,nan,nan,nan,nan,nan,nan,nan,nan,0.0,nan,nan,nan,nan,nan,nan,nan,nan,nan,nan,nan,nan,nan,nan,nan,nan,nan,nan,253.2139046015218,254.23213251726702,nan,nan,nan,nan,nan,nan
1,2,1,1,1.0,1.0,0.2211029976606369,0.0,7,4,8,1,5,0,nan,nan,nan,nan,nan,nan,nan,nan,nan,nan,nan,nan,0.0,nan,nan,nan,nan,nan,nan,nan,nan,nan,nan,nan,nan,nan,nan,nan,nan,nan,nan,253.2139046015218,255.2407563943416,nan,255.46185939200222,nan,nan,nan,nan
1,3,1,1,1.0,1.0,0.10878988867625594,0.0,6,1,0,3,2,5,nan,nan,nan,nan,nan,nan,nan,nan,nan,nan,nan,nan,0.0,nan,nan,nan,nan,nan,nan,nan,nan,nan,nan,nan,nan,nan,nan,nan,nan,nan,nan,253.2139046015218,256.2490304587409,nan,256.35782034741715,nan,nan,nan,nan
1,4,1,1,1.0,1.0,0.6602875422686338,0.0,1,5,2,0,3,7,nan,nan,nan,nan,nan,nan,nan,nan,nan,nan,nan,nan,0.0,nan,nan,nan,nan,nan,nan,nan,nan,nan,nan,nan,nan,nan,nan,nan,nan,nan,nan,253.2139046015218,257.25751406885684,nan,257.91780161112547,nan,nan,nan,nan
1,5,1,1,1.0,1.0,0.4357910440303385,0.0,6,7,8,1,4,2,nan,nan,nan,nan,nan,nan,nan,nan,nan,nan,nan,nan,0.0,nan,nan,nan,nan,nan,nan,nan,nan,nan,nan,nan,nan,nan,nan,nan,nan,nan,nan,253.2139046015218,258.26596916886047,nan,258.7017602128908,nan,nan,nan,nan
1,6,1,1,1.0,1.0,0.5713235340081155,0.0,2,0,4,3,5,1,nan,nan,nan,nan,nan,nan,nan,nan,nan,nan,nan,nan,0.0,nan,nan,nan,nan,nan,nan,nan,nan,nan,nan,nan,nan,nan,nan,nan,nan,nan,nan,253.2139046015218,259.27442911593243,nan,259.84575264994055,nan,nan,nan,nan
1,7,0,0,nan,nan,nan,1.0,8,5,0,1,3,2,1.0,1.0,1.0,1.0,1.0,1.0,0.0,0.0,0.0,0.0,0.0,0.0,0.0,7.0,8.0,5.0,0.0,6.0,3.0,6.0,2.0,1.0,3.0,4.0,5.0,8.741646892856807,2.679156639613211,1.9998685708269477,3.7666156250052154,6.87105095339939,7.7504777503199875,253.2139046015218,260.2828696765937,261.0912921046838,nan,270.89249618025497,271.89449384994805,262.1080868411809,270.8841565437615
1,8,1,1,nan,nan,nan,0.0,1,3,7,4,0,6,nan,nan,nan,nan,nan,nan,nan,nan,nan,nan,nan,nan,0.0,nan,nan,nan,nan,nan,nan,nan,nan,nan,nan,nan,nan,nan,nan,nan,nan,nan,nan,253.2139046015218,272.10100362449884,nan,nan,nan,nan,nan,nan
1,9,1,1,1.0,1.0,0.6319167562760413,0.0,5,8,3,7,1,2,nan,nan,nan,nan,nan,nan,nan,nan,nan,nan,nan,nan,0.0,nan,nan,nan,nan,nan,nan,nan,nan,nan,nan,nan,nan,nan,nan,nan,nan,nan,nan,253.2139046015218,273.10945929493755,nan,273.7413760512136,nan,nan,nan,nan
1,10,1,1,1.0,1.0,0.7274681995622814,0.0,1,3,4,0,8,5,nan,nan,nan,nan,nan,nan,nan,nan,nan,nan,nan,nan,0.0,nan,nan,nan,nan,nan,nan,nan,nan,nan,nan,nan,nan,nan,nan,nan,nan,nan,nan,253.2139046015218,274.1179206673987,nan,274.845388866961,nan,nan,nan,nan
1,11,1,1,1.0,1.0,0.6789750335738063,0.0,4,0,1,8,7,3,nan,nan,nan,nan,nan,nan,nan,nan,nan,nan,nan,nan,0.0,nan,nan,nan,nan,nan,nan,nan,nan,nan,nan,nan,nan,nan,nan,nan,nan,nan,nan,253.2139046015218,275.1263885968365,nan,275.8053636304103,nan,nan,nan,nan
1,12,1,1,1.0,1.0,0.7424959093332291,0.0,2,1,3,7,0,8,nan,nan,nan,nan,nan,nan,nan,nan,nan,nan,nan,nan,0.0,nan,nan,nan,nan,nan,nan,nan,nan,nan,nan,nan,nan,nan,nan,nan,nan,nan,nan,253.2139046015218,276.13484569313005,nan,276.8773416024633,nan,nan,nan,nan
1,13,1,1,1.0,1.0,0.6620172215625644,0.0,7,0,6,2,3,5,nan,nan,nan,nan,nan,nan,nan,nan,nan,nan,nan,nan,0.0,nan,nan,nan,nan,nan,nan,nan,nan,nan,nan,nan,nan,nan,nan,nan,nan,nan,nan,253.2139046015218,277.1432919553481,nan,277.80530917691067,nan,nan,nan,nan
1,14,0,0,nan,nan,nan,0.0,1,4,5,3,6,2,nan,nan,nan,nan,nan,nan,nan,nan,nan,nan,nan,nan,0.0,nan,nan,nan,nan,nan,nan,nan,nan,nan,nan,nan,nan,nan,nan,nan,nan,nan,nan,253.2139046015218,278.1517501915805,nan,nan,nan,nan,nan,nan
1,15,1,1,nan,nan,nan,0.0,8,1,0,5,3,6,nan,nan,nan,nan,nan,nan,nan,nan,nan,nan,nan,nan,0.0,nan,nan,nan,nan,nan,nan,nan,nan,nan,nan,nan,nan,nan,nan,nan,nan,nan,nan,253.2139046015218,279.1602001604624,nan,nan,nan,nan,nan,nan
1,16,1,1,nan,nan,nan,0.0,1,2,7,0,8,3,nan,nan,nan,nan,nan,nan,nan,nan,nan,nan,nan,nan,0.0,nan,nan,nan,nan,nan,nan,nan,nan,nan,nan,nan,nan,nan,nan,nan,nan,nan,nan,253.2139046015218,280.16867436189204,nan,nan,nan,nan,nan,nan
1,17,1,1,1.0,1.0,0.5800742786377668,0.0,7,0,8,5,3,1,nan,nan,nan,nan,nan,nan,nan,nan,nan,nan,nan,nan,0.0,nan,nan,nan,nan,nan,nan,nan,nan,nan,nan,nan,nan,nan,nan,nan,nan,nan,nan,253.2139046015218,281.1771169183776,nan,281.75719119701535,nan,nan,nan,nan
1,18,1,1,1.0,1.0,0.5796169843524694,0.0,6,2,1,3,8,0,nan,nan,nan,nan,nan,nan,nan,nan,nan,nan,nan,nan,0.0,nan,nan,nan,nan,nan,nan,nan,nan,nan,nan,nan,nan,nan,nan,nan,nan,nan,nan,253.2139046015218,282.1855882690288,nan,282.7652052533813,nan,nan,nan,nan
1,19,1,1,1.0,1.0,0.7231267536990345,0.0,1,0,3,7,5,4,nan,nan,nan,nan,nan,nan,nan,nan,nan,nan,nan,nan,0.0,nan,nan,nan,nan,nan,nan,nan,nan,nan,nan,nan,nan,nan,nan,nan,nan,nan,nan,253.2139046015218,283.19403709704056,nan,283.9171638507396,nan,nan,nan,nan
1,20,1,1,nan,nan,nan,0.0,2,4,5,6,8,1,nan,nan,nan,nan,nan,nan,nan,nan,nan,nan,nan,nan,0.0,nan,nan,nan,nan,nan,nan,nan,nan,nan,nan,nan,nan,nan,nan,nan,nan,nan,nan,253.2139046015218,284.2024967591278,nan,nan,nan,nan,nan,nan
1,21,0,0,nan,nan,nan,1.0,4,3,0,8,1,6,1.0,1.0,1.0,1.0,1.0,1.0,0.0,1.0,1.0,1.0,0.0,0.0,3.0,3.0,3.0,0.0,8.0,8.0,4.0,4.0,3.0,2.0,1.0,6.0,5.0,4.781767351552844,3.5828887494280934,2.7897015810012817,2.0078595341183245,8.821356961503625,6.181251099333167,253.2139046015218,285.2109575611539,286.0193643094972,nan,295.89557522023097,296.90075741522014,287.0361567651853,295.887234443333
1,22,1,1,1.0,1.0,0.7888212036341429,0.0,6,2,3,5,7,8,nan,nan,nan,nan,nan,nan,nan,nan,nan,nan,nan,nan,0.0,nan,nan,nan,nan,nan,nan,nan,nan,nan,nan,nan,nan,nan,nan,nan,nan,nan,nan,253.2139046015218,297.10405016317964,nan,297.8928713668138,nan,nan,nan,nan
1,23,1,1,1.0,1.0,0.620254322886467,0.0,2,1,4,7,6,0,nan,nan,nan,nan,nan,nan,nan,nan,nan,nan,nan,nan,0.0,nan,nan,nan,nan,nan,nan,nan,nan,nan,nan,nan,nan,nan,nan,nan,nan,nan,nan,253.2139046015218,298.11257824813947,nan,298.73283257102594,nan,nan,nan,nan
1,24,1,1,1.0,1.0,0.6998041672632098,0.0,7,2,8,3,5,1,nan,nan,nan,nan,nan,nan,nan,nan,nan,nan,nan,nan,0.0,nan,nan,nan,nan,nan,nan,nan,nan,nan,nan,nan,nan,nan,nan,nan,nan,nan,nan,253.2139046015218,299.12099913693964,nan,299.82080330420285,nan,nan,nan,nan
1,25,1,1,1.0,1.0,0.7633313159458339,0.0,5,3,6,7,8,0,nan,nan,nan,nan,nan,nan,nan,nan,nan,nan,nan,nan,0.0,nan,nan,nan,nan,nan,nan,nan,nan,nan,nan,nan,nan,nan,nan,nan,nan,nan,nan,253.2139046015218,300.1294456841424,nan,300.89277700008824,nan,nan,nan,nan
1,26,1,1,1.0,1.0,0.778850816655904,0.0,8,2,3,1,0,4,nan,nan,nan,nan,nan,nan,nan,nan,nan,nan,nan,nan,0.0,nan,nan,nan,nan,nan,nan,nan,nan,nan,nan,nan,nan,nan,nan,nan,nan,nan,nan,253.2139046015218,301.13790762703866,nan,301.91675844369456,nan,nan,nan,nan
1,27,1,1,nan,nan,nan,0.0,7,1,2,8,5,6,nan,nan,nan,nan,nan,nan,nan,nan,nan,nan,nan,nan,0.0,nan,nan,nan,nan,nan,nan,nan,nan,nan,nan,nan,nan,nan,nan,nan,nan,nan,nan,253.2139046015218,302.1463721357286,nan,nan,nan,nan,nan,nan
1,28,1,1,nan,nan,nan,0.0,3,8,6,4,7,1,nan,nan,nan,nan,nan,nan,nan,nan,nan,nan,nan,nan,0.0,nan,nan,nan,nan,nan,nan,nan,nan,nan,nan,nan,nan,nan,nan,nan,nan,nan,nan,253.2139046015218,303.1548278061673,nan,nan,nan,nan,nan,nan
1,29,1,1,1.0,1.0,0.6173945222981274,0.0,2,7,1,5,6,4,nan,nan,nan,nan,nan,nan,nan,nan,nan,nan,nan,nan,0.0,nan,nan,nan,nan,nan,nan,nan,nan,nan,nan,nan,nan,nan,nan,nan,nan,nan,nan,253.2139046015218,304.1632877527736,nan,304.78068227507174,nan,nan,nan,nan
1,30,1,1,1.0,1.0,0.49691825173795223,0.0,0,6,5,4,2,8,nan,nan,nan,nan,nan,nan,nan,nan,nan,nan,nan,nan,0.0,nan,nan,nan,nan,nan,nan,nan,nan,nan,nan,nan,nan,nan,nan,nan,nan,nan,nan,253.2139046015218,305.1717553976923,nan,305.6686736494303,nan,nan,nan,nan
1,31,1,1,1.0,1.0,0.440486294683069,0.0,1,3,7,2,6,5,nan,nan,nan,nan,nan,nan,nan,nan,nan,nan,nan,nan,0.0,nan,nan,nan,nan,nan,nan,nan,nan,nan,nan,nan,nan,nan,nan,nan,nan,nan,nan,253.2139046015218,306.1801760010421,nan,306.6206622957252,nan,nan,nan,nan
1,32,1,1,1.0,1.0,0.4079713490791619,0.0,3,6,1,5,2,4,nan,nan,nan,nan,nan,nan,nan,nan,nan,nan,nan,nan,0.0,nan,nan,nan,nan,nan,nan,nan,nan,nan,nan,nan,nan,nan,nan,nan,nan,nan,nan,253.2139046015218,307.1886553345248,nan,307.596626683604,nan,nan,nan,nan
1,33,1,1,1.0,1.0,0.4714771150611341,0.0,1,2,4,6,0,8,nan,nan,nan,nan,nan,nan,nan,nan,nan,nan,nan,nan,0.0,nan,nan,nan,nan,nan,nan,nan,nan,nan,nan,nan,nan,nan,nan,nan,nan,nan,nan,253.2139046015218,308.19712098361924,nan,308.6685980986804,nan,nan,nan,nan
1,34,1,1,1.0,1.0,0.43100912356749177,0.0,8,6,0,4,1,3,nan,nan,nan,nan,nan,nan,nan,nan,nan,nan,nan,nan,0.0,nan,nan,nan,nan,nan,nan,nan,nan,nan,nan,nan,nan,nan,nan,nan,nan,nan,nan,253.2139046015218,309.20557351829484,nan,309.63658264186233,nan,nan,nan,nan
1,35,1,1,1.0,1.0,0.3825353439897299,0.0,1,8,5,7,0,6,nan,nan,nan,nan,nan,nan,nan,nan,nan,nan,nan,nan,0.0,nan,nan,nan,nan,nan,nan,nan,nan,nan,nan,nan,nan,nan,nan,nan,nan,nan,nan,253.2139046015218,310.21403061412275,nan,310.5965659581125,nan,nan,nan,nan
1,36,1,1,1.0,1.0,0.6140594659373164,0.0,7,2,3,0,8,4,nan,nan,nan,nan,nan,nan,nan,nan,nan,nan,nan,nan,0.0,nan,nan,nan,nan,nan,nan,nan,nan,nan,nan,nan,nan,nan,nan,nan,nan,nan,nan,253.2139046015218,311.2224777317606,nan,311.8365371976979,nan,nan,nan,nan
1,37,1,1,1.0,1.0,0.4535639458335936,0.0,6,7,0,8,2,5,nan,nan,nan,nan,nan,nan,nan,nan,nan,nan,nan,nan,0.0,nan,nan,nan,nan,nan,nan,nan,nan,nan,nan,nan,nan,nan,nan,nan,nan,nan,nan,253.2139046015218,312.23093938920647,nan,312.68450333504006,nan,nan,nan,nan
1,38,1,1,1.0,1.0,0.4450857527554035,0.0,2,5,3,0,1,4,nan,nan,nan,nan,nan,nan,nan,nan,nan,nan,nan,nan,0.0,nan,nan,nan,nan,nan,nan,nan,nan,nan,nan,nan,nan,nan,nan,nan,nan,nan,nan,253.2139046015218,313.23939905129373,nan,313.68448480404913,nan,nan,nan,nan
1,39,1,1,1.0,1.0,0.46059641567990184,0.0,3,0,2,5,8,1,nan,nan,nan,nan,nan,nan,nan,nan,nan,nan,nan,nan,0.0,nan,nan,nan,nan,nan,nan,nan,nan,nan,nan,nan,nan,nan,nan,nan,nan,nan,nan,253.2139046015218,314.2478655553423,nan,314.7084619710222,nan,nan,nan,nan
1,40,1,1,1.0,1.0,0.4201090377755463,0.0,1,8,6,0,2,5,nan,nan,nan,nan,nan,nan,nan,nan,nan,nan,nan,nan,0.0,nan,nan,nan,nan,nan,nan,nan,nan,nan,nan,nan,nan,nan,nan,nan,nan,nan,nan,253.2139046015218,315.25632892362773,nan,315.6764379614033,nan,nan,nan,nan
1,41,1,1,1.0,1.0,0.44365143310278654,0.0,7,0,5,8,6,4,nan,nan,nan,nan,nan,nan,nan,nan,nan,nan,nan,nan,0.0,nan,nan,nan,nan,nan,nan,nan,nan,nan,nan,nan,nan,nan,nan,nan,nan,nan,nan,253.2139046015218,316.26477946247905,nan,316.70843089558184,nan,nan,nan,nan
1,42,1,1,1.0,1.0,0.3631644775159657,0.0,0,1,2,5,3,8,nan,nan,nan,nan,nan,nan,nan,nan,nan,nan,nan,nan,0.0,nan,nan,nan,nan,nan,nan,nan,nan,nan,nan,nan,nan,nan,nan,nan,nan,nan,nan,253.2139046015218,317.27323399251327,nan,317.63639847002923,nan,nan,nan,nan
1,43,1,1,1.0,1.0,0.4107031412422657,0.0,8,2,3,0,4,1,nan,nan,nan,nan,nan,nan,nan,nan,nan,nan,nan,nan,0.0,nan,nan,nan,nan,nan,nan,nan,nan,nan,nan,nan,nan,nan,nan,nan,nan,nan,nan,253.2139046015218,318.28167284233496,nan,318.6923759835772,nan,nan,nan,nan
1,44,1,1,1.0,1.0,0.4581913435831666,0.0,0,6,4,2,3,8,nan,nan,nan,nan,nan,nan,nan,nan,nan,nan,nan,nan,0.0,nan,nan,nan,nan,nan,nan,nan,nan,nan,nan,nan,nan,nan,nan,nan,nan,nan,nan,253.2139046015218,319.29015217581764,nan,319.7483435194008,nan,nan,nan,nan
1,45,1,1,1.0,1.0,0.3537209485657513,0.0,1,5,2,3,8,0,nan,nan,nan,nan,nan,nan,nan,nan,nan,nan,nan,nan,0.0,nan,nan,nan,nan,nan,nan,nan,nan,nan,nan,nan,nan,nan,nan,nan,nan,nan,nan,253.2139046015218,320.29860784625635,nan,320.6523287948221,nan,nan,nan,nan
1,46,1,1,1.0,1.0,0.33724266896024346,0.0,7,2,0,5,6,1,nan,nan,nan,nan,nan,nan,nan,nan,nan,nan,nan,nan,0.0,nan,nan,nan,nan,nan,nan,nan,nan,nan,nan,nan,nan,nan,nan,nan,nan,nan,nan,253.2139046015218,321.30706266127527,nan,321.6443053302355,nan,nan,nan,nan
1,47,1,1,1.0,1.0,0.35275874799117446,0.0,8,4,5,6,3,2,nan,nan,nan,nan,nan,nan,nan,nan,nan,nan,nan,nan,0.0,nan,nan,nan,nan,nan,nan,nan,nan,nan,nan,nan,nan,nan,nan,nan,nan,nan,nan,253.2139046015218,322.3155217533931,nan,322.6682805013843,nan,nan,nan,nan
1,48,1,1,1.0,1.0,0.3522832081653178,0.0,7,8,3,4,6,1,nan,nan,nan,nan,nan,nan,nan,nan,nan,nan,nan,nan,0.0,nan,nan,nan,nan,nan,nan,nan,nan,nan,nan,nan,nan,nan,nan,nan,nan,nan,nan,253.2139046015218,323.3239700109698,nan,323.6762532191351,nan,nan,nan,nan
1,49,1,1,1.0,1.0,0.35979292867705226,0.0,4,2,1,6,8,0,nan,nan,nan,nan,nan,nan,nan,nan,nan,nan,nan,nan,0.0,nan,nan,nan,nan,nan,nan,nan,nan,nan,nan,nan,nan,nan,nan,nan,nan,nan,nan,253.2139046015218,324.332441077102,nan,324.692234005779,nan,nan,nan,nan
1,50,1,1,1.0,1.0,0.4633139534853399,0.0,5,1,8,0,3,2,nan,nan,nan,nan,nan,nan,nan,nan,nan,nan,nan,nan,0.0,nan,nan,nan,nan,nan,nan,nan,nan,nan,nan,nan,nan,nan,nan,nan,nan,nan,nan,253.2139046015218,325.34088477352634,nan,325.8041987270117,nan,nan,nan,nan
1,51,0,0,0.0,1.0,0.6468321387656033,0.0,0,3,7,5,8,4,nan,nan,nan,nan,nan,nan,nan,nan,nan,nan,nan,nan,0.0,nan,nan,nan,nan,nan,nan,nan,nan,nan,nan,nan,nan,nan,nan,nan,nan,nan,nan,253.2139046015218,326.3493529879488,nan,326.9961851267144,nan,nan,nan,nan
1,52,1,1,1.0,1.0,0.7026679595001042,0.0,7,2,1,8,0,6,nan,nan,nan,nan,nan,nan,nan,nan,nan,nan,nan,nan,0.0,nan,nan,nan,nan,nan,nan,nan,nan,nan,nan,nan,nan,nan,nan,nan,nan,nan,nan,253.2139046015218,327.3494829921983,nan,328.0521509516984,nan,nan,nan,nan
1,53,0,0,0.0,1.0,0.6541981711052358,1.0,4,6,8,7,5,0,1.0,1.0,1.0,1.0,1.0,1.0,1.0,1.0,1.0,1.0,0.0,0.0,4.0,4.0,6.0,8.0,7.0,7.0,7.0,4.0,3.0,2.0,1.0,6.0,5.0,4.250115820672363,2.809488403610885,2.1066317101940513,1.2416350613348186,11.120903059840202,7.320599603001028,253.2139046015218,328.3579266886227,329.16634455509484,329.0121248597279,341.359513534233,342.35812511574477,330.1914775026962,341.3511833064258
1,54,1,1,1.0,1.0,0.7721291016787291,0.0,0,1,3,4,2,8,nan,nan,nan,nan,nan,nan,nan,nan,nan,nan,nan,nan,0.0,nan,nan,nan,nan,nan,nan,nan,nan,nan,nan,nan,nan,nan,nan,nan,nan,nan,nan,253.2139046015218,342.55968077201396,nan,343.3318098736927,nan,nan,nan,nan
1,55,1,1,1.0,1.0,0.7396423807367682,0.0,2,4,5,6,7,0,nan,nan,nan,nan,nan,nan,nan,nan,nan,nan,nan,nan,0.0,nan,nan,nan,nan,nan,nan,nan,nan,nan,nan,nan,nan,nan,nan,nan,nan,nan,nan,253.2139046015218,343.5681458506733,nan,344.3077882314101,nan,nan,nan,nan
1,56,1,1,1.0,1.0,0.683135443367064,0.0,7,5,0,1,6,2,nan,nan,nan,nan,nan,nan,nan,nan,nan,nan,nan,nan,0.0,nan,nan,nan,nan,nan,nan,nan,nan,nan,nan,nan,nan,nan,nan,nan,nan,nan,nan,253.2139046015218,344.5766066526994,nan,345.2597420960665,nan,nan,nan,nan
1,57,1,1,1.0,1.0,0.6106702415272593,0.0,3,8,5,4,0,7,nan,nan,nan,nan,nan,nan,nan,nan,nan,nan,nan,nan,0.0,nan,nan,nan,nan,nan,nan,nan,nan,nan,nan,nan,nan,nan,nan,nan,nan,nan,nan,253.2139046015218,345.5850603277795,nan,346.19573056930676,nan,nan,nan,nan
1,58,1,1,1.0,1.0,0.49819234712049365,0.0,5,2,3,8,1,4,nan,nan,nan,nan,nan,nan,nan,nan,nan,nan,nan,nan,0.0,nan,nan,nan,nan,nan,nan,nan,nan,nan,nan,nan,nan,nan,nan,nan,nan,nan,nan,253.2139046015218,346.59350887080655,nan,347.09170121792704,nan,nan,nan,nan
1,59,1,1,1.0,1.0,0.5700440220534801,0.0,3,0,5,2,8,6,nan,nan,nan,nan,nan,nan,nan,nan,nan,nan,nan,nan,0.0,nan,nan,nan,nan,nan,nan,nan,nan,nan,nan,nan,nan,nan,nan,nan,nan,nan,nan,253.2139046015218,347.59364486159757,nan,348.16368888365105,nan,nan,nan,nan
1,60,1,1,1.0,1.0,0.5935305384919047,0.0,1,4,7,6,2,5,nan,nan,nan,nan,nan,nan,nan,nan,nan,nan,nan,nan,0.0,nan,nan,nan,nan,nan,nan,nan,nan,nan,nan,nan,nan,nan,nan,nan,nan,nan,nan,253.2139046015218,348.60212904168293,nan,349.19565958017483,nan,nan,nan,nan
1,61,0,0,0.0,1.0,0.6653924765996635,1.0,6,1,2,4,3,0,1.0,1.0,1.0,1.0,1.0,1.0,0.0,1.0,0.0,1.0,0.0,0.0,2.0,7.0,1.0,5.0,4.0,4.0,7.0,4.0,3.0,2.0,1.0,6.0,5.0,4.933186261449009,3.621662698686123,2.6054219040088356,1.3991524656303227,9.291995608247817,7.940317089669406,253.2139046015218,349.6022322466597,350.41062901634723,350.26762472325936,360.7702406239696,361.7797183645889,351.4357665255666,360.76190754491836
1,62,1,1,1.0,1.0,0.6562497238628566,0.0,7,4,0,2,1,8,nan,nan,nan,nan,nan,nan,nan,nan,nan,nan,nan,nan,0.0,nan,nan,nan,nan,nan,nan,nan,nan,nan,nan,nan,nan,nan,nan,nan,nan,nan,nan,253.2139046015218,361.9871193501167,nan,362.64336907397956,nan,nan,nan,nan
1,63,1,1,1.0,1.0,0.6881214920431376,0.0,3,1,4,0,7,5,nan,nan,nan,nan,nan,nan,nan,nan,nan,nan,nan,nan,0.0,nan,nan,nan,nan,nan,nan,nan,nan,nan,nan,nan,nan,nan,nan,nan,nan,nan,nan,253.2139046015218,362.98721029562876,nan,363.6753317876719,nan,nan,nan,nan
1,64,1,1,1.0,1.0,0.6879658293910325,0.0,2,3,5,7,4,1,nan,nan,nan,nan,nan,nan,nan,nan,nan,nan,nan,nan,0.0,nan,nan,nan,nan,nan,nan,nan,nan,nan,nan,nan,nan,nan,nan,nan,nan,nan,nan,253.2139046015218,363.98734685685486,nan,364.6753126862459,nan,nan,nan,nan
1,65,1,1,1.0,1.0,0.791474879719317,0.0,7,1,3,4,8,2,nan,nan,nan,nan,nan,nan,nan,nan,nan,nan,nan,nan,0.0,nan,nan,nan,nan,nan,nan,nan,nan,nan,nan,nan,nan,nan,nan,nan,nan,nan,nan,253.2139046015218,364.99579967651516,nan,365.7872745562345,nan,nan,nan,nan
1,66,1,1,1.0,1.0,0.7350523308850825,0.0,3,8,7,0,6,5,nan,nan,nan,nan,nan,nan,nan,nan,nan,nan,nan,nan,0.0,nan,nan,nan,nan,nan,nan,nan,nan,nan,nan,nan,nan,nan,nan,nan,nan,nan,nan,253.2139046015218,366.0042074508965,nan,366.7392597817816,nan,nan,nan,nan
1,67,1,1,1.0,1.0,0.5748430471867323,0.0,5,4,1,6,2,7,nan,nan,nan,nan,nan,nan,nan,nan,nan,nan,nan,nan,0.0,nan,nan,nan,nan,nan,nan,nan,nan,nan,nan,nan,nan,nan,nan,nan,nan,nan,nan,253.2139046015218,367.0043839253485,nan,367.57922697253525,nan,nan,nan,nan
1,68,1,1,1.0,1.0,0.48672919580712914,0.0,7,2,8,3,5,6,nan,nan,nan,nan,nan,nan,nan,nan,nan,nan,nan,nan,0.0,nan,nan,nan,nan,nan,nan,nan,nan,nan,nan,nan,nan,nan,nan,nan,nan,nan,nan,253.2139046015218,368.0044825687073,nan,368.49121176451445,nan,nan,nan,nan
1,69,1,1,1.0,1.0,0.4782239184714854,0.0,5,0,6,2,7,4,nan,nan,nan,nan,nan,nan,nan,nan,nan,nan,nan,nan,0.0,nan,nan,nan,nan,nan,nan,nan,nan,nan,nan,nan,nan,nan,nan,nan,nan,nan,nan,253.2139046015218,369.0129613322206,nan,369.49118525069207,nan,nan,nan,nan
1,70,1,1,1.0,1.0,0.39777316991239786,0.0,0,2,4,7,1,3,nan,nan,nan,nan,nan,nan,nan,nan,nan,nan,nan,nan,0.0,nan,nan,nan,nan,nan,nan,nan,nan,nan,nan,nan,nan,nan,nan,nan,nan,nan,nan,253.2139046015218,370.02138763759285,nan,370.41916080750525,nan,nan,nan,nan
1,71,1,1,1.0,1.0,0.34129075054079294,0.0,4,8,1,5,3,6,nan,nan,nan,nan,nan,nan,nan,nan,nan,nan,nan,nan,0.0,nan,nan,nan,nan,nan,nan,nan,nan,nan,nan,nan,nan,nan,nan,nan,nan,nan,nan,253.2139046015218,371.0298527162522,nan,371.371143466793,nan,nan,nan,nan
1,72,1,1,1.0,1.0,0.34912291541695595,0.0,8,7,6,0,1,2,nan,nan,nan,nan,nan,nan,nan,nan,nan,nan,nan,nan,0.0,nan,nan,nan,nan,nan,nan,nan,nan,nan,nan,nan,nan,nan,nan,nan,nan,nan,nan,253.2139046015218,372.029991843272,nan,372.37911475868896,nan,nan,nan,nan
1,73,1,1,1.0,1.0,0.3886503744870424,0.0,0,5,1,3,2,6,nan,nan,nan,nan,nan,nan,nan,nan,nan,nan,nan,nan,0.0,nan,nan,nan,nan,nan,nan,nan,nan,nan,nan,nan,nan,nan,nan,nan,nan,nan,nan,253.2139046015218,373.03844295209274,nan,373.4270933265798,nan,nan,nan,nan
1,74,1,1,1.0,1.0,0.3961669374257326,0.0,5,1,2,6,7,3,nan,nan,nan,nan,nan,nan,nan,nan,nan,nan,nan,nan,0.0,nan,nan,nan,nan,nan,nan,nan,nan,nan,nan,nan,nan,nan,nan,nan,nan,nan,nan,253.2139046015218,374.04690860118717,nan,374.4430755386129,nan,nan,nan,nan
1,75,1,1,nan,nan,nan,0.0,3,8,0,1,6,2,nan,nan,nan,nan,nan,nan,nan,nan,nan,nan,nan,nan,0.0,nan,nan,nan,nan,nan,nan,nan,nan,nan,nan,nan,nan,nan,nan,nan,nan,nan,nan,253.2139046015218,375.0553619908169,nan,nan,nan,nan,nan,nan
1,76,1,1,nan,nan,nan,0.0,6,3,1,4,0,5,nan,nan,nan,nan,nan,nan,nan,nan,nan,nan,nan,nan,0.0,nan,nan,nan,nan,nan,nan,nan,nan,nan,nan,nan,nan,nan,nan,nan,nan,nan,nan,253.2139046015218,376.06380796805024,nan,nan,nan,nan,nan,nan
1,77,1,1,1.0,1.0,0.034730713814496994,0.0,1,5,0,8,4,3,nan,nan,nan,nan,nan,nan,nan,nan,nan,nan,nan,nan,0.0,nan,nan,nan,nan,nan,nan,nan,nan,nan,nan,nan,nan,nan,nan,nan,nan,nan,nan,253.2139046015218,377.0723109645769,nan,377.1070416783914,nan,nan,nan,nan
1,78,1,1,nan,nan,nan,0.0,7,2,8,4,5,6,nan,nan,nan,nan,nan,nan,nan,nan,nan,nan,nan,nan,0.0,nan,nan,nan,nan,nan,nan,nan,nan,nan,nan,nan,nan,nan,nan,nan,nan,nan,nan,253.2139046015218,378.0807030587457,nan,nan,nan,nan,nan,nan
1,79,1,1,nan,nan,nan,0.0,4,7,6,0,8,1,nan,nan,nan,nan,nan,nan,nan,nan,nan,nan,nan,nan,0.0,nan,nan,nan,nan,nan,nan,nan,nan,nan,nan,nan,nan,nan,nan,nan,nan,nan,nan,253.2139046015218,379.0808661337942,nan,nan,nan,nan,nan,nan
1,80,1,1,nan,nan,nan,0.0,0,5,2,1,7,6,nan,nan,nan,nan,nan,nan,nan,nan,nan,nan,nan,nan,0.0,nan,nan,nan,nan,nan,nan,nan,nan,nan,nan,nan,nan,nan,nan,nan,nan,nan,nan,253.2139046015218,380.08931068563834,nan,nan,nan,nan,nan,nan
1,81,1,1,nan,nan,nan,0.0,5,3,8,2,4,0,nan,nan,nan,nan,nan,nan,nan,nan,nan,nan,nan,nan,0.0,nan,nan,nan,nan,nan,nan,nan,nan,nan,nan,nan,nan,nan,nan,nan,nan,nan,nan,253.2139046015218,381.0977592286654,nan,nan,nan,nan,nan,nan
1,82,1,1,nan,nan,nan,0.0,0,4,1,7,3,6,nan,nan,nan,nan,nan,nan,nan,nan,nan,nan,nan,nan,0.0,nan,nan,nan,nan,nan,nan,nan,nan,nan,nan,nan,nan,nan,nan,nan,nan,nan,nan,253.2139046015218,382.10622459230945,nan,nan,nan,nan,nan,nan
1,83,1,1,nan,nan,nan,0.0,8,0,4,3,5,7,nan,nan,nan,nan,nan,nan,nan,nan,nan,nan,nan,nan,0.0,nan,nan,nan,nan,nan,nan,nan,nan,nan,nan,nan,nan,nan,nan,nan,nan,nan,nan,253.2139046015218,383.10636029811576,nan,nan,nan,nan,nan,nan
1,84,1,1,nan,nan,nan,0.0,7,4,3,0,8,1,nan,nan,nan,nan,nan,nan,nan,nan,nan,nan,nan,nan,0.0,nan,nan,nan,nan,nan,nan,nan,nan,nan,nan,nan,nan,nan,nan,nan,nan,nan,nan,253.2139046015218,384.11479544173926,nan,nan,nan,nan,nan,nan
1,85,1,1,nan,nan,nan,0.0,4,3,2,7,1,8,nan,nan,nan,nan,nan,nan,nan,nan,nan,nan,nan,nan,0.0,nan,nan,nan,nan,nan,nan,nan,nan,nan,nan,nan,nan,nan,nan,nan,nan,nan,nan,253.2139046015218,385.12324541062117,nan,nan,nan,nan,nan,nan
1,86,0,0,nan,nan,nan,1.0,5,8,3,1,4,2,1.0,1.0,1.0,1.0,1.0,1.0,0.0,0.0,1.0,1.0,0.0,0.0,2.0,7.0,5.0,3.0,1.0,2.0,4.0,4.0,3.0,2.0,1.0,6.0,5.0,4.7624001912772655,2.8277827464044094,1.9953734576702118,1.0611471645534039,7.666090392041951,6.250613883603364,253.2139046015218,386.1234053494409,386.931801549159,nan,395.65787192154676,396.6605130536482,387.9569282243028,395.64954026788473
1,87,1,1,nan,nan,nan,0.0,3,6,2,4,0,5,nan,nan,nan,nan,nan,nan,nan,nan,nan,nan,nan,nan,0.0,nan,nan,nan,nan,nan,nan,nan,nan,nan,nan,nan,nan,nan,nan,nan,nan,nan,nan,253.2139046015218,396.86638506734744,nan,nan,nan,nan,nan,nan
1,88,1,1,nan,nan,nan,0.0,8,2,0,6,5,7,nan,nan,nan,nan,nan,nan,nan,nan,nan,nan,nan,nan,0.0,nan,nan,nan,nan,nan,nan,nan,nan,nan,nan,nan,nan,nan,nan,nan,nan,nan,nan,253.2139046015218,397.8665130757727,nan,nan,nan,nan,nan,nan
1,89,1,1,nan,nan,nan,0.0,1,3,5,4,7,0,nan,nan,nan,nan,nan,nan,nan,nan,nan,nan,nan,nan,0.0,nan,nan,nan,nan,nan,nan,nan,nan,nan,nan,nan,nan,nan,nan,nan,nan,nan,nan,253.2139046015218,398.8749428023584,nan,nan,nan,nan,nan,nan
1,90,1,1,1.0,1.0,0.12709620594978333,0.0,0,5,6,1,2,8,nan,nan,nan,nan,nan,nan,nan,nan,nan,nan,nan,nan,0.0,nan,nan,nan,nan,nan,nan,nan,nan,nan,nan,nan,nan,nan,nan,nan,nan,nan,nan,253.2139046015218,399.88341614883393,nan,400.0105123547837,nan,nan,nan,nan
1,91,1,1,nan,nan,nan,0.0,7,1,2,6,4,5,nan,nan,nan,nan,nan,nan,nan,nan,nan,nan,nan,nan,0.0,nan,nan,nan,nan,nan,nan,nan,nan,nan,nan,nan,nan,nan,nan,nan,nan,nan,nan,253.2139046015218,400.89186412189156,nan,nan,nan,nan,nan,nan
1,92,0,0,nan,nan,nan,1.0,0,3,4,1,5,6,1.0,1.0,1.0,1.0,1.0,1.0,0.0,0.0,1.0,0.0,0.0,0.0,1.0,4.0,1.0,4.0,3.0,0.0,2.0,6.0,2.0,1.0,3.0,4.0,5.0,8.21677238540724,2.9611661806702614,1.8497360153123736,4.218524586874992,5.682133900001645,6.857028493192047,253.2139046015218,401.89200353389606,402.7004119926132,nan,411.9848870462738,412.9933717963286,403.72554465476424,411.97655653301626
1,93,1,1,nan,nan,nan,0.0,8,6,5,0,1,7,nan,nan,nan,nan,nan,nan,nan,nan,nan,nan,nan,nan,0.0,nan,nan,nan,nan,nan,nan,nan,nan,nan,nan,nan,nan,nan,nan,nan,nan,nan,nan,253.2139046015218,413.20176919316873,nan,nan,nan,nan,nan,nan
1,94,1,1,nan,nan,nan,0.0,5,3,2,1,4,0,nan,nan,nan,nan,nan,nan,nan,nan,nan,nan,nan,nan,0.0,nan,nan,nan,nan,nan,nan,nan,nan,nan,nan,nan,nan,nan,nan,nan,nan,nan,nan,253.2139046015218,414.21017497219145,nan,nan,nan,nan,nan,nan
1,95,1,1,nan,nan,nan,0.0,6,7,3,0,5,1,nan,nan,nan,nan,nan,nan,nan,nan,nan,nan,nan,nan,0.0,nan,nan,nan,nan,nan,nan,nan,nan,nan,nan,nan,nan,nan,nan,nan,nan,nan,nan,253.2139046015218,415.21863035764545,nan,nan,nan,nan,nan,nan
1,96,0,0,0.0,1.0,0.750972107052803,0.0,0,1,4,6,7,3,nan,nan,nan,nan,nan,nan,nan,nan,nan,nan,nan,nan,0.0,nan,nan,nan,nan,nan,nan,nan,nan,nan,nan,nan,nan,nan,nan,nan,nan,nan,nan,253.2139046015218,416.227099142503,nan,416.9780712495558,nan,nan,nan,nan
1,97,1,1,1.0,1.0,0.7745107961818576,0.0,3,5,2,8,0,1,nan,nan,nan,nan,nan,nan,nan,nan,nan,nan,nan,nan,0.0,nan,nan,nan,nan,nan,nan,nan,nan,nan,nan,nan,nan,nan,nan,nan,nan,nan,nan,253.2139046015218,417.2355550979264,nan,418.01006589410827,nan,nan,nan,nan
1,98,1,1,nan,nan,nan,0.0,4,2,7,6,8,0,nan,nan,nan,nan,nan,nan,nan,nan,nan,nan,nan,nan,0.0,nan,nan,nan,nan,nan,nan,nan,nan,nan,nan,nan,nan,nan,nan,nan,nan,nan,nan,253.2139046015218,418.2440073476173,nan,nan,nan,nan,nan,nan
1,99,0,0,1.0,0.0,0.7735426090657711,1.0,6,4,5,0,7,3,1.0,1.0,1.0,1.0,1.0,1.0,0.0,0.0,0.0,0.0,0.0,0.0,0.0,4.0,7.0,4.0,5.0,4.0,4.0,4.0,3.0,2.0,1.0,6.0,5.0,11.977530136704445,10.866789904423058,9.827041211072356,8.80101078050211,14.232494019437581,13.160791450180113,253.2139046015218,419.2524692900479,420.0608877269551,420.02601189911366,435.33777038147673,436.3460310464725,421.06935166521,435.3294321708381
1,100,1,1,1.0,1.0,0.6953535294160247,0.0,8,5,7,2,3,6,nan,nan,nan,nan,nan,nan,nan,nan,nan,nan,nan,nan,0.0,nan,nan,nan,nan,nan,nan,nan,nan,nan,nan,nan,nan,nan,nan,nan,nan,nan,nan,253.2139046015218,436.5462849531323,nan,437.2416384825483,nan,nan,nan,nan
1,101,1,1,1.0,1.0,0.6951933056116104,0.0,5,3,0,4,6,1,nan,nan,nan,nan,nan,nan,nan,nan,nan,nan,nan,nan,0.0,nan,nan,nan,nan,nan,nan,nan,nan,nan,nan,nan,nan,nan,nan,nan,nan,nan,nan,253.2139046015218,437.5463987062685,nan,438.24159201188013,nan,nan,nan,nan
1,102,1,1,nan,nan,nan,0.0,0,6,1,5,2,3,nan,nan,nan,nan,nan,nan,nan,nan,nan,nan,nan,nan,0.0,nan,nan,nan,nan,nan,nan,nan,nan,nan,nan,nan,nan,nan,nan,nan,nan,nan,nan,253.2139046015218,438.5465187318623,nan,nan,nan,nan,nan,nan
1,103,1,1,nan,nan,nan,0.0,6,5,8,7,4,1,nan,nan,nan,nan,nan,nan,nan,nan,nan,nan,nan,nan,0.0,nan,nan,nan,nan,nan,nan,nan,nan,nan,nan,nan,nan,nan,nan,nan,nan,nan,nan,253.2139046015218,439.54666384588927,nan,nan,nan,nan,nan,nan
1,104,1,1,nan,nan,nan,0.0,8,1,5,6,2,3,nan,nan,nan,nan,nan,nan,nan,nan,nan,nan,nan,nan,0.0,nan,nan,nan,nan,nan,nan,nan,nan,nan,nan,nan,nan,nan,nan,nan,nan,nan,nan,253.2139046015218,440.5467724679038,nan,nan,nan,nan,nan,nan
1,105,1,1,1.0,1.0,0.014700419269502163,0.0,7,8,3,4,5,1,nan,nan,nan,nan,nan,nan,nan,nan,nan,nan,nan,nan,0.0,nan,nan,nan,nan,nan,nan,nan,nan,nan,nan,nan,nan,nan,nan,nan,nan,nan,nan,253.2139046015218,441.5468560010195,nan,441.561556420289,nan,nan,nan,nan
1,106,1,1,1.0,1.0,0.6704381098970771,0.0,3,4,6,5,8,7,nan,nan,nan,nan,nan,nan,nan,nan,nan,nan,nan,nan,0.0,nan,nan,nan,nan,nan,nan,nan,nan,nan,nan,nan,nan,nan,nan,nan,nan,nan,nan,253.2139046015218,442.5470259184949,nan,443.217464028392,nan,nan,nan,nan
1,107,1,1,1.0,1.0,0.7103313477709889,0.0,2,7,5,3,4,6,nan,nan,nan,nan,nan,nan,nan,nan,nan,nan,nan,nan,0.0,nan,nan,nan,nan,nan,nan,nan,nan,nan,nan,nan,nan,nan,nan,nan,nan,nan,nan,253.2139046015218,443.5471362504177,nan,444.25746759818867,nan,nan,nan,nan
1,108,1,1,1.0,1.0,0.6861779908649623,0.0,7,0,6,5,3,1,nan,nan,nan,nan,nan,nan,nan,nan,nan,nan,nan,nan,0.0,nan,nan,nan,nan,nan,nan,nan,nan,nan,nan,nan,nan,nan,nan,nan,nan,nan,nan,253.2139046015218,444.547271956224,nan,445.23344994708896,nan,nan,nan,nan
1,109,1,1,1.0,1.0,0.7020122380927205,0.0,5,2,3,8,0,6,nan,nan,nan,nan,nan,nan,nan,nan,nan,nan,nan,nan,0.0,nan,nan,nan,nan,nan,nan,nan,nan,nan,nan,nan,nan,nan,nan,nan,nan,nan,nan,253.2139046015218,445.54739625845104,nan,446.24940849654377,nan,nan,nan,nan
1,110,1,1,1.0,1.0,0.7258816384710371,0.0,2,4,1,3,7,8,nan,nan,nan,nan,nan,nan,nan,nan,nan,nan,nan,nan,0.0,nan,nan,nan,nan,nan,nan,nan,nan,nan,nan,nan,nan,nan,nan,nan,nan,nan,nan,253.2139046015218,446.5475185648538,nan,447.27340020332485,nan,nan,nan,nan
1,111,1,1,1.0,1.0,0.6857158499769866,0.0,7,3,6,8,4,5,nan,nan,nan,nan,nan,nan,nan,nan,nan,nan,nan,nan,0.0,nan,nan,nan,nan,nan,nan,nan,nan,nan,nan,nan,nan,nan,nan,nan,nan,nan,nan,253.2139046015218,447.5476442920044,nan,448.2333601419814,nan,nan,nan,nan
1,112,1,1,1.0,1.0,0.7095878166146576,0.0,1,0,3,2,8,7,nan,nan,nan,nan,nan,nan,nan,nan,nan,nan,nan,nan,0.0,nan,nan,nan,nan,nan,nan,nan,nan,nan,nan,nan,nan,nan,nan,nan,nan,nan,nan,253.2139046015218,448.5477623217739,nan,449.2573501383886,nan,nan,nan,nan
1,113,1,1,1.0,1.0,0.6694225976243615,0.0,5,8,7,4,3,0,nan,nan,nan,nan,nan,nan,nan,nan,nan,nan,nan,nan,0.0,nan,nan,nan,nan,nan,nan,nan,nan,nan,nan,nan,nan,nan,nan,nan,nan,nan,nan,253.2139046015218,449.547901163809,nan,450.21732376143336,nan,nan,nan,nan
1,114,1,1,1.0,1.0,0.6052901893854141,0.0,6,3,2,0,5,4,nan,nan,nan,nan,nan,nan,nan,nan,nan,nan,nan,nan,0.0,nan,nan,nan,nan,nan,nan,nan,nan,nan,nan,nan,nan,nan,nan,nan,nan,nan,nan,253.2139046015218,450.5480160578154,nan,451.1533062472008,nan,nan,nan,nan
1,115,1,1,1.0,1.0,0.5491447541862726,0.0,5,1,7,2,0,6,nan,nan,nan,nan,nan,nan,nan,nan,nan,nan,nan,nan,0.0,nan,nan,nan,nan,nan,nan,nan,nan,nan,nan,nan,nan,nan,nan,nan,nan,nan,nan,253.2139046015218,451.54813351714984,nan,452.0972782713361,nan,nan,nan,nan
1,116,1,1,1.0,1.0,0.6689895363524556,0.0,7,5,2,6,4,8,nan,nan,nan,nan,nan,nan,nan,nan,nan,nan,nan,nan,0.0,nan,nan,nan,nan,nan,nan,nan,nan,nan,nan,nan,nan,nan,nan,nan,nan,nan,nan,253.2139046015218,452.5482581043616,nan,453.21724764071405,nan,nan,nan,nan
1,117,1,1,1.0,1.0,0.6768479296006262,0.0,6,0,7,1,8,5,nan,nan,nan,nan,nan,nan,nan,nan,nan,nan,nan,nan,0.0,nan,nan,nan,nan,nan,nan,nan,nan,nan,nan,nan,nan,nan,nan,nan,nan,nan,nan,253.2139046015218,453.5483778449707,nan,454.2252257745713,nan,nan,nan,nan
1,118,1,1,1.0,1.0,0.7087128558196127,0.0,5,3,6,4,7,8,nan,nan,nan,nan,nan,nan,nan,nan,nan,nan,nan,nan,0.0,nan,nan,nan,nan,nan,nan,nan,nan,nan,nan,nan,nan,nan,nan,nan,nan,nan,nan,253.2139046015218,454.5485061383806,nan,455.25721899420023,nan,nan,nan,nan
1,119,1,1,1.0,1.0,0.740552123170346,0.0,6,0,7,3,4,5,nan,nan,nan,nan,nan,nan,nan,nan,nan,nan,nan,nan,0.0,nan,nan,nan,nan,nan,nan,nan,nan,nan,nan,nan,nan,nan,nan,nan,nan,nan,nan,253.2139046015218,455.5486321505159,nan,456.28918427368626,nan,nan,nan,nan
1,120,1,1,1.0,1.0,0.7404035883955657,0.0,8,7,0,5,2,3,nan,nan,nan,nan,nan,nan,nan,nan,nan,nan,nan,nan,0.0,nan,nan,nan,nan,nan,nan,nan,nan,nan,nan,nan,nan,nan,nan,nan,nan,nan,nan,253.2139046015218,456.5487498953007,nan,457.2891534836963,nan,nan,nan,nan
1,121,0,0,0.0,1.0,0.6442916453815997,0.0,5,4,1,0,8,2,nan,nan,nan,nan,nan,nan,nan,nan,nan,nan,nan,nan,0.0,nan,nan,nan,nan,nan,nan,nan,nan,nan,nan,nan,nan,nan,nan,nan,nan,nan,nan,253.2139046015218,457.5488645043224,nan,458.193156149704,nan,nan,nan,nan
1,122,1,1,1.0,1.0,0.7321104221045971,0.0,6,2,7,3,4,8,nan,nan,nan,nan,nan,nan,nan,nan,nan,nan,nan,nan,0.0,nan,nan,nan,nan,nan,nan,nan,nan,nan,nan,nan,nan,nan,nan,nan,nan,nan,nan,253.2139046015218,458.5490016355179,nan,459.2811120576225,nan,nan,nan,nan
1,123,1,1,1.0,1.0,0.7079736012965441,0.0,0,3,8,7,5,6,nan,nan,nan,nan,nan,nan,nan,nan,nan,nan,nan,nan,0.0,nan,nan,nan,nan,nan,nan,nan,nan,nan,nan,nan,nan,nan,nan,nan,nan,nan,nan,253.2139046015218,459.5491128228605,nan,460.257086424157,nan,nan,nan,nan
1,124,1,1,1.0,1.0,0.6038302113302052,0.0,3,5,4,6,2,8,nan,nan,nan,nan,nan,nan,nan,nan,nan,nan,nan,nan,0.0,nan,nan,nan,nan,nan,nan,nan,nan,nan,nan,nan,nan,nan,nan,nan,nan,nan,nan,253.2139046015218,460.5492445374839,nan,461.1530747488141,nan,nan,nan,nan
1,125,1,1,1.0,1.0,0.61968356044963,0.0,1,8,3,0,5,6,nan,nan,nan,nan,nan,nan,nan,nan,nan,nan,nan,nan,0.0,nan,nan,nan,nan,nan,nan,nan,nan,nan,nan,nan,nan,nan,nan,nan,nan,nan,nan,253.2139046015218,461.5493622822687,nan,462.16904584271833,nan,nan,nan,nan
1,126,1,1,1.0,1.0,0.6035211673006415,0.0,6,4,1,5,8,7,nan,nan,nan,nan,nan,nan,nan,nan,nan,nan,nan,nan,0.0,nan,nan,nan,nan,nan,nan,nan,nan,nan,nan,nan,nan,nan,nan,nan,nan,nan,nan,253.2139046015218,462.5494982730597,nan,463.15301944036037,nan,nan,nan,nan
1,127,1,1,1.0,1.0,0.5874032489955425,0.0,1,5,6,0,7,2,nan,nan,nan,nan,nan,nan,nan,nan,nan,nan,nan,nan,0.0,nan,nan,nan,nan,nan,nan,nan,nan,nan,nan,nan,nan,nan,nan,nan,nan,nan,nan,253.2139046015218,463.54960689507425,nan,464.1370101440698,nan,nan,nan,nan
1,128,0,0,0.0,1.0,0.6672273557633162,1.0,6,3,4,1,2,7,1.0,1.0,1.0,1.0,1.0,1.0,0.0,1.0,1.0,1.0,0.0,1.0,4.0,4.0,3.0,4.0,1.0,5.0,7.0,4.0,3.0,2.0,1.0,6.0,5.0,4.30265393294394,3.199884992092848,2.3924575499258935,1.4570660684257746,9.765862970612943,6.2861365946009755,253.2139046015218,464.5497522940859,465.3581473529339,465.21697964984924,476.17616213066503,477.1859389375895,466.3749389536679,476.1678119460121
1,129,1,1,nan,nan,nan,0.0,4,7,1,8,6,0,nan,nan,nan,nan,nan,nan,nan,nan,nan,nan,nan,nan,0.0,nan,nan,nan,nan,nan,nan,nan,nan,nan,nan,nan,nan,nan,nan,nan,nan,nan,nan,253.2139046015218,477.39299951773137,nan,nan,nan,nan,nan,nan
1,130,1,1,nan,nan,nan,0.0,2,0,6,4,1,7,nan,nan,nan,nan,nan,nan,nan,nan,nan,nan,nan,nan,0.0,nan,nan,nan,nan,nan,nan,nan,nan,nan,nan,nan,nan,nan,nan,nan,nan,nan,nan,253.2139046015218,478.3931035781279,nan,nan,nan,nan,nan,nan
1,131,1,1,1.0,1.0,0.7833963916637003,0.0,0,8,4,2,7,6,nan,nan,nan,nan,nan,nan,nan,nan,nan,nan,nan,nan,0.0,nan,nan,nan,nan,nan,nan,nan,nan,nan,nan,nan,nan,nan,nan,nan,nan,nan,nan,253.2139046015218,479.39321818668395,nan,480.17661457834765,nan,nan,nan,nan
1,132,1,1,1.0,1.0,0.6869548782706261,0.0,8,3,6,7,5,4,nan,nan,nan,nan,nan,nan,nan,nan,nan,nan,nan,nan,0.0,nan,nan,nan,nan,nan,nan,nan,nan,nan,nan,nan,nan,nan,nan,nan,nan,nan,nan,253.2139046015218,480.40167642291635,nan,481.088631301187,nan,nan,nan,nan
1,133,1,1,1.0,1.0,0.5747703481465578,0.0,4,8,1,6,3,0,nan,nan,nan,nan,nan,nan,nan,nan,nan,nan,nan,nan,0.0,nan,nan,nan,nan,nan,nan,nan,nan,nan,nan,nan,nan,nan,nan,nan,nan,nan,nan,253.2139046015218,481.40181925613433,nan,481.9765896042809,nan,nan,nan,nan
1,134,1,1,1.0,1.0,0.5586529998108745,0.0,2,4,8,7,1,5,nan,nan,nan,nan,nan,nan,nan,nan,nan,nan,nan,nan,0.0,nan,nan,nan,nan,nan,nan,nan,nan,nan,nan,nan,nan,nan,nan,nan,nan,nan,nan,253.2139046015218,482.4019452687353,nan,482.96059826854616,nan,nan,nan,nan
1,135,1,1,1.0,1.0,0.47045190911740065,0.0,3,7,0,5,2,1,nan,nan,nan,nan,nan,nan,nan,nan,nan,nan,nan,nan,0.0,nan,nan,nan,nan,nan,nan,nan,nan,nan,nan,nan,nan,nan,nan,nan,nan,nan,nan,253.2139046015218,483.40209009777755,nan,483.87254200689495,nan,nan,nan,nan
1,136,1,1,1.0,1.0,0.4143358380533755,0.0,6,0,8,2,1,3,nan,nan,nan,nan,nan,nan,nan,nan,nan,nan,nan,nan,0.0,nan,nan,nan,nan,nan,nan,nan,nan,nan,nan,nan,nan,nan,nan,nan,nan,nan,nan,253.2139046015218,484.40218988154083,nan,484.8165257195942,nan,nan,nan,nan
1,137,1,1,1.0,1.0,0.5098735969513655,0.0,0,5,7,6,3,8,nan,nan,nan,nan,nan,nan,nan,nan,nan,nan,nan,nan,0.0,nan,nan,nan,nan,nan,nan,nan,nan,nan,nan,nan,nan,nan,nan,nan,nan,nan,nan,253.2139046015218,485.41062759095803,nan,485.9205011879094,nan,nan,nan,nan
1,138,1,1,1.0,1.0,0.3417186802253127,0.0,3,6,4,5,0,1,nan,nan,nan,nan,nan,nan,nan,nan,nan,nan,nan,nan,0.0,nan,nan,nan,nan,nan,nan,nan,nan,nan,nan,nan,nan,nan,nan,nan,nan,nan,nan,253.2139046015218,486.4107752707787,nan,486.752493951004,nan,nan,nan,nan
1,139,1,1,1.0,1.0,0.3335612202063203,0.0,0,4,3,1,2,6,nan,nan,nan,nan,nan,nan,nan,nan,nan,nan,nan,nan,0.0,nan,nan,nan,nan,nan,nan,nan,nan,nan,nan,nan,nan,nan,nan,nan,nan,nan,nan,253.2139046015218,487.4108930155635,nan,487.7444542357698,nan,nan,nan,nan
1,140,1,1,1.0,1.0,0.35740182641893625,0.0,2,7,1,5,4,8,nan,nan,nan,nan,nan,nan,nan,nan,nan,nan,nan,nan,0.0,nan,nan,nan,nan,nan,nan,nan,nan,nan,nan,nan,nan,nan,nan,nan,nan,nan,nan,253.2139046015218,488.4110235897824,nan,488.76842541620135,nan,nan,nan,nan
1,141,0,0,0.0,1.0,0.4532594629563391,1.0,5,8,0,3,6,2,1.0,1.0,1.0,1.0,1.0,1.0,1.0,0.0,0.0,1.0,0.0,0.0,2.0,5.0,0.0,8.0,3.0,1.0,7.0,4.0,3.0,2.0,1.0,6.0,5.0,3.6809037094935775,2.4893783102743328,1.8020955715328455,0.8108742563053966,5.560192234814167,4.62443383410573,253.2139046015218,489.4111450407654,490.2195466570556,489.86440450372174,496.8370158742182,497.8399184397422,491.236343389377,496.82868678634986
1,142,1,1,1.0,1.0,0.7146571134217083,0.0,8,0,5,6,7,1,nan,nan,nan,nan,nan,nan,nan,nan,nan,nan,nan,nan,0.0,nan,nan,nan,nan,nan,nan,nan,nan,nan,nan,nan,nan,nan,nan,nan,nan,nan,nan,253.2139046015218,498.04554897686467,nan,498.7602060902864,nan,nan,nan,nan
1,143,0,0,0.0,1.0,0.6265301476232708,0.0,3,4,0,2,8,7,nan,nan,nan,nan,nan,nan,nan,nan,nan,nan,nan,nan,0.0,nan,nan,nan,nan,nan,nan,nan,nan,nan,nan,nan,nan,nan,nan,nan,nan,nan,nan,253.2139046015218,499.0456786956638,nan,499.6722088432871,nan,nan,nan,nan
1,144,1,1,1.0,1.0,0.6983969318680465,0.0,6,5,2,7,1,0,nan,nan,nan,nan,nan,nan,nan,nan,nan,nan,nan,nan,0.0,nan,nan,nan,nan,nan,nan,nan,nan,nan,nan,nan,nan,nan,nan,nan,nan,nan,nan,253.2139046015218,500.04578760266304,nan,500.7441845345311,nan,nan,nan,nan
1,145,1,1,1.0,1.0,0.7622228618711233,0.0,2,8,6,1,3,7,nan,nan,nan,nan,nan,nan,nan,nan,nan,nan,nan,nan,0.0,nan,nan,nan,nan,nan,nan,nan,nan,nan,nan,nan,nan,nan,nan,nan,nan,nan,nan,253.2139046015218,501.04590962361544,nan,501.80813248548657,nan,nan,nan,nan
1,146,1,1,1.0,1.0,0.7460969602689147,0.0,7,3,2,6,8,5,nan,nan,nan,nan,nan,nan,nan,nan,nan,nan,nan,nan,0.0,nan,nan,nan,nan,nan,nan,nan,nan,nan,nan,nan,nan,nan,nan,nan,nan,nan,nan,253.2139046015218,502.04600142501295,nan,502.79209838528186,nan,nan,nan,nan
1,147,1,1,1.0,1.0,0.697585548274219,0.0,5,1,8,2,7,4,nan,nan,nan,nan,nan,nan,nan,nan,nan,nan,nan,nan,0.0,nan,nan,nan,nan,nan,nan,nan,nan,nan,nan,nan,nan,nan,nan,nan,nan,nan,nan,253.2139046015218,503.0544898812659,nan,503.7520754295401,nan,nan,nan,nan
1,148,1,1,1.0,1.0,0.7054428015835583,0.0,3,6,5,4,0,8,nan,nan,nan,nan,nan,nan,nan,nan,nan,nan,nan,nan,0.0,nan,nan,nan,nan,nan,nan,nan,nan,nan,nan,nan,nan,nan,nan,nan,nan,nan,nan,253.2139046015218,504.05461560888216,nan,504.7600584104657,nan,nan,nan,nan
1,149,1,1,1.0,1.0,0.6332932012155652,0.0,8,3,0,7,1,4,nan,nan,nan,nan,nan,nan,nan,nan,nan,nan,nan,nan,0.0,nan,nan,nan,nan,nan,nan,nan,nan,nan,nan,nan,nan,nan,nan,nan,nan,nan,nan,253.2139046015218,505.054743331857,nan,505.6880365330726,nan,nan,nan,nan
1,150,1,1,1.0,1.0,0.505167227704078,0.0,1,0,4,2,7,6,nan,nan,nan,nan,nan,nan,nan,nan,nan,nan,nan,nan,0.0,nan,nan,nan,nan,nan,nan,nan,nan,nan,nan,nan,nan,nan,nan,nan,nan,nan,nan,253.2139046015218,506.05485138343647,nan,506.56001861114055,nan,nan,nan,nan
1,151,1,1,1.0,1.0,0.5366589622572064,0.0,4,6,1,3,2,8,nan,nan,nan,nan,nan,nan,nan,nan,nan,nan,nan,nan,0.0,nan,nan,nan,nan,nan,nan,nan,nan,nan,nan,nan,nan,nan,nan,nan,nan,nan,nan,253.2139046015218,507.0633230195381,nan,507.5999819817953,nan,nan,nan,nan
1,152,1,1,1.0,1.0,0.4245271752588451,0.0,2,1,4,8,6,0,nan,nan,nan,nan,nan,nan,nan,nan,nan,nan,nan,nan,0.0,nan,nan,nan,nan,nan,nan,nan,nan,nan,nan,nan,nan,nan,nan,nan,nan,nan,nan,253.2139046015218,508.06343192607164,nan,508.4879591013305,nan,nan,nan,nan
1,153,1,1,1.0,1.0,0.5763908349908888,0.0,3,4,8,1,0,6,nan,nan,nan,nan,nan,nan,nan,nan,nan,nan,nan,nan,0.0,nan,nan,nan,nan,nan,nan,nan,nan,nan,nan,nan,nan,nan,nan,nan,nan,nan,nan,253.2139046015218,509.0635596495122,nan,509.63995048450306,nan,nan,nan,nan
1,154,1,1,1.0,1.0,0.5122518697753549,0.0,2,7,4,8,1,5,nan,nan,nan,nan,nan,nan,nan,nan,nan,nan,nan,nan,0.0,nan,nan,nan,nan,nan,nan,nan,nan,nan,nan,nan,nan,nan,nan,nan,nan,nan,nan,253.2139046015218,510.063694214914,nan,510.57594608468935,nan,nan,nan,nan
1,155,1,1,1.0,1.0,0.49605441000312567,0.0,6,1,7,2,5,4,nan,nan,nan,nan,nan,nan,nan,nan,nan,nan,nan,nan,0.0,nan,nan,nan,nan,nan,nan,nan,nan,nan,nan,nan,nan,nan,nan,nan,nan,nan,nan,253.2139046015218,511.0638398989104,nan,511.5598943089135,nan,nan,nan,nan
1,156,1,1,1.0,1.0,0.4639351782388985,0.0,8,5,1,0,4,6,nan,nan,nan,nan,nan,nan,nan,nan,nan,nan,nan,nan,0.0,nan,nan,nan,nan,nan,nan,nan,nan,nan,nan,nan,nan,nan,nan,nan,nan,nan,nan,253.2139046015218,512.0639439593069,nan,512.5278791375458,nan,nan,nan,nan
1,157,0,0,0.0,1.0,0.5354624134488404,1.0,7,3,6,8,0,2,1.0,1.0,1.0,1.0,1.0,1.0,1.0,1.0,1.0,1.0,0.0,1.0,5.0,7.0,3.0,6.0,8.0,2.0,2.0,4.0,3.0,2.0,1.0,6.0,5.0,3.123376269824803,2.299486798234284,1.5000503193587065,0.8275415548123419,5.074318042490631,4.3068585325963795,253.2139046015218,513.0723842345178,513.8807909823954,513.6078466479667,520.0232219472528,521.0209622741677,514.905927636195,520.014887157362
1,158,1,1,1.0,1.0,0.7122742785140872,0.0,3,2,0,5,6,1,nan,nan,nan,nan,nan,nan,nan,nan,nan,nan,nan,nan,0.0,nan,nan,nan,nan,nan,nan,nan,nan,nan,nan,nan,nan,nan,nan,nan,nan,nan,nan,253.2139046015218,521.2233934612013,nan,521.9356677397154,nan,nan,nan,nan
1,159,1,1,1.0,1.0,0.7441155412234366,0.0,0,6,1,3,7,2,nan,nan,nan,nan,nan,nan,nan,nan,nan,nan,nan,nan,0.0,nan,nan,nan,nan,nan,nan,nan,nan,nan,nan,nan,nan,nan,nan,nan,nan,nan,nan,253.2139046015218,522.2235280266032,nan,522.9676435678266,nan,nan,nan,nan
1,160,1,1,1.0,1.0,0.7276384024880826,0.0,3,4,7,1,8,5,nan,nan,nan,nan,nan,nan,nan,nan,nan,nan,nan,nan,0.0,nan,nan,nan,nan,nan,nan,nan,nan,nan,nan,nan,nan,nan,nan,nan,nan,nan,nan,253.2139046015218,523.2319640251808,nan,523.9596024276689,nan,nan,nan,nan
1,161,1,1,nan,nan,nan,0.0,4,1,8,6,3,0,nan,nan,nan,nan,nan,nan,nan,nan,nan,nan,nan,nan,0.0,nan,nan,nan,nan,nan,nan,nan,nan,nan,nan,nan,nan,nan,nan,nan,nan,nan,nan,253.2139046015218,524.2404288188554,nan,nan,nan,nan,nan,nan
1,162,1,1,1.0,1.0,0.7106723226606846,0.0,1,2,6,3,5,7,nan,nan,nan,nan,nan,nan,nan,nan,nan,nan,nan,nan,0.0,nan,nan,nan,nan,nan,nan,nan,nan,nan,nan,nan,nan,nan,nan,nan,nan,nan,nan,253.2139046015218,525.2488779323176,nan,525.9595502549782,nan,nan,nan,nan
1,163,1,1,1.0,1.0,0.5985308419913054,0.0,5,4,2,1,7,3,nan,nan,nan,nan,nan,nan,nan,nan,nan,nan,nan,nan,0.0,nan,nan,nan,nan,nan,nan,nan,nan,nan,nan,nan,nan,nan,nan,nan,nan,nan,nan,253.2139046015218,526.2490187697113,nan,526.8475496117026,nan,nan,nan,nan
1,164,1,1,1.0,1.0,0.5983803109265864,0.0,7,1,0,2,3,4,nan,nan,nan,nan,nan,nan,nan,nan,nan,nan,nan,nan,0.0,nan,nan,nan,nan,nan,nan,nan,nan,nan,nan,nan,nan,nan,nan,nan,nan,nan,nan,253.2139046015218,527.2491527651437,nan,527.8475330760702,nan,nan,nan,nan
1,165,0,0,0.0,1.0,0.6302150166593492,1.0,0,2,1,7,8,5,1.0,1.0,1.0,1.0,1.0,1.0,0.0,1.0,1.0,1.0,0.0,0.0,3.0,8.0,2.0,1.0,7.0,3.0,0.0,4.0,3.0,2.0,1.0,6.0,5.0,3.729088401887566,2.2420535827986896,1.6087449863553047,0.8728707227855921,7.4571390533819795,4.641691567376256,253.2139046015218,528.2492802031338,529.0576632879674,528.8794952197932,537.5753941382281,538.5861531016417,530.0828047883697,537.5670556426048
1,166,1,1,nan,nan,nan,0.0,6,8,7,1,4,3,nan,nan,nan,nan,nan,nan,nan,nan,nan,nan,nan,nan,0.0,nan,nan,nan,nan,nan,nan,nan,nan,nan,nan,nan,nan,nan,nan,nan,nan,nan,nan,253.2139046015218,538.7922309553251,nan,nan,nan,nan,nan,nan
1,167,0,0,0.0,1.0,0.6948417816311121,0.0,7,5,4,3,6,8,nan,nan,nan,nan,nan,nan,nan,nan,nan,nan,nan,nan,0.0,nan,nan,nan,nan,nan,nan,nan,nan,nan,nan,nan,nan,nan,nan,nan,nan,nan,nan,253.2139046015218,539.7923649502918,nan,540.4872067319229,nan,nan,nan,nan
1,168,1,1,1.0,1.0,0.7187200202606618,0.0,3,6,8,7,4,2,nan,nan,nan,nan,nan,nan,nan,nan,nan,nan,nan,nan,0.0,nan,nan,nan,nan,nan,nan,nan,nan,nan,nan,nan,nan,nan,nan,nan,nan,nan,nan,253.2139046015218,540.7924892525189,nan,541.5112092727795,nan,nan,nan,nan
1,169,1,1,1.0,1.0,0.7025778689421713,0.0,7,3,2,1,6,8,nan,nan,nan,nan,nan,nan,nan,nan,nan,nan,nan,nan,0.0,nan,nan,nan,nan,nan,nan,nan,nan,nan,nan,nan,nan,nan,nan,nan,nan,nan,nan,253.2139046015218,541.7925964486785,nan,542.4951743176207,nan,nan,nan,nan
1,170,1,1,1.0,1.0,0.6704426719807088,0.0,3,6,4,8,5,2,nan,nan,nan,nan,nan,nan,nan,nan,nan,nan,nan,nan,0.0,nan,nan,nan,nan,nan,nan,nan,nan,nan,nan,nan,nan,nan,nan,nan,nan,nan,nan,253.2139046015218,542.7927204654552,nan,543.4631631374359,nan,nan,nan,nan
1,171,1,1,nan,nan,nan,0.0,7,8,2,0,4,3,nan,nan,nan,nan,nan,nan,nan,nan,nan,nan,nan,nan,0.0,nan,nan,nan,nan,nan,nan,nan,nan,nan,nan,nan,nan,nan,nan,nan,nan,nan,nan,253.2139046015218,543.7928373548202,nan,nan,nan,nan,nan,nan
1,172,1,1,1.0,1.0,0.710126078221947,0.0,2,3,1,5,7,4,nan,nan,nan,nan,nan,nan,nan,nan,nan,nan,nan,nan,0.0,nan,nan,nan,nan,nan,nan,nan,nan,nan,nan,nan,nan,nan,nan,nan,nan,nan,nan,253.2139046015218,544.7929599462077,nan,545.5030860244296,nan,nan,nan,nan
1,173,1,1,1.0,1.0,0.64600136782974,0.0,4,0,2,1,6,8,nan,nan,nan,nan,nan,nan,nan,nan,nan,nan,nan,nan,0.0,nan,nan,nan,nan,nan,nan,nan,nan,nan,nan,nan,nan,nan,nan,nan,nan,nan,nan,253.2139046015218,545.7930873846635,nan,546.4390887524933,nan,nan,nan,nan
1,174,1,1,1.0,1.0,0.5898547917604446,0.0,5,8,7,4,2,0,nan,nan,nan,nan,nan,nan,nan,nan,nan,nan,nan,nan,0.0,nan,nan,nan,nan,nan,nan,nan,nan,nan,nan,nan,nan,nan,nan,nan,nan,nan,nan,253.2139046015218,546.7932230904698,nan,547.3830778822303,nan,nan,nan,nan
1,175,1,1,1.0,1.0,0.6536981123499572,0.0,3,0,2,6,1,8,nan,nan,nan,nan,nan,nan,nan,nan,nan,nan,nan,nan,0.0,nan,nan,nan,nan,nan,nan,nan,nan,nan,nan,nan,nan,nan,nan,nan,nan,nan,nan,253.2139046015218,547.793341405224,nan,548.447039517574,nan,nan,nan,nan
1,176,1,1,1.0,1.0,0.6055983789265156,0.0,7,5,8,0,6,3,nan,nan,nan,nan,nan,nan,nan,nan,nan,nan,nan,nan,0.0,nan,nan,nan,nan,nan,nan,nan,nan,nan,nan,nan,nan,nan,nan,nan,nan,nan,nan,253.2139046015218,548.7934309253469,nan,549.3990293042734,nan,nan,nan,nan
1,177,1,1,1.0,1.0,0.5174118275754154,0.0,3,8,7,5,2,0,nan,nan,nan,nan,nan,nan,nan,nan,nan,nan,nan,nan,0.0,nan,nan,nan,nan,nan,nan,nan,nan,nan,nan,nan,nan,nan,nan,nan,nan,nan,nan,253.2139046015218,549.7935977065936,nan,550.311009534169,nan,nan,nan,nan
1,178,1,1,1.0,1.0,0.4772694162093103,0.0,8,1,2,6,4,5,nan,nan,nan,nan,nan,nan,nan,nan,nan,nan,nan,nan,0.0,nan,nan,nan,nan,nan,nan,nan,nan,nan,nan,nan,nan,nan,nan,nan,nan,nan,nan,253.2139046015218,550.7937185876071,nan,551.2709880038165,nan,nan,nan,nan
1,179,1,1,1.0,1.0,0.5651172725483775,0.0,0,2,6,1,8,3,nan,nan,nan,nan,nan,nan,nan,nan,nan,nan,nan,nan,0.0,nan,nan,nan,nan,nan,nan,nan,nan,nan,nan,nan,nan,nan,nan,nan,nan,nan,nan,253.2139046015218,551.7938334816135,nan,552.3589507541619,nan,nan,nan,nan
1,180,1,1,1.0,1.0,0.4529792135581374,0.0,8,5,1,7,6,2,nan,nan,nan,nan,nan,nan,nan,nan,nan,nan,nan,nan,0.0,nan,nan,nan,nan,nan,nan,nan,nan,nan,nan,nan,nan,nan,nan,nan,nan,nan,nan,253.2139046015218,552.7939640553668,nan,553.246943268925,nan,nan,nan,nan
1,181,1,1,1.0,1.0,0.38050688384100795,0.0,6,8,7,2,1,0,nan,nan,nan,nan,nan,nan,nan,nan,nan,nan,nan,nan,0.0,nan,nan,nan,nan,nan,nan,nan,nan,nan,nan,nan,nan,nan,nan,nan,nan,nan,nan,253.2139046015218,553.8024154496379,nan,554.1829223334789,nan,nan,nan,nan
1,182,1,1,1.0,1.0,0.41234158957377076,0.0,7,1,3,6,0,2,nan,nan,nan,nan,nan,nan,nan,nan,nan,nan,nan,nan,0.0,nan,nan,nan,nan,nan,nan,nan,nan,nan,nan,nan,nan,nan,nan,nan,nan,nan,nan,253.2139046015218,554.8025448834524,nan,555.2148864730261,nan,nan,nan,nan
1,183,1,1,1.0,1.0,0.4521889267489314,0.0,8,2,6,7,3,4,nan,nan,nan,nan,nan,nan,nan,nan,nan,nan,nan,nan,0.0,nan,nan,nan,nan,nan,nan,nan,nan,nan,nan,nan,nan,nan,nan,nan,nan,nan,nan,253.2139046015218,555.8026743168011,nan,556.2548632435501,nan,nan,nan,nan
1,184,1,1,1.0,1.0,0.4277302320115268,0.0,5,6,7,2,8,3,nan,nan,nan,nan,nan,nan,nan,nan,nan,nan,nan,nan,0.0,nan,nan,nan,nan,nan,nan,nan,nan,nan,nan,nan,nan,nan,nan,nan,nan,nan,nan,253.2139046015218,556.8111177282408,nan,557.2388479602523,nan,nan,nan,nan
1,185,1,1,1.0,1.0,0.5232483185827732,0.0,8,7,0,5,4,1,nan,nan,nan,nan,nan,nan,nan,nan,nan,nan,nan,nan,0.0,nan,nan,nan,nan,nan,nan,nan,nan,nan,nan,nan,nan,nan,nan,nan,nan,nan,nan,253.2139046015218,557.8195753945038,nan,558.3428237130865,nan,nan,nan,nan
1,186,1,1,1.0,1.0,0.49109116895124316,0.0,7,2,5,0,1,6,nan,nan,nan,nan,nan,nan,nan,nan,nan,nan,nan,nan,0.0,nan,nan,nan,nan,nan,nan,nan,nan,nan,nan,nan,nan,nan,nan,nan,nan,nan,nan,253.2139046015218,558.8197039728984,nan,559.3107951418497,nan,nan,nan,nan
1,187,1,1,1.0,1.0,0.5149400429800153,0.0,6,1,8,4,7,0,nan,nan,nan,nan,nan,nan,nan,nan,nan,nan,nan,nan,0.0,nan,nan,nan,nan,nan,nan,nan,nan,nan,nan,nan,nan,nan,nan,nan,nan,nan,nan,253.2139046015218,559.8198325512931,nan,560.3347725942731,nan,nan,nan,nan
1,188,1,1,1.0,1.0,0.4827843187376857,0.0,3,5,0,7,4,8,nan,nan,nan,nan,nan,nan,nan,nan,nan,nan,nan,nan,0.0,nan,nan,nan,nan,nan,nan,nan,nan,nan,nan,nan,nan,nan,nan,nan,nan,nan,nan,253.2139046015218,560.8199588488787,nan,561.3027431676164,nan,nan,nan,nan
1,189,0,0,0.0,1.0,0.6106585524976254,0.0,1,3,4,2,7,0,nan,nan,nan,nan,nan,nan,nan,nan,nan,nan,nan,nan,0.0,nan,nan,nan,nan,nan,nan,nan,nan,nan,nan,nan,nan,nan,nan,nan,nan,nan,nan,253.2139046015218,561.8200646196492,nan,562.4307231721468,nan,nan,nan,nan
1,190,1,1,1.0,1.0,0.7305004834197462,0.0,0,4,7,5,8,6,nan,nan,nan,nan,nan,nan,nan,nan,nan,nan,nan,nan,0.0,nan,nan,nan,nan,nan,nan,nan,nan,nan,nan,nan,nan,nan,nan,nan,nan,nan,nan,253.2139046015218,562.8201909177005,nan,563.5506914011203,nan,nan,nan,nan
1,191,1,1,1.0,1.0,0.5223491247743368,0.0,4,8,6,0,3,5,nan,nan,nan,nan,nan,nan,nan,nan,nan,nan,nan,nan,0.0,nan,nan,nan,nan,nan,nan,nan,nan,nan,nan,nan,nan,nan,nan,nan,nan,nan,nan,253.2139046015218,563.8203328954987,nan,564.3426820202731,nan,nan,nan,nan
1,192,0,0,0.0,1.0,0.7942115194164217,1.0,8,5,7,6,2,0,1.0,1.0,1.0,1.0,1.0,1.0,0.0,1.0,1.0,1.0,0.0,0.0,3.0,6.0,5.0,7.0,6.0,4.0,4.0,4.0,3.0,2.0,1.0,6.0,5.0,5.149390164762735,3.022358105517924,2.1825545597821474,1.326733449473977,7.581360918469727,6.397720142267644,253.2139046015218,564.8204369554296,565.6288516861387,565.614648474846,574.263244504109,575.2609586017206,566.6456532650627,574.2549205478281
1,193,1,1,1.0,1.0,0.6709892014041543,0.0,6,3,4,0,7,1,nan,nan,nan,nan,nan,nan,nan,nan,nan,nan,nan,nan,0.0,nan,nan,nan,nan,nan,nan,nan,nan,nan,nan,nan,nan,nan,nan,nan,nan,nan,nan,253.2139046015218,575.4634319832548,nan,576.134421184659,nan,nan,nan,nan
1,194,1,1,1.0,1.0,0.4548631296493113,0.0,1,5,6,2,4,7,nan,nan,nan,nan,nan,nan,nan,nan,nan,nan,nan,nan,0.0,nan,nan,nan,nan,nan,nan,nan,nan,nan,nan,nan,nan,nan,nan,nan,nan,nan,nan,253.2139046015218,576.4635180821642,nan,576.9183812118135,nan,nan,nan,nan
1,195,1,1,1.0,1.0,0.5586735266260803,0.0,0,8,2,7,6,3,nan,nan,nan,nan,nan,nan,nan,nan,nan,nan,nan,nan,0.0,nan,nan,nan,nan,nan,nan,nan,nan,nan,nan,nan,nan,nan,nan,nan,nan,nan,nan,253.2139046015218,577.4636902804486,nan,578.0223638070747,nan,nan,nan,nan
1,196,1,1,1.0,1.0,0.5665438948199153,0.0,5,4,0,8,3,2,nan,nan,nan,nan,nan,nan,nan,nan,nan,nan,nan,nan,0.0,nan,nan,nan,nan,nan,nan,nan,nan,nan,nan,nan,nan,nan,nan,nan,nan,nan,nan,253.2139046015218,578.463793199975,nan,579.030337094795,nan,nan,nan,nan
1,197,1,1,1.0,1.0,0.4943914436735213,0.0,4,2,7,0,8,6,nan,nan,nan,nan,nan,nan,nan,nan,nan,nan,nan,nan,0.0,nan,nan,nan,nan,nan,nan,nan,nan,nan,nan,nan,nan,nan,nan,nan,nan,nan,nan,253.2139046015218,579.4639166467823,nan,579.9583080904558,nan,nan,nan,nan
1,198,1,1,1.0,1.0,0.4622824750840664,0.0,5,7,0,6,3,1,nan,nan,nan,nan,nan,nan,nan,nan,nan,nan,nan,nan,0.0,nan,nan,nan,nan,nan,nan,nan,nan,nan,nan,nan,nan,nan,nan,nan,nan,nan,nan,253.2139046015218,580.4640164305456,nan,580.9262989056297,nan,nan,nan,nan
1,199,0,0,0.0,1.0,0.670095139183104,0.0,8,6,2,4,7,3,nan,nan,nan,nan,nan,nan,nan,nan,nan,nan,nan,nan,0.0,nan,nan,nan,nan,nan,nan,nan,nan,nan,nan,nan,nan,nan,nan,nan,nan,nan,nan,253.2139046015218,581.4641815014184,nan,582.1342766406015,nan,nan,nan,nan
1,200,1,1,1.0,1.0,0.6059829732403159,0.0,5,0,3,7,6,8,nan,nan,nan,nan,nan,nan,nan,nan,nan,nan,nan,nan,0.0,nan,nan,nan,nan,nan,nan,nan,nan,nan,nan,nan,nan,nan,nan,nan,nan,nan,nan,253.2139046015218,582.464276438579,nan,583.0702594118193,nan,nan,nan,nan
1,201,1,1,1.0,1.0,0.757826391607523,0.0,2,1,5,4,3,0,nan,nan,nan,nan,nan,nan,nan,nan,nan,nan,nan,nan,0.0,nan,nan,nan,nan,nan,nan,nan,nan,nan,nan,nan,nan,nan,nan,nan,nan,nan,nan,253.2139046015218,583.4644061573781,nan,584.2222325489856,nan,nan,nan,nan
1,202,1,1,1.0,1.0,0.5416404493153095,0.0,0,7,4,1,8,3,nan,nan,nan,nan,nan,nan,nan,nan,nan,nan,nan,nan,0.0,nan,nan,nan,nan,nan,nan,nan,nan,nan,nan,nan,nan,nan,nan,nan,nan,nan,nan,253.2139046015218,584.4645549776033,nan,585.0061954269186,nan,nan,nan,nan
1,203,1,1,1.0,1.0,0.41352587984874845,0.0,4,2,3,6,1,8,nan,nan,nan,nan,nan,nan,nan,nan,nan,nan,nan,nan,0.0,nan,nan,nan,nan,nan,nan,nan,nan,nan,nan,nan,nan,nan,nan,nan,nan,nan,nan,253.2139046015218,585.4646638841368,nan,585.8781897639856,nan,nan,nan,nan
1,204,1,1,1.0,1.0,0.37335210759192705,0.0,7,4,5,8,3,2,nan,nan,nan,nan,nan,nan,nan,nan,nan,nan,nan,nan,0.0,nan,nan,nan,nan,nan,nan,nan,nan,nan,nan,nan,nan,nan,nan,nan,nan,nan,nan,253.2139046015218,586.4648047219962,nan,586.8381568295881,nan,nan,nan,nan
1,205,1,1,1.0,1.0,0.3412069324404001,0.0,3,5,4,0,2,1,nan,nan,nan,nan,nan,nan,nan,nan,nan,nan,nan,nan,0.0,nan,nan,nan,nan,nan,nan,nan,nan,nan,nan,nan,nan,nan,nan,nan,nan,nan,nan,253.2139046015218,587.4649233217351,nan,587.8061302541755,nan,nan,nan,nan
1,206,1,1,1.0,1.0,0.2850891510024667,0.0,1,0,2,7,4,6,nan,nan,nan,nan,nan,nan,nan,nan,nan,nan,nan,nan,0.0,nan,nan,nan,nan,nan,nan,nan,nan,nan,nan,nan,nan,nan,nan,nan,nan,nan,nan,253.2139046015218,588.4650333691388,nan,588.7501225201413,nan,nan,nan,nan
1,207,1,1,1.0,1.0,0.4209235575981438,0.0,0,1,4,8,6,3,nan,nan,nan,nan,nan,nan,nan,nan,nan,nan,nan,nan,0.0,nan,nan,nan,nan,nan,nan,nan,nan,nan,nan,nan,nan,nan,nan,nan,nan,nan,nan,253.2139046015218,589.4651616625488,nan,589.8860852201469,nan,nan,nan,nan
1,208,1,1,1.0,1.0,0.44477186165750027,0.0,1,2,3,6,7,5,nan,nan,nan,nan,nan,nan,nan,nan,nan,nan,nan,nan,0.0,nan,nan,nan,nan,nan,nan,nan,nan,nan,nan,nan,nan,nan,nan,nan,nan,nan,nan,253.2139046015218,590.4652959425002,nan,590.9100678041577,nan,nan,nan,nan
1,209,0,0,0.0,1.0,0.5323086781427264,0.0,0,8,6,3,5,7,nan,nan,nan,nan,nan,nan,nan,nan,nan,nan,nan,nan,0.0,nan,nan,nan,nan,nan,nan,nan,nan,nan,nan,nan,nan,nan,nan,nan,nan,nan,nan,253.2139046015218,591.4737245291471,nan,592.0060332072899,nan,nan,nan,nan
1,210,1,1,1.0,1.0,0.5961460112594068,0.0,3,1,2,5,8,4,nan,nan,nan,nan,nan,nan,nan,nan,nan,nan,nan,nan,0.0,nan,nan,nan,nan,nan,nan,nan,nan,nan,nan,nan,nan,nan,nan,nan,nan,nan,nan,253.2139046015218,592.4738551033661,nan,593.0700011146255,nan,nan,nan,nan
1,211,0,0,0.0,1.0,0.6920170476660132,1.0,7,6,5,4,0,8,1.0,1.0,1.0,1.0,1.0,1.0,1.0,1.0,0.0,1.0,0.0,0.0,3.0,7.0,6.0,4.0,4.0,1.0,1.0,4.0,3.0,2.0,1.0,6.0,5.0,4.143743263091892,3.0165640939958394,1.5769980903714895,0.7913437359966338,6.926840588916093,6.046507470775396,253.2139046015218,593.4739628694952,594.282390714623,594.1659799171612,602.2750437837094,603.2779340897687,595.307517960202,602.2667104192078
1,212,1,1,nan,nan,nan,0.0,2,8,0,3,4,1,nan,nan,nan,nan,nan,nan,nan,nan,nan,nan,nan,nan,0.0,nan,nan,nan,nan,nan,nan,nan,nan,nan,nan,nan,nan,nan,nan,nan,nan,nan,nan,253.2139046015218,603.4835754609667,nan,nan,nan,nan,nan,nan
1,213,1,1,1.0,1.0,0.7540172203443944,0.0,8,4,6,2,7,0,nan,nan,nan,nan,nan,nan,nan,nan,nan,nan,nan,nan,0.0,nan,nan,nan,nan,nan,nan,nan,nan,nan,nan,nan,nan,nan,nan,nan,nan,nan,nan,253.2139046015218,604.4836806613021,nan,605.2376978816465,nan,nan,nan,nan
1,214,1,1,1.0,1.0,0.6338847759179771,0.0,1,8,2,6,5,3,nan,nan,nan,nan,nan,nan,nan,nan,nan,nan,nan,nan,0.0,nan,nan,nan,nan,nan,nan,nan,nan,nan,nan,nan,nan,nan,nan,nan,nan,nan,nan,253.2139046015218,605.4838140862994,nan,606.1176988622174,nan,nan,nan,nan
1,215,1,1,1.0,1.0,0.5457840389572084,0.0,7,3,6,1,4,0,nan,nan,nan,nan,nan,nan,nan,nan,nan,nan,nan,nan,0.0,nan,nan,nan,nan,nan,nan,nan,nan,nan,nan,nan,nan,nan,nan,nan,nan,nan,nan,253.2139046015218,606.4839078830555,nan,607.0296919220127,nan,nan,nan,nan
1,216,1,1,1.0,1.0,0.40961464401334524,0.0,1,4,8,6,3,7,nan,nan,nan,nan,nan,nan,nan,nan,nan,nan,nan,nan,0.0,nan,nan,nan,nan,nan,nan,nan,nan,nan,nan,nan,nan,nan,nan,nan,nan,nan,nan,253.2139046015218,607.4840535670519,nan,607.8936682110652,nan,nan,nan,nan
1,217,1,1,1.0,1.0,0.4814774370752275,0.0,3,0,6,5,2,4,nan,nan,nan,nan,nan,nan,nan,nan,nan,nan,nan,nan,0.0,nan,nan,nan,nan,nan,nan,nan,nan,nan,nan,nan,nan,nan,nan,nan,nan,nan,nan,253.2139046015218,608.4841718822718,nan,608.965649319347,nan,nan,nan,nan
1,218,1,1,1.0,1.0,0.37733233720064163,0.0,7,4,5,1,0,3,nan,nan,nan,nan,nan,nan,nan,nan,nan,nan,nan,nan,0.0,nan,nan,nan,nan,nan,nan,nan,nan,nan,nan,nan,nan,nan,nan,nan,nan,nan,nan,253.2139046015218,609.4842987498268,nan,609.8616310870275,nan,nan,nan,nan
1,219,1,1,1.0,1.0,0.6811608667485416,0.0,1,2,3,6,8,0,nan,nan,nan,nan,nan,nan,nan,nan,nan,nan,nan,nan,0.0,nan,nan,nan,nan,nan,nan,nan,nan,nan,nan,nan,nan,nan,nan,nan,nan,nan,nan,253.2139046015218,610.4844270432368,nan,611.1655879099853,nan,nan,nan,nan
1,220,0,0,0.0,1.0,0.6650070264004171,0.0,3,1,2,4,6,5,nan,nan,nan,nan,nan,nan,nan,nan,nan,nan,nan,nan,0.0,nan,nan,nan,nan,nan,nan,nan,nan,nan,nan,nan,nan,nan,nan,nan,nan,nan,nan,253.2139046015218,611.4845601832494,nan,612.1495672096498,nan,nan,nan,nan
1,221,1,1,1.0,1.0,0.5288707022555172,0.0,5,2,3,6,1,4,nan,nan,nan,nan,nan,nan,nan,nan,nan,nan,nan,nan,0.0,nan,nan,nan,nan,nan,nan,nan,nan,nan,nan,nan,nan,nan,nan,nan,nan,nan,nan,253.2139046015218,612.4846813492477,nan,613.0135520515032,nan,nan,nan,nan
1,222,1,1,1.0,1.0,0.632769194431603,0.0,7,8,1,2,4,0,nan,nan,nan,nan,nan,nan,nan,nan,nan,nan,nan,nan,0.0,nan,nan,nan,nan,nan,nan,nan,nan,nan,nan,nan,nan,nan,nan,nan,nan,nan,nan,253.2139046015218,613.4847566145472,nan,614.1175258089788,nan,nan,nan,nan
1,223,1,1,1.0,1.0,0.5045919031836092,0.0,0,6,2,7,1,8,nan,nan,nan,nan,nan,nan,nan,nan,nan,nan,nan,nan,0.0,nan,nan,nan,nan,nan,nan,nan,nan,nan,nan,nan,nan,nan,nan,nan,nan,nan,nan,253.2139046015218,614.4849208300002,nan,614.9895127331838,nan,nan,nan,nan
1,224,1,1,1.0,1.0,0.50440773088485,0.0,4,1,8,3,6,5,nan,nan,nan,nan,nan,nan,nan,nan,nan,nan,nan,nan,0.0,nan,nan,nan,nan,nan,nan,nan,nan,nan,nan,nan,nan,nan,nan,nan,nan,nan,nan,253.2139046015218,615.4850856158882,nan,615.9894933467731,nan,nan,nan,nan
1,225,1,1,1.0,1.0,0.48830577824264765,0.0,1,5,7,0,4,2,nan,nan,nan,nan,nan,nan,nan,nan,nan,nan,nan,nan,0.0,nan,nan,nan,nan,nan,nan,nan,nan,nan,nan,nan,nan,nan,nan,nan,nan,nan,nan,253.2139046015218,616.4851594557986,nan,616.9734652340412,nan,nan,nan,nan
1,226,1,1,1.0,1.0,0.47219099663197994,0.0,4,2,5,1,6,0,nan,nan,nan,nan,nan,nan,nan,nan,nan,nan,nan,nan,0.0,nan,nan,nan,nan,nan,nan,nan,nan,nan,nan,nan,nan,nan,nan,nan,nan,nan,nan,253.2139046015218,617.4852529671043,nan,617.9574439637363,nan,nan,nan,nan
1,227,1,1,1.0,1.0,0.4160207575187087,0.0,8,0,3,4,5,7,nan,nan,nan,nan,nan,nan,nan,nan,nan,nan,nan,nan,0.0,nan,nan,nan,nan,nan,nan,nan,nan,nan,nan,nan,nan,nan,nan,nan,nan,nan,nan,253.2139046015218,618.4853977961466,nan,618.9014185536653,nan,nan,nan,nan
1,228,1,1,1.0,1.0,0.479852388612926,0.0,7,5,0,1,2,4,nan,nan,nan,nan,nan,nan,nan,nan,nan,nan,nan,nan,0.0,nan,nan,nan,nan,nan,nan,nan,nan,nan,nan,nan,nan,nan,nan,nan,nan,nan,nan,253.2139046015218,619.4855506075546,nan,619.9654029961675,nan,nan,nan,nan
1,229,1,1,1.0,1.0,0.5917295850813389,0.0,1,0,7,6,3,8,nan,nan,nan,nan,nan,nan,nan,nan,nan,nan,nan,nan,0.0,nan,nan,nan,nan,nan,nan,nan,nan,nan,nan,nan,nan,nan,nan,nan,nan,nan,nan,253.2139046015218,620.4856635057367,nan,621.0773930908181,nan,nan,nan,nan
1,230,1,1,1.0,1.0,0.4555638963356614,0.0,0,2,4,1,8,6,nan,nan,nan,nan,nan,nan,nan,nan,nan,nan,nan,nan,0.0,nan,nan,nan,nan,nan,nan,nan,nan,nan,nan,nan,nan,nan,nan,nan,nan,nan,nan,253.2139046015218,621.4857929395512,nan,621.9413568358868,nan,nan,nan,nan
1,231,1,1,1.0,1.0,0.3434175690636039,0.0,6,4,1,0,3,5,nan,nan,nan,nan,nan,nan,nan,nan,nan,nan,nan,nan,0.0,nan,nan,nan,nan,nan,nan,nan,nan,nan,nan,nan,nan,nan,nan,nan,nan,nan,nan,253.2139046015218,622.485903841909,nan,622.8293214109726,nan,nan,nan,nan
1,232,1,1,1.0,1.0,0.3592737684957683,0.0,7,0,2,1,6,8,nan,nan,nan,nan,nan,nan,nan,nan,nan,nan,nan,nan,0.0,nan,nan,nan,nan,nan,nan,nan,nan,nan,nan,nan,nan,nan,nan,nan,nan,nan,nan,253.2139046015218,623.4860207317397,nan,623.8452945002355,nan,nan,nan,nan
1,233,1,1,1.0,1.0,0.3511254317127168,0.0,2,4,6,0,1,3,nan,nan,nan,nan,nan,nan,nan,nan,nan,nan,nan,nan,0.0,nan,nan,nan,nan,nan,nan,nan,nan,nan,nan,nan,nan,nan,nan,nan,nan,nan,nan,253.2139046015218,624.4861552971415,nan,624.8372807288542,nan,nan,nan,nan
1,234,0,0,0.0,1.0,0.4949718997813761,0.0,4,0,3,6,2,1,nan,nan,nan,nan,nan,nan,nan,nan,nan,nan,nan,nan,0.0,nan,nan,nan,nan,nan,nan,nan,nan,nan,nan,nan,nan,nan,nan,nan,nan,nan,nan,253.2139046015218,625.4862824496813,nan,625.9812543494627,nan,nan,nan,nan
1,235,1,1,1.0,1.0,0.5588300446979702,0.0,3,6,7,8,4,0,nan,nan,nan,nan,nan,nan,nan,nan,nan,nan,nan,nan,0.0,nan,nan,nan,nan,nan,nan,nan,nan,nan,nan,nan,nan,nan,nan,nan,nan,nan,nan,253.2139046015218,626.4863916416653,nan,627.0452216863632,nan,nan,nan,nan
1,236,1,1,1.0,1.0,0.5826700804755092,0.0,7,4,5,6,0,2,nan,nan,nan,nan,nan,nan,nan,nan,nan,nan,nan,nan,0.0,nan,nan,nan,nan,nan,nan,nan,nan,nan,nan,nan,nan,nan,nan,nan,nan,nan,nan,253.2139046015218,627.4865304837003,nan,628.0692005641758,nan,nan,nan,nan
1,237,1,1,1.0,1.0,0.5265260701999068,0.0,1,3,8,5,6,7,nan,nan,nan,nan,nan,nan,nan,nan,nan,nan,nan,nan,0.0,nan,nan,nan,nan,nan,nan,nan,nan,nan,nan,nan,nan,nan,nan,nan,nan,nan,nan,253.2139046015218,628.4866587771103,nan,629.0131848473102,nan,nan,nan,nan
1,238,1,1,1.0,1.0,0.44637182215228677,0.0,0,1,2,4,3,8,nan,nan,nan,nan,nan,nan,nan,nan,nan,nan,nan,nan,0.0,nan,nan,nan,nan,nan,nan,nan,nan,nan,nan,nan,nan,nan,nan,nan,nan,nan,nan,253.2139046015218,629.4867862151004,nan,629.9331580372527,nan,nan,nan,nan
1,239,1,1,1.0,1.0,0.43796433275565505,0.0,2,0,3,1,5,4,nan,nan,nan,nan,nan,nan,nan,nan,nan,nan,nan,nan,0.0,nan,nan,nan,nan,nan,nan,nan,nan,nan,nan,nan,nan,nan,nan,nan,nan,nan,nan,253.2139046015218,630.4951854366809,nan,630.9331497694366,nan,nan,nan,nan
1,240,0,0,0.0,1.0,0.6537468638271093,0.0,6,1,2,7,4,5,nan,nan,nan,nan,nan,nan,nan,nan,nan,nan,nan,nan,0.0,nan,nan,nan,nan,nan,nan,nan,nan,nan,nan,nan,nan,nan,nan,nan,nan,nan,nan,253.2139046015218,631.4953587749042,nan,632.1491056387313,nan,nan,nan,nan
1,241,1,1,1.0,1.0,0.5816252031363547,0.0,3,6,8,2,7,0,nan,nan,nan,nan,nan,nan,nan,nan,nan,nan,nan,nan,0.0,nan,nan,nan,nan,nan,nan,nan,nan,nan,nan,nan,nan,nan,nan,nan,nan,nan,nan,253.2139046015218,632.495471958071,nan,633.0770971612073,nan,nan,nan,nan
1,242,1,1,1.0,1.0,0.5174711272120476,0.0,4,3,0,1,6,8,nan,nan,nan,nan,nan,nan,nan,nan,nan,nan,nan,nan,0.0,nan,nan,nan,nan,nan,nan,nan,nan,nan,nan,nan,nan,nan,nan,nan,nan,nan,nan,253.2139046015218,633.4955971157178,nan,634.0130682429299,nan,nan,nan,nan
1,243,0,0,0.0,1.0,0.5493146711960435,0.0,3,7,1,0,8,4,nan,nan,nan,nan,nan,nan,nan,nan,nan,nan,nan,nan,0.0,nan,nan,nan,nan,nan,nan,nan,nan,nan,nan,nan,nan,nan,nan,nan,nan,nan,nan,253.2139046015218,634.4957162858918,nan,635.0450309570879,nan,nan,nan,nan
1,244,1,1,1.0,1.0,0.5251712929457426,0.0,8,4,3,5,0,2,nan,nan,nan,nan,nan,nan,nan,nan,nan,nan,nan,nan,0.0,nan,nan,nan,nan,nan,nan,nan,nan,nan,nan,nan,nan,nan,nan,nan,nan,nan,nan,253.2139046015218,635.4958371664397,nan,636.0210084593855,nan,nan,nan,nan
1,245,1,1,1.0,1.0,0.3810174916870892,0.0,5,3,7,4,1,6,nan,nan,nan,nan,nan,nan,nan,nan,nan,nan,nan,nan,0.0,nan,nan,nan,nan,nan,nan,nan,nan,nan,nan,nan,nan,nan,nan,nan,nan,nan,nan,253.2139046015218,636.4959714468569,nan,636.876988938544,nan,nan,nan,nan
1,246,1,1,1.0,1.0,0.4049071338959038,0.0,4,1,6,2,0,5,nan,nan,nan,nan,nan,nan,nan,nan,nan,nan,nan,nan,0.0,nan,nan,nan,nan,nan,nan,nan,nan,nan,nan,nan,nan,nan,nan,nan,nan,nan,nan,253.2139046015218,637.4960589716211,nan,637.900966105517,nan,nan,nan,nan
1,247,1,1,1.0,1.0,0.37240644358098507,0.0,3,4,0,1,7,2,nan,nan,nan,nan,nan,nan,nan,nan,nan,nan,nan,nan,0.0,nan,nan,nan,nan,nan,nan,nan,nan,nan,nan,nan,nan,nan,nan,nan,nan,nan,nan,253.2139046015218,638.504542011302,nan,638.876948454883,nan,nan,nan,nan
1,248,1,1,1.0,1.0,0.5002202368341386,0.0,4,2,7,3,1,8,nan,nan,nan,nan,nan,nan,nan,nan,nan,nan,nan,nan,0.0,nan,nan,nan,nan,nan,nan,nan,nan,nan,nan,nan,nan,nan,nan,nan,nan,nan,nan,253.2139046015218,639.5047130691819,nan,640.004933306016,nan,nan,nan,nan
1,249,1,1,1.0,1.0,0.3401050353422761,0.0,2,3,1,0,8,5,nan,nan,nan,nan,nan,nan,nan,nan,nan,nan,nan,nan,0.0,nan,nan,nan,nan,nan,nan,nan,nan,nan,nan,nan,nan,nan,nan,nan,nan,nan,nan,253.2139046015218,640.5048080058768,nan,640.8449130412191,nan,nan,nan,nan
1,250,1,1,1.0,1.0,0.33195783849805593,0.0,5,0,2,6,1,4,nan,nan,nan,nan,nan,nan,nan,nan,nan,nan,nan,nan,0.0,nan,nan,nan,nan,nan,nan,nan,nan,nan,nan,nan,nan,nan,nan,nan,nan,nan,nan,253.2139046015218,641.5049211895093,nan,641.8368790280074,nan,nan,nan,nan
1,251,1,1,1.0,1.0,0.41182100400328636,0.0,4,1,8,3,0,2,nan,nan,nan,nan,nan,nan,nan,nan,nan,nan,nan,nan,0.0,nan,nan,nan,nan,nan,nan,nan,nan,nan,nan,nan,nan,nan,nan,nan,nan,nan,nan,253.2139046015218,642.5050392192788,nan,642.9168602232821,nan,nan,nan,nan
1,252,1,1,1.0,1.0,0.3956688744947314,0.0,5,2,6,7,3,0,nan,nan,nan,nan,nan,nan,nan,nan,nan,nan,nan,nan,0.0,nan,nan,nan,nan,nan,nan,nan,nan,nan,nan,nan,nan,nan,nan,nan,nan,nan,nan,253.2139046015218,643.5051655168645,nan,643.9008343913592,nan,nan,nan,nan
1,253,1,1,1.0,1.0,0.33951973263174295,0.0,4,3,8,5,7,1,nan,nan,nan,nan,nan,nan,nan,nan,nan,nan,nan,nan,0.0,nan,nan,nan,nan,nan,nan,nan,nan,nan,nan,nan,nan,nan,nan,nan,nan,nan,nan,253.2139046015218,644.505298086442,nan,644.8448178190738,nan,nan,nan,nan
1,254,1,1,1.0,1.0,0.3153549721464515,0.0,6,2,4,0,1,3,nan,nan,nan,nan,nan,nan,nan,nan,nan,nan,nan,nan,0.0,nan,nan,nan,nan,nan,nan,nan,nan,nan,nan,nan,nan,nan,nan,nan,nan,nan,nan,253.2139046015218,645.5054278052412,nan,645.8207827773876,nan,nan,nan,nan
1,255,0,0,1.0,0.0,0.323231041431427,1.0,1,7,2,3,4,5,1.0,1.0,1.0,1.0,1.0,1.0,1.0,1.0,0.0,0.0,1.0,1.0,4.0,1.0,7.0,5.0,2.0,4.0,5.0,1.0,2.0,3.0,6.0,5.0,4.0,1.0558668966405094,1.791189783718437,2.551333438139409,6.270070279482752,5.190568331163377,3.5911636692471802,253.2139046015218,646.5055327210575,647.3139448855072,646.828763762489,654.6398381562904,655.6459489101544,648.3307333500125,654.6315033668652
1,256,1,1,nan,nan,nan,0.0,8,0,7,5,6,4,nan,nan,nan,nan,nan,nan,nan,nan,nan,nan,nan,nan,0.0,nan,nan,nan,nan,nan,nan,nan,nan,nan,nan,nan,nan,nan,nan,nan,nan,nan,nan,253.2139046015218,655.848355863709,nan,nan,nan,nan,nan,nan
1,257,1,1,1.0,1.0,0.044075599405914545,0.0,4,3,0,6,7,8,nan,nan,nan,nan,nan,nan,nan,nan,nan,nan,nan,nan,0.0,nan,nan,nan,nan,nan,nan,nan,nan,nan,nan,nan,nan,nan,nan,nan,nan,nan,nan,253.2139046015218,656.8484838721342,nan,656.8925594715402,nan,nan,nan,nan
1,258,1,1,nan,nan,nan,0.0,0,8,1,2,3,6,nan,nan,nan,nan,nan,nan,nan,nan,nan,nan,nan,nan,0.0,nan,nan,nan,nan,nan,nan,nan,nan,nan,nan,nan,nan,nan,nan,nan,nan,nan,nan,253.2139046015218,657.8485999065451,nan,nan,nan,nan,nan,nan
1,259,1,1,1.0,1.0,0.523762347176671,0.0,3,2,7,5,4,1,nan,nan,nan,nan,nan,nan,nan,nan,nan,nan,nan,nan,0.0,nan,nan,nan,nan,nan,nan,nan,nan,nan,nan,nan,nan,nan,nan,nan,nan,nan,nan,253.2139046015218,658.8487014006823,nan,659.372463747859,nan,nan,nan,nan
1,260,1,1,1.0,1.0,0.42760878056287766,0.0,6,0,2,3,7,8,nan,nan,nan,nan,nan,nan,nan,nan,nan,nan,nan,nan,0.0,nan,nan,nan,nan,nan,nan,nan,nan,nan,nan,nan,nan,nan,nan,nan,nan,nan,nan,253.2139046015218,659.848849080503,nan,660.2764578610659,nan,nan,nan,nan
1,261,1,1,1.0,1.0,0.2674778988584876,0.0,2,5,3,4,6,7,nan,nan,nan,nan,nan,nan,nan,nan,nan,nan,nan,nan,0.0,nan,nan,nan,nan,nan,nan,nan,nan,nan,nan,nan,nan,nan,nan,nan,nan,nan,nan,253.2139046015218,660.8489651144482,nan,661.1164430133067,nan,nan,nan,nan
1,262,1,1,1.0,1.0,0.3229753100313246,0.0,5,3,4,0,1,6,nan,nan,nan,nan,nan,nan,nan,nan,nan,nan,nan,nan,0.0,nan,nan,nan,nan,nan,nan,nan,nan,nan,nan,nan,nan,nan,nan,nan,nan,nan,nan,253.2139046015218,661.8574290531687,nan,662.1804043632001,nan,nan,nan,nan
1,263,1,1,1.0,1.0,0.2748162769712508,0.0,7,1,8,2,5,0,nan,nan,nan,nan,nan,nan,nan,nan,nan,nan,nan,nan,0.0,nan,nan,nan,nan,nan,nan,nan,nan,nan,nan,nan,nan,nan,nan,nan,nan,nan,nan,253.2139046015218,662.8575656139292,nan,663.1323818909004,nan,nan,nan,nan
1,264,1,1,1.0,1.0,0.29067589808255434,0.0,8,0,5,1,6,7,nan,nan,nan,nan,nan,nan,nan,nan,nan,nan,nan,nan,0.0,nan,nan,nan,nan,nan,nan,nan,nan,nan,nan,nan,nan,nan,nan,nan,nan,nan,nan,253.2139046015218,663.857681077905,nan,664.1483569759876,nan,nan,nan,nan
1,265,1,1,1.0,1.0,0.3065497730858624,0.0,5,1,8,2,3,6,nan,nan,nan,nan,nan,nan,nan,nan,nan,nan,nan,nan,0.0,nan,nan,nan,nan,nan,nan,nan,nan,nan,nan,nan,nan,nan,nan,nan,nan,nan,nan,253.2139046015218,664.8577991081402,nan,665.164348881226,nan,nan,nan,nan
1,266,1,1,1.0,1.0,0.32237204676494,0.0,7,6,0,5,8,4,nan,nan,nan,nan,nan,nan,nan,nan,nan,nan,nan,nan,0.0,nan,nan,nan,nan,nan,nan,nan,nan,nan,nan,nan,nan,nan,nan,nan,nan,nan,nan,253.2139046015218,665.8579405155033,nan,666.1803125622682,nan,nan,nan,nan
1,267,1,1,1.0,1.0,0.5302588362246752,0.0,6,8,5,0,3,7,nan,nan,nan,nan,nan,nan,nan,nan,nan,nan,nan,nan,0.0,nan,nan,nan,nan,nan,nan,nan,nan,nan,nan,nan,nan,nan,nan,nan,nan,nan,nan,253.2139046015218,666.8580294656567,nan,667.3882883018814,nan,nan,nan,nan
1,268,1,1,1.0,1.0,0.38608536310493946,0.0,4,3,8,6,7,2,nan,nan,nan,nan,nan,nan,nan,nan,nan,nan,nan,nan,0.0,nan,nan,nan,nan,nan,nan,nan,nan,nan,nan,nan,nan,nan,nan,nan,nan,nan,nan,253.2139046015218,667.8581771454774,nan,668.2442625085823,nan,nan,nan,nan
1,269,1,1,1.0,1.0,0.3699486283585429,0.0,3,0,6,7,1,5,nan,nan,nan,nan,nan,nan,nan,nan,nan,nan,nan,nan,0.0,nan,nan,nan,nan,nan,nan,nan,nan,nan,nan,nan,nan,nan,nan,nan,nan,nan,nan,253.2139046015218,668.8583031580783,nan,669.2282517864369,nan,nan,nan,nan
1,270,1,1,1.0,1.0,0.3858073940500617,0.0,7,5,3,1,4,8,nan,nan,nan,nan,nan,nan,nan,nan,nan,nan,nan,nan,0.0,nan,nan,nan,nan,nan,nan,nan,nan,nan,nan,nan,nan,nan,nan,nan,nan,nan,nan,253.2139046015218,669.8584183370695,nan,670.2442257311195,nan,nan,nan,nan
1,271,0,0,0.0,1.0,0.47366437362506986,1.0,3,0,5,6,2,1,1.0,1.0,1.0,1.0,1.0,1.0,1.0,0.0,0.0,1.0,0.0,0.0,2.0,3.0,5.0,0.0,6.0,1.0,4.0,4.0,3.0,2.0,1.0,6.0,5.0,5.077495155856013,3.9335355046205223,2.767255096230656,2.109945099335164,8.172737554647028,6.437485941220075,253.2139046015218,670.8585372222587,671.666948816739,671.3322015958838,680.8847481189296,681.8845588150434,672.6754164611921,680.8764230222441
1,272,1,1,1.0,1.0,0.6710228426381946,0.0,6,3,8,2,7,4,nan,nan,nan,nan,nan,nan,nan,nan,nan,nan,nan,nan,0.0,nan,nan,nan,nan,nan,nan,nan,nan,nan,nan,nan,nan,nan,nan,nan,nan,nan,nan,253.2139046015218,682.0849221986718,nan,682.75594504131,nan,nan,nan,nan
1,273,1,1,1.0,1.0,0.5668441010639071,0.0,0,7,5,3,6,8,nan,nan,nan,nan,nan,nan,nan,nan,nan,nan,nan,nan,0.0,nan,nan,nan,nan,nan,nan,nan,nan,nan,nan,nan,nan,nan,nan,nan,nan,nan,nan,253.2139046015218,683.0850701634772,nan,683.6519142645411,nan,nan,nan,nan
1,274,1,1,1.0,1.0,0.48672834038734436,0.0,4,2,0,7,3,5,nan,nan,nan,nan,nan,nan,nan,nan,nan,nan,nan,nan,0.0,nan,nan,nan,nan,nan,nan,nan,nan,nan,nan,nan,nan,nan,nan,nan,nan,nan,nan,253.2139046015218,684.085173368454,nan,684.5719017088413,nan,nan,nan,nan
1,275,1,1,1.0,1.0,0.4785620425827801,0.0,0,7,8,3,5,6,nan,nan,nan,nan,nan,nan,nan,nan,nan,nan,nan,nan,0.0,nan,nan,nan,nan,nan,nan,nan,nan,nan,nan,nan,nan,nan,nan,nan,nan,nan,nan,253.2139046015218,685.0853099296801,nan,685.5638719722629,nan,nan,nan,nan
1,276,1,1,1.0,1.0,0.45442664716392756,0.0,6,3,5,0,1,4,nan,nan,nan,nan,nan,nan,nan,nan,nan,nan,nan,nan,0.0,nan,nan,nan,nan,nan,nan,nan,nan,nan,nan,nan,nan,nan,nan,nan,nan,nan,nan,253.2139046015218,686.0854134196416,nan,686.5398400668055,nan,nan,nan,nan
1,277,1,1,1.0,1.0,0.37427182821556926,0.0,3,4,0,2,5,8,nan,nan,nan,nan,nan,nan,nan,nan,nan,nan,nan,nan,0.0,nan,nan,nan,nan,nan,nan,nan,nan,nan,nan,nan,nan,nan,nan,nan,nan,nan,nan,253.2139046015218,687.085552831646,nan,687.4598246598616,nan,nan,nan,nan
1,278,1,1,1.0,1.0,0.4621231066994369,0.0,4,2,6,7,8,3,nan,nan,nan,nan,nan,nan,nan,nan,nan,nan,nan,nan,0.0,nan,nan,nan,nan,nan,nan,nan,nan,nan,nan,nan,nan,nan,nan,nan,nan,nan,nan,253.2139046015218,688.0856762779877,nan,688.5477993846871,nan,nan,nan,nan
1,279,1,1,nan,nan,nan,0.0,7,1,2,0,5,6,nan,nan,nan,nan,nan,nan,nan,nan,nan,nan,nan,nan,0.0,nan,nan,nan,nan,nan,nan,nan,nan,nan,nan,nan,nan,nan,nan,nan,nan,nan,nan,253.2139046015218,689.0858105584048,nan,nan,nan,nan,nan,nan
1,280,1,1,1.0,1.0,0.6298298519104719,0.0,0,8,4,2,6,5,nan,nan,nan,nan,nan,nan,nan,nan,nan,nan,nan,nan,0.0,nan,nan,nan,nan,nan,nan,nan,nan,nan,nan,nan,nan,nan,nan,nan,nan,nan,nan,253.2139046015218,690.0859320093878,nan,690.7157618612982,nan,nan,nan,nan
1,281,1,1,1.0,1.0,0.5176761117763817,0.0,8,0,7,6,1,3,nan,nan,nan,nan,nan,nan,nan,nan,nan,nan,nan,nan,0.0,nan,nan,nan,nan,nan,nan,nan,nan,nan,nan,nan,nan,nan,nan,nan,nan,nan,nan,253.2139046015218,691.0860457629897,nan,691.603721874766,nan,nan,nan,nan
1,282,1,1,1.0,1.0,0.4375492325052619,0.0,7,3,1,0,8,4,nan,nan,nan,nan,nan,nan,nan,nan,nan,nan,nan,nan,0.0,nan,nan,nan,nan,nan,nan,nan,nan,nan,nan,nan,nan,nan,nan,nan,nan,nan,nan,253.2139046015218,692.0861674989574,nan,692.5237167314626,nan,nan,nan,nan
1,283,1,1,1.0,1.0,0.5254127695225179,0.0,5,0,7,8,2,1,nan,nan,nan,nan,nan,nan,nan,nan,nan,nan,nan,nan,0.0,nan,nan,nan,nan,nan,nan,nan,nan,nan,nan,nan,nan,nan,nan,nan,nan,nan,nan,253.2139046015218,693.0862818225287,nan,693.6116945920512,nan,nan,nan,nan
1,284,0,0,0.0,1.0,0.5492576523683965,0.0,0,1,2,4,5,3,nan,nan,nan,nan,nan,nan,nan,nan,nan,nan,nan,nan,0.0,nan,nan,nan,nan,nan,nan,nan,nan,nan,nan,nan,nan,nan,nan,nan,nan,nan,nan,253.2139046015218,694.0864044139162,nan,694.6356620662846,nan,nan,nan,nan
1,285,1,1,1.0,1.0,0.5651315278373659,0.0,5,3,7,2,4,6,nan,nan,nan,nan,nan,nan,nan,nan,nan,nan,nan,nan,0.0,nan,nan,nan,nan,nan,nan,nan,nan,nan,nan,nan,nan,nan,nan,nan,nan,nan,nan,253.2139046015218,695.0865064784884,nan,695.6516380063258,nan,nan,nan,nan
1,286,1,1,1.0,1.0,0.5649536275304854,0.0,4,2,5,1,8,3,nan,nan,nan,nan,nan,nan,nan,nan,nan,nan,nan,nan,0.0,nan,nan,nan,nan,nan,nan,nan,nan,nan,nan,nan,nan,nan,nan,nan,nan,nan,nan,253.2139046015218,696.0866635665298,nan,696.6516171940602,nan,nan,nan,nan
1,287,1,1,1.0,1.0,0.5328195709735155,0.0,5,6,4,2,0,8,nan,nan,nan,nan,nan,nan,nan,nan,nan,nan,nan,nan,0.0,nan,nan,nan,nan,nan,nan,nan,nan,nan,nan,nan,nan,nan,nan,nan,nan,nan,nan,253.2139046015218,697.0867753243074,nan,697.6195948952809,nan,nan,nan,nan
1,288,1,1,1.0,1.0,0.572660350240767,0.0,2,3,0,7,6,4,nan,nan,nan,nan,nan,nan,nan,nan,nan,nan,nan,nan,0.0,nan,nan,nan,nan,nan,nan,nan,nan,nan,nan,nan,nan,nan,nan,nan,nan,nan,nan,253.2139046015218,698.0869101746939,nan,698.6595705249347,nan,nan,nan,nan
1,289,1,1,1.0,1.0,0.6045144428499043,0.0,6,2,7,8,0,3,nan,nan,nan,nan,nan,nan,nan,nan,nan,nan,nan,nan,0.0,nan,nan,nan,nan,nan,nan,nan,nan,nan,nan,nan,nan,nan,nan,nan,nan,nan,nan,253.2139046015218,699.0870373276994,nan,699.6915517705493,nan,nan,nan,nan
1,290,1,1,1.0,1.0,0.46835759188979864,0.0,7,3,8,4,6,1,nan,nan,nan,nan,nan,nan,nan,nan,nan,nan,nan,nan,0.0,nan,nan,nan,nan,nan,nan,nan,nan,nan,nan,nan,nan,nan,nan,nan,nan,nan,nan,253.2139046015218,700.0871667615138,nan,700.5555243534036,nan,nan,nan,nan
1,291,1,1,1.0,1.0,0.3882312825880945,0.0,0,6,4,2,5,7,nan,nan,nan,nan,nan,nan,nan,nan,nan,nan,nan,nan,0.0,nan,nan,nan,nan,nan,nan,nan,nan,nan,nan,nan,nan,nan,nan,nan,nan,nan,nan,253.2139046015218,701.0872614136897,nan,701.4754926962778,nan,nan,nan,nan
1,292,1,1,1.0,1.0,0.436065876390785,0.0,4,7,8,1,2,5,nan,nan,nan,nan,nan,nan,nan,nan,nan,nan,nan,nan,0.0,nan,nan,nan,nan,nan,nan,nan,nan,nan,nan,nan,nan,nan,nan,nan,nan,nan,nan,253.2139046015218,702.087411659304,nan,702.5234775356948,nan,nan,nan,nan
1,293,1,1,1.0,1.0,0.36391827231273055,0.0,0,1,2,5,3,6,nan,nan,nan,nan,nan,nan,nan,nan,nan,nan,nan,nan,0.0,nan,nan,nan,nan,nan,nan,nan,nan,nan,nan,nan,nan,nan,nan,nan,nan,nan,nan,253.2139046015218,703.0875311144628,nan,703.4514493867755,nan,nan,nan,nan
1,294,1,1,1.0,1.0,0.37975765112787485,0.0,6,8,3,1,4,0,nan,nan,nan,nan,nan,nan,nan,nan,nan,nan,nan,nan,0.0,nan,nan,nan,nan,nan,nan,nan,nan,nan,nan,nan,nan,nan,nan,nan,nan,nan,nan,253.2139046015218,704.0876662502997,nan,704.4674239014275,nan,nan,nan,nan
1,295,0,0,0.0,1.0,0.4516195892356336,1.0,3,1,0,6,7,8,1.0,1.0,1.0,1.0,1.0,1.0,0.0,1.0,1.0,1.0,0.0,0.0,3.0,8.0,1.0,0.0,6.0,2.0,3.0,4.0,3.0,2.0,1.0,6.0,5.0,3.4225645721890032,2.3823232324793935,1.616752770729363,0.7521082158200443,7.486436687409878,4.790724506601691,253.2139046015218,705.0877882712521,705.896183045581,705.5394078604877,714.4472259702161,715.4550401740707,706.9213231201284,714.4389028698206
1,296,1,1,1.0,1.0,0.6674417485482991,0.0,0,5,7,2,8,3,nan,nan,nan,nan,nan,nan,nan,nan,nan,nan,nan,nan,0.0,nan,nan,nan,nan,nan,nan,nan,nan,nan,nan,nan,nan,nan,nan,nan,nan,nan,nan,253.2139046015218,715.6557374056429,nan,716.3231791541912,nan,nan,nan,nan
1,297,1,1,1.0,1.0,0.6112697990611196,0.0,3,6,4,0,7,2,nan,nan,nan,nan,nan,nan,nan,nan,nan,nan,nan,nan,0.0,nan,nan,nan,nan,nan,nan,nan,nan,nan,nan,nan,nan,nan,nan,nan,nan,nan,nan,253.2139046015218,716.6558722560294,nan,717.2671420550905,nan,nan,nan,nan
1,298,1,1,1.0,1.0,0.6031519672833383,0.0,2,4,5,6,8,7,nan,nan,nan,nan,nan,nan,nan,nan,nan,nan,nan,nan,0.0,nan,nan,nan,nan,nan,nan,nan,nan,nan,nan,nan,nan,nan,nan,nan,nan,nan,nan,253.2139046015218,717.6559646273963,nan,718.2591165946797,nan,nan,nan,nan
1,299,1,1,1.0,1.0,0.5629516812041402,0.0,3,5,2,1,0,4,nan,nan,nan,nan,nan,nan,nan,nan,nan,nan,nan,nan,0.0,nan,nan,nan,nan,nan,nan,nan,nan,nan,nan,nan,nan,nan,nan,nan,nan,nan,nan,253.2139046015218,718.6561425277032,nan,719.2190942089073,nan,nan,nan,nan
1,300,1,1,1.0,1.0,0.6028201156295836,0.0,1,4,7,2,6,8,nan,nan,nan,nan,nan,nan,nan,nan,nan,nan,nan,nan,0.0,nan,nan,nan,nan,nan,nan,nan,nan,nan,nan,nan,nan,nan,nan,nan,nan,nan,nan,253.2139046015218,719.6562420260161,nan,720.2590621416457,nan,nan,nan,nan
1,301,1,1,1.0,1.0,0.7146764998324215,0.0,5,0,8,6,3,1,nan,nan,nan,nan,nan,nan,nan,nan,nan,nan,nan,nan,0.0,nan,nan,nan,nan,nan,nan,nan,nan,nan,nan,nan,nan,nan,nan,nan,nan,nan,nan,253.2139046015218,720.6563737406395,nan,721.371050240472,nan,nan,nan,nan
1,302,1,1,1.0,1.0,0.5945243840105832,0.0,8,7,0,3,6,5,nan,nan,nan,nan,nan,nan,nan,nan,nan,nan,nan,nan,0.0,nan,nan,nan,nan,nan,nan,nan,nan,nan,nan,nan,nan,nan,nan,nan,nan,nan,nan,253.2139046015218,721.6564957615919,nan,722.2510201456025,nan,nan,nan,nan
1,303,1,1,1.0,1.0,0.5863831741735339,0.0,4,2,7,6,5,1,nan,nan,nan,nan,nan,nan,nan,nan,nan,nan,nan,nan,0.0,nan,nan,nan,nan,nan,nan,nan,nan,nan,nan,nan,nan,nan,nan,nan,nan,nan,nan,253.2139046015218,722.6566160726361,nan,723.2429992468096,nan,nan,nan,nan
1,304,0,0,0.0,1.0,0.657913260627538,1.0,7,3,2,8,1,0,1.0,1.0,1.0,1.0,1.0,1.0,0.0,1.0,1.0,1.0,0.0,0.0,3.0,4.0,3.0,2.0,8.0,0.0,2.0,4.0,3.0,2.0,1.0,6.0,5.0,4.7735366220586,3.038491703569889,1.981513216625899,1.0150921414606273,7.308920633979142,5.949720420408994,253.2139046015218,723.6650634752586,724.4734747847542,724.3229767358862,732.8328443458304,733.8314277022146,725.4819575394504,732.8245078451
1,305,1,1,1.0,1.0,0.6577253821305931,0.0,0,4,7,3,8,6,nan,nan,nan,nan,nan,nan,nan,nan,nan,nan,nan,nan,0.0,nan,nan,nan,nan,nan,nan,nan,nan,nan,nan,nan,nan,nan,nan,nan,nan,nan,nan,253.2139046015218,734.0330201359466,nan,734.6907455180772,nan,nan,nan,nan
1,306,1,1,1.0,1.0,0.5615840745158494,0.0,6,3,8,5,2,4,nan,nan,nan,nan,nan,nan,nan,nan,nan,nan,nan,nan,0.0,nan,nan,nan,nan,nan,nan,nan,nan,nan,nan,nan,nan,nan,nan,nan,nan,nan,nan,253.2139046015218,735.033135029953,nan,735.5947191044688,nan,nan,nan,nan
1,307,1,1,1.0,1.0,0.3694385914131999,0.0,0,6,2,1,8,5,nan,nan,nan,nan,nan,nan,nan,nan,nan,nan,nan,nan,0.0,nan,nan,nan,nan,nan,nan,nan,nan,nan,nan,nan,nan,nan,nan,nan,nan,nan,nan,253.2139046015218,736.0332567659207,nan,736.4026953573339,nan,nan,nan,nan
1,308,1,1,1.0,1.0,0.457293005194515,0.0,6,8,1,7,3,0,nan,nan,nan,nan,nan,nan,nan,nan,nan,nan,nan,nan,0.0,nan,nan,nan,nan,nan,nan,nan,nan,nan,nan,nan,nan,nan,nan,nan,nan,nan,nan,253.2139046015218,737.033368808683,nan,737.4906618138775,nan,nan,nan,nan
1,309,1,1,1.0,1.0,0.5931305480189621,0.0,7,5,8,0,6,4,nan,nan,nan,nan,nan,nan,nan,nan,nan,nan,nan,nan,0.0,nan,nan,nan,nan,nan,nan,nan,nan,nan,nan,nan,nan,nan,nan,nan,nan,nan,nan,253.2139046015218,738.0335045144893,nan,738.6266350625083,nan,nan,nan,nan
1,310,1,1,1.0,1.0,0.7129827425815165,0.0,8,0,2,3,4,5,nan,nan,nan,nan,nan,nan,nan,nan,nan,nan,nan,nan,0.0,nan,nan,nan,nan,nan,nan,nan,nan,nan,nan,nan,nan,nan,nan,nan,nan,nan,nan,253.2139046015218,739.0336288167164,nan,739.7466115592979,nan,nan,nan,nan
1,311,1,1,nan,nan,nan,0.0,6,7,5,8,2,0,nan,nan,nan,nan,nan,nan,nan,nan,nan,nan,nan,nan,0.0,nan,nan,nan,nan,nan,nan,nan,nan,nan,nan,nan,nan,nan,nan,nan,nan,nan,nan,253.2139046015218,740.0337539738975,nan,nan,nan,nan,nan,nan
1,312,1,1,1.0,1.0,0.7363740373402834,0.0,7,4,8,1,0,5,nan,nan,nan,nan,nan,nan,nan,nan,nan,nan,nan,nan,0.0,nan,nan,nan,nan,nan,nan,nan,nan,nan,nan,nan,nan,nan,nan,nan,nan,nan,nan,253.2139046015218,741.042190827895,nan,741.7785648652352,nan,nan,nan,nan
1,313,1,1,1.0,1.0,0.5601697121746838,0.0,1,5,7,2,4,0,nan,nan,nan,nan,nan,nan,nan,nan,nan,nan,nan,nan,0.0,nan,nan,nan,nan,nan,nan,nan,nan,nan,nan,nan,nan,nan,nan,nan,nan,nan,nan,253.2139046015218,742.0424117776565,nan,742.6025814898312,nan,nan,nan,nan
1,314,1,1,1.0,1.0,0.6080533424392343,0.0,7,6,3,5,2,4,nan,nan,nan,nan,nan,nan,nan,nan,nan,nan,nan,nan,0.0,nan,nan,nan,nan,nan,nan,nan,nan,nan,nan,nan,nan,nan,nan,nan,nan,nan,nan,253.2139046015218,743.0424733585678,nan,743.650526701007,nan,nan,nan,nan
1,315,0,0,0.0,1.0,0.5439260667189956,1.0,4,5,0,6,7,3,1.0,1.0,1.0,1.0,1.0,1.0,1.0,1.0,1.0,1.0,0.0,0.0,4.0,4.0,5.0,0.0,6.0,2.0,7.0,4.0,3.0,2.0,1.0,6.0,5.0,3.595525641925633,2.755838130135089,1.924578349571675,1.1173119866289198,7.075090653263032,5.347629866097122,253.2139046015218,744.0425859712996,744.8509972807951,744.5865120380186,752.9853049973026,753.986182808876,745.8677885965444,752.9769727736712
1,316,1,1,1.0,1.0,0.6884308215230703,0.0,8,1,7,3,6,2,nan,nan,nan,nan,nan,nan,nan,nan,nan,nan,nan,nan,0.0,nan,nan,nan,nan,nan,nan,nan,nan,nan,nan,nan,nan,nan,nan,nan,nan,nan,nan,253.2139046015218,754.1938440869562,nan,754.8822749084793,nan,nan,nan,nan
1,317,1,1,1.0,1.0,0.6802713661454618,0.0,3,8,4,0,7,1,nan,nan,nan,nan,nan,nan,nan,nan,nan,nan,nan,nan,0.0,nan,nan,nan,nan,nan,nan,nan,nan,nan,nan,nan,nan,nan,nan,nan,nan,nan,nan,253.2139046015218,755.1939729503356,nan,755.874244316481,nan,nan,nan,nan
1,318,1,1,1.0,1.0,0.7121317302808166,0.0,5,6,2,8,4,0,nan,nan,nan,nan,nan,nan,nan,nan,nan,nan,nan,nan,0.0,nan,nan,nan,nan,nan,nan,nan,nan,nan,nan,nan,nan,nan,nan,nan,nan,nan,nan,253.2139046015218,756.1940949717537,nan,756.9062267020345,nan,nan,nan,nan
1,319,1,1,1.0,1.0,0.5519831725396216,0.0,8,7,4,1,0,5,nan,nan,nan,nan,nan,nan,nan,nan,nan,nan,nan,nan,0.0,nan,nan,nan,nan,nan,nan,nan,nan,nan,nan,nan,nan,nan,nan,nan,nan,nan,nan,253.2139046015218,757.1942152823322,nan,757.7461984548718,nan,nan,nan,nan
1,320,1,1,1.0,1.0,0.5198280182667077,0.0,2,1,3,6,4,0,nan,nan,nan,nan,nan,nan,nan,nan,nan,nan,nan,nan,0.0,nan,nan,nan,nan,nan,nan,nan,nan,nan,nan,nan,nan,nan,nan,nan,nan,nan,nan,253.2139046015218,758.1943375887349,nan,758.7141656070016,nan,nan,nan,nan
1,321,1,1,1.0,1.0,0.43168451683595777,0.0,0,8,6,3,7,2,nan,nan,nan,nan,nan,nan,nan,nan,nan,nan,nan,nan,0.0,nan,nan,nan,nan,nan,nan,nan,nan,nan,nan,nan,nan,nan,nan,nan,nan,nan,nan,253.2139046015218,759.1944624609314,nan,759.6261469777673,nan,nan,nan,nan
1,322,1,1,1.0,1.0,0.38354144850745797,0.0,2,6,5,0,8,1,nan,nan,nan,nan,nan,nan,nan,nan,nan,nan,nan,nan,0.0,nan,nan,nan,nan,nan,nan,nan,nan,nan,nan,nan,nan,nan,nan,nan,nan,nan,nan,253.2139046015218,760.1945896139368,nan,760.5781310624443,nan,nan,nan,nan
1,323,0,0,0.0,1.0,0.5433983532711864,1.0,4,5,0,2,6,3,1.0,1.0,1.0,1.0,1.0,1.0,0.0,0.0,0.0,0.0,0.0,0.0,0.0,3.0,6.0,5.0,0.0,7.0,4.0,6.0,3.0,2.0,1.0,4.0,5.0,8.010745278559625,3.2675560149364173,2.6370222605764866,0.9715682035312057,4.227262502536178,5.579472440760583,253.2139046015218,761.1947042224929,762.0031180977821,761.7381025757641,771.06254043011,772.0661768331192,763.0115885934792,771.0542107722722
1,324,1,1,1.0,1.0,0.7067950135096908,0.0,6,0,4,8,7,5,nan,nan,nan,nan,nan,nan,nan,nan,nan,nan,nan,nan,0.0,nan,nan,nan,nan,nan,nan,nan,nan,nan,nan,nan,nan,nan,nan,nan,nan,nan,nan,253.2139046015218,772.2710703965276,nan,772.9778654100373,nan,nan,nan,nan
1,325,1,1,1.0,1.0,0.6106294728815556,0.0,3,4,1,5,6,8,nan,nan,nan,nan,nan,nan,nan,nan,nan,nan,nan,nan,0.0,nan,nan,nan,nan,nan,nan,nan,nan,nan,nan,nan,nan,nan,nan,nan,nan,nan,nan,253.2139046015218,773.2711929879151,nan,773.8818224607967,nan,nan,nan,nan
1,326,1,1,1.0,1.0,0.5061838808469474,0.0,1,5,7,4,0,2,nan,nan,nan,nan,nan,nan,nan,nan,nan,nan,nan,nan,0.0,nan,nan,nan,nan,nan,nan,nan,nan,nan,nan,nan,nan,nan,nan,nan,nan,nan,nan,253.2139046015218,774.2796281315386,nan,774.7858120123856,nan,nan,nan,nan
1,327,1,1,1.0,1.0,0.5619997452013195,0.0,7,0,3,5,8,4,nan,nan,nan,nan,nan,nan,nan,nan,nan,nan,nan,nan,0.0,nan,nan,nan,nan,nan,nan,nan,nan,nan,nan,nan,nan,nan,nan,nan,nan,nan,nan,253.2139046015218,775.2797860749997,nan,775.841785820201,nan,nan,nan,nan
1,328,1,1,1.0,1.0,0.521889834664762,0.0,4,1,8,0,5,6,nan,nan,nan,nan,nan,nan,nan,nan,nan,nan,nan,nan,0.0,nan,nan,nan,nan,nan,nan,nan,nan,nan,nan,nan,nan,nan,nan,nan,nan,nan,nan,253.2139046015218,776.2798753101379,nan,776.8017651448026,nan,nan,nan,nan
1,329,1,1,1.0,1.0,0.4257262898609042,0.0,7,8,4,3,6,0,nan,nan,nan,nan,nan,nan,nan,nan,nan,nan,nan,nan,0.0,nan,nan,nan,nan,nan,nan,nan,nan,nan,nan,nan,nan,nan,nan,nan,nan,nan,nan,253.2139046015218,777.2800201391801,nan,777.705746429041,nan,nan,nan,nan
1,330,1,1,1.0,1.0,0.40956874331459403,0.0,5,1,6,8,4,2,nan,nan,nan,nan,nan,nan,nan,nan,nan,nan,nan,nan,0.0,nan,nan,nan,nan,nan,nan,nan,nan,nan,nan,nan,nan,nan,nan,nan,nan,nan,nan,253.2139046015218,778.2801407347433,nan,778.6897094780579,nan,nan,nan,nan
1,331,1,1,1.0,1.0,0.353404491674155,0.0,4,0,3,6,8,1,nan,nan,nan,nan,nan,nan,nan,nan,nan,nan,nan,nan,0.0,nan,nan,nan,nan,nan,nan,nan,nan,nan,nan,nan,nan,nan,nan,nan,nan,nan,nan,253.2139046015218,779.2802821425721,nan,779.6336866342463,nan,nan,nan,nan
1,332,1,1,1.0,1.0,0.3772744624875486,0.0,5,8,1,0,2,7,nan,nan,nan,nan,nan,nan,nan,nan,nan,nan,nan,nan,0.0,nan,nan,nan,nan,nan,nan,nan,nan,nan,nan,nan,nan,nan,nan,nan,nan,nan,nan,253.2139046015218,780.2804047339596,nan,780.6576791964471,nan,nan,nan,nan
1,333,0,0,0.0,1.0,0.5851239040493965,0.0,6,7,4,2,5,1,nan,nan,nan,nan,nan,nan,nan,nan,nan,nan,nan,nan,0.0,nan,nan,nan,nan,nan,nan,nan,nan,nan,nan,nan,nan,nan,nan,nan,nan,nan,nan,253.2139046015218,781.2805307465605,nan,781.8656546506099,nan,nan,nan,nan
1,334,1,1,1.0,1.0,0.6729726162739098,0.0,4,8,1,7,2,3,nan,nan,nan,nan,nan,nan,nan,nan,nan,nan,nan,nan,0.0,nan,nan,nan,nan,nan,nan,nan,nan,nan,nan,nan,nan,nan,nan,nan,nan,nan,nan,253.2139046015218,782.2806419339031,nan,782.953614550177,nan,nan,nan,nan
1,335,1,1,1.0,1.0,0.6248611938208342,0.0,2,6,0,8,3,5,nan,nan,nan,nan,nan,nan,nan,nan,nan,nan,nan,nan,0.0,nan,nan,nan,nan,nan,nan,nan,nan,nan,nan,nan,nan,nan,nan,nan,nan,nan,nan,253.2139046015218,783.2807545471005,nan,783.9056157409213,nan,nan,nan,nan
1,336,1,1,1.0,1.0,0.49670043820515275,0.0,5,2,8,4,6,1,nan,nan,nan,nan,nan,nan,nan,nan,nan,nan,nan,nan,0.0,nan,nan,nan,nan,nan,nan,nan,nan,nan,nan,nan,nan,nan,nan,nan,nan,nan,nan,253.2139046015218,784.2808677302673,nan,784.7775681684725,nan,nan,nan,nan
1,337,1,1,1.0,1.0,0.5845303335227072,0.0,1,6,2,0,5,3,nan,nan,nan,nan,nan,nan,nan,nan,nan,nan,nan,nan,0.0,nan,nan,nan,nan,nan,nan,nan,nan,nan,nan,nan,nan,nan,nan,nan,nan,nan,nan,253.2139046015218,785.2810196867213,nan,785.865550020244,nan,nan,nan,nan
1,338,1,1,1.0,1.0,0.4643924725241959,0.0,2,7,5,3,8,4,nan,nan,nan,nan,nan,nan,nan,nan,nan,nan,nan,nan,0.0,nan,nan,nan,nan,nan,nan,nan,nan,nan,nan,nan,nan,nan,nan,nan,nan,nan,nan,253.2139046015218,786.2811354356818,nan,786.745527908206,nan,nan,nan,nan
1,339,1,1,1.0,1.0,0.48023156682029366,0.0,4,2,8,7,5,0,nan,nan,nan,nan,nan,nan,nan,nan,nan,nan,nan,nan,0.0,nan,nan,nan,nan,nan,nan,nan,nan,nan,nan,nan,nan,nan,nan,nan,nan,nan,nan,253.2139046015218,787.2812697160989,nan,787.7615012829192,nan,nan,nan,nan
1,340,1,1,1.0,1.0,0.5200820392929018,0.0,7,8,5,3,6,2,nan,nan,nan,nan,nan,nan,nan,nan,nan,nan,nan,nan,0.0,nan,nan,nan,nan,nan,nan,nan,nan,nan,nan,nan,nan,nan,nan,nan,nan,nan,nan,253.2139046015218,788.2813968691044,nan,788.8014789083973,nan,nan,nan,nan
1,341,1,1,1.0,1.0,0.4159614574164152,0.0,4,5,1,8,3,0,nan,nan,nan,nan,nan,nan,nan,nan,nan,nan,nan,nan,0.0,nan,nan,nan,nan,nan,nan,nan,nan,nan,nan,nan,nan,nan,nan,nan,nan,nan,nan,253.2139046015218,789.281501784455,nan,789.6974632418714,nan,nan,nan,nan
1,342,1,1,1.0,1.0,0.4078071336261928,0.0,1,2,0,6,5,8,nan,nan,nan,nan,nan,nan,nan,nan,nan,nan,nan,nan,0.0,nan,nan,nan,nan,nan,nan,nan,nan,nan,nan,nan,nan,nan,nan,nan,nan,nan,nan,253.2139046015218,790.2816349244677,nan,790.6894420580938,nan,nan,nan,nan
1,343,1,1,1.0,1.0,0.4716456066817045,0.0,6,5,4,3,2,1,nan,nan,nan,nan,nan,nan,nan,nan,nan,nan,nan,nan,0.0,nan,nan,nan,nan,nan,nan,nan,nan,nan,nan,nan,nan,nan,nan,nan,nan,nan,nan,253.2139046015218,791.2817737665027,nan,791.7534193731844,nan,nan,nan,nan
1,344,1,1,1.0,1.0,0.38351094350218773,0.0,8,2,0,5,7,3,nan,nan,nan,nan,nan,nan,nan,nan,nan,nan,nan,nan,0.0,nan,nan,nan,nan,nan,nan,nan,nan,nan,nan,nan,nan,nan,nan,nan,nan,nan,nan,253.2139046015218,792.2818892304786,nan,792.6654001739807,nan,nan,nan,nan
1,345,1,1,1.0,1.0,0.3833589870482683,0.0,1,5,8,7,0,4,nan,nan,nan,nan,nan,nan,nan,nan,nan,nan,nan,nan,0.0,nan,nan,nan,nan,nan,nan,nan,nan,nan,nan,nan,nan,nan,nan,nan,nan,nan,nan,253.2139046015218,793.2820129622705,nan,793.6653719493188,nan,nan,nan,nan
1,346,1,1,1.0,1.0,0.4072047253139317,0.0,5,3,6,8,4,0,nan,nan,nan,nan,nan,nan,nan,nan,nan,nan,nan,nan,0.0,nan,nan,nan,nan,nan,nan,nan,nan,nan,nan,nan,nan,nan,nan,nan,nan,nan,nan,253.2139046015218,794.2821372640319,nan,794.6893419893458,nan,nan,nan,nan
1,347,1,1,1.0,1.0,0.45505528431385756,0.0,3,4,0,1,2,7,nan,nan,nan,nan,nan,nan,nan,nan,nan,nan,nan,nan,0.0,nan,nan,nan,nan,nan,nan,nan,nan,nan,nan,nan,nan,nan,nan,nan,nan,nan,nan,253.2139046015218,795.2822641320527,nan,795.7373194163665,nan,nan,nan,nan
1,348,1,1,1.0,1.0,0.4469314659945667,0.0,7,2,6,3,8,4,nan,nan,nan,nan,nan,nan,nan,nan,nan,nan,nan,nan,0.0,nan,nan,nan,nan,nan,nan,nan,nan,nan,nan,nan,nan,nan,nan,nan,nan,nan,nan,253.2139046015218,796.2823622049764,nan,796.729293670971,nan,nan,nan,nan
1,349,1,1,1.0,1.0,0.4787650313228369,0.0,8,5,1,2,3,0,nan,nan,nan,nan,nan,nan,nan,nan,nan,nan,nan,nan,0.0,nan,nan,nan,nan,nan,nan,nan,nan,nan,nan,nan,nan,nan,nan,nan,nan,nan,nan,253.2139046015218,797.2825038977899,nan,797.7612689291127,nan,nan,nan,nan
1,350,1,1,1.0,1.0,0.47861278988420963,0.0,5,2,8,1,4,7,nan,nan,nan,nan,nan,nan,nan,nan,nan,nan,nan,nan,0.0,nan,nan,nan,nan,nan,nan,nan,nan,nan,nan,nan,nan,nan,nan,nan,nan,nan,nan,253.2139046015218,798.2826413144358,nan,798.76125410432,nan,nan,nan,nan
1,351,1,1,1.0,1.0,0.43815591745078564,0.0,6,4,1,3,7,2,nan,nan,nan,nan,nan,nan,nan,nan,nan,nan,nan,nan,0.0,nan,nan,nan,nan,nan,nan,nan,nan,nan,nan,nan,nan,nan,nan,nan,nan,nan,nan,253.2139046015218,799.2910718964413,nan,799.7292278138921,nan,nan,nan,nan
1,352,1,1,1.0,1.0,0.45400612987577915,0.0,4,3,8,6,2,5,nan,nan,nan,nan,nan,nan,nan,nan,nan,nan,nan,nan,0.0,nan,nan,nan,nan,nan,nan,nan,nan,nan,nan,nan,nan,nan,nan,nan,nan,nan,nan,253.2139046015218,800.2912076022476,nan,800.7452137321234,nan,nan,nan,nan
1,353,1,1,1.0,1.0,0.485855660866946,0.0,0,1,5,4,3,7,nan,nan,nan,nan,nan,nan,nan,nan,nan,nan,nan,nan,0.0,nan,nan,nan,nan,nan,nan,nan,nan,nan,nan,nan,nan,nan,nan,nan,nan,nan,nan,253.2139046015218,801.2913299086504,nan,801.7771855695173,nan,nan,nan,nan
1,354,1,1,1.0,1.0,0.5417160005308688,0.0,6,0,1,5,2,3,nan,nan,nan,nan,nan,nan,nan,nan,nan,nan,nan,nan,0.0,nan,nan,nan,nan,nan,nan,nan,nan,nan,nan,nan,nan,nan,nan,nan,nan,nan,nan,253.2139046015218,802.2914428063668,nan,802.8331588068977,nan,nan,nan,nan
1,355,1,1,1.0,1.0,0.4935392905026674,0.0,0,8,7,2,5,1,nan,nan,nan,nan,nan,nan,nan,nan,nan,nan,nan,nan,0.0,nan,nan,nan,nan,nan,nan,nan,nan,nan,nan,nan,nan,nan,nan,nan,nan,nan,nan,253.2139046015218,803.2915870654397,nan,803.7851263559423,nan,nan,nan,nan
1,356,1,1,1.0,1.0,0.4050704943947494,0.0,6,2,5,3,1,4,nan,nan,nan,nan,nan,nan,nan,nan,nan,nan,nan,nan,0.0,nan,nan,nan,nan,nan,nan,nan,nan,nan,nan,nan,nan,nan,nan,nan,nan,nan,nan,253.2139046015218,804.3000347530469,nan,804.7051052474417,nan,nan,nan,nan
1,357,1,1,1.0,1.0,0.4049159721471369,0.0,1,4,0,5,8,6,nan,nan,nan,nan,nan,nan,nan,nan,nan,nan,nan,nan,0.0,nan,nan,nan,nan,nan,nan,nan,nan,nan,nan,nan,nan,nan,nan,nan,nan,nan,nan,253.2139046015218,805.300175875891,nan,805.7050918480381,nan,nan,nan,nan
1,358,1,1,1.0,1.0,0.41277465084567666,0.0,3,6,8,4,7,5,nan,nan,nan,nan,nan,nan,nan,nan,nan,nan,nan,nan,0.0,nan,nan,nan,nan,nan,nan,nan,nan,nan,nan,nan,nan,nan,nan,nan,nan,nan,nan,253.2139046015218,806.300292765256,nan,806.7130674161017,nan,nan,nan,nan
1,359,1,1,1.0,1.0,0.3966250871308148,0.0,4,8,2,7,0,1,nan,nan,nan,nan,nan,nan,nan,nan,nan,nan,nan,nan,0.0,nan,nan,nan,nan,nan,nan,nan,nan,nan,nan,nan,nan,nan,nan,nan,nan,nan,nan,253.2139046015218,807.3004221990705,nan,807.6970472862013,nan,nan,nan,nan
1,360,0,0,0.0,1.0,0.49248186871409416,1.0,2,5,7,4,6,0,1.0,1.0,1.0,1.0,1.0,1.0,0.0,1.0,1.0,1.0,0.0,0.0,3.0,6.0,5.0,7.0,4.0,2.0,5.0,4.0,3.0,2.0,1.0,6.0,5.0,7.607564687728882,2.9992111385799944,1.9611396668478847,1.1290642255917192,10.647235549520701,9.21601146319881,253.2139046015218,808.3005248336121,809.1089401347563,808.7930067023262,820.8103796141222,821.8134441138245,810.1257385774516,820.8020468200557
1,361,1,1,1.0,1.0,0.7338267019949853,0.0,8,0,3,2,7,5,nan,nan,nan,nan,nan,nan,nan,nan,nan,nan,nan,nan,0.0,nan,nan,nan,nan,nan,nan,nan,nan,nan,nan,nan,nan,nan,nan,nan,nan,nan,nan,253.2139046015218,822.0188907645643,nan,822.7527174665593,nan,nan,nan,nan
1,362,1,1,1.0,1.0,0.5736473533324897,0.0,1,2,7,5,4,8,nan,nan,nan,nan,nan,nan,nan,nan,nan,nan,nan,nan,0.0,nan,nan,nan,nan,nan,nan,nan,nan,nan,nan,nan,nan,nan,nan,nan,nan,nan,nan,253.2139046015218,823.0190219087526,nan,823.5926692620851,nan,nan,nan,nan
1,363,1,1,1.0,1.0,0.4935079300776124,0.0,7,6,2,0,3,1,nan,nan,nan,nan,nan,nan,nan,nan,nan,nan,nan,nan,0.0,nan,nan,nan,nan,nan,nan,nan,nan,nan,nan,nan,nan,nan,nan,nan,nan,nan,nan,253.2139046015218,824.0191467809491,nan,824.5126547110267,nan,nan,nan,nan
1,364,1,1,1.0,1.0,0.5333461440168321,0.0,8,0,1,7,2,6,nan,nan,nan,nan,nan,nan,nan,nan,nan,nan,nan,nan,0.0,nan,nan,nan,nan,nan,nan,nan,nan,nan,nan,nan,nan,nan,nan,nan,nan,nan,nan,253.2139046015218,825.0192759293132,nan,825.55262207333,nan,nan,nan,nan
1,365,1,1,1.0,1.0,0.4132273839786649,0.0,2,1,5,3,6,0,nan,nan,nan,nan,nan,nan,nan,nan,nan,nan,nan,nan,0.0,nan,nan,nan,nan,nan,nan,nan,nan,nan,nan,nan,nan,nan,nan,nan,nan,nan,nan,253.2139046015218,826.0193782788701,nan,826.4326056628488,nan,nan,nan,nan
1,366,1,1,1.0,1.0,0.38106082612648606,0.0,5,8,1,2,4,7,nan,nan,nan,nan,nan,nan,nan,nan,nan,nan,nan,nan,0.0,nan,nan,nan,nan,nan,nan,nan,nan,nan,nan,nan,nan,nan,nan,nan,nan,nan,nan,253.2139046015218,827.0195108489133,nan,827.4005716750398,nan,nan,nan,nan
1,367,1,1,1.0,1.0,0.33294113585725427,0.0,0,6,4,1,3,5,nan,nan,nan,nan,nan,nan,nan,nan,nan,nan,nan,nan,0.0,nan,nan,nan,nan,nan,nan,nan,nan,nan,nan,nan,nan,nan,nan,nan,nan,nan,nan,253.2139046015218,828.0196240320802,nan,828.3525651679374,nan,nan,nan,nan
1,368,1,1,1.0,1.0,0.308790345210582,0.0,4,8,7,3,6,1,nan,nan,nan,nan,nan,nan,nan,nan,nan,nan,nan,nan,0.0,nan,nan,nan,nan,nan,nan,nan,nan,nan,nan,nan,nan,nan,nan,nan,nan,nan,nan,253.2139046015218,829.0197506146505,nan,829.3285409598611,nan,nan,nan,nan
1,369,1,1,1.0,1.0,0.3646330083720386,0.0,1,6,8,2,7,3,nan,nan,nan,nan,nan,nan,nan,nan,nan,nan,nan,nan,0.0,nan,nan,nan,nan,nan,nan,nan,nan,nan,nan,nan,nan,nan,nan,nan,nan,nan,nan,253.2139046015218,830.0198789080605,nan,830.3845119164325,nan,nan,nan,nan
1,370,1,1,1.0,1.0,0.3244535345584154,0.0,7,0,1,3,8,4,nan,nan,nan,nan,nan,nan,nan,nan,nan,nan,nan,nan,0.0,nan,nan,nan,nan,nan,nan,nan,nan,nan,nan,nan,nan,nan,nan,nan,nan,nan,nan,253.2139046015218,831.0200280132703,nan,831.3444815478288,nan,nan,nan,nan
1,371,1,1,1.0,1.0,0.38836955465376377,0.0,6,4,7,5,3,2,nan,nan,nan,nan,nan,nan,nan,nan,nan,nan,nan,nan,0.0,nan,nan,nan,nan,nan,nan,nan,nan,nan,nan,nan,nan,nan,nan,nan,nan,nan,nan,253.2139046015218,832.0201232354157,nan,832.4084927900694,nan,nan,nan,nan
1,372,1,1,1.0,1.0,0.31620997563004494,0.0,2,0,8,3,7,5,nan,nan,nan,nan,nan,nan,nan,nan,nan,nan,nan,nan,0.0,nan,nan,nan,nan,nan,nan,nan,nan,nan,nan,nan,nan,nan,nan,nan,nan,nan,nan,253.2139046015218,833.0202438314445,nan,833.3364538070746,nan,nan,nan,nan
1,373,1,1,1.0,1.0,0.42002664506435394,0.0,0,4,3,7,6,8,nan,nan,nan,nan,nan,nan,nan,nan,nan,nan,nan,nan,0.0,nan,nan,nan,nan,nan,nan,nan,nan,nan,nan,nan,nan,nan,nan,nan,nan,nan,nan,253.2139046015218,834.0204037702642,nan,834.4404304153286,nan,nan,nan,nan
1,374,1,1,1.0,1.0,0.4279058510437608,0.0,4,3,7,5,2,1,nan,nan,nan,nan,nan,nan,nan,nan,nan,nan,nan,nan,0.0,nan,nan,nan,nan,nan,nan,nan,nan,nan,nan,nan,nan,nan,nan,nan,nan,nan,nan,253.2139046015218,835.0204918649979,nan,835.4483977160417,nan,nan,nan,nan
1,375,0,0,0.0,1.0,0.6757431817241013,1.0,7,8,4,1,5,6,1.0,1.0,1.0,1.0,1.0,1.0,1.0,1.0,1.0,1.0,0.0,0.0,4.0,7.0,8.0,4.0,1.0,1.0,2.0,4.0,3.0,2.0,1.0,6.0,5.0,3.799027936067432,2.911599626764655,1.7197737363167107,0.9363571028225124,6.990721826907247,5.167442176491022,253.2139046015218,836.0206195884384,836.8290480035357,836.6963627701625,844.871663054917,845.8681415454485,837.845827344805,844.8633385286666
1,376,1,1,1.0,1.0,0.656283650547266,0.0,6,4,1,2,0,8,nan,nan,nan,nan,nan,nan,nan,nan,nan,nan,nan,nan,0.0,nan,nan,nan,nan,nan,nan,nan,nan,nan,nan,nan,nan,nan,nan,nan,nan,nan,nan,253.2139046015218,846.0718827499077,nan,846.7281664004549,nan,nan,nan,nan
1,377,0,0,0.0,1.0,0.7600866351276636,1.0,0,8,7,5,6,3,1.0,1.0,1.0,1.0,1.0,1.0,0.0,1.0,1.0,1.0,1.0,0.0,4.0,3.0,8.0,7.0,5.0,6.0,4.0,4.0,3.0,2.0,1.0,6.0,5.0,3.7804302503354847,2.62880578590557,1.844971485901624,0.9733112822286785,6.435207451693714,5.108215990010649,253.2139046015218,847.0720218769275,847.8803964089602,847.8321085120551,855.3646404207684,856.3668242581189,848.8888606326655,855.3563121883199
1,378,1,1,1.0,1.0,0.7867331583984196,0.0,8,5,2,4,1,6,nan,nan,nan,nan,nan,nan,nan,nan,nan,nan,nan,nan,0.0,nan,nan,nan,nan,nan,nan,nan,nan,nan,nan,nan,nan,nan,nan,nan,nan,nan,nan,253.2139046015218,856.5731706726365,nan,857.3599038310349,nan,nan,nan,nan
1,379,1,1,nan,nan,nan,0.0,7,1,3,0,2,4,nan,nan,nan,nan,nan,nan,nan,nan,nan,nan,nan,nan,0.0,nan,nan,nan,nan,nan,nan,nan,nan,nan,nan,nan,nan,nan,nan,nan,nan,nan,nan,253.2139046015218,857.5732969702221,nan,nan,nan,nan,nan,nan
1,380,1,1,1.0,1.0,0.6744625293649733,0.0,2,3,5,4,8,7,nan,nan,nan,nan,nan,nan,nan,nan,nan,nan,nan,nan,0.0,nan,nan,nan,nan,nan,nan,nan,nan,nan,nan,nan,nan,nan,nan,nan,nan,nan,nan,253.2139046015218,858.5733636827208,nan,859.2478262120858,nan,nan,nan,nan
1,381,1,1,1.0,1.0,0.47430584067478776,0.0,0,2,4,3,7,6,nan,nan,nan,nan,nan,nan,nan,nan,nan,nan,nan,nan,0.0,nan,nan,nan,nan,nan,nan,nan,nan,nan,nan,nan,nan,nan,nan,nan,nan,nan,nan,253.2139046015218,859.5735273277387,nan,860.0478331684135,nan,nan,nan,nan
1,382,0,0,0.0,1.0,0.6498498823493719,1.0,5,4,1,6,2,0,1.0,1.0,1.0,1.0,1.0,1.0,0.0,0.0,1.0,1.0,1.0,0.0,3.0,4.0,8.0,1.0,6.0,2.0,2.0,5.0,4.0,3.0,1.0,2.0,6.0,4.92547326721251,3.8860498685389757,2.6546748522669077,0.8787924577482045,1.6630983068607748,6.236817219294608,253.2139046015218,860.5819513527676,861.3903965889476,861.231801235117,868.6746295955963,869.6732052545995,862.3988633779809,868.6662965165451
1,383,1,1,1.0,1.0,0.5567482719197869,0.0,7,5,2,8,6,1,nan,nan,nan,nan,nan,nan,nan,nan,nan,nan,nan,nan,0.0,nan,nan,nan,nan,nan,nan,nan,nan,nan,nan,nan,nan,nan,nan,nan,nan,nan,nan,253.2139046015218,869.874858413823,nan,870.4316066857427,nan,nan,nan,nan
