block,trial,freq_trials,correct_response,actual_response,acc,rts,probe_trials,fast_rt_trigger,slow_rt_trigger,rt_triggered,rts_runningavg,rts_runningstd,rts_runningfastthresh,rts_runningslowthresh,rts_runningstd,rts_trailingavg,trials_colorind0,trials_colorind1,trials_colorind2,trials_colorind3,trials_colorind4,trials_colorind5,wholereport_resp0,wholereport_resp1,wholereport_resp2,wholereport_resp3,wholereport_resp4,wholereport_resp5,wholereport_respacc0,wholereport_respacc1,wholereport_respacc2,wholereport_respacc3,wholereport_respacc4,wholereport_respacc5,wholereport_respacc_total,wholereport_respcolorind0,wholereport_respcolorind1,wholereport_respcolorind2,wholereport_respcolorind3,wholereport_respcolorind4,wholereport_respcolorind5,wholereport_resporder0,wholereport_resporder1,wholereport_resporder2,wholereport_resporder3,wholereport_resporder4,wholereport_resporder5,wholereport_rts0,wholereport_rts1,wholereport_rts2,wholereport_rts3,wholereport_rts4,wholereport_rts5,time_blockstart,time_encarray_offset,time_encarray_onset,time_response,time_iti_offset,time_iti_onset,time_memprobe_offset,time_memprobe_onset
1,1,1,1,1.0,1.0,0.7449876796454191,0,nan,nan,nan,nan,nan,nan,nan,nan,nan,6,2,4,3,8,7,nan,nan,nan,nan,nan,nan,nan,nan,nan,nan,nan,nan,0.0,nan,nan,nan,nan,nan,nan,nan,nan,nan,nan,nan,nan,nan,nan,nan,nan,nan,nan,743.4515123844612,744.4744838860352,nan,745.2194715656806,nan,nan,nan,nan
1,2,1,1,1.0,1.0,0.31179775833152235,0,nan,nan,nan,nan,nan,nan,nan,nan,nan,3,2,0,5,6,1,nan,nan,nan,nan,nan,nan,nan,nan,nan,nan,nan,nan,0.0,nan,nan,nan,nan,nan,nan,nan,nan,nan,nan,nan,nan,nan,nan,nan,nan,nan,nan,743.4515123844612,745.4996611650568,nan,745.8114589233883,nan,nan,nan,nan
1,3,1,1,1.0,1.0,0.310696437722072,0,nan,nan,nan,nan,nan,nan,nan,nan,nan,6,1,4,0,8,5,nan,nan,nan,nan,nan,nan,nan,nan,nan,nan,nan,nan,0.0,nan,nan,nan,nan,nan,nan,nan,nan,nan,nan,nan,nan,nan,nan,nan,nan,nan,nan,743.4515123844612,746.5247363802046,nan,746.8354328179266,nan,nan,nan,nan
1,4,1,1,1.0,1.0,0.2854695525020361,0,nan,nan,nan,nan,nan,nan,nan,nan,nan,1,0,6,5,3,2,nan,nan,nan,nan,nan,nan,nan,nan,nan,nan,nan,nan,0.0,nan,nan,nan,nan,nan,nan,nan,nan,nan,nan,nan,nan,nan,nan,nan,nan,nan,nan,743.4515123844612,747.5499473002274,nan,747.8354168527294,nan,nan,nan,nan
1,5,1,1,1.0,1.0,0.39038124843500555,0,nan,nan,nan,nan,nan,nan,nan,nan,nan,3,7,8,4,1,5,nan,nan,nan,nan,nan,nan,nan,nan,nan,nan,nan,nan,0.0,nan,nan,nan,nan,nan,nan,nan,nan,nan,nan,nan,nan,nan,nan,nan,nan,nan,nan,743.4515123844612,748.7249991234858,nan,749.1153803719208,nan,nan,nan,nan
1,6,1,1,1.0,1.0,0.4052369606215507,0,nan,nan,nan,nan,nan,nan,nan,nan,nan,6,2,0,5,8,1,nan,nan,nan,nan,nan,nan,nan,nan,nan,nan,nan,nan,0.0,nan,nan,nan,nan,nan,nan,nan,nan,nan,nan,nan,nan,nan,nan,nan,nan,nan,nan,743.4515123844612,749.7501236598473,nan,750.1553606204689,nan,nan,nan,nan
1,7,1,1,1.0,1.0,0.3400483576115221,0,nan,nan,nan,nan,nan,nan,nan,nan,nan,5,0,2,4,3,7,nan,nan,nan,nan,nan,nan,nan,nan,nan,nan,nan,nan,0.0,nan,nan,nan,nan,nan,nan,nan,nan,nan,nan,nan,nan,nan,nan,nan,nan,nan,nan,743.4515123844612,750.7752644468565,nan,751.115312804468,nan,nan,nan,nan
1,8,1,1,1.0,1.0,0.4989125062711537,0,nan,nan,nan,nan,nan,nan,nan,nan,nan,8,2,6,7,1,4,nan,nan,nan,nan,nan,nan,nan,nan,nan,nan,nan,nan,0.0,nan,nan,nan,nan,nan,nan,nan,nan,nan,nan,nan,nan,nan,nan,nan,nan,nan,nan,743.4515123844612,751.8003838516306,nan,752.2992963579018,nan,nan,nan,nan
1,9,0,0,0.0,1.0,0.529767730506137,0,nan,nan,nan,nan,nan,nan,nan,nan,nan,0,5,8,1,4,3,nan,nan,nan,nan,nan,nan,nan,nan,nan,nan,nan,nan,0.0,nan,nan,nan,nan,nan,nan,nan,nan,nan,nan,nan,nan,nan,nan,nan,nan,nan,nan,743.4515123844612,752.8254969841801,nan,753.3552647146862,nan,nan,nan,nan
1,10,1,1,1.0,1.0,0.5126187168061733,0,nan,nan,nan,nan,nan,nan,nan,nan,nan,1,4,6,7,3,0,nan,nan,nan,nan,nan,nan,nan,nan,nan,nan,nan,nan,0.0,nan,nan,nan,nan,nan,nan,nan,nan,nan,nan,nan,nan,nan,nan,nan,nan,nan,nan,743.4515123844612,753.8505992833525,nan,754.3632180001587,nan,nan,nan,nan
1,11,1,1,1.0,1.0,0.5114675047807395,0,nan,nan,nan,nan,nan,nan,nan,nan,nan,6,7,2,5,8,1,nan,nan,nan,nan,nan,nan,nan,nan,nan,nan,nan,nan,0.0,nan,nan,nan,nan,nan,nan,nan,nan,nan,nan,nan,nan,nan,nan,nan,nan,nan,nan,743.4515123844612,754.8757169775199,nan,755.3871844823007,nan,nan,nan,nan
1,12,1,1,1.0,1.0,0.3423194217029959,0,nan,nan,nan,nan,nan,nan,nan,nan,nan,3,1,8,2,4,6,nan,nan,nan,nan,nan,nan,nan,nan,nan,nan,nan,nan,0.0,nan,nan,nan,nan,nan,nan,nan,nan,nan,nan,nan,nan,nan,nan,nan,nan,nan,nan,743.4515123844612,755.9008343867026,nan,756.2431538084056,nan,nan,nan,nan
1,13,1,1,1.0,1.0,0.24519023951143026,0,nan,nan,nan,nan,nan,nan,nan,nan,nan,2,4,0,7,3,8,nan,nan,nan,nan,nan,nan,nan,nan,nan,nan,nan,nan,0.0,nan,nan,nan,nan,nan,nan,nan,nan,nan,nan,nan,nan,nan,nan,nan,nan,nan,nan,743.4515123844612,756.925950655248,nan,757.1711408947594,nan,nan,nan,nan
1,14,1,1,1.0,1.0,0.2520270941313356,0,nan,nan,nan,nan,nan,nan,nan,nan,nan,8,6,3,0,4,2,nan,nan,nan,nan,nan,nan,nan,nan,nan,nan,nan,nan,0.0,nan,nan,nan,nan,nan,nan,nan,nan,nan,nan,nan,nan,nan,nan,nan,nan,nan,nan,743.4515123844612,757.9510774726514,nan,758.2031045667827,nan,nan,nan,nan
1,15,1,1,1.0,1.0,0.33918651659041643,1,nan,nan,nan,nan,nan,nan,nan,nan,nan,6,7,1,8,5,0,1.0,1.0,1.0,1.0,1.0,1.0,0.0,0.0,1.0,0.0,1.0,0.0,2.0,0.0,4.0,1.0,6.0,5.0,8.0,4.0,2.0,1.0,3.0,6.0,5.0,9.855204987339675,3.056868400424719,1.9913154465612024,8.216437018010765,16.478539927629754,13.65514950780198,743.4515123844612,758.9678738240618,759.7762671245728,759.3070603406522,777.3116503646597,778.3163803699426,760.7930574892089,777.303315052297
1,16,1,1,1.0,1.0,0.5856727962382138,0,nan,nan,nan,nan,nan,nan,nan,nan,nan,7,3,0,6,1,8,nan,nan,nan,nan,nan,nan,nan,nan,nan,nan,nan,nan,0.0,nan,nan,nan,nan,nan,nan,nan,nan,nan,nan,nan,nan,nan,nan,nan,nan,nan,nan,743.4515123844612,778.5368300953414,nan,779.1225028915796,nan,nan,nan,nan
1,17,1,1,1.0,1.0,0.5045374240726233,0,nan,nan,nan,nan,nan,nan,nan,nan,nan,2,6,8,3,5,4,nan,nan,nan,nan,nan,nan,nan,nan,nan,nan,nan,nan,0.0,nan,nan,nan,nan,nan,nan,nan,nan,nan,nan,nan,nan,nan,nan,nan,nan,nan,nan,743.4515123844612,779.5619332497008,nan,780.0664706737734,nan,nan,nan,nan
1,18,1,1,1.0,1.0,0.34371239435859025,0,nan,nan,nan,nan,nan,nan,nan,nan,nan,6,7,2,5,4,0,nan,nan,nan,nan,nan,nan,nan,nan,nan,nan,nan,nan,0.0,nan,nan,nan,nan,nan,nan,nan,nan,nan,nan,nan,nan,nan,nan,nan,nan,nan,nan,743.4515123844612,780.5787392943166,nan,780.9224516886752,nan,nan,nan,nan
1,19,1,1,1.0,1.0,0.35057205660268664,0,nan,nan,nan,nan,nan,nan,nan,nan,nan,8,3,1,0,5,7,nan,nan,nan,nan,nan,nan,nan,nan,nan,nan,nan,nan,0.0,nan,nan,nan,nan,nan,nan,nan,nan,nan,nan,nan,nan,nan,nan,nan,nan,nan,nan,743.4515123844612,781.6038455849048,nan,781.9544176415075,nan,nan,nan,nan
1,20,1,1,1.0,1.0,0.3173961623106152,0,nan,nan,nan,nan,nan,nan,nan,nan,nan,1,8,4,7,0,5,nan,nan,nan,nan,nan,nan,nan,nan,nan,nan,nan,nan,0.0,nan,nan,nan,nan,nan,nan,nan,nan,nan,nan,nan,nan,nan,nan,nan,nan,nan,nan,743.4515123844612,782.628992643673,nan,782.9463888059836,nan,nan,nan,nan
1,21,1,1,1.0,1.0,0.26827948493883014,0,nan,nan,nan,nan,nan,nan,nan,nan,nan,8,6,5,0,2,7,nan,nan,nan,nan,nan,nan,nan,nan,nan,nan,nan,nan,0.0,nan,nan,nan,nan,nan,nan,nan,nan,nan,nan,nan,nan,nan,nan,nan,nan,nan,nan,743.4515123844612,783.654089811258,nan,783.9223692961968,nan,nan,nan,nan
1,22,1,1,1.0,1.0,0.27516480605117977,0,nan,nan,nan,nan,nan,nan,nan,nan,nan,7,0,3,1,4,6,nan,nan,nan,nan,nan,nan,nan,nan,nan,nan,nan,nan,0.0,nan,nan,nan,nan,nan,nan,nan,nan,nan,nan,nan,nan,nan,nan,nan,nan,nan,nan,743.4515123844612,784.6791892594192,nan,784.9543540654704,nan,nan,nan,nan
1,23,1,1,1.0,1.0,0.2339726199861616,0,nan,nan,nan,nan,nan,nan,nan,nan,nan,8,2,7,6,0,1,nan,nan,nan,nan,nan,nan,nan,nan,nan,nan,nan,nan,0.0,nan,nan,nan,nan,nan,nan,nan,nan,nan,nan,nan,nan,nan,nan,nan,nan,nan,nan,743.4515123844612,785.7043232040014,nan,785.9382958239876,nan,nan,nan,nan
1,24,1,1,1.0,1.0,0.2648124492261559,0,nan,nan,nan,nan,nan,nan,nan,nan,nan,5,1,3,4,7,6,nan,nan,nan,nan,nan,nan,nan,nan,nan,nan,nan,nan,0.0,nan,nan,nan,nan,nan,nan,nan,nan,nan,nan,nan,nan,nan,nan,nan,nan,nan,nan,743.4515123844612,786.7294491657522,nan,786.9942616149783,nan,nan,nan,nan
1,25,1,1,1.0,1.0,0.22367129498161376,0,nan,nan,nan,nan,nan,nan,nan,nan,nan,4,3,5,8,2,7,nan,nan,nan,nan,nan,nan,nan,nan,nan,nan,nan,nan,0.0,nan,nan,nan,nan,nan,nan,nan,nan,nan,nan,nan,nan,nan,nan,nan,nan,nan,nan,743.4515123844612,787.7545668601524,nan,787.978238155134,nan,nan,nan,nan
1,26,1,1,1.0,1.0,0.11857913387939334,0,nan,nan,nan,nan,nan,nan,nan,nan,nan,2,5,6,1,0,3,nan,nan,nan,nan,nan,nan,nan,nan,nan,nan,nan,nan,0.0,nan,nan,nan,nan,nan,nan,nan,nan,nan,nan,nan,nan,nan,nan,nan,nan,nan,nan,743.4515123844612,788.7796851245221,nan,788.8982642584015,nan,nan,nan,nan
1,27,1,1,1.0,1.0,0.16532752942293882,0,nan,nan,nan,nan,nan,nan,nan,nan,nan,6,8,5,2,1,7,nan,nan,nan,nan,nan,nan,nan,nan,nan,nan,nan,nan,0.0,nan,nan,nan,nan,nan,nan,nan,nan,nan,nan,nan,nan,nan,nan,nan,nan,nan,nan,743.4515123844612,789.804889772553,nan,789.9702173019759,nan,nan,nan,nan
1,28,1,1,1.0,1.0,0.22022592625580728,0,nan,nan,nan,nan,nan,nan,nan,nan,nan,5,2,8,7,0,3,nan,nan,nan,nan,nan,nan,nan,nan,nan,nan,nan,nan,0.0,nan,nan,nan,nan,nan,nan,nan,nan,nan,nan,nan,nan,nan,nan,nan,nan,nan,nan,743.4515123844612,790.8299629918765,nan,791.0501889181323,nan,nan,nan,nan
1,29,1,1,1.0,1.0,0.2430654289200902,0,nan,nan,nan,nan,nan,nan,nan,nan,nan,7,3,6,0,4,2,nan,nan,nan,nan,nan,nan,nan,nan,nan,nan,nan,nan,0.0,nan,nan,nan,nan,nan,nan,nan,nan,nan,nan,nan,nan,nan,nan,nan,nan,nan,nan,743.4515123844612,791.8550861028489,nan,792.098151531769,nan,nan,nan,nan
1,30,0,0,1.0,0.0,0.2179357607383281,0,nan,nan,nan,nan,nan,nan,nan,nan,nan,3,6,8,4,2,7,nan,nan,nan,nan,nan,nan,nan,nan,nan,nan,nan,nan,0.0,nan,nan,nan,nan,nan,nan,nan,nan,nan,nan,nan,nan,nan,nan,nan,nan,nan,nan,743.4515123844612,792.8801832704339,nan,793.0981190311722,nan,nan,nan,nan
1,31,1,1,1.0,1.0,0.4887557241600007,0,nan,nan,nan,nan,nan,nan,nan,nan,nan,7,1,0,2,6,8,nan,nan,nan,nan,nan,nan,nan,nan,nan,nan,nan,nan,0.0,nan,nan,nan,nan,nan,nan,nan,nan,nan,nan,nan,nan,nan,nan,nan,nan,nan,nan,743.4515123844612,793.9053274784237,nan,794.3940832025837,nan,nan,nan,nan
1,32,1,1,1.0,1.0,0.2956556992139667,0,nan,nan,nan,nan,nan,nan,nan,nan,nan,1,6,4,8,0,5,nan,nan,nan,nan,nan,nan,nan,nan,nan,nan,nan,nan,0.0,nan,nan,nan,nan,nan,nan,nan,nan,nan,nan,nan,nan,nan,nan,nan,nan,nan,nan,743.4515123844612,794.930387868546,nan,795.2260435677599,nan,nan,nan,nan
1,33,1,1,1.0,1.0,0.26247866405174136,0,nan,nan,nan,nan,nan,nan,nan,nan,nan,3,5,2,1,4,0,nan,nan,nan,nan,nan,nan,nan,nan,nan,nan,nan,nan,0.0,nan,nan,nan,nan,nan,nan,nan,nan,nan,nan,nan,nan,nan,nan,nan,nan,nan,nan,743.4515123844612,795.9555337871425,nan,796.2180124511942,nan,nan,nan,nan
1,34,1,1,1.0,1.0,0.30130057339556515,0,nan,nan,nan,nan,nan,nan,nan,nan,nan,8,6,3,7,5,1,nan,nan,nan,nan,nan,nan,nan,nan,nan,nan,nan,nan,0.0,nan,nan,nan,nan,nan,nan,nan,nan,nan,nan,nan,nan,nan,nan,nan,nan,nan,nan,743.4515123844612,796.9806862627156,nan,797.2819868361112,nan,nan,nan,nan
1,35,1,1,1.0,1.0,0.24415477574802935,0,nan,nan,nan,nan,nan,nan,nan,nan,nan,1,0,8,6,4,5,nan,nan,nan,nan,nan,nan,nan,nan,nan,nan,nan,nan,0.0,nan,nan,nan,nan,nan,nan,nan,nan,nan,nan,nan,nan,nan,nan,nan,nan,nan,nan,743.4515123844612,798.0058187819086,nan,798.2499735576566,nan,nan,nan,nan
1,36,1,1,1.0,1.0,0.2510175739880651,0,nan,nan,nan,nan,nan,nan,nan,nan,nan,0,4,5,1,2,3,nan,nan,nan,nan,nan,nan,nan,nan,nan,nan,nan,nan,0.0,nan,nan,nan,nan,nan,nan,nan,nan,nan,nan,nan,nan,nan,nan,nan,nan,nan,nan,743.4515123844612,799.0309236468747,nan,799.2819412208628,nan,nan,nan,nan
1,37,0,0,1.0,0.0,0.21786790830083191,0,nan,nan,nan,nan,nan,nan,nan,nan,nan,8,5,1,6,3,0,nan,nan,nan,nan,nan,nan,nan,nan,nan,nan,nan,nan,0.0,nan,nan,nan,nan,nan,nan,nan,nan,nan,nan,nan,nan,nan,nan,nan,nan,nan,nan,743.4515123844612,800.0560447622556,nan,800.2739126705565,nan,nan,nan,nan
1,38,1,1,1.0,1.0,0.5607372776139528,0,nan,nan,nan,nan,nan,nan,nan,nan,nan,1,8,5,0,7,2,nan,nan,nan,nan,nan,nan,nan,nan,nan,nan,nan,nan,0.0,nan,nan,nan,nan,nan,nan,nan,nan,nan,nan,nan,nan,nan,nan,nan,nan,nan,nan,743.4515123844612,801.0811367977876,nan,801.6418740754016,nan,nan,nan,nan
1,39,1,1,1.0,1.0,0.29556104773655534,0,nan,nan,nan,nan,nan,nan,nan,nan,nan,6,3,0,5,4,1,nan,nan,nan,nan,nan,nan,nan,nan,nan,nan,nan,nan,0.0,nan,nan,nan,nan,nan,nan,nan,nan,nan,nan,nan,nan,nan,nan,nan,nan,nan,nan,743.4515123844612,802.1062887033913,nan,802.4018497511279,nan,nan,nan,nan
1,40,0,0,1.0,0.0,0.23835566523484886,0,nan,nan,nan,nan,nan,nan,nan,nan,nan,5,1,3,2,6,0,nan,nan,nan,nan,nan,nan,nan,nan,nan,nan,nan,nan,0.0,nan,nan,nan,nan,nan,nan,nan,nan,nan,nan,nan,nan,nan,nan,nan,nan,nan,nan,743.4515123844612,803.1314565744251,nan,803.36981223966,nan,nan,nan,nan
1,41,1,1,1.0,1.0,0.46128770988434553,0,nan,nan,nan,nan,nan,nan,nan,nan,nan,7,4,1,6,8,2,nan,nan,nan,nan,nan,nan,nan,nan,nan,nan,nan,nan,0.0,nan,nan,nan,nan,nan,nan,nan,nan,nan,nan,nan,nan,nan,nan,nan,nan,nan,nan,743.4515123844612,804.156490450725,nan,804.6177781606093,nan,nan,nan,nan
1,42,1,1,1.0,1.0,0.3000986143015325,0,nan,nan,nan,nan,nan,nan,nan,nan,nan,4,8,2,5,6,7,nan,nan,nan,nan,nan,nan,nan,nan,nan,nan,nan,nan,0.0,nan,nan,nan,nan,nan,nan,nan,nan,nan,nan,nan,nan,nan,nan,nan,nan,nan,nan,743.4515123844612,805.1816463475116,nan,805.4817449618131,nan,nan,nan,nan
1,43,1,1,1.0,1.0,0.3069745269604027,0,nan,nan,nan,nan,nan,nan,nan,nan,nan,2,3,8,4,5,1,nan,nan,nan,nan,nan,nan,nan,nan,nan,nan,nan,nan,0.0,nan,nan,nan,nan,nan,nan,nan,nan,nan,nan,nan,nan,nan,nan,nan,nan,nan,nan,743.4515123844612,806.206728690071,nan,806.5137032170314,nan,nan,nan,nan
1,44,1,1,1.0,1.0,0.34582152450457215,0,nan,nan,nan,nan,nan,nan,nan,nan,nan,6,7,3,2,4,8,nan,nan,nan,nan,nan,nan,nan,nan,nan,nan,nan,nan,0.0,nan,nan,nan,nan,nan,nan,nan,nan,nan,nan,nan,nan,nan,nan,nan,nan,nan,nan,743.4515123844612,807.2318512308411,nan,807.5776727553457,nan,nan,nan,nan
1,45,1,1,1.0,1.0,0.4326850187499076,0,nan,nan,nan,nan,nan,nan,nan,nan,nan,1,6,4,0,7,2,nan,nan,nan,nan,nan,nan,nan,nan,nan,nan,nan,nan,0.0,nan,nan,nan,nan,nan,nan,nan,nan,nan,nan,nan,nan,nan,nan,nan,nan,nan,nan,743.4515123844612,808.2569840350188,nan,808.6896690537687,nan,nan,nan,nan
1,46,1,1,1.0,1.0,0.42352948896586895,0,nan,nan,nan,nan,nan,nan,nan,nan,nan,5,7,2,4,0,8,nan,nan,nan,nan,nan,nan,nan,nan,nan,nan,nan,nan,0.0,nan,nan,nan,nan,nan,nan,nan,nan,nan,nan,nan,nan,nan,nan,nan,nan,nan,nan,743.4515123844612,809.2821282430086,nan,809.7056577319745,nan,nan,nan,nan
1,47,1,1,1.0,1.0,0.3983624733518809,0,nan,nan,nan,nan,nan,nan,nan,nan,nan,0,2,1,7,6,3,nan,nan,nan,nan,nan,nan,nan,nan,nan,nan,nan,nan,0.0,nan,nan,nan,nan,nan,nan,nan,nan,nan,nan,nan,nan,nan,nan,nan,nan,nan,nan,743.4515123844612,810.3072485032026,nan,810.7056109765545,nan,nan,nan,nan
1,48,1,1,1.0,1.0,0.40520331962034106,0,nan,nan,nan,nan,nan,nan,nan,nan,nan,7,8,3,5,0,1,nan,nan,nan,nan,nan,nan,nan,nan,nan,nan,nan,nan,0.0,nan,nan,nan,nan,nan,nan,nan,nan,nan,nan,nan,nan,nan,nan,nan,nan,nan,nan,743.4515123844612,811.3323701885529,nan,811.7375735081732,nan,nan,nan,nan
1,49,1,1,1.0,1.0,0.2600331222638488,1,nan,nan,nan,nan,nan,nan,nan,nan,nan,6,1,0,2,3,7,1.0,1.0,1.0,1.0,1.0,1.0,1.0,0.0,1.0,0.0,0.0,0.0,2.0,6.0,2.0,0.0,4.0,0.0,3.0,3.0,2.0,1.0,6.0,5.0,4.0,5.600832419469953,3.8725435889791697,2.968742792494595,14.296086192131042,10.392570775467902,9.712782247457653,743.4515123844612,812.3574921593536,813.1658563802484,812.6175252816174,828.5093161805999,829.5141496753786,814.1743194148876,828.5009859998245
1,50,1,1,1.0,1.0,0.5945834296289831,0,nan,nan,nan,nan,nan,nan,nan,nan,nan,1,0,4,8,5,6,nan,nan,nan,nan,nan,nan,nan,nan,nan,nan,nan,nan,0.0,nan,nan,nan,nan,nan,nan,nan,nan,nan,nan,nan,nan,nan,nan,nan,nan,nan,nan,743.4515123844612,829.734464836074,nan,830.329048265703,nan,nan,nan,nan
1,51,1,1,1.0,1.0,0.3773404487874359,1,nan,nan,nan,nan,nan,nan,nan,nan,nan,2,3,1,6,7,5,1.0,1.0,1.0,1.0,1.0,1.0,1.0,1.0,1.0,1.0,0.0,0.0,4.0,2.0,3.0,1.0,6.0,8.0,7.0,4.0,3.0,2.0,1.0,6.0,5.0,12.470198628492653,4.701134990435094,3.7754873908124864,2.471640351926908,14.365148376207799,13.388775025261566,743.4515123844612,830.7596557997167,831.5680143185891,831.1369962485041,846.9864842328243,847.9840449630283,832.5848032576032,846.978150060866
1,52,0,0,0.0,1.0,0.65323281660676,0,nan,nan,nan,nan,nan,nan,nan,nan,nan,3,2,8,1,4,0,nan,nan,nan,nan,nan,nan,nan,nan,nan,nan,nan,nan,0.0,nan,nan,nan,nan,nan,nan,nan,nan,nan,nan,nan,nan,nan,nan,nan,nan,nan,nan,743.4515123844612,848.2032770491205,nan,848.8565098657273,nan,nan,nan,nan
1,53,1,1,nan,nan,nan,0,nan,nan,nan,nan,nan,nan,nan,nan,nan,0,4,6,5,3,7,nan,nan,nan,nan,nan,nan,nan,nan,nan,nan,nan,nan,0.0,nan,nan,nan,nan,nan,nan,nan,nan,nan,nan,nan,nan,nan,nan,nan,nan,nan,nan,743.4515123844612,849.2200987739488,nan,nan,nan,nan,nan,nan
1,54,1,1,1.0,1.0,0.5311994757503271,0,nan,nan,nan,nan,nan,nan,nan,nan,nan,4,1,2,8,7,5,nan,nan,nan,nan,nan,nan,nan,nan,nan,nan,nan,nan,0.0,nan,nan,nan,nan,nan,nan,nan,nan,nan,nan,nan,nan,nan,nan,nan,nan,nan,nan,743.4515123844612,850.2452560963575,nan,850.7764555721078,nan,nan,nan,nan
1,55,1,1,1.0,1.0,0.3380361597519368,0,nan,nan,nan,nan,nan,nan,nan,nan,nan,7,6,5,0,3,8,nan,nan,nan,nan,nan,nan,nan,nan,nan,nan,nan,nan,0.0,nan,nan,nan,nan,nan,nan,nan,nan,nan,nan,nan,nan,nan,nan,nan,nan,nan,nan,743.4515123844612,851.270382913528,nan,851.60841907328,nan,nan,nan,nan
1,56,1,1,1.0,1.0,0.4008844206109643,0,nan,nan,nan,nan,nan,nan,nan,nan,nan,1,8,3,6,2,0,nan,nan,nan,nan,nan,nan,nan,nan,nan,nan,nan,nan,0.0,nan,nan,nan,nan,nan,nan,nan,nan,nan,nan,nan,nan,nan,nan,nan,nan,nan,nan,743.4515123844612,852.2955080203246,nan,852.6963924409356,nan,nan,nan,nan
1,57,1,1,1.0,1.0,0.3437440397683531,1,nan,nan,nan,nan,nan,nan,nan,nan,nan,3,0,1,4,6,7,1.0,1.0,1.0,1.0,1.0,1.0,0.0,1.0,1.0,1.0,0.0,0.0,3.0,2.0,0.0,1.0,4.0,4.0,0.0,6.0,1.0,2.0,3.0,4.0,5.0,10.075737675419077,1.2386835240758955,2.0463937378954142,4.196023385738954,7.412060701288283,9.140188453253359,743.4515123844612,853.3206225782633,854.129036690807,853.6643666180316,865.2553193673957,866.2511296162847,855.1374871814623,865.2470199768431
1,58,1,1,1.0,1.0,0.31177723151631653,0,nan,nan,nan,nan,nan,nan,nan,nan,nan,5,7,6,8,4,0,nan,nan,nan,nan,nan,nan,nan,nan,nan,nan,nan,nan,0.0,nan,nan,nan,nan,nan,nan,nan,nan,nan,nan,nan,nan,nan,nan,nan,nan,nan,nan,743.4515123844612,866.4721672069281,nan,866.7839444384445,nan,nan,nan,nan
1,59,1,1,1.0,1.0,0.4949405677616596,0,nan,nan,nan,nan,nan,nan,nan,nan,nan,7,2,5,6,1,8,nan,nan,nan,nan,nan,nan,nan,nan,nan,nan,nan,nan,0.0,nan,nan,nan,nan,nan,nan,nan,nan,nan,nan,nan,nan,nan,nan,nan,nan,nan,nan,743.4515123844612,867.4889949187636,nan,867.9839354865253,nan,nan,nan,nan
1,60,1,1,1.0,1.0,0.31787597644142807,0,nan,nan,nan,nan,nan,nan,nan,nan,nan,5,8,4,3,2,1,nan,nan,nan,nan,nan,nan,nan,nan,nan,nan,nan,nan,0.0,nan,nan,nan,nan,nan,nan,nan,nan,nan,nan,nan,nan,nan,nan,nan,nan,nan,nan,743.4515123844612,868.5140282250941,nan,868.8319042015355,nan,nan,nan,nan
1,61,1,1,1.0,1.0,0.3247310775332153,0,nan,nan,nan,nan,nan,nan,nan,nan,nan,0,6,5,4,8,7,nan,nan,nan,nan,nan,nan,nan,nan,nan,nan,nan,nan,0.0,nan,nan,nan,nan,nan,nan,nan,nan,nan,nan,nan,nan,nan,nan,nan,nan,nan,nan,743.4515123844612,869.5391396470368,nan,869.86387072457,nan,nan,nan,nan
1,62,1,1,1.0,1.0,0.3636048736516386,0,nan,nan,nan,nan,nan,nan,nan,nan,nan,8,3,0,1,6,4,nan,nan,nan,nan,nan,nan,nan,nan,nan,nan,nan,nan,0.0,nan,nan,nan,nan,nan,nan,nan,nan,nan,nan,nan,nan,nan,nan,nan,nan,nan,nan,743.4515123844612,870.5642653240357,nan,870.9278701976873,nan,nan,nan,nan
1,63,1,1,1.0,1.0,0.29040568112395704,0,nan,nan,nan,nan,nan,nan,nan,nan,nan,3,1,7,6,4,0,nan,nan,nan,nan,nan,nan,nan,nan,nan,nan,nan,nan,0.0,nan,nan,nan,nan,nan,nan,nan,nan,nan,nan,nan,nan,nan,nan,nan,nan,nan,nan,743.4515123844612,871.5894172296394,nan,871.8798229107633,nan,nan,nan,nan
1,64,1,1,1.0,1.0,0.313287093071267,0,nan,nan,nan,nan,nan,nan,nan,nan,nan,7,8,4,1,2,6,nan,nan,nan,nan,nan,nan,nan,nan,nan,nan,nan,nan,0.0,nan,nan,nan,nan,nan,nan,nan,nan,nan,nan,nan,nan,nan,nan,nan,nan,nan,nan,743.4515123844612,872.6145124011673,nan,872.9277994942386,nan,nan,nan,nan
1,65,1,1,1.0,1.0,0.3441160882357508,0,nan,nan,nan,nan,nan,nan,nan,nan,nan,1,7,2,4,0,5,nan,nan,nan,nan,nan,nan,nan,nan,nan,nan,nan,nan,0.0,nan,nan,nan,nan,nan,nan,nan,nan,nan,nan,nan,nan,nan,nan,nan,nan,nan,nan,743.4515123844612,873.6396548987832,nan,873.9837709870189,nan,nan,nan,nan
1,66,1,1,1.0,1.0,0.2949267120566219,0,nan,nan,nan,nan,nan,nan,nan,nan,nan,5,3,7,0,2,4,nan,nan,nan,nan,nan,nan,nan,nan,nan,nan,nan,nan,0.0,nan,nan,nan,nan,nan,nan,nan,nan,nan,nan,nan,nan,nan,nan,nan,nan,nan,nan,743.4515123844612,874.6648287565913,nan,874.9597554686479,nan,nan,nan,nan
1,67,1,1,1.0,1.0,0.3338093461934477,0,nan,nan,nan,nan,nan,nan,nan,nan,nan,4,7,2,6,8,0,nan,nan,nan,nan,nan,nan,nan,nan,nan,nan,nan,nan,0.0,nan,nan,nan,nan,nan,nan,nan,nan,nan,nan,nan,nan,nan,nan,nan,nan,nan,nan,743.4515123844612,875.689909388544,nan,876.0237187347375,nan,nan,nan,nan
1,68,1,1,1.0,1.0,0.4846925553865731,0,nan,nan,nan,nan,nan,nan,nan,nan,nan,3,4,6,1,0,7,nan,nan,nan,nan,nan,nan,nan,nan,nan,nan,nan,nan,0.0,nan,nan,nan,nan,nan,nan,nan,nan,nan,nan,nan,nan,nan,nan,nan,nan,nan,nan,743.4515123844612,876.7150025644805,nan,877.1996951198671,nan,nan,nan,nan
1,69,1,1,1.0,1.0,0.36354186781682074,0,nan,nan,nan,nan,nan,nan,nan,nan,nan,5,8,3,4,6,1,nan,nan,nan,nan,nan,nan,nan,nan,nan,nan,nan,nan,0.0,nan,nan,nan,nan,nan,nan,nan,nan,nan,nan,nan,nan,nan,nan,nan,nan,nan,nan,743.4515123844612,877.7401262456551,nan,878.1036681134719,nan,nan,nan,nan
1,70,1,1,1.0,1.0,0.2823802665807307,0,nan,nan,nan,nan,nan,nan,nan,nan,nan,2,1,6,7,5,4,nan,nan,nan,nan,nan,nan,nan,nan,nan,nan,nan,nan,0.0,nan,nan,nan,nan,nan,nan,nan,nan,nan,nan,nan,nan,nan,nan,nan,nan,nan,nan,743.4515123844612,878.7652479312383,nan,879.047628197819,nan,nan,nan,nan
1,71,1,1,1.0,1.0,0.2571884479839355,0,nan,nan,nan,nan,nan,nan,nan,nan,nan,3,2,4,8,7,0,nan,nan,nan,nan,nan,nan,nan,nan,nan,nan,nan,nan,0.0,nan,nan,nan,nan,nan,nan,nan,nan,nan,nan,nan,nan,nan,nan,nan,nan,nan,nan,743.4515123844612,879.7903941348195,nan,880.0475825828034,nan,nan,nan,nan
1,72,0,0,1.0,0.0,0.31209112075157464,0,nan,nan,nan,nan,nan,nan,nan,nan,nan,5,4,7,3,6,2,nan,nan,nan,nan,nan,nan,nan,nan,nan,nan,nan,nan,0.0,nan,nan,nan,nan,nan,nan,nan,nan,nan,nan,nan,nan,nan,nan,nan,nan,nan,nan,743.4515123844612,880.8154793283902,nan,881.1275704491418,nan,nan,nan,nan
1,73,1,1,1.0,1.0,0.7028478388674557,0,nan,nan,nan,nan,nan,nan,nan,nan,nan,2,1,0,5,4,8,nan,nan,nan,nan,nan,nan,nan,nan,nan,nan,nan,nan,0.0,nan,nan,nan,nan,nan,nan,nan,nan,nan,nan,nan,nan,nan,nan,nan,nan,nan,nan,743.4515123844612,881.8406363655813,nan,882.5434842044488,nan,nan,nan,nan
1,74,1,1,1.0,1.0,0.6457516478840262,0,nan,nan,nan,nan,nan,nan,nan,nan,nan,0,8,1,7,2,5,nan,nan,nan,nan,nan,nan,nan,nan,nan,nan,nan,nan,0.0,nan,nan,nan,nan,nan,nan,nan,nan,nan,nan,nan,nan,nan,nan,nan,nan,nan,nan,743.4515123844612,882.8657209887169,nan,883.511472636601,nan,nan,nan,nan
1,75,1,1,1.0,1.0,0.5726223033852875,0,nan,nan,nan,nan,nan,nan,nan,nan,nan,2,4,6,3,7,0,nan,nan,nan,nan,nan,nan,nan,nan,nan,nan,nan,nan,0.0,nan,nan,nan,nan,nan,nan,nan,nan,nan,nan,nan,nan,nan,nan,nan,nan,nan,nan,743.4515123844612,883.890830415301,nan,884.4634527186863,nan,nan,nan,nan
1,76,1,1,1.0,1.0,0.4833939492236823,0,nan,nan,nan,nan,nan,nan,nan,nan,nan,5,7,4,0,6,2,nan,nan,nan,nan,nan,nan,nan,nan,nan,nan,nan,nan,0.0,nan,nan,nan,nan,nan,nan,nan,nan,nan,nan,nan,nan,nan,nan,nan,nan,nan,nan,743.4515123844612,884.9160510285292,nan,885.3994449777529,nan,nan,nan,nan
1,77,1,1,1.0,1.0,0.6663007002789527,0,nan,nan,nan,nan,nan,nan,nan,nan,nan,4,1,2,6,0,7,nan,nan,nan,nan,nan,nan,nan,nan,nan,nan,nan,nan,0.0,nan,nan,nan,nan,nan,nan,nan,nan,nan,nan,nan,nan,nan,nan,nan,nan,nan,nan,743.4515123844612,885.9411165504716,nan,886.6074172507506,nan,nan,nan,nan
1,78,0,0,0.0,1.0,0.681146149057895,0,nan,nan,nan,nan,nan,nan,nan,nan,nan,3,8,1,5,6,0,nan,nan,nan,nan,nan,nan,nan,nan,nan,nan,nan,nan,0.0,nan,nan,nan,nan,nan,nan,nan,nan,nan,nan,nan,nan,nan,nan,nan,nan,nan,nan,743.4515123844612,886.9662402316462,nan,887.6473863807041,nan,nan,nan,nan
1,79,1,1,1.0,1.0,0.7919843925628811,0,nan,nan,nan,nan,nan,nan,nan,nan,nan,2,3,5,8,4,7,nan,nan,nan,nan,nan,nan,nan,nan,nan,nan,nan,nan,0.0,nan,nan,nan,nan,nan,nan,nan,nan,nan,nan,nan,nan,nan,nan,nan,nan,nan,nan,743.4515123844612,887.9913599216379,nan,888.7833443142008,nan,nan,nan,nan
1,80,0,0,0.0,1.0,0.6548430311959237,0,nan,nan,nan,nan,nan,nan,nan,nan,nan,6,1,2,3,5,8,nan,nan,nan,nan,nan,nan,nan,nan,nan,nan,nan,nan,0.0,nan,nan,nan,nan,nan,nan,nan,nan,nan,nan,nan,nan,nan,nan,nan,nan,nan,nan,743.4515123844612,889.01647790079,nan,889.671320931986,nan,nan,nan,nan
1,81,1,1,nan,nan,nan,0,0.0,0.0,0.0,0.0,0.0,0.0,0.0,0.0,0.0,0,2,8,7,1,6,nan,nan,nan,nan,nan,nan,nan,nan,nan,nan,nan,nan,0.0,nan,nan,nan,nan,nan,nan,nan,nan,nan,nan,nan,nan,nan,nan,nan,nan,nan,nan,743.4515123844612,890.0415927441791,nan,nan,nan,nan,nan,nan
1,82,0,0,0.0,1.0,0.6525303435046226,0,0.0,0.0,0.0,0.3844328279830987,0.14534402967731738,0.2390887983057813,0.529776857660416,0.14534402967731738,0.6536866873502731,8,7,1,4,0,3,nan,nan,nan,nan,nan,nan,nan,nan,nan,nan,nan,nan,0.0,nan,nan,nan,nan,nan,nan,nan,nan,nan,nan,nan,nan,nan,nan,nan,nan,nan,nan,743.4515123844612,891.0667138593271,nan,891.7192442028318,nan,nan,nan,nan
1,83,1,1,1.0,1.0,0.4594095062930137,1,0.0,1.0,1.0,0.38778404692711776,0.14747219629562322,0.24031185063149454,0.535256243222741,0.14747219629562322,0.5559699248988181,6,5,8,7,3,1,1.0,1.0,1.0,1.0,1.0,1.0,1.0,0.0,0.0,1.0,0.0,0.0,2.0,6.0,1.0,4.0,7.0,2.0,8.0,1.0,6.0,5.0,4.0,3.0,2.0,3.5452854323666543,9.614591372432187,8.654910313431174,7.407990975072607,5.728681690990925,4.576797514688224,743.4515123844612,892.091800478287,892.9002063230146,892.55120998458,903.5764534054324,904.5793032115325,893.9253314298112,903.5681160974782
1,84,1,1,1.0,1.0,0.3652721073012799,0,0.0,0.0,0.0,0.3886683118575609,0.14677230055252408,0.24189601130503682,0.535440612410085,0.14677230055252408,0.4924039856996387,5,1,7,0,2,3,nan,nan,nan,nan,nan,nan,nan,nan,nan,nan,nan,nan,0.0,nan,nan,nan,nan,nan,nan,nan,nan,nan,nan,nan,nan,nan,nan,nan,nan,nan,nan,743.4515123844612,904.8016171709169,nan,905.1668892782182,nan,nan,nan,nan
1,85,1,1,1.0,1.0,0.7000633194111288,0,0.0,0.0,0.0,0.3883829922898014,0.14589720203107032,0.24248579025873107,0.5342801943208717,0.14589720203107032,0.5082483110018075,0,2,3,4,8,1,nan,nan,nan,nan,nan,nan,nan,nan,nan,nan,nan,nan,0.0,nan,nan,nan,nan,nan,nan,nan,nan,nan,nan,nan,nan,nan,nan,nan,nan,nan,nan,743.4515123844612,905.826777914539,nan,906.5268412339501,nan,nan,nan,nan
1,86,1,1,1.0,1.0,0.5389446422923356,0,0.0,0.0,0.0,0.39213817695391373,0.14894915769954523,0.2431890192543685,0.5410873346534589,0.14894915769954523,0.5347600230015814,6,8,2,5,4,7,nan,nan,nan,nan,nan,nan,nan,nan,nan,nan,nan,nan,0.0,nan,nan,nan,nan,nan,nan,nan,nan,nan,nan,nan,nan,nan,nan,nan,nan,nan,nan,743.4515123844612,906.8518682396971,nan,907.3908128819894,nan,nan,nan,nan
1,87,1,1,1.0,1.0,0.4737836935091764,1,0.0,1.0,1.0,0.39388587296984734,0.14891357537819697,0.24497229759165037,0.5427994483480443,0.14891357537819697,0.5709305517375469,3,4,0,7,6,5,1.0,1.0,1.0,1.0,1.0,1.0,0.0,1.0,0.0,1.0,0.0,0.0,2.0,1.0,4.0,8.0,7.0,3.0,2.0,6.0,3.0,2.0,1.0,4.0,5.0,13.196987005649135,4.837815068662167,3.830287999706343,2.7751310223247856,5.853098422987387,11.277643418870866,743.4515123844612,907.8770064606797,908.6854131605942,908.3507901541889,922.9453869832214,923.9539053263143,909.7105539476033,922.9370607938617
1,88,1,1,1.0,1.0,0.30741129210218787,0,0.0,0.0,0.0,0.39482584732913356,0.14828548800938296,0.2465403593197506,0.5431113353385165,0.14828548800938296,0.4400465426345666,4,7,2,0,3,6,nan,nan,nan,nan,nan,nan,nan,nan,nan,nan,nan,nan,0.0,nan,nan,nan,nan,nan,nan,nan,nan,nan,nan,nan,nan,nan,nan,nan,nan,nan,nan,743.4515123844612,924.1789048772771,nan,924.4863161693793,nan,nan,nan,nan
1,89,1,1,1.0,1.0,0.6262457568664104,0,0.0,0.0,0.0,0.3938093990125412,0.14771839402214368,0.24609100499039752,0.5415277930346849,0.14771839402214368,0.4691469141592582,3,4,5,2,0,1,nan,nan,nan,nan,nan,nan,nan,nan,nan,nan,nan,nan,0.0,nan,nan,nan,nan,nan,nan,nan,nan,nan,nan,nan,nan,nan,nan,nan,nan,nan,nan,743.4515123844612,925.204006036045,nan,925.8302517929114,nan,nan,nan,nan
1,90,1,1,1.0,1.0,0.6650859119836241,0,0.0,0.0,0.0,0.3964810812867236,0.14894216738283578,0.24753891390388783,0.5454232486695594,0.14894216738283578,0.5329143203174075,7,1,4,8,6,3,nan,nan,nan,nan,nan,nan,nan,nan,nan,nan,nan,nan,0.0,nan,nan,nan,nan,nan,nan,nan,nan,nan,nan,nan,nan,nan,nan,nan,nan,nan,nan,743.4515123844612,926.229153950233,nan,926.8942398622166,nan,nan,nan,nan
1,91,1,1,1.0,1.0,0.6159507036209106,1,0.0,1.0,1.0,0.39953340890827926,0.15080528564398038,0.24872812326429888,0.5503386945522597,0.15080528564398038,0.6357607908236483,1,4,6,2,7,0,1.0,1.0,1.0,1.0,1.0,1.0,1.0,1.0,0.0,0.0,1.0,0.0,3.0,1.0,4.0,5.0,3.0,7.0,6.0,2.0,1.0,6.0,5.0,3.0,4.0,3.533327992539853,1.5976459162775427,10.091516523854807,8.012535041663796,5.155848417431116,6.877032974269241,743.4515123844612,927.2542511178181,928.0626683663577,927.870201821439,939.2139592606109,940.2242517478298,929.0794632923789,939.2056276544463
1,92,1,1,1.0,1.0,0.2543705722782761,0,0.0,0.0,0.0,0.40196506390505043,0.15168072622159975,0.2502843376834507,0.5536457901266502,0.15168072622159975,0.5118023959609369,4,6,0,5,3,2,nan,nan,nan,nan,nan,nan,nan,nan,nan,nan,nan,nan,0.0,nan,nan,nan,nan,nan,nan,nan,nan,nan,nan,nan,nan,nan,nan,nan,nan,nan,nan,743.4515123844612,940.4474611894693,nan,940.7018317617476,nan,nan,nan,nan
1,93,0,0,0.0,1.0,0.509245476918295,0,0.0,0.0,0.0,0.4003251251091974,0.15162706035821544,0.24869806475098194,0.5519521854674128,0.15162706035821544,0.4598555842724939,5,3,4,0,8,7,nan,nan,nan,nan,nan,nan,nan,nan,nan,nan,nan,nan,0.0,nan,nan,nan,nan,nan,nan,nan,nan,nan,nan,nan,nan,nan,nan,nan,nan,nan,nan,743.4515123844612,941.4725691904314,nan,941.9818146673497,nan,nan,nan,nan
1,94,1,1,1.0,1.0,0.4360400123987347,0,0.0,0.0,0.0,0.40152205205215447,0.1512185726969283,0.2503034793552262,0.5527406247490827,0.1512185726969283,0.39988535386510193,2,5,7,8,4,3,nan,nan,nan,nan,nan,nan,nan,nan,nan,nan,nan,nan,0.0,nan,nan,nan,nan,nan,nan,nan,nan,nan,nan,nan,nan,nan,nan,nan,nan,nan,nan,743.4515123844612,942.4977436184417,nan,942.9337836308405,nan,nan,nan,nan
1,95,1,1,1.0,1.0,0.4028937676921487,0,0.0,0.0,0.0,0.40189724727331294,0.1504370697878957,0.25146017748541727,0.5523343170612086,0.1504370697878957,0.44939308566972613,0,2,4,7,3,6,nan,nan,nan,nan,nan,nan,nan,nan,nan,nan,nan,nan,0.0,nan,nan,nan,nan,nan,nan,nan,nan,nan,nan,nan,nan,nan,nan,nan,nan,nan,nan,743.4515123844612,943.5228613126092,nan,943.9257550803013,nan,nan,nan,nan
1,96,1,1,1.0,1.0,0.6497478194069117,0,0.0,0.0,0.0,0.4019079625466338,0.14962611767014874,0.2522818448764851,0.5515340802167825,0.14962611767014874,0.4962271998325984,6,5,8,1,4,2,nan,nan,nan,nan,nan,nan,nan,nan,nan,nan,nan,nan,0.0,nan,nan,nan,nan,nan,nan,nan,nan,nan,nan,nan,nan,nan,nan,nan,nan,nan,nan,743.4515123844612,944.5479821430054,nan,945.1977299624123,nan,nan,nan,nan
1,97,1,1,nan,nan,nan,0,0.0,0.0,0.0,0.0,0.0,0.0,0.0,0.0,0.0,4,6,0,2,1,3,nan,nan,nan,nan,nan,nan,nan,nan,nan,nan,nan,nan,0.0,nan,nan,nan,nan,nan,nan,nan,nan,nan,nan,nan,nan,nan,nan,nan,nan,nan,nan,743.4515123844612,945.573076744331,nan,nan,nan,nan,nan,nan
1,98,1,1,1.0,1.0,0.5034566300455481,1,0.0,1.0,1.0,0.4045445567685516,0.1509844582953926,0.253560098473159,0.5555290150639443,0.1509844582953926,0.5766022247262299,2,5,1,3,7,0,1.0,1.0,1.0,1.0,1.0,1.0,1.0,1.0,0.0,0.0,1.0,0.0,3.0,2.0,5.0,6.0,0.0,7.0,3.0,2.0,1.0,5.0,6.0,4.0,3.0,2.3973361325915903,1.3581093889661133,7.635457450058311,11.275515472516418,4.899387816200033,4.163782886695117,743.4515123844612,946.5981861709151,947.4066051300615,947.1016428009607,959.7413601353765,960.7376872608438,948.4233855162747,959.7330362268258
1,99,1,1,1.0,1.0,0.5110179104376584,0,0.0,0.0,0.0,0.4055857364872569,0.15052656481026927,0.2550591716769876,0.5561123012975262,0.15052656481026927,0.5072372702416033,8,0,2,4,3,6,nan,nan,nan,nan,nan,nan,nan,nan,nan,nan,nan,nan,0.0,nan,nan,nan,nan,nan,nan,nan,nan,nan,nan,nan,nan,nan,nan,nan,nan,nan,nan,743.4515123844612,960.9582068345044,nan,961.469224744942,nan,nan,nan,nan
1,100,1,1,1.0,1.0,0.43784010014496744,0,0.0,0.0,0.0,0.4066839882992402,0.15012264395937602,0.25656134433986416,0.5568066322586163,0.15012264395937602,0.4841048802093913,0,2,8,6,1,4,nan,nan,nan,nan,nan,nan,nan,nan,nan,nan,nan,nan,0.0,nan,nan,nan,nan,nan,nan,nan,nan,nan,nan,nan,nan,nan,nan,nan,nan,nan,nan,743.4515123844612,961.9833262392785,nan,962.4211663394235,nan,nan,nan,nan
1,101,1,1,1.0,1.0,0.5967327582184225,0,0.0,0.0,0.0,0.4070051853285776,0.1493799654680101,0.2576252198605675,0.5563851507965877,0.1493799654680101,0.5151969229336828,2,6,0,8,4,7,nan,nan,nan,nan,nan,nan,nan,nan,nan,nan,nan,nan,0.0,nan,nan,nan,nan,nan,nan,nan,nan,nan,nan,nan,nan,nan,nan,nan,nan,nan,nan,743.4515123844612,963.0084464994725,nan,963.6051792576909,nan,nan,nan,nan
1,102,1,1,1.0,1.0,0.3875990097876638,0,0.0,0.0,0.0,0.40894118097031074,0.1498340417381966,0.25910713923211415,0.5587752227085073,0.1498340417381966,0.4740572893836846,7,5,3,0,6,4,nan,nan,nan,nan,nan,nan,nan,nan,nan,nan,nan,nan,0.0,nan,nan,nan,nan,nan,nan,nan,nan,nan,nan,nan,nan,nan,nan,nan,nan,nan,nan,743.4515123844612,964.0335630532354,nan,964.4211620630231,nan,nan,nan,nan
1,103,1,1,1.0,1.0,0.35437322361394763,0,0.0,0.0,0.0,0.4087256034836173,0.1490906582583981,0.25963494522521924,0.5578162617420154,0.1490906582583981,0.446234997206678,3,8,7,2,1,6,nan,nan,nan,nan,nan,nan,nan,nan,nan,nan,nan,nan,0.0,nan,nan,nan,nan,nan,nan,nan,nan,nan,nan,nan,nan,nan,nan,nan,nan,nan,nan,743.4515123844612,965.0587768242694,nan,965.4131500478834,nan,nan,nan,nan
1,104,1,1,1.0,1.0,0.3292669332586229,0,0.0,0.0,0.0,0.4081820796849206,0.14844187593121572,0.2597402037537049,0.5566239556161363,0.14844187593121572,0.3570797222200781,2,6,1,3,4,7,nan,nan,nan,nan,nan,nan,nan,nan,nan,nan,nan,nan,0.0,nan,nan,nan,nan,nan,nan,nan,nan,nan,nan,nan,nan,nan,nan,nan,nan,nan,nan,743.4515123844612,966.0838389249984,nan,966.413105858257,nan,nan,nan,nan
1,105,0,0,1.0,0.0,0.26412594108842313,0,0.0,0.0,0.0,0.4074007416014919,0.14791170077776453,0.25948904082372737,0.5553124423792565,0.14791170077776453,0.31592203265366453,5,7,4,8,0,1,nan,nan,nan,nan,nan,nan,nan,nan,nan,nan,nan,nan,0.0,nan,nan,nan,nan,nan,nan,nan,nan,nan,nan,nan,nan,nan,nan,nan,nan,nan,nan,743.4515123844612,967.108961750986,nan,967.3730876920745,nan,nan,nan,nan
1,106,1,1,1.0,1.0,0.6550072457175702,0,0.0,0.0,0.0,0.40599608669450105,0.1478602748866452,0.25813581180785583,0.5538563615811463,0.1478602748866452,0.41613337335487205,2,8,7,4,3,0,nan,nan,nan,nan,nan,nan,nan,nan,nan,nan,nan,nan,0.0,nan,nan,nan,nan,nan,nan,nan,nan,nan,nan,nan,nan,nan,nan,nan,nan,nan,nan,743.4515123844612,968.1340426679235,nan,968.7890499136411,nan,nan,nan,nan
1,107,0,0,0.0,1.0,0.6618153059389442,0,0.0,0.0,0.0,0.4084136707626862,0.14915281674877656,0.25926085401390964,0.5575664875114628,0.14915281674877656,0.5269828309149792,6,5,8,0,7,1,nan,nan,nan,nan,nan,nan,nan,nan,nan,nan,nan,nan,0.0,nan,nan,nan,nan,nan,nan,nan,nan,nan,nan,nan,nan,nan,nan,nan,nan,nan,nan,743.4515123844612,969.1592008455191,nan,969.821016151458,nan,nan,nan,nan
1,108,1,1,1.0,1.0,0.6846519580576569,1,0.0,1.0,1.0,0.4108502249470733,0.15047971127419524,0.26037051367287806,0.5613299362212685,0.15047971127419524,0.6671581699047238,2,7,0,8,1,4,1.0,1.0,1.0,1.0,1.0,1.0,0.0,1.0,0.0,0.0,1.0,0.0,2.0,5.0,7.0,8.0,3.0,1.0,6.0,2.0,1.0,6.0,5.0,4.0,3.0,3.3227707664482296,2.3157893687020987,10.040649650851265,8.96851870813407,7.584481955971569,6.352655528346077,743.4515123844612,970.1843330794945,970.9927298014518,970.8689850375522,982.0856452847365,983.0918600631412,972.0094762612134,982.0773145339917
1,109,1,1,1.0,1.0,0.46177094522863626,0,0.0,0.0,0.0,0.4134578605005074,0.15210411028720974,0.26135375021329765,0.5655619707877172,0.15210411028720974,0.6027460697417458,8,3,6,5,2,7,nan,nan,nan,nan,nan,nan,nan,nan,nan,nan,nan,nan,0.0,nan,nan,nan,nan,nan,nan,nan,nan,nan,nan,nan,nan,nan,nan,nan,nan,nan,nan,743.4515123844612,983.3108161776327,nan,983.7725871228613,nan,nan,nan,nan
1,110,1,1,1.0,1.0,0.6206262561026961,0,0.0,0.0,0.0,0.4139136443186973,0.15145696419362537,0.26245668012507195,0.5653706085123227,0.15145696419362537,0.5890163864629964,5,0,7,6,1,3,nan,nan,nan,nan,nan,nan,nan,nan,nan,nan,nan,nan,0.0,nan,nan,nan,nan,nan,nan,nan,nan,nan,nan,nan,nan,nan,nan,nan,nan,nan,nan,743.4515123844612,984.3359472712036,nan,984.9565735273063,nan,nan,nan,nan
1,111,1,1,1.0,1.0,0.4674309294205159,0,0.0,0.0,0.0,0.4158455378867721,0.15205407392185186,0.26379146396492026,0.5678996118086239,0.15205407392185186,0.5166093769172827,2,8,0,5,4,7,nan,nan,nan,nan,nan,nan,nan,nan,nan,nan,nan,nan,0.0,nan,nan,nan,nan,nan,nan,nan,nan,nan,nan,nan,nan,nan,nan,nan,nan,nan,nan,743.4515123844612,985.3611025980208,nan,985.8285335274413,nan,nan,nan,nan
1,112,1,1,1.0,1.0,0.3463170190807432,0,0.0,0.0,0.0,0.4163231804009734,0.15142910707288948,0.2648940733280839,0.5677522874738629,0.15142910707288948,0.47812473486798507,4,6,7,3,8,2,nan,nan,nan,nan,nan,nan,nan,nan,nan,nan,nan,nan,0.0,nan,nan,nan,nan,nan,nan,nan,nan,nan,nan,nan,nan,nan,nan,nan,nan,nan,nan,743.4515123844612,986.3862191517837,nan,986.7325361708645,nan,nan,nan,nan
1,113,1,1,1.0,1.0,0.4651829581707716,0,0.0,0.0,0.0,0.4156809220402373,0.15088058171217855,0.26480034032805877,0.5665615037524159,0.15088058171217855,0.42631030222401023,5,4,0,6,7,8,nan,nan,nan,nan,nan,nan,nan,nan,nan,nan,nan,nan,0.0,nan,nan,nan,nan,nan,nan,nan,nan,nan,nan,nan,nan,nan,nan,nan,nan,nan,nan,743.4515123844612,987.4113071961328,nan,987.8764901543036,nan,nan,nan,nan
1,114,1,1,1.0,1.0,0.39192959759384394,0,0.0,0.0,0.0,0.4161309405505149,0.15026666351309356,0.2658642770374213,0.5663976040636085,0.15026666351309356,0.4011431916151196,8,0,5,4,2,1,nan,nan,nan,nan,nan,nan,nan,nan,nan,nan,nan,nan,0.0,nan,nan,nan,nan,nan,nan,nan,nan,nan,nan,nan,nan,nan,nan,nan,nan,nan,nan,743.4515123844612,988.436512414366,nan,988.8284420119599,nan,nan,nan,nan
1,115,1,1,1.0,1.0,0.3268205360509455,0,0.0,0.0,0.0,0.41591291043378814,0.14960573248485343,0.2663071779489347,0.5655186429186416,0.14960573248485343,0.39464436393852037,6,3,2,7,4,0,nan,nan,nan,nan,nan,nan,nan,nan,nan,nan,nan,nan,0.0,nan,nan,nan,nan,nan,nan,nan,nan,nan,nan,nan,nan,nan,nan,nan,nan,nan,nan,743.4515123844612,989.4616087265313,nan,989.7884292625822,nan,nan,nan,nan
1,116,1,1,1.0,1.0,0.2697129410225898,0,0.0,0.0,0.0,0.41511744280536994,0.14917196235211913,0.26594548045325084,0.564289405157489,0.14917196235211913,0.3294876915557931,3,8,4,1,0,2,nan,nan,nan,nan,nan,nan,nan,nan,nan,nan,nan,nan,0.0,nan,nan,nan,nan,nan,nan,nan,nan,nan,nan,nan,nan,nan,nan,nan,nan,nan,nan,743.4515123844612,990.4866987664718,nan,990.7564117074944,nan,nan,nan,nan
1,117,1,1,1.0,1.0,0.31658905907534063,0,0.0,0.0,0.0,0.41383067730286743,0.14913348819581174,0.2646971891070557,0.5629641654986792,0.14913348819581174,0.30437417871629197,2,6,1,4,8,5,nan,nan,nan,nan,nan,nan,nan,nan,nan,nan,nan,nan,0.0,nan,nan,nan,nan,nan,nan,nan,nan,nan,nan,nan,nan,nan,nan,nan,nan,nan,nan,743.4515123844612,991.5117908022366,nan,991.828379861312,nan,nan,nan,nan
1,118,1,1,1.0,1.0,0.29942693118937314,0,0.0,0.0,0.0,0.4129776806517488,0.1487545688699689,0.2642231117817799,0.5617322495217176,0.1487545688699689,0.29524297709576786,7,3,6,5,4,1,nan,nan,nan,nan,nan,nan,nan,nan,nan,nan,nan,nan,0.0,nan,nan,nan,nan,nan,nan,nan,nan,nan,nan,nan,nan,nan,nan,nan,nan,nan,nan,743.4515123844612,992.5369056453928,nan,992.8363325765822,nan,nan,nan,nan
1,119,1,1,1.0,1.0,0.16227587638422847,1,1.0,0.0,1.0,0.41199028283033684,0.14848114310213809,0.2635091397281988,0.5604714259324749,0.14848114310213809,0.2594306222163141,6,0,2,8,3,5,1.0,1.0,1.0,1.0,1.0,1.0,0.0,1.0,0.0,0.0,0.0,0.0,1.0,5.0,0.0,0.0,1.0,8.0,6.0,3.0,1.0,6.0,5.0,2.0,4.0,3.775077994680032,1.6405372666195035,7.462564078625292,6.406810398213565,2.904848804231733,4.83166671753861,743.4515123844612,993.5620361689944,994.3704699529335,993.7243120453786,1002.8797604748979,1003.8860687643755,995.3788825259544,1002.8714223117568
1,120,1,1,1.0,1.0,0.4830726475920528,0,0.0,0.0,0.0,0.40983757242993935,0.14963128405645162,0.2602062883734877,0.559468856486391,0.14963128405645162,0.3149251517218848,1,2,4,7,6,3,nan,nan,nan,nan,nan,nan,nan,nan,nan,nan,nan,nan,0.0,nan,nan,nan,nan,nan,nan,nan,nan,nan,nan,nan,nan,nan,nan,nan,nan,nan,nan,743.4515123844612,1004.1049228149932,nan,1004.5879954625852,nan,nan,nan,nan
1,121,1,1,1.0,1.0,0.4099244868848473,0,0.0,0.0,0.0,0.4104635132432907,0.14914290717363637,0.26132060606965435,0.5596064204169271,0.14914290717363637,0.35175767028704286,3,5,1,8,4,2,nan,nan,nan,nan,nan,nan,nan,nan,nan,nan,nan,nan,0.0,nan,nan,nan,nan,nan,nan,nan,nan,nan,nan,nan,nan,nan,nan,nan,nan,nan,nan,743.4515123844612,1005.1300487769768,nan,1005.5399732638616,nan,nan,nan,nan
1,122,1,1,1.0,1.0,0.3047801535576582,0,0.0,0.0,0.0,0.4104589452233039,0.14850960931732554,0.26194933590597835,0.5589685545406294,0.14850960931732554,0.39925909601151943,2,6,5,7,3,0,nan,nan,nan,nan,nan,nan,nan,nan,nan,nan,nan,nan,0.0,nan,nan,nan,nan,nan,nan,nan,nan,nan,nan,nan,nan,nan,nan,nan,nan,nan,nan,743.4515123844612,1006.1551676115487,nan,1006.4599477651063,nan,nan,nan,nan
1,123,0,0,1.0,0.0,0.27955184248276055,0,0.0,0.0,0.0,0.40957088815048337,0.14819860729339468,0.2613722808570887,0.5577694954438781,0.14819860729339468,0.33141882764175534,5,0,3,4,1,6,nan,nan,nan,nan,nan,nan,nan,nan,nan,nan,nan,nan,0.0,nan,nan,nan,nan,nan,nan,nan,nan,nan,nan,nan,nan,nan,nan,nan,nan,nan,nan,743.4515123844612,1007.180358860176,nan,1007.4599107026588,nan,nan,nan,nan
1,124,1,1,1.0,1.0,0.694430134491995,0,0.0,0.0,0.0,0.40848739610325235,0.14805237009458547,0.26043502600866686,0.5565397661978378,0.14805237009458547,0.4262540435108046,1,8,5,0,2,4,nan,nan,nan,nan,nan,nan,nan,nan,nan,nan,nan,nan,0.0,nan,nan,nan,nan,nan,nan,nan,nan,nan,nan,nan,nan,nan,nan,nan,nan,nan,nan,743.4515123844612,1008.2054243818857,nan,1008.8998545163777,nan,nan,nan,nan
1,125,1,1,1.0,1.0,0.6613161051645875,0,0.0,0.0,0.0,0.410850559230432,0.149694676453379,0.26115588277705304,0.560545235683811,0.149694676453379,0.5450993607131144,2,1,6,8,4,3,nan,nan,nan,nan,nan,nan,nan,nan,nan,nan,nan,nan,0.0,nan,nan,nan,nan,nan,nan,nan,nan,nan,nan,nan,nan,nan,nan,nan,nan,nan,nan,743.4515123844612,1009.2305224046577,nan,1009.8918385098223,nan,nan,nan,nan
1,126,1,1,1.0,1.0,0.5961828108411282,1,0.0,1.0,1.0,0.4129035555085809,0.1507806685233578,0.26212288698522307,0.5636842240319386,0.1507806685233578,0.6506430168325702,0,6,5,1,2,7,1.0,1.0,1.0,1.0,1.0,1.0,0.0,1.0,1.0,1.0,0.0,0.0,3.0,8.0,6.0,5.0,1.0,0.0,4.0,6.0,1.0,2.0,3.0,4.0,5.0,15.576051136711612,1.8490614825859666,2.5388733686413616,3.6407411091495305,10.15246092271991,11.784195606829599,743.4515123844612,1010.2556426646188,1011.0640830060001,1010.8518254754599,1027.6909924631473,1028.6893751211464,1012.0725497470703,1027.682663707761
1,127,1,1,1.0,1.0,0.4314605372492224,0,0.0,0.0,0.0,0.4143936307551869,0.1510657264373233,0.2633279043178636,0.5654593571925102,0.1510657264373233,0.5629864844183127,2,8,3,7,0,5,nan,nan,nan,nan,nan,nan,nan,nan,nan,nan,nan,nan,0.0,nan,nan,nan,nan,nan,nan,nan,nan,nan,nan,nan,nan,nan,nan,nan,nan,nan,nan,743.4515123844612,1028.907831749646,nan,1029.3392922868952,nan,nan,nan,nan
1,128,1,1,1.0,1.0,0.5102210710756481,0,0.0,0.0,0.0,0.41453126709788074,0.15046310060639392,0.2640681664914868,0.5649943677042747,0.15046310060639392,0.5126214730553329,8,7,0,4,5,6,nan,nan,nan,nan,nan,nan,nan,nan,nan,nan,nan,nan,0.0,nan,nan,nan,nan,nan,nan,nan,nan,nan,nan,nan,nan,nan,nan,nan,nan,nan,nan,743.4515123844612,1029.933050082298,nan,1030.4432711533736,nan,nan,nan,nan
1,129,1,1,1.0,1.0,0.3651489461772144,0,0.0,0.0,0.0,0.4152967855297029,0.15010229104564018,0.26519449448406274,0.565399076575343,0.15010229104564018,0.4356101848340283,2,1,7,6,3,8,nan,nan,nan,nan,nan,nan,nan,nan,nan,nan,nan,nan,0.0,nan,nan,nan,nan,nan,nan,nan,nan,nan,nan,nan,nan,nan,nan,nan,nan,nan,nan,743.4515123844612,1030.958067708416,nan,1031.3232166545931,nan,nan,nan,nan
1,130,1,1,1.0,1.0,0.29998600180260837,0,0.0,0.0,0.0,0.4148987868046832,0.14957166539343714,0.26532712141124604,0.5644704521981203,0.14957166539343714,0.39178533968515694,3,7,8,0,2,6,nan,nan,nan,nan,nan,nan,nan,nan,nan,nan,nan,nan,0.0,nan,nan,nan,nan,nan,nan,nan,nan,nan,nan,nan,nan,nan,nan,nan,nan,nan,nan,743.4515123844612,1031.9831939553842,nan,1032.2831799571868,nan,nan,nan,nan
1,131,1,1,1.0,1.0,0.25916557922028005,0,0.0,0.0,0.0,0.4139939617259267,0.14932744344203266,0.264666518283894,0.5633214051679594,0.14932744344203266,0.3081001757333676,1,3,6,8,4,2,nan,nan,nan,nan,nan,nan,nan,nan,nan,nan,nan,nan,0.0,nan,nan,nan,nan,nan,nan,nan,nan,nan,nan,nan,nan,nan,nan,nan,nan,nan,nan,743.4515123844612,1032.9999911622144,nan,1033.2591567414347,nan,nan,nan,nan
1,132,1,1,1.0,1.0,0.21803896501660347,1,1.0,0.0,1.0,0.4127843649876013,0.14936630700305065,0.26341805798455065,0.5621506719906519,0.14936630700305065,0.2590635153464973,5,8,0,1,2,3,1.0,1.0,1.0,1.0,1.0,1.0,1.0,1.0,0.0,0.0,0.0,0.0,2.0,5.0,8.0,2.0,7.0,6.0,0.0,2.0,1.0,4.0,3.0,5.0,6.0,3.2952046792488545,2.3899875327479094,6.430766901699826,4.263176005566493,8.654565348988399,10.533889913931489,743.4515123844612,1034.0250891847536,1034.8335089993197,1034.2431281497702,1046.4264973243698,1047.42446402926,1035.8502973681316,1046.4182213116437
1,133,1,1,1.0,1.0,0.3513560669962317,0,0.0,0.0,0.0,0.41127471072426025,0.14976336274983576,0.2615113479744245,0.5610380734740961,0.14976336274983576,0.2761868704110384,4,3,7,8,0,1,nan,nan,nan,nan,nan,nan,nan,nan,nan,nan,nan,nan,0.0,nan,nan,nan,nan,nan,nan,nan,nan,nan,nan,nan,nan,nan,nan,nan,nan,nan,nan,743.4515123844612,1047.6433862175327,nan,1047.994742284529,nan,nan,nan,nan
1,134,1,1,1.0,1.0,0.26255278871394694,0,0.0,0.0,0.0,0.41081379808019847,0.14927805724325366,0.2615357408369448,0.5600918553234522,0.14927805724325366,0.2773159402422607,6,7,3,4,1,0,nan,nan,nan,nan,nan,nan,nan,nan,nan,nan,nan,nan,0.0,nan,nan,nan,nan,nan,nan,nan,nan,nan,nan,nan,nan,nan,nan,nan,nan,nan,nan,743.4515123844612,1048.6601648931392,nan,1048.922717681853,nan,nan,nan,nan
1,135,1,1,1.0,1.0,0.28572699264623225,0,0.0,0.0,0.0,0.40968203464992176,0.14926602920487525,0.2604160054450465,0.558948063854797,0.14926602920487525,0.2998786161188036,2,1,0,6,7,5,nan,nan,nan,nan,nan,nan,nan,nan,nan,nan,nan,nan,0.0,nan,nan,nan,nan,nan,nan,nan,nan,nan,nan,nan,nan,nan,nan,nan,nan,nan,nan,743.4515123844612,1049.6769475601614,nan,1049.9626745528076,nan,nan,nan,nan
1,136,1,1,1.0,1.0,0.28456038562580943,0,0.0,0.0,0.0,0.40874298130140896,0.14908747613225865,0.2596555051691503,0.5578304574336677,0.14908747613225865,0.27761338899532956,4,0,8,5,2,3,nan,nan,nan,nan,nan,nan,nan,nan,nan,nan,nan,nan,0.0,nan,nan,nan,nan,nan,nan,nan,nan,nan,nan,nan,nan,nan,nan,nan,nan,nan,nan,743.4515123844612,1050.702067534905,nan,1050.9866279205307,nan,nan,nan,nan
1,137,1,1,1.0,1.0,0.3554032708052546,0,0.0,0.0,0.0,0.40780927757452473,0.1489128356472863,0.25889644192723843,0.556722113221811,0.1489128356472863,0.3085635496924321,3,6,5,4,8,2,nan,nan,nan,nan,nan,nan,nan,nan,nan,nan,nan,nan,0.0,nan,nan,nan,nan,nan,nan,nan,nan,nan,nan,nan,nan,nan,nan,nan,nan,nan,nan,743.4515123844612,1051.7271772464737,nan,1052.082580517279,nan,nan,nan,nan
1,138,0,0,0.0,1.0,0.5382413137704134,0,0.0,0.0,0.0,0.407418187971769,0.14842469402274064,0.2589934939490284,0.5558428819945096,0.14842469402274064,0.3927349900671591,4,8,1,3,7,5,nan,nan,nan,nan,nan,nan,nan,nan,nan,nan,nan,nan,0.0,nan,nan,nan,nan,nan,nan,nan,nan,nan,nan,nan,nan,nan,nan,nan,nan,nan,nan,743.4515123844612,1052.7523089104798,nan,1053.2905502242502,nan,nan,nan,nan
1,139,1,1,1.0,1.0,0.4251639365684241,0,0.0,0.0,0.0,0.40838724816287003,0.14829882613331677,0.2600884220295533,0.5566860742961868,0.14829882613331677,0.43960284038136405,8,5,6,0,2,3,nan,nan,nan,nan,nan,nan,nan,nan,nan,nan,nan,nan,0.0,nan,nan,nan,nan,nan,nan,nan,nan,nan,nan,nan,nan,nan,nan,nan,nan,nan,nan,743.4515123844612,1053.7774094988126,nan,1054.202573435381,nan,nan,nan,nan
1,140,1,1,1.0,1.0,0.4640286099165678,0,0.0,0.0,0.0,0.40851060616585205,0.14775955565609147,0.26075105050976055,0.5562701618219436,0.14775955565609147,0.4758112867518018,5,7,4,8,1,6,nan,nan,nan,nan,nan,nan,nan,nan,nan,nan,nan,nan,0.0,nan,nan,nan,nan,nan,nan,nan,nan,nan,nan,nan,nan,nan,nan,nan,nan,nan,nan,743.4515123844612,1054.8025237719994,nan,1055.266552381916,nan,nan,nan,nan
1,141,1,1,1.0,1.0,0.4868230677675456,0,0.0,0.0,0.0,0.40891584706914197,0.14729513264191021,0.2616207144272318,0.5562109797110522,0.14729513264191021,0.4586718714175125,1,8,0,7,3,2,nan,nan,nan,nan,nan,nan,nan,nan,nan,nan,nan,nan,0.0,nan,nan,nan,nan,nan,nan,nan,nan,nan,nan,nan,nan,nan,nan,nan,nan,nan,nan,743.4515123844612,1055.8276662693825,nan,1056.31448933715,nan,nan,nan,nan
1,142,1,1,1.0,1.0,0.5336951944045722,0,0.0,0.0,0.0,0.40948039214666665,0.14690916642010998,0.26257122572655667,0.5563895585667766,0.14690916642010998,0.4948489573628952,6,1,8,4,5,0,nan,nan,nan,nan,nan,nan,nan,nan,nan,nan,nan,nan,0.0,nan,nan,nan,nan,nan,nan,nan,nan,nan,nan,nan,nan,nan,nan,nan,nan,nan,nan,743.4515123844612,1056.8527679983526,nan,1057.3864631927572,nan,nan,nan,nan
1,143,1,1,1.0,1.0,0.3965515522286296,0,0.0,0.0,0.0,0.4103740238175868,0.1467557103277218,0.263618313489865,0.5571297341453086,0.1467557103277218,0.47235660480024916,8,5,2,3,6,7,nan,nan,nan,nan,nan,nan,nan,nan,nan,nan,nan,nan,0.0,nan,nan,nan,nan,nan,nan,nan,nan,nan,nan,nan,nan,nan,nan,nan,nan,nan,nan,743.4515123844612,1057.8779076447245,nan,1058.274459196953,nan,nan,nan,nan
1,144,1,1,1.0,1.0,0.32338771130889654,0,0.0,0.0,0.0,0.4102752918776657,0.14623527641194187,0.26404001546572387,0.5565105682896075,0.14623527641194187,0.4178781526473661,5,8,7,2,1,6,nan,nan,nan,nan,nan,nan,nan,nan,nan,nan,nan,nan,0.0,nan,nan,nan,nan,nan,nan,nan,nan,nan,nan,nan,nan,nan,nan,nan,nan,nan,nan,743.4515123844612,1058.9030193521176,nan,1059.2264070634264,nan,nan,nan,nan
1,145,1,1,1.0,1.0,0.21824993495829403,0,0.0,0.0,0.0,0.4096590679020007,0.14589809323282982,0.26376097466917087,0.5555571611348304,0.14589809323282982,0.31272973283194005,7,3,8,5,6,0,nan,nan,nan,nan,nan,nan,nan,nan,nan,nan,nan,nan,0.0,nan,nan,nan,nan,nan,nan,nan,nan,nan,nan,nan,nan,nan,nan,nan,nan,nan,nan,743.4515123844612,1059.9281321996823,nan,1060.1463821346406,nan,nan,nan,nan
1,146,1,1,1.0,1.0,0.24112592986784875,1,1.0,0.0,1.0,0.40831111626155203,0.14626190103943484,0.2620492152221172,0.5545730173009868,0.14626190103943484,0.26092119204501313,6,8,5,2,0,4,1.0,1.0,1.0,1.0,1.0,1.0,0.0,1.0,1.0,0.0,0.0,0.0,2.0,1.0,8.0,5.0,7.0,2.0,0.0,4.0,3.0,2.0,1.0,6.0,5.0,4.589735680259764,3.27887132181786,2.519110037246719,1.3601791763212532,7.997462087543681,5.3899017192889005,743.4515123844612,1060.9532575914636,1061.7616885243915,1061.1943835213315,1070.8044053968042,1071.8065781029873,1062.7701487082522,1070.7960774968378
1,147,1,1,1.0,1.0,0.6444470544811338,0,0.0,0.0,0.0,0.4071419890839737,0.14641393162794117,0.26072805745603256,0.5535559207119148,0.14641393162794117,0.3679409731024255,2,7,1,6,8,3,nan,nan,nan,nan,nan,nan,nan,nan,nan,nan,nan,nan,0.0,nan,nan,nan,nan,nan,nan,nan,nan,nan,nan,nan,nan,nan,nan,nan,nan,nan,nan,743.4515123844612,1072.0295848425012,nan,1072.6740318969823,nan,nan,nan,nan
1,148,1,1,1.0,1.0,0.34763757744804025,0,0.0,0.0,0.0,0.4087899409270095,0.1472294896424155,0.261560451284594,0.556019430569425,0.1472294896424155,0.4110701872656743,6,1,0,5,3,4,nan,nan,nan,nan,nan,nan,nan,nan,nan,nan,nan,nan,0.0,nan,nan,nan,nan,nan,nan,nan,nan,nan,nan,nan,nan,nan,nan,nan,nan,nan,nan,743.4515123844612,1073.0463783429004,nan,1073.3940159203485,nan,nan,nan,nan
1,149,1,1,1.0,1.0,0.3064924320206046,0,0.0,0.0,0.0,0.4083682004892235,0.14680818070006768,0.26156001978915583,0.5551763811892911,0.14680818070006768,0.4328590213165929,4,2,3,0,7,8,nan,nan,nan,nan,nan,nan,nan,nan,nan,nan,nan,nan,0.0,nan,nan,nan,nan,nan,nan,nan,nan,nan,nan,nan,nan,nan,nan,nan,nan,nan,nan,743.4515123844612,1074.0715045898687,nan,1074.3779970218893,nan,nan,nan,nan
1,150,1,1,1.0,1.0,0.25734182889573276,0,0.0,0.0,0.0,0.40767042125313707,0.14654562765714815,0.26112479359598895,0.5542160489102852,0.14654562765714815,0.3038239461214592,2,8,7,3,6,0,nan,nan,nan,nan,nan,nan,nan,nan,nan,nan,nan,nan,0.0,nan,nan,nan,nan,nan,nan,nan,nan,nan,nan,nan,nan,nan,nan,nan,nan,nan,nan,743.4515123844612,1075.0966197182424,nan,1075.3539615471382,nan,nan,nan,nan
1,151,1,1,1.0,1.0,0.28020641999319196,0,0.0,0.0,0.0,0.40664777776771255,0.14656812437092775,0.2600796533967848,0.5532159021386402,0.14656812437092775,0.2813468936365098,0,4,2,8,5,1,nan,nan,nan,nan,nan,nan,nan,nan,nan,nan,nan,nan,0.0,nan,nan,nan,nan,nan,nan,nan,nan,nan,nan,nan,nan,nan,nan,nan,nan,nan,nan,743.4515123844612,1076.1217220174149,nan,1076.401928437408,nan,nan,nan,nan
1,152,1,1,1.0,1.0,0.23905699816532433,1,1.0,0.0,1.0,0.4057934442692361,0.1464389230413894,0.2593545212278467,0.5522323673106255,0.1464389230413894,0.25886841568474966,1,3,7,5,0,4,1.0,1.0,1.0,1.0,1.0,1.0,0.0,1.0,0.0,0.0,0.0,0.0,1.0,6.0,3.0,6.0,2.0,5.0,3.0,6.0,1.0,2.0,3.0,4.0,5.0,6.867305829655379,0.9812402015086263,1.7897119030822068,3.709054634673521,5.32332898164168,6.187077685724944,743.4515123844612,1077.146861378802,1077.9552689341363,1077.3859183769673,1085.8728178499732,1086.8757788429502,1078.9636963321827,1085.8645224508364
1,153,1,1,1.0,1.0,0.4155690760817379,0,0.0,0.0,0.0,0.4046744077182031,0.14658024508544443,0.2580941626327587,0.5512546528036475,0.14658024508544443,0.31161083141341805,3,4,1,6,2,8,nan,nan,nan,nan,nan,nan,nan,nan,nan,nan,nan,nan,0.0,nan,nan,nan,nan,nan,nan,nan,nan,nan,nan,nan,nan,nan,nan,nan,nan,nan,nan,743.4515123844612,1087.0979895980563,nan,1087.513558674138,nan,nan,nan,nan
1,154,1,1,1.0,1.0,0.3024688910227269,0,0.0,0.0,0.0,0.4047470388406267,0.1460935173477088,0.25865352149291787,0.5508405561883355,0.1460935173477088,0.3190316550899297,2,7,8,0,4,1,nan,nan,nan,nan,nan,nan,nan,nan,nan,nan,nan,nan,0.0,nan,nan,nan,nan,nan,nan,nan,nan,nan,nan,nan,nan,nan,nan,nan,nan,nan,nan,743.4515123844612,1088.1230953184422,nan,1088.425564209465,nan,nan,nan,nan
1,155,0,0,1.0,0.0,0.2932848520576954,0,0.0,0.0,0.0,0.4040697001133558,0.14584508051840403,0.2582246195949518,0.5499147806317598,0.14584508051840403,0.33710760638738674,5,4,6,3,0,7,nan,nan,nan,nan,nan,nan,nan,nan,nan,nan,nan,nan,0.0,nan,nan,nan,nan,nan,nan,nan,nan,nan,nan,nan,nan,nan,nan,nan,nan,nan,nan,743.4515123844612,1089.148254921427,nan,1089.4415397734847,nan,nan,nan,nan
1,156,1,1,1.0,1.0,0.43645796133205295,0,0.0,0.0,0.0,0.4033408524287791,0.14564018051671557,0.25770067191206353,0.5489810329454947,0.14564018051671557,0.34407056813749176,4,2,1,8,5,3,nan,nan,nan,nan,nan,nan,nan,nan,nan,nan,nan,nan,0.0,nan,nan,nan,nan,nan,nan,nan,nan,nan,nan,nan,nan,nan,nan,nan,nan,nan,nan,743.4515123844612,1090.1650518430397,nan,1090.6015098043717,nan,nan,nan,nan
1,157,1,1,1.0,1.0,0.3072946884203702,0,0.0,0.0,0.0,0.40355730412095736,0.14518797880860912,0.25836932531234824,0.5487452829295665,0.14518797880860912,0.3456791672700395,2,7,0,5,4,1,nan,nan,nan,nan,nan,nan,nan,nan,nan,nan,nan,nan,0.0,nan,nan,nan,nan,nan,nan,nan,nan,nan,nan,nan,nan,nan,nan,nan,nan,nan,nan,743.4515123844612,1091.1901778050233,nan,1091.4974724934436,nan,nan,nan,nan
1,158,1,1,1.0,1.0,0.34622094221413136,0,0.0,0.0,0.0,0.4029322222008237,0.14492222153359566,0.258010000667228,0.5478544437344194,0.14492222153359566,0.3633245306555182,8,3,1,0,7,5,nan,nan,nan,nan,nan,nan,nan,nan,nan,nan,nan,nan,0.0,nan,nan,nan,nan,nan,nan,nan,nan,nan,nan,nan,nan,nan,nan,nan,nan,nan,nan,743.4515123844612,1092.2152464629617,nan,1092.5614674051758,nan,nan,nan,nan
1,159,1,1,1.0,1.0,0.3210624794010073,0,0.0,0.0,0.0,0.4025663429751031,0.144525313445494,0.25804102952960906,0.5470916564205971,0.144525313445494,0.3248593700118363,7,1,2,4,5,6,nan,nan,nan,nan,nan,nan,nan,nan,nan,nan,nan,nan,0.0,nan,nan,nan,nan,nan,nan,nan,nan,nan,nan,nan,nan,nan,nan,nan,nan,nan,nan,743.4515123844612,1093.2403906709515,nan,1093.5614531503525,nan,nan,nan,nan
1,160,1,1,1.0,1.0,0.3358511943370104,0,0.0,0.0,0.0,0.40204388231116656,0.1442081175549804,0.2578357647561862,0.5462519998661469,0.1442081175549804,0.334378205317383,2,3,8,5,0,7,nan,nan,nan,nan,nan,nan,nan,nan,nan,nan,nan,nan,0.0,nan,nan,nan,nan,nan,nan,nan,nan,nan,nan,nan,nan,nan,nan,nan,nan,nan,nan,743.4515123844612,1094.2655360193457,nan,1094.6013872136828,nan,nan,nan,nan
1,161,1,1,1.0,1.0,0.3827524008229375,0,0.0,0.0,0.0,0.40162227283362417,0.14384454247558906,0.2577777303580351,0.5454668153092133,0.14384454247558906,0.3465553581869851,3,8,6,1,2,4,nan,nan,nan,nan,nan,nan,nan,nan,nan,nan,nan,nan,0.0,nan,nan,nan,nan,nan,nan,nan,nan,nan,nan,nan,nan,nan,nan,nan,nan,nan,nan,743.4515123844612,1095.290616366081,nan,1095.6733687669039,nan,nan,nan,nan
1,162,1,1,1.0,1.0,0.4536109659820795,0,0.0,0.0,0.0,0.4015028432639363,0.1433964241660606,0.2581064190978757,0.544899267429997,0.1433964241660606,0.3907381870473425,1,6,4,7,5,0,nan,nan,nan,nan,nan,nan,nan,nan,nan,nan,nan,nan,0.0,nan,nan,nan,nan,nan,nan,nan,nan,nan,nan,nan,nan,nan,nan,nan,nan,nan,nan,743.4515123844612,1096.3157377666794,nan,1096.7693487326615,nan,nan,nan,nan
1,163,1,1,1.0,1.0,0.40444696322083473,0,0.0,0.0,0.0,0.40183056730618877,0.14300412591618794,0.2588264413900008,0.5448346932223767,0.14300412591618794,0.4136034433419506,7,0,5,2,4,3,nan,nan,nan,nan,nan,nan,nan,nan,nan,nan,nan,nan,0.0,nan,nan,nan,nan,nan,nan,nan,nan,nan,nan,nan,nan,nan,nan,nan,nan,nan,nan,743.4515123844612,1097.340878268471,nan,1097.7453252316918,nan,nan,nan,nan
1,164,1,1,1.0,1.0,0.4672786886803806,0,0.0,0.0,0.0,0.4018469197806553,0.14255668669345298,0.25929023308720234,0.5444036064741082,0.14255668669345298,0.44177887262776494,0,5,6,8,7,2,nan,nan,nan,nan,nan,nan,nan,nan,nan,nan,nan,nan,0.0,nan,nan,nan,nan,nan,nan,nan,nan,nan,nan,nan,nan,nan,nan,nan,nan,nan,nan,743.4515123844612,1098.3660164894536,nan,1098.833295178134,nan,nan,nan,nan
1,165,0,0,0.0,1.0,0.5301215329673141,0,0.0,0.0,0.0,0.4022533282831381,0.1422062222196737,0.2600471060634644,0.5444595505028118,0.1422062222196737,0.46728239495617646,2,6,0,1,4,3,nan,nan,nan,nan,nan,nan,nan,nan,nan,nan,nan,nan,0.0,nan,nan,nan,nan,nan,nan,nan,nan,nan,nan,nan,nan,nan,nan,nan,nan,nan,nan,743.4515123844612,1099.3911361792125,nan,1099.9212577121798,nan,nan,nan,nan
1,166,1,1,1.0,1.0,0.6569883683696389,1,0.0,1.0,1.0,0.4030426381885959,0.14211996110583267,0.2609226770827633,0.5451625992944286,0.14211996110583267,0.5514628633391112,0,8,3,5,6,2,1.0,1.0,1.0,1.0,1.0,1.0,1.0,1.0,0.0,0.0,1.0,1.0,4.0,0.0,8.0,7.0,1.0,6.0,2.0,2.0,1.0,6.0,5.0,4.0,3.0,3.023103785701096,2.296042572706938,7.229091229382902,6.445440438576043,5.109195813536644,3.7827792565803975,743.4515123844612,1100.4162302105688,1101.224650024902,1101.0732185789384,1109.5089221796952,1110.5090872496367,1102.241452078335,1109.5005905737635
1,167,0,0,1.0,0.0,0.5307227976154536,0,0.0,0.0,0.0,0.4046005874535103,0.14306423760230322,0.2615363498512071,0.5476648250558135,0.14306423760230322,0.5726108996508023,5,2,1,8,7,4,nan,nan,nan,nan,nan,nan,nan,nan,nan,nan,nan,nan,0.0,nan,nan,nan,nan,nan,nan,nan,nan,nan,nan,nan,nan,nan,nan,nan,nan,nan,nan,743.4515123844612,1110.7341854432598,nan,1111.2649082408752,nan,nan,nan,nan
1,168,1,1,1.0,1.0,0.545543443178758,0,0.0,0.0,0.0,0.4053696253203514,0.14296494795329687,0.26240467736705453,0.5483345732736483,0.14296494795329687,0.5777515363879502,6,7,8,1,2,3,nan,nan,nan,nan,nan,nan,nan,nan,nan,nan,nan,nan,0.0,nan,nan,nan,nan,nan,nan,nan,nan,nan,nan,nan,nan,nan,nan,nan,nan,nan,nan,743.4515123844612,1111.759298576042,nan,1112.3048420192208,nan,nan,nan,nan
1,169,1,1,1.0,1.0,0.4404840678907931,0,0.0,0.0,0.0,0.4062191636104024,0.14294567174146003,0.26327349186894233,0.5491648353518624,0.14294567174146003,0.5055834362283349,8,2,1,0,4,6,nan,nan,nan,nan,nan,nan,nan,nan,nan,nan,nan,nan,0.0,nan,nan,nan,nan,nan,nan,nan,nan,nan,nan,nan,nan,nan,nan,nan,nan,nan,nan,743.4515123844612,1112.7843318821397,nan,1113.2248159500305,nan,nan,nan,nan
1,170,1,1,1.0,1.0,0.3513492248021066,0,0.0,0.0,0.0,0.4064255786964288,0.14253912477816133,0.2638864539182675,0.5489647034745901,0.14253912477816133,0.44579224529055256,2,4,3,1,7,0,nan,nan,nan,nan,nan,nan,nan,nan,nan,nan,nan,nan,0.0,nan,nan,nan,nan,nan,nan,nan,nan,nan,nan,nan,nan,nan,nan,nan,nan,nan,nan,743.4515123844612,1113.8094584143255,nan,1114.1608076391276,nan,nan,nan,nan
1,171,1,1,1.0,1.0,0.1905472876969725,0,0.0,0.0,0.0,0.40609578017011555,0.1421752310897751,0.26392054908034046,0.5482710112598906,0.1421752310897751,0.32746019346329075,4,6,7,2,5,1,nan,nan,nan,nan,nan,nan,nan,nan,nan,nan,nan,nan,0.0,nan,nan,nan,nan,nan,nan,nan,nan,nan,nan,nan,nan,nan,nan,nan,nan,nan,nan,743.4515123844612,1114.8262544807512,nan,1115.0168017684482,nan,nan,nan,nan
1,172,1,1,1.0,1.0,0.205406135879457,1,1.0,0.0,1.0,0.404812753429204,0.14271784906358753,0.26209490436561644,0.5475306024927915,0.14271784906358753,0.24910088279284537,8,1,2,0,6,4,1.0,1.0,1.0,1.0,1.0,1.0,0.0,0.0,0.0,0.0,0.0,0.0,0.0,2.0,6.0,7.0,3.0,0.0,1.0,2.0,1.0,6.0,5.0,4.0,3.0,3.2094564756844193,0.9393187435343862,7.7050305237062275,6.025080916937441,5.057932659052312,4.282511410303414,743.4515123844612,1115.851358775515,1116.6597700370476,1116.0567649113946,1125.4274535318837,1126.4362467061728,1117.6849125344306,1125.4191253466997
1,173,1,1,1.0,1.0,0.41951535618864,0,0.0,0.0,0.0,0.40363283261530014,0.14311447607362082,0.2605183565416793,0.546747308688921,0.14311447607362082,0.2718229265883565,2,8,5,3,4,1,nan,nan,nan,nan,nan,nan,nan,nan,nan,nan,nan,nan,0.0,nan,nan,nan,nan,nan,nan,nan,nan,nan,nan,nan,nan,nan,nan,nan,nan,nan,nan,743.4515123844612,1126.6609317976981,nan,1127.0804471538868,nan,nan,nan,nan
1,174,1,1,1.0,1.0,0.2746650353074074,0,0.0,0.0,0.0,0.4037262592245551,0.14269809908362263,0.26102816014093244,0.5464243583081777,0.14269809908362263,0.2998621757918348,4,1,3,2,0,7,nan,nan,nan,nan,nan,nan,nan,nan,nan,nan,nan,nan,0.0,nan,nan,nan,nan,nan,nan,nan,nan,nan,nan,nan,nan,nan,nan,nan,nan,nan,nan,743.4515123844612,1127.67778288736,nan,1127.9524479226675,nan,nan,nan,nan
1,175,1,1,1.0,1.0,0.25759983947500587,0,0.0,0.0,0.0,0.4029715152250396,0.14262014455631478,0.2603513706687248,0.5455916597813544,0.14262014455631478,0.3172600769903511,7,4,2,3,5,0,nan,nan,nan,nan,nan,nan,nan,nan,nan,nan,nan,nan,0.0,nan,nan,nan,nan,nan,nan,nan,nan,nan,nan,nan,nan,nan,nan,nan,nan,nan,nan,743.4515123844612,1128.7028284526896,nan,1128.9604282921646,nan,nan,nan,nan
1,176,1,1,1.0,1.0,0.32837601262144744,0,0.0,0.0,0.0,0.40212633106370216,0.14263379116172573,0.2594925399019764,0.5447601222254279,0.14263379116172573,0.2868802958012869,0,5,4,2,8,6,nan,nan,nan,nan,nan,nan,nan,nan,nan,nan,nan,nan,0.0,nan,nan,nan,nan,nan,nan,nan,nan,nan,nan,nan,nan,nan,nan,nan,nan,nan,nan,743.4515123844612,1129.7279826388694,nan,1130.0563586514909,nan,nan,nan,nan
1,177,1,1,1.0,1.0,0.279223698657006,0,0.0,0.0,0.0,0.40170002864496085,0.14233080800742187,0.259369220637539,0.5440308366523827,0.14233080800742187,0.2883998502511531,3,2,7,8,0,1,nan,nan,nan,nan,nan,nan,nan,nan,nan,nan,nan,nan,0.0,nan,nan,nan,nan,nan,nan,nan,nan,nan,nan,nan,nan,nan,nan,nan,nan,nan,nan,743.4515123844612,1130.7531097412575,nan,1131.0323334399145,nan,nan,nan,nan
1,178,1,1,1.0,1.0,0.27011749031953514,0,0.0,0.0,0.0,0.40099614169100706,0.14222287901789918,0.25877326267310785,0.5432190207089063,0.14222287901789918,0.29257240053266287,4,1,3,7,6,8,nan,nan,nan,nan,nan,nan,nan,nan,nan,nan,nan,nan,0.0,nan,nan,nan,nan,nan,nan,nan,nan,nan,nan,nan,nan,nan,nan,nan,nan,nan,nan,743.4515123844612,1131.7782151764259,nan,1132.0483326667454,nan,nan,nan,nan
1,179,1,1,1.0,1.0,0.3009111338760704,0,0.0,0.0,0.0,0.40024826368317007,0.14215865931372226,0.25808960436944783,0.5424069229968923,0.14215865931372226,0.2834174409508705,8,4,7,2,5,1,nan,nan,nan,nan,nan,nan,nan,nan,nan,nan,nan,nan,0.0,nan,nan,nan,nan,nan,nan,nan,nan,nan,nan,nan,nan,nan,nan,nan,nan,nan,nan,743.4515123844612,1132.8033898896538,nan,1133.1043010235298,nan,nan,nan,nan
1,180,1,1,1.0,1.0,0.31580932531505823,0,0.0,0.0,0.0,0.3996838481729025,0.14195072710814813,0.2577331210647543,0.5416345752810506,0.14195072710814813,0.2956126498368879,4,7,8,6,1,0,nan,nan,nan,nan,nan,nan,nan,nan,nan,nan,nan,nan,0.0,nan,nan,nan,nan,nan,nan,nan,nan,nan,nan,nan,nan,nan,nan,nan,nan,nan,nan,743.4515123844612,1133.8284765083808,nan,1134.144285833696,nan,nan,nan,nan
1,181,1,1,1.0,1.0,0.2906120896805078,0,0.0,0.0,0.0,0.39920998081212367,0.14168870073755904,0.25752128007456465,0.5408986815496827,0.14168870073755904,0.30244418295721215,6,8,5,3,0,4,nan,nan,nan,nan,nan,nan,nan,nan,nan,nan,nan,nan,0.0,nan,nan,nan,nan,nan,nan,nan,nan,nan,nan,nan,nan,nan,nan,nan,nan,nan,nan,743.4515123844612,1134.8536232821643,nan,1135.1442353718448,nan,nan,nan,nan
1,182,1,1,1.0,1.0,0.38541632518172264,0,0.0,0.0,0.0,0.3985998803001483,0.14152309549845477,0.25707678480169355,0.540122975798603,0.14152309549845477,0.3306125800590962,5,4,8,2,6,3,nan,nan,nan,nan,nan,nan,nan,nan,nan,nan,nan,nan,0.0,nan,nan,nan,nan,nan,nan,nan,nan,nan,nan,nan,nan,nan,nan,nan,nan,nan,nan,743.4515123844612,1135.8787737623788,nan,1136.2641900875606,nan,nan,nan,nan
1,183,1,1,1.0,1.0,0.5363283287733793,0,0.0,0.0,0.0,0.3985262291542353,0.14113064676593723,0.25739558238829807,0.5396568759201725,0.14113064676593723,0.40411891454520327,7,0,3,8,1,6,nan,nan,nan,nan,nan,nan,nan,nan,nan,nan,nan,nan,0.0,nan,nan,nan,nan,nan,nan,nan,nan,nan,nan,nan,nan,nan,nan,nan,nan,nan,nan,743.4515123844612,1136.9038275952917,nan,1137.440155924065,nan,nan,nan,nan
1,184,1,1,1.0,1.0,0.5430979011580348,0,0.0,0.0,0.0,0.3992917963743417,0.14111029501412986,0.25818150136021184,0.5404020913884715,0.14111029501412986,0.4882808517043789,2,7,5,4,6,8,nan,nan,nan,nan,nan,nan,nan,nan,nan,nan,nan,nan,0.0,nan,nan,nan,nan,nan,nan,nan,nan,nan,nan,nan,nan,nan,nan,nan,nan,nan,nan,743.4515123844612,1137.9290447875392,nan,1138.4721426886972,nan,nan,nan,nan
1,185,1,1,1.0,1.0,0.5260041959118098,0,0.0,0.0,0.0,0.40008630524054994,0.141123093974146,0.258963211266404,0.5412093992146959,0.141123093974146,0.5351434752810746,8,4,6,0,7,5,nan,nan,nan,nan,nan,nan,nan,nan,nan,nan,nan,nan,0.0,nan,nan,nan,nan,nan,nan,nan,nan,nan,nan,nan,nan,nan,nan,nan,nan,nan,nan,743.4515123844612,1138.9541094542947,nan,1139.4801136502065,nan,nan,nan,nan
1,186,1,1,1.0,1.0,0.540863044327125,0,0.0,0.0,0.0,0.4007781617826997,0.14104233062729699,0.2597358311554027,0.5418204924099967,0.14104233062729699,0.5366550471323231,1,7,8,6,4,3,nan,nan,nan,nan,nan,nan,nan,nan,nan,nan,nan,nan,0.0,nan,nan,nan,nan,nan,nan,nan,nan,nan,nan,nan,nan,nan,nan,nan,nan,nan,nan,743.4515123844612,1139.9791940774303,nan,1140.5200571217574,nan,nan,nan,nan
1,187,1,1,1.0,1.0,0.47572946455329657,0,0.0,0.0,0.0,0.4015436529441447,0.14103503893233268,0.260508614011812,0.5425786918764773,0.14103503893233268,0.5141989015974104,6,2,4,5,7,0,nan,nan,nan,nan,nan,nan,nan,nan,nan,nan,nan,nan,0.0,nan,nan,nan,nan,nan,nan,nan,nan,nan,nan,nan,nan,nan,nan,nan,nan,nan,nan,743.4515123844612,1141.0043160479981,nan,1141.4800455125514,nan,nan,nan,nan
1,188,1,1,1.0,1.0,0.41092089260928333,0,0.0,0.0,0.0,0.40194683670289005,0.1407569804421193,0.26118985626077074,0.5427038171450094,0.1407569804421193,0.47583780049656826,3,1,0,6,5,2,nan,nan,nan,nan,nan,nan,nan,nan,nan,nan,nan,nan,0.0,nan,nan,nan,nan,nan,nan,nan,nan,nan,nan,nan,nan,nan,nan,nan,nan,nan,nan,743.4515123844612,1142.0211106890347,nan,1142.432031581644,nan,nan,nan,nan
1,189,0,0,0.0,1.0,0.5940674084704369,0,0.0,0.0,0.0,0.4019953451131949,0.14037758283937868,0.2616177622738162,0.5423729279525735,0.14037758283937868,0.49357258854433894,5,0,6,7,1,8,nan,nan,nan,nan,nan,nan,nan,nan,nan,nan,nan,nan,0.0,nan,nan,nan,nan,nan,nan,nan,nan,nan,nan,nan,nan,nan,nan,nan,nan,nan,nan,743.4515123844612,1143.0378970620222,nan,1143.6319644704927,nan,nan,nan,nan
1,190,1,1,1.0,1.0,0.2809482361190021,0,0.0,0.0,0.0,0.4030279906151155,0.1407025097306554,0.2623254808844601,0.5437305003457709,0.1407025097306554,0.4286455123995741,4,6,8,5,2,7,nan,nan,nan,nan,nan,nan,nan,nan,nan,nan,nan,nan,0.0,nan,nan,nan,nan,nan,nan,nan,nan,nan,nan,nan,nan,nan,nan,nan,nan,nan,nan,743.4515123844612,1144.0630005015992,nan,1144.3439487377182,nan,nan,nan,nan
1,191,1,1,1.0,1.0,0.38413539505563676,0,0.0,0.0,0.0,0.4023751577033716,0.1406079669709043,0.26176719073246735,0.5429831246742759,0.1406079669709043,0.41971701321502525,0,1,5,7,3,2,nan,nan,nan,nan,nan,nan,nan,nan,nan,nan,nan,nan,0.0,nan,nan,nan,nan,nan,nan,nan,nan,nan,nan,nan,nan,nan,nan,nan,nan,nan,nan,743.4515123844612,1145.0797783217859,nan,1145.4639137168415,nan,nan,nan,nan
1,192,0,0,1.0,0.0,0.31097240932285786,0,0.0,0.0,0.0,0.40227813768928794,0.14023978685409125,0.26203835083519667,0.5425179245433792,0.14023978685409125,0.3253520134991656,5,2,3,6,0,4,nan,nan,nan,nan,nan,nan,nan,nan,nan,nan,nan,nan,0.0,nan,nan,nan,nan,nan,nan,nan,nan,nan,nan,nan,nan,nan,nan,nan,nan,nan,nan,743.4515123844612,1146.1049102707766,nan,1146.4158826800995,nan,nan,nan,nan
1,193,1,1,1.0,1.0,0.4781938227824867,0,0.0,0.0,0.0,0.40179503859740207,0.14002505096909554,0.2617699876283065,0.5418200895664976,0.14002505096909554,0.39110054238699377,4,6,2,8,1,7,nan,nan,nan,nan,nan,nan,nan,nan,nan,nan,nan,nan,0.0,nan,nan,nan,nan,nan,nan,nan,nan,nan,nan,nan,nan,nan,nan,nan,nan,nan,nan,743.4515123844612,1147.121685240185,nan,1147.5998790629674,nan,nan,nan,nan
1,194,0,0,1.0,0.0,0.2930197138339281,0,0.0,0.0,0.0,0.40219713746153407,0.13976544016489126,0.26243169729664284,0.5419625776264253,0.13976544016489126,0.36072864864642423,5,2,0,7,4,6,nan,nan,nan,nan,nan,nan,nan,nan,nan,nan,nan,nan,0.0,nan,nan,nan,nan,nan,nan,nan,nan,nan,nan,nan,nan,nan,nan,nan,nan,nan,nan,743.4515123844612,1148.146814623382,nan,1148.4398343372159,nan,nan,nan,nan
1,195,1,1,1.0,1.0,0.38783221738412976,0,0.0,0.0,0.0,0.40162552791374556,0.1396215748120896,0.262003953101656,0.5412471027258352,0.1396215748120896,0.3863485846668482,7,6,8,5,3,2,nan,nan,nan,nan,nan,nan,nan,nan,nan,nan,nan,nan,0.0,nan,nan,nan,nan,nan,nan,nan,nan,nan,nan,nan,nan,nan,nan,nan,nan,nan,nan,743.4515123844612,1149.1719653883483,nan,1149.5597976057325,nan,nan,nan,nan
1,196,1,1,1.0,1.0,0.5067072792444378,0,0.0,0.0,0.0,0.40155368775473715,0.1392610415604125,0.2622926461943247,0.5408147293151496,0.1392610415604125,0.3958530701541652,3,0,2,8,5,4,nan,nan,nan,nan,nan,nan,nan,nan,nan,nan,nan,nan,0.0,nan,nan,nan,nan,nan,nan,nan,nan,nan,nan,nan,nan,nan,nan,nan,nan,nan,nan,743.4515123844612,1150.19705913472,nan,1150.7037664139643,nan,nan,nan,nan
1,197,1,1,1.0,1.0,0.3138857916928828,0,0.0,0.0,0.0,0.4020985250163418,0.1391048067978694,0.2629937182184724,0.5412033318142112,0.1391048067978694,0.40280842944048345,2,1,6,0,7,5,nan,nan,nan,nan,nan,nan,nan,nan,nan,nan,nan,nan,0.0,nan,nan,nan,nan,nan,nan,nan,nan,nan,nan,nan,nan,nan,nan,nan,nan,nan,nan,743.4515123844612,1151.213852635119,nan,1151.527738426812,nan,nan,nan,nan
1,198,1,1,1.0,1.0,0.26476483838632703,0,0.0,0.0,0.0,0.40164382020539613,0.13888955412430898,0.26275426608108715,0.5405333743297052,0.13888955412430898,0.3617859697745492,5,3,2,1,8,4,nan,nan,nan,nan,nan,nan,nan,nan,nan,nan,nan,nan,0.0,nan,nan,nan,nan,nan,nan,nan,nan,nan,nan,nan,nan,nan,nan,nan,nan,nan,nan,743.4515123844612,1152.238953793887,nan,1152.5037186322734,nan,nan,nan,nan
1,199,1,1,1.0,1.0,0.2956023863516748,0,0.0,0.0,0.0,0.4009418767088881,0.13887754380607295,0.26206433290281517,0.539819420514961,0.13887754380607295,0.2914176721436282,7,6,4,5,3,8,nan,nan,nan,nan,nan,nan,nan,nan,nan,nan,nan,nan,0.0,nan,nan,nan,nan,nan,nan,nan,nan,nan,nan,nan,nan,nan,nan,nan,nan,nan,nan,743.4515123844612,1153.2641171033029,nan,1153.5597194896545,nan,nan,nan,nan
1,200,1,1,1.0,1.0,0.2464828584343195,0,0.0,0.0,0.0,0.40040443032951456,0.13872596993152161,0.2616784603979929,0.5391304002610362,0.13872596993152161,0.2689500277241071,5,2,8,7,0,4,nan,nan,nan,nan,nan,nan,nan,nan,nan,nan,nan,nan,0.0,nan,nan,nan,nan,nan,nan,nan,nan,nan,nan,nan,nan,nan,nan,nan,nan,nan,nan,743.4515123844612,1154.289204292465,nan,1154.5356871508993,nan,nan,nan,nan
1,201,1,1,1.0,1.0,0.22929478692822158,1,1.0,0.0,1.0,0.39962310255339684,0.13880510667418253,0.2608179958792143,0.5384282092275794,0.13880510667418253,0.257126677238072,1,7,0,2,8,3,1.0,1.0,1.0,1.0,1.0,1.0,0.0,1.0,0.0,0.0,1.0,1.0,3.0,4.0,7.0,1.0,5.0,8.0,3.0,4.0,1.0,5.0,6.0,2.0,3.0,10.27445634570904,2.3293989319354296,12.321325621567667,13.25703022023663,3.458761771209538,4.458055021474138,743.4515123844612,1155.3143630402628,1156.1227358139586,1155.543657827191,1170.4243990276009,1171.4253891613334,1157.13119457243,1170.4160654258449
1,202,1,1,1.0,1.0,0.5895814439281821,0,0.0,0.0,0.0,0.39876285853508786,0.13897961782906543,0.25978324070602243,0.5377424763641533,0.13897961782906543,0.35511969643024105,6,0,7,3,4,2,nan,nan,nan,nan,nan,nan,nan,nan,nan,nan,nan,nan,0.0,nan,nan,nan,nan,nan,nan,nan,nan,nan,nan,nan,nan,nan,nan,nan,nan,nan,nan,743.4515123844612,1171.6495684951078,nan,1172.239149939036,nan,nan,nan,nan
1,203,0,0,0.0,1.0,0.6047869671601802,0,0.0,0.0,0.0,0.3997217458988722,0.13928505395943214,0.2604366919394401,0.5390067998583044,0.13928505395943214,0.4745543993388613,1,2,8,6,5,3,nan,nan,nan,nan,nan,nan,nan,nan,nan,nan,nan,nan,0.0,nan,nan,nan,nan,nan,nan,nan,nan,nan,nan,nan,nan,nan,nan,nan,nan,nan,nan,743.4515123844612,1172.6663591447286,nan,1173.2711461118888,nan,nan,nan,nan
1,204,1,1,1.0,1.0,0.49964919104240835,1,0.0,1.0,1.0,0.4007470720051788,0.13968726519060348,0.2610598068145753,0.5404343371957823,0.13968726519060348,0.5646725340435902,5,6,3,0,8,4,1.0,1.0,1.0,1.0,1.0,1.0,1.0,1.0,0.0,1.0,1.0,1.0,5.0,5.0,6.0,1.0,0.0,8.0,4.0,3.0,1.0,5.0,6.0,2.0,4.0,2.8416552937123924,1.1118791243061423,4.824380838545039,5.82397685945034,1.9212742475792766,3.753023642580956,743.4515123844612,1173.691469996469,1174.4999034954235,1174.1911191875115,1181.367348451633,1182.3764187379275,1175.5083753683139,1181.3590139944572
1,205,1,1,1.0,1.0,0.5419635095167905,0,0.0,0.0,0.0,0.40123912234864756,0.13951300115264867,0.2617261211959989,0.5407521235012962,0.13951300115264867,0.5487998892397931,2,0,6,8,4,1,nan,nan,nan,nan,nan,nan,nan,nan,nan,nan,nan,nan,0.0,nan,nan,nan,nan,nan,nan,nan,nan,nan,nan,nan,nan,nan,nan,nan,nan,nan,nan,743.4515123844612,1182.600849240087,nan,1183.1428127496038,nan,nan,nan,nan
1,206,1,1,1.0,1.0,0.5888188157696277,0,0.0,0.0,0.0,0.4019357777306681,0.13951728471568817,0.2624184930149799,0.5414530624463563,0.13951728471568817,0.5434771721096089,6,7,8,0,5,4,nan,nan,nan,nan,nan,nan,nan,nan,nan,nan,nan,nan,0.0,nan,nan,nan,nan,nan,nan,nan,nan,nan,nan,nan,nan,nan,nan,nan,nan,nan,nan,743.4515123844612,1183.6259618024342,nan,1184.2147806182038,nan,nan,nan,nan
1,207,1,1,nan,nan,nan,0,0.0,0.0,0.0,0.0,0.0,0.0,0.0,0.0,0.0,4,1,2,5,6,0,nan,nan,nan,nan,nan,nan,nan,nan,nan,nan,nan,nan,0.0,nan,nan,nan,nan,nan,nan,nan,nan,nan,nan,nan,nan,nan,nan,nan,nan,nan,nan,743.4515123844612,1184.6427741192747,nan,nan,nan,nan,nan,nan
1,208,1,1,nan,nan,nan,0,0.0,0.0,0.0,0.0,0.0,0.0,0.0,0.0,0.0,6,5,1,0,8,2,nan,nan,nan,nan,nan,nan,nan,nan,nan,nan,nan,nan,0.0,nan,nan,nan,nan,nan,nan,nan,nan,nan,nan,nan,nan,nan,nan,nan,nan,nan,nan,743.4515123844612,1185.6595505140722,nan,nan,nan,nan,nan,nan
1,209,1,1,nan,nan,nan,0,0.0,0.0,0.0,0.0,0.0,0.0,0.0,0.0,0.0,8,2,7,4,3,6,nan,nan,nan,nan,nan,nan,nan,nan,nan,nan,nan,nan,0.0,nan,nan,nan,nan,nan,nan,nan,nan,nan,nan,nan,nan,nan,nan,nan,nan,nan,nan,743.4515123844612,1186.67633717251,nan,nan,nan,nan,nan,nan
1,210,1,1,nan,nan,nan,0,0.0,0.0,0.0,0.0,0.0,0.0,0.0,0.0,0.0,6,7,4,0,1,2,nan,nan,nan,nan,nan,nan,nan,nan,nan,nan,nan,nan,0.0,nan,nan,nan,nan,nan,nan,nan,nan,nan,nan,nan,nan,nan,nan,nan,nan,nan,nan,743.4515123844612,1187.6931241157,nan,nan,nan,nan,nan,nan
1,211,1,1,nan,nan,nan,0,0.0,0.0,0.0,0.0,0.0,0.0,0.0,0.0,0.0,2,1,0,3,8,6,nan,nan,nan,nan,nan,nan,nan,nan,nan,nan,nan,nan,0.0,nan,nan,nan,nan,nan,nan,nan,nan,nan,nan,nan,nan,nan,nan,nan,nan,nan,nan,743.4515123844612,1188.7099127697293,nan,nan,nan,nan,nan,nan
1,212,0,0,0.0,1.0,0.5359431656543165,0,0.0,0.0,0.0,0.40285638382938216,0.1397869229420591,0.2630694608873231,0.5426433067714412,0.1397869229420591,0.5359431656543165,1,5,6,2,3,7,nan,nan,nan,nan,nan,nan,nan,nan,nan,nan,nan,nan,0.0,nan,nan,nan,nan,nan,nan,nan,nan,nan,nan,nan,nan,nan,nan,nan,nan,nan,nan,743.4515123844612,1189.72670341935,nan,1190.2626465850044,nan,nan,nan,nan
1,213,1,1,1.0,1.0,0.47078677848912776,0,0.0,0.0,0.0,0.4035087700147985,0.13975333985481272,0.2637554301599858,0.5432621098696112,0.13975333985481272,0.5033649720717221,4,6,2,0,8,1,nan,nan,nan,nan,nan,nan,nan,nan,nan,nan,nan,nan,0.0,nan,nan,nan,nan,nan,nan,nan,nan,nan,nan,nan,nan,nan,nan,nan,nan,nan,nan,743.4515123844612,1190.7518319471274,nan,1191.2226187256165,nan,nan,nan,nan
1,214,1,1,1.0,1.0,0.5656141065992415,0,0.0,0.0,0.0,0.4038369554219904,0.13949084129181089,0.2643461141301795,0.5433277967138013,0.13949084129181089,0.5241146835808953,7,5,3,8,0,4,nan,nan,nan,nan,nan,nan,nan,nan,nan,nan,nan,nan,0.0,nan,nan,nan,nan,nan,nan,nan,nan,nan,nan,nan,nan,nan,nan,nan,nan,nan,nan,743.4515123844612,1191.7769496412948,nan,1192.342563747894,nan,nan,nan,nan
1,215,1,1,1.0,1.0,0.5404818726237863,0,0.0,0.0,0.0,0.404622281398579,0.1396054119205219,0.2650168694780571,0.5442276933191008,0.1396054119205219,0.5256275859040519,3,1,4,7,5,6,nan,nan,nan,nan,nan,nan,nan,nan,nan,nan,nan,nan,0.0,nan,nan,nan,nan,nan,nan,nan,nan,nan,nan,nan,nan,nan,nan,nan,nan,nan,nan,743.4515123844612,1192.8020510850474,nan,1193.3425329576712,nan,nan,nan,nan
1,216,1,1,nan,nan,nan,0,0.0,0.0,0.0,0.0,0.0,0.0,0.0,0.0,0.0,6,3,7,4,0,2,nan,nan,nan,nan,nan,nan,nan,nan,nan,nan,nan,nan,0.0,nan,nan,nan,nan,nan,nan,nan,nan,nan,nan,nan,nan,nan,nan,nan,nan,nan,nan,743.4515123844612,1193.8271733408328,nan,nan,nan,nan,nan,nan
1,217,1,1,1.0,1.0,0.7302126493304968,1,0.0,1.0,1.0,0.405278607926237,0.13958601479576818,0.2656925931304688,0.5448646227220052,0.13958601479576818,0.6353472609771416,2,7,3,5,8,6,1.0,1.0,1.0,1.0,1.0,1.0,0.0,1.0,0.0,1.0,1.0,1.0,4.0,3.0,7.0,4.0,5.0,8.0,6.0,6.0,4.0,5.0,1.0,2.0,3.0,11.925857999594882,5.254133943701163,10.00641862116754,1.5913379122503102,3.071420772233978,3.975173387443647,743.4515123844612,1194.8522779205814,1195.6606857611332,1195.582490569912,1208.6455201508943,1209.644325319212,1196.6775245915633,1208.6371894001495
1,218,1,1,1.0,1.0,0.5196585592348129,0,0.0,0.0,0.0,0.4068407908176036,0.14105228536279202,0.2657885054548116,0.5478930761803956,0.14105228536279202,0.6249356042826548,7,8,1,3,2,0,nan,nan,nan,nan,nan,nan,nan,nan,nan,nan,nan,nan,0.0,nan,nan,nan,nan,nan,nan,nan,nan,nan,nan,nan,nan,nan,nan,nan,nan,nan,nan,743.4515123844612,1209.8624033422675,nan,1210.3820619015023,nan,nan,nan,nan
1,219,1,1,1.0,1.0,0.5745030727703124,0,0.0,0.0,0.0,0.4073805887526142,0.14092962662255062,0.2664509621300636,0.5483102153751648,0.14092962662255062,0.6081247604452074,4,6,2,7,8,3,nan,nan,nan,nan,nan,nan,nan,nan,nan,nan,nan,nan,0.0,nan,nan,nan,nan,nan,nan,nan,nan,nan,nan,nan,nan,nan,nan,nan,nan,nan,nan,743.4515123844612,1210.8875418484677,nan,1211.462044921238,nan,nan,nan,nan
1,220,1,1,1.0,1.0,0.5493466057814658,0,0.0,0.0,0.0,0.40817641010507943,0.141063634643529,0.26711277546155043,0.5492400447486084,0.141063634643529,0.547836079262197,2,7,4,0,3,6,nan,nan,nan,nan,nan,nan,nan,nan,nan,nan,nan,nan,0.0,nan,nan,nan,nan,nan,nan,nan,nan,nan,nan,nan,nan,nan,nan,nan,nan,nan,nan,743.4515123844612,1211.9126615382265,nan,1212.462008144008,nan,nan,nan,nan
1,221,1,1,1.0,1.0,0.3405452778097242,0,0.0,0.0,0.0,0.4088454631651571,0.14106255322728176,0.26778290993787535,0.5499080163924388,0.14106255322728176,0.4881316521205008,3,8,5,6,1,4,nan,nan,nan,nan,nan,nan,nan,nan,nan,nan,nan,nan,0.0,nan,nan,nan,nan,nan,nan,nan,nan,nan,nan,nan,nan,nan,nan,nan,nan,nan,nan,743.4515123844612,1212.929443349829,nan,1213.2699886276387,nan,nan,nan,nan
1,222,1,1,1.0,1.0,0.3154002146329731,0,0.0,0.0,0.0,0.40852329247951824,0.1408072544958375,0.2677160379836807,0.5493305469753558,0.1408072544958375,0.40176403274138767,1,3,8,7,0,5,nan,nan,nan,nan,nan,nan,nan,nan,nan,nan,nan,nan,0.0,nan,nan,nan,nan,nan,nan,nan,nan,nan,nan,nan,nan,nan,nan,nan,nan,nan,nan,743.4515123844612,1213.9545676012058,nan,1214.2699678158388,nan,nan,nan,nan
1,223,1,1,1.0,1.0,0.21858463622629642,0,0.0,0.0,0.0,0.4080860949309429,0.14062048904733596,0.2674656058836069,0.5487065839782789,0.14062048904733596,0.2915100428896646,0,5,7,2,4,6,nan,nan,nan,nan,nan,nan,nan,nan,nan,nan,nan,nan,0.0,nan,nan,nan,nan,nan,nan,nan,nan,nan,nan,nan,nan,nan,nan,nan,nan,nan,nan,743.4515123844612,1214.9713300263975,nan,1215.1899146626238,nan,nan,nan,nan
1,224,1,1,1.0,1.0,0.28141522128134966,0,0.0,0.0,0.0,0.40720057409587446,0.14088556648482436,0.2663150076110501,0.5480861405806988,0.14088556648482436,0.27180002404687303,7,4,6,5,1,0,nan,nan,nan,nan,nan,nan,nan,nan,nan,nan,nan,nan,0.0,nan,nan,nan,nan,nan,nan,nan,nan,nan,nan,nan,nan,nan,nan,nan,nan,nan,nan,743.4515123844612,1215.9964691028,nan,1216.2778843240812,nan,nan,nan,nan
1,225,1,1,1.0,1.0,0.08871147758327425,1,1.0,0.0,1.0,0.4066155259432488,0.14081786575766408,0.2657976601855847,0.5474333917009129,0.14081786575766408,0.19623711169697344,6,2,1,7,8,4,1.0,1.0,1.0,1.0,1.0,1.0,0.0,0.0,1.0,1.0,0.0,1.0,3.0,2.0,3.0,1.0,7.0,6.0,4.0,6.0,5.0,1.0,3.0,4.0,2.0,7.476253183325753,6.316681714961305,1.7902932113502175,4.093180051306263,5.1724420664832,2.990060460055247,743.4515123844612,1217.0131901893765,1217.8216470659245,1217.1019016669597,1226.3642848243471,1227.365433185827,1218.8467619093135,1226.3559460910037
1,226,1,1,1.0,1.0,0.5200782185420394,0,0.0,0.0,0.0,0.4051437479415822,0.1421393166481441,0.2630044312934381,0.5472830645897263,0.1421393166481441,0.29673497246888775,7,5,0,8,1,3,nan,nan,nan,nan,nan,nan,nan,nan,nan,nan,nan,nan,0.0,nan,nan,nan,nan,nan,nan,nan,nan,nan,nan,nan,nan,nan,nan,nan,nan,nan,nan,743.4515123844612,1227.5894862224814,nan,1228.1095644410234,nan,nan,nan,nan
1,227,1,1,1.0,1.0,0.5749338509049267,0,0.0,0.0,0.0,0.4056733998798332,0.14202491327670694,0.26364848660312623,0.5476983131565402,0.14202491327670694,0.3945745156767468,1,3,8,6,0,2,nan,nan,nan,nan,nan,nan,nan,nan,nan,nan,nan,nan,0.0,nan,nan,nan,nan,nan,nan,nan,nan,nan,nan,nan,nan,nan,nan,nan,nan,nan,nan,743.4515123844612,1228.614599925233,nan,1229.189533776138,nan,nan,nan,nan
1,228,1,1,1.0,1.0,0.7817831358406693,1,0.0,1.0,1.0,0.4064498239671043,0.14215963975957296,0.2642901842075313,0.5486094637266772,0.14215963975957296,0.6255984017625451,8,4,3,0,6,5,1.0,1.0,1.0,1.0,1.0,1.0,0.0,0.0,1.0,1.0,1.0,1.0,4.0,7.0,1.0,3.0,0.0,6.0,5.0,5.0,6.0,1.0,3.0,4.0,2.0,5.561911582481116,6.977961898315698,1.379647719906643,3.1867726345080882,4.018105506198481,2.266264721285552,743.4515123844612,1229.6396905356087,1230.4481015119236,1230.4214736714493,1238.4823744508903,1239.4862793923821,1231.4648975783493,1238.4740394235123
1,229,1,1,nan,nan,nan,0,0.0,0.0,0.0,0.0,0.0,0.0,0.0,0.0,0.0,3,5,1,4,0,7,nan,nan,nan,nan,nan,nan,nan,nan,nan,nan,nan,nan,0.0,nan,nan,nan,nan,nan,nan,nan,nan,nan,nan,nan,nan,nan,nan,nan,nan,nan,nan,743.4515123844612,1239.7075653003994,nan,nan,nan,nan,nan,nan
1,230,1,1,1.0,1.0,0.7288208170793951,0,0.0,0.0,0.0,0.4081636747062529,0.14407432446152169,0.26408935024473124,0.5522379991677746,0.14407432446152169,0.7553019764600322,1,3,2,5,7,6,nan,nan,nan,nan,nan,nan,nan,nan,nan,nan,nan,nan,0.0,nan,nan,nan,nan,nan,nan,nan,nan,nan,nan,nan,nan,nan,nan,nan,nan,nan,nan,743.4515123844612,1240.7243436907884,nan,1241.4531645078678,nan,nan,nan,nan
1,231,1,1,1.0,1.0,0.5276634467300028,1,0.0,1.0,1.0,0.4096212071715854,0.14535578039887095,0.2642654267727145,0.5549769875704563,0.14535578039887095,0.6282421319046989,4,7,8,2,1,5,1.0,1.0,1.0,1.0,1.0,1.0,0.0,0.0,0.0,1.0,0.0,0.0,1.0,3.0,6.0,0.0,2.0,8.0,8.0,4.0,5.0,6.0,1.0,2.0,3.0,12.10064240382053,12.995792002882808,14.139390758471563,1.445746630197391,2.646289336262271,3.5979646523483098,743.4515123844612,1241.7494870435912,1242.5578726464882,1242.2771504903212,1257.7429697797634,1258.751744137844,1243.5663285539486,1257.7346347523853
1,232,1,1,1.0,1.0,0.4841813805978745,0,0.0,0.0,0.0,0.4101553349523927,0.14524277628100277,0.26491255867138996,0.5553981112333954,0.14524277628100277,0.5802218814690908,5,8,6,3,0,1,nan,nan,nan,nan,nan,nan,nan,nan,nan,nan,nan,nan,0.0,nan,nan,nan,nan,nan,nan,nan,nan,nan,nan,nan,nan,nan,nan,nan,nan,nan,nan,743.4515123844612,1258.9764771254268,nan,1259.4606585060246,nan,nan,nan,nan
1,233,1,1,nan,nan,nan,0,0.0,0.0,0.0,0.0,0.0,0.0,0.0,0.0,0.0,2,7,5,0,3,4,nan,nan,nan,nan,nan,nan,nan,nan,nan,nan,nan,nan,0.0,nan,nan,nan,nan,nan,nan,nan,nan,nan,nan,nan,nan,nan,nan,nan,nan,nan,nan,743.4515123844612,1259.9932925782632,nan,nan,nan,nan,nan,nan
1,234,1,1,1.0,1.0,0.6665048277936876,1,0.0,1.0,1.0,0.4104887856084535,0.1450000423898849,0.2654887432185686,0.5554888279983383,0.1450000423898849,0.575343104195781,3,5,8,1,0,2,1.0,1.0,1.0,1.0,1.0,1.0,0.0,0.0,1.0,1.0,1.0,1.0,4.0,7.0,6.0,8.0,1.0,0.0,2.0,5.0,6.0,1.0,2.0,3.0,4.0,15.398488485254347,16.30236597219482,1.2493480599951,2.64716144092381,3.6791370869614184,4.671236543916166,743.4515123844612,1261.010051867459,1261.8184448829852,1261.6765566952527,1279.178835884435,1280.1855108055752,1262.8352403789759,1279.1705148268957
1,235,1,1,1.0,1.0,0.3600283614359796,0,0.0,0.0,0.0,0.4116368396092841,0.1456822979646139,0.2659545416446702,0.557319137573898,0.1456822979646139,0.5132665946148336,0,2,5,7,4,6,nan,nan,nan,nan,nan,nan,nan,nan,nan,nan,nan,nan,0.0,nan,nan,nan,nan,nan,nan,nan,nan,nan,nan,nan,nan,nan,nan,nan,nan,nan,nan,743.4515123844612,1280.404013049323,nan,1280.764041410759,nan,nan,nan,nan
1,236,1,1,1.0,1.0,0.49520028894767165,0,0.0,0.0,0.0,0.41140644461743897,0.1453974627554269,0.26600898186201205,0.5568039073728659,0.1453974627554269,0.5072444927257796,4,1,7,2,0,8,nan,nan,nan,nan,nan,nan,nan,nan,nan,nan,nan,nan,0.0,nan,nan,nan,nan,nan,nan,nan,nan,nan,nan,nan,nan,nan,nan,nan,nan,nan,nan,743.4515123844612,1281.4208099711686,nan,1281.9160102601163,nan,nan,nan,nan
1,237,0,0,0.0,1.0,0.5180586080532521,0,0.0,0.0,0.0,0.41177886170335115,0.1451810328819183,0.26659782882143285,0.5569598945852694,0.1451810328819183,0.4577624194789678,2,3,1,7,8,5,nan,nan,nan,nan,nan,nan,nan,nan,nan,nan,nan,nan,0.0,nan,nan,nan,nan,nan,nan,nan,nan,nan,nan,nan,nan,nan,nan,nan,nan,nan,nan,743.4515123844612,1282.4458883223124,nan,1282.9639469303656,nan,nan,nan,nan
1,238,1,1,1.0,1.0,0.3489253500010818,0,0.0,0.0,0.0,0.41224912606773123,0.1450311253495504,0.2672180007181808,0.5572802514172817,0.1450311253495504,0.4540614156673352,6,5,8,4,1,3,nan,nan,nan,nan,nan,nan,nan,nan,nan,nan,nan,nan,0.0,nan,nan,nan,nan,nan,nan,nan,nan,nan,nan,nan,nan,nan,nan,nan,nan,nan,nan,743.4515123844612,1283.471015139483,nan,1283.819940489484,nan,nan,nan,nan
1,239,0,0,0.0,1.0,0.3480928735807538,0,0.0,0.0,0.0,0.41197016670179887,0.14477207378822923,0.26719809291356966,0.5567422404900281,0.14477207378822923,0.4050256105450292,1,0,7,5,2,6,nan,nan,nan,nan,nan,nan,nan,nan,nan,nan,nan,nan,0.0,nan,nan,nan,nan,nan,nan,nan,nan,nan,nan,nan,nan,nan,nan,nan,nan,nan,nan,743.4515123844612,1284.4878112059087,nan,1284.8359040794894,nan,nan,nan,nan
1,240,1,1,1.0,1.0,0.29127521999180317,0,0.0,0.0,0.0,0.4116900031354785,0.14451590124820757,0.2671741018872709,0.556205904383686,0.14451590124820757,0.3294311478578796,2,6,1,8,4,3,nan,nan,nan,nan,nan,nan,nan,nan,nan,nan,nan,nan,0.0,nan,nan,nan,nan,nan,nan,nan,nan,nan,nan,nan,nan,nan,nan,nan,nan,nan,nan,743.4515123844612,1285.5045933024958,nan,1285.7958685224876,nan,nan,nan,nan
1,241,1,1,0.0,0.0,0.3064815984107554,0,0.0,0.0,0.0,0.4111641743881262,0.1444184426334485,0.2667457317546777,0.5555826170215747,0.1444184426334485,0.31528323066110414,6,4,3,2,8,5,nan,nan,nan,nan,nan,nan,nan,nan,nan,nan,nan,nan,0.0,nan,nan,nan,nan,nan,nan,nan,nan,nan,nan,nan,nan,nan,nan,nan,nan,nan,nan,743.4515123844612,1286.521365991095,nan,1286.8278475895058,nan,nan,nan,nan
1,242,1,1,1.0,1.0,0.41766138561069965,0,0.0,0.0,0.0,0.41070903275344195,0.14426865068873485,0.2664403820647071,0.5549776834421768,0.14426865068873485,0.3384727346710861,1,3,5,6,4,7,nan,nan,nan,nan,nan,nan,nan,nan,nan,nan,nan,nan,0.0,nan,nan,nan,nan,nan,nan,nan,nan,nan,nan,nan,nan,nan,nan,nan,nan,nan,nan,743.4515123844612,1287.5381577811204,nan,1287.955819166731,nan,nan,nan,nan
1,243,1,1,1.0,1.0,0.4808278123382479,0,0.0,0.0,0.0,0.4107391295190578,0.14395676580746244,0.26678236371159536,0.5546958953265202,0.14395676580746244,0.401656932119901,2,7,0,8,1,3,nan,nan,nan,nan,nan,nan,nan,nan,nan,nan,nan,nan,0.0,nan,nan,nan,nan,nan,nan,nan,nan,nan,nan,nan,nan,nan,nan,nan,nan,nan,nan,743.4515123844612,1288.5549418735318,nan,1289.03576968587,nan,nan,nan,nan
1,244,1,1,1.0,1.0,0.4560165947768837,0,0.0,0.0,0.0,0.41104123591051983,0.14371954544929536,0.26732169046122445,0.5547607813598152,0.14371954544929536,0.4515019309086104,5,2,4,6,8,0,nan,nan,nan,nan,nan,nan,nan,nan,nan,nan,nan,nan,0.0,nan,nan,nan,nan,nan,nan,nan,nan,nan,nan,nan,nan,nan,nan,nan,nan,nan,nan,743.4515123844612,1289.571735944366,nan,1290.027752539143,nan,nan,nan,nan
1,245,1,1,1.0,1.0,0.31923815864138305,0,0.0,0.0,0.0,0.4112342632017918,0.14344093755568169,0.26779332564611014,0.5546752007574735,0.14344093755568169,0.4186941885855049,6,4,0,5,7,3,nan,nan,nan,nan,nan,nan,nan,nan,nan,nan,nan,nan,0.0,nan,nan,nan,nan,nan,nan,nan,nan,nan,nan,nan,nan,nan,nan,nan,nan,nan,nan,743.4515123844612,1290.588514334755,nan,1290.9077524933964,nan,nan,nan,nan
1,246,1,1,1.0,1.0,0.35840588761493564,0,0.0,0.0,0.0,0.41084111745580715,0.1432598591266318,0.26758125832917534,0.554100976582439,0.1432598591266318,0.3778868803444008,1,7,3,8,2,0,nan,nan,nan,nan,nan,nan,nan,nan,nan,nan,nan,nan,0.0,nan,nan,nan,nan,nan,nan,nan,nan,nan,nan,nan,nan,nan,nan,nan,nan,nan,nan,743.4515123844612,1291.60531182657,nan,1291.963717714185,nan,nan,nan,nan
1,247,0,0,0.0,1.0,0.3412774009630084,0,0.0,0.0,0.0,0.4106179888181864,0.14299546737320248,0.2676225214449839,0.5536134561913889,0.14299546737320248,0.33964048240644235,8,2,1,6,4,5,nan,nan,nan,nan,nan,nan,nan,nan,nan,nan,nan,nan,0.0,nan,nan,nan,nan,nan,nan,nan,nan,nan,nan,nan,nan,nan,nan,nan,nan,nan,nan,743.4515123844612,1292.6304058579262,nan,1292.9716832588892,nan,nan,nan,nan
1,248,1,1,1.0,1.0,0.3960822862572968,0,0.0,0.0,0.0,0.4103241727679526,0.14276325832233946,0.26756091444561314,0.553087431090292,0.14276325832233946,0.36525519161174697,6,1,4,7,0,2,nan,nan,nan,nan,nan,nan,nan,nan,nan,nan,nan,nan,0.0,nan,nan,nan,nan,nan,nan,nan,nan,nan,nan,nan,nan,nan,nan,nan,nan,nan,nan,743.4515123844612,1293.6555717331357,nan,1294.051654019393,nan,nan,nan,nan
1,249,1,1,1.0,1.0,0.26694723777472973,0,0.0,0.0,0.0,0.4102640804198064,0.142464742640019,0.26779933777978737,0.5527288230598254,0.142464742640019,0.33476897499834496,7,6,1,0,3,5,nan,nan,nan,nan,nan,nan,nan,nan,nan,nan,nan,nan,0.0,nan,nan,nan,nan,nan,nan,nan,nan,nan,nan,nan,nan,nan,nan,nan,nan,nan,nan,743.4515123844612,1294.6806939889211,nan,1294.9476412266959,nan,nan,nan,nan
1,250,1,1,1.0,1.0,0.2981257592327893,0,0.0,0.0,0.0,0.40966190881205394,0.14246706094732509,0.26719484786472886,0.552128969759379,0.14246706094732509,0.3203850944216053,6,0,5,1,2,8,nan,nan,nan,nan,nan,nan,nan,nan,nan,nan,nan,nan,0.0,nan,nan,nan,nan,nan,nan,nan,nan,nan,nan,nan,nan,nan,nan,nan,nan,nan,nan,743.4515123844612,1295.6974803621415,nan,1295.9956061213743,nan,nan,nan,nan
1,251,1,1,1.0,1.0,0.28897507628425956,0,0.0,0.0,0.0,0.4091952303619315,0.1423508801122668,0.2668443502496647,0.5515461104741983,0.1423508801122668,0.2846826910972595,7,3,4,5,0,2,nan,nan,nan,nan,nan,nan,nan,nan,nan,nan,nan,nan,0.0,nan,nan,nan,nan,nan,nan,nan,nan,nan,nan,nan,nan,nan,nan,nan,nan,nan,nan,743.4515123844612,1296.722588077886,nan,1297.0115631541703,nan,nan,nan,nan
1,252,0,0,1.0,0.0,0.22383807552978396,0,0.0,0.0,0.0,0.4086943130532745,0.1422649293354738,0.2664293837178007,0.5509592423887484,0.1422649293354738,0.27031297034894425,8,1,6,3,4,0,nan,nan,nan,nan,nan,nan,nan,nan,nan,nan,nan,nan,0.0,nan,nan,nan,nan,nan,nan,nan,nan,nan,nan,nan,nan,nan,nan,nan,nan,nan,nan,743.4515123844612,1297.7476858154405,nan,1297.9715238909703,nan,nan,nan,nan
1,253,1,1,1.0,1.0,0.28663901053369045,0,0.0,0.0,0.0,0.40792727472330154,0.1424659013618019,0.26546137336149966,0.5503931760851034,0.1424659013618019,0.2664840541159113,4,6,1,5,2,8,nan,nan,nan,nan,nan,nan,nan,nan,nan,nan,nan,nan,0.0,nan,nan,nan,nan,nan,nan,nan,nan,nan,nan,nan,nan,nan,nan,nan,nan,nan,nan,743.4515123844612,1298.7728474142496,nan,1299.0594864247832,nan,nan,nan,nan
1,254,1,1,1.0,1.0,0.26953703770413995,1,1.0,0.0,1.0,0.4074260835489643,0.14238398960036036,0.26504209394860395,0.5498100731493247,0.14238398960036036,0.2600047079225381,3,4,5,2,7,1,1.0,1.0,1.0,1.0,1.0,1.0,0.0,0.0,1.0,1.0,1.0,1.0,4.0,0.0,8.0,5.0,2.0,7.0,1.0,5.0,6.0,1.0,2.0,3.0,4.0,5.354459037305787,6.425724717788398,1.4275772629771382,2.162784485379234,3.291116137057543,4.2258710854221135,743.4515123844612,1299.7979346034117,1300.6063353165518,1300.0674716411158,1308.082198205404,1309.0915333447047,1301.6147997765802,1308.0738620376214
1,255,1,1,1.0,1.0,0.5754746752791107,0,0.0,0.0,0.0,0.40685863891585805,0.14236465183293665,0.2644939870829214,0.5492232907487947,0.14236465183293665,0.3772169078389804,6,2,0,8,1,4,nan,nan,nan,nan,nan,nan,nan,nan,nan,nan,nan,nan,0.0,nan,nan,nan,nan,nan,nan,nan,nan,nan,nan,nan,nan,nan,nan,nan,nan,nan,nan,743.4515123844612,1309.315708116861,nan,1309.8911827921402,nan,nan,nan,nan
1,256,0,0,0.0,1.0,0.5263503009919077,0,0.0,0.0,0.0,0.40754968824521565,0.142480434520457,0.26506925372475865,0.5500301227656726,0.142480434520457,0.4571206713250528,4,3,2,1,7,6,nan,nan,nan,nan,nan,nan,nan,nan,nan,nan,nan,nan,0.0,nan,nan,nan,nan,nan,nan,nan,nan,nan,nan,nan,nan,nan,nan,nan,nan,nan,nan,743.4515123844612,1310.340823245002,nan,1310.8671735459939,nan,nan,nan,nan
1,257,1,1,1.0,1.0,0.3571717129088938,0,0.0,0.0,0.0,0.4080345887054062,0.14239096063196421,0.265643628073442,0.5504255493373704,0.14239096063196421,0.4863322297266374,3,8,5,2,1,0,nan,nan,nan,nan,nan,nan,nan,nan,nan,nan,nan,nan,0.0,nan,nan,nan,nan,nan,nan,nan,nan,nan,nan,nan,nan,nan,nan,nan,nan,nan,nan,743.4515123844612,1311.3659777163994,nan,1311.7231494293083,nan,nan,nan,nan
1,258,1,1,1.0,1.0,0.2844004472717643,0,0.0,0.0,0.0,0.4078278290476968,0.14213810135563754,0.2656897276920593,0.5499659304033344,0.14213810135563754,0.38930748705752194,2,0,1,5,4,3,nan,nan,nan,nan,nan,nan,nan,nan,nan,nan,nan,nan,0.0,nan,nan,nan,nan,nan,nan,nan,nan,nan,nan,nan,nan,nan,nan,nan,nan,nan,nan,743.4515123844612,1312.3827658002265,nan,1312.6671662474982,nan,nan,nan,nan
1,259,1,1,1.0,1.0,0.18710391456261277,0,0.0,0.0,0.0,0.40732812304860394,0.1420664388963051,0.26526168415229884,0.549394561944909,0.1420664388963051,0.27622535824775696,5,4,0,2,6,7,nan,nan,nan,nan,nan,nan,nan,nan,nan,nan,nan,nan,0.0,nan,nan,nan,nan,nan,nan,nan,nan,nan,nan,nan,nan,nan,nan,nan,nan,nan,nan,743.4515123844612,1313.407995251473,nan,1313.5950991660357,nan,nan,nan,nan
1,260,1,1,1.0,1.0,0.2820415743626654,1,1.0,0.0,1.0,0.40644012220793463,0.14246494742494323,0.2639751747829914,0.5489050696328779,0.14246494742494323,0.2511819787323475,1,7,5,6,0,8,1.0,1.0,1.0,1.0,1.0,1.0,1.0,1.0,0.0,1.0,1.0,0.0,4.0,1.0,7.0,2.0,6.0,0.0,4.0,5.0,1.0,2.0,3.0,4.0,6.0,6.006177430972457,1.7603172189556062,2.5414289571344852,3.8466866442468017,4.966902506304905,7.261557238176465,743.4515123844612,1314.4330157283694,1315.2414101695176,1314.715057302732,1323.5673491929192,1324.5663017551415,1316.2665295742918,1323.5590181569569
1,261,1,1,1.0,1.0,0.3145523429848254,0,0.0,0.0,0.0,0.40594052964630706,0.1423960994968207,0.26354443014948636,0.5483366291431278,0.1423960994968207,0.26123261063670117,6,1,2,3,8,0,nan,nan,nan,nan,nan,nan,nan,nan,nan,nan,nan,nan,0.0,nan,nan,nan,nan,nan,nan,nan,nan,nan,nan,nan,nan,nan,nan,nan,nan,nan,nan,743.4515123844612,1324.784184488235,nan,1325.0987368312199,nan,nan,nan,nan
1,262,1,1,1.0,1.0,0.3618233173619956,0,0.0,0.0,0.0,0.4055749768996611,0.1422280426960005,0.2633469342036606,0.5478030195956616,0.1422280426960005,0.3194724115698288,1,5,7,0,4,8,nan,nan,nan,nan,nan,nan,nan,nan,nan,nan,nan,nan,0.0,nan,nan,nan,nan,nan,nan,nan,nan,nan,nan,nan,nan,nan,nan,nan,nan,nan,nan,743.4515123844612,1325.8009434922133,nan,1326.1627668095753,nan,nan,nan,nan
1,263,1,1,1.0,1.0,0.4245889005251229,0,0.0,0.0,0.0,0.40540066749911263,0.14197119136631373,0.2634294761327989,0.5473718588654264,0.14197119136631373,0.3669881869573146,7,8,2,3,5,1,nan,nan,nan,nan,nan,nan,nan,nan,nan,nan,nan,nan,0.0,nan,nan,nan,nan,nan,nan,nan,nan,nan,nan,nan,nan,nan,nan,nan,nan,nan,nan,743.4515123844612,1326.8260982488282,nan,1327.2506871493533,nan,nan,nan,nan
1,264,1,1,1.0,1.0,0.375455403001979,0,0.0,0.0,0.0,0.4054768112809619,0.1416943578103524,0.2637824534706095,0.5471711690913144,0.1416943578103524,0.3872892069630325,3,6,5,8,0,2,nan,nan,nan,nan,nan,nan,nan,nan,nan,nan,nan,nan,0.0,nan,nan,nan,nan,nan,nan,nan,nan,nan,nan,nan,nan,nan,nan,nan,nan,nan,nan,743.4515123844612,1327.8512210748158,nan,1328.2266764778178,nan,nan,nan,nan
1,265,1,1,1.0,1.0,0.470272182719782,0,0.0,0.0,0.0,0.4053581495881596,0.14142659744282587,0.2639315521453337,0.5467847470309855,0.14142659744282587,0.42343882874896127,2,5,7,6,8,4,nan,nan,nan,nan,nan,nan,nan,nan,nan,nan,nan,nan,0.0,nan,nan,nan,nan,nan,nan,nan,nan,nan,nan,nan,nan,nan,nan,nan,nan,nan,nan,743.4515123844612,1328.8763661379926,nan,1329.3466383207124,nan,nan,nan,nan
1,266,1,1,1.0,1.0,0.5254377129022032,0,0.0,0.0,0.0,0.40561371664773294,0.14120644831009635,0.2644072683376366,0.5468201649578293,0.14120644831009635,0.4570550995413214,4,1,0,2,6,5,nan,nan,nan,nan,nan,nan,nan,nan,nan,nan,nan,nan,0.0,nan,nan,nan,nan,nan,nan,nan,nan,nan,nan,nan,nan,nan,nan,nan,nan,nan,nan,743.4515123844612,1329.893135690596,nan,1330.4185734034982,nan,nan,nan,nan
1,267,1,1,1.0,1.0,0.5086339490953833,0,0.0,0.0,0.0,0.40608361467226023,0.14112814077554953,0.2649554738967107,0.5472117554478098,0.14112814077554953,0.5014479482391229,5,3,1,6,7,4,nan,nan,nan,nan,nan,nan,nan,nan,nan,nan,nan,nan,0.0,nan,nan,nan,nan,nan,nan,nan,nan,nan,nan,nan,nan,nan,nan,nan,nan,nan,nan,743.4515123844612,1330.9099203532096,nan,1331.418554302305,nan,nan,nan,nan
1,268,1,1,1.0,1.0,0.3554939308669418,0,0.0,0.0,0.0,0.4064842019161006,0.14099741355422427,0.26548678836187634,0.5474816154703248,0.14099741355422427,0.46318853095484275,0,6,4,7,1,8,nan,nan,nan,nan,nan,nan,nan,nan,nan,nan,nan,nan,0.0,nan,nan,nan,nan,nan,nan,nan,nan,nan,nan,nan,nan,nan,nan,nan,nan,nan,nan,743.4515123844612,1331.9350292093586,nan,1332.2905231402256,nan,nan,nan,nan
1,269,1,1,1.0,1.0,0.49068667041137815,0,0.0,0.0,0.0,0.40628579619217386,0.14075863343737113,0.2655271627548027,0.547044429629545,0.14075863343737113,0.45160485012456775,8,4,5,0,7,6,nan,nan,nan,nan,nan,nan,nan,nan,nan,nan,nan,nan,0.0,nan,nan,nan,nan,nan,nan,nan,nan,nan,nan,nan,nan,nan,nan,nan,nan,nan,nan,743.4515123844612,1332.9518050341867,nan,1333.442491704598,nan,nan,nan,nan
1,270,1,1,1.0,1.0,0.3295523130800575,0,0.0,0.0,0.0,0.40661293136356613,0.1405834336545916,0.26602949770897455,0.5471963650181577,0.1405834336545916,0.39191097145279247,5,6,8,4,2,1,nan,nan,nan,nan,nan,nan,nan,nan,nan,nan,nan,nan,0.0,nan,nan,nan,nan,nan,nan,nan,nan,nan,nan,nan,nan,nan,nan,nan,nan,nan,nan,743.4515123844612,1333.9769307109527,nan,1334.3064830240328,nan,nan,nan,nan
1,271,1,1,1.0,1.0,0.2884262688457966,0,0.0,0.0,0.0,0.4063154000188422,0.14039313912570495,0.26592226089313725,0.5467085391445472,0.14039313912570495,0.3695550841124107,6,0,5,3,8,7,nan,nan,nan,nan,nan,nan,nan,nan,nan,nan,nan,nan,0.0,nan,nan,nan,nan,nan,nan,nan,nan,nan,nan,nan,nan,nan,nan,nan,nan,nan,nan,743.4515123844612,1335.0020452691242,nan,1335.29047153797,nan,nan,nan,nan
1,272,1,1,1.0,1.0,0.3352590526919812,0,0.0,0.0,0.0,0.40586198028356124,0.1403127670325312,0.26554921325103004,0.5461747473160925,0.1403127670325312,0.3177458782059451,7,8,1,2,0,3,nan,nan,nan,nan,nan,nan,nan,nan,nan,nan,nan,nan,0.0,nan,nan,nan,nan,nan,nan,nan,nan,nan,nan,nan,nan,nan,nan,nan,nan,nan,nan,743.4515123844612,1336.0272080083378,nan,1336.3624670610297,nan,nan,nan,nan
1,273,1,1,1.0,1.0,0.33407619479112327,0,0.0,0.0,0.0,0.4055914709824441,0.14011162146619735,0.2654798495162467,0.5457030924486415,0.14011162146619735,0.31925383877630037,6,0,8,5,3,1,nan,nan,nan,nan,nan,nan,nan,nan,nan,nan,nan,nan,0.0,nan,nan,nan,nan,nan,nan,nan,nan,nan,nan,nan,nan,nan,nan,nan,nan,nan,nan,743.4515123844612,1337.0523328299168,nan,1337.386409024708,nan,nan,nan,nan
