block,trial,freq_trials,correct_response,actual_response,acc,rts,probe_trials,trials_colorind0,trials_colorind1,trials_colorind2,trials_colorind3,trials_colorind4,trials_colorind5,wholereport_resp0,wholereport_resp1,wholereport_resp2,wholereport_resp3,wholereport_resp4,wholereport_resp5,wholereport_respacc0,wholereport_respacc1,wholereport_respacc2,wholereport_respacc3,wholereport_respacc4,wholereport_respacc5,wholereport_respacc_total,wholereport_respcolorind0,wholereport_respcolorind1,wholereport_respcolorind2,wholereport_respcolorind3,wholereport_respcolorind4,wholereport_respcolorind5,wholereport_resporder0,wholereport_resporder1,wholereport_resporder2,wholereport_resporder3,wholereport_resporder4,wholereport_resporder5,wholereport_rts0,wholereport_rts1,wholereport_rts2,wholereport_rts3,wholereport_rts4,wholereport_rts5,time_blockstart,time_encarray_offset,time_encarray_onset,time_response,time_iti_offset,time_iti_onset,time_memprobe_offset,time_memprobe_onset
1,1,1,1,1.0,1.0,0.42139608826255426,0.0,4,1,7,5,3,8,nan,nan,nan,nan,nan,nan,nan,nan,nan,nan,nan,nan,0.0,nan,nan,nan,nan,nan,nan,nan,nan,nan,nan,nan,nan,nan,nan,nan,nan,nan,nan,331.79385202517733,332.81244175031316,nan,333.2338378385757,nan,nan,nan,nan
1,2,1,1,1.0,1.0,0.44486104033421725,0.0,8,2,5,6,1,0,nan,nan,nan,nan,nan,nan,nan,nan,nan,nan,nan,nan,0.0,nan,nan,nan,nan,nan,nan,nan,nan,nan,nan,nan,nan,nan,nan,nan,nan,nan,nan,331.79385202517733,333.8209990566247,nan,334.26586009695893,nan,nan,nan,nan
1,3,0,0,0.0,1.0,0.6124131832038984,0.0,0,3,1,2,6,8,nan,nan,nan,nan,nan,nan,nan,nan,nan,nan,nan,nan,0.0,nan,nan,nan,nan,nan,nan,nan,nan,nan,nan,nan,nan,nan,nan,nan,nan,nan,nan,331.79385202517733,334.82941552303964,nan,335.44182870624354,nan,nan,nan,nan
1,4,1,1,1.0,1.0,0.6519290360738523,0.0,4,8,0,1,2,7,nan,nan,nan,nan,nan,nan,nan,nan,nan,nan,nan,nan,0.0,nan,nan,nan,nan,nan,nan,nan,nan,nan,nan,nan,nan,nan,nan,nan,nan,nan,nan,331.79385202517733,335.8378964222502,nan,336.48982545832405,nan,nan,nan,nan
1,5,1,1,1.0,1.0,0.6034336423035711,0.0,3,2,1,7,0,8,nan,nan,nan,nan,nan,nan,nan,nan,nan,nan,nan,nan,0.0,nan,nan,nan,nan,nan,nan,nan,nan,nan,nan,nan,nan,nan,nan,nan,nan,nan,nan,331.79385202517733,336.84637247479986,nan,337.44980611710344,nan,nan,nan,nan
1,6,1,1,1.0,1.0,0.5789699814631604,0.0,0,8,6,5,4,3,nan,nan,nan,nan,nan,nan,nan,nan,nan,nan,nan,nan,0.0,nan,nan,nan,nan,nan,nan,nan,nan,nan,nan,nan,nan,nan,nan,nan,nan,nan,nan,331.79385202517733,337.854840829561,nan,338.43381081102416,nan,nan,nan,nan
1,7,1,1,1.0,1.0,0.5624632042017765,0.0,3,6,8,0,7,1,nan,nan,nan,nan,nan,nan,nan,nan,nan,nan,nan,nan,0.0,nan,nan,nan,nan,nan,nan,nan,nan,nan,nan,nan,nan,nan,nan,nan,nan,nan,nan,331.79385202517733,338.8633337030187,nan,339.4257969072205,nan,nan,nan,nan
1,8,1,1,1.0,1.0,0.5219811439746991,0.0,8,7,6,4,3,5,nan,nan,nan,nan,nan,nan,nan,nan,nan,nan,nan,nan,0.0,nan,nan,nan,nan,nan,nan,nan,nan,nan,nan,nan,nan,nan,nan,nan,nan,nan,nan,331.79385202517733,339.87181032577064,nan,340.39379146974534,nan,nan,nan,nan
1,9,0,0,0.0,1.0,0.6175002402160317,0.0,7,4,8,2,1,6,nan,nan,nan,nan,nan,nan,nan,nan,nan,nan,nan,nan,0.0,nan,nan,nan,nan,nan,nan,nan,nan,nan,nan,nan,nan,nan,nan,nan,nan,nan,nan,331.79385202517733,340.8802849527565,nan,341.4977851929725,nan,nan,nan,nan
1,10,1,1,1.0,1.0,0.5610160315409303,0.0,6,8,7,5,2,1,nan,nan,nan,nan,nan,nan,nan,nan,nan,nan,nan,nan,0.0,nan,nan,nan,nan,nan,nan,nan,nan,nan,nan,nan,nan,nan,nan,nan,nan,nan,nan,331.79385202517733,341.8887692731805,nan,342.44978530472144,nan,nan,nan,nan
1,11,1,1,1.0,1.0,0.7205180627061054,0.0,5,7,8,1,3,4,nan,nan,nan,nan,nan,nan,nan,nan,nan,nan,nan,nan,0.0,nan,nan,nan,nan,nan,nan,nan,nan,nan,nan,nan,nan,nan,nan,nan,nan,nan,nan,331.79385202517733,342.89726442750543,nan,343.61778249021154,nan,nan,nan,nan
1,12,1,1,1.0,1.0,0.5440528075559996,0.0,8,3,2,6,4,5,nan,nan,nan,nan,nan,nan,nan,nan,nan,nan,nan,nan,0.0,nan,nan,nan,nan,nan,nan,nan,nan,nan,nan,nan,nan,nan,nan,nan,nan,nan,nan,331.79385202517733,343.9057236590306,nan,344.4497764665866,nan,nan,nan,nan
1,13,1,1,1.0,1.0,0.5755638798582368,0.0,7,2,4,3,5,6,nan,nan,nan,nan,nan,nan,nan,nan,nan,nan,nan,nan,0.0,nan,nan,nan,nan,nan,nan,nan,nan,nan,nan,nan,nan,nan,nan,nan,nan,nan,nan,331.79385202517733,344.91420398809714,nan,345.4897678679554,nan,nan,nan,nan
1,14,1,1,1.0,1.0,0.5030832246993668,0.0,1,3,8,2,7,5,nan,nan,nan,nan,nan,nan,nan,nan,nan,nan,nan,nan,0.0,nan,nan,nan,nan,nan,nan,nan,nan,nan,nan,nan,nan,nan,nan,nan,nan,nan,nan,331.79385202517733,345.9226774746785,nan,346.42576069937786,nan,nan,nan,nan
1,15,1,1,1.0,1.0,0.4065953553072177,0.0,3,0,1,4,2,6,nan,nan,nan,nan,nan,nan,nan,nan,nan,nan,nan,nan,0.0,nan,nan,nan,nan,nan,nan,nan,nan,nan,nan,nan,nan,nan,nan,nan,nan,nan,nan,331.79385202517733,346.9311566632823,nan,347.3377520185895,nan,nan,nan,nan
1,16,1,1,1.0,1.0,0.398067414353136,0.0,4,5,0,7,1,8,nan,nan,nan,nan,nan,nan,nan,nan,nan,nan,nan,nan,0.0,nan,nan,nan,nan,nan,nan,nan,nan,nan,nan,nan,nan,nan,nan,nan,nan,nan,nan,331.79385202517733,347.9396714895847,nan,348.33773890393786,nan,nan,nan,nan
1,17,1,1,1.0,1.0,0.3656197853269987,0.0,7,6,1,3,4,0,nan,nan,nan,nan,nan,nan,nan,nan,nan,nan,nan,nan,0.0,nan,nan,nan,nan,nan,nan,nan,nan,nan,nan,nan,nan,nan,nan,nan,nan,nan,nan,331.79385202517733,348.94812501908746,nan,349.31374480441445,nan,nan,nan,nan
1,18,1,1,1.0,1.0,0.38913405989296734,0.0,0,8,7,2,3,5,nan,nan,nan,nan,nan,nan,nan,nan,nan,nan,nan,nan,0.0,nan,nan,nan,nan,nan,nan,nan,nan,nan,nan,nan,nan,nan,nan,nan,nan,nan,nan,331.79385202517733,349.95659137819894,nan,350.3457254380919,nan,nan,nan,nan
1,19,1,1,1.0,1.0,0.37298907578224316,0.0,5,3,2,6,1,8,nan,nan,nan,nan,nan,nan,nan,nan,nan,nan,nan,nan,0.0,nan,nan,nan,nan,nan,nan,nan,nan,nan,nan,nan,nan,nan,nan,nan,nan,nan,nan,331.79385202517733,350.9567484688014,nan,351.3297375445836,nan,nan,nan,nan
1,20,1,1,1.0,1.0,0.3485065982094966,0.0,0,7,6,3,4,1,nan,nan,nan,nan,nan,nan,nan,nan,nan,nan,nan,nan,0.0,nan,nan,nan,nan,nan,nan,nan,nan,nan,nan,nan,nan,nan,nan,nan,nan,nan,nan,331.79385202517733,351.96520598977804,nan,352.31371258798754,nan,nan,nan,nan
1,21,1,1,1.0,1.0,0.4600067454739474,0.0,5,3,8,2,6,0,nan,nan,nan,nan,nan,nan,nan,nan,nan,nan,nan,nan,0.0,nan,nan,nan,nan,nan,nan,nan,nan,nan,nan,nan,nan,nan,nan,nan,nan,nan,nan,331.79385202517733,352.97369857813464,nan,353.4337053236086,nan,nan,nan,nan
1,22,1,1,1.0,1.0,0.3235748014994897,0.0,2,4,1,8,5,6,nan,nan,nan,nan,nan,nan,nan,nan,nan,nan,nan,nan,0.0,nan,nan,nan,nan,nan,nan,nan,nan,nan,nan,nan,nan,nan,nan,nan,nan,nan,nan,331.79385202517733,353.982146120572,nan,354.3057209220715,nan,nan,nan,nan
1,23,1,1,1.0,1.0,0.3310182181885466,0.0,6,8,3,1,7,0,nan,nan,nan,nan,nan,nan,nan,nan,nan,nan,nan,nan,0.0,nan,nan,nan,nan,nan,nan,nan,nan,nan,nan,nan,nan,nan,nan,nan,nan,nan,nan,331.79385202517733,354.99069002713077,nan,355.3217082453193,nan,nan,nan,nan
1,24,1,1,1.0,1.0,0.34655907336855307,0.0,2,7,4,6,0,5,nan,nan,nan,nan,nan,nan,nan,nan,nan,nan,nan,nan,0.0,nan,nan,nan,nan,nan,nan,nan,nan,nan,nan,nan,nan,nan,nan,nan,nan,nan,nan,331.79385202517733,355.99913072708296,nan,356.3456898004515,nan,nan,nan,nan
1,25,1,1,1.0,1.0,0.38606808381155133,0.0,3,4,8,0,6,7,nan,nan,nan,nan,nan,nan,nan,nan,nan,nan,nan,nan,0.0,nan,nan,nan,nan,nan,nan,nan,nan,nan,nan,nan,nan,nan,nan,nan,nan,nan,nan,331.79385202517733,357.00761561776744,nan,357.393683701579,nan,nan,nan,nan
1,26,1,1,1.0,1.0,0.31359027966391295,0.0,7,5,4,8,2,3,nan,nan,nan,nan,nan,nan,nan,nan,nan,nan,nan,nan,0.0,nan,nan,nan,nan,nan,nan,nan,nan,nan,nan,nan,nan,nan,nan,nan,nan,nan,nan,331.79385202517733,358.01609452127013,nan,358.32968480093405,nan,nan,nan,nan
1,27,1,1,1.0,1.0,0.305108810251113,0.0,4,0,2,5,6,7,nan,nan,nan,nan,nan,nan,nan,nan,nan,nan,nan,nan,0.0,nan,nan,nan,nan,nan,nan,nan,nan,nan,nan,nan,nan,nan,nan,nan,nan,nan,nan,331.79385202517733,359.0245631611324,nan,359.3296719713835,nan,nan,nan,nan
1,28,0,0,nan,nan,nan,0.0,2,6,1,0,8,4,nan,nan,nan,nan,nan,nan,nan,nan,nan,nan,nan,nan,0.0,nan,nan,nan,nan,nan,nan,nan,nan,nan,nan,nan,nan,nan,nan,nan,nan,nan,nan,331.79385202517733,360.0330531836371,nan,nan,nan,nan,nan,nan
1,29,1,1,0.0,0.0,0.048152702394872904,0.0,4,3,7,1,0,5,nan,nan,nan,nan,nan,nan,nan,nan,nan,nan,nan,nan,0.0,nan,nan,nan,nan,nan,nan,nan,nan,nan,nan,nan,nan,nan,nan,nan,nan,nan,nan,331.79385202517733,361.0415223937016,nan,361.08967509609647,nan,nan,nan,nan
1,30,1,1,1.0,1.0,0.007637855538632721,0.0,1,0,3,7,6,4,nan,nan,nan,nan,nan,nan,nan,nan,nan,nan,nan,nan,0.0,nan,nan,nan,nan,nan,nan,nan,nan,nan,nan,nan,nan,nan,nan,nan,nan,nan,nan,331.79385202517733,362.0500050035771,nan,362.05764285911573,nan,nan,nan,nan
1,31,1,1,1.0,1.0,0.6551392732653767,0.0,7,8,5,1,2,6,nan,nan,nan,nan,nan,nan,nan,nan,nan,nan,nan,nan,0.0,nan,nan,nan,nan,nan,nan,nan,nan,nan,nan,nan,nan,nan,nan,nan,nan,nan,nan,331.79385202517733,363.0584839070798,nan,363.71362318034517,nan,nan,nan,nan
1,32,1,1,1.0,1.0,0.6226808103383519,0.0,3,7,8,2,1,5,nan,nan,nan,nan,nan,nan,nan,nan,nan,nan,nan,nan,0.0,nan,nan,nan,nan,nan,nan,nan,nan,nan,nan,nan,nan,nan,nan,nan,nan,nan,nan,331.79385202517733,364.06696366588585,nan,364.6896444762242,nan,nan,nan,nan
1,33,1,1,1.0,1.0,0.4861824378021993,0.0,4,2,6,5,3,1,nan,nan,nan,nan,nan,nan,nan,nan,nan,nan,nan,nan,0.0,nan,nan,nan,nan,nan,nan,nan,nan,nan,nan,nan,nan,nan,nan,nan,nan,nan,nan,331.79385202517733,365.0754368674243,nan,365.5616193052265,nan,nan,nan,nan
1,34,1,1,1.0,1.0,0.4617028112988919,0.0,8,7,5,1,2,0,nan,nan,nan,nan,nan,nan,nan,nan,nan,nan,nan,nan,0.0,nan,nan,nan,nan,nan,nan,nan,nan,nan,nan,nan,nan,nan,nan,nan,nan,nan,nan,331.79385202517733,366.0839209027472,nan,366.5456237140461,nan,nan,nan,nan
1,35,1,1,1.0,1.0,0.32520643452880904,0.0,3,2,0,8,4,5,nan,nan,nan,nan,nan,nan,nan,nan,nan,nan,nan,nan,0.0,nan,nan,nan,nan,nan,nan,nan,nan,nan,nan,nan,nan,nan,nan,nan,nan,nan,nan,331.79385202517733,367.0923963850364,nan,367.4176028195652,nan,nan,nan,nan
1,36,1,1,1.0,1.0,0.33272283704718575,0.0,6,1,3,0,5,4,nan,nan,nan,nan,nan,nan,nan,nan,nan,nan,nan,nan,0.0,nan,nan,nan,nan,nan,nan,nan,nan,nan,nan,nan,nan,nan,nan,nan,nan,nan,nan,331.79385202517733,368.10088327142876,nan,368.43360610847594,nan,nan,nan,nan
1,37,1,1,1.0,1.0,0.38024432584643364,0.0,7,5,2,1,4,8,nan,nan,nan,nan,nan,nan,nan,nan,nan,nan,nan,nan,0.0,nan,nan,nan,nan,nan,nan,nan,nan,nan,nan,nan,nan,nan,nan,nan,nan,nan,nan,331.79385202517733,369.10936103452696,nan,369.4896053603734,nan,nan,nan,nan
1,38,1,1,1.0,1.0,0.3320705259684473,0.0,3,8,6,2,5,0,nan,nan,nan,nan,nan,nan,nan,nan,nan,nan,nan,nan,0.0,nan,nan,nan,nan,nan,nan,nan,nan,nan,nan,nan,nan,nan,nan,nan,nan,nan,nan,331.79385202517733,370.1095229719067,nan,370.44159349787515,nan,nan,nan,nan
1,39,1,1,1.0,1.0,0.43591086484957486,0.0,8,1,3,5,0,2,nan,nan,nan,nan,nan,nan,nan,nan,nan,nan,nan,nan,0.0,nan,nan,nan,nan,nan,nan,nan,nan,nan,nan,nan,nan,nan,nan,nan,nan,nan,nan,331.79385202517733,371.1096743605449,nan,371.54558522539446,nan,nan,nan,nan
1,40,1,1,1.0,1.0,0.40346152521669865,0.0,1,6,7,4,3,8,nan,nan,nan,nan,nan,nan,nan,nan,nan,nan,nan,nan,0.0,nan,nan,nan,nan,nan,nan,nan,nan,nan,nan,nan,nan,nan,nan,nan,nan,nan,nan,331.79385202517733,372.11812218802515,nan,372.52158371324185,nan,nan,nan,nan
1,41,1,1,1.0,1.0,0.4193137105903588,0.0,7,0,4,3,6,2,nan,nan,nan,nan,nan,nan,nan,nan,nan,nan,nan,nan,0.0,nan,nan,nan,nan,nan,nan,nan,nan,nan,nan,nan,nan,nan,nan,nan,nan,nan,nan,331.79385202517733,373.11828868702287,nan,373.5376023976132,nan,nan,nan,nan
1,42,1,1,1.0,1.0,0.41112817596876994,0.0,5,1,2,6,8,4,nan,nan,nan,nan,nan,nan,nan,nan,nan,nan,nan,nan,0.0,nan,nan,nan,nan,nan,nan,nan,nan,nan,nan,nan,nan,nan,nan,nan,nan,nan,nan,331.79385202517733,374.11843123752624,nan,374.529559413495,nan,nan,nan,nan
1,43,1,1,1.0,1.0,0.4026481320615858,0.0,6,3,1,7,4,0,nan,nan,nan,nan,nan,nan,nan,nan,nan,nan,nan,nan,0.0,nan,nan,nan,nan,nan,nan,nan,nan,nan,nan,nan,nan,nan,nan,nan,nan,nan,nan,331.79385202517733,375.1268984518829,nan,375.52954658394447,nan,nan,nan,nan
1,44,1,1,1.0,1.0,0.34619585465407,0.0,7,6,3,2,5,4,nan,nan,nan,nan,nan,nan,nan,nan,nan,nan,nan,nan,0.0,nan,nan,nan,nan,nan,nan,nan,nan,nan,nan,nan,nan,nan,nan,nan,nan,nan,nan,331.79385202517733,376.13537678524153,nan,376.4815726398956,nan,nan,nan,nan
1,45,1,1,1.0,1.0,0.2897096503293142,0.0,4,8,0,3,2,1,nan,nan,nan,nan,nan,nan,nan,nan,nan,nan,nan,nan,0.0,nan,nan,nan,nan,nan,nan,nan,nan,nan,nan,nan,nan,nan,nan,nan,nan,nan,nan,331.79385202517733,377.1438502718229,nan,377.4335599221522,nan,nan,nan,nan
1,46,1,1,1.0,1.0,0.30520232336129993,0.0,3,0,6,8,7,4,nan,nan,nan,nan,nan,nan,nan,nan,nan,nan,nan,nan,0.0,nan,nan,nan,nan,nan,nan,nan,nan,nan,nan,nan,nan,nan,nan,nan,nan,nan,nan,331.79385202517733,378.1523320263368,nan,378.4575343496981,nan,nan,nan,nan
1,47,1,1,1.0,1.0,0.344723878253717,0.0,7,8,4,3,1,2,nan,nan,nan,nan,nan,nan,nan,nan,nan,nan,nan,nan,0.0,nan,nan,nan,nan,nan,nan,nan,nan,nan,nan,nan,nan,nan,nan,nan,nan,nan,nan,331.79385202517733,379.1608143511112,nan,379.5055382293649,nan,nan,nan,nan
1,48,1,1,1.0,1.0,0.3042714686016552,0.0,1,4,3,5,8,0,nan,nan,nan,nan,nan,nan,nan,nan,nan,nan,nan,nan,0.0,nan,nan,nan,nan,nan,nan,nan,nan,nan,nan,nan,nan,nan,nan,nan,nan,nan,nan,331.79385202517733,380.1692604679847,nan,380.47353193658637,nan,nan,nan,nan
1,49,1,1,1.0,1.0,0.31975359289208427,0.0,0,5,8,1,7,3,nan,nan,nan,nan,nan,nan,nan,nan,nan,nan,nan,nan,0.0,nan,nan,nan,nan,nan,nan,nan,nan,nan,nan,nan,nan,nan,nan,nan,nan,nan,nan,331.79385202517733,381.1777690220624,nan,381.4975226149545,nan,nan,nan,nan
1,50,0,0,0.0,1.0,0.511253934004344,0.0,5,6,3,4,2,1,nan,nan,nan,nan,nan,nan,nan,nan,nan,nan,nan,nan,0.0,nan,nan,nan,nan,nan,nan,nan,nan,nan,nan,nan,nan,nan,nan,nan,nan,nan,nan,331.79385202517733,382.1862576190033,nan,382.69751155300764,nan,nan,nan,nan
1,51,1,1,1.0,1.0,0.4227674240246415,0.0,4,1,0,3,7,5,nan,nan,nan,nan,nan,nan,nan,nan,nan,nan,nan,nan,0.0,nan,nan,nan,nan,nan,nan,nan,nan,nan,nan,nan,nan,nan,nan,nan,nan,nan,nan,331.79385202517733,383.19473253109027,nan,383.6174999551149,nan,nan,nan,nan
1,52,1,1,1.0,1.0,0.3662880620104261,0.0,3,7,2,0,1,4,nan,nan,nan,nan,nan,nan,nan,nan,nan,nan,nan,nan,0.0,nan,nan,nan,nan,nan,nan,nan,nan,nan,nan,nan,nan,nan,nan,nan,nan,nan,nan,331.79385202517733,384.20320886874106,nan,384.5694969307515,nan,nan,nan,nan
1,53,1,1,1.0,1.0,0.4138044189894572,0.0,8,5,1,3,2,0,nan,nan,nan,nan,nan,nan,nan,nan,nan,nan,nan,nan,0.0,nan,nan,nan,nan,nan,nan,nan,nan,nan,nan,nan,nan,nan,nan,nan,nan,nan,nan,331.79385202517733,385.2116909083561,nan,385.62549532734556,nan,nan,nan,nan
1,54,1,1,1.0,1.0,0.43726623500697315,0.0,7,4,2,0,6,1,nan,nan,nan,nan,nan,nan,nan,nan,nan,nan,nan,nan,0.0,nan,nan,nan,nan,nan,nan,nan,nan,nan,nan,nan,nan,nan,nan,nan,nan,nan,nan,331.79385202517733,386.2202279724879,nan,386.6574942074949,nan,nan,nan,nan
1,55,1,1,1.0,1.0,0.45284358301432803,0.0,4,2,7,5,8,6,nan,nan,nan,nan,nan,nan,nan,nan,nan,nan,nan,nan,0.0,nan,nan,nan,nan,nan,nan,nan,nan,nan,nan,nan,nan,nan,nan,nan,nan,nan,nan,331.79385202517733,387.22864301339723,nan,387.68148659641156,nan,nan,nan,nan
1,56,1,1,1.0,1.0,0.4123472678475082,0.0,7,1,2,3,0,8,nan,nan,nan,nan,nan,nan,nan,nan,nan,nan,nan,nan,0.0,nan,nan,nan,nan,nan,nan,nan,nan,nan,nan,nan,nan,nan,nan,nan,nan,nan,nan,331.79385202517733,388.23712590831565,nan,388.64947317616316,nan,nan,nan,nan
1,57,0,0,0.0,1.0,0.6598551287897862,0.0,6,0,1,4,5,7,nan,nan,nan,nan,nan,nan,nan,nan,nan,nan,nan,nan,0.0,nan,nan,nan,nan,nan,nan,nan,nan,nan,nan,nan,nan,nan,nan,nan,nan,nan,nan,331.79385202517733,389.24560994363856,nan,389.90546507242834,nan,nan,nan,nan
1,58,1,1,1.0,1.0,0.44343781616771594,0.0,7,8,0,2,1,6,nan,nan,nan,nan,nan,nan,nan,nan,nan,nan,nan,nan,0.0,nan,nan,nan,nan,nan,nan,nan,nan,nan,nan,nan,nan,nan,nan,nan,nan,nan,nan,331.79385202517733,390.254083145177,nan,390.6975209613447,nan,nan,nan,nan
1,59,1,1,1.0,1.0,0.4749044127529487,0.0,8,1,3,6,2,7,nan,nan,nan,nan,nan,nan,nan,nan,nan,nan,nan,nan,0.0,nan,nan,nan,nan,nan,nan,nan,nan,nan,nan,nan,nan,nan,nan,nan,nan,nan,nan,331.79385202517733,391.26255805726396,nan,391.7374624700169,nan,nan,nan,nan
1,60,0,0,1.0,0.0,0.5543834419804625,1.0,3,0,1,7,4,8,1.0,1.0,1.0,1.0,1.0,1.0,1.0,1.0,0.0,0.0,1.0,0.0,3.0,3.0,0.0,3.0,2.0,4.0,7.0,1.0,2.0,6.0,5.0,4.0,3.0,5.3482012550812215,6.2509758294327185,12.138116320653353,10.714985107711982,9.5630291296402,7.244254573481157,331.79385202517733,392.2710500754765,393.0794616381172,392.825433517457,406.27303295285674,407.27733598212944,394.09628430730663,406.2647003061138
1,61,1,1,nan,nan,nan,0.0,6,7,4,0,5,2,nan,nan,nan,nan,nan,nan,nan,nan,nan,nan,nan,nan,0.0,nan,nan,nan,nan,nan,nan,nan,nan,nan,nan,nan,nan,nan,nan,nan,nan,nan,nan,331.79385202517733,407.4815703590866,nan,nan,nan,nan,nan,nan
1,62,1,1,nan,nan,nan,0.0,4,5,8,7,1,6,nan,nan,nan,nan,nan,nan,nan,nan,nan,nan,nan,nan,0.0,nan,nan,nan,nan,nan,nan,nan,nan,nan,nan,nan,nan,nan,nan,nan,nan,nan,nan,331.79385202517733,408.490048122243,nan,nan,nan,nan,nan,nan
1,63,1,1,1.0,1.0,0.054499905731063336,0.0,0,4,5,6,3,8,nan,nan,nan,nan,nan,nan,nan,nan,nan,nan,nan,nan,0.0,nan,nan,nan,nan,nan,nan,nan,nan,nan,nan,nan,nan,nan,nan,nan,nan,nan,nan,331.79385202517733,409.5068591022864,nan,409.56135900801746,nan,nan,nan,nan
1,64,1,1,1.0,1.0,0.2619724597898312,0.0,8,0,2,1,7,4,nan,nan,nan,nan,nan,nan,nan,nan,nan,nan,nan,nan,0.0,nan,nan,nan,nan,nan,nan,nan,nan,nan,nan,nan,nan,nan,nan,nan,nan,nan,nan,331.79385202517733,410.51534256740706,nan,410.7773150271969,nan,nan,nan,nan
1,65,1,1,1.0,1.0,0.3815078934421763,0.0,1,7,4,8,5,2,nan,nan,nan,nan,nan,nan,nan,nan,nan,nan,nan,nan,0.0,nan,nan,nan,nan,nan,nan,nan,nan,nan,nan,nan,nan,nan,nan,nan,nan,nan,nan,331.79385202517733,411.52381405828055,nan,411.9053219517227,nan,nan,nan,nan
1,66,1,1,1.0,1.0,0.4290208291495219,0.0,0,8,2,3,4,7,nan,nan,nan,nan,nan,nan,nan,nan,nan,nan,nan,nan,0.0,nan,nan,nan,nan,nan,nan,nan,nan,nan,nan,nan,nan,nan,nan,nan,nan,nan,nan,331.79385202517733,412.5322946724482,nan,412.9613155015977,nan,nan,nan,nan
1,67,1,1,1.0,1.0,0.476529773499351,0.0,1,7,6,4,5,8,nan,nan,nan,nan,nan,nan,nan,nan,nan,nan,nan,nan,0.0,nan,nan,nan,nan,nan,nan,nan,nan,nan,nan,nan,nan,nan,nan,nan,nan,nan,nan,331.79385202517733,413.540771580243,nan,414.01730135374237,nan,nan,nan,nan
1,68,1,1,1.0,1.0,0.5640392424538732,0.0,0,3,2,8,1,6,nan,nan,nan,nan,nan,nan,nan,nan,nan,nan,nan,nan,0.0,nan,nan,nan,nan,nan,nan,nan,nan,nan,nan,nan,nan,nan,nan,nan,nan,nan,nan,331.79385202517733,414.54925732617266,nan,415.11329656862654,nan,nan,nan,nan
1,69,0,0,0.0,1.0,0.6355591072351672,1.0,2,8,5,3,6,0,1.0,1.0,1.0,1.0,1.0,1.0,1.0,1.0,1.0,0.0,0.0,0.0,3.0,2.0,8.0,5.0,1.0,4.0,3.0,2.0,1.0,6.0,5.0,4.0,3.0,2.9567433369811624,1.8839279732201248,12.003644445969258,9.267240270855837,8.148625428322703,6.099895111343358,331.79385202517733,415.55774107645266,416.36616746435175,416.1933001836878,429.42637281119823,430.4275950391311,417.3830271966872,429.41804301546654
1,70,1,1,1.0,1.0,0.6702938165399246,0.0,8,3,1,5,2,6,nan,nan,nan,nan,nan,nan,nan,nan,nan,nan,nan,nan,0.0,nan,nan,nan,nan,nan,nan,nan,nan,nan,nan,nan,nan,nan,nan,nan,nan,nan,nan,331.79385202517733,430.6349164896528,nan,431.30521030619275,nan,nan,nan,nan
1,71,1,1,1.0,1.0,0.4537852716166526,0.0,2,6,0,3,8,5,nan,nan,nan,nan,nan,nan,nan,nan,nan,nan,nan,nan,0.0,nan,nan,nan,nan,nan,nan,nan,nan,nan,nan,nan,nan,nan,nan,nan,nan,nan,nan,331.79385202517733,431.6433925422025,nan,432.09717781381914,nan,nan,nan,nan
1,72,1,1,1.0,1.0,0.6693087926250882,0.0,8,7,5,6,0,4,nan,nan,nan,nan,nan,nan,nan,nan,nan,nan,nan,nan,0.0,nan,nan,nan,nan,nan,nan,nan,nan,nan,nan,nan,nan,nan,nan,nan,nan,nan,nan,331.79385202517733,432.65186488837935,nan,433.32117368100444,nan,nan,nan,nan
1,73,1,1,1.0,1.0,0.6884598815813661,0.0,0,8,6,1,5,7,nan,nan,nan,nan,nan,nan,nan,nan,nan,nan,nan,nan,0.0,nan,nan,nan,nan,nan,nan,nan,nan,nan,nan,nan,nan,nan,nan,nan,nan,nan,nan,331.79385202517733,433.6647223729524,nan,434.35318225453375,nan,nan,nan,nan
1,74,1,1,1.0,1.0,0.6279905312112533,0.0,7,3,1,5,8,4,nan,nan,nan,nan,nan,nan,nan,nan,nan,nan,nan,nan,0.0,nan,nan,nan,nan,nan,nan,nan,nan,nan,nan,nan,nan,nan,nan,nan,nan,nan,nan,331.79385202517733,434.6771721630939,nan,435.3051626943052,nan,nan,nan,nan
1,75,1,1,1.0,1.0,0.7078478895127773,0.0,1,4,5,0,2,6,nan,nan,nan,nan,nan,nan,nan,nan,nan,nan,nan,nan,0.0,nan,nan,nan,nan,nan,nan,nan,nan,nan,nan,nan,nan,nan,nan,nan,nan,nan,nan,331.79385202517733,435.6773138582939,nan,436.3851617478067,nan,nan,nan,nan
1,76,1,1,1.0,1.0,0.7153554539545439,0.0,3,0,8,5,1,2,nan,nan,nan,nan,nan,nan,nan,nan,nan,nan,nan,nan,0.0,nan,nan,nan,nan,nan,nan,nan,nan,nan,nan,nan,nan,nan,nan,nan,nan,nan,nan,331.79385202517733,436.6857921915944,nan,437.4011476455489,nan,nan,nan,nan
1,77,1,1,1.0,1.0,0.6668765960494056,0.0,8,1,5,4,2,6,nan,nan,nan,nan,nan,nan,nan,nan,nan,nan,nan,nan,0.0,nan,nan,nan,nan,nan,nan,nan,nan,nan,nan,nan,nan,nan,nan,nan,nan,nan,nan,331.79385202517733,437.6942679590429,nan,438.3611445550923,nan,nan,nan,nan
1,78,0,0,nan,nan,nan,0.0,7,0,8,2,6,3,nan,nan,nan,nan,nan,nan,nan,nan,nan,nan,nan,nan,0.0,nan,nan,nan,nan,nan,nan,nan,nan,nan,nan,nan,nan,nan,nan,nan,nan,nan,nan,331.79385202517733,438.7027491433546,nan,nan,nan,nan,nan,nan
1,79,1,1,nan,nan,nan,0.0,3,6,4,1,7,0,nan,nan,nan,nan,nan,nan,nan,nan,nan,nan,nan,nan,0.0,nan,nan,nan,nan,nan,nan,nan,nan,nan,nan,nan,nan,nan,nan,nan,nan,nan,nan,331.79385202517733,439.71121521736495,nan,nan,nan,nan,nan,nan
1,80,1,1,nan,nan,nan,0.0,2,5,6,0,4,1,nan,nan,nan,nan,nan,nan,nan,nan,nan,nan,nan,nan,0.0,nan,nan,nan,nan,nan,nan,nan,nan,nan,nan,nan,nan,nan,nan,nan,nan,nan,nan,331.79385202517733,440.7196935506654,nan,nan,nan,nan,nan,nan
1,81,1,1,nan,nan,nan,0.0,6,8,0,5,1,7,nan,nan,nan,nan,nan,nan,nan,nan,nan,nan,nan,nan,0.0,nan,nan,nan,nan,nan,nan,nan,nan,nan,nan,nan,nan,nan,nan,nan,nan,nan,nan,331.79385202517733,441.7281775859883,nan,nan,nan,nan,nan,nan
1,82,1,1,1.0,1.0,0.7527450236375444,0.0,2,7,3,8,5,0,nan,nan,nan,nan,nan,nan,nan,nan,nan,nan,nan,nan,0.0,nan,nan,nan,nan,nan,nan,nan,nan,nan,nan,nan,nan,nan,nan,nan,nan,nan,nan,331.79385202517733,442.72834180417703,nan,443.4810868278146,nan,nan,nan,nan
1,83,0,0,0.0,1.0,0.7602979190996848,0.0,1,6,8,5,3,2,nan,nan,nan,nan,nan,nan,nan,nan,nan,nan,nan,nan,0.0,nan,nan,nan,nan,nan,nan,nan,nan,nan,nan,nan,nan,nan,nan,nan,nan,nan,nan,331.79385202517733,443.73680730798515,nan,444.49710522708483,nan,nan,nan,nan
1,84,1,1,1.0,1.0,0.671803426288534,0.0,2,0,6,3,7,5,nan,nan,nan,nan,nan,nan,nan,nan,nan,nan,nan,nan,0.0,nan,nan,nan,nan,nan,nan,nan,nan,nan,nan,nan,nan,nan,nan,nan,nan,nan,nan,331.79385202517733,444.74529504962265,nan,445.4170984759112,nan,nan,nan,nan
1,85,1,1,1.0,1.0,0.5916475672856905,0.0,4,1,7,8,2,6,nan,nan,nan,nan,nan,nan,nan,nan,nan,nan,nan,nan,0.0,nan,nan,nan,nan,nan,nan,nan,nan,nan,nan,nan,nan,nan,nan,nan,nan,nan,nan,331.79385202517733,445.7454492892721,nan,446.33709685655776,nan,nan,nan,nan
1,86,1,1,1.0,1.0,0.5834962447406724,0.0,5,2,4,3,8,1,nan,nan,nan,nan,nan,nan,nan,nan,nan,nan,nan,nan,0.0,nan,nan,nan,nan,nan,nan,nan,nan,nan,nan,nan,nan,nan,nan,nan,nan,nan,nan,331.79385202517733,446.74559183977544,nan,447.3290880845161,nan,nan,nan,nan
1,87,1,1,1.0,1.0,0.6233336916193366,0.0,3,1,5,8,0,4,nan,nan,nan,nan,nan,nan,nan,nan,nan,nan,nan,nan,0.0,nan,nan,nan,nan,nan,nan,nan,nan,nan,nan,nan,nan,nan,nan,nan,nan,nan,nan,331.79385202517733,447.74573267961387,nan,448.3690663712332,nan,nan,nan,nan
1,88,1,1,1.0,1.0,0.4792065867804922,0.0,2,5,6,7,1,0,nan,nan,nan,nan,nan,nan,nan,nan,nan,nan,nan,nan,0.0,nan,nan,nan,nan,nan,nan,nan,nan,nan,nan,nan,nan,nan,nan,nan,nan,nan,nan,331.79385202517733,448.74586411117343,nan,449.2250706979539,nan,nan,nan,nan
1,89,1,1,1.0,1.0,0.4150220853625797,0.0,3,0,1,6,2,4,nan,nan,nan,nan,nan,nan,nan,nan,nan,nan,nan,nan,0.0,nan,nan,nan,nan,nan,nan,nan,nan,nan,nan,nan,nan,nan,nan,nan,nan,nan,nan,331.79385202517733,449.7460363121936,nan,450.1610583975562,nan,nan,nan,nan
1,90,1,1,1.0,1.0,0.33457485312828794,0.0,8,6,7,4,1,0,nan,nan,nan,nan,nan,nan,nan,nan,nan,nan,nan,nan,0.0,nan,nan,nan,nan,nan,nan,nan,nan,nan,nan,nan,nan,nan,nan,nan,nan,nan,nan,331.79385202517733,450.7544784377096,nan,451.0890532908379,nan,nan,nan,nan
1,91,1,1,1.0,1.0,0.4140798265580088,0.0,7,2,6,8,4,1,nan,nan,nan,nan,nan,nan,nan,nan,nan,nan,nan,nan,0.0,nan,nan,nan,nan,nan,nan,nan,nan,nan,nan,nan,nan,nan,nan,nan,nan,nan,nan,331.79385202517733,451.76296903035836,nan,452.1770488569164,nan,nan,nan,nan
1,92,1,1,1.0,1.0,0.34961107943672687,0.0,1,3,4,7,6,5,nan,nan,nan,nan,nan,nan,nan,nan,nan,nan,nan,nan,0.0,nan,nan,nan,nan,nan,nan,nan,nan,nan,nan,nan,nan,nan,nan,nan,nan,nan,nan,331.79385202517733,452.77143282355973,nan,453.12104390299646,nan,nan,nan,nan
1,93,1,1,1.0,1.0,0.3894488114165142,0.0,8,5,2,3,1,4,nan,nan,nan,nan,nan,nan,nan,nan,nan,nan,nan,nan,0.0,nan,nan,nan,nan,nan,nan,nan,nan,nan,nan,nan,nan,nan,nan,nan,nan,nan,nan,331.79385202517733,453.77159219497116,nan,454.1610410063877,nan,nan,nan,nan
1,94,1,1,1.0,1.0,0.3169387908419594,0.0,4,7,3,1,8,6,nan,nan,nan,nan,nan,nan,nan,nan,nan,nan,nan,nan,0.0,nan,nan,nan,nan,nan,nan,nan,nan,nan,nan,nan,nan,nan,nan,nan,nan,nan,nan,331.79385202517733,454.780089915148,nan,455.09702870598994,nan,nan,nan,nan
1,95,1,1,1.0,1.0,0.3644694028189406,0.0,2,5,7,3,4,0,nan,nan,nan,nan,nan,nan,nan,nan,nan,nan,nan,nan,0.0,nan,nan,nan,nan,nan,nan,nan,nan,nan,nan,nan,nan,nan,nan,nan,nan,nan,nan,331.79385202517733,455.78859048639424,nan,456.1530598892132,nan,nan,nan,nan
1,96,1,1,1.0,1.0,0.38800363446353003,0.0,8,3,1,0,6,4,nan,nan,nan,nan,nan,nan,nan,nan,nan,nan,nan,nan,0.0,nan,nan,nan,nan,nan,nan,nan,nan,nan,nan,nan,nan,nan,nan,nan,nan,nan,nan,331.79385202517733,456.79702748003183,nan,457.18503111449536,nan,nan,nan,nan
1,97,1,1,1.0,1.0,0.3795227352529764,0.0,5,0,7,4,2,1,nan,nan,nan,nan,nan,nan,nan,nan,nan,nan,nan,nan,0.0,nan,nan,nan,nan,nan,nan,nan,nan,nan,nan,nan,nan,nan,nan,nan,nan,nan,nan,331.79385202517733,457.80549440934556,nan,458.18501714459853,nan,nan,nan,nan
1,98,0,0,1.0,0.0,0.43502077960874885,0.0,8,4,0,1,7,6,nan,nan,nan,nan,nan,nan,nan,nan,nan,nan,nan,nan,0.0,nan,nan,nan,nan,nan,nan,nan,nan,nan,nan,nan,nan,nan,nan,nan,nan,nan,nan,331.79385202517733,458.81398215098307,nan,459.2490029305918,nan,nan,nan,nan
1,99,1,1,1.0,1.0,0.4345409545931034,0.0,3,7,6,2,4,0,nan,nan,nan,nan,nan,nan,nan,nan,nan,nan,nan,nan,0.0,nan,nan,nan,nan,nan,nan,nan,nan,nan,nan,nan,nan,nan,nan,nan,nan,nan,nan,331.79385202517733,459.82245962903835,nan,460.25700058363145,nan,nan,nan,nan
1,100,1,1,1.0,1.0,0.4500724013778381,0.0,0,3,2,4,5,1,nan,nan,nan,nan,nan,nan,nan,nan,nan,nan,nan,nan,0.0,nan,nan,nan,nan,nan,nan,nan,nan,nan,nan,nan,nan,nan,nan,nan,nan,nan,nan,331.79385202517733,460.8309345411253,nan,461.28100694250315,nan,nan,nan,nan
1,101,1,1,1.0,1.0,0.3615545302745886,0.0,7,6,4,8,1,3,nan,nan,nan,nan,nan,nan,nan,nan,nan,nan,nan,nan,0.0,nan,nan,nan,nan,nan,nan,nan,nan,nan,nan,nan,nan,nan,nan,nan,nan,nan,nan,331.79385202517733,461.8394254188752,nan,462.20097994914977,nan,nan,nan,nan
1,102,1,1,1.0,1.0,0.36909317068057135,0.0,2,8,3,0,5,6,nan,nan,nan,nan,nan,nan,nan,nan,nan,nan,nan,nan,0.0,nan,nan,nan,nan,nan,nan,nan,nan,nan,nan,nan,nan,nan,nan,nan,nan,nan,nan,331.79385202517733,462.8478923481889,nan,463.2169855188695,nan,nan,nan,nan
1,103,1,1,1.0,1.0,0.3285945747047663,0.0,4,7,1,5,0,3,nan,nan,nan,nan,nan,nan,nan,nan,nan,nan,nan,nan,0.0,nan,nan,nan,nan,nan,nan,nan,nan,nan,nan,nan,nan,nan,nan,nan,nan,nan,nan,331.79385202517733,463.8563738176017,nan,464.1849683923065,nan,nan,nan,nan
1,104,1,1,1.0,1.0,0.35209744528401643,0.0,7,0,8,6,1,2,nan,nan,nan,nan,nan,nan,nan,nan,nan,nan,nan,nan,0.0,nan,nan,nan,nan,nan,nan,nan,nan,nan,nan,nan,nan,nan,nan,nan,nan,nan,nan,331.79385202517733,464.86486925696954,nan,465.21696670225356,nan,nan,nan,nan
1,105,1,1,1.0,1.0,0.4956135786487721,0.0,2,8,3,4,7,1,nan,nan,nan,nan,nan,nan,nan,nan,nan,nan,nan,nan,0.0,nan,nan,nan,nan,nan,nan,nan,nan,nan,nan,nan,nan,nan,nan,nan,nan,nan,nan,331.79385202517733,465.8733467350248,nan,466.3689603136736,nan,nan,nan,nan
1,106,1,1,1.0,1.0,0.5111430297838524,0.0,5,4,1,8,3,7,nan,nan,nan,nan,nan,nan,nan,nan,nan,nan,nan,nan,0.0,nan,nan,nan,nan,nan,nan,nan,nan,nan,nan,nan,nan,nan,nan,nan,nan,nan,nan,331.79385202517733,466.8818205067073,nan,467.39296353649115,nan,nan,nan,nan
1,107,1,1,1.0,1.0,0.566659890813753,0.0,8,1,5,7,2,4,nan,nan,nan,nan,nan,nan,nan,nan,nan,nan,nan,nan,0.0,nan,nan,nan,nan,nan,nan,nan,nan,nan,nan,nan,nan,nan,nan,nan,nan,nan,nan,331.79385202517733,467.8902968442999,nan,468.45695673511364,nan,nan,nan,nan
1,108,1,1,1.0,1.0,0.5821685294504277,0.0,4,5,1,6,8,3,nan,nan,nan,nan,nan,nan,nan,nan,nan,nan,nan,nan,0.0,nan,nan,nan,nan,nan,nan,nan,nan,nan,nan,nan,nan,nan,nan,nan,nan,nan,nan,331.79385202517733,468.8987651991192,nan,469.48093372856965,nan,nan,nan,nan
1,109,1,1,1.0,1.0,0.5419832594925538,0.0,1,3,0,5,2,8,nan,nan,nan,nan,nan,nan,nan,nan,nan,nan,nan,nan,0.0,nan,nan,nan,nan,nan,nan,nan,nan,nan,nan,nan,nan,nan,nan,nan,nan,nan,nan,331.79385202517733,469.898950799834,nan,470.44093405932654,nan,nan,nan,nan
1,110,1,1,1.0,1.0,0.525540059665218,0.0,6,4,1,8,5,7,nan,nan,nan,nan,nan,nan,nan,nan,nan,nan,nan,nan,0.0,nan,nan,nan,nan,nan,nan,nan,nan,nan,nan,nan,nan,nan,nan,nan,nan,nan,nan,331.79385202517733,470.9073954912601,nan,471.4329355509253,nan,nan,nan,nan
1,111,1,1,1.0,1.0,0.47704324044752866,0.0,1,0,4,5,3,2,nan,nan,nan,nan,nan,nan,nan,nan,nan,nan,nan,nan,0.0,nan,nan,nan,nan,nan,nan,nan,nan,nan,nan,nan,nan,nan,nan,nan,nan,nan,nan,331.79385202517733,471.9158832328976,nan,472.39292647334514,nan,nan,nan,nan
1,112,1,1,1.0,1.0,0.44487900170497596,0.0,4,5,2,0,8,6,nan,nan,nan,nan,nan,nan,nan,nan,nan,nan,nan,nan,0.0,nan,nan,nan,nan,nan,nan,nan,nan,nan,nan,nan,nan,nan,nan,nan,nan,nan,nan,331.79385202517733,472.91604003845714,nan,473.3609190401621,nan,nan,nan,nan
1,113,1,1,1.0,1.0,0.45242248888826,0.0,6,1,5,3,0,7,nan,nan,nan,nan,nan,nan,nan,nan,nan,nan,nan,nan,0.0,nan,nan,nan,nan,nan,nan,nan,nan,nan,nan,nan,nan,nan,nan,nan,nan,nan,nan,331.79385202517733,473.92449214251246,nan,474.3769146314007,nan,nan,nan,nan
1,114,1,1,1.0,1.0,0.4279268966638483,0.0,8,6,7,0,5,2,nan,nan,nan,nan,nan,nan,nan,nan,nan,nan,nan,nan,0.0,nan,nan,nan,nan,nan,nan,nan,nan,nan,nan,nan,nan,nan,nan,nan,nan,nan,nan,331.79385202517733,474.9329793139477,nan,475.3609062106116,nan,nan,nan,nan
1,115,1,1,1.0,1.0,0.5794480958138593,0.0,3,2,6,1,4,0,nan,nan,nan,nan,nan,nan,nan,nan,nan,nan,nan,nan,0.0,nan,nan,nan,nan,nan,nan,nan,nan,nan,nan,nan,nan,nan,nan,nan,nan,nan,nan,331.79385202517733,475.9414556515403,nan,476.52090374735417,nan,nan,nan,nan
1,116,1,1,1.0,1.0,0.46696035872446373,0.0,0,1,3,7,6,2,nan,nan,nan,nan,nan,nan,nan,nan,nan,nan,nan,nan,0.0,nan,nan,nan,nan,nan,nan,nan,nan,nan,nan,nan,nan,nan,nan,nan,nan,nan,nan,331.79385202517733,476.949929423281,nan,477.41688978200546,nan,nan,nan,nan
1,117,1,1,1.0,1.0,0.498460597184021,0.0,6,3,4,1,7,0,nan,nan,nan,nan,nan,nan,nan,nan,nan,nan,nan,nan,0.0,nan,nan,nan,nan,nan,nan,nan,nan,nan,nan,nan,nan,nan,nan,nan,nan,nan,nan,331.79385202517733,477.95842514774995,nan,478.45688574493397,nan,nan,nan,nan
1,118,1,1,1.0,1.0,0.48197862366214395,0.0,3,8,5,6,0,4,nan,nan,nan,nan,nan,nan,nan,nan,nan,nan,nan,nan,0.0,nan,nan,nan,nan,nan,nan,nan,nan,nan,nan,nan,nan,nan,nan,nan,nan,nan,nan,331.79385202517733,478.966902055603,nan,479.44888067926513,nan,nan,nan,nan
1,119,1,1,1.0,1.0,0.4575132522149943,0.0,7,5,0,3,8,6,nan,nan,nan,nan,nan,nan,nan,nan,nan,nan,nan,nan,0.0,nan,nan,nan,nan,nan,nan,nan,nan,nan,nan,nan,nan,nan,nan,nan,nan,nan,nan,331.79385202517733,479.975365563645,nan,480.43287881586,nan,nan,nan,nan
1,120,1,1,1.0,1.0,0.4570114744710736,0.0,4,8,6,0,7,1,nan,nan,nan,nan,nan,nan,nan,nan,nan,nan,nan,nan,0.0,nan,nan,nan,nan,nan,nan,nan,nan,nan,nan,nan,nan,nan,nan,nan,nan,nan,nan,331.79385202517733,480.9838467479567,nan,481.4408582224278,nan,nan,nan,nan
1,121,1,1,1.0,1.0,0.4645187537535094,0.0,5,3,1,7,0,4,nan,nan,nan,nan,nan,nan,nan,nan,nan,nan,nan,nan,0.0,nan,nan,nan,nan,nan,nan,nan,nan,nan,nan,nan,nan,nan,nan,nan,nan,nan,nan,331.79385202517733,481.992342757585,nan,482.4568615113385,nan,nan,nan,nan
1,122,1,1,1.0,1.0,0.39235570112941787,0.0,0,1,6,3,8,2,nan,nan,nan,nan,nan,nan,nan,nan,nan,nan,nan,nan,0.0,nan,nan,nan,nan,nan,nan,nan,nan,nan,nan,nan,nan,nan,nan,nan,nan,nan,nan,331.79385202517733,482.99248530803015,nan,483.3848410091596,nan,nan,nan,nan
1,123,1,1,1.0,1.0,0.3598789917305112,0.0,1,3,5,4,7,6,nan,nan,nan,nan,nan,nan,nan,nan,nan,nan,nan,nan,0.0,nan,nan,nan,nan,nan,nan,nan,nan,nan,nan,nan,nan,nan,nan,nan,nan,nan,nan,331.79385202517733,484.00096649240004,nan,484.36084548413055,nan,nan,nan,nan
1,124,1,1,1.0,1.0,0.35140493494691327,0.0,0,7,4,5,2,1,nan,nan,nan,nan,nan,nan,nan,nan,nan,nan,nan,nan,0.0,nan,nan,nan,nan,nan,nan,nan,nan,nan,nan,nan,nan,nan,nan,nan,nan,nan,nan,331.79385202517733,485.00942230271176,nan,485.36082723765867,nan,nan,nan,nan
1,125,1,1,1.0,1.0,0.3992286307620816,0.0,6,1,3,0,5,4,nan,nan,nan,nan,nan,nan,nan,nan,nan,nan,nan,nan,0.0,nan,nan,nan,nan,nan,nan,nan,nan,nan,nan,nan,nan,nan,nan,nan,nan,nan,nan,331.79385202517733,486.0096067630802,nan,486.4088353938423,nan,nan,nan,nan
1,126,1,1,1.0,1.0,0.41506485047284514,0.0,0,3,2,4,8,1,nan,nan,nan,nan,nan,nan,nan,nan,nan,nan,nan,nan,0.0,nan,nan,nan,nan,nan,nan,nan,nan,nan,nan,nan,nan,nan,nan,nan,nan,nan,nan,331.79385202517733,487.0097530198982,nan,487.42481787037104,nan,nan,nan,nan
1,127,1,1,1.0,1.0,0.40661816339707,0.0,3,0,5,2,4,7,nan,nan,nan,nan,nan,nan,nan,nan,nan,nan,nan,nan,0.0,nan,nan,nan,nan,nan,nan,nan,nan,nan,nan,nan,nan,nan,nan,nan,nan,nan,nan,331.79385202517733,488.01819828146836,nan,488.4248164448654,nan,nan,nan,nan
1,128,1,1,1.0,1.0,0.46244293346535414,0.0,0,1,4,8,2,5,nan,nan,nan,nan,nan,nan,nan,nan,nan,nan,nan,nan,0.0,nan,nan,nan,nan,nan,nan,nan,nan,nan,nan,nan,nan,nan,nan,nan,nan,nan,nan,331.79385202517733,489.01835223601665,nan,489.480795169482,nan,nan,nan,nan
1,129,1,1,1.0,1.0,0.3982946398900822,0.0,3,4,2,6,7,8,nan,nan,nan,nan,nan,nan,nan,nan,nan,nan,nan,nan,0.0,nan,nan,nan,nan,nan,nan,nan,nan,nan,nan,nan,nan,nan,nan,nan,nan,nan,nan,331.79385202517733,490.0184942163178,nan,490.41678885620786,nan,nan,nan,nan
1,130,1,1,1.0,1.0,0.35782512417063117,0.0,4,2,1,8,3,0,nan,nan,nan,nan,nan,nan,nan,nan,nan,nan,nan,nan,0.0,nan,nan,nan,nan,nan,nan,nan,nan,nan,nan,nan,nan,nan,nan,nan,nan,nan,nan,331.79385202517733,491.0269651370472,nan,491.38479026121786,nan,nan,nan,nan
1,131,1,1,1.0,1.0,0.2773944278014824,0.0,6,5,8,3,0,7,nan,nan,nan,nan,nan,nan,nan,nan,nan,nan,nan,nan,0.0,nan,nan,nan,nan,nan,nan,nan,nan,nan,nan,nan,nan,nan,nan,nan,nan,nan,nan,331.79385202517733,492.03540754760616,nan,492.31280197540764,nan,nan,nan,nan
1,132,1,1,1.0,1.0,0.24517003278015181,0.0,1,7,6,4,2,3,nan,nan,nan,nan,nan,nan,nan,nan,nan,nan,nan,nan,0.0,nan,nan,nan,nan,nan,nan,nan,nan,nan,nan,nan,nan,nan,nan,nan,nan,nan,nan,331.79385202517733,493.03560854383977,nan,493.2807785766199,nan,nan,nan,nan
1,133,1,1,1.0,1.0,0.26070376043207943,0.0,2,3,8,7,0,5,nan,nan,nan,nan,nan,nan,nan,nan,nan,nan,nan,nan,0.0,nan,nan,nan,nan,nan,nan,nan,nan,nan,nan,nan,nan,nan,nan,nan,nan,nan,nan,331.79385202517733,494.0440729071852,nan,494.30477666761726,nan,nan,nan,nan
1,134,1,1,1.0,1.0,0.29252872889628634,0.0,8,7,3,4,2,1,nan,nan,nan,nan,nan,nan,nan,nan,nan,nan,nan,nan,0.0,nan,nan,nan,nan,nan,nan,nan,nan,nan,nan,nan,nan,nan,nan,nan,nan,nan,nan,331.79385202517733,495.0442379806773,nan,495.33676670957357,nan,nan,nan,nan
1,135,1,1,1.0,1.0,0.3400773023022339,0.0,0,4,2,8,5,6,nan,nan,nan,nan,nan,nan,nan,nan,nan,nan,nan,nan,0.0,nan,nan,nan,nan,nan,nan,nan,nan,nan,nan,nan,nan,nan,nan,nan,nan,nan,nan,331.79385202517733,496.0526875187643,nan,496.3927648210665,nan,nan,nan,nan
1,136,1,1,1.0,1.0,0.3319017462199554,0.0,7,2,8,4,3,1,nan,nan,nan,nan,nan,nan,nan,nan,nan,nan,nan,nan,0.0,nan,nan,nan,nan,nan,nan,nan,nan,nan,nan,nan,nan,nan,nan,nan,nan,nan,nan,331.79385202517733,497.05285088164965,nan,497.3847526278696,nan,nan,nan,nan
1,137,1,1,1.0,1.0,0.2917561052599922,0.0,6,5,7,8,1,3,nan,nan,nan,nan,nan,nan,nan,nan,nan,nan,nan,nan,0.0,nan,nan,nan,nan,nan,nan,nan,nan,nan,nan,nan,nan,nan,nan,nan,nan,nan,nan,331.79385202517733,498.05297803669237,nan,498.34473414195236,nan,nan,nan,nan
1,138,0,0,1.0,0.0,0.3716140337055549,1.0,5,3,4,1,2,6,1.0,1.0,1.0,1.0,1.0,1.0,1.0,1.0,0.0,0.0,0.0,0.0,2.0,5.0,3.0,1.0,0.0,6.0,7.0,2.0,1.0,6.0,5.0,4.0,3.0,3.589569181029219,2.4309170358465053,7.547773375466932,6.532262170861941,5.4760228639352135,4.531928887823597,331.79385202517733,499.0531248637126,499.8615552430274,499.42473889741814,508.4544601056841,509.4567469007452,500.8700503973523,508.446131165314
1,139,1,1,1.0,1.0,0.35372052516322583,0.0,8,1,0,7,3,5,nan,nan,nan,nan,nan,nan,nan,nan,nan,nan,nan,nan,0.0,nan,nan,nan,nan,nan,nan,nan,nan,nan,nan,nan,nan,nan,nan,nan,nan,nan,nan,331.79385202517733,509.66297156777,nan,510.0166920929332,nan,nan,nan,nan
1,140,1,1,1.0,1.0,0.30519605113659054,0.0,5,8,7,6,4,2,nan,nan,nan,nan,nan,nan,nan,nan,nan,nan,nan,nan,0.0,nan,nan,nan,nan,nan,nan,nan,nan,nan,nan,nan,nan,nan,nan,nan,nan,nan,nan,331.79385202517733,510.6714715687558,nan,510.9766676198924,nan,nan,nan,nan
1,141,1,1,1.0,1.0,0.3046882862690836,0.0,6,3,1,8,2,5,nan,nan,nan,nan,nan,nan,nan,nan,nan,nan,nan,nan,0.0,nan,nan,nan,nan,nan,nan,nan,nan,nan,nan,nan,nan,nan,nan,nan,nan,nan,nan,331.79385202517733,511.6799601656967,nan,511.98464845196577,nan,nan,nan,nan
1,142,1,1,1.0,1.0,0.3522417063359171,0.0,3,4,7,2,8,1,nan,nan,nan,nan,nan,nan,nan,nan,nan,nan,nan,nan,0.0,nan,nan,nan,nan,nan,nan,nan,nan,nan,nan,nan,nan,nan,nan,nan,nan,nan,nan,331.79385202517733,512.6884062826284,nan,513.0406479889643,nan,nan,nan,nan
1,143,0,0,1.0,0.0,0.19172386027639732,0.0,0,8,1,4,7,6,nan,nan,nan,nan,nan,nan,nan,nan,nan,nan,nan,nan,0.0,nan,nan,nan,nan,nan,nan,nan,nan,nan,nan,nan,nan,nan,nan,nan,nan,nan,nan,331.79385202517733,513.6969322278164,nan,513.8886560880928,nan,nan,nan,nan
1,144,1,1,1.0,1.0,0.7512334181810729,0.0,7,6,0,5,4,2,nan,nan,nan,nan,nan,nan,nan,nan,nan,nan,nan,nan,0.0,nan,nan,nan,nan,nan,nan,nan,nan,nan,nan,nan,nan,nan,nan,nan,nan,nan,nan,331.79385202517733,514.7054148376337,nan,515.4566482558148,nan,nan,nan,nan
1,145,1,1,1.0,1.0,0.6227503749541938,0.0,2,3,8,6,1,4,nan,nan,nan,nan,nan,nan,nan,nan,nan,nan,nan,nan,0.0,nan,nan,nan,nan,nan,nan,nan,nan,nan,nan,nan,nan,nan,nan,nan,nan,nan,nan,331.79385202517733,515.7138763500261,nan,516.3366267249803,nan,nan,nan,nan
1,146,1,1,1.0,1.0,0.4942656211787835,0.0,3,0,6,4,2,5,nan,nan,nan,nan,nan,nan,nan,nan,nan,nan,nan,nan,0.0,nan,nan,nan,nan,nan,nan,nan,nan,nan,nan,nan,nan,nan,nan,nan,nan,nan,nan,331.79385202517733,516.7223592449445,nan,517.2166248661233,nan,nan,nan,nan
1,147,1,1,1.0,1.0,0.5658011665800586,0.0,6,3,2,5,4,0,nan,nan,nan,nan,nan,nan,nan,nan,nan,nan,nan,nan,0.0,nan,nan,nan,nan,nan,nan,nan,nan,nan,nan,nan,nan,nan,nan,nan,nan,nan,nan,331.79385202517733,517.7308190467302,nan,518.2966202133102,nan,nan,nan,nan
1,148,1,1,1.0,1.0,0.4536623930907808,0.0,2,7,4,3,6,1,nan,nan,nan,nan,nan,nan,nan,nan,nan,nan,nan,nan,0.0,nan,nan,nan,nan,nan,nan,nan,nan,nan,nan,nan,nan,nan,nan,nan,nan,nan,nan,331.79385202517733,518.7309456315706,nan,519.1846080246614,nan,nan,nan,nan
1,149,0,0,0.0,1.0,0.7891481439000927,0.0,8,5,2,6,4,3,nan,nan,nan,nan,nan,nan,nan,nan,nan,nan,nan,nan,0.0,nan,nan,nan,nan,nan,nan,nan,nan,nan,nan,nan,nan,nan,nan,nan,nan,nan,nan,331.79385202517733,519.739460742916,nan,520.5286088868161,nan,nan,nan,nan
1,150,1,1,1.0,1.0,0.6206679973402061,0.0,7,0,8,2,1,5,nan,nan,nan,nan,nan,nan,nan,nan,nan,nan,nan,nan,0.0,nan,nan,nan,nan,nan,nan,nan,nan,nan,nan,nan,nan,nan,nan,nan,nan,nan,nan,331.79385202517733,520.7479202595423,nan,521.3685882568825,nan,nan,nan,nan
1,151,1,1,1.0,1.0,0.5005053415079601,0.0,2,6,1,7,0,4,nan,nan,nan,nan,nan,nan,nan,nan,nan,nan,nan,nan,0.0,nan,nan,nan,nan,nan,nan,nan,nan,nan,nan,nan,nan,nan,nan,nan,nan,nan,nan,331.79385202517733,521.7480804863153,nan,522.2485858278233,nan,nan,nan,nan
1,152,1,1,1.0,1.0,0.4600383916986175,0.0,8,2,0,3,5,1,nan,nan,nan,nan,nan,nan,nan,nan,nan,nan,nan,nan,0.0,nan,nan,nan,nan,nan,nan,nan,nan,nan,nan,nan,nan,nan,nan,nan,nan,nan,nan,331.79385202517733,522.7565431391122,nan,523.2165815308108,nan,nan,nan,nan
1,153,1,1,1.0,1.0,0.45153896091505885,0.0,5,0,2,1,4,7,nan,nan,nan,nan,nan,nan,nan,nan,nan,nan,nan,nan,0.0,nan,nan,nan,nan,nan,nan,nan,nan,nan,nan,nan,nan,nan,nan,nan,nan,nan,nan,331.79385202517733,523.7650311658508,nan,524.2165701267659,nan,nan,nan,nan
1,154,1,1,1.0,1.0,0.4510688293958083,0.0,1,8,3,7,0,4,nan,nan,nan,nan,nan,nan,nan,nan,nan,nan,nan,nan,0.0,nan,nan,nan,nan,nan,nan,nan,nan,nan,nan,nan,nan,nan,nan,nan,nan,nan,nan,331.79385202517733,524.7734980951063,nan,525.2245669245021,nan,nan,nan,nan
1,155,1,1,1.0,1.0,0.434568039199803,0.0,0,5,8,3,1,6,nan,nan,nan,nan,nan,nan,nan,nan,nan,nan,nan,nan,0.0,nan,nan,nan,nan,nan,nan,nan,nan,nan,nan,nan,nan,nan,nan,nan,nan,nan,nan,331.79385202517733,525.7819952451391,nan,526.2165632843389,nan,nan,nan,nan
1,156,0,0,0.0,1.0,0.738106798264198,0.0,7,3,2,5,4,8,nan,nan,nan,nan,nan,nan,nan,nan,nan,nan,nan,nan,0.0,nan,nan,nan,nan,nan,nan,nan,nan,nan,nan,nan,nan,nan,nan,nan,nan,nan,nan,331.79385202517733,526.790456187271,nan,527.5285629855352,nan,nan,nan,nan
1,157,1,1,1.0,1.0,0.6416100907954387,0.0,2,1,8,4,7,6,nan,nan,nan,nan,nan,nan,nan,nan,nan,nan,nan,nan,0.0,nan,nan,nan,nan,nan,nan,nan,nan,nan,nan,nan,nan,nan,nan,nan,nan,nan,nan,331.79385202517733,527.7989382268861,nan,528.4405483176815,nan,nan,nan,nan
1,158,1,1,1.0,1.0,0.5211172879789956,0.0,8,5,7,3,0,4,nan,nan,nan,nan,nan,nan,nan,nan,nan,nan,nan,nan,0.0,nan,nan,nan,nan,nan,nan,nan,nan,nan,nan,nan,nan,nan,nan,nan,nan,nan,nan,331.79385202517733,528.8074256834807,nan,529.3285429714597,nan,nan,nan,nan
1,159,1,1,1.0,1.0,0.46463821112411097,0.0,7,1,2,0,8,5,nan,nan,nan,nan,nan,nan,nan,nan,nan,nan,nan,nan,0.0,nan,nan,nan,nan,nan,nan,nan,nan,nan,nan,nan,nan,nan,nan,nan,nan,nan,nan,331.79385202517733,529.8158843448036,nan,530.2805225559277,nan,nan,nan,nan
1,160,1,1,1.0,1.0,0.4481522462447174,0.0,4,3,0,5,7,8,nan,nan,nan,nan,nan,nan,nan,nan,nan,nan,nan,nan,0.0,nan,nan,nan,nan,nan,nan,nan,nan,nan,nan,nan,nan,nan,nan,nan,nan,nan,nan,331.79385202517733,530.8243797841715,nan,531.2725320304162,nan,nan,nan,nan
1,161,1,1,1.0,1.0,0.46366630180273205,0.0,8,5,2,4,0,6,nan,nan,nan,nan,nan,nan,nan,nan,nan,nan,nan,nan,0.0,nan,nan,nan,nan,nan,nan,nan,nan,nan,nan,nan,nan,nan,nan,nan,nan,nan,nan,331.79385202517733,531.8328606834402,nan,532.296526985243,nan,nan,nan,nan
1,162,0,0,0.0,1.0,0.6392180934781209,1.0,1,7,3,5,2,8,1.0,1.0,1.0,1.0,1.0,1.0,1.0,1.0,1.0,0.0,0.0,1.0,4.0,1.0,7.0,3.0,0.0,4.0,8.0,3.0,2.0,1.0,6.0,5.0,4.0,4.561050813877955,3.6157722431235015,2.1120201714802533,12.022883346129674,11.279260984039865,9.911145709746052,331.79385202517733,532.8413033791003,533.6497594175744,533.4805214725784,546.7266406065901,547.7233245969401,534.6665809463011,546.7183110959595
1,163,1,1,1.0,1.0,0.4416319864685647,0.0,8,5,4,7,6,0,nan,nan,nan,nan,nan,nan,nan,nan,nan,nan,nan,nan,0.0,nan,nan,nan,nan,nan,nan,nan,nan,nan,nan,nan,nan,nan,nan,nan,nan,nan,nan,331.79385202517733,547.9268063072814,nan,548.3684382937499,nan,nan,nan,nan
1,164,1,1,1.0,1.0,0.39308612985769287,0.0,5,3,7,4,0,6,nan,nan,nan,nan,nan,nan,nan,nan,nan,nan,nan,nan,0.0,nan,nan,nan,nan,nan,nan,nan,nan,nan,nan,nan,nan,nan,nan,nan,nan,nan,nan,331.79385202517733,548.935329116357,nan,549.3284152462147,nan,nan,nan,nan
1,165,1,1,1.0,1.0,0.37659845437156036,0.0,3,1,6,8,5,2,nan,nan,nan,nan,nan,nan,nan,nan,nan,nan,nan,nan,0.0,nan,nan,nan,nan,nan,nan,nan,nan,nan,nan,nan,nan,nan,nan,nan,nan,nan,nan,331.79385202517733,549.9438043135451,nan,550.3204027679167,nan,nan,nan,nan
1,166,1,1,1.0,1.0,0.3521145513514057,0.0,1,8,7,4,6,5,nan,nan,nan,nan,nan,nan,nan,nan,nan,nan,nan,nan,0.0,nan,nan,nan,nan,nan,nan,nan,nan,nan,nan,nan,nan,nan,nan,nan,nan,nan,nan,331.79385202517733,550.9522772299242,nan,551.3043917812756,nan,nan,nan,nan
1,167,1,1,1.0,1.0,0.3836321809212677,0.0,4,3,1,7,8,0,nan,nan,nan,nan,nan,nan,nan,nan,nan,nan,nan,nan,0.0,nan,nan,nan,nan,nan,nan,nan,nan,nan,nan,nan,nan,nan,nan,nan,nan,nan,nan,331.79385202517733,551.9607601249008,nan,552.3443923058221,nan,nan,nan,nan
1,168,1,1,1.0,1.0,0.4551280973246321,0.0,2,4,7,0,6,8,nan,nan,nan,nan,nan,nan,nan,nan,nan,nan,nan,nan,0.0,nan,nan,nan,nan,nan,nan,nan,nan,nan,nan,nan,nan,nan,nan,nan,nan,nan,nan,331.79385202517733,552.9692726703361,nan,553.4244007676607,nan,nan,nan,nan
1,169,1,1,1.0,1.0,0.4146537348278798,0.0,4,3,0,7,5,1,nan,nan,nan,nan,nan,nan,nan,nan,nan,nan,nan,nan,0.0,nan,nan,nan,nan,nan,nan,nan,nan,nan,nan,nan,nan,nan,nan,nan,nan,nan,nan,331.79385202517733,553.9777222084813,nan,554.3923759433092,nan,nan,nan,nan
1,170,1,1,1.0,1.0,0.43017178191803396,0.0,2,4,8,3,1,6,nan,nan,nan,nan,nan,nan,nan,nan,nan,nan,nan,nan,0.0,nan,nan,nan,nan,nan,nan,nan,nan,nan,nan,nan,nan,nan,nan,nan,nan,nan,nan,331.79385202517733,554.9861974056694,nan,555.4163691875874,nan,nan,nan,nan
1,171,1,1,1.0,1.0,0.389689436648041,0.0,8,2,0,1,6,4,nan,nan,nan,nan,nan,nan,nan,nan,nan,nan,nan,nan,0.0,nan,nan,nan,nan,nan,nan,nan,nan,nan,nan,nan,nan,nan,nan,nan,nan,nan,nan,331.79385202517733,555.9946765942732,nan,556.3843660309212,nan,nan,nan,nan
1,172,1,1,1.0,1.0,0.37320489721605554,0.0,4,8,7,5,1,6,nan,nan,nan,nan,nan,nan,nan,nan,nan,nan,nan,nan,0.0,nan,nan,nan,nan,nan,nan,nan,nan,nan,nan,nan,nan,nan,nan,nan,nan,nan,nan,331.79385202517733,557.0031517915195,nan,557.3763566887355,nan,nan,nan,nan
1,173,1,1,1.0,1.0,0.3246724402997643,0.0,8,6,1,0,2,5,nan,nan,nan,nan,nan,nan,nan,nan,nan,nan,nan,nan,0.0,nan,nan,nan,nan,nan,nan,nan,nan,nan,nan,nan,nan,nan,nan,nan,nan,nan,nan,331.79385202517733,558.0116791622131,nan,558.3363516025129,nan,nan,nan,nan
1,174,1,1,1.0,1.0,0.26823555846931413,0.0,6,2,0,3,1,4,nan,nan,nan,nan,nan,nan,nan,nan,nan,nan,nan,nan,0.0,nan,nan,nan,nan,nan,nan,nan,nan,nan,nan,nan,nan,nan,nan,nan,nan,nan,nan,331.79385202517733,559.0201164409518,nan,559.2883519994211,nan,nan,nan,nan
1,175,1,1,1.0,1.0,0.32376439368817955,0.0,1,6,3,0,8,7,nan,nan,nan,nan,nan,nan,nan,nan,nan,nan,nan,nan,0.0,nan,nan,nan,nan,nan,nan,nan,nan,nan,nan,nan,nan,nan,nan,nan,nan,nan,nan,331.79385202517733,560.0285828000633,nan,560.3523471937515,nan,nan,nan,nan
1,176,1,1,1.0,1.0,0.26726136833895,0.0,3,2,1,4,6,8,nan,nan,nan,nan,nan,nan,nan,nan,nan,nan,nan,nan,0.0,nan,nan,nan,nan,nan,nan,nan,nan,nan,nan,nan,nan,nan,nan,nan,nan,nan,nan,331.79385202517733,561.0370656949817,nan,561.3043270633207,nan,nan,nan,nan
1,177,1,1,1.0,1.0,0.29911171086132526,0.0,4,8,5,6,1,2,nan,nan,nan,nan,nan,nan,nan,nan,nan,nan,nan,nan,0.0,nan,nan,nan,nan,nan,nan,nan,nan,nan,nan,nan,nan,nan,nan,nan,nan,nan,nan,331.79385202517733,562.037221930339,nan,562.3363336412003,nan,nan,nan,nan
1,178,1,1,1.0,1.0,0.4026230432209559,0.0,1,5,0,2,8,4,nan,nan,nan,nan,nan,nan,nan,nan,nan,nan,nan,nan,0.0,nan,nan,nan,nan,nan,nan,nan,nan,nan,nan,nan,nan,nan,nan,nan,nan,nan,nan,331.79385202517733,563.0457002636394,nan,563.4483233068604,nan,nan,nan,nan
1,179,1,1,1.0,1.0,0.4341569235548377,0.0,8,0,5,3,1,6,nan,nan,nan,nan,nan,nan,nan,nan,nan,nan,nan,nan,0.0,nan,nan,nan,nan,nan,nan,nan,nan,nan,nan,nan,nan,nan,nan,nan,nan,nan,nan,331.79385202517733,564.0541708992678,nan,564.4883278228226,nan,nan,nan,nan
1,180,1,1,1.0,1.0,0.4336520096985623,0.0,4,5,3,2,8,1,nan,nan,nan,nan,nan,nan,nan,nan,nan,nan,nan,nan,0.0,nan,nan,nan,nan,nan,nan,nan,nan,nan,nan,nan,nan,nan,nan,nan,nan,nan,nan,331.79385202517733,565.0626537941862,nan,565.4963058038848,nan,nan,nan,nan
1,181,1,1,1.0,1.0,0.3851637435145676,0.0,0,8,4,1,6,3,nan,nan,nan,nan,nan,nan,nan,nan,nan,nan,nan,nan,0.0,nan,nan,nan,nan,nan,nan,nan,nan,nan,nan,nan,nan,nan,nan,nan,nan,nan,nan,331.79385202517733,566.0711312721833,nan,566.4562950156978,nan,nan,nan,nan
1,182,0,0,1.0,0.0,0.3126887903199531,1.0,1,5,8,7,0,2,1.0,1.0,1.0,1.0,1.0,1.0,1.0,1.0,0.0,0.0,0.0,0.0,2.0,1.0,5.0,6.0,5.0,8.0,7.0,2.0,1.0,6.0,5.0,4.0,3.0,3.5049355258233845,2.5310915462323464,10.232804062368814,8.001298920135014,6.784415467409417,5.976664483721834,331.79385202517733,567.0796061843284,567.8880348530365,567.3922949746484,579.172999852628,580.1711421345826,568.9048583775293,579.1646660654806
1,183,1,1,1.0,1.0,0.7466823510476388,0.0,8,0,6,3,5,7,nan,nan,nan,nan,nan,nan,nan,nan,nan,nan,nan,nan,0.0,nan,nan,nan,nan,nan,nan,nan,nan,nan,nan,nan,nan,nan,nan,nan,nan,nan,nan,331.79385202517733,580.3815392545657,nan,581.1282216056134,nan,nan,nan,nan
1,184,1,1,1.0,1.0,0.6341561253066175,0.0,0,2,1,7,3,4,nan,nan,nan,nan,nan,nan,nan,nan,nan,nan,nan,nan,0.0,nan,nan,nan,nan,nan,nan,nan,nan,nan,nan,nan,nan,nan,nan,nan,nan,nan,nan,331.79385202517733,581.3900572169223,nan,582.0242133422289,nan,nan,nan,nan
1,185,0,0,0.0,1.0,0.6817109708790667,0.0,8,1,5,4,2,0,nan,nan,nan,nan,nan,nan,nan,nan,nan,nan,nan,nan,0.0,nan,nan,nan,nan,nan,nan,nan,nan,nan,nan,nan,nan,nan,nan,nan,nan,nan,nan,331.79385202517733,582.3984842320788,nan,583.0801952029578,nan,nan,nan,nan
1,186,1,1,1.0,1.0,0.5532031239126809,0.0,1,2,0,5,7,4,nan,nan,nan,nan,nan,nan,nan,nan,nan,nan,nan,nan,0.0,nan,nan,nan,nan,nan,nan,nan,nan,nan,nan,nan,nan,nan,nan,nan,nan,nan,nan,331.79385202517733,583.4069733992219,nan,583.9601765231346,nan,nan,nan,nan
1,187,0,0,nan,nan,nan,1.0,4,7,6,1,0,5,1.0,1.0,1.0,1.0,1.0,1.0,0.0,0.0,0.0,0.0,0.0,0.0,0.0,7.0,4.0,0.0,2.0,5.0,7.0,2.0,1.0,6.0,5.0,4.0,3.0,6.315439444733784,3.1456090598367155,10.849098610458896,9.969560622354038,9.129757159564178,7.848999395326246,331.79385202517733,584.4154554388952,585.2238764098729,nan,597.1172472130856,598.1266358738649,586.2323718492407,597.1089159919065
1,188,1,1,1.0,1.0,0.4179754465003498,0.0,7,1,5,4,2,8,nan,nan,nan,nan,nan,nan,nan,nan,nan,nan,nan,nan,0.0,nan,nan,nan,nan,nan,nan,nan,nan,nan,nan,nan,nan,nan,nan,nan,nan,nan,nan,331.79385202517733,598.3341266743955,nan,598.7521021208959,nan,nan,nan,nan
1,189,1,1,1.0,1.0,0.42548158549470827,0.0,1,0,3,6,7,5,nan,nan,nan,nan,nan,nan,nan,nan,nan,nan,nan,nan,0.0,nan,nan,nan,nan,nan,nan,nan,nan,nan,nan,nan,nan,nan,nan,nan,nan,nan,nan,331.79385202517733,599.3425967397634,nan,599.7680783252581,nan,nan,nan,nan
1,190,0,0,0.0,1.0,0.760979310492985,0.0,8,5,4,0,1,6,nan,nan,nan,nan,nan,nan,nan,nan,nan,nan,nan,nan,0.0,nan,nan,nan,nan,nan,nan,nan,nan,nan,nan,nan,nan,nan,nan,nan,nan,nan,nan,331.79385202517733,600.3510836261557,nan,601.1120629366487,nan,nan,nan,nan
1,191,1,1,1.0,1.0,0.5844958088709973,0.0,3,1,6,8,0,7,nan,nan,nan,nan,nan,nan,nan,nan,nan,nan,nan,nan,0.0,nan,nan,nan,nan,nan,nan,nan,nan,nan,nan,nan,nan,nan,nan,nan,nan,nan,nan,331.79385202517733,601.3595628147596,nan,601.9440586236306,nan,nan,nan,nan
1,192,1,1,1.0,1.0,0.4319992793025449,0.0,7,3,0,2,6,4,nan,nan,nan,nan,nan,nan,nan,nan,nan,nan,nan,nan,0.0,nan,nan,nan,nan,nan,nan,nan,nan,nan,nan,nan,nan,nan,nan,nan,nan,nan,nan,331.79385202517733,602.3680417182622,nan,602.8000409975648,nan,nan,nan,nan
1,193,1,1,1.0,1.0,0.41584545699879527,0.0,0,7,6,5,8,2,nan,nan,nan,nan,nan,nan,nan,nan,nan,nan,nan,nan,0.0,nan,nan,nan,nan,nan,nan,nan,nan,nan,nan,nan,nan,nan,nan,nan,nan,nan,nan,331.79385202517733,603.3682010897319,nan,603.7840465467307,nan,nan,nan,nan
1,194,0,0,0.0,1.0,0.4713677349500358,1.0,2,4,8,0,3,5,1.0,1.0,1.0,1.0,1.0,1.0,1.0,1.0,0.0,0.0,0.0,1.0,3.0,2.0,4.0,1.0,7.0,8.0,5.0,2.0,1.0,6.0,5.0,4.0,3.0,3.647460078005679,2.3941213315702043,9.263113148859702,8.319564856064972,7.023657965473831,4.728555915004108,331.79385202517733,604.3766674488434,605.1850946920458,604.8480351837934,615.5032520045061,616.503342666605,606.2019053869881,615.4949090941227
1,195,1,1,1.0,1.0,0.5842024399898946,0.0,4,5,7,3,6,2,nan,nan,nan,nan,nan,nan,nan,nan,nan,nan,nan,nan,0.0,nan,nan,nan,nan,nan,nan,nan,nan,nan,nan,nan,nan,nan,nan,nan,nan,nan,nan,331.79385202517733,616.7117808577023,nan,617.2959832976921,nan,nan,nan,nan
1,196,1,1,1.0,1.0,0.6160450847237371,0.0,2,4,6,5,8,0,nan,nan,nan,nan,nan,nan,nan,nan,nan,nan,nan,nan,0.0,nan,nan,nan,nan,nan,nan,nan,nan,nan,nan,nan,nan,nan,nan,nan,nan,nan,nan,331.79385202517733,617.7119014554191,nan,618.3279465401429,nan,nan,nan,nan
1,197,1,1,1.0,1.0,0.6235312666394748,0.0,0,6,1,8,4,2,nan,nan,nan,nan,nan,nan,nan,nan,nan,nan,nan,nan,0.0,nan,nan,nan,nan,nan,nan,nan,nan,nan,nan,nan,nan,nan,nan,nan,nan,nan,nan,331.79385202517733,618.7204140008544,nan,619.3439452674938,nan,nan,nan,nan
1,198,1,1,1.0,1.0,0.5910571230924688,0.0,5,7,2,3,8,0,nan,nan,nan,nan,nan,nan,nan,nan,nan,nan,nan,nan,0.0,nan,nan,nan,nan,nan,nan,nan,nan,nan,nan,nan,nan,nan,nan,nan,nan,nan,nan,331.79385202517733,619.7288815003703,nan,620.3199386234628,nan,nan,nan,nan
1,199,1,1,1.0,1.0,0.5425680016051047,0.0,7,0,5,8,1,4,nan,nan,nan,nan,nan,nan,nan,nan,nan,nan,nan,nan,0.0,nan,nan,nan,nan,nan,nan,nan,nan,nan,nan,nan,nan,nan,nan,nan,nan,nan,nan,331.79385202517733,620.7373566975584,nan,621.2799246991635,nan,nan,nan,nan
1,200,1,1,1.0,1.0,0.5100639224983752,0.0,5,3,1,7,0,2,nan,nan,nan,nan,nan,nan,nan,nan,nan,nan,nan,nan,0.0,nan,nan,nan,nan,nan,nan,nan,nan,nan,nan,nan,nan,nan,nan,nan,nan,nan,nan,331.79385202517733,621.7458646813757,nan,622.255928603874,nan,nan,nan,nan
1,201,1,1,1.0,1.0,0.4935950636281632,0.0,7,5,6,8,2,0,nan,nan,nan,nan,nan,nan,nan,nan,nan,nan,nan,nan,0.0,nan,nan,nan,nan,nan,nan,nan,nan,nan,nan,nan,nan,nan,nan,nan,nan,nan,nan,331.79385202517733,622.754316785431,nan,623.2479118490592,nan,nan,nan,nan
1,202,1,1,1.0,1.0,0.42111526377266273,0.0,6,1,5,7,8,3,nan,nan,nan,nan,nan,nan,nan,nan,nan,nan,nan,nan,0.0,nan,nan,nan,nan,nan,nan,nan,nan,nan,nan,nan,nan,nan,nan,nan,nan,nan,nan,331.79385202517733,623.7627914124168,nan,624.1839066761895,nan,nan,nan,nan
1,203,1,1,1.0,1.0,0.37263697606977075,0.0,7,6,3,2,1,0,nan,nan,nan,nan,nan,nan,nan,nan,nan,nan,nan,nan,0.0,nan,nan,nan,nan,nan,nan,nan,nan,nan,nan,nan,nan,nan,nan,nan,nan,nan,nan,331.79385202517733,624.7712811498204,nan,625.1439181258902,nan,nan,nan,nan
1,204,1,1,1.0,1.0,0.41214883752400056,0.0,8,0,7,4,2,6,nan,nan,nan,nan,nan,nan,nan,nan,nan,nan,nan,nan,0.0,nan,nan,nan,nan,nan,nan,nan,nan,nan,nan,nan,nan,nan,nan,nan,nan,nan,nan,331.79385202517733,625.7797646149411,nan,626.1919134524651,nan,nan,nan,nan
1,205,1,1,1.0,1.0,0.38765638147015125,0.0,6,3,2,0,7,1,nan,nan,nan,nan,nan,nan,nan,nan,nan,nan,nan,nan,0.0,nan,nan,nan,nan,nan,nan,nan,nan,nan,nan,nan,nan,nan,nan,nan,nan,nan,nan,331.79385202517733,626.7882423780393,nan,627.1758987595094,nan,nan,nan,nan
1,206,1,1,1.0,1.0,0.35548073874088004,0.0,8,5,1,7,6,4,nan,nan,nan,nan,nan,nan,nan,nan,nan,nan,nan,nan,0.0,nan,nan,nan,nan,nan,nan,nan,nan,nan,nan,nan,nan,nan,nan,nan,nan,nan,nan,331.79385202517733,627.7884142939583,nan,628.1438950326992,nan,nan,nan,nan
1,207,1,1,1.0,1.0,0.4510252089239657,0.0,1,0,5,3,2,8,nan,nan,nan,nan,nan,nan,nan,nan,nan,nan,nan,nan,0.0,nan,nan,nan,nan,nan,nan,nan,nan,nan,nan,nan,nan,nan,nan,nan,nan,nan,nan,331.79385202517733,628.7968524280586,nan,629.2478776369826,nan,nan,nan,nan
1,208,1,1,1.0,1.0,0.3945298813050613,0.0,7,1,8,2,6,0,nan,nan,nan,nan,nan,nan,nan,nan,nan,nan,nan,nan,0.0,nan,nan,nan,nan,nan,nan,nan,nan,nan,nan,nan,nan,nan,nan,nan,nan,nan,nan,331.79385202517733,629.8053461568197,nan,630.1998760381248,nan,nan,nan,nan
1,209,0,0,0.0,1.0,0.642049431335181,1.0,8,7,0,1,5,4,1.0,1.0,1.0,1.0,1.0,1.0,1.0,1.0,0.0,1.0,1.0,1.0,5.0,8.0,7.0,8.0,1.0,5.0,4.0,2.0,1.0,6.0,5.0,4.0,3.0,2.682433416834101,1.4208754938445054,8.02646079333499,6.9789615424815565,6.155148824153002,3.6028106966405176,331.79385202517733,630.8138130861335,631.6222440356505,631.4558625174686,640.6985516014392,641.6971836868906,632.6307198030408,640.6902249418781
1,210,1,1,1.0,1.0,0.28474262077361345,0.0,5,6,4,0,3,1,nan,nan,nan,nan,nan,nan,nan,nan,nan,nan,nan,nan,0.0,nan,nan,nan,nan,nan,nan,nan,nan,nan,nan,nan,nan,nan,nan,nan,nan,nan,nan,331.79385202517733,641.9070815950981,nan,642.1918242158717,nan,nan,nan,nan
1,211,0,0,0.0,1.0,0.7802116532693617,1.0,7,8,5,3,1,0,1.0,1.0,1.0,1.0,1.0,1.0,1.0,1.0,1.0,0.0,0.0,1.0,4.0,7.0,8.0,5.0,1.0,3.0,0.0,2.0,1.0,4.0,5.0,6.0,3.0,4.438739922014065,3.510959424718749,7.109349345322698,8.092853687005118,8.8763445718796,5.5422797644278035,331.79385202517733,642.9155667708255,643.7239866013988,643.6957784240949,653.6504174306174,654.6607369461562,644.7324763388024,653.6420853541349
1,212,1,1,1.0,1.0,0.6044272193103097,0.0,1,4,6,2,0,5,nan,nan,nan,nan,nan,nan,nan,nan,nan,nan,nan,nan,0.0,nan,nan,nan,nan,nan,nan,nan,nan,nan,nan,nan,nan,nan,nan,nan,nan,nan,nan,331.79385202517733,654.8673014535452,nan,655.4717286728555,nan,nan,nan,nan
1,213,0,0,0.0,1.0,0.7639161358238198,0.0,0,6,2,7,4,8,nan,nan,nan,nan,nan,nan,nan,nan,nan,nan,nan,nan,0.0,nan,nan,nan,nan,nan,nan,nan,nan,nan,nan,nan,nan,nan,nan,nan,nan,nan,nan,331.79385202517733,655.8757726593758,nan,656.6396887951996,nan,nan,nan,nan
1,214,1,1,1.0,1.0,0.7074310718453489,0.0,8,7,4,2,3,1,nan,nan,nan,nan,nan,nan,nan,nan,nan,nan,nan,nan,0.0,nan,nan,nan,nan,nan,nan,nan,nan,nan,nan,nan,nan,nan,nan,nan,nan,nan,nan,331.79385202517733,656.8842564095976,nan,657.5916874814429,nan,nan,nan,nan
1,215,0,0,0.0,1.0,0.7549671008018777,1.0,3,5,2,7,0,4,1.0,1.0,1.0,1.0,1.0,1.0,1.0,1.0,0.0,0.0,0.0,1.0,3.0,3.0,5.0,7.0,0.0,8.0,4.0,2.0,1.0,6.0,5.0,4.0,3.0,1.941076182120014,0.9981591029209085,6.835610197391361,4.851575282751583,3.827612544351723,2.644812345097307,331.79385202517733,657.8927250494598,658.7011483013048,658.6476921502617,666.5856299406732,667.5930405707331,659.7096349025378,666.5772992896382
1,216,1,1,1.0,1.0,0.5094649252714589,0.0,0,4,8,3,2,6,nan,nan,nan,nan,nan,nan,nan,nan,nan,nan,nan,nan,0.0,nan,nan,nan,nan,nan,nan,nan,nan,nan,nan,nan,nan,nan,nan,nan,nan,nan,nan,331.79385202517733,667.7941796062514,nan,668.3036445315229,nan,nan,nan,nan
1,217,1,1,1.0,1.0,0.39696977561106905,0.0,2,1,0,8,4,7,nan,nan,nan,nan,nan,nan,nan,nan,nan,nan,nan,nan,0.0,nan,nan,nan,nan,nan,nan,nan,nan,nan,nan,nan,nan,nan,nan,nan,nan,nan,nan,331.79385202517733,668.8026405483834,nan,669.1996103239944,nan,nan,nan,nan
1,218,1,1,1.0,1.0,0.5548607010859996,0.0,6,0,7,5,2,1,nan,nan,nan,nan,nan,nan,nan,nan,nan,nan,nan,nan,0.0,nan,nan,nan,nan,nan,nan,nan,nan,nan,nan,nan,nan,nan,nan,nan,nan,nan,nan,331.79385202517733,669.8127405361738,nan,670.3676012372598,nan,nan,nan,nan
1,219,1,1,1.0,1.0,0.5080094847362489,0.0,2,1,8,4,0,3,nan,nan,nan,nan,nan,nan,nan,nan,nan,nan,nan,nan,0.0,nan,nan,nan,nan,nan,nan,nan,nan,nan,nan,nan,nan,nan,nan,nan,nan,nan,nan,331.79385202517733,670.8195992107503,nan,671.3276086954866,nan,nan,nan,nan
1,220,1,1,1.0,1.0,0.37152508221333846,0.0,3,5,4,0,6,1,nan,nan,nan,nan,nan,nan,nan,nan,nan,nan,nan,nan,0.0,nan,nan,nan,nan,nan,nan,nan,nan,nan,nan,nan,nan,nan,nan,nan,nan,nan,nan,331.79385202517733,671.8280789695564,nan,672.1996040517697,nan,nan,nan,nan
1,221,1,1,1.0,1.0,0.3710184576921165,0.0,6,4,1,3,7,8,nan,nan,nan,nan,nan,nan,nan,nan,nan,nan,nan,nan,0.0,nan,nan,nan,nan,nan,nan,nan,nan,nan,nan,nan,nan,nan,nan,nan,nan,nan,nan,331.79385202517733,672.8365669963532,nan,673.2075854540453,nan,nan,nan,nan
1,222,1,1,1.0,1.0,0.4905513254343532,0.0,7,0,8,1,3,4,nan,nan,nan,nan,nan,nan,nan,nan,nan,nan,nan,nan,0.0,nan,nan,nan,nan,nan,nan,nan,nan,nan,nan,nan,nan,nan,nan,nan,nan,nan,nan,331.79385202517733,673.8450273682829,nan,674.3355786937173,nan,nan,nan,nan
1,223,1,1,1.0,1.0,0.36207797564566135,0.0,4,2,1,0,6,8,nan,nan,nan,nan,nan,nan,nan,nan,nan,nan,nan,nan,0.0,nan,nan,nan,nan,nan,nan,nan,nan,nan,nan,nan,nan,nan,nan,nan,nan,nan,nan,331.79385202517733,674.853509122855,nan,675.2155870985007,nan,nan,nan,nan
1,224,0,0,0.0,1.0,0.5055858411942609,0.0,5,3,0,8,1,2,nan,nan,nan,nan,nan,nan,nan,nan,nan,nan,nan,nan,0.0,nan,nan,nan,nan,nan,nan,nan,nan,nan,nan,nan,nan,nan,nan,nan,nan,nan,nan,331.79385202517733,675.8619903071667,nan,676.367576148361,nan,nan,nan,nan
1,225,1,1,1.0,1.0,0.36109124118229374,0.0,0,2,3,6,7,8,nan,nan,nan,nan,nan,nan,nan,nan,nan,nan,nan,nan,0.0,nan,nan,nan,nan,nan,nan,nan,nan,nan,nan,nan,nan,nan,nan,nan,nan,nan,nan,331.79385202517733,676.8704857465345,nan,677.2315769877168,nan,nan,nan,nan
1,226,1,1,1.0,1.0,0.3686047926894389,0.0,5,0,8,3,1,6,nan,nan,nan,nan,nan,nan,nan,nan,nan,nan,nan,nan,0.0,nan,nan,nan,nan,nan,nan,nan,nan,nan,nan,nan,nan,nan,nan,nan,nan,nan,nan,331.79385202517733,677.8789569523651,nan,678.2475617450546,nan,nan,nan,nan
1,227,1,1,1.0,1.0,0.368111853080336,0.0,4,6,1,2,7,3,nan,nan,nan,nan,nan,nan,nan,nan,nan,nan,nan,nan,0.0,nan,nan,nan,nan,nan,nan,nan,nan,nan,nan,nan,nan,nan,nan,nan,nan,nan,nan,331.79385202517733,678.8874327197555,nan,679.2555445728358,nan,nan,nan,nan
1,228,1,1,1.0,1.0,0.39967509888811037,0.0,7,3,6,0,1,4,nan,nan,nan,nan,nan,nan,nan,nan,nan,nan,nan,nan,0.0,nan,nan,nan,nan,nan,nan,nan,nan,nan,nan,nan,nan,nan,nan,nan,nan,nan,nan,331.79385202517733,679.8958788366872,nan,680.2955539355753,nan,nan,nan,nan
1,229,1,1,1.0,1.0,0.33512823411729187,0.0,5,6,4,1,3,8,nan,nan,nan,nan,nan,nan,nan,nan,nan,nan,nan,nan,0.0,nan,nan,nan,nan,nan,nan,nan,nan,nan,nan,nan,nan,nan,nan,nan,nan,nan,nan,331.79385202517733,680.904401930864,nan,681.2395301649813,nan,nan,nan,nan
1,230,1,1,1.0,1.0,0.3106608669622801,0.0,8,3,0,2,6,5,nan,nan,nan,nan,nan,nan,nan,nan,nan,nan,nan,nan,0.0,nan,nan,nan,nan,nan,nan,nan,nan,nan,nan,nan,nan,nan,nan,nan,nan,nan,nan,331.79385202517733,681.9128691452206,nan,682.2235300121829,nan,nan,nan,nan
1,231,1,1,1.0,1.0,0.3581806451547891,0.0,5,0,2,6,1,7,nan,nan,nan,nan,nan,nan,nan,nan,nan,nan,nan,nan,0.0,nan,nan,nan,nan,nan,nan,nan,nan,nan,nan,nan,nan,nan,nan,nan,nan,nan,nan,331.79385202517733,682.92134975933,nan,683.2795304044848,nan,nan,nan,nan
1,232,1,1,1.0,1.0,0.3736892837914638,0.0,3,5,1,4,0,6,nan,nan,nan,nan,nan,nan,nan,nan,nan,nan,nan,nan,0.0,nan,nan,nan,nan,nan,nan,nan,nan,nan,nan,nan,nan,nan,nan,nan,nan,nan,nan,331.79385202517733,683.9298243863741,nan,684.3035136701656,nan,nan,nan,nan
1,233,1,1,1.0,1.0,0.3491951171308756,0.0,2,3,5,8,4,1,nan,nan,nan,nan,nan,nan,nan,nan,nan,nan,nan,nan,0.0,nan,nan,nan,nan,nan,nan,nan,nan,nan,nan,nan,nan,nan,nan,nan,nan,nan,nan,331.79385202517733,684.9383124131127,nan,685.2875075302436,nan,nan,nan,nan
1,234,1,1,1.0,1.0,0.4447230514488183,0.0,8,7,4,5,6,0,nan,nan,nan,nan,nan,nan,nan,nan,nan,nan,nan,nan,0.0,nan,nan,nan,nan,nan,nan,nan,nan,nan,nan,nan,nan,nan,nan,nan,nan,nan,nan,331.79385202517733,685.9467918868759,nan,686.3915149383247,nan,nan,nan,nan
1,235,1,1,1.0,1.0,0.5882377594243735,0.0,6,0,5,4,2,3,nan,nan,nan,nan,nan,nan,nan,nan,nan,nan,nan,nan,0.0,nan,nan,nan,nan,nan,nan,nan,nan,nan,nan,nan,nan,nan,nan,nan,nan,nan,nan,331.79385202517733,686.9552716456819,nan,687.5435094051063,nan,nan,nan,nan
1,236,1,1,1.0,1.0,0.45971138088498265,0.0,4,3,0,6,5,8,nan,nan,nan,nan,nan,nan,nan,nan,nan,nan,nan,nan,0.0,nan,nan,nan,nan,nan,nan,nan,nan,nan,nan,nan,nan,nan,nan,nan,nan,nan,nan,331.79385202517733,687.9637910335441,nan,688.4235024144291,nan,nan,nan,nan
1,237,1,1,1.0,1.0,0.4032476994325407,0.0,8,1,7,4,0,5,nan,nan,nan,nan,nan,nan,nan,nan,nan,nan,nan,nan,0.0,nan,nan,nan,nan,nan,nan,nan,nan,nan,nan,nan,nan,nan,nan,nan,nan,nan,nan,331.79385202517733,688.9722300229478,nan,689.3754777223803,nan,nan,nan,nan
1,238,1,1,1.0,1.0,0.30678263813024387,0.0,5,2,3,0,7,6,nan,nan,nan,nan,nan,nan,nan,nan,nan,nan,nan,nan,0.0,nan,nan,nan,nan,nan,nan,nan,nan,nan,nan,nan,nan,nan,nan,nan,nan,nan,nan,331.79385202517733,689.9807026542258,nan,690.287485292356,nan,nan,nan,nan
1,239,1,1,1.0,1.0,0.30628399655688554,0.0,4,8,0,1,5,7,nan,nan,nan,nan,nan,nan,nan,nan,nan,nan,nan,nan,0.0,nan,nan,nan,nan,nan,nan,nan,nan,nan,nan,nan,nan,nan,nan,nan,nan,nan,nan,331.79385202517733,690.9891878299532,nan,691.29547182651,nan,nan,nan,nan
1,240,1,1,1.0,1.0,0.249795226205606,0.0,7,0,6,3,4,2,nan,nan,nan,nan,nan,nan,nan,nan,nan,nan,nan,nan,0.0,nan,nan,nan,nan,nan,nan,nan,nan,nan,nan,nan,nan,nan,nan,nan,nan,nan,nan,331.79385202517733,691.9976624569972,nan,692.2474576832028,nan,nan,nan,nan
1,241,1,1,1.0,1.0,0.31332542083691806,0.0,0,8,5,2,3,7,nan,nan,nan,nan,nan,nan,nan,nan,nan,nan,nan,nan,0.0,nan,nan,nan,nan,nan,nan,nan,nan,nan,nan,nan,nan,nan,nan,nan,nan,nan,nan,331.79385202517733,693.0061453519156,nan,693.3194707727525,nan,nan,nan,nan
1,242,1,1,1.0,1.0,0.25683094846317545,0.0,1,6,2,5,8,0,nan,nan,nan,nan,nan,nan,nan,nan,nan,nan,nan,nan,0.0,nan,nan,nan,nan,nan,nan,nan,nan,nan,nan,nan,nan,nan,nan,nan,nan,nan,nan,331.79385202517733,694.0146165577462,nan,694.2714475062094,nan,nan,nan,nan
1,243,1,1,1.0,1.0,0.31233526510186493,0.0,8,7,3,0,1,5,nan,nan,nan,nan,nan,nan,nan,nan,nan,nan,nan,nan,0.0,nan,nan,nan,nan,nan,nan,nan,nan,nan,nan,nan,nan,nan,nan,nan,nan,nan,nan,331.79385202517733,695.0231051546871,nan,695.3354404197889,nan,nan,nan,nan
1,244,1,1,1.0,1.0,0.26385327108437195,0.0,3,2,1,7,8,0,nan,nan,nan,nan,nan,nan,nan,nan,nan,nan,nan,nan,0.0,nan,nan,nan,nan,nan,nan,nan,nan,nan,nan,nan,nan,nan,nan,nan,nan,nan,nan,331.79385202517733,696.0315780710662,nan,696.2954313421506,nan,nan,nan,nan
1,245,1,1,1.0,1.0,0.3193712724605575,0.0,2,0,6,3,5,4,nan,nan,nan,nan,nan,nan,nan,nan,nan,nan,nan,nan,0.0,nan,nan,nan,nan,nan,nan,nan,nan,nan,nan,nan,nan,nan,nan,nan,nan,nan,nan,331.79385202517733,697.0400655276608,nan,697.3594368001213,nan,nan,nan,nan
1,246,1,1,1.0,1.0,0.3111831719870679,0.0,3,5,8,0,2,1,nan,nan,nan,nan,nan,nan,nan,nan,nan,nan,nan,nan,0.0,nan,nan,nan,nan,nan,nan,nan,nan,nan,nan,nan,nan,nan,nan,nan,nan,nan,nan,331.79385202517733,698.0402357329149,nan,698.351418904902,nan,nan,nan,nan
1,247,1,1,1.0,1.0,0.2867326257401146,0.0,7,2,0,1,6,8,nan,nan,nan,nan,nan,nan,nan,nan,nan,nan,nan,nan,0.0,nan,nan,nan,nan,nan,nan,nan,nan,nan,nan,nan,nan,nan,nan,nan,nan,nan,nan,331.79385202517733,699.0486761478242,nan,699.3354087735643,nan,nan,nan,nan
1,248,1,1,1.0,1.0,0.3902687618974596,0.0,5,3,2,7,8,6,nan,nan,nan,nan,nan,nan,nan,nan,nan,nan,nan,nan,0.0,nan,nan,nan,nan,nan,nan,nan,nan,nan,nan,nan,nan,nan,nan,nan,nan,nan,nan,331.79385202517733,700.0571487791021,nan,700.4474175409996,nan,nan,nan,nan
1,249,1,1,1.0,1.0,0.30975823721382767,0.0,8,4,5,2,0,3,nan,nan,nan,nan,nan,nan,nan,nan,nan,nan,nan,nan,0.0,nan,nan,nan,nan,nan,nan,nan,nan,nan,nan,nan,nan,nan,nan,nan,nan,nan,nan,331.79385202517733,701.0656405122136,nan,701.3753987494274,nan,nan,nan,nan
1,250,1,1,1.0,1.0,0.3092724251328036,0.0,0,6,4,3,5,2,nan,nan,nan,nan,nan,nan,nan,nan,nan,nan,nan,nan,0.0,nan,nan,nan,nan,nan,nan,nan,nan,nan,nan,nan,nan,nan,nan,nan,nan,nan,nan,331.79385202517733,702.0741325303679,nan,702.3834049555007,nan,nan,nan,nan
1,251,1,1,1.0,1.0,0.3008194658323191,0.0,5,2,7,1,8,4,nan,nan,nan,nan,nan,nan,nan,nan,nan,nan,nan,nan,0.0,nan,nan,nan,nan,nan,nan,nan,nan,nan,nan,nan,nan,nan,nan,nan,nan,nan,nan,331.79385202517733,703.0825963235111,nan,703.3834157893434,nan,nan,nan,nan
1,252,1,1,1.0,1.0,0.31631299410946667,0.0,2,7,4,8,0,6,nan,nan,nan,nan,nan,nan,nan,nan,nan,nan,nan,nan,0.0,nan,nan,nan,nan,nan,nan,nan,nan,nan,nan,nan,nan,nan,nan,nan,nan,nan,nan,331.79385202517733,704.0910769376787,nan,704.4073899317882,nan,nan,nan,nan
1,253,1,1,1.0,1.0,0.25214645406231284,0.0,7,0,8,5,1,3,nan,nan,nan,nan,nan,nan,nan,nan,nan,nan,nan,nan,0.0,nan,nan,nan,nan,nan,nan,nan,nan,nan,nan,nan,nan,nan,nan,nan,nan,nan,nan,331.79385202517733,705.0912303220248,nan,705.3433767760871,nan,nan,nan,nan
1,254,0,0,1.0,0.0,0.30767386383377016,0.0,0,6,7,1,3,2,nan,nan,nan,nan,nan,nan,nan,nan,nan,nan,nan,nan,0.0,nan,nan,nan,nan,nan,nan,nan,nan,nan,nan,nan,nan,nan,nan,nan,nan,nan,nan,331.79385202517733,706.0997020979994,nan,706.4073759618332,nan,nan,nan,nan
1,255,1,1,1.0,1.0,0.3471902869641781,0.0,2,0,8,4,6,1,nan,nan,nan,nan,nan,nan,nan,nan,nan,nan,nan,nan,0.0,nan,nan,nan,nan,nan,nan,nan,nan,nan,nan,nan,nan,nan,nan,nan,nan,nan,nan,331.79385202517733,707.1081653209403,nan,707.4553556079045,nan,nan,nan,nan
1,256,0,0,1.0,0.0,0.2826876128092408,0.0,7,2,3,0,8,4,nan,nan,nan,nan,nan,nan,nan,nan,nan,nan,nan,nan,0.0,nan,nan,nan,nan,nan,nan,nan,nan,nan,nan,nan,nan,nan,nan,nan,nan,nan,nan,331.79385202517733,708.1166613305686,nan,708.3993489433778,nan,nan,nan,nan
1,257,1,1,1.0,1.0,0.3385266379918903,0.0,1,7,8,5,3,0,nan,nan,nan,nan,nan,nan,nan,nan,nan,nan,nan,nan,0.0,nan,nan,nan,nan,nan,nan,nan,nan,nan,nan,nan,nan,nan,nan,nan,nan,nan,nan,331.79385202517733,709.116818421171,nan,709.4553450591629,nan,nan,nan,nan
1,258,1,1,1.0,1.0,0.3940474903793074,0.0,8,5,0,3,6,4,nan,nan,nan,nan,nan,nan,nan,nan,nan,nan,nan,nan,0.0,nan,nan,nan,nan,nan,nan,nan,nan,nan,nan,nan,nan,nan,nan,nan,nan,nan,nan,331.79385202517733,710.1252916227095,nan,710.5193391130888,nan,nan,nan,nan
1,259,0,0,0.0,1.0,0.5455818041809835,0.0,5,8,3,7,1,2,nan,nan,nan,nan,nan,nan,nan,nan,nan,nan,nan,nan,0.0,nan,nan,nan,nan,nan,nan,nan,nan,nan,nan,nan,nan,nan,nan,nan,nan,nan,nan,331.79385202517733,711.1337548456504,nan,711.6793366498314,nan,nan,nan,nan
1,260,1,1,1.0,1.0,0.4170879271114245,0.0,8,7,4,1,2,5,nan,nan,nan,nan,nan,nan,nan,nan,nan,nan,nan,nan,0.0,nan,nan,nan,nan,nan,nan,nan,nan,nan,nan,nan,nan,nan,nan,nan,nan,nan,nan,331.79385202517733,712.1422442979529,nan,712.5593322250643,nan,nan,nan,nan
1,261,1,1,1.0,1.0,0.4089209241210483,0.0,3,0,8,5,7,2,nan,nan,nan,nan,nan,nan,nan,nan,nan,nan,nan,nan,0.0,nan,nan,nan,nan,nan,nan,nan,nan,nan,nan,nan,nan,nan,nan,nan,nan,nan,nan,331.79385202517733,713.1423965418362,nan,713.5513174659573,nan,nan,nan,nan
1,262,1,1,1.0,1.0,0.4244569325237535,0.0,8,7,3,4,1,0,nan,nan,nan,nan,nan,nan,nan,nan,nan,nan,nan,nan,0.0,nan,nan,nan,nan,nan,nan,nan,nan,nan,nan,nan,nan,nan,nan,nan,nan,nan,nan,331.79385202517733,714.150854347914,nan,714.5753112804377,nan,nan,nan,nan
1,263,1,1,1.0,1.0,0.4959978947881609,0.0,4,3,0,7,5,2,nan,nan,nan,nan,nan,nan,nan,nan,nan,nan,nan,nan,0.0,nan,nan,nan,nan,nan,nan,nan,nan,nan,nan,nan,nan,nan,nan,nan,nan,nan,nan,331.79385202517733,715.1593090178794,nan,715.6553069126676,nan,nan,nan,nan
1,264,1,1,1.0,1.0,0.4477978656650521,0.0,6,7,5,4,2,3,nan,nan,nan,nan,nan,nan,nan,nan,nan,nan,nan,nan,0.0,nan,nan,nan,nan,nan,nan,nan,nan,nan,nan,nan,nan,nan,nan,nan,nan,nan,nan,331.79385202517733,716.1594929079874,nan,716.6072907736525,nan,nan,nan,nan
1,265,1,1,1.0,1.0,0.3913204994169064,0.0,1,4,8,5,6,2,nan,nan,nan,nan,nan,nan,nan,nan,nan,nan,nan,nan,0.0,nan,nan,nan,nan,nan,nan,nan,nan,nan,nan,nan,nan,nan,nan,nan,nan,nan,nan,331.79385202517733,717.1679715264472,nan,717.5592920258641,nan,nan,nan,nan
1,266,1,1,1.0,1.0,0.3908372532459907,0.0,8,5,1,3,2,4,nan,nan,nan,nan,nan,nan,nan,nan,nan,nan,nan,nan,0.0,nan,nan,nan,nan,nan,nan,nan,nan,nan,nan,nan,nan,nan,nan,nan,nan,nan,nan,331.79385202517733,718.1764524256578,nan,718.5672896789038,nan,nan,nan,nan
1,267,1,1,1.0,1.0,0.3583460036898032,0.0,1,3,4,5,7,6,nan,nan,nan,nan,nan,nan,nan,nan,nan,nan,nan,nan,0.0,nan,nan,nan,nan,nan,nan,nan,nan,nan,nan,nan,nan,nan,nan,nan,nan,nan,nan,331.79385202517733,719.1849259122391,nan,719.5432719159289,nan,nan,nan,nan
1,268,1,1,1.0,1.0,0.4378549685352482,0.0,5,4,8,2,1,7,nan,nan,nan,nan,nan,nan,nan,nan,nan,nan,nan,nan,0.0,nan,nan,nan,nan,nan,nan,nan,nan,nan,nan,nan,nan,nan,nan,nan,nan,nan,nan,331.79385202517733,720.1934039604967,nan,720.6312589290319,nan,nan,nan,nan
1,269,1,1,1.0,1.0,0.45338613021885976,0.0,4,7,0,8,3,2,nan,nan,nan,nan,nan,nan,nan,nan,nan,nan,nan,nan,0.0,nan,nan,nan,nan,nan,nan,nan,nan,nan,nan,nan,nan,nan,nan,nan,nan,nan,nan,331.79385202517733,721.2018894213252,nan,721.655275551544,nan,nan,nan,nan
1,270,1,1,1.0,1.0,0.46121272270102054,0.0,3,5,1,7,8,0,nan,nan,nan,nan,nan,nan,nan,nan,nan,nan,nan,nan,0.0,nan,nan,nan,nan,nan,nan,nan,nan,nan,nan,nan,nan,nan,nan,nan,nan,nan,nan,331.79385202517733,722.2020419503679,nan,722.6632546730689,nan,nan,nan,nan
1,271,1,1,1.0,1.0,0.5007291457732208,0.0,5,6,0,1,4,3,nan,nan,nan,nan,nan,nan,nan,nan,nan,nan,nan,nan,0.0,nan,nan,nan,nan,nan,nan,nan,nan,nan,nan,nan,nan,nan,nan,nan,nan,nan,nan,331.79385202517733,723.2105145816458,nan,723.7112437274191,nan,nan,nan,nan
1,272,1,1,1.0,1.0,0.43625612219329923,0.0,8,4,1,3,7,2,nan,nan,nan,nan,nan,nan,nan,nan,nan,nan,nan,nan,0.0,nan,nan,nan,nan,nan,nan,nan,nan,nan,nan,nan,nan,nan,nan,nan,nan,nan,nan,331.79385202517733,724.2189823662629,nan,724.6552384884562,nan,nan,nan,nan
1,273,1,1,1.0,1.0,0.3557698311051354,0.0,1,3,7,4,0,6,nan,nan,nan,nan,nan,nan,nan,nan,nan,nan,nan,nan,0.0,nan,nan,nan,nan,nan,nan,nan,nan,nan,nan,nan,nan,nan,nan,nan,nan,nan,nan,331.79385202517733,725.2274740993162,nan,725.5832439304213,nan,nan,nan,nan
1,274,1,1,1.0,1.0,0.3556113149388693,0.0,0,7,6,1,2,4,nan,nan,nan,nan,nan,nan,nan,nan,nan,nan,nan,nan,0.0,nan,nan,nan,nan,nan,nan,nan,nan,nan,nan,nan,nan,nan,nan,nan,nan,nan,nan,331.79385202517733,726.2276263432577,nan,726.5832376581966,nan,nan,nan,nan
1,275,1,1,1.0,1.0,0.3551257880171761,0.0,6,4,2,0,7,3,nan,nan,nan,nan,nan,nan,nan,nan,nan,nan,nan,nan,0.0,nan,nan,nan,nan,nan,nan,nan,nan,nan,nan,nan,nan,nan,nan,nan,nan,nan,nan,331.79385202517733,727.2360975490301,nan,727.5912233370473,nan,nan,nan,nan
1,276,1,1,1.0,1.0,0.33865920995594934,0.0,5,8,4,6,2,1,nan,nan,nan,nan,nan,nan,nan,nan,nan,nan,nan,nan,0.0,nan,nan,nan,nan,nan,nan,nan,nan,nan,nan,nan,nan,nan,nan,nan,nan,nan,nan,331.79385202517733,728.244560201827,nan,728.5832194117829,nan,nan,nan,nan
1,277,1,1,1.0,1.0,0.33817425317829475,0.0,7,4,2,1,0,6,nan,nan,nan,nan,nan,nan,nan,nan,nan,nan,nan,nan,0.0,nan,nan,nan,nan,nan,nan,nan,nan,nan,nan,nan,nan,nan,nan,nan,nan,nan,nan,331.79385202517733,729.253039960633,nan,729.5912142138113,nan,nan,nan,nan
1,278,1,1,1.0,1.0,0.3056961182737723,0.0,0,2,1,4,6,8,nan,nan,nan,nan,nan,nan,nan,nan,nan,nan,nan,nan,0.0,nan,nan,nan,nan,nan,nan,nan,nan,nan,nan,nan,nan,nan,nan,nan,nan,nan,nan,331.79385202517733,730.2615208598436,nan,730.5672169781174,nan,nan,nan,nan
1,279,1,1,1.0,1.0,0.3932030212599784,0.0,8,6,5,0,7,2,nan,nan,nan,nan,nan,nan,nan,nan,nan,nan,nan,nan,0.0,nan,nan,nan,nan,nan,nan,nan,nan,nan,nan,nan,nan,nan,nan,nan,nan,nan,nan,331.79385202517733,731.270000903809,nan,731.663203925069,nan,nan,nan,nan
1,280,1,1,1.0,1.0,0.45672380755422637,0.0,0,2,7,8,6,5,nan,nan,nan,nan,nan,nan,nan,nan,nan,nan,nan,nan,0.0,nan,nan,nan,nan,nan,nan,nan,nan,nan,nan,nan,nan,nan,nan,nan,nan,nan,nan,331.79385202517733,732.2784743903903,nan,732.7351981979446,nan,nan,nan,nan
1,281,1,1,1.0,1.0,0.32821453508222476,0.0,4,0,1,7,3,2,nan,nan,nan,nan,nan,nan,nan,nan,nan,nan,nan,nan,0.0,nan,nan,nan,nan,nan,nan,nan,nan,nan,nan,nan,nan,nan,nan,nan,nan,nan,nan,331.79385202517733,733.2869792380952,nan,733.6151937731775,nan,nan,nan,nan
1,282,1,1,1.0,1.0,0.3277626499766484,0.0,2,6,4,1,5,3,nan,nan,nan,nan,nan,nan,nan,nan,nan,nan,nan,nan,0.0,nan,nan,nan,nan,nan,nan,nan,nan,nan,nan,nan,nan,nan,nan,nan,nan,nan,nan,331.79385202517733,734.2954376143753,nan,734.6232002643519,nan,nan,nan,nan
1,283,1,1,1.0,1.0,0.3195685623213649,0.0,6,3,1,0,4,5,nan,nan,nan,nan,nan,nan,nan,nan,nan,nan,nan,nan,0.0,nan,nan,nan,nan,nan,nan,nan,nan,nan,nan,nan,nan,nan,nan,nan,nan,nan,nan,331.79385202517733,735.2956123813055,nan,735.6151809436269,nan,nan,nan,nan
1,284,1,1,1.0,1.0,0.3591092190472409,0.0,4,6,0,1,5,8,nan,nan,nan,nan,nan,nan,nan,nan,nan,nan,nan,nan,0.0,nan,nan,nan,nan,nan,nan,nan,nan,nan,nan,nan,nan,nan,nan,nan,nan,nan,nan,331.79385202517733,736.304055932269,nan,736.6631651513162,nan,nan,nan,nan
1,285,1,1,1.0,1.0,0.40694146789610386,0.0,5,7,6,3,8,1,nan,nan,nan,nan,nan,nan,nan,nan,nan,nan,nan,nan,0.0,nan,nan,nan,nan,nan,nan,nan,nan,nan,nan,nan,nan,nan,nan,nan,nan,nan,nan,331.79385202517733,737.3042201504577,nan,737.7111616183538,nan,nan,nan,nan
1,286,1,1,1.0,1.0,0.37446646916214377,0.0,3,4,7,0,2,6,nan,nan,nan,nan,nan,nan,nan,nan,nan,nan,nan,nan,0.0,nan,nan,nan,nan,nan,nan,nan,nan,nan,nan,nan,nan,nan,nan,nan,nan,nan,nan,331.79385202517733,738.312686509511,nan,738.6871529786731,nan,nan,nan,nan
1,287,1,1,1.0,1.0,0.3819914247142151,0.0,2,7,8,6,1,5,nan,nan,nan,nan,nan,nan,nan,nan,nan,nan,nan,nan,0.0,nan,nan,nan,nan,nan,nan,nan,nan,nan,nan,nan,nan,nan,nan,nan,nan,nan,nan,331.79385202517733,739.3211571451393,nan,739.7031485698535,nan,nan,nan,nan
1,288,1,1,1.0,1.0,0.4455019473680295,0.0,1,4,2,8,3,7,nan,nan,nan,nan,nan,nan,nan,nan,nan,nan,nan,nan,0.0,nan,nan,nan,nan,nan,nan,nan,nan,nan,nan,nan,nan,nan,nan,nan,nan,nan,nan,331.79385202517733,740.3296508739004,nan,740.7751528212684,nan,nan,nan,nan
1,289,1,1,1.0,1.0,0.3410081570618786,0.0,8,6,5,7,4,3,nan,nan,nan,nan,nan,nan,nan,nan,nan,nan,nan,nan,0.0,nan,nan,nan,nan,nan,nan,nan,nan,nan,nan,nan,nan,nan,nan,nan,nan,nan,nan,331.79385202517733,741.3381351943244,nan,741.6791433513863,nan,nan,nan,nan
1,290,1,1,1.0,1.0,0.26052728289505467,0.0,2,4,0,6,7,8,nan,nan,nan,nan,nan,nan,nan,nan,nan,nan,nan,nan,0.0,nan,nan,nan,nan,nan,nan,nan,nan,nan,nan,nan,nan,nan,nan,nan,nan,nan,nan,331.79385202517733,742.3466004130314,nan,742.6071276959265,nan,nan,nan,nan
1,291,1,1,1.0,1.0,0.3320531348581426,0.0,5,0,1,8,4,2,nan,nan,nan,nan,nan,nan,nan,nan,nan,nan,nan,nan,0.0,nan,nan,nan,nan,nan,nan,nan,nan,nan,nan,nan,nan,nan,nan,nan,nan,nan,nan,331.79385202517733,743.355072189006,nan,743.6871253238642,nan,nan,nan,nan
1,292,1,1,1.0,1.0,0.3075569724314846,0.0,6,1,5,3,0,7,nan,nan,nan,nan,nan,nan,nan,nan,nan,nan,nan,nan,0.0,nan,nan,nan,nan,nan,nan,nan,nan,nan,nan,nan,nan,nan,nan,nan,nan,nan,nan,331.79385202517733,744.3635670582298,nan,744.6711240306613,nan,nan,nan,nan
1,293,0,0,1.0,0.0,0.3470736806630157,1.0,1,6,3,4,7,8,1.0,1.0,1.0,1.0,1.0,1.0,1.0,1.0,0.0,0.0,0.0,1.0,3.0,1.0,6.0,4.0,5.0,0.0,8.0,2.0,1.0,6.0,5.0,4.0,3.0,2.4270040247938596,1.6213473930256441,6.011379806150217,5.459555715729948,4.3162836287519895,3.4028223287896253,331.79385202517733,745.3720356980921,746.1804720645305,745.7191093787551,753.2481473425287,754.2505364888348,747.1973007208435,753.2398132702801
1,294,1,1,1.0,1.0,0.614388647954911,0.0,6,8,7,5,0,2,nan,nan,nan,nan,nan,nan,nan,nan,nan,nan,nan,nan,0.0,nan,nan,nan,nan,nan,nan,nan,nan,nan,nan,nan,nan,nan,nan,nan,nan,nan,nan,331.79385202517733,754.4566841785563,nan,755.0710728265112,nan,nan,nan,nan
1,295,0,0,0.0,1.0,0.6939081616001204,1.0,0,7,2,4,3,1,1.0,1.0,1.0,1.0,1.0,1.0,1.0,1.0,0.0,1.0,0.0,1.0,4.0,0.0,7.0,8.0,4.0,5.0,1.0,2.0,1.0,6.0,5.0,4.0,3.0,2.2782688325969502,1.2699635555618443,6.966164499288425,5.558687896816991,4.383079085033387,3.5677261684904806,331.79385202517733,755.4651342868456,756.2735954571399,756.1590424484457,764.2997694388614,765.310878399061,757.2904124242486,764.2914122734801
1,296,1,1,1.0,1.0,0.4183686007745564,0.0,5,6,4,7,2,8,nan,nan,nan,nan,nan,nan,nan,nan,nan,nan,nan,nan,0.0,nan,nan,nan,nan,nan,nan,nan,nan,nan,nan,nan,nan,nan,nan,nan,nan,nan,nan,331.79385202517733,765.5166132625309,nan,765.9349818633054,nan,nan,nan,nan
1,297,1,1,1.0,1.0,0.36987064115237445,0.0,8,2,7,1,4,3,nan,nan,nan,nan,nan,nan,nan,nan,nan,nan,nan,nan,0.0,nan,nan,nan,nan,nan,nan,nan,nan,nan,nan,nan,nan,nan,nan,nan,nan,nan,nan,331.79385202517733,766.5250967276515,nan,766.8949673688039,nan,nan,nan,nan
1,298,1,1,1.0,1.0,0.38539182423846796,0.0,0,1,6,8,7,4,nan,nan,nan,nan,nan,nan,nan,nan,nan,nan,nan,nan,0.0,nan,nan,nan,nan,nan,nan,nan,nan,nan,nan,nan,nan,nan,nan,nan,nan,nan,nan,331.79385202517733,767.533565367572,nan,767.9189571918105,nan,nan,nan,nan
1,299,1,1,1.0,1.0,0.38489147200016305,0.0,8,3,7,2,6,5,nan,nan,nan,nan,nan,nan,nan,nan,nan,nan,nan,nan,0.0,nan,nan,nan,nan,nan,nan,nan,nan,nan,nan,nan,nan,nan,nan,nan,nan,nan,nan,331.79385202517733,768.54206337285,nan,768.9269548448501,nan,nan,nan,nan
1,300,1,1,1.0,1.0,0.4084222824894823,0.0,7,6,1,3,4,0,nan,nan,nan,nan,nan,nan,nan,nan,nan,nan,nan,nan,0.0,nan,nan,nan,nan,nan,nan,nan,nan,nan,nan,nan,nan,nan,nan,nan,nan,nan,nan,331.79385202517733,769.5505228894763,nan,769.9589451719658,nan,nan,nan,nan
1,301,1,1,1.0,1.0,0.4719231116469018,0.0,1,0,2,5,6,8,nan,nan,nan,nan,nan,nan,nan,nan,nan,nan,nan,nan,0.0,nan,nan,nan,nan,nan,nan,nan,nan,nan,nan,nan,nan,nan,nan,nan,nan,nan,nan,331.79385202517733,770.5590134821832,nan,771.0309365938301,nan,nan,nan,nan
1,302,1,1,1.0,1.0,0.4874465756583959,0.0,0,7,6,4,2,1,nan,nan,nan,nan,nan,nan,nan,nan,nan,nan,nan,nan,0.0,nan,nan,nan,nan,nan,nan,nan,nan,nan,nan,nan,nan,nan,nan,nan,nan,nan,nan,331.79385202517733,771.567485543259,nan,772.0549321189173,nan,nan,nan,nan
1,303,1,1,1.0,1.0,0.3509422160568647,0.0,4,5,8,0,7,6,nan,nan,nan,nan,nan,nan,nan,nan,nan,nan,nan,nan,0.0,nan,nan,nan,nan,nan,nan,nan,nan,nan,nan,nan,nan,nan,nan,nan,nan,nan,nan,331.79385202517733,772.5759844038403,nan,772.9269266198971,nan,nan,nan,nan
1,304,0,0,0.0,1.0,0.534465431352146,0.0,1,0,6,7,2,4,nan,nan,nan,nan,nan,nan,nan,nan,nan,nan,nan,nan,0.0,nan,nan,nan,nan,nan,nan,nan,nan,nan,nan,nan,nan,nan,nan,nan,nan,nan,nan,331.79385202517733,773.5844453460304,nan,774.1189107773826,nan,nan,nan,nan
1,305,1,1,1.0,1.0,0.33397329004947096,0.0,3,2,4,5,1,6,nan,nan,nan,nan,nan,nan,nan,nan,nan,nan,nan,nan,0.0,nan,nan,nan,nan,nan,nan,nan,nan,nan,nan,nan,nan,nan,nan,nan,nan,nan,nan,331.79385202517733,774.5929316621623,nan,774.9269049522118,nan,nan,nan,nan
1,306,1,1,1.0,1.0,0.3414837055024691,0.0,1,0,6,2,4,5,nan,nan,nan,nan,nan,nan,nan,nan,nan,nan,nan,nan,0.0,nan,nan,nan,nan,nan,nan,nan,nan,nan,nan,nan,nan,nan,nan,nan,nan,nan,nan,331.79385202517733,775.601426816429,nan,775.9429105219315,nan,nan,nan,nan
1,307,1,1,1.0,1.0,0.38902115990640596,0.0,6,7,8,5,0,2,nan,nan,nan,nan,nan,nan,nan,nan,nan,nan,nan,nan,0.0,nan,nan,nan,nan,nan,nan,nan,nan,nan,nan,nan,nan,nan,nan,nan,nan,nan,nan,331.79385202517733,776.6098903245293,nan,776.9989114844357,nan,nan,nan,nan
1,308,1,1,1.0,1.0,0.34851914271712303,0.0,8,6,7,1,3,5,nan,nan,nan,nan,nan,nan,nan,nan,nan,nan,nan,nan,0.0,nan,nan,nan,nan,nan,nan,nan,nan,nan,nan,nan,nan,nan,nan,nan,nan,nan,nan,331.79385202517733,777.6183752151555,nan,777.9668943578727,nan,nan,nan,nan
1,309,1,1,1.0,1.0,0.43603488377993926,0.0,5,0,8,7,2,6,nan,nan,nan,nan,nan,nan,nan,nan,nan,nan,nan,nan,0.0,nan,nan,nan,nan,nan,nan,nan,nan,nan,nan,nan,nan,nan,nan,nan,nan,nan,nan,331.79385202517733,778.6268481315929,nan,779.0628830153728,nan,nan,nan,nan
1,310,1,1,1.0,1.0,0.4995548148290254,0.0,4,6,0,3,5,7,nan,nan,nan,nan,nan,nan,nan,nan,nan,nan,nan,nan,0.0,nan,nan,nan,nan,nan,nan,nan,nan,nan,nan,nan,nan,nan,nan,nan,nan,nan,nan,331.79385202517733,779.635314205545,nan,780.134869020374,nan,nan,nan,nan
1,311,1,1,1.0,1.0,0.3633925763424486,0.0,3,4,6,7,1,8,nan,nan,nan,nan,nan,nan,nan,nan,nan,nan,nan,nan,0.0,nan,nan,nan,nan,nan,nan,nan,nan,nan,nan,nan,nan,nan,nan,nan,nan,nan,nan,331.79385202517733,780.635476713127,nan,780.9988692894694,nan,nan,nan,nan
1,312,1,1,1.0,1.0,0.45090945792617276,0.0,0,5,7,3,2,4,nan,nan,nan,nan,nan,nan,nan,nan,nan,nan,nan,nan,0.0,nan,nan,nan,nan,nan,nan,nan,nan,nan,nan,nan,nan,nan,nan,nan,nan,nan,nan,331.79385202517733,781.6439550464274,nan,782.0948645043536,nan,nan,nan,nan
1,313,1,1,1.0,1.0,0.3304349015816115,0.0,6,7,0,5,3,2,nan,nan,nan,nan,nan,nan,nan,nan,nan,nan,nan,nan,0.0,nan,nan,nan,nan,nan,nan,nan,nan,nan,nan,nan,nan,nan,nan,nan,nan,nan,nan,331.79385202517733,782.6524236863479,nan,782.9828585879295,nan,nan,nan,nan
1,314,1,1,1.0,1.0,0.3139420942752622,0.0,3,6,2,1,8,7,nan,nan,nan,nan,nan,nan,nan,nan,nan,nan,nan,nan,0.0,nan,nan,nan,nan,nan,nan,nan,nan,nan,nan,nan,nan,nan,nan,nan,nan,nan,nan,331.79385202517733,783.6609125683899,nan,783.9748546626652,nan,nan,nan,nan
1,315,1,1,1.0,1.0,0.3374652070342563,0.0,2,3,1,7,6,0,nan,nan,nan,nan,nan,nan,nan,nan,nan,nan,nan,nan,0.0,nan,nan,nan,nan,nan,nan,nan,nan,nan,nan,nan,nan,nan,nan,nan,nan,nan,nan,331.79385202517733,784.6693749360275,nan,785.0068401430617,nan,nan,nan,nan
1,316,1,1,1.0,1.0,0.36896801134571433,0.0,4,7,0,2,3,8,nan,nan,nan,nan,nan,nan,nan,nan,nan,nan,nan,nan,0.0,nan,nan,nan,nan,nan,nan,nan,nan,nan,nan,nan,nan,nan,nan,nan,nan,nan,nan,331.79385202517733,785.6778680946445,nan,786.0468361059902,nan,nan,nan,nan
1,317,0,0,0.0,1.0,0.6245314008556306,0.0,2,1,3,8,6,7,nan,nan,nan,nan,nan,nan,nan,nan,nan,nan,nan,nan,0.0,nan,nan,nan,nan,nan,nan,nan,nan,nan,nan,nan,nan,nan,nan,nan,nan,nan,nan,331.79385202517733,786.686299671419,nan,787.3108310722746,nan,nan,nan,nan
1,318,1,1,1.0,1.0,0.4559962298371829,0.0,1,5,0,3,8,2,nan,nan,nan,nan,nan,nan,nan,nan,nan,nan,nan,nan,0.0,nan,nan,nan,nan,nan,nan,nan,nan,nan,nan,nan,nan,nan,nan,nan,nan,nan,nan,331.79385202517733,787.6948281824589,nan,788.1508244122961,nan,nan,nan,nan
1,319,1,1,1.0,1.0,0.5195073226932436,0.0,3,0,8,7,2,4,nan,nan,nan,nan,nan,nan,nan,nan,nan,nan,nan,nan,0.0,nan,nan,nan,nan,nan,nan,nan,nan,nan,nan,nan,nan,nan,nan,nan,nan,nan,nan,331.79385202517733,788.7033147837501,nan,789.2228221064433,nan,nan,nan,nan
1,320,1,1,1.0,1.0,0.5030333320028149,0.0,8,2,1,0,6,3,nan,nan,nan,nan,nan,nan,nan,nan,nan,nan,nan,nan,0.0,nan,nan,nan,nan,nan,nan,nan,nan,nan,nan,nan,nan,nan,nan,nan,nan,nan,nan,331.79385202517733,789.7117811428034,nan,790.2148144748062,nan,nan,nan,nan
1,321,1,1,1.0,1.0,0.49487602239241824,0.0,7,4,0,5,3,2,nan,nan,nan,nan,nan,nan,nan,nan,nan,nan,nan,nan,0.0,nan,nan,nan,nan,nan,nan,nan,nan,nan,nan,nan,nan,nan,nan,nan,nan,nan,nan,331.79385202517733,790.711935952655,nan,791.2068119750475,nan,nan,nan,nan
1,322,1,1,1.0,1.0,0.47838891710853204,0.0,1,6,2,4,8,0,nan,nan,nan,nan,nan,nan,nan,nan,nan,nan,nan,nan,0.0,nan,nan,nan,nan,nan,nan,nan,nan,nan,nan,nan,nan,nan,nan,nan,nan,nan,nan,331.79385202517733,791.7204105796409,nan,792.1987994967494,nan,nan,nan,nan
1,323,1,1,1.0,1.0,0.39822792628547177,0.0,7,3,8,1,0,2,nan,nan,nan,nan,nan,nan,nan,nan,nan,nan,nan,nan,0.0,nan,nan,nan,nan,nan,nan,nan,nan,nan,nan,nan,nan,nan,nan,nan,nan,nan,nan,331.79385202517733,792.7205554109532,nan,793.1187833372387,nan,nan,nan,nan
1,324,1,1,1.0,1.0,0.48574366740649566,0.0,6,4,0,2,5,1,nan,nan,nan,nan,nan,nan,nan,nan,nan,nan,nan,nan,0.0,nan,nan,nan,nan,nan,nan,nan,nan,nan,nan,nan,nan,nan,nan,nan,nan,nan,nan,331.79385202517733,793.7290357400198,nan,794.2147794074262,nan,nan,nan,nan
1,325,1,1,1.0,1.0,0.4532470009289682,0.0,1,6,8,4,7,3,nan,nan,nan,nan,nan,nan,nan,nan,nan,nan,nan,nan,0.0,nan,nan,nan,nan,nan,nan,nan,nan,nan,nan,nan,nan,nan,nan,nan,nan,nan,nan,331.79385202517733,794.7375314644887,nan,795.1907784654177,nan,nan,nan,nan
1,326,1,1,1.0,1.0,0.41279573168139905,0.0,4,3,7,2,5,8,nan,nan,nan,nan,nan,nan,nan,nan,nan,nan,nan,nan,0.0,nan,nan,nan,nan,nan,nan,nan,nan,nan,nan,nan,nan,nan,nan,nan,nan,nan,nan,331.79385202517733,795.7459738751058,nan,796.1587696067872,nan,nan,nan,nan
1,327,1,1,1.0,1.0,0.4203109938534908,0.0,7,0,2,3,1,5,nan,nan,nan,nan,nan,nan,nan,nan,nan,nan,nan,nan,0.0,nan,nan,nan,nan,nan,nan,nan,nan,nan,nan,nan,nan,nan,nan,nan,nan,nan,nan,331.79385202517733,796.7544621869456,nan,797.1747731807991,nan,nan,nan,nan
1,328,1,1,1.0,1.0,0.45214651111746207,0.0,8,3,1,2,7,4,nan,nan,nan,nan,nan,nan,nan,nan,nan,nan,nan,nan,0.0,nan,nan,nan,nan,nan,nan,nan,nan,nan,nan,nan,nan,nan,nan,nan,nan,nan,nan,331.79385202517733,797.7546204180107,nan,798.2067669291282,nan,nan,nan,nan
1,329,1,1,1.0,1.0,0.3556905730511062,0.0,4,5,0,7,3,2,nan,nan,nan,nan,nan,nan,nan,nan,nan,nan,nan,nan,0.0,nan,nan,nan,nan,nan,nan,nan,nan,nan,nan,nan,nan,nan,nan,nan,nan,nan,nan,331.79385202517733,798.7630901982775,nan,799.1187807713286,nan,nan,nan,nan
1,330,1,1,1.0,1.0,0.33918436599196866,0.0,5,4,1,3,8,0,nan,nan,nan,nan,nan,nan,nan,nan,nan,nan,nan,nan,0.0,nan,nan,nan,nan,nan,nan,nan,nan,nan,nan,nan,nan,nan,nan,nan,nan,nan,nan,331.79385202517733,799.7715685315779,nan,800.1107528975699,nan,nan,nan,nan
1,331,0,0,0.0,1.0,0.7146908835275099,1.0,3,1,5,6,4,7,1.0,1.0,1.0,1.0,1.0,1.0,1.0,0.0,0.0,0.0,1.0,0.0,2.0,3.0,3.0,8.0,0.0,4.0,8.0,2.0,1.0,6.0,5.0,4.0,3.0,4.763547500246204,2.141154927026946,10.474621877714526,9.963177496159915,8.930498365079984,8.267624016792979,331.79385202517733,800.780050001049,801.5884712571278,801.4947408845765,813.11512634682,814.122996844817,802.6052879391937,813.1068019680097
1,332,1,1,1.0,1.0,0.25067362235859036,0.0,4,7,2,0,1,8,nan,nan,nan,nan,nan,nan,nan,nan,nan,nan,nan,nan,0.0,nan,nan,nan,nan,nan,nan,nan,nan,nan,nan,nan,nan,nan,nan,nan,nan,nan,nan,331.79385202517733,814.3320012465119,nan,814.5826748688705,nan,nan,nan,nan
1,333,1,1,1.0,1.0,0.5381572041078471,0.0,0,4,1,3,2,7,nan,nan,nan,nan,nan,nan,nan,nan,nan,nan,nan,nan,0.0,nan,nan,nan,nan,nan,nan,nan,nan,nan,nan,nan,nan,nan,nan,nan,nan,nan,nan,331.79385202517733,815.3404841414304,nan,815.8786413455382,nan,nan,nan,nan
1,334,1,1,1.0,1.0,0.417685498832725,0.0,2,7,6,0,1,8,nan,nan,nan,nan,nan,nan,nan,nan,nan,nan,nan,nan,0.0,nan,nan,nan,nan,nan,nan,nan,nan,nan,nan,nan,nan,nan,nan,nan,nan,nan,nan,331.79385202517733,816.348951355787,nan,816.7666368546197,nan,nan,nan,nan
1,335,1,1,1.0,1.0,0.4011949722771533,0.0,8,5,3,1,2,0,nan,nan,nan,nan,nan,nan,nan,nan,nan,nan,nan,nan,0.0,nan,nan,nan,nan,nan,nan,nan,nan,nan,nan,nan,nan,nan,nan,nan,nan,nan,nan,331.79385202517733,817.3574436591007,nan,817.7586386313778,nan,nan,nan,nan
1,336,1,1,1.0,1.0,0.3687142715207301,0.0,3,1,4,6,7,8,nan,nan,nan,nan,nan,nan,nan,nan,nan,nan,nan,nan,0.0,nan,nan,nan,nan,nan,nan,nan,nan,nan,nan,nan,nan,nan,nan,nan,nan,nan,nan,331.79385202517733,818.3659134393674,nan,818.7346277108882,nan,nan,nan,nan
1,337,1,1,1.0,1.0,0.3122366201132536,0.0,7,3,8,4,6,2,nan,nan,nan,nan,nan,nan,nan,nan,nan,nan,nan,nan,0.0,nan,nan,nan,nan,nan,nan,nan,nan,nan,nan,nan,nan,nan,nan,nan,nan,nan,nan,331.79385202517733,819.374377802771,nan,819.6866144228843,nan,nan,nan,nan
1,338,1,1,1.0,1.0,0.335734358872287,0.0,4,5,1,2,3,6,nan,nan,nan,nan,nan,nan,nan,nan,nan,nan,nan,nan,0.0,nan,nan,nan,nan,nan,nan,nan,nan,nan,nan,nan,nan,nan,nan,nan,nan,nan,nan,331.79385202517733,820.3828820802737,nan,820.718616439146,nan,nan,nan,nan
1,339,1,1,1.0,1.0,0.3352685038698837,0.0,8,6,4,0,1,7,nan,nan,nan,nan,nan,nan,nan,nan,nan,nan,nan,nan,0.0,nan,nan,nan,nan,nan,nan,nan,nan,nan,nan,nan,nan,nan,nan,nan,nan,nan,nan,331.79385202517733,821.3913490095292,nan,821.7266175133991,nan,nan,nan,nan
1,340,1,1,1.0,1.0,0.3747675357735716,0.0,0,8,7,3,5,6,nan,nan,nan,nan,nan,nan,nan,nan,nan,nan,nan,nan,0.0,nan,nan,nan,nan,nan,nan,nan,nan,nan,nan,nan,nan,nan,nan,nan,nan,nan,nan,331.79385202517733,822.3998398873373,nan,822.7746074231109,nan,nan,nan,nan
1,341,1,1,1.0,1.0,0.30226635333383456,0.0,3,1,5,0,8,2,nan,nan,nan,nan,nan,nan,nan,nan,nan,nan,nan,nan,0.0,nan,nan,nan,nan,nan,nan,nan,nan,nan,nan,nan,nan,nan,nan,nan,nan,nan,nan,331.79385202517733,823.408335041604,nan,823.7106013949378,nan,nan,nan,nan
1,342,1,1,1.0,1.0,0.3177841152646579,0.0,5,2,7,3,1,4,nan,nan,nan,nan,nan,nan,nan,nan,nan,nan,nan,nan,0.0,nan,nan,nan,nan,nan,nan,nan,nan,nan,nan,nan,nan,nan,nan,nan,nan,nan,nan,331.79385202517733,824.4168321915786,nan,824.7346163068432,nan,nan,nan,nan
1,343,1,1,1.0,1.0,0.32530564960325137,0.0,7,1,4,8,6,5,nan,nan,nan,nan,nan,nan,nan,nan,nan,nan,nan,nan,0.0,nan,nan,nan,nan,nan,nan,nan,nan,nan,nan,nan,nan,nan,nan,nan,nan,nan,nan,331.79385202517733,825.4252791638137,nan,825.7505848134169,nan,nan,nan,nan
1,344,0,0,0.0,1.0,0.6208153945626691,1.0,6,2,8,0,3,1,1.0,1.0,1.0,1.0,1.0,1.0,1.0,1.0,1.0,0.0,0.0,1.0,4.0,6.0,2.0,8.0,3.0,2.0,1.0,2.0,1.0,6.0,5.0,4.0,3.0,2.775262014940381,1.32735124923056,7.7730727244052105,7.029279301757924,5.7578774116700515,4.590262831770815,331.79385202517733,826.4337517950917,827.2421818893054,827.0545671896543,836.0601106933318,837.0704658465111,828.250653380237,836.0517831784673
1,345,1,1,1.0,1.0,0.32956249255221337,0.0,0,8,3,4,2,7,nan,nan,nan,nan,nan,nan,nan,nan,nan,nan,nan,nan,0.0,nan,nan,nan,nan,nan,nan,nan,nan,nan,nan,nan,nan,nan,nan,nan,nan,nan,nan,331.79385202517733,837.2769545170013,nan,837.6065170095535,nan,nan,nan,nan
1,346,1,1,1.0,1.0,0.5370361870154738,0.0,6,0,7,1,5,3,nan,nan,nan,nan,nan,nan,nan,nan,nan,nan,nan,nan,0.0,nan,nan,nan,nan,nan,nan,nan,nan,nan,nan,nan,nan,nan,nan,nan,nan,nan,nan,331.79385202517733,838.2854593647062,nan,838.8224955517217,nan,nan,nan,nan
1,347,1,1,1.0,1.0,0.5765816904022358,0.0,3,7,5,6,4,2,nan,nan,nan,nan,nan,nan,nan,nan,nan,nan,nan,nan,0.0,nan,nan,nan,nan,nan,nan,nan,nan,nan,nan,nan,nan,nan,nan,nan,nan,nan,nan,331.79385202517733,839.2939163154806,nan,839.8704980058828,nan,nan,nan,nan
1,348,1,1,1.0,1.0,0.5920028031105176,0.0,8,1,0,2,6,7,nan,nan,nan,nan,nan,nan,nan,nan,nan,nan,nan,nan,0.0,nan,nan,nan,nan,nan,nan,nan,nan,nan,nan,nan,nan,nan,nan,nan,nan,nan,nan,331.79385202517733,840.3024830301292,nan,840.8944858332397,nan,nan,nan,nan
1,349,0,0,0.0,1.0,0.5998533440870233,1.0,5,7,2,0,4,3,1.0,1.0,1.0,1.0,1.0,1.0,0.0,0.0,1.0,1.0,1.0,0.0,3.0,3.0,8.0,2.0,0.0,4.0,7.0,5.0,6.0,2.0,1.0,3.0,4.0,5.2968092351802625,6.048505372251384,2.466433777124621,1.5295730982907116,3.4902308718883432,4.553019518847577,331.79385202517733,841.3026147467317,842.1109952334082,841.9024680908187,849.203669021721,850.205593168328,843.1194724263623,849.1953380855848
1,350,1,1,1.0,1.0,0.266238140873611,0.0,1,0,6,7,5,2,nan,nan,nan,nan,nan,nan,nan,nan,nan,nan,nan,nan,0.0,nan,nan,nan,nan,nan,nan,nan,nan,nan,nan,nan,nan,nan,nan,nan,nan,nan,nan,331.79385202517733,850.4121901771869,nan,850.6784283180605,nan,nan,nan,nan
1,351,1,1,1.0,1.0,0.30571464978856966,0.0,2,1,0,3,8,5,nan,nan,nan,nan,nan,nan,nan,nan,nan,nan,nan,nan,0.0,nan,nan,nan,nan,nan,nan,nan,nan,nan,nan,nan,nan,nan,nan,nan,nan,nan,nan,331.79385202517733,851.4206955951522,nan,851.7264102449408,nan,nan,nan,nan
1,352,1,1,1.0,1.0,0.30521144659724087,0.0,5,6,7,2,1,0,nan,nan,nan,nan,nan,nan,nan,nan,nan,nan,nan,nan,0.0,nan,nan,nan,nan,nan,nan,nan,nan,nan,nan,nan,nan,nan,nan,nan,nan,nan,nan,331.79385202517733,852.4291776347673,nan,852.7343890813645,nan,nan,nan,nan
1,353,1,1,1.0,1.0,0.25674513314152136,0.0,7,4,2,0,5,6,nan,nan,nan,nan,nan,nan,nan,nan,nan,nan,nan,nan,0.0,nan,nan,nan,nan,nan,nan,nan,nan,nan,nan,nan,nan,nan,nan,nan,nan,nan,nan,331.79385202517733,853.4376511213486,nan,853.6943962544901,nan,nan,nan,nan
1,354,1,1,1.0,1.0,0.2962655476294458,0.0,4,5,3,1,0,2,nan,nan,nan,nan,nan,nan,nan,nan,nan,nan,nan,nan,0.0,nan,nan,nan,nan,nan,nan,nan,nan,nan,nan,nan,nan,nan,nan,nan,nan,nan,nan,331.79385202517733,854.4461206165724,nan,854.7423861642019,nan,nan,nan,nan
1,355,1,1,1.0,1.0,0.319775260577444,0.0,0,1,4,2,8,3,nan,nan,nan,nan,nan,nan,nan,nan,nan,nan,nan,nan,0.0,nan,nan,nan,nan,nan,nan,nan,nan,nan,nan,nan,nan,nan,nan,nan,nan,nan,nan,331.79385202517733,855.4546043667942,nan,855.7743796273717,nan,nan,nan,nan
1,356,1,1,1.0,1.0,0.27929348550969735,0.0,8,7,3,0,1,6,nan,nan,nan,nan,nan,nan,nan,nan,nan,nan,nan,nan,0.0,nan,nan,nan,nan,nan,nan,nan,nan,nan,nan,nan,nan,nan,nan,nan,nan,nan,nan,331.79385202517733,856.4630812746473,nan,856.742374760157,nan,nan,nan,nan
1,357,1,1,1.0,1.0,0.3587984589394182,0.0,2,4,1,8,6,5,nan,nan,nan,nan,nan,nan,nan,nan,nan,nan,nan,nan,0.0,nan,nan,nan,nan,nan,nan,nan,nan,nan,nan,nan,nan,nan,nan,nan,nan,nan,nan,331.79385202517733,857.4715664503747,nan,857.8303649093141,nan,nan,nan,nan
1,358,1,1,1.0,1.0,0.3343202579417266,0.0,0,6,3,7,4,1,nan,nan,nan,nan,nan,nan,nan,nan,nan,nan,nan,nan,0.0,nan,nan,nan,nan,nan,nan,nan,nan,nan,nan,nan,nan,nan,nan,nan,nan,nan,nan,331.79385202517733,858.4800365157425,nan,858.8143567736843,nan,nan,nan,nan
1,359,0,0,0.0,1.0,0.7018202843028121,1.0,6,3,2,0,5,7,1.0,1.0,1.0,1.0,1.0,1.0,1.0,1.0,0.0,0.0,0.0,1.0,3.0,6.0,3.0,4.0,2.0,4.0,7.0,2.0,1.0,4.0,5.0,6.0,3.0,2.6465126873808913,1.8001102770795114,5.118083129171282,5.7177135242382064,6.294096499274019,3.6216647104010917,331.79385202517733,859.4885285339551,860.2969515006407,860.1903488182579,867.647999774199,868.6446863304591,861.3137758804369,867.6396705487277
1,360,1,1,1.0,1.0,0.39811274548992515,0.0,7,0,6,4,1,3,nan,nan,nan,nan,nan,nan,nan,nan,nan,nan,nan,nan,0.0,nan,nan,nan,nan,nan,nan,nan,nan,nan,nan,nan,nan,nan,nan,nan,nan,nan,nan,331.79385202517733,868.8482039635419,nan,869.2463167090318,nan,nan,nan,nan
1,361,0,0,0.0,1.0,0.6455980833852664,1.0,6,7,4,0,3,5,1.0,1.0,1.0,1.0,1.0,1.0,0.0,1.0,1.0,1.0,0.0,0.0,3.0,5.0,7.0,4.0,0.0,0.0,8.0,6.0,3.0,1.0,2.0,5.0,4.0,6.4137391308904625,2.6298188838991337,1.1110391389229335,1.888000640901737,4.918101603689138,4.12624956201762,331.79385202517733,869.856685718114,870.6651160974288,870.5022838014993,878.1328462288366,879.1434260415263,871.68192650727,878.1245152927004
1,362,1,1,1.0,1.0,0.5125192122650333,0.0,5,1,6,2,0,8,nan,nan,nan,nan,nan,nan,nan,nan,nan,nan,nan,nan,0.0,nan,nan,nan,nan,nan,nan,nan,nan,nan,nan,nan,nan,nan,nan,nan,nan,nan,nan,331.79385202517733,879.3497194178635,nan,879.8622386301286,nan,nan,nan,nan
1,363,1,1,1.0,1.0,0.3680414331611246,0.0,2,0,7,4,8,5,nan,nan,nan,nan,nan,nan,nan,nan,nan,nan,nan,nan,0.0,nan,nan,nan,nan,nan,nan,nan,nan,nan,nan,nan,nan,nan,nan,nan,nan,nan,nan,331.79385202517733,880.3581766537391,nan,880.7262180869002,nan,nan,nan,nan
1,364,1,1,1.0,1.0,0.5035356799489819,0.0,4,2,3,0,1,6,nan,nan,nan,nan,nan,nan,nan,nan,nan,nan,nan,nan,0.0,nan,nan,nan,nan,nan,nan,nan,nan,nan,nan,nan,nan,nan,nan,nan,nan,nan,nan,331.79385202517733,881.3666743739159,nan,881.8702100538649,nan,nan,nan,nan
1,365,0,0,0.0,1.0,0.6713692174525931,0.0,0,6,1,8,7,2,nan,nan,nan,nan,nan,nan,nan,nan,nan,nan,nan,nan,0.0,nan,nan,nan,nan,nan,nan,nan,nan,nan,nan,nan,nan,nan,nan,nan,nan,nan,nan,331.79385202517733,882.3668397325091,nan,883.0382089499617,nan,nan,nan,nan
1,366,1,1,1.0,1.0,0.6468630765448324,0.0,8,1,7,2,5,0,nan,nan,nan,nan,nan,nan,nan,nan,nan,nan,nan,nan,0.0,nan,nan,nan,nan,nan,nan,nan,nan,nan,nan,nan,nan,nan,nan,nan,nan,nan,nan,331.79385202517733,883.3753286145511,nan,884.0221916910959,nan,nan,nan,nan
1,367,1,1,1.0,1.0,0.6464188891695812,0.0,4,2,1,3,0,6,nan,nan,nan,nan,nan,nan,nan,nan,nan,nan,nan,nan,0.0,nan,nan,nan,nan,nan,nan,nan,nan,nan,nan,nan,nan,nan,nan,nan,nan,nan,nan,331.79385202517733,884.3837735910784,nan,885.0301924802479,nan,nan,nan,nan
1,368,1,1,1.0,1.0,0.5259203843888827,0.0,2,1,8,0,7,3,nan,nan,nan,nan,nan,nan,nan,nan,nan,nan,nan,nan,0.0,nan,nan,nan,nan,nan,nan,nan,nan,nan,nan,nan,nan,nan,nan,nan,nan,nan,nan,331.79385202517733,885.392266179435,nan,885.9181865638238,nan,nan,nan,nan
1,369,0,0,0.0,1.0,0.6857688133022748,1.0,3,6,1,2,4,5,1.0,1.0,1.0,1.0,1.0,1.0,0.0,1.0,1.0,1.0,1.0,0.0,4.0,6.0,6.0,1.0,2.0,4.0,0.0,6.0,1.0,2.0,3.0,4.0,5.0,6.5015422538272105,1.4724608121905476,2.2306187632493675,3.3904392522526905,4.7909662329475395,5.438307423843071,331.79385202517733,886.3924212743877,887.2008362582419,887.07819008769,894.7602514476748,895.7573268816923,888.2176173026673,894.7519199413946
1,370,1,1,1.0,1.0,0.4456695867702365,0.0,4,2,8,7,5,1,nan,nan,nan,nan,nan,nan,nan,nan,nan,nan,nan,nan,0.0,nan,nan,nan,nan,nan,nan,nan,nan,nan,nan,nan,nan,nan,nan,nan,nan,nan,nan,331.79385202517733,895.9604647602537,nan,896.4061343470239,nan,nan,nan,nan
1,371,1,1,1.0,1.0,0.5731385257677175,0.0,8,4,7,5,1,3,nan,nan,nan,nan,nan,nan,nan,nan,nan,nan,nan,nan,0.0,nan,nan,nan,nan,nan,nan,nan,nan,nan,nan,nan,nan,nan,nan,nan,nan,nan,nan,331.79385202517733,896.9689607698238,nan,897.5420992955915,nan,nan,nan,nan
1,372,1,1,1.0,1.0,0.6289997887797654,0.0,6,5,4,0,3,8,nan,nan,nan,nan,nan,nan,nan,nan,nan,nan,nan,nan,0.0,nan,nan,nan,nan,nan,nan,nan,nan,nan,nan,nan,nan,nan,nan,nan,nan,nan,nan,331.79385202517733,897.9690924864844,nan,898.5980922752642,nan,nan,nan,nan
1,373,1,1,1.0,1.0,0.6047684851801023,0.0,2,3,7,1,0,5,nan,nan,nan,nan,nan,nan,nan,nan,nan,nan,nan,nan,0.0,nan,nan,nan,nan,nan,nan,nan,nan,nan,nan,nan,nan,nan,nan,nan,nan,nan,nan,331.79385202517733,898.9775579902926,nan,899.5823264754727,nan,nan,nan,nan
1,374,1,1,nan,nan,nan,0.0,4,0,2,6,5,3,nan,nan,nan,nan,nan,nan,nan,nan,nan,nan,nan,nan,0.0,nan,nan,nan,nan,nan,nan,nan,nan,nan,nan,nan,nan,nan,nan,nan,nan,nan,nan,331.79385202517733,899.9860388895031,nan,nan,nan,nan,nan,nan
1,375,1,1,1.0,1.0,0.6839053932344541,0.0,3,2,0,4,7,8,nan,nan,nan,nan,nan,nan,nan,nan,nan,nan,nan,nan,0.0,nan,nan,nan,nan,nan,nan,nan,nan,nan,nan,nan,nan,nan,nan,nan,nan,nan,nan,331.79385202517733,900.9862156521413,nan,901.6701210453757,nan,nan,nan,nan
1,376,1,1,nan,nan,nan,0.0,5,6,1,8,3,0,nan,nan,nan,nan,nan,nan,nan,nan,nan,nan,nan,nan,0.0,nan,nan,nan,nan,nan,nan,nan,nan,nan,nan,nan,nan,nan,nan,nan,nan,nan,nan,331.79385202517733,901.9946666157339,nan,nan,nan,nan,nan,nan
1,377,1,1,nan,nan,nan,0.0,4,5,7,2,6,8,nan,nan,nan,nan,nan,nan,nan,nan,nan,nan,nan,nan,0.0,nan,nan,nan,nan,nan,nan,nan,nan,nan,nan,nan,nan,nan,nan,nan,nan,nan,nan,331.79385202517733,903.0031358258566,nan,nan,nan,nan,nan,nan
1,378,1,1,1.0,1.0,0.17045846238033846,0.0,5,1,0,3,7,6,nan,nan,nan,nan,nan,nan,nan,nan,nan,nan,nan,nan,0.0,nan,nan,nan,nan,nan,nan,nan,nan,nan,nan,nan,nan,nan,nan,nan,nan,nan,nan,331.79385202517733,904.0116190058761,nan,904.1820774682565,nan,nan,nan,nan
1,379,1,1,1.0,1.0,0.5539575011353008,0.0,1,3,8,4,5,0,nan,nan,nan,nan,nan,nan,nan,nan,nan,nan,nan,nan,0.0,nan,nan,nan,nan,nan,nan,nan,nan,nan,nan,nan,nan,nan,nan,nan,nan,nan,nan,331.79385202517733,905.0200970541337,nan,905.574054555269,nan,nan,nan,nan
1,380,1,1,1.0,1.0,0.5054837750503793,0.0,6,7,5,1,2,8,nan,nan,nan,nan,nan,nan,nan,nan,nan,nan,nan,nan,0.0,nan,nan,nan,nan,nan,nan,nan,nan,nan,nan,nan,nan,nan,nan,nan,nan,nan,nan,331.79385202517733,906.0285562856589,nan,906.5340400607092,nan,nan,nan,nan
1,381,1,1,1.0,1.0,0.5769833977101371,0.0,3,4,6,2,8,7,nan,nan,nan,nan,nan,nan,nan,nan,nan,nan,nan,nan,0.0,nan,nan,nan,nan,nan,nan,nan,nan,nan,nan,nan,nan,nan,nan,nan,nan,nan,nan,331.79385202517733,907.037059422757,nan,907.6140428204671,nan,nan,nan,nan
