block,trial,freq_trials,correct_response,actual_response,acc,rts,probe_trials,trials_colorind0,trials_colorind1,trials_colorind2,trials_colorind3,trials_colorind4,trials_colorind5,wholereport_resp0,wholereport_resp1,wholereport_resp2,wholereport_resp3,wholereport_resp4,wholereport_resp5,wholereport_respacc0,wholereport_respacc1,wholereport_respacc2,wholereport_respacc3,wholereport_respacc4,wholereport_respacc5,wholereport_respacc_total,wholereport_respcolorind0,wholereport_respcolorind1,wholereport_respcolorind2,wholereport_respcolorind3,wholereport_respcolorind4,wholereport_respcolorind5,wholereport_resporder0,wholereport_resporder1,wholereport_resporder2,wholereport_resporder3,wholereport_resporder4,wholereport_resporder5,wholereport_rts0,wholereport_rts1,wholereport_rts2,wholereport_rts3,wholereport_rts4,wholereport_rts5,time_blockstart,time_encarray_offset,time_encarray_onset,time_response,time_iti_offset,time_iti_onset,time_memprobe_offset,time_memprobe_onset
1,1,1,1,1.0,1.0,0.3106371987378225,0,7,3,6,1,0,5,nan,nan,nan,nan,nan,nan,nan,nan,nan,nan,nan,nan,0.0,nan,nan,nan,nan,nan,nan,nan,nan,nan,nan,nan,nan,nan,nan,nan,nan,nan,nan,161.41350164660253,162.43885212263558,nan,162.7494893213734,nan,nan,nan,nan
1,2,1,1,1.0,1.0,0.4060463788919151,0,3,4,1,5,0,2,nan,nan,nan,nan,nan,nan,nan,nan,nan,nan,nan,nan,0.0,nan,nan,nan,nan,nan,nan,nan,nan,nan,nan,nan,nan,nan,nan,nan,nan,nan,nan,161.41350164660253,163.44746459613089,nan,163.8535109750228,nan,nan,nan,nan
1,3,1,1,1.0,1.0,0.3499850466614589,0,0,5,6,3,4,7,nan,nan,nan,nan,nan,nan,nan,nan,nan,nan,nan,nan,0.0,nan,nan,nan,nan,nan,nan,nan,nan,nan,nan,nan,nan,nan,nan,nan,nan,nan,nan,161.41350164660253,164.44745062640868,nan,164.79743567307014,nan,nan,nan,nan
1,4,1,1,1.0,1.0,0.4458446790231392,0,2,0,4,1,7,8,nan,nan,nan,nan,nan,nan,nan,nan,nan,nan,nan,nan,0.0,nan,nan,nan,nan,nan,nan,nan,nan,nan,nan,nan,nan,nan,nan,nan,nan,nan,nan,161.41350164660253,165.44757065188605,nan,165.8934153309092,nan,nan,nan,nan
1,5,0,0,0.0,1.0,0.37368909164797515,0,4,3,5,6,1,0,nan,nan,nan,nan,nan,nan,nan,nan,nan,nan,nan,nan,0.0,nan,nan,nan,nan,nan,nan,nan,nan,nan,nan,nan,nan,nan,nan,nan,nan,nan,nan,161.41350164660253,166.44769723468926,nan,166.82138632633723,nan,nan,nan,nan
1,6,1,1,1.0,1.0,0.32555970805697143,0,8,6,1,5,3,7,nan,nan,nan,nan,nan,nan,nan,nan,nan,nan,nan,nan,0.0,nan,nan,nan,nan,nan,nan,nan,nan,nan,nan,nan,nan,nan,nan,nan,nan,nan,nan,161.41350164660253,167.44782666838728,nan,167.77338637644425,nan,nan,nan,nan
1,7,1,1,1.0,1.0,0.29340426914859563,0,2,3,8,6,0,4,nan,nan,nan,nan,nan,nan,nan,nan,nan,nan,nan,nan,0.0,nan,nan,nan,nan,nan,nan,nan,nan,nan,nan,nan,nan,nan,nan,nan,nan,nan,nan,161.41350164660253,168.44795268087182,nan,168.74135695002042,nan,nan,nan,nan
1,8,1,1,1.0,1.0,0.28523141413461417,0,1,8,6,4,3,5,nan,nan,nan,nan,nan,nan,nan,nan,nan,nan,nan,nan,0.0,nan,nan,nan,nan,nan,nan,nan,nan,nan,nan,nan,nan,nan,nan,nan,nan,nan,nan,161.41350164660253,169.44809579919092,nan,169.73332721332554,nan,nan,nan,nan
1,9,1,1,1.0,1.0,0.5010877848835662,0,7,2,4,0,1,8,nan,nan,nan,nan,nan,nan,nan,nan,nan,nan,nan,nan,0.0,nan,nan,nan,nan,nan,nan,nan,nan,nan,nan,nan,nan,nan,nan,nan,nan,nan,nan,161.41350164660253,170.44821268867236,nan,170.94930047355592,nan,nan,nan,nan
1,10,1,1,1.0,1.0,0.3889326194766909,0,6,5,7,3,0,1,nan,nan,nan,nan,nan,nan,nan,nan,nan,nan,nan,nan,0.0,nan,nan,nan,nan,nan,nan,nan,nan,nan,nan,nan,nan,nan,nan,nan,nan,nan,nan,161.41350164660253,171.44833927147556,nan,171.83727189095225,nan,nan,nan,nan
1,11,1,1,1.0,1.0,0.3727964551653713,0,5,1,8,6,3,0,nan,nan,nan,nan,nan,nan,nan,nan,nan,nan,nan,nan,0.0,nan,nan,nan,nan,nan,nan,nan,nan,nan,nan,nan,nan,nan,nan,nan,nan,nan,nan,161.41350164660253,172.44845673115924,nan,172.8212531863246,nan,nan,nan,nan
1,12,1,1,1.0,1.0,0.40463942871429026,0,2,4,6,7,5,1,nan,nan,nan,nan,nan,nan,nan,nan,nan,nan,nan,nan,0.0,nan,nan,nan,nan,nan,nan,nan,nan,nan,nan,nan,nan,nan,nan,nan,nan,nan,nan,161.41350164660253,173.44860726199113,nan,173.85324669070542,nan,nan,nan,nan
1,13,1,1,1.0,1.0,0.3244709254940972,0,4,0,3,1,2,6,nan,nan,nan,nan,nan,nan,nan,nan,nan,nan,nan,nan,0.0,nan,nan,nan,nan,nan,nan,nan,nan,nan,nan,nan,nan,nan,nan,nan,nan,nan,nan,161.41350164660253,174.44873412977904,nan,174.77320505527314,nan,nan,nan,nan
1,14,1,1,1.0,1.0,0.3163257248234004,0,0,3,5,2,8,4,nan,nan,nan,nan,nan,nan,nan,nan,nan,nan,nan,nan,0.0,nan,nan,nan,nan,nan,nan,nan,nan,nan,nan,nan,nan,nan,nan,nan,nan,nan,nan,161.41350164660253,175.44885101926047,nan,175.76517674408387,nan,nan,nan,nan
1,15,1,1,1.0,1.0,0.3161737684858963,0,3,0,1,8,5,7,nan,nan,nan,nan,nan,nan,nan,nan,nan,nan,nan,nan,0.0,nan,nan,nan,nan,nan,nan,nan,nan,nan,nan,nan,nan,nan,nan,nan,nan,nan,nan,161.41350164660253,176.44898986117914,nan,176.76516362966504,nan,nan,nan,nan
1,16,1,1,1.0,1.0,0.2596964808180928,0,8,6,0,2,4,1,nan,nan,nan,nan,nan,nan,nan,nan,nan,nan,nan,nan,0.0,nan,nan,nan,nan,nan,nan,nan,nan,nan,nan,nan,nan,nan,nan,nan,nan,nan,nan,161.41350164660253,177.45744439132977,nan,177.71714087214787,nan,nan,nan,nan
1,17,1,1,1.0,1.0,0.29955008963588625,0,3,5,4,6,0,2,nan,nan,nan,nan,nan,nan,nan,nan,nan,nan,nan,nan,0.0,nan,nan,nan,nan,nan,nan,nan,nan,nan,nan,nan,nan,nan,nan,nan,nan,nan,nan,161.41350164660253,178.45757040381432,nan,178.7571204934502,nan,nan,nan,nan
1,18,0,0,1.0,0.0,0.31504820846021175,0,7,8,5,4,1,0,nan,nan,nan,nan,nan,nan,nan,nan,nan,nan,nan,nan,0.0,nan,nan,nan,nan,nan,nan,nan,nan,nan,nan,nan,nan,nan,nan,nan,nan,nan,nan,161.41350164660253,179.46604432049207,nan,179.78109252895229,nan,nan,nan,nan
1,19,1,1,1.0,1.0,0.3709005650598556,0,0,4,7,3,2,5,nan,nan,nan,nan,nan,nan,nan,nan,nan,nan,nan,nan,0.0,nan,nan,nan,nan,nan,nan,nan,nan,nan,nan,nan,nan,nan,nan,nan,nan,nan,nan,161.41350164660253,180.46616206527688,nan,180.83706263033673,nan,nan,nan,nan
1,20,1,1,1.0,1.0,0.36242436757311225,0,6,5,3,7,4,8,nan,nan,nan,nan,nan,nan,nan,nan,nan,nan,nan,nan,0.0,nan,nan,nan,nan,nan,nan,nan,nan,nan,nan,nan,nan,nan,nan,nan,nan,nan,nan,161.41350164660253,181.47461688052863,nan,181.83704124810174,nan,nan,nan,nan
1,21,1,1,1.0,1.0,0.37026936176698655,0,8,7,0,2,5,6,nan,nan,nan,nan,nan,nan,nan,nan,nan,nan,nan,nan,0.0,nan,nan,nan,nan,nan,nan,nan,nan,nan,nan,nan,nan,nan,nan,nan,nan,nan,nan,161.41350164660253,182.47474973544013,nan,182.8450190972071,nan,nan,nan,nan
1,22,1,1,1.0,1.0,0.3141353300306946,0,4,1,3,5,6,7,nan,nan,nan,nan,nan,nan,nan,nan,nan,nan,nan,nan,0.0,nan,nan,nan,nan,nan,nan,nan,nan,nan,nan,nan,nan,nan,nan,nan,nan,nan,nan,161.41350164660253,183.47487831383478,nan,183.78901364386547,nan,nan,nan,nan
1,23,1,1,1.0,1.0,0.2899597358191386,0,1,8,0,4,3,5,nan,nan,nan,nan,nan,nan,nan,nan,nan,nan,nan,nan,0.0,nan,nan,nan,nan,nan,nan,nan,nan,nan,nan,nan,nan,nan,nan,nan,nan,nan,nan,161.41350164660253,184.4750088879373,nan,184.76496862375643,nan,nan,nan,nan
1,24,1,1,1.0,1.0,0.30580567207653075,0,6,2,4,7,0,3,nan,nan,nan,nan,nan,nan,nan,nan,nan,nan,nan,nan,0.0,nan,nan,nan,nan,nan,nan,nan,nan,nan,nan,nan,nan,nan,nan,nan,nan,nan,nan,161.41350164660253,185.47513261972927,nan,185.7809382918058,nan,nan,nan,nan
1,25,1,1,1.0,1.0,0.32163193670567125,0,2,3,1,5,8,6,nan,nan,nan,nan,nan,nan,nan,nan,nan,nan,nan,nan,0.0,nan,nan,nan,nan,nan,nan,nan,nan,nan,nan,nan,nan,nan,nan,nan,nan,nan,nan,161.41350164660253,186.47528429096565,nan,186.79691622767132,nan,nan,nan,nan
1,26,1,1,1.0,1.0,0.3534883096581325,0,0,7,6,8,3,1,nan,nan,nan,nan,nan,nan,nan,nan,nan,nan,nan,nan,0.0,nan,nan,nan,nan,nan,nan,nan,nan,nan,nan,nan,nan,nan,nan,nan,nan,nan,nan,161.41350164660253,187.475408878061,nan,187.82889718771912,nan,nan,nan,nan
1,27,1,1,1.0,1.0,0.29735313763376325,0,6,2,4,1,5,3,nan,nan,nan,nan,nan,nan,nan,nan,nan,nan,nan,nan,0.0,nan,nan,nan,nan,nan,nan,nan,nan,nan,nan,nan,nan,nan,nan,nan,nan,nan,nan,161.41350164660253,188.47552890353836,nan,188.77288204117212,nan,nan,nan,nan
1,28,1,1,1.0,1.0,0.29717694816645235,0,4,8,2,0,3,5,nan,nan,nan,nan,nan,nan,nan,nan,nan,nan,nan,nan,0.0,nan,nan,nan,nan,nan,nan,nan,nan,nan,nan,nan,nan,nan,nan,nan,nan,nan,nan,161.41350164660253,189.47567316226196,nan,189.7728501104284,nan,nan,nan,nan
1,29,1,1,1.0,1.0,0.3050655621336773,0,2,1,4,8,5,6,nan,nan,nan,nan,nan,nan,nan,nan,nan,nan,nan,nan,0.0,nan,nan,nan,nan,nan,nan,nan,nan,nan,nan,nan,nan,nan,nan,nan,nan,nan,nan,161.41350164660253,190.47577551181894,nan,190.78084107395262,nan,nan,nan,nan
1,30,1,1,1.0,1.0,0.3049056230811402,0,3,0,7,2,6,5,nan,nan,nan,nan,nan,nan,nan,nan,nan,nan,nan,nan,0.0,nan,nan,nan,nan,nan,nan,nan,nan,nan,nan,nan,nan,nan,nan,nan,nan,nan,nan,161.41350164660253,191.47592262155376,nan,191.7808282446349,nan,nan,nan,nan
1,31,1,1,1.0,1.0,0.32074101082980633,0,5,2,0,1,4,7,nan,nan,nan,nan,nan,nan,nan,nan,nan,nan,nan,nan,0.0,nan,nan,nan,nan,nan,nan,nan,nan,nan,nan,nan,nan,nan,nan,nan,nan,nan,nan,161.41350164660253,192.47603808552958,nan,192.7967790963594,nan,nan,nan,nan
1,32,1,1,1.0,1.0,0.3685810216702521,0,1,5,6,7,2,8,nan,nan,nan,nan,nan,nan,nan,nan,nan,nan,nan,nan,0.0,nan,nan,nan,nan,nan,nan,nan,nan,nan,nan,nan,nan,nan,nan,nan,nan,nan,nan,161.41350164660253,193.4761700850213,nan,193.84475110669155,nan,nan,nan,nan
1,33,1,1,1.0,1.0,0.2804338139249012,0,2,0,3,8,5,1,nan,nan,nan,nan,nan,nan,nan,nan,nan,nan,nan,nan,0.0,nan,nan,nan,nan,nan,nan,nan,nan,nan,nan,nan,nan,nan,nan,nan,nan,nan,nan,161.41350164660253,194.47630465053953,nan,194.75673846446443,nan,nan,nan,nan
1,34,1,1,1.0,1.0,0.27197329665068537,0,6,5,2,4,1,7,nan,nan,nan,nan,nan,nan,nan,nan,nan,nan,nan,nan,0.0,nan,nan,nan,nan,nan,nan,nan,nan,nan,nan,nan,nan,nan,nan,nan,nan,nan,nan,161.41350164660253,195.4847457811702,nan,195.7567190778209,nan,nan,nan,nan
1,35,1,1,1.0,1.0,0.24781566357705742,0,8,6,7,5,3,0,nan,nan,nan,nan,nan,nan,nan,nan,nan,nan,nan,nan,0.0,nan,nan,nan,nan,nan,nan,nan,nan,nan,nan,nan,nan,nan,nan,nan,nan,nan,nan,161.41350164660253,196.4848789210664,nan,196.73269458464347,nan,nan,nan,nan
1,36,1,1,1.0,1.0,0.28732715686783195,0,2,0,5,1,6,7,nan,nan,nan,nan,nan,nan,nan,nan,nan,nan,nan,nan,0.0,nan,nan,nan,nan,nan,nan,nan,nan,nan,nan,nan,nan,nan,nan,nan,nan,nan,nan,161.41350164660253,197.49334086372983,nan,197.78066802059766,nan,nan,nan,nan
1,37,1,1,1.0,1.0,0.2631863444112241,0,0,2,1,8,3,6,nan,nan,nan,nan,nan,nan,nan,nan,nan,nan,nan,nan,0.0,nan,nan,nan,nan,nan,nan,nan,nan,nan,nan,nan,nan,nan,nan,nan,nan,nan,nan,161.41350164660253,198.49346944212448,nan,198.7566557865357,nan,nan,nan,nan
1,38,1,1,1.0,1.0,0.27067211735993624,0,8,4,0,6,7,1,nan,nan,nan,nan,nan,nan,nan,nan,nan,nan,nan,nan,0.0,nan,nan,nan,nan,nan,nan,nan,nan,nan,nan,nan,nan,nan,nan,nan,nan,nan,nan,161.41350164660253,199.50193224009126,nan,199.7726043574512,nan,nan,nan,nan
1,39,1,1,1.0,1.0,0.26253033778630197,0,2,6,1,3,5,7,nan,nan,nan,nan,nan,nan,nan,nan,nan,nan,nan,nan,0.0,nan,nan,nan,nan,nan,nan,nan,nan,nan,nan,nan,nan,nan,nan,nan,nan,nan,nan,161.41350164660253,200.50207022670656,nan,200.76460056449287,nan,nan,nan,nan
1,40,1,1,1.0,1.0,0.2063660859130323,0,6,5,7,4,3,0,nan,nan,nan,nan,nan,nan,nan,nan,nan,nan,nan,nan,0.0,nan,nan,nan,nan,nan,nan,nan,nan,nan,nan,nan,nan,nan,nan,nan,nan,nan,nan,161.41350164660253,201.50219595408998,nan,201.70856204000302,nan,nan,nan,nan
1,41,1,1,1.0,1.0,0.18991574551910162,0,8,0,1,2,5,3,nan,nan,nan,nan,nan,nan,nan,nan,nan,nan,nan,nan,0.0,nan,nan,nan,nan,nan,nan,nan,nan,nan,nan,nan,nan,nan,nan,nan,nan,nan,nan,161.41350164660253,202.51064962893724,nan,202.70056537445635,nan,nan,nan,nan
1,42,1,1,1.0,1.0,0.20577907259576023,0,2,7,5,1,3,6,nan,nan,nan,nan,nan,nan,nan,nan,nan,nan,nan,nan,0.0,nan,nan,nan,nan,nan,nan,nan,nan,nan,nan,nan,nan,nan,nan,nan,nan,nan,nan,161.41350164660253,203.5107756415382,nan,203.71655471413396,nan,nan,nan,nan
1,43,1,1,1.0,1.0,0.1816140270093456,0,3,0,1,2,6,5,nan,nan,nan,nan,nan,nan,nan,nan,nan,nan,nan,nan,0.0,nan,nan,nan,nan,nan,nan,nan,nan,nan,nan,nan,nan,nan,nan,nan,nan,nan,nan,161.41350164660253,204.51090307952836,nan,204.6925171065377,nan,nan,nan,nan
1,44,1,1,1.0,1.0,0.20544864609837532,0,8,7,3,4,2,1,nan,nan,nan,nan,nan,nan,nan,nan,nan,nan,nan,nan,0.0,nan,nan,nan,nan,nan,nan,nan,nan,nan,nan,nan,nan,nan,nan,nan,nan,nan,nan,161.41350164660253,205.51103365363088,nan,205.71648229972925,nan,nan,nan,nan
1,45,0,0,1.0,0.0,0.1812987105222419,0,0,6,5,3,1,4,nan,nan,nan,nan,nan,nan,nan,nan,nan,nan,nan,nan,0.0,nan,nan,nan,nan,nan,nan,nan,nan,nan,nan,nan,nan,nan,nan,nan,nan,nan,nan,161.41350164660253,206.51115881092846,nan,206.6924575214507,nan,nan,nan,nan
1,46,1,1,1.0,1.0,0.3171619122149423,0,7,5,8,2,4,6,nan,nan,nan,nan,nan,nan,nan,nan,nan,nan,nan,nan,0.0,nan,nan,nan,nan,nan,nan,nan,nan,nan,nan,nan,nan,nan,nan,nan,nan,nan,nan,161.41350164660253,207.51128767442424,nan,207.82844958663918,nan,nan,nan,nan
1,47,1,1,1.0,1.0,0.23703132662922144,0,6,1,3,8,0,4,nan,nan,nan,nan,nan,nan,nan,nan,nan,nan,nan,nan,0.0,nan,nan,nan,nan,nan,nan,nan,nan,nan,nan,nan,nan,nan,nan,nan,nan,nan,nan,161.41350164660253,208.51138489227742,nan,208.74841621890664,nan,nan,nan,nan
1,48,0,0,1.0,0.0,0.2848559422418475,0,4,0,6,5,7,8,nan,nan,nan,nan,nan,nan,nan,nan,nan,nan,nan,nan,0.0,nan,nan,nan,nan,nan,nan,nan,nan,nan,nan,nan,nan,nan,nan,nan,nan,nan,nan,161.41350164660253,209.51154255052097,nan,209.79639849276282,nan,nan,nan,nan
1,49,1,1,1.0,1.0,0.3323598245624453,0,8,3,4,7,2,0,nan,nan,nan,nan,nan,nan,nan,nan,nan,nan,nan,nan,0.0,nan,nan,nan,nan,nan,nan,nan,nan,nan,nan,nan,nan,nan,nan,nan,nan,nan,nan,161.41350164660253,210.52000677399337,nan,210.85236659855582,nan,nan,nan,nan
1,50,1,1,1.0,1.0,0.3642073597293347,0,0,1,3,4,8,6,nan,nan,nan,nan,nan,nan,nan,nan,nan,nan,nan,nan,0.0,nan,nan,nan,nan,nan,nan,nan,nan,nan,nan,nan,nan,nan,nan,nan,nan,nan,nan,161.41350164660253,211.52013193117455,nan,211.88433929090388,nan,nan,nan,nan
1,51,0,0,0.0,1.0,0.4037162869935855,0,3,8,4,7,1,2,nan,nan,nan,nan,nan,nan,nan,nan,nan,nan,nan,nan,0.0,nan,nan,nan,nan,nan,nan,nan,nan,nan,nan,nan,nan,nan,nan,nan,nan,nan,nan,161.41350164660253,212.52860670315567,nan,212.93232299014926,nan,nan,nan,nan
1,52,1,1,1.0,1.0,0.38724598998669535,0,7,4,1,8,0,3,nan,nan,nan,nan,nan,nan,nan,nan,nan,nan,nan,nan,0.0,nan,nan,nan,nan,nan,nan,nan,nan,nan,nan,nan,nan,nan,nan,nan,nan,nan,nan,161.41350164660253,213.53705325059127,nan,213.92429924057797,nan,nan,nan,nan
1,53,0,0,0.0,1.0,0.39479505422059447,0,2,7,5,3,1,6,nan,nan,nan,nan,nan,nan,nan,nan,nan,nan,nan,nan,0.0,nan,nan,nan,nan,nan,nan,nan,nan,nan,nan,nan,nan,nan,nan,nan,nan,nan,nan,161.41350164660253,214.5455177591648,nan,214.9403128133854,nan,nan,nan,nan
1,54,1,1,0.0,0.0,0.38658171554561704,0,3,6,0,2,5,7,nan,nan,nan,nan,nan,nan,nan,nan,nan,nan,nan,nan,0.0,nan,nan,nan,nan,nan,nan,nan,nan,nan,nan,nan,nan,nan,nan,nan,nan,nan,nan,161.41350164660253,215.54565916687716,nan,215.93224088242278,nan,nan,nan,nan
1,55,1,1,1.0,1.0,0.41046223521698266,0,0,3,7,4,2,1,nan,nan,nan,nan,nan,nan,nan,nan,nan,nan,nan,nan,0.0,nan,nan,nan,nan,nan,nan,nan,nan,nan,nan,nan,nan,nan,nan,nan,nan,nan,nan,161.41350164660253,216.54577349044848,nan,216.95623572566546,nan,nan,nan,nan
1,56,1,1,1.0,1.0,0.3303017144789919,0,2,4,3,6,8,0,nan,nan,nan,nan,nan,nan,nan,nan,nan,nan,nan,nan,0.0,nan,nan,nan,nan,nan,nan,nan,nan,nan,nan,nan,nan,nan,nan,nan,nan,nan,nan,161.41350164660253,217.54591347277164,nan,217.87621518725064,nan,nan,nan,nan
1,57,1,1,1.0,1.0,0.40214569156523794,0,4,0,2,7,1,3,nan,nan,nan,nan,nan,nan,nan,nan,nan,nan,nan,nan,0.0,nan,nan,nan,nan,nan,nan,nan,nan,nan,nan,nan,nan,nan,nan,nan,nan,nan,nan,161.41350164660253,218.54602922184858,nan,218.94817491341382,nan,nan,nan,nan
1,58,0,0,0.0,1.0,0.34567296551540494,0,0,8,1,2,3,5,nan,nan,nan,nan,nan,nan,nan,nan,nan,nan,nan,nan,0.0,nan,nan,nan,nan,nan,nan,nan,nan,nan,nan,nan,nan,nan,nan,nan,nan,nan,nan,161.41350164660253,219.55450427893084,nan,219.90017724444624,nan,nan,nan,nan
1,59,1,1,1.0,1.0,0.329509717063047,0,2,5,0,8,6,7,nan,nan,nan,nan,nan,nan,nan,nan,nan,nan,nan,nan,0.0,nan,nan,nan,nan,nan,nan,nan,nan,nan,nan,nan,nan,nan,nan,nan,nan,nan,nan,161.41350164660253,220.5546354232356,nan,220.88414514029864,nan,nan,nan,nan
1,60,1,1,1.0,1.0,0.3293492079246789,0,3,1,6,0,5,8,nan,nan,nan,nan,nan,nan,nan,nan,nan,nan,nan,nan,0.0,nan,nan,nan,nan,nan,nan,nan,nan,nan,nan,nan,nan,nan,nan,nan,nan,nan,nan,161.41350164660253,221.5547545934096,nan,221.88410380133428,nan,nan,nan,nan
1,61,1,1,1.0,1.0,0.26519684330560267,0,5,4,8,1,0,2,nan,nan,nan,nan,nan,nan,nan,nan,nan,nan,nan,nan,0.0,nan,nan,nan,nan,nan,nan,nan,nan,nan,nan,nan,nan,nan,nan,nan,nan,nan,nan,161.41350164660253,222.55488915892784,nan,222.82008600223344,nan,nan,nan,nan
1,62,1,1,1.0,1.0,0.48103411262854934,0,3,5,2,0,4,7,nan,nan,nan,nan,nan,nan,nan,nan,nan,nan,nan,nan,0.0,nan,nan,nan,nan,nan,nan,nan,nan,nan,nan,nan,nan,nan,nan,nan,nan,nan,nan,161.41350164660253,223.5550242945319,nan,224.03605840716045,nan,nan,nan,nan
1,63,1,1,1.0,1.0,0.4088870781706646,0,7,8,1,6,3,4,nan,nan,nan,nan,nan,nan,nan,nan,nan,nan,nan,nan,0.0,nan,nan,nan,nan,nan,nan,nan,nan,nan,nan,nan,nan,nan,nan,nan,nan,nan,nan,161.41350164660253,224.555148311425,nan,224.96403538959567,nan,nan,nan,nan
1,64,1,1,1.0,1.0,0.28842420724686235,0,2,6,0,3,1,8,nan,nan,nan,nan,nan,nan,nan,nan,nan,nan,nan,nan,0.0,nan,nan,nan,nan,nan,nan,nan,nan,nan,nan,nan,nan,nan,nan,nan,nan,nan,nan,161.41350164660253,225.56360141607001,nan,225.85202562331688,nan,nan,nan,nan
1,65,1,1,1.0,1.0,0.2722221858566627,1,5,0,1,6,7,3,1.0,1.0,1.0,1.0,1.0,1.0,1.0,0.0,1.0,0.0,0.0,0.0,2.0,5.0,4.0,1.0,3.0,0.0,0.0,5.0,6.0,1.0,3.0,2.0,4.0,6.458375230547972,7.233830835786648,2.3154881119262427,4.417844803305343,3.4760586123447865,5.2906220144359395,161.41350164660253,226.56377903104294,227.37214501027483,226.8360012168996,235.65652712259907,236.66762848652434,228.38061436545104,235.6482000304386
1,66,1,1,1.0,1.0,0.4104032202158123,0,8,6,5,1,0,2,nan,nan,nan,nan,nan,nan,nan,nan,nan,nan,nan,nan,0.0,nan,nan,nan,nan,nan,nan,nan,nan,nan,nan,nan,nan,nan,nan,nan,nan,nan,nan,161.41350164660253,236.87336137355305,nan,237.28376459376886,nan,nan,nan,nan
1,67,1,1,1.0,1.0,0.33019480342045426,0,7,1,2,3,6,4,nan,nan,nan,nan,nan,nan,nan,nan,nan,nan,nan,nan,0.0,nan,nan,nan,nan,nan,nan,nan,nan,nan,nan,nan,nan,nan,nan,nan,nan,nan,nan,161.41350164660253,237.8735378481215,nan,238.20373265154194,nan,nan,nan,nan
1,68,1,1,1.0,1.0,0.27406305249314755,0,3,2,0,8,1,6,nan,nan,nan,nan,nan,nan,nan,nan,nan,nan,nan,nan,0.0,nan,nan,nan,nan,nan,nan,nan,nan,nan,nan,nan,nan,nan,nan,nan,nan,nan,nan,161.41350164660253,238.8736430486897,nan,239.14770610118285,nan,nan,nan,nan
1,69,1,1,1.0,1.0,0.2339015397010371,0,1,8,6,2,0,7,nan,nan,nan,nan,nan,nan,nan,nan,nan,nan,nan,nan,0.0,nan,nan,nan,nan,nan,nan,nan,nan,nan,nan,nan,nan,nan,nan,nan,nan,nan,nan,161.41350164660253,239.87378018000163,nan,240.10768171970267,nan,nan,nan,nan
1,70,1,1,1.0,1.0,0.22575861983932555,0,6,0,5,3,7,8,nan,nan,nan,nan,nan,nan,nan,nan,nan,nan,nan,nan,0.0,nan,nan,nan,nan,nan,nan,nan,nan,nan,nan,nan,nan,nan,nan,nan,nan,nan,nan,161.41350164660253,240.8739064775873,nan,241.09966509742662,nan,nan,nan,nan
1,71,1,1,1.0,1.0,0.2092911737272516,0,7,5,3,2,8,1,nan,nan,nan,nan,nan,nan,nan,nan,nan,nan,nan,nan,0.0,nan,nan,nan,nan,nan,nan,nan,nan,nan,nan,nan,nan,nan,nan,nan,nan,nan,nan,161.41350164660253,241.88235331012402,nan,242.09164448385127,nan,nan,nan,nan
1,72,1,1,1.0,1.0,0.2811271680984646,0,6,1,2,3,4,8,nan,nan,nan,nan,nan,nan,nan,nan,nan,nan,nan,nan,0.0,nan,nan,nan,nan,nan,nan,nan,nan,nan,nan,nan,nan,nan,nan,nan,nan,nan,nan,161.41350164660253,242.88248502463102,nan,243.1636121927295,nan,nan,nan,nan
1,73,1,1,1.0,1.0,0.28065105725545436,1,1,4,3,7,0,6,1.0,1.0,1.0,1.0,1.0,1.0,0.0,0.0,1.0,0.0,1.0,0.0,2.0,3.0,5.0,3.0,2.0,0.0,7.0,5.0,6.0,1.0,2.0,3.0,4.0,4.362278683343902,5.154000171693042,1.1164173547876999,1.9061277739237994,2.6826869868673384,3.650946647976525,161.41350164660253,243.89094098028727,244.699360557599,244.17159203754272,250.90848494996317,251.908498064382,245.71615700481925,250.9001501603052
1,74,1,1,1.0,1.0,0.3667487078346312,0,4,0,6,8,3,5,nan,nan,nan,nan,nan,nan,nan,nan,nan,nan,nan,nan,0.0,nan,nan,nan,nan,nan,nan,nan,nan,nan,nan,nan,nan,nan,nan,nan,nan,nan,nan,161.41350164660253,252.10867813124787,nan,252.4754268390825,nan,nan,nan,nan
1,75,0,0,0.0,1.0,0.44660531589761376,0,3,7,8,5,0,1,nan,nan,nan,nan,nan,nan,nan,nan,nan,nan,nan,nan,0.0,nan,nan,nan,nan,nan,nan,nan,nan,nan,nan,nan,nan,nan,nan,nan,nan,nan,nan,161.41350164660253,253.10878219129518,nan,253.5553875071928,nan,nan,nan,nan
1,76,1,1,1.0,1.0,0.3744614174356684,0,0,8,2,1,6,4,nan,nan,nan,nan,nan,nan,nan,nan,nan,nan,nan,nan,0.0,nan,nan,nan,nan,nan,nan,nan,nan,nan,nan,nan,nan,nan,nan,nan,nan,nan,nan,161.41350164660253,254.1089113400085,nan,254.48337275744416,nan,nan,nan,nan
1,77,1,1,1.0,1.0,0.3022807416273281,0,1,5,0,2,8,7,nan,nan,nan,nan,nan,nan,nan,nan,nan,nan,nan,nan,0.0,nan,nan,nan,nan,nan,nan,nan,nan,nan,nan,nan,nan,nan,nan,nan,nan,nan,nan,161.41350164660253,255.10904790111817,nan,255.4113286427455,nan,nan,nan,nan
1,78,1,1,1.0,1.0,0.28613003762438893,0,8,1,2,5,4,6,nan,nan,nan,nan,nan,nan,nan,nan,nan,nan,nan,nan,0.0,nan,nan,nan,nan,nan,nan,nan,nan,nan,nan,nan,nan,nan,nan,nan,nan,nan,nan,161.41350164660253,256.1091736285016,nan,256.395303666126,nan,nan,nan,nan
1,79,1,1,1.0,1.0,0.27798170084133744,0,2,0,5,1,7,4,nan,nan,nan,nan,nan,nan,nan,nan,nan,nan,nan,nan,0.0,nan,nan,nan,nan,nan,nan,nan,nan,nan,nan,nan,nan,nan,nan,nan,nan,nan,nan,161.41350164660253,257.1092965049902,nan,257.38727820583154,nan,nan,nan,nan
1,80,1,1,1.0,1.0,0.3178307480411604,0,6,3,1,5,4,0,nan,nan,nan,nan,nan,nan,nan,nan,nan,nan,nan,nan,0.0,nan,nan,nan,nan,nan,nan,nan,nan,nan,nan,nan,nan,nan,nan,nan,nan,nan,nan,161.41350164660253,258.10942650889046,nan,258.4272572569316,nan,nan,nan,nan
1,81,1,1,1.0,1.0,0.30169315822422504,0,3,1,5,7,8,6,nan,nan,nan,nan,nan,nan,nan,nan,nan,nan,nan,nan,0.0,nan,nan,nan,nan,nan,nan,nan,nan,nan,nan,nan,nan,nan,nan,nan,nan,nan,nan,161.41350164660253,259.1096012729686,nan,259.4112944311928,nan,nan,nan,nan
1,82,1,1,1.0,1.0,0.3335617905249819,0,0,5,3,6,1,7,nan,nan,nan,nan,nan,nan,nan,nan,nan,nan,nan,nan,0.0,nan,nan,nan,nan,nan,nan,nan,nan,nan,nan,nan,nan,nan,nan,nan,nan,nan,nan,161.41350164660253,260.1096765383845,nan,260.4432383289095,nan,nan,nan,nan
1,83,1,1,1.0,1.0,0.5813592079794034,0,7,1,2,0,8,3,nan,nan,nan,nan,nan,nan,nan,nan,nan,nan,nan,nan,0.0,nan,nan,nan,nan,nan,nan,nan,nan,nan,nan,nan,nan,nan,nan,nan,nan,nan,nan,161.41350164660253,261.1098230778007,nan,261.6911822857801,nan,nan,nan,nan
1,84,1,1,1.0,1.0,0.38889384642243385,0,0,6,3,1,4,8,nan,nan,nan,nan,nan,nan,nan,nan,nan,nan,nan,nan,0.0,nan,nan,nan,nan,nan,nan,nan,nan,nan,nan,nan,nan,nan,nan,nan,nan,nan,nan,161.41350164660253,262.1182744719554,nan,262.5071683183778,nan,nan,nan,nan
1,85,1,1,1.0,1.0,0.32478139526210725,0,3,8,2,6,0,1,nan,nan,nan,nan,nan,nan,nan,nan,nan,nan,nan,nan,0.0,nan,nan,nan,nan,nan,nan,nan,nan,nan,nan,nan,nan,nan,nan,nan,nan,nan,nan,161.41350164660253,263.11837539600674,nan,263.44315679126885,nan,nan,nan,nan
1,86,0,0,1.0,0.0,0.2365937038557604,0,1,6,4,7,8,5,nan,nan,nan,nan,nan,nan,nan,nan,nan,nan,nan,nan,0.0,nan,nan,nan,nan,nan,nan,nan,nan,nan,nan,nan,nan,nan,nan,nan,nan,nan,nan,161.41350164660253,264.11852735234424,nan,264.3551210562,nan,nan,nan,nan
1,87,1,1,1.0,1.0,0.28406964673195034,0,7,3,0,6,2,1,nan,nan,nan,nan,nan,nan,nan,nan,nan,nan,nan,nan,0.0,nan,nan,nan,nan,nan,nan,nan,nan,nan,nan,nan,nan,nan,nan,nan,nan,nan,nan,161.41350164660253,265.12703348486684,nan,265.4111031315988,nan,nan,nan,nan
1,88,1,1,1.0,1.0,0.2679996248334646,0,1,6,8,7,3,0,nan,nan,nan,nan,nan,nan,nan,nan,nan,nan,nan,nan,0.0,nan,nan,nan,nan,nan,nan,nan,nan,nan,nan,nan,nan,nan,nan,nan,nan,nan,nan,161.41350164660253,266.12707653443795,nan,266.3950761592714,nan,nan,nan,nan
1,89,0,0,0.0,1.0,0.3878030680352822,0,8,1,2,6,5,7,nan,nan,nan,nan,nan,nan,nan,nan,nan,nan,nan,nan,0.0,nan,nan,nan,nan,nan,nan,nan,nan,nan,nan,nan,nan,nan,nan,nan,nan,nan,nan,161.41350164660253,267.1272467368981,nan,267.51504980493337,nan,nan,nan,nan
1,90,1,1,1.0,1.0,0.3396651316434145,0,1,8,4,5,3,2,nan,nan,nan,nan,nan,nan,nan,nan,nan,nan,nan,nan,0.0,nan,nan,nan,nan,nan,nan,nan,nan,nan,nan,nan,nan,nan,nan,nan,nan,nan,nan,161.41350164660253,268.12736761767883,nan,268.46703274932224,nan,nan,nan,nan
1,91,1,1,1.0,1.0,0.2915095192147419,0,2,5,6,0,1,8,nan,nan,nan,nan,nan,nan,nan,nan,nan,nan,nan,nan,0.0,nan,nan,nan,nan,nan,nan,nan,nan,nan,nan,nan,nan,nan,nan,nan,nan,nan,nan,161.41350164660253,269.1275001874892,nan,269.41900970670395,nan,nan,nan,nan
1,92,1,1,1.0,1.0,0.27537078910972923,0,6,8,2,3,4,1,nan,nan,nan,nan,nan,nan,nan,nan,nan,nan,nan,nan,0.0,nan,nan,nan,nan,nan,nan,nan,nan,nan,nan,nan,nan,nan,nan,nan,nan,nan,nan,161.41350164660253,270.1276293360861,nan,270.40300012519583,nan,nan,nan,nan
1,93,1,1,1.0,1.0,0.35521713364869356,0,0,2,1,5,7,6,nan,nan,nan,nan,nan,nan,nan,nan,nan,nan,nan,nan,0.0,nan,nan,nan,nan,nan,nan,nan,nan,nan,nan,nan,nan,nan,nan,nan,nan,nan,nan,161.41350164660253,271.1277536380803,nan,271.482970771729,nan,nan,nan,nan
1,94,1,1,1.0,1.0,0.28305898036342114,0,7,5,6,4,2,8,nan,nan,nan,nan,nan,nan,nan,nan,nan,nan,nan,nan,0.0,nan,nan,nan,nan,nan,nan,nan,nan,nan,nan,nan,nan,nan,nan,nan,nan,nan,nan,161.41350164660253,272.1278787953779,nan,272.41093777574133,nan,nan,nan,nan
1,95,1,1,1.0,1.0,0.3628608499420807,0,0,6,1,5,8,3,nan,nan,nan,nan,nan,nan,nan,nan,nan,nan,nan,nan,0.0,nan,nan,nan,nan,nan,nan,nan,nan,nan,nan,nan,nan,nan,nan,nan,nan,nan,nan,161.41350164660253,273.1280407300219,nan,273.490901579964,nan,nan,nan,nan
1,96,1,1,1.0,1.0,0.33842068642843515,0,2,0,3,6,7,8,nan,nan,nan,nan,nan,nan,nan,nan,nan,nan,nan,nan,0.0,nan,nan,nan,nan,nan,nan,nan,nan,nan,nan,nan,nan,nan,nan,nan,nan,nan,nan,161.41350164660253,274.1364798649447,nan,274.47490055137314,nan,nan,nan,nan
1,97,1,1,1.0,1.0,0.393941190908663,0,8,6,4,2,1,7,nan,nan,nan,nan,nan,nan,nan,nan,nan,nan,nan,nan,0.0,nan,nan,nan,nan,nan,nan,nan,nan,nan,nan,nan,nan,nan,nan,nan,nan,nan,nan,161.41350164660253,275.1449323995039,nan,275.53887359041255,nan,nan,nan,nan
1,98,1,1,1.0,1.0,0.27378052205312997,0,4,2,1,5,7,0,nan,nan,nan,nan,nan,nan,nan,nan,nan,nan,nan,nan,0.0,nan,nan,nan,nan,nan,nan,nan,nan,nan,nan,nan,nan,nan,nan,nan,nan,nan,nan,161.41350164660253,276.1450678202091,nan,276.4188483422622,nan,nan,nan,nan
1,99,1,1,1.0,1.0,0.33728970936499536,0,1,0,6,7,4,2,nan,nan,nan,nan,nan,nan,nan,nan,nan,nan,nan,nan,0.0,nan,nan,nan,nan,nan,nan,nan,nan,nan,nan,nan,nan,nan,nan,nan,nan,nan,nan,161.41350164660253,277.1535363200819,nan,277.4908260294469,nan,nan,nan,nan
1,100,1,1,1.0,1.0,0.28081698331516236,0,4,6,2,0,8,5,nan,nan,nan,nan,nan,nan,nan,nan,nan,nan,nan,nan,0.0,nan,nan,nan,nan,nan,nan,nan,nan,nan,nan,nan,nan,nan,nan,nan,nan,nan,nan,161.41350164660253,278.16199256072287,nan,278.442809544038,nan,nan,nan,nan
1,101,1,1,1.0,1.0,0.2643335717730224,0,8,0,5,3,1,2,nan,nan,nan,nan,nan,nan,nan,nan,nan,nan,nan,nan,0.0,nan,nan,nan,nan,nan,nan,nan,nan,nan,nan,nan,nan,nan,nan,nan,nan,nan,nan,161.41350164660253,279.17045279277954,nan,279.43478636455256,nan,nan,nan,nan
1,102,1,1,1.0,1.0,0.23218868137337267,0,7,8,3,5,6,4,nan,nan,nan,nan,nan,nan,nan,nan,nan,nan,nan,nan,0.0,nan,nan,nan,nan,nan,nan,nan,nan,nan,nan,nan,nan,nan,nan,nan,nan,nan,nan,161.41350164660253,280.17057566926815,nan,280.4027643506415,nan,nan,nan,nan
1,103,1,1,1.0,1.0,0.295687890262343,1,2,5,0,8,1,6,1.0,1.0,1.0,1.0,1.0,1.0,0.0,0.0,0.0,0.0,0.0,0.0,0.0,5.0,7.0,3.0,3.0,3.0,5.0,5.0,6.0,1.0,2.0,3.0,4.0,5.088829443207942,6.088549763779156,2.0433454680023715,3.0482910331338644,3.7681329073384404,4.424049923778512,161.41350164660253,281.1790478754556,281.98745661904104,281.4747357657179,289.13832928449847,290.14324548479635,283.01259127713274,289.13002528529614
1,104,1,1,1.0,1.0,0.2955901022069156,0,8,7,3,1,6,4,nan,nan,nan,nan,nan,nan,nan,nan,nan,nan,nan,nan,0.0,nan,nan,nan,nan,nan,nan,nan,nan,nan,nan,nan,nan,nan,nan,nan,nan,nan,nan,161.41350164660253,290.3469222574495,nan,290.6425123596564,nan,nan,nan,nan
1,105,1,1,1.0,1.0,0.2231320277787745,0,4,1,6,0,2,5,nan,nan,nan,nan,nan,nan,nan,nan,nan,nan,nan,nan,0.0,nan,nan,nan,nan,nan,nan,nan,nan,nan,nan,nan,nan,nan,nan,nan,nan,nan,nan,161.41350164660253,291.3553904722212,nan,291.57852249999996,nan,nan,nan,nan
1,106,1,1,1.0,1.0,0.2466544663766399,0,8,5,2,1,4,7,nan,nan,nan,nan,nan,nan,nan,nan,nan,nan,nan,nan,0.0,nan,nan,nan,nan,nan,nan,nan,nan,nan,nan,nan,nan,nan,nan,nan,nan,nan,nan,161.41350164660253,292.3638090802124,nan,292.610463546589,nan,nan,nan,nan
1,107,1,1,1.0,1.0,0.24651590955909342,0,1,7,0,4,2,3,nan,nan,nan,nan,nan,nan,nan,nan,nan,nan,nan,nan,0.0,nan,nan,nan,nan,nan,nan,nan,nan,nan,nan,nan,nan,nan,nan,nan,nan,nan,nan,161.41350164660253,293.3639345226111,nan,293.6104504321702,nan,nan,nan,nan
1,108,0,0,1.0,0.0,0.2543668909929693,0,7,3,2,5,4,8,nan,nan,nan,nan,nan,nan,nan,nan,nan,nan,nan,nan,0.0,nan,nan,nan,nan,nan,nan,nan,nan,nan,nan,nan,nan,nan,nan,nan,nan,nan,nan,161.41350164660253,294.3640528374817,nan,294.6184197284747,nan,nan,nan,nan
1,109,1,1,1.0,1.0,0.2781949528725818,0,1,7,6,2,5,3,nan,nan,nan,nan,nan,nan,nan,nan,nan,nan,nan,nan,0.0,nan,nan,nan,nan,nan,nan,nan,nan,nan,nan,nan,nan,nan,nan,nan,nan,nan,nan,161.41350164660253,295.3641956706997,nan,295.6423906235723,nan,nan,nan,nan
1,110,1,1,1.0,1.0,0.23802659776993096,0,5,6,2,4,1,0,nan,nan,nan,nan,nan,nan,nan,nan,nan,nan,nan,nan,0.0,nan,nan,nan,nan,nan,nan,nan,nan,nan,nan,nan,nan,nan,nan,nan,nan,nan,nan,161.41350164660253,296.3643459165469,nan,296.6023725143168,nan,nan,nan,nan
1,111,0,0,1.0,0.0,0.20589795778505504,0,8,0,4,7,3,5,nan,nan,nan,nan,nan,nan,nan,nan,nan,nan,nan,nan,0.0,nan,nan,nan,nan,nan,nan,nan,nan,nan,nan,nan,nan,nan,nan,nan,nan,nan,nan,161.41350164660253,297.3644525425043,nan,297.57035050028935,nan,nan,nan,nan
1,112,1,1,1.0,1.0,0.23776031786110252,0,3,8,6,5,0,1,nan,nan,nan,nan,nan,nan,nan,nan,nan,nan,nan,nan,0.0,nan,nan,nan,nan,nan,nan,nan,nan,nan,nan,nan,nan,nan,nan,nan,nan,nan,nan,161.41350164660253,298.364570002188,nan,298.6023303200491,nan,nan,nan,nan
1,113,1,1,1.0,1.0,0.26961384003516287,0,7,6,5,3,2,4,nan,nan,nan,nan,nan,nan,nan,nan,nan,nan,nan,nan,0.0,nan,nan,nan,nan,nan,nan,nan,nan,nan,nan,nan,nan,nan,nan,nan,nan,nan,nan,161.41350164660253,299.3646957295714,nan,299.63430956960656,nan,nan,nan,nan
1,114,1,1,1.0,1.0,0.3014588091755286,0,4,3,1,2,8,0,nan,nan,nan,nan,nan,nan,nan,nan,nan,nan,nan,nan,0.0,nan,nan,nan,nan,nan,nan,nan,nan,nan,nan,nan,nan,nan,nan,nan,nan,nan,nan,161.41350164660253,300.3648371374002,nan,300.6662959465757,nan,nan,nan,nan
1,115,0,0,0.0,1.0,0.37297749146819115,0,8,0,3,7,4,2,nan,nan,nan,nan,nan,nan,nan,nan,nan,nan,nan,nan,0.0,nan,nan,nan,nan,nan,nan,nan,nan,nan,nan,nan,nan,nan,nan,nan,nan,nan,nan,161.41350164660253,301.37328625062946,nan,301.74626374209765,nan,nan,nan,nan
1,116,1,1,1.0,1.0,0.37246089696418494,0,7,4,0,3,1,5,nan,nan,nan,nan,nan,nan,nan,nan,nan,nan,nan,nan,0.0,nan,nan,nan,nan,nan,nan,nan,nan,nan,nan,nan,nan,nan,nan,nan,nan,nan,nan,161.41350164660253,302.3817613077117,nan,302.7542222046759,nan,nan,nan,nan
1,117,1,1,1.0,1.0,0.3479902279796079,0,6,8,3,4,5,0,nan,nan,nan,nan,nan,nan,nan,nan,nan,nan,nan,nan,0.0,nan,nan,nan,nan,nan,nan,nan,nan,nan,nan,nan,nan,nan,nan,nan,nan,nan,nan,161.41350164660253,303.39021840377245,nan,303.73820863175206,nan,nan,nan,nan
1,118,1,1,1.0,1.0,0.40386624762322754,0,8,3,6,1,4,7,nan,nan,nan,nan,nan,nan,nan,nan,nan,nan,nan,nan,0.0,nan,nan,nan,nan,nan,nan,nan,nan,nan,nan,nan,nan,nan,nan,nan,nan,nan,nan,161.41350164660253,304.3903395696543,nan,304.79420581727754,nan,nan,nan,nan
1,119,0,0,0.0,1.0,0.41938375297468156,0,7,0,1,5,2,6,nan,nan,nan,nan,nan,nan,nan,nan,nan,nan,nan,nan,0.0,nan,nan,nan,nan,nan,nan,nan,nan,nan,nan,nan,nan,nan,nan,nan,nan,nan,nan,161.41350164660253,305.39879438490607,nan,305.81817813788075,nan,nan,nan,nan
1,120,1,1,1.0,1.0,0.3872143442276865,0,0,6,4,1,7,8,nan,nan,nan,nan,nan,nan,nan,nan,nan,nan,nan,nan,0.0,nan,nan,nan,nan,nan,nan,nan,nan,nan,nan,nan,nan,nan,nan,nan,nan,nan,nan,161.41350164660253,306.3989312311169,nan,306.78614557534456,nan,nan,nan,nan
1,121,1,1,1.0,1.0,0.26671555114444345,0,1,0,5,4,8,2,nan,nan,nan,nan,nan,nan,nan,nan,nan,nan,nan,nan,0.0,nan,nan,nan,nan,nan,nan,nan,nan,nan,nan,nan,nan,nan,nan,nan,nan,nan,nan,161.41350164660253,307.40739916078746,nan,307.6741147119319,nan,nan,nan,nan
1,122,0,0,0.0,1.0,0.3542446702485904,0,5,2,4,3,6,1,nan,nan,nan,nan,nan,nan,nan,nan,nan,nan,nan,nan,0.0,nan,nan,nan,nan,nan,nan,nan,nan,nan,nan,nan,nan,nan,nan,nan,nan,nan,nan,161.41350164660253,308.41586338414345,nan,308.77010805439204,nan,nan,nan,nan
1,123,1,1,1.0,1.0,0.33778435143176466,0,7,1,6,0,2,4,nan,nan,nan,nan,nan,nan,nan,nan,nan,nan,nan,nan,0.0,nan,nan,nan,nan,nan,nan,nan,nan,nan,nan,nan,nan,nan,nan,nan,nan,nan,nan,161.41350164660253,309.4242925407598,nan,309.76207689219154,nan,nan,nan,nan
1,124,0,0,0.0,1.0,0.34563932404853404,0,6,8,7,5,0,1,nan,nan,nan,nan,nan,nan,nan,nan,nan,nan,nan,nan,0.0,nan,nan,nan,nan,nan,nan,nan,nan,nan,nan,nan,nan,nan,nan,nan,nan,nan,nan,161.41350164660253,310.42442625097465,nan,310.7700655750232,nan,nan,nan,nan
1,125,1,1,1.0,1.0,0.3054390383185819,1,2,7,1,3,6,4,1.0,1.0,1.0,1.0,1.0,1.0,0.0,0.0,1.0,1.0,0.0,0.0,2.0,5.0,6.0,1.0,3.0,3.0,0.0,5.0,6.0,1.0,3.0,2.0,4.0,4.554699854925275,5.266727810259908,1.3469547583954409,3.147924769902602,2.5328748795436695,4.0841889310395345,161.41350164660253,311.42458447930403,312.2329969293205,311.7300235176226,318.5504419420613,319.54858767590486,313.2414551656693,318.5421159903053
1,126,1,1,1.0,1.0,0.35520430433098227,0,0,5,2,1,3,8,nan,nan,nan,nan,nan,nan,nan,nan,nan,nan,nan,nan,0.0,nan,nan,nan,nan,nan,nan,nan,nan,nan,nan,nan,nan,nan,nan,nan,nan,nan,nan,161.41350164660253,319.7506556501612,nan,320.1058599544922,nan,nan,nan,nan
1,127,1,1,1.0,1.0,0.2427255546208471,0,3,8,6,2,0,4,nan,nan,nan,nan,nan,nan,nan,nan,nan,nan,nan,nan,0.0,nan,nan,nan,nan,nan,nan,nan,nan,nan,nan,nan,nan,nan,nan,nan,nan,nan,nan,161.41350164660253,320.7590984913986,nan,321.00182404601946,nan,nan,nan,nan
1,128,1,1,1.0,1.0,0.29053391981869936,0,7,4,0,8,1,6,nan,nan,nan,nan,nan,nan,nan,nan,nan,nan,nan,nan,0.0,nan,nan,nan,nan,nan,nan,nan,nan,nan,nan,nan,nan,nan,nan,nan,nan,nan,nan,161.41350164660253,321.75925329863094,nan,322.04978721844964,nan,nan,nan,nan
1,129,1,1,1.0,1.0,0.28206142864655703,0,3,5,1,4,6,7,nan,nan,nan,nan,nan,nan,nan,nan,nan,nan,nan,nan,0.0,nan,nan,nan,nan,nan,nan,nan,nan,nan,nan,nan,nan,nan,nan,nan,nan,nan,nan,161.41350164660253,322.76768730184995,nan,323.0497487304965,nan,nan,nan,nan
1,130,1,1,1.0,1.0,0.2655703193740919,0,8,2,5,7,3,4,nan,nan,nan,nan,nan,nan,nan,nan,nan,nan,nan,nan,0.0,nan,nan,nan,nan,nan,nan,nan,nan,nan,nan,nan,nan,nan,nan,nan,nan,nan,nan,161.41350164660253,323.7761583676329,nan,324.041728687007,nan,nan,nan,nan
1,131,1,1,1.0,1.0,0.2730851722881198,0,7,0,6,4,2,8,nan,nan,nan,nan,nan,nan,nan,nan,nan,nan,nan,nan,0.0,nan,nan,nan,nan,nan,nan,nan,nan,nan,nan,nan,nan,nan,nan,nan,nan,nan,nan,161.41350164660253,324.7846231611911,nan,325.05770833347924,nan,nan,nan,nan
1,132,1,1,1.0,1.0,0.21693460491951555,1,1,5,0,7,3,4,1.0,1.0,1.0,1.0,1.0,1.0,0.0,0.0,1.0,1.0,1.0,0.0,3.0,2.0,8.0,0.0,7.0,3.0,5.0,5.0,6.0,1.0,2.0,3.0,4.0,4.817643582355231,5.6256779946852475,1.1239071191521361,2.05784945609048,2.905707541969605,4.090672875754535,161.41350164660253,325.7847554459004,326.5931676106993,326.0016900508199,333.27733852365054,334.274660329218,327.60996377281845,333.2690151378047
1,133,1,1,1.0,1.0,0.3159682140685618,0,5,3,7,8,1,2,nan,nan,nan,nan,nan,nan,nan,nan,nan,nan,nan,nan,0.0,nan,nan,nan,nan,nan,nan,nan,nan,nan,nan,nan,nan,nan,nan,nan,nan,nan,nan,161.41350164660253,334.4775362664368,nan,334.79350448050536,nan,nan,nan,nan
1,134,1,1,1.0,1.0,0.3478091919096187,0,8,4,1,0,6,5,nan,nan,nan,nan,nan,nan,nan,nan,nan,nan,nan,nan,0.0,nan,nan,nan,nan,nan,nan,nan,nan,nan,nan,nan,nan,nan,nan,nan,nan,nan,nan,161.41350164660253,335.4776514453115,nan,335.8254606372211,nan,nan,nan,nan
1,135,1,1,1.0,1.0,0.3476780476048589,0,4,6,3,7,5,0,nan,nan,nan,nan,nan,nan,nan,nan,nan,nan,nan,nan,0.0,nan,nan,nan,nan,nan,nan,nan,nan,nan,nan,nan,nan,nan,nan,nan,nan,nan,nan,161.41350164660253,336.47777859831695,nan,336.8254566459218,nan,nan,nan,nan
1,136,1,1,1.0,1.0,0.41952886700164527,0,3,8,2,0,7,4,nan,nan,nan,nan,nan,nan,nan,nan,nan,nan,nan,nan,0.0,nan,nan,nan,nan,nan,nan,nan,nan,nan,nan,nan,nan,nan,nan,nan,nan,nan,nan,161.41350164660253,337.4779068916105,nan,337.8974357586121,nan,nan,nan,nan
1,137,1,1,1.0,1.0,0.41135686717461795,0,1,5,7,4,3,0,nan,nan,nan,nan,nan,nan,nan,nan,nan,nan,nan,nan,0.0,nan,nan,nan,nan,nan,nan,nan,nan,nan,nan,nan,nan,nan,nan,nan,nan,nan,nan,161.41350164660253,338.47803290421143,nan,338.88938977138605,nan,nan,nan,nan
1,138,1,1,1.0,1.0,0.34689317748416215,0,7,1,4,8,6,3,nan,nan,nan,nan,nan,nan,nan,nan,nan,nan,nan,nan,0.0,nan,nan,nan,nan,nan,nan,nan,nan,nan,nan,nan,nan,nan,nan,nan,nan,nan,nan,161.41350164660253,339.4864857237553,nan,339.8333789012395,nan,nan,nan,nan
1,139,1,1,1.0,1.0,0.29871133621782064,0,8,2,5,6,4,0,nan,nan,nan,nan,nan,nan,nan,nan,nan,nan,nan,nan,0.0,nan,nan,nan,nan,nan,nan,nan,nan,nan,nan,nan,nan,nan,nan,nan,nan,nan,nan,161.41350164660253,340.4866296973778,nan,340.7853410335956,nan,nan,nan,nan
1,140,1,1,1.0,1.0,0.29856508190277964,0,2,7,4,3,5,8,nan,nan,nan,nan,nan,nan,nan,nan,nan,nan,nan,nan,0.0,nan,nan,nan,nan,nan,nan,nan,nan,nan,nan,nan,nan,nan,nan,nan,nan,nan,nan,161.41350164660253,341.4867565651657,nan,341.7853216470685,nan,nan,nan,nan
1,141,1,1,1.0,1.0,0.3220775421941653,1,3,2,7,4,8,0,1.0,1.0,1.0,1.0,1.0,1.0,0.0,0.0,1.0,1.0,0.0,0.0,2.0,5.0,7.0,7.0,4.0,0.0,4.0,5.0,6.0,1.0,2.0,3.0,4.0,3.8998217292828485,4.626767347450368,1.04589422873687,1.906900669913739,2.595958988298662,3.2442271567415446,161.41350164660253,342.49522763094865,343.30364179145545,342.8173051731428,348.9876824152889,349.9835143077653,344.3204442256829,348.97936188045423
1,142,1,1,1.0,1.0,0.3572589932009578,0,1,5,4,0,3,8,nan,nan,nan,nan,nan,nan,nan,nan,nan,nan,nan,nan,0.0,nan,nan,nan,nan,nan,nan,nan,nan,nan,nan,nan,nan,nan,nan,nan,nan,nan,nan,161.41350164660253,350.1878761667758,nan,350.5451351599768,nan,nan,nan,nan
1,143,1,1,1.0,1.0,0.22110442304983735,0,0,4,6,1,2,3,nan,nan,nan,nan,nan,nan,nan,nan,nan,nan,nan,nan,0.0,nan,nan,nan,nan,nan,nan,nan,nan,nan,nan,nan,nan,nan,nan,nan,nan,nan,nan,161.41350164660253,351.18800588557497,nan,351.4091103086248,nan,nan,nan,nan
1,144,1,1,1.0,1.0,0.2685492904856801,0,4,0,8,2,7,6,nan,nan,nan,nan,nan,nan,nan,nan,nan,nan,nan,nan,0.0,nan,nan,nan,nan,nan,nan,nan,nan,nan,nan,nan,nan,nan,nan,nan,nan,nan,nan,161.41350164660253,352.1965262729209,nan,352.4650755634066,nan,nan,nan,nan
1,145,1,1,1.0,1.0,0.23613213293720037,0,0,4,6,3,2,5,nan,nan,nan,nan,nan,nan,nan,nan,nan,nan,nan,nan,0.0,nan,nan,nan,nan,nan,nan,nan,nan,nan,nan,nan,nan,nan,nan,nan,nan,nan,nan,161.41350164660253,353.2049098141724,nan,353.4410419471096,nan,nan,nan,nan
1,146,1,1,1.0,1.0,0.2919645329238847,0,4,5,1,2,3,8,nan,nan,nan,nan,nan,nan,nan,nan,nan,nan,nan,nan,0.0,nan,nan,nan,nan,nan,nan,nan,nan,nan,nan,nan,nan,nan,nan,nan,nan,nan,nan,161.41350164660253,354.20505720889196,nan,354.49702174181584,nan,nan,nan,nan
1,147,1,1,1.0,1.0,0.2274421133333817,0,8,4,5,1,6,2,nan,nan,nan,nan,nan,nan,nan,nan,nan,nan,nan,nan,0.0,nan,nan,nan,nan,nan,nan,nan,nan,nan,nan,nan,nan,nan,nan,nan,nan,nan,nan,161.41350164660253,355.213561060722,nan,355.44100317405537,nan,nan,nan,nan
1,148,1,1,1.0,1.0,0.3150382300373167,0,3,1,2,8,5,0,nan,nan,nan,nan,nan,nan,nan,nan,nan,nan,nan,nan,0.0,nan,nan,nan,nan,nan,nan,nan,nan,nan,nan,nan,nan,nan,nan,nan,nan,nan,nan,161.41350164660253,356.2219571460737,nan,356.536995376111,nan,nan,nan,nan
1,149,1,1,1.0,1.0,0.39449028635863215,1,4,5,0,6,2,1,1.0,1.0,1.0,1.0,1.0,1.0,1.0,0.0,1.0,0.0,0.0,0.0,2.0,4.0,6.0,0.0,2.0,5.0,4.0,5.0,6.0,1.0,2.0,3.0,4.0,3.8758602424059063,4.499646052950993,0.980691569391638,1.9876077200751752,2.779480309342034,3.316148965037428,161.41350164660253,357.2304581468925,358.03884664876387,357.6249484332511,363.59788310318254,364.60038539324887,359.05566590372473,363.5895485985093
1,150,1,1,1.0,1.0,0.6423823557561263,0,5,8,4,1,6,2,nan,nan,nan,nan,nan,nan,nan,nan,nan,nan,nan,nan,0.0,nan,nan,nan,nan,nan,nan,nan,nan,nan,nan,nan,nan,nan,nan,nan,nan,nan,nan,161.41350164660253,364.80640793801285,nan,365.448790293769,nan,nan,nan,nan
1,151,1,1,1.0,1.0,0.4982268436579034,0,0,4,3,5,1,6,nan,nan,nan,nan,nan,nan,nan,nan,nan,nan,nan,nan,0.0,nan,nan,nan,nan,nan,nan,nan,nan,nan,nan,nan,nan,nan,nan,nan,nan,nan,nan,161.41350164660253,365.8065410780255,nan,366.3047679216834,nan,nan,nan,nan
1,152,1,1,1.0,1.0,0.29807414615061134,0,8,0,7,3,4,1,nan,nan,nan,nan,nan,nan,nan,nan,nan,nan,nan,nan,0.0,nan,nan,nan,nan,nan,nan,nan,nan,nan,nan,nan,nan,nan,nan,nan,nan,nan,nan,161.41350164660253,366.80666709051,nan,367.10474123666063,nan,nan,nan,nan
1,153,1,1,1.0,1.0,0.2896176202921197,0,2,1,5,4,0,8,nan,nan,nan,nan,nan,nan,nan,nan,nan,nan,nan,nan,0.0,nan,nan,nan,nan,nan,nan,nan,nan,nan,nan,nan,nan,nan,nan,nan,nan,nan,nan,161.41350164660253,367.8151048000436,nan,368.10472242033575,nan,nan,nan,nan
1,154,1,1,1.0,1.0,0.22509919211734086,0,6,0,8,5,3,2,nan,nan,nan,nan,nan,nan,nan,nan,nan,nan,nan,nan,0.0,nan,nan,nan,nan,nan,nan,nan,nan,nan,nan,nan,nan,nan,nan,nan,nan,nan,nan,161.41350164660253,368.8235878398409,nan,369.04868703195825,nan,nan,nan,nan
1,155,1,1,1.0,1.0,0.21665093407500535,0,0,8,6,7,4,5,nan,nan,nan,nan,nan,nan,nan,nan,nan,nan,nan,nan,0.0,nan,nan,nan,nan,nan,nan,nan,nan,nan,nan,nan,nan,nan,nan,nan,nan,nan,nan,161.41350164660253,369.83202497905586,nan,370.04867591313086,nan,nan,nan,nan
1,156,1,1,1.0,1.0,0.27215205214452,0,3,6,0,1,2,8,nan,nan,nan,nan,nan,nan,nan,nan,nan,nan,nan,nan,0.0,nan,nan,nan,nan,nan,nan,nan,nan,nan,nan,nan,nan,nan,nan,nan,nan,nan,nan,161.41350164660253,370.84049918083474,nan,371.11265123297926,nan,nan,nan,nan
1,157,1,1,1.0,1.0,0.25597169797401875,0,4,2,3,6,8,7,nan,nan,nan,nan,nan,nan,nan,nan,nan,nan,nan,nan,0.0,nan,nan,nan,nan,nan,nan,nan,nan,nan,nan,nan,nan,nan,nan,nan,nan,nan,nan,161.41350164660253,371.8406494265655,nan,372.0966211245395,nan,nan,nan,nan
1,158,1,1,1.0,1.0,0.2715408056974411,0,7,3,2,0,5,1,nan,nan,nan,nan,nan,nan,nan,nan,nan,nan,nan,nan,0.0,nan,nan,nan,nan,nan,nan,nan,nan,nan,nan,nan,nan,nan,nan,nan,nan,nan,nan,161.41350164660253,372.8491056673229,nan,373.1206464730203,nan,nan,nan,nan
1,159,1,1,1.0,1.0,0.25535075820516795,0,1,8,0,2,4,6,nan,nan,nan,nan,nan,nan,nan,nan,nan,nan,nan,nan,0.0,nan,nan,nan,nan,nan,nan,nan,nan,nan,nan,nan,nan,nan,nan,nan,nan,nan,nan,161.41350164660253,373.8492299693171,nan,374.10458072752226,nan,nan,nan,nan
1,160,1,1,1.0,1.0,0.222843510331586,0,3,5,6,7,8,2,nan,nan,nan,nan,nan,nan,nan,nan,nan,nan,nan,nan,0.0,nan,nan,nan,nan,nan,nan,nan,nan,nan,nan,nan,nan,nan,nan,nan,nan,nan,nan,161.41350164660253,374.85770901769865,nan,375.08055252803024,nan,nan,nan,nan
1,161,1,1,1.0,1.0,0.15070816490333527,0,8,7,1,2,5,0,nan,nan,nan,nan,nan,nan,nan,nan,nan,nan,nan,nan,0.0,nan,nan,nan,nan,nan,nan,nan,nan,nan,nan,nan,nan,nan,nan,nan,nan,nan,nan,161.41350164660253,375.8578338898951,nan,376.00854205479845,nan,nan,nan,nan
1,162,1,1,1.0,1.0,0.03822656429838389,0,6,0,2,5,3,1,nan,nan,nan,nan,nan,nan,nan,nan,nan,nan,nan,nan,0.0,nan,nan,nan,nan,nan,nan,nan,nan,nan,nan,nan,nan,nan,nan,nan,nan,nan,nan,161.41350164660253,376.866305810865,nan,376.9045323751634,nan,nan,nan,nan
1,163,1,1,1.0,1.0,0.3177514913259074,0,2,3,8,6,4,5,nan,nan,nan,nan,nan,nan,nan,nan,nan,nan,nan,nan,0.0,nan,nan,nan,nan,nan,nan,nan,nan,nan,nan,nan,nan,nan,nan,nan,nan,nan,nan,161.41350164660253,377.87474523088895,nan,378.19249672221486,nan,nan,nan,nan
1,164,1,1,1.0,1.0,0.33362308621872216,0,4,6,7,8,2,3,nan,nan,nan,nan,nan,nan,nan,nan,nan,nan,nan,nan,0.0,nan,nan,nan,nan,nan,nan,nan,nan,nan,nan,nan,nan,nan,nan,nan,nan,nan,nan,161.41350164660253,378.8748336107237,nan,379.20845669694245,nan,nan,nan,nan
1,165,1,1,1.0,1.0,0.3494302494218573,0,6,2,0,5,7,4,nan,nan,nan,nan,nan,nan,nan,nan,nan,nan,nan,nan,0.0,nan,nan,nan,nan,nan,nan,nan,nan,nan,nan,nan,nan,nan,nan,nan,nan,nan,nan,161.41350164660253,379.87499583046883,nan,380.2244260798907,nan,nan,nan,nan
1,166,0,0,0.0,1.0,0.4053076944546774,0,0,7,6,4,3,1,nan,nan,nan,nan,nan,nan,nan,nan,nan,nan,nan,nan,0.0,nan,nan,nan,nan,nan,nan,nan,nan,nan,nan,nan,nan,nan,nan,nan,nan,nan,nan,161.41350164660253,380.87511728156824,nan,381.2804249760229,nan,nan,nan,nan
1,167,1,1,1.0,1.0,0.3411387943197042,0,7,4,5,8,1,2,nan,nan,nan,nan,nan,nan,nan,nan,nan,nan,nan,nan,0.0,nan,nan,nan,nan,nan,nan,nan,nan,nan,nan,nan,nan,nan,nan,nan,nan,nan,nan,161.41350164660253,381.8752489959588,nan,382.21638779027853,nan,nan,nan,nan
1,168,1,1,1.0,1.0,0.38098527572583407,0,3,5,4,1,6,7,nan,nan,nan,nan,nan,nan,nan,nan,nan,nan,nan,nan,0.0,nan,nan,nan,nan,nan,nan,nan,nan,nan,nan,nan,nan,nan,nan,nan,nan,nan,nan,161.41350164660253,382.8753792849602,nan,383.25636456068605,nan,nan,nan,nan
1,169,0,0,1.0,0.0,0.2928372125606984,0,4,7,1,2,0,8,nan,nan,nan,nan,nan,nan,nan,nan,nan,nan,nan,nan,0.0,nan,nan,nan,nan,nan,nan,nan,nan,nan,nan,nan,nan,nan,nan,nan,nan,nan,nan,161.41350164660253,383.8755041571567,nan,384.1683413697174,nan,nan,nan,nan
1,170,1,1,1.0,1.0,0.348682441865094,0,6,2,3,4,7,5,nan,nan,nan,nan,nan,nan,nan,nan,nan,nan,nan,nan,0.0,nan,nan,nan,nan,nan,nan,nan,nan,nan,nan,nan,nan,nan,nan,nan,nan,nan,nan,161.41350164660253,384.87563273555133,nan,385.22431517741643,nan,nan,nan,nan
1,171,1,1,1.0,1.0,0.3005273995222524,0,4,3,2,6,8,1,nan,nan,nan,nan,nan,nan,nan,nan,nan,nan,nan,nan,0.0,nan,nan,nan,nan,nan,nan,nan,nan,nan,nan,nan,nan,nan,nan,nan,nan,nan,nan,161.41350164660253,385.8757749986835,nan,386.17630239820573,nan,nan,nan,nan
1,172,1,1,1.0,1.0,0.22838977340143174,0,5,8,6,4,2,7,nan,nan,nan,nan,nan,nan,nan,nan,nan,nan,nan,nan,0.0,nan,nan,nan,nan,nan,nan,nan,nan,nan,nan,nan,nan,nan,nan,nan,nan,nan,nan,161.41350164660253,386.8759041472804,nan,387.1042939206818,nan,nan,nan,nan
1,173,1,1,1.0,1.0,0.29220743488986045,0,7,4,8,0,1,3,nan,nan,nan,nan,nan,nan,nan,nan,nan,nan,nan,nan,0.0,nan,nan,nan,nan,nan,nan,nan,nan,nan,nan,nan,nan,nan,nan,nan,nan,nan,nan,161.41350164660253,387.8760384275811,nan,388.16824586247094,nan,nan,nan,nan
1,174,1,1,1.0,1.0,0.3160497515928,0,3,6,0,4,5,2,nan,nan,nan,nan,nan,nan,nan,nan,nan,nan,nan,nan,0.0,nan,nan,nan,nan,nan,nan,nan,nan,nan,nan,nan,nan,nan,nan,nan,nan,nan,nan,161.41350164660253,388.8761741333874,nan,389.1922238849802,nan,nan,nan,nan
1,175,1,1,1.0,1.0,0.34759280388243496,0,6,8,1,0,4,5,nan,nan,nan,nan,nan,nan,nan,nan,nan,nan,nan,nan,0.0,nan,nan,nan,nan,nan,nan,nan,nan,nan,nan,nan,nan,nan,nan,nan,nan,nan,nan,161.41350164660253,389.88461640442256,nan,390.232209208305,nan,nan,nan,nan
1,176,1,1,1.0,1.0,0.22743840713519603,0,8,3,6,4,5,1,nan,nan,nan,nan,nan,nan,nan,nan,nan,nan,nan,nan,0.0,nan,nan,nan,nan,nan,nan,nan,nan,nan,nan,nan,nan,nan,nan,nan,nan,nan,nan,161.41350164660253,390.8847398511134,nan,391.1121782582486,nan,nan,nan,nan
1,177,1,1,1.0,1.0,0.21928408334497362,0,0,4,5,1,3,7,nan,nan,nan,nan,nan,nan,nan,nan,nan,nan,nan,nan,0.0,nan,nan,nan,nan,nan,nan,nan,nan,nan,nan,nan,nan,nan,nan,nan,nan,nan,nan,161.41350164660253,391.88487213582266,nan,392.10415621916763,nan,nan,nan,nan
1,178,1,1,1.0,1.0,0.13114941981621087,0,4,5,2,3,1,6,nan,nan,nan,nan,nan,nan,nan,nan,nan,nan,nan,nan,0.0,nan,nan,nan,nan,nan,nan,nan,nan,nan,nan,nan,nan,nan,nan,nan,nan,nan,nan,161.41350164660253,392.8849952974124,nan,393.0161447172286,nan,nan,nan,nan
1,179,1,1,1.0,1.0,0.2829708856297657,0,2,1,5,4,7,8,nan,nan,nan,nan,nan,nan,nan,nan,nan,nan,nan,nan,0.0,nan,nan,nan,nan,nan,nan,nan,nan,nan,nan,nan,nan,nan,nan,nan,nan,nan,nan,161.41350164660253,393.88514440273866,nan,394.1681152883684,nan,nan,nan,nan
1,180,1,1,1.0,1.0,0.29085037659388036,0,3,8,4,6,5,0,nan,nan,nan,nan,nan,nan,nan,nan,nan,nan,nan,nan,0.0,nan,nan,nan,nan,nan,nan,nan,nan,nan,nan,nan,nan,nan,nan,nan,nan,nan,nan,161.41350164660253,394.88525559031405,nan,395.1761059669079,nan,nan,nan,nan
1,181,1,1,1.0,1.0,0.31469012738671154,1,6,0,5,7,4,3,1.0,1.0,1.0,1.0,1.0,1.0,0.0,0.0,1.0,0.0,0.0,0.0,1.0,4.0,7.0,5.0,3.0,2.0,0.0,5.0,6.0,1.0,2.0,3.0,4.0,3.7001231900649145,4.371131492895074,1.0781793865608051,1.8537989221513271,2.804274847614579,3.148670581751503,161.41350164660253,395.8853781817015,396.6937974739121,396.20006830908824,402.12781094247475,403.1315254619112,397.71893498301506,402.1194787186105
1,182,1,1,1.0,1.0,0.5435625688405707,0,1,5,8,2,7,6,nan,nan,nan,nan,nan,nan,nan,nan,nan,nan,nan,nan,0.0,nan,nan,nan,nan,nan,nan,nan,nan,nan,nan,nan,nan,nan,nan,nan,nan,nan,nan,161.41350164660253,403.3363363475073,nan,403.8798989163479,nan,nan,nan,nan
1,183,0,0,0.0,1.0,0.39139271527528763,0,2,3,1,7,0,4,nan,nan,nan,nan,nan,nan,nan,nan,nan,nan,nan,nan,0.0,nan,nan,nan,nan,nan,nan,nan,nan,nan,nan,nan,nan,nan,nan,nan,nan,nan,nan,161.41350164660253,404.33647233841475,nan,404.72786505369004,nan,nan,nan,nan
1,184,1,1,1.0,1.0,0.3352364460006356,0,5,0,6,2,1,3,nan,nan,nan,nan,nan,nan,nan,nan,nan,nan,nan,nan,0.0,nan,nan,nan,nan,nan,nan,nan,nan,nan,nan,nan,nan,nan,nan,nan,nan,nan,nan,161.41350164660253,405.3366134611424,nan,405.67184990714304,nan,nan,nan,nan
1,185,1,1,1.0,1.0,0.263082854449749,0,3,8,5,1,4,2,nan,nan,nan,nan,nan,nan,nan,nan,nan,nan,nan,nan,0.0,nan,nan,nan,nan,nan,nan,nan,nan,nan,nan,nan,nan,nan,nan,nan,nan,nan,nan,161.41350164660253,406.3367391885258,nan,406.5998220429756,nan,nan,nan,nan
1,186,1,1,1.0,1.0,0.29497229866683483,0,0,5,4,2,3,7,nan,nan,nan,nan,nan,nan,nan,nan,nan,nan,nan,nan,0.0,nan,nan,nan,nan,nan,nan,nan,nan,nan,nan,nan,nan,nan,nan,nan,nan,nan,nan,161.41350164660253,407.3368412529817,nan,407.6318135516485,nan,nan,nan,nan
1,187,1,1,1.0,1.0,0.2947864157613367,0,8,0,3,5,2,6,nan,nan,nan,nan,nan,nan,nan,nan,nan,nan,nan,nan,0.0,nan,nan,nan,nan,nan,nan,nan,nan,nan,nan,nan,nan,nan,nan,nan,nan,nan,nan,161.41350164660253,408.33699663053267,nan,408.631783046294,nan,nan,nan,nan
1,188,1,1,1.0,1.0,0.3026730342535302,0,1,8,6,4,0,7,nan,nan,nan,nan,nan,nan,nan,nan,nan,nan,nan,nan,0.0,nan,nan,nan,nan,nan,nan,nan,nan,nan,nan,nan,nan,nan,nan,nan,nan,nan,nan,161.41350164660253,409.3370810189517,nan,409.63975405320525,nan,nan,nan,nan
1,189,1,1,1.0,1.0,0.27849145291838795,0,8,4,5,6,1,3,nan,nan,nan,nan,nan,nan,nan,nan,nan,nan,nan,nan,0.0,nan,nan,nan,nan,nan,nan,nan,nan,nan,nan,nan,nan,nan,nan,nan,nan,nan,nan,161.41350164660253,410.3372361114016,nan,410.61572756431997,nan,nan,nan,nan
1,190,0,0,0.0,1.0,0.3420205970760435,0,6,0,2,5,4,7,nan,nan,nan,nan,nan,nan,nan,nan,nan,nan,nan,nan,0.0,nan,nan,nan,nan,nan,nan,nan,nan,nan,nan,nan,nan,nan,nan,nan,nan,nan,nan,161.41350164660253,411.3456869352376,nan,411.68770753231365,nan,nan,nan,nan
1,191,1,1,1.0,1.0,0.2858477922854945,0,1,6,3,0,7,2,nan,nan,nan,nan,nan,nan,nan,nan,nan,nan,nan,nan,0.0,nan,nan,nan,nan,nan,nan,nan,nan,nan,nan,nan,nan,nan,nan,nan,nan,nan,nan,161.41350164660253,412.3458300535567,nan,412.6316778458422,nan,nan,nan,nan
1,192,1,1,1.0,1.0,0.2696777015225962,1,4,7,1,8,2,3,1.0,1.0,1.0,1.0,1.0,1.0,0.0,0.0,1.0,1.0,0.0,0.0,2.0,7.0,8.0,1.0,8.0,0.0,4.0,4.0,3.0,1.0,2.0,6.0,5.0,3.6628197676036507,3.0065882899798453,1.1666105502517894,2.0321865145815536,5.37440753437113,4.583337205927819,161.41350164660253,413.34601137484424,414.1543645247584,413.61568907636683,420.5801866069669,421.58591305080336,415.17116581858136,420.5718529577134
1,193,1,1,1.0,1.0,0.2427865652134642,0,5,3,6,7,8,4,nan,nan,nan,nan,nan,nan,nan,nan,nan,nan,nan,nan,0.0,nan,nan,nan,nan,nan,nan,nan,nan,nan,nan,nan,nan,nan,nan,nan,nan,nan,nan,161.41350164660253,421.78870402940083,nan,422.0314905946143,nan,nan,nan,nan
1,194,1,1,1.0,1.0,0.22664127789903432,0,8,4,2,5,0,6,nan,nan,nan,nan,nan,nan,nan,nan,nan,nan,nan,nan,0.0,nan,nan,nan,nan,nan,nan,nan,nan,nan,nan,nan,nan,nan,nan,nan,nan,nan,nan,161.41350164660253,422.7888189231744,nan,423.01546020107344,nan,nan,nan,nan
1,195,1,1,1.0,1.0,0.21847754588816315,0,6,7,3,1,5,2,nan,nan,nan,nan,nan,nan,nan,nan,nan,nan,nan,nan,0.0,nan,nan,nan,nan,nan,nan,nan,nan,nan,nan,nan,nan,nan,nan,nan,nan,nan,nan,161.41350164660253,423.78894864197355,nan,424.0074261878617,nan,nan,nan,nan
1,196,1,1,1.0,1.0,0.22631968930363655,0,2,3,1,6,0,4,nan,nan,nan,nan,nan,nan,nan,nan,nan,nan,nan,nan,0.0,nan,nan,nan,nan,nan,nan,nan,nan,nan,nan,nan,nan,nan,nan,nan,nan,nan,nan,161.41350164660253,424.7890769352671,nan,425.0153966245707,nan,nan,nan,nan
1,197,1,1,1.0,1.0,0.2901681411312893,0,1,7,6,3,4,2,nan,nan,nan,nan,nan,nan,nan,nan,nan,nan,nan,nan,0.0,nan,nan,nan,nan,nan,nan,nan,nan,nan,nan,nan,nan,nan,nan,nan,nan,nan,nan,161.41350164660253,425.7892038031714,nan,426.0793719443027,nan,nan,nan,nan
1,198,1,1,1.0,1.0,0.27401857753284276,0,6,4,5,2,0,3,nan,nan,nan,nan,nan,nan,nan,nan,nan,nan,nan,nan,0.0,nan,nan,nan,nan,nan,nan,nan,nan,nan,nan,nan,nan,nan,nan,nan,nan,nan,nan,161.41350164660253,426.789335517562,nan,427.06335409509484,nan,nan,nan,nan
1,199,1,1,1.0,1.0,0.2658842104719952,0,7,5,4,0,6,2,nan,nan,nan,nan,nan,nan,nan,nan,nan,nan,nan,nan,0.0,nan,nan,nan,nan,nan,nan,nan,nan,nan,nan,nan,nan,nan,nan,nan,nan,nan,nan,161.41350164660253,427.7894598195562,nan,428.0553440300282,nan,nan,nan,nan
1,200,1,1,1.0,1.0,0.23373504355549812,1,2,4,5,8,0,3,1.0,1.0,1.0,1.0,1.0,1.0,0.0,0.0,1.0,1.0,0.0,0.0,2.0,1.0,7.0,5.0,8.0,3.0,4.0,5.0,6.0,1.0,2.0,3.0,4.0,3.3390878116479144,3.9389152714284137,0.850987302721478,1.5224705759901553,2.346445291303098,2.8588508282555267,161.41350164660253,428.78958953835536,429.5980139623862,429.02332458191086,434.5903032483766,435.59440521372017,430.6148152562091,434.58197102462873
1,201,1,1,1.0,1.0,0.3363283647922799,0,5,6,1,2,7,0,nan,nan,nan,nan,nan,nan,nan,nan,nan,nan,nan,nan,0.0,nan,nan,nan,nan,nan,nan,nan,nan,nan,nan,nan,nan,nan,nan,nan,nan,nan,nan,161.41350164660253,435.79883863183204,nan,436.1351669966243,nan,nan,nan,nan
1,202,1,1,1.0,1.0,0.32815893087536097,0,3,2,6,0,5,4,nan,nan,nan,nan,nan,nan,nan,nan,nan,nan,nan,nan,0.0,nan,nan,nan,nan,nan,nan,nan,nan,nan,nan,nan,nan,nan,nan,nan,nan,nan,nan,161.41350164660253,436.79894867900293,nan,437.1271076098783,nan,nan,nan,nan
1,203,1,1,1.0,1.0,0.28001329686958343,0,2,5,4,3,8,0,nan,nan,nan,nan,nan,nan,nan,nan,nan,nan,nan,nan,0.0,nan,nan,nan,nan,nan,nan,nan,nan,nan,nan,nan,nan,nan,nan,nan,nan,nan,nan,161.41350164660253,437.7990758320084,nan,438.07908912887797,nan,nan,nan,nan
1,204,1,1,1.0,1.0,0.31185541523154825,0,1,6,7,2,4,3,nan,nan,nan,nan,nan,nan,nan,nan,nan,nan,nan,nan,0.0,nan,nan,nan,nan,nan,nan,nan,nan,nan,nan,nan,nan,nan,nan,nan,nan,nan,nan,161.41350164660253,438.79920697619673,nan,439.1110623914283,nan,nan,nan,nan
1,205,1,1,1.0,1.0,0.25576186703983694,1,0,5,6,4,2,7,1.0,1.0,1.0,1.0,1.0,1.0,0.0,1.0,1.0,1.0,0.0,1.0,4.0,3.0,5.0,6.0,4.0,5.0,7.0,5.0,6.0,1.0,2.0,3.0,4.0,3.4569808247033507,4.168805221328512,0.7927201805869117,1.4987813559127972,2.345635047648102,2.8571031880564988,161.41350164660253,439.79930191335734,440.6077494301135,440.0550637803972,445.8334122574888,446.841754459776,441.6245666893665,445.82509514375124
1,206,0,0,0.0,1.0,0.4689711189130321,0,2,3,7,6,0,8,nan,nan,nan,nan,nan,nan,nan,nan,nan,nan,nan,nan,0.0,nan,nan,nan,nan,nan,nan,nan,nan,nan,nan,nan,nan,nan,nan,nan,nan,nan,nan,161.41350164660253,447.04192711401265,nan,447.5108982329257,nan,nan,nan,nan
1,207,1,1,1.0,1.0,0.4048113417811692,0,5,4,0,7,6,3,nan,nan,nan,nan,nan,nan,nan,nan,nan,nan,nan,nan,0.0,nan,nan,nan,nan,nan,nan,nan,nan,nan,nan,nan,nan,nan,nan,nan,nan,nan,nan,161.41350164660253,448.04203972709365,nan,448.4468510688748,nan,nan,nan,nan
1,208,1,1,1.0,1.0,0.3006457145093009,0,8,3,4,0,1,5,nan,nan,nan,nan,nan,nan,nan,nan,nan,nan,nan,nan,0.0,nan,nan,nan,nan,nan,nan,nan,nan,nan,nan,nan,nan,nan,nan,nan,nan,nan,nan,161.41350164660253,449.04219025792554,nan,449.34283597243484,nan,nan,nan,nan
1,209,1,1,1.0,1.0,0.26050558406859636,0,2,6,5,7,8,3,nan,nan,nan,nan,nan,nan,nan,nan,nan,nan,nan,nan,0.0,nan,nan,nan,nan,nan,nan,nan,nan,nan,nan,nan,nan,nan,nan,nan,nan,nan,nan,161.41350164660253,450.04231684061233,nan,450.3028224246809,nan,nan,nan,nan
1,210,1,1,1.0,1.0,0.23636819270905107,0,6,0,8,3,5,1,nan,nan,nan,nan,nan,nan,nan,nan,nan,nan,nan,nan,0.0,nan,nan,nan,nan,nan,nan,nan,nan,nan,nan,nan,nan,nan,nan,nan,nan,nan,nan,161.41350164660253,451.04243857681286,nan,451.2788067695219,nan,nan,nan,nan
1,211,1,1,1.0,1.0,0.22786348569206893,0,1,4,3,8,6,5,nan,nan,nan,nan,nan,nan,nan,nan,nan,nan,nan,nan,0.0,nan,nan,nan,nan,nan,nan,nan,nan,nan,nan,nan,nan,nan,nan,nan,nan,nan,nan,161.41350164660253,452.05090935737826,nan,452.2787728430703,nan,nan,nan,nan
1,212,1,1,1.0,1.0,0.24369374162051827,0,2,5,6,3,4,1,nan,nan,nan,nan,nan,nan,nan,nan,nan,nan,nan,nan,0.0,nan,nan,nan,nan,nan,nan,nan,nan,nan,nan,nan,nan,nan,nan,nan,nan,nan,nan,161.41350164660253,453.0510450631846,nan,453.2947388048051,nan,nan,nan,nan
1,213,1,1,1.0,1.0,0.21155056171119213,0,3,0,7,5,1,8,nan,nan,nan,nan,nan,nan,nan,nan,nan,nan,nan,nan,0.0,nan,nan,nan,nan,nan,nan,nan,nan,nan,nan,nan,nan,nan,nan,nan,nan,nan,nan,161.41350164660253,454.05116508877836,nan,454.26271565048955,nan,nan,nan,nan
1,214,1,1,1.0,1.0,0.1634017915930599,0,0,6,3,1,8,5,nan,nan,nan,nan,nan,nan,nan,nan,nan,nan,nan,nan,0.0,nan,nan,nan,nan,nan,nan,nan,nan,nan,nan,nan,nan,nan,nan,nan,nan,nan,nan,161.41350164660253,455.0512896758737,nan,455.21469146746676,nan,nan,nan,nan
1,215,1,1,1.0,1.0,0.12325225293170661,0,6,2,7,3,1,4,nan,nan,nan,nan,nan,nan,nan,nan,nan,nan,nan,nan,0.0,nan,nan,nan,nan,nan,nan,nan,nan,nan,nan,nan,nan,nan,nan,nan,nan,nan,nan,161.41350164660253,456.0514211051632,nan,456.1746733580949,nan,nan,nan,nan
1,216,1,1,1.0,1.0,0.05912469164468348,0,0,4,3,6,5,2,nan,nan,nan,nan,nan,nan,nan,nan,nan,nan,nan,nan,0.0,nan,nan,nan,nan,nan,nan,nan,nan,nan,nan,nan,nan,nan,nan,nan,nan,nan,nan,161.41350164660253,457.05154198606033,nan,457.110666677705,nan,nan,nan,nan
1,217,1,1,nan,nan,nan,0,8,2,1,5,0,4,nan,nan,nan,nan,nan,nan,nan,nan,nan,nan,nan,nan,0.0,nan,nan,nan,nan,nan,nan,nan,nan,nan,nan,nan,nan,nan,nan,nan,nan,nan,nan,161.41350164660253,458.05168824037537,nan,nan,nan,nan,nan,nan
1,218,1,1,nan,nan,nan,0,7,8,4,6,2,5,nan,nan,nan,nan,nan,nan,nan,nan,nan,nan,nan,nan,0.0,nan,nan,nan,nan,nan,nan,nan,nan,nan,nan,nan,nan,nan,nan,nan,nan,nan,nan,161.41350164660253,459.05180798086803,nan,nan,nan,nan,nan,nan
1,219,1,1,1.0,1.0,0.7386194554856047,0,0,4,6,5,8,3,nan,nan,nan,nan,nan,nan,nan,nan,nan,nan,nan,nan,0.0,nan,nan,nan,nan,nan,nan,nan,nan,nan,nan,nan,nan,nan,nan,nan,nan,nan,nan,161.41350164660253,460.05194625258446,nan,460.79056570807006,nan,nan,nan,nan
1,220,1,1,1.0,1.0,0.6585079714423046,0,8,7,4,2,3,1,nan,nan,nan,nan,nan,nan,nan,nan,nan,nan,nan,nan,0.0,nan,nan,nan,nan,nan,nan,nan,nan,nan,nan,nan,nan,nan,nan,nan,nan,nan,nan,161.41350164660253,461.05206285696477,nan,461.71057082840707,nan,nan,nan,nan
1,221,1,1,1.0,1.0,0.5540287382900715,0,4,1,2,6,0,7,nan,nan,nan,nan,nan,nan,nan,nan,nan,nan,nan,nan,0.0,nan,nan,nan,nan,nan,nan,nan,nan,nan,nan,nan,nan,nan,nan,nan,nan,nan,nan,161.41350164660253,462.0605478923535,nan,462.61457663064357,nan,nan,nan,nan
1,222,1,1,1.0,1.0,0.3938713422976434,0,2,8,4,3,1,0,nan,nan,nan,nan,nan,nan,nan,nan,nan,nan,nan,nan,0.0,nan,nan,nan,nan,nan,nan,nan,nan,nan,nan,nan,nan,nan,nan,nan,nan,nan,nan,161.41350164660253,463.06065337802283,nan,463.4545247203205,nan,nan,nan,nan
1,223,1,1,1.0,1.0,0.3057352532632649,1,5,0,6,1,2,8,1.0,1.0,1.0,1.0,1.0,1.0,0.0,0.0,0.0,0.0,0.0,0.0,0.0,3.0,4.0,4.0,5.0,5.0,3.0,3.0,2.0,1.0,6.0,5.0,4.0,2.930879547726363,1.7641797623364255,1.0447162109194323,4.7868184024700895,4.179176453733817,3.675249395077117,161.41350164660253,464.06077882042155,464.8691909852205,464.3665140736848,470.7115652442444,471.70762407325674,465.8860005468596,470.7032974520698
1,224,0,0,0.0,1.0,0.6545294529059902,0,8,5,7,0,6,3,nan,nan,nan,nan,nan,nan,nan,nan,nan,nan,nan,nan,0.0,nan,nan,nan,nan,nan,nan,nan,nan,nan,nan,nan,nan,nan,nan,nan,nan,nan,nan,161.41350164660253,471.91178664995823,nan,472.5663161028642,nan,nan,nan,nan
1,225,1,1,1.0,1.0,0.39837215724401176,0,4,6,1,8,2,5,nan,nan,nan,nan,nan,nan,nan,nan,nan,nan,nan,nan,0.0,nan,nan,nan,nan,nan,nan,nan,nan,nan,nan,nan,nan,nan,nan,nan,nan,nan,nan,161.41350164660253,472.91190867114346,nan,473.3102808283875,nan,nan,nan,nan
1,226,1,1,1.0,1.0,0.24622254562564194,0,0,2,6,1,7,8,nan,nan,nan,nan,nan,nan,nan,nan,nan,nan,nan,nan,0.0,nan,nan,nan,nan,nan,nan,nan,nan,nan,nan,nan,nan,nan,nan,nan,nan,nan,nan,161.41350164660253,473.9120409558527,nan,474.15826350147836,nan,nan,nan,nan
1,227,1,1,1.0,1.0,0.2301097591407597,0,1,5,8,6,3,0,nan,nan,nan,nan,nan,nan,nan,nan,nan,nan,nan,nan,0.0,nan,nan,nan,nan,nan,nan,nan,nan,nan,nan,nan,nan,nan,nan,nan,nan,nan,nan,161.41350164660253,474.9121381737059,nan,475.14224793284666,nan,nan,nan,nan
1,228,1,1,1.0,1.0,0.07794361200649291,0,6,7,2,3,1,8,nan,nan,nan,nan,nan,nan,nan,nan,nan,nan,nan,nan,0.0,nan,nan,nan,nan,nan,nan,nan,nan,nan,nan,nan,nan,nan,nan,nan,nan,nan,nan,161.41350164660253,475.91229355114046,nan,475.99023716314696,nan,nan,nan,nan
1,229,1,1,1.0,1.0,0.08577606198377907,0,7,8,1,5,4,3,nan,nan,nan,nan,nan,nan,nan,nan,nan,nan,nan,nan,0.0,nan,nan,nan,nan,nan,nan,nan,nan,nan,nan,nan,nan,nan,nan,nan,nan,nan,nan,161.41350164660253,476.91242355504073,nan,476.9981996170245,nan,nan,nan,nan
1,230,1,1,1.0,1.0,0.23762774805072695,0,2,5,0,4,7,6,nan,nan,nan,nan,nan,nan,nan,nan,nan,nan,nan,nan,0.0,nan,nan,nan,nan,nan,nan,nan,nan,nan,nan,nan,nan,nan,nan,nan,nan,nan,nan,161.41350164660253,477.9125598310493,nan,478.1501875791,nan,nan,nan,nan
1,231,1,1,1.0,1.0,0.2375139946816489,0,4,0,6,3,5,7,nan,nan,nan,nan,nan,nan,nan,nan,nan,nan,nan,nan,0.0,nan,nan,nan,nan,nan,nan,nan,nan,nan,nan,nan,nan,nan,nan,nan,nan,nan,nan,161.41350164660253,478.912644789787,nan,479.15015878446866,nan,nan,nan,nan
1,232,0,0,1.0,0.0,0.2613078450085595,0,1,2,3,7,6,0,nan,nan,nan,nan,nan,nan,nan,nan,nan,nan,nan,nan,0.0,nan,nan,nan,nan,nan,nan,nan,nan,nan,nan,nan,nan,nan,nan,nan,nan,nan,nan,161.41350164660253,479.9128152773483,nan,480.17412312235683,nan,nan,nan,nan
1,233,1,1,1.0,1.0,0.26914913300424814,0,4,1,2,0,7,3,nan,nan,nan,nan,nan,nan,nan,nan,nan,nan,nan,nan,0.0,nan,nan,nan,nan,nan,nan,nan,nan,nan,nan,nan,nan,nan,nan,nan,nan,nan,nan,161.41350164660253,480.91294271533843,nan,481.1820918483427,nan,nan,nan,nan
1,234,1,1,1.0,1.0,0.18100962287280709,0,8,7,3,2,0,1,nan,nan,nan,nan,nan,nan,nan,nan,nan,nan,nan,nan,0.0,nan,nan,nan,nan,nan,nan,nan,nan,nan,nan,nan,nan,nan,nan,nan,nan,nan,nan,161.41350164660253,481.9130741447443,nan,482.0940837676171,nan,nan,nan,nan
1,235,1,1,1.0,1.0,0.19684843171853572,0,2,8,7,6,4,5,nan,nan,nan,nan,nan,nan,nan,nan,nan,nan,nan,nan,0.0,nan,nan,nan,nan,nan,nan,nan,nan,nan,nan,nan,nan,nan,nan,nan,nan,nan,nan,161.41350164660253,482.9132047188468,nan,483.11005315056536,nan,nan,nan,nan
1,236,0,0,1.0,0.0,0.19668535667005926,0,5,7,6,0,3,1,nan,nan,nan,nan,nan,nan,nan,nan,nan,nan,nan,nan,0.0,nan,nan,nan,nan,nan,nan,nan,nan,nan,nan,nan,nan,nan,nan,nan,nan,nan,nan,161.41350164660253,483.91334669676144,nan,484.1100320534315,nan,nan,nan,nan
1,237,1,1,1.0,1.0,0.19653881713747978,0,7,3,5,4,2,6,nan,nan,nan,nan,nan,nan,nan,nan,nan,nan,nan,nan,0.0,nan,nan,nan,nan,nan,nan,nan,nan,nan,nan,nan,nan,nan,nan,nan,nan,nan,nan,161.41350164660253,484.9134575992357,nan,485.1099964163732,nan,nan,nan,nan
1,238,1,1,1.0,1.0,0.26007423328701407,0,1,8,3,5,6,0,nan,nan,nan,nan,nan,nan,nan,nan,nan,nan,nan,nan,0.0,nan,nan,nan,nan,nan,nan,nan,nan,nan,nan,nan,nan,nan,nan,nan,nan,nan,nan,161.41350164660253,485.921908138087,nan,486.18198237137403,nan,nan,nan,nan
1,239,1,1,1.0,1.0,0.267932056915015,1,3,0,8,6,2,4,1.0,1.0,1.0,1.0,1.0,1.0,0.0,0.0,1.0,1.0,0.0,1.0,3.0,5.0,6.0,8.0,6.0,7.0,4.0,5.0,6.0,1.0,2.0,3.0,4.0,5.142017004895024,5.893112558638677,1.1336462930776179,2.102833942626603,3.2774468602146953,4.533934867475182,161.41350164660253,486.9220372866839,487.7304588597035,487.18996934359893,494.6730142403394,495.68426214379724,488.7389273594599,494.6646728933556
1,240,1,1,1.0,1.0,0.32391783874481916,0,0,6,7,2,1,8,nan,nan,nan,nan,nan,nan,nan,nan,nan,nan,nan,nan,0.0,nan,nan,nan,nan,nan,nan,nan,nan,nan,nan,nan,nan,nan,nan,nan,nan,nan,nan,161.41350164660253,495.88984307448845,nan,496.2137609132333,nan,nan,nan,nan
1,241,1,1,1.0,1.0,0.3317229194799438,0,3,0,6,1,7,2,nan,nan,nan,nan,nan,nan,nan,nan,nan,nan,nan,nan,0.0,nan,nan,nan,nan,nan,nan,nan,nan,nan,nan,nan,nan,nan,nan,nan,nan,nan,nan,161.41350164660253,496.89000472414773,nan,497.2217276436277,nan,nan,nan,nan
1,242,1,1,1.0,1.0,0.3232649682322517,0,2,8,0,7,1,4,nan,nan,nan,nan,nan,nan,nan,nan,nan,nan,nan,nan,0.0,nan,nan,nan,nan,nan,nan,nan,nan,nan,nan,nan,nan,nan,nan,nan,nan,nan,nan,161.41350164660253,497.8984589690808,nan,498.2217239373131,nan,nan,nan,nan
1,243,0,0,0.0,1.0,0.45107534038834274,0,5,7,2,3,0,6,nan,nan,nan,nan,nan,nan,nan,nan,nan,nan,nan,nan,0.0,nan,nan,nan,nan,nan,nan,nan,nan,nan,nan,nan,nan,nan,nan,nan,nan,nan,nan,161.41350164660253,498.89859838120174,nan,499.3496737215901,nan,nan,nan,nan
1,244,1,1,1.0,1.0,0.29093390982598066,0,2,6,4,0,8,1,nan,nan,nan,nan,nan,nan,nan,nan,nan,nan,nan,nan,0.0,nan,nan,nan,nan,nan,nan,nan,nan,nan,nan,nan,nan,nan,nan,nan,nan,nan,nan,161.41350164660253,499.89872382360045,nan,500.18965773342643,nan,nan,nan,nan
1,245,1,1,1.0,1.0,0.2664632409578189,0,6,8,3,7,4,2,nan,nan,nan,nan,nan,nan,nan,nan,nan,nan,nan,nan,0.0,nan,nan,nan,nan,nan,nan,nan,nan,nan,nan,nan,nan,nan,nan,nan,nan,nan,nan,161.41350164660253,500.9071632436244,nan,501.1736264845822,nan,nan,nan,nan
1,246,1,1,1.0,1.0,0.3382764275884256,0,4,1,8,6,5,3,nan,nan,nan,nan,nan,nan,nan,nan,nan,nan,nan,nan,0.0,nan,nan,nan,nan,nan,nan,nan,nan,nan,nan,nan,nan,nan,nan,nan,nan,nan,nan,161.41350164660253,501.9073291696841,nan,502.2456055972725,nan,nan,nan,nan
1,247,1,1,1.0,1.0,0.41016402444802225,0,0,4,6,2,3,7,nan,nan,nan,nan,nan,nan,nan,nan,nan,nan,nan,nan,0.0,nan,nan,nan,nan,nan,nan,nan,nan,nan,nan,nan,nan,nan,nan,nan,nan,nan,nan,161.41350164660253,502.907415553811,nan,503.31757957825903,nan,nan,nan,nan
1,248,1,1,1.0,1.0,0.529999683611095,0,8,7,4,5,0,2,nan,nan,nan,nan,nan,nan,nan,nan,nan,nan,nan,nan,0.0,nan,nan,nan,nan,nan,nan,nan,nan,nan,nan,nan,nan,nan,nan,nan,nan,nan,nan,161.41350164660253,503.9075524000218,nan,504.4375520836329,nan,nan,nan,nan
1,249,1,1,1.0,1.0,0.40151733940001577,0,5,0,8,4,7,6,nan,nan,nan,nan,nan,nan,nan,nan,nan,nan,nan,nan,0.0,nan,nan,nan,nan,nan,nan,nan,nan,nan,nan,nan,nan,nan,nan,nan,nan,nan,nan,161.41350164660253,504.9160191892879,nan,505.3175365286879,nan,nan,nan,nan
1,250,1,1,1.0,1.0,0.305380878620781,0,2,4,6,8,3,1,nan,nan,nan,nan,nan,nan,nan,nan,nan,nan,nan,nan,0.0,nan,nan,nan,nan,nan,nan,nan,nan,nan,nan,nan,nan,nan,nan,nan,nan,nan,nan,161.41350164660253,505.9161429210799,nan,506.22152379970066,nan,nan,nan,nan
1,251,1,1,1.0,1.0,0.28122638154309243,0,3,8,4,5,6,7,nan,nan,nan,nan,nan,nan,nan,nan,nan,nan,nan,nan,0.0,nan,nan,nan,nan,nan,nan,nan,nan,nan,nan,nan,nan,nan,nan,nan,nan,nan,nan,161.41350164660253,506.9162686485797,nan,507.1974950301228,nan,nan,nan,nan
1,252,0,0,0.0,1.0,0.6330651242751628,0,1,2,8,4,3,5,nan,nan,nan,nan,nan,nan,nan,nan,nan,nan,nan,nan,0.0,nan,nan,nan,nan,nan,nan,nan,nan,nan,nan,nan,nan,nan,nan,nan,nan,nan,nan,161.41350164660253,507.9163949461654,nan,508.54946007044055,nan,nan,nan,nan
1,253,1,1,nan,nan,nan,0,8,5,1,7,0,3,nan,nan,nan,nan,nan,nan,nan,nan,nan,nan,nan,nan,0.0,nan,nan,nan,nan,nan,nan,nan,nan,nan,nan,nan,nan,nan,nan,nan,nan,nan,nan,161.41350164660253,508.91652352467645,nan,nan,nan,nan,nan,nan
1,254,0,0,0.0,1.0,0.5207733977586031,0,6,0,7,4,2,5,nan,nan,nan,nan,nan,nan,nan,nan,nan,nan,nan,nan,0.0,nan,nan,nan,nan,nan,nan,nan,nan,nan,nan,nan,nan,nan,nan,nan,nan,nan,nan,161.41350164660253,509.9166558092693,nan,510.4374292070279,nan,nan,nan,nan
1,255,1,1,1.0,1.0,0.32860425137914717,0,0,7,6,1,4,8,nan,nan,nan,nan,nan,nan,nan,nan,nan,nan,nan,nan,0.0,nan,nan,nan,nan,nan,nan,nan,nan,nan,nan,nan,nan,nan,nan,nan,nan,nan,nan,161.41350164660253,510.91681973962113,nan,511.2454239910003,nan,nan,nan,nan
1,256,1,1,1.0,1.0,0.272472215234302,0,7,0,8,6,1,3,nan,nan,nan,nan,nan,nan,nan,nan,nan,nan,nan,nan,0.0,nan,nan,nan,nan,nan,nan,nan,nan,nan,nan,nan,nan,nan,nan,nan,nan,nan,nan,161.41350164660253,511.9169064089656,nan,512.1893786241999,nan,nan,nan,nan
1,257,1,1,1.0,1.0,0.2803154989378527,0,2,6,7,5,8,0,nan,nan,nan,nan,nan,nan,nan,nan,nan,nan,nan,nan,0.0,nan,nan,nan,nan,nan,nan,nan,nan,nan,nan,nan,nan,nan,nan,nan,nan,nan,nan,161.41350164660253,512.9170472464757,nan,513.1973627454136,nan,nan,nan,nan
1,258,1,1,1.0,1.0,0.26416793081443757,0,4,1,5,3,6,7,nan,nan,nan,nan,nan,nan,nan,nan,nan,nan,nan,nan,0.0,nan,nan,nan,nan,nan,nan,nan,nan,nan,nan,nan,nan,nan,nan,nan,nan,nan,nan,161.41350164660253,513.9171726888744,nan,514.1813406196889,nan,nan,nan,nan
1,259,0,0,1.0,0.0,0.232003653771244,0,2,5,4,0,3,6,nan,nan,nan,nan,nan,nan,nan,nan,nan,nan,nan,nan,0.0,nan,nan,nan,nan,nan,nan,nan,nan,nan,nan,nan,nan,nan,nan,nan,nan,nan,nan,161.41350164660253,514.9173001268646,nan,515.1493037806358,nan,nan,nan,nan
1,260,1,1,1.0,1.0,0.23984237597323954,0,4,7,1,6,0,2,nan,nan,nan,nan,nan,nan,nan,nan,nan,nan,nan,nan,0.0,nan,nan,nan,nan,nan,nan,nan,nan,nan,nan,nan,nan,nan,nan,nan,nan,nan,nan,161.41350164660253,515.9174438153859,nan,516.1572861913592,nan,nan,nan,nan
1,261,1,1,1.0,1.0,0.26370436418801546,0,2,3,8,7,4,6,nan,nan,nan,nan,nan,nan,nan,nan,nan,nan,nan,nan,0.0,nan,nan,nan,nan,nan,nan,nan,nan,nan,nan,nan,nan,nan,nan,nan,nan,nan,nan,161.41350164660253,516.917564411182,nan,517.18126877537,nan,nan,nan,nan
1,262,1,1,1.0,1.0,0.279572538100183,0,3,0,7,2,6,8,nan,nan,nan,nan,nan,nan,nan,nan,nan,nan,nan,nan,0.0,nan,nan,nan,nan,nan,nan,nan,nan,nan,nan,nan,nan,nan,nan,nan,nan,nan,nan,161.41350164660253,517.917675883742,nan,518.1972484218422,nan,nan,nan,nan
1,263,1,1,1.0,1.0,0.2474176692776382,0,1,4,2,5,0,7,nan,nan,nan,nan,nan,nan,nan,nan,nan,nan,nan,nan,0.0,nan,nan,nan,nan,nan,nan,nan,nan,nan,nan,nan,nan,nan,nan,nan,nan,nan,nan,161.41350164660253,518.9178061727434,nan,519.1652238420211,nan,nan,nan,nan
1,264,1,1,1.0,1.0,0.1912673868937418,0,0,1,7,8,2,5,nan,nan,nan,nan,nan,nan,nan,nan,nan,nan,nan,nan,0.0,nan,nan,nan,nan,nan,nan,nan,nan,nan,nan,nan,nan,nan,nan,nan,nan,nan,nan,161.41350164660253,519.9179333257489,nan,520.1092007126426,nan,nan,nan,nan
1,265,1,1,1.0,1.0,0.24710320809390396,1,6,3,4,2,8,7,1.0,1.0,1.0,1.0,1.0,1.0,0.0,1.0,1.0,0.0,0.0,0.0,2.0,5.0,3.0,4.0,7.0,5.0,8.0,3.0,2.0,1.0,6.0,5.0,4.0,2.632342690252699,1.839941532467492,0.9770354947540909,4.719877796364017,3.9602515917504206,3.4410516403149813,161.41350164660253,520.9180658954429,521.7264820516575,521.1651691035368,527.5022150556324,528.5059304302558,522.7432796392823,527.4938774149632
1,266,1,1,1.0,1.0,0.41428822721354663,0,1,2,6,8,3,0,nan,nan,nan,nan,nan,nan,nan,nan,nan,nan,nan,nan,0.0,nan,nan,nan,nan,nan,nan,nan,nan,nan,nan,nan,nan,nan,nan,nan,nan,nan,nan,161.41350164660253,528.7107321928488,nan,529.1250204200624,nan,nan,nan,nan
1,267,1,1,1.0,1.0,0.2701093372888863,0,8,4,0,7,6,5,nan,nan,nan,nan,nan,nan,nan,nan,nan,nan,nan,nan,0.0,nan,nan,nan,nan,nan,nan,nan,nan,nan,nan,nan,nan,nan,nan,nan,nan,nan,nan,161.41350164660253,529.7108570650453,nan,529.9809664023342,nan,nan,nan,nan
1,268,1,1,1.0,1.0,0.29395108367316425,0,3,8,1,6,4,2,nan,nan,nan,nan,nan,nan,nan,nan,nan,nan,nan,nan,0.0,nan,nan,nan,nan,nan,nan,nan,nan,nan,nan,nan,nan,nan,nan,nan,nan,nan,nan,161.41350164660253,530.7109830776462,nan,531.0049341613194,nan,nan,nan,nan
1,269,1,1,1.0,1.0,0.27781634498387575,0,4,2,0,5,1,6,nan,nan,nan,nan,nan,nan,nan,nan,nan,nan,nan,nan,0.0,nan,nan,nan,nan,nan,nan,nan,nan,nan,nan,nan,nan,nan,nan,nan,nan,nan,nan,161.41350164660253,531.711115077138,nan,531.9889314221218,nan,nan,nan,nan
1,270,1,1,1.0,1.0,0.29364631581120193,0,2,7,1,4,3,8,nan,nan,nan,nan,nan,nan,nan,nan,nan,nan,nan,nan,0.0,nan,nan,nan,nan,nan,nan,nan,nan,nan,nan,nan,nan,nan,nan,nan,nan,nan,nan,161.41350164660253,532.7112430854468,nan,533.004889401258,nan,nan,nan,nan
1,271,1,1,1.0,1.0,0.2854999747360125,0,8,1,2,7,4,3,nan,nan,nan,nan,nan,nan,nan,nan,nan,nan,nan,nan,0.0,nan,nan,nan,nan,nan,nan,nan,nan,nan,nan,nan,nan,nan,nan,nan,nan,nan,nan,161.41350164660253,533.7113870590692,nan,533.9968870338053,nan,nan,nan,nan
1,272,1,1,1.0,1.0,0.30139608797617257,0,6,3,5,1,7,2,nan,nan,nan,nan,nan,nan,nan,nan,nan,nan,nan,nan,0.0,nan,nan,nan,nan,nan,nan,nan,nan,nan,nan,nan,nan,nan,nan,nan,nan,nan,nan,161.41350164660253,534.7114631796721,nan,535.0128592676483,nan,nan,nan,nan
1,273,1,1,1.0,1.0,0.34121263423003256,0,0,1,4,2,5,3,nan,nan,nan,nan,nan,nan,nan,nan,nan,nan,nan,nan,0.0,nan,nan,nan,nan,nan,nan,nan,nan,nan,nan,nan,nan,nan,nan,nan,nan,nan,nan,161.41350164660253,535.711626254837,nan,536.0528388890671,nan,nan,nan,nan
1,274,1,1,1.0,1.0,0.30906432250048965,0,4,8,3,0,6,2,nan,nan,nan,nan,nan,nan,nan,nan,nan,nan,nan,nan,0.0,nan,nan,nan,nan,nan,nan,nan,nan,nan,nan,nan,nan,nan,nan,nan,nan,nan,nan,161.41350164660253,536.7117551183328,nan,537.0208194408333,nan,nan,nan,nan
1,275,1,1,1.0,1.0,0.30890951526816934,0,6,0,7,8,1,3,nan,nan,nan,nan,nan,nan,nan,nan,nan,nan,nan,nan,0.0,nan,nan,nan,nan,nan,nan,nan,nan,nan,nan,nan,nan,nan,nan,nan,nan,nan,nan,161.41350164660253,537.7118831265252,nan,538.0207926417934,nan,nan,nan,nan
1,276,1,1,1.0,1.0,0.29279188229702413,0,0,8,2,5,7,6,nan,nan,nan,nan,nan,nan,nan,nan,nan,nan,nan,nan,0.0,nan,nan,nan,nan,nan,nan,nan,nan,nan,nan,nan,nan,nan,nan,nan,nan,nan,nan,161.41350164660253,538.7119754977757,nan,539.0047673800727,nan,nan,nan,nan
1,277,1,1,1.0,1.0,0.2685786553192884,1,3,5,1,2,0,7,1.0,1.0,1.0,1.0,1.0,1.0,0.0,0.0,1.0,1.0,0.0,0.0,2.0,6.0,6.0,1.0,2.0,4.0,5.0,5.0,6.0,1.0,2.0,3.0,4.0,3.925604696269147,4.949272533995099,1.0619588337140158,2.1177316484972835,2.806737794307992,3.221055101370439,161.41350164660253,539.7121508319397,540.520568698761,539.9807294872589,546.5296595637919,547.5375102600083,541.5456899573328,546.5213270548265
1,278,1,1,1.0,1.0,0.2664150596829131,0,5,8,0,6,7,2,nan,nan,nan,nan,nan,nan,nan,nan,nan,nan,nan,nan,0.0,nan,nan,nan,nan,nan,nan,nan,nan,nan,nan,nan,nan,nan,nan,nan,nan,nan,nan,161.41350164660253,547.7381630163873,nan,548.0045780760702,nan,nan,nan,nan
1,279,1,1,1.0,1.0,0.25024354353081435,0,1,2,7,4,8,5,nan,nan,nan,nan,nan,nan,nan,nan,nan,nan,nan,nan,0.0,nan,nan,nan,nan,nan,nan,nan,nan,nan,nan,nan,nan,nan,nan,nan,nan,nan,nan,161.41350164660253,548.7382927351864,nan,548.9885362787172,nan,nan,nan,nan
1,280,1,1,1.0,1.0,0.29011368786450475,0,7,8,6,2,5,3,nan,nan,nan,nan,nan,nan,nan,nan,nan,nan,nan,nan,0.0,nan,nan,nan,nan,nan,nan,nan,nan,nan,nan,nan,nan,nan,nan,nan,nan,nan,nan,161.41350164660253,549.7383879573317,nan,550.0285016451962,nan,nan,nan,nan
1,281,0,0,0.0,1.0,0.473916684044525,0,6,2,4,0,3,5,nan,nan,nan,nan,nan,nan,nan,nan,nan,nan,nan,nan,0.0,nan,nan,nan,nan,nan,nan,nan,nan,nan,nan,nan,nan,nan,nan,nan,nan,nan,nan,161.41350164660253,550.7385587299941,nan,551.2124754140386,nan,nan,nan,nan
1,282,1,1,1.0,1.0,0.45777025632560253,0,4,8,3,6,1,0,nan,nan,nan,nan,nan,nan,nan,nan,nan,nan,nan,nan,0.0,nan,nan,nan,nan,nan,nan,nan,nan,nan,nan,nan,nan,nan,nan,nan,nan,nan,nan,161.41350164660253,551.7386841723928,nan,552.1964544287184,nan,nan,nan,nan
1,283,0,0,1.0,0.0,0.345617086510174,0,2,7,4,0,5,8,nan,nan,nan,nan,nan,nan,nan,nan,nan,nan,nan,nan,0.0,nan,nan,nan,nan,nan,nan,nan,nan,nan,nan,nan,nan,nan,nan,nan,nan,nan,nan,161.41350164660253,552.7388244398171,nan,553.0844415263273,nan,nan,nan,nan
1,284,1,1,1.0,1.0,0.39348275610245764,0,4,2,7,1,3,6,nan,nan,nan,nan,nan,nan,nan,nan,nan,nan,nan,nan,0.0,nan,nan,nan,nan,nan,nan,nan,nan,nan,nan,nan,nan,nan,nan,nan,nan,nan,nan,161.41350164660253,553.7389125345508,nan,554.1323952906532,nan,nan,nan,nan
1,285,1,1,1.0,1.0,0.3453220119699836,0,3,8,4,5,6,0,nan,nan,nan,nan,nan,nan,nan,nan,nan,nan,nan,nan,0.0,nan,nan,nan,nan,nan,nan,nan,nan,nan,nan,nan,nan,nan,nan,nan,nan,nan,nan,161.41350164660253,554.7390610696748,nan,555.0843830816448,nan,nan,nan,nan
1,286,1,1,1.0,1.0,0.3211658042855561,0,5,7,1,2,3,8,nan,nan,nan,nan,nan,nan,nan,nan,nan,nan,nan,nan,0.0,nan,nan,nan,nan,nan,nan,nan,nan,nan,nan,nan,nan,nan,nan,nan,nan,nan,nan,161.41350164660253,555.7391924990807,nan,556.0603583033662,nan,nan,nan,nan
1,287,1,1,1.0,1.0,0.3130223142215982,0,6,1,8,3,4,2,nan,nan,nan,nan,nan,nan,nan,nan,nan,nan,nan,nan,0.0,nan,nan,nan,nan,nan,nan,nan,nan,nan,nan,nan,nan,nan,nan,nan,nan,nan,nan,161.41350164660253,556.7393136649625,nan,557.0523359791841,nan,nan,nan,nan
1,288,1,1,1.0,1.0,0.29687389079481363,0,3,7,0,4,8,5,nan,nan,nan,nan,nan,nan,nan,nan,nan,nan,nan,nan,0.0,nan,nan,nan,nan,nan,nan,nan,nan,nan,nan,nan,nan,nan,nan,nan,nan,nan,nan,161.41350164660253,557.7394470900763,nan,558.0363209808711,nan,nan,nan,nan
1,289,1,1,1.0,1.0,0.24071306001860648,0,2,4,7,6,5,1,nan,nan,nan,nan,nan,nan,nan,nan,nan,nan,nan,nan,0.0,nan,nan,nan,nan,nan,nan,nan,nan,nan,nan,nan,nan,nan,nan,nan,nan,nan,nan,161.41350164660253,558.7395799448714,nan,558.98029300489,nan,nan,nan,nan
1,290,1,1,1.0,1.0,0.25657467648852617,0,3,5,8,4,1,2,nan,nan,nan,nan,nan,nan,nan,nan,nan,nan,nan,nan,0.0,nan,nan,nan,nan,nan,nan,nan,nan,nan,nan,nan,nan,nan,nan,nan,nan,nan,nan,161.41350164660253,559.7397133699851,nan,559.9962880464736,nan,nan,nan,nan
1,291,1,1,1.0,1.0,0.2480756713775918,0,5,7,0,2,4,8,nan,nan,nan,nan,nan,nan,nan,nan,nan,nan,nan,nan,0.0,nan,nan,nan,nan,nan,nan,nan,nan,nan,nan,nan,nan,nan,nan,nan,nan,nan,nan,161.41350164660253,560.7481721765362,nan,560.9962478479138,nan,nan,nan,nan
1,292,1,1,1.0,1.0,0.23994358512572944,0,4,1,5,3,7,0,nan,nan,nan,nan,nan,nan,nan,nan,nan,nan,nan,nan,0.0,nan,nan,nan,nan,nan,nan,nan,nan,nan,nan,nan,nan,nan,nan,nan,nan,nan,nan,161.41350164660253,561.7482981891371,nan,561.9882417742629,nan,nan,nan,nan
1,293,1,1,1.0,1.0,0.2717945413896814,0,8,7,0,4,3,1,nan,nan,nan,nan,nan,nan,nan,nan,nan,nan,nan,nan,0.0,nan,nan,nan,nan,nan,nan,nan,nan,nan,nan,nan,nan,nan,nan,nan,nan,nan,nan,161.41350164660253,562.7484256271273,nan,563.020220168517,nan,nan,nan,nan
1,294,1,1,1.0,1.0,0.19164827559143305,0,7,3,2,5,1,8,nan,nan,nan,nan,nan,nan,nan,nan,nan,nan,nan,nan,0.0,nan,nan,nan,nan,nan,nan,nan,nan,nan,nan,nan,nan,nan,nan,nan,nan,nan,nan,161.41350164660253,563.7485502142226,nan,563.9401984898141,nan,nan,nan,nan
1,295,1,1,1.0,1.0,0.20748252293560654,0,2,7,4,1,6,0,nan,nan,nan,nan,nan,nan,nan,nan,nan,nan,nan,nan,0.0,nan,nan,nan,nan,nan,nan,nan,nan,nan,nan,nan,nan,nan,nan,nan,nan,nan,nan,161.41350164660253,564.7486864902312,nan,564.9561690131668,nan,nan,nan,nan
1,296,1,1,1.0,1.0,0.23935970792081207,0,0,1,7,4,5,3,nan,nan,nan,nan,nan,nan,nan,nan,nan,nan,nan,nan,0.0,nan,nan,nan,nan,nan,nan,nan,nan,nan,nan,nan,nan,nan,nan,nan,nan,nan,nan,161.41350164660253,565.748796252301,nan,565.9881559602218,nan,nan,nan,nan
1,297,1,1,1.0,1.0,0.27918908349238336,0,7,5,0,1,2,4,nan,nan,nan,nan,nan,nan,nan,nan,nan,nan,nan,nan,0.0,nan,nan,nan,nan,nan,nan,nan,nan,nan,nan,nan,nan,nan,nan,nan,nan,nan,nan,161.41350164660253,566.748933668714,nan,567.0281227522064,nan,nan,nan,nan
1,298,1,1,1.0,1.0,0.27107837959192693,0,6,1,3,5,4,7,nan,nan,nan,nan,nan,nan,nan,nan,nan,nan,nan,nan,0.0,nan,nan,nan,nan,nan,nan,nan,nan,nan,nan,nan,nan,nan,nan,nan,nan,nan,nan,161.41350164660253,567.749025754747,nan,568.0201041343389,nan,nan,nan,nan
1,299,1,1,1.0,1.0,0.16689051478169858,0,4,3,2,7,1,8,nan,nan,nan,nan,nan,nan,nan,nan,nan,nan,nan,nan,0.0,nan,nan,nan,nan,nan,nan,nan,nan,nan,nan,nan,nan,nan,nan,nan,nan,nan,nan,161.41350164660253,568.7491905404022,nan,568.9160810551839,nan,nan,nan,nan
1,300,1,1,1.0,1.0,0.20674013218376786,1,8,7,5,6,4,0,1.0,1.0,1.0,1.0,1.0,1.0,0.0,0.0,1.0,0.0,0.0,0.0,1.0,4.0,4.0,5.0,5.0,0.0,5.0,4.0,3.0,2.0,1.0,6.0,5.0,4.159645077888854,3.400993332383223,2.5370529654901475,1.8981995314825326,5.2156040605623275,4.896303356159478,161.41350164660253,569.7493168381043,570.5577458236367,569.956056970288,576.82520718663,577.8320398040814,571.5745431261603,576.816877813777
1,301,1,1,1.0,1.0,0.3301374991424382,0,3,4,6,7,0,2,nan,nan,nan,nan,nan,nan,nan,nan,nan,nan,nan,nan,0.0,nan,nan,nan,nan,nan,nan,nan,nan,nan,nan,nan,nan,nan,nan,nan,nan,nan,nan,161.41350164660253,578.033733732067,nan,578.3638712312095,nan,nan,nan,nan
1,302,1,1,1.0,1.0,0.26603074988815933,0,4,0,1,3,2,6,nan,nan,nan,nan,nan,nan,nan,nan,nan,nan,nan,nan,0.0,nan,nan,nan,nan,nan,nan,nan,nan,nan,nan,nan,nan,nan,nan,nan,nan,nan,nan,161.41350164660253,579.0338166950969,nan,579.2998474449851,nan,nan,nan,nan
1,303,1,1,1.0,1.0,0.3298492666799575,0,8,2,3,4,7,5,nan,nan,nan,nan,nan,nan,nan,nan,nan,nan,nan,nan,0.0,nan,nan,nan,nan,nan,nan,nan,nan,nan,nan,nan,nan,nan,nan,nan,nan,nan,nan,161.41350164660253,580.0339849019656,nan,580.3638341686456,nan,nan,nan,nan
1,304,1,1,1.0,1.0,0.241696642129682,0,1,6,0,7,3,8,nan,nan,nan,nan,nan,nan,nan,nan,nan,nan,nan,nan,0.0,nan,nan,nan,nan,nan,nan,nan,nan,nan,nan,nan,nan,nan,nan,nan,nan,nan,nan,161.41350164660253,581.0341046423418,nan,581.2758012844715,nan,nan,nan,nan
1,305,1,1,1.0,1.0,0.23357852560002357,0,0,2,8,3,5,7,nan,nan,nan,nan,nan,nan,nan,nan,nan,nan,nan,nan,0.0,nan,nan,nan,nan,nan,nan,nan,nan,nan,nan,nan,nan,nan,nan,nan,nan,nan,nan,161.41350164660253,582.0342012899928,nan,582.2677798155928,nan,nan,nan,nan
1,306,1,1,1.0,1.0,0.22539825818967074,0,2,8,5,4,3,1,nan,nan,nan,nan,nan,nan,nan,nan,nan,nan,nan,nan,0.0,nan,nan,nan,nan,nan,nan,nan,nan,nan,nan,nan,nan,nan,nan,nan,nan,nan,nan,161.41350164660253,583.034350395319,nan,583.2597486535087,nan,nan,nan,nan
1,307,1,1,1.0,1.0,0.2732485324377194,0,1,3,7,6,2,4,nan,nan,nan,nan,nan,nan,nan,nan,nan,nan,nan,nan,0.0,nan,nan,nan,nan,nan,nan,nan,nan,nan,nan,nan,nan,nan,nan,nan,nan,nan,nan,161.41350164660253,584.0344823949272,nan,584.3077309273649,nan,nan,nan,nan
1,308,1,1,1.0,1.0,0.2730857423739508,0,8,1,2,7,6,5,nan,nan,nan,nan,nan,nan,nan,nan,nan,nan,nan,nan,0.0,nan,nan,nan,nan,nan,nan,nan,nan,nan,nan,nan,nan,nan,nan,nan,nan,nan,nan,161.41350164660253,585.0346055565169,nan,585.3076912988909,nan,nan,nan,nan
1,309,1,1,1.0,1.0,0.2889350998448208,0,5,2,3,0,1,4,nan,nan,nan,nan,nan,nan,nan,nan,nan,nan,nan,nan,0.0,nan,nan,nan,nan,nan,nan,nan,nan,nan,nan,nan,nan,nan,nan,nan,nan,nan,nan,161.41350164660253,586.0347335647093,nan,586.3236686645541,nan,nan,nan,nan
1,310,1,1,1.0,1.0,0.2487824250711128,0,0,3,1,8,5,7,nan,nan,nan,nan,nan,nan,nan,nan,nan,nan,nan,nan,0.0,nan,nan,nan,nan,nan,nan,nan,nan,nan,nan,nan,nan,nan,nan,nan,nan,nan,nan,161.41350164660253,587.0348638537107,nan,587.2836462787818,nan,nan,nan,nan
1,311,0,0,1.0,0.0,0.19267861358821392,0,2,4,0,5,1,3,nan,nan,nan,nan,nan,nan,nan,nan,nan,nan,nan,nan,0.0,nan,nan,nan,nan,nan,nan,nan,nan,nan,nan,nan,nan,nan,nan,nan,nan,nan,nan,161.41350164660253,588.0349605013616,nan,588.2276391149499,nan,nan,nan,nan
1,312,1,1,1.0,1.0,0.12047627044375986,0,4,8,6,7,3,2,nan,nan,nan,nan,nan,nan,nan,nan,nan,nan,nan,nan,0.0,nan,nan,nan,nan,nan,nan,nan,nan,nan,nan,nan,nan,nan,nan,nan,nan,nan,nan,161.41350164660253,589.0351284231292,nan,589.155604693573,nan,nan,nan,nan
1,313,1,1,1.0,1.0,0.14430803863797337,0,8,1,2,6,5,0,nan,nan,nan,nan,nan,nan,nan,nan,nan,nan,nan,nan,0.0,nan,nan,nan,nan,nan,nan,nan,nan,nan,nan,nan,nan,nan,nan,nan,nan,nan,nan,161.41350164660253,590.0352815197548,nan,590.1795895583928,nan,nan,nan,nan
1,314,1,1,1.0,1.0,0.16818257106933743,0,4,6,1,5,0,3,nan,nan,nan,nan,nan,nan,nan,nan,nan,nan,nan,nan,0.0,nan,nan,nan,nan,nan,nan,nan,nan,nan,nan,nan,nan,nan,nan,nan,nan,nan,nan,161.41350164660253,591.035378737608,nan,591.2035613086773,nan,nan,nan,nan
1,315,1,1,1.0,1.0,0.16802576812915504,0,3,8,7,2,4,1,nan,nan,nan,nan,nan,nan,nan,nan,nan,nan,nan,nan,0.0,nan,nan,nan,nan,nan,nan,nan,nan,nan,nan,nan,nan,nan,nan,nan,nan,nan,nan,161.41350164660253,592.0355190050323,nan,592.2035447731614,nan,nan,nan,nan
1,316,1,1,1.0,1.0,0.27985449822153896,0,8,6,2,7,1,0,nan,nan,nan,nan,nan,nan,nan,nan,nan,nan,nan,nan,0.0,nan,nan,nan,nan,nan,nan,nan,nan,nan,nan,nan,nan,nan,nan,nan,nan,nan,nan,161.41350164660253,593.0356564214453,nan,593.3155109196668,nan,nan,nan,nan
1,317,0,0,0.0,1.0,0.3277104744920507,0,4,0,6,5,3,1,nan,nan,nan,nan,nan,nan,nan,nan,nan,nan,nan,nan,0.0,nan,nan,nan,nan,nan,nan,nan,nan,nan,nan,nan,nan,nan,nan,nan,nan,nan,nan,161.41350164660253,594.0357738810126,nan,594.3634843555046,nan,nan,nan,nan
1,318,1,1,1.0,1.0,0.35161380167119205,0,6,4,3,8,7,2,nan,nan,nan,nan,nan,nan,nan,nan,nan,nan,nan,nan,0.0,nan,nan,nan,nan,nan,nan,nan,nan,nan,nan,nan,nan,nan,nan,nan,nan,nan,nan,161.41350164660253,595.035854848451,nan,595.3874686501222,nan,nan,nan,nan
1,319,1,1,1.0,1.0,0.2634235443547368,0,3,5,1,6,4,7,nan,nan,nan,nan,nan,nan,nan,nan,nan,nan,nan,nan,0.0,nan,nan,nan,nan,nan,nan,nan,nan,nan,nan,nan,nan,nan,nan,nan,nan,nan,nan,161.41350164660253,596.0360196341062,nan,596.2994431784609,nan,nan,nan,nan
1,320,1,1,1.0,1.0,0.2873003577115014,0,2,6,4,3,7,8,nan,nan,nan,nan,nan,nan,nan,nan,nan,nan,nan,nan,0.0,nan,nan,nan,nan,nan,nan,nan,nan,nan,nan,nan,nan,nan,nan,nan,nan,nan,nan,161.41350164660253,597.0361145711504,nan,597.3234149288619,nan,nan,nan,nan
1,321,1,1,1.0,1.0,0.3030730242608115,0,3,2,1,7,8,5,nan,nan,nan,nan,nan,nan,nan,nan,nan,nan,nan,nan,0.0,nan,nan,nan,nan,nan,nan,nan,nan,nan,nan,nan,nan,nan,nan,nan,nan,nan,nan,161.41350164660253,598.0363281082828,nan,598.3394011325436,nan,nan,nan,nan
1,322,0,0,0.0,1.0,0.37497915234416723,0,6,1,8,3,5,7,nan,nan,nan,nan,nan,nan,nan,nan,nan,nan,nan,nan,0.0,nan,nan,nan,nan,nan,nan,nan,nan,nan,nan,nan,nan,nan,nan,nan,nan,nan,nan,161.41350164660253,599.0364013779908,nan,599.411380530335,nan,nan,nan,nan
1,323,1,1,1.0,1.0,0.366809148225002,0,1,0,6,8,3,4,nan,nan,nan,nan,nan,nan,nan,nan,nan,nan,nan,nan,0.0,nan,nan,nan,nan,nan,nan,nan,nan,nan,nan,nan,nan,nan,nan,nan,nan,nan,nan,161.41350164660253,600.0365393646061,nan,600.4033485128311,nan,nan,nan,nan
1,324,0,0,1.0,0.0,0.28667314595077187,0,4,6,1,7,0,5,nan,nan,nan,nan,nan,nan,nan,nan,nan,nan,nan,nan,0.0,nan,nan,nan,nan,nan,nan,nan,nan,nan,nan,nan,nan,nan,nan,nan,nan,nan,nan,161.41350164660253,601.0366579645779,nan,601.3233311105287,nan,nan,nan,nan
1,325,1,1,1.0,1.0,0.25451713672373444,0,1,4,2,3,6,0,nan,nan,nan,nan,nan,nan,nan,nan,nan,nan,nan,nan,0.0,nan,nan,nan,nan,nan,nan,nan,nan,nan,nan,nan,nan,nan,nan,nan,nan,nan,nan,161.41350164660253,602.0367882535793,nan,602.291305390303,nan,nan,nan,nan
1,326,1,1,1.0,1.0,0.24634998361580074,0,4,2,1,5,8,3,nan,nan,nan,nan,nan,nan,nan,nan,nan,nan,nan,nan,0.0,nan,nan,nan,nan,nan,nan,nan,nan,nan,nan,nan,nan,nan,nan,nan,nan,nan,nan,161.41350164660253,603.0369268103968,nan,603.2832767940126,nan,nan,nan,nan
1,327,1,1,1.0,1.0,0.2062018703436479,0,0,5,4,1,3,2,nan,nan,nan,nan,nan,nan,nan,nan,nan,nan,nan,nan,0.0,nan,nan,nan,nan,nan,nan,nan,nan,nan,nan,nan,nan,nan,nan,nan,nan,nan,nan,161.41350164660253,604.0370525378967,nan,604.2432544082403,nan,nan,nan,nan
1,328,1,1,0.0,0.0,0.3660436647478491,0,2,1,3,7,5,6,nan,nan,nan,nan,nan,nan,nan,nan,nan,nan,nan,nan,0.0,nan,nan,nan,nan,nan,nan,nan,nan,nan,nan,nan,nan,nan,nan,nan,nan,nan,nan,161.41350164660253,605.037180260988,nan,605.4032239257358,nan,nan,nan,nan
1,329,1,1,1.0,1.0,0.38990337238647044,0,1,3,7,4,6,0,nan,nan,nan,nan,nan,nan,nan,nan,nan,nan,nan,nan,0.0,nan,nan,nan,nan,nan,nan,nan,nan,nan,nan,nan,nan,nan,nan,nan,nan,nan,nan,161.41350164660253,606.0373039927799,nan,606.4272073651664,nan,nan,nan,nan
1,330,1,1,1.0,1.0,0.30177612137049437,0,2,5,8,3,0,6,nan,nan,nan,nan,nan,nan,nan,nan,nan,nan,nan,nan,0.0,nan,nan,nan,nan,nan,nan,nan,nan,nan,nan,nan,nan,nan,nan,nan,nan,nan,nan,161.41350164660253,607.0374194567557,nan,607.3391955781262,nan,nan,nan,nan
1,331,0,0,1.0,0.0,0.23759923852048814,0,3,0,2,7,5,1,nan,nan,nan,nan,nan,nan,nan,nan,nan,nan,nan,nan,0.0,nan,nan,nan,nan,nan,nan,nan,nan,nan,nan,nan,nan,nan,nan,nan,nan,nan,nan,161.41350164660253,608.0375645707827,nan,608.2751638093032,nan,nan,nan,nan
1,332,1,1,1.0,1.0,0.4454327148851007,0,5,2,6,0,7,3,nan,nan,nan,nan,nan,nan,nan,nan,nan,nan,nan,nan,0.0,nan,nan,nan,nan,nan,nan,nan,nan,nan,nan,nan,nan,nan,nan,nan,nan,nan,nan,161.41350164660253,609.0376928640762,nan,609.4831255789613,nan,nan,nan,nan
1,333,1,1,1.0,1.0,0.25333142129238695,0,6,7,4,8,3,1,nan,nan,nan,nan,nan,nan,nan,nan,nan,nan,nan,nan,0.0,nan,nan,nan,nan,nan,nan,nan,nan,nan,nan,nan,nan,nan,nan,nan,nan,nan,nan,161.41350164660253,610.0377855204279,nan,610.2911169417202,nan,nan,nan,nan
1,334,1,1,1.0,1.0,0.29314255074132234,0,2,3,0,1,7,8,nan,nan,nan,nan,nan,nan,nan,nan,nan,nan,nan,nan,0.0,nan,nan,nan,nan,nan,nan,nan,nan,nan,nan,nan,nan,nan,nan,nan,nan,nan,nan,161.41350164660253,611.0379474550718,nan,611.3310900058132,nan,nan,nan,nan
1,335,1,1,1.0,1.0,0.47699002199806273,0,5,8,3,0,6,1,nan,nan,nan,nan,nan,nan,nan,nan,nan,nan,nan,nan,0.0,nan,nan,nan,nan,nan,nan,nan,nan,nan,nan,nan,nan,nan,nan,nan,nan,nan,nan,161.41350164660253,612.038082875777,nan,612.5150728977751,nan,nan,nan,nan
1,336,1,1,1.0,1.0,0.5008437423966825,0,1,0,2,6,5,4,nan,nan,nan,nan,nan,nan,nan,nan,nan,nan,nan,nan,0.0,nan,nan,nan,nan,nan,nan,nan,nan,nan,nan,nan,nan,nan,nan,nan,nan,nan,nan,161.41350164660253,613.0382026162697,nan,613.5390463586664,nan,nan,nan,nan
1,337,1,1,1.0,1.0,0.5646827862365171,0,2,7,3,1,6,8,nan,nan,nan,nan,nan,nan,nan,nan,nan,nan,nan,nan,0.0,nan,nan,nan,nan,nan,nan,nan,nan,nan,nan,nan,nan,nan,nan,nan,nan,nan,nan,161.41350164660253,614.0383314797655,nan,614.603014266002,nan,nan,nan,nan
1,338,1,1,1.0,1.0,0.5485389243112877,0,5,1,8,4,3,7,nan,nan,nan,nan,nan,nan,nan,nan,nan,nan,nan,nan,0.0,nan,nan,nan,nan,nan,nan,nan,nan,nan,nan,nan,nan,nan,nan,nan,nan,nan,nan,161.41350164660253,615.0384546413552,nan,615.5869935656665,nan,nan,nan,nan
1,339,1,1,1.0,1.0,0.4924028968671337,0,7,3,5,6,0,8,nan,nan,nan,nan,nan,nan,nan,nan,nan,nan,nan,nan,0.0,nan,nan,nan,nan,nan,nan,nan,nan,nan,nan,nan,nan,nan,nan,nan,nan,nan,nan,161.41350164660253,616.0385823645629,nan,616.53098526143,nan,nan,nan,nan
1,340,1,1,1.0,1.0,0.428241124143824,0,3,1,4,7,5,2,nan,nan,nan,nan,nan,nan,nan,nan,nan,nan,nan,nan,0.0,nan,nan,nan,nan,nan,nan,nan,nan,nan,nan,nan,nan,nan,nan,nan,nan,nan,nan,161.41350164660253,617.0387112280587,nan,617.4669523522025,nan,nan,nan,nan
1,341,1,1,1.0,1.0,0.3401041799224913,0,2,0,6,8,3,4,nan,nan,nan,nan,nan,nan,nan,nan,nan,nan,nan,nan,0.0,nan,nan,nan,nan,nan,nan,nan,nan,nan,nan,nan,nan,nan,nan,nan,nan,nan,nan,161.41350164660253,618.0388380958466,nan,618.3789422757691,nan,nan,nan,nan
1,342,1,1,1.0,1.0,0.30794389417860657,0,5,3,7,0,1,2,nan,nan,nan,nan,nan,nan,nan,nan,nan,nan,nan,nan,0.0,nan,nan,nan,nan,nan,nan,nan,nan,nan,nan,nan,nan,nan,nan,nan,nan,nan,nan,161.41350164660253,619.038974086754,nan,619.3469179809326,nan,nan,nan,nan
1,343,1,1,1.0,1.0,0.3798092534998432,0,3,2,1,5,8,6,nan,nan,nan,nan,nan,nan,nan,nan,nan,nan,nan,nan,0.0,nan,nan,nan,nan,nan,nan,nan,nan,nan,nan,nan,nan,nan,nan,nan,nan,nan,nan,161.41350164660253,620.0390807128279,nan,620.4188899663277,nan,nan,nan,nan
1,344,1,1,1.0,1.0,0.3476700648898259,0,1,5,4,0,6,3,nan,nan,nan,nan,nan,nan,nan,nan,nan,nan,nan,nan,0.0,nan,nan,nan,nan,nan,nan,nan,nan,nan,nan,nan,nan,nan,nan,nan,nan,nan,nan,161.41350164660253,621.0391964619048,nan,621.3868665267946,nan,nan,nan,nan
1,345,1,1,1.0,1.0,0.3314834386110306,0,2,4,0,3,7,6,nan,nan,nan,nan,nan,nan,nan,nan,nan,nan,nan,nan,0.0,nan,nan,nan,nan,nan,nan,nan,nan,nan,nan,nan,nan,nan,nan,nan,nan,nan,nan,161.41350164660253,622.0393558307551,nan,622.3708392693661,nan,nan,nan,nan
1,346,1,1,1.0,1.0,0.3153697969391942,0,3,0,7,6,2,5,nan,nan,nan,nan,nan,nan,nan,nan,nan,nan,nan,nan,0.0,nan,nan,nan,nan,nan,nan,nan,nan,nan,nan,nan,nan,nan,nan,nan,nan,nan,nan,161.41350164660253,623.0394852644531,nan,623.3548550613923,nan,nan,nan,nan
1,347,0,0,0.0,1.0,0.5871706104371697,0,5,2,4,3,0,1,nan,nan,nan,nan,nan,nan,nan,nan,nan,nan,nan,nan,0.0,nan,nan,nan,nan,nan,nan,nan,nan,nan,nan,nan,nan,nan,nan,nan,nan,nan,nan,161.41350164660253,624.0396272423677,nan,624.6267978528049,nan,nan,nan,nan
1,348,1,1,1.0,1.0,0.3950356754940003,0,0,3,2,6,8,7,nan,nan,nan,nan,nan,nan,nan,nan,nan,nan,nan,nan,0.0,nan,nan,nan,nan,nan,nan,nan,nan,nan,nan,nan,nan,nan,nan,nan,nan,nan,nan,161.41350164660253,625.0397330131382,nan,625.4347686886322,nan,nan,nan,nan
1,349,0,0,1.0,0.0,0.26685752905905247,0,2,4,0,1,7,8,nan,nan,nan,nan,nan,nan,nan,nan,nan,nan,nan,nan,0.0,nan,nan,nan,nan,nan,nan,nan,nan,nan,nan,nan,nan,nan,nan,nan,nan,nan,nan,161.41350164660253,626.0398903862806,nan,626.3067479153397,nan,nan,nan,nan
1,350,1,1,1.0,1.0,0.2667292357655242,0,6,3,8,0,5,7,nan,nan,nan,nan,nan,nan,nan,nan,nan,nan,nan,nan,0.0,nan,nan,nan,nan,nan,nan,nan,nan,nan,nan,nan,nan,nan,nan,nan,nan,nan,nan,161.41350164660253,627.0400035694474,nan,627.306732805213,nan,nan,nan,nan
1,351,1,1,1.0,1.0,0.226581692812033,0,0,4,1,7,3,2,nan,nan,nan,nan,nan,nan,nan,nan,nan,nan,nan,nan,0.0,nan,nan,nan,nan,nan,nan,nan,nan,nan,nan,nan,nan,nan,nan,nan,nan,nan,nan,161.41350164660253,628.0401215993334,nan,628.2667032921454,nan,nan,nan,nan
1,352,1,1,1.0,1.0,0.23443866113666445,0,3,0,7,5,8,4,nan,nan,nan,nan,nan,nan,nan,nan,nan,nan,nan,nan,0.0,nan,nan,nan,nan,nan,nan,nan,nan,nan,nan,nan,nan,nan,nan,nan,nan,nan,nan,161.41350164660253,629.0402544541284,nan,629.2746931152651,nan,nan,nan,nan
1,353,1,1,1.0,1.0,0.2502592238597572,0,6,8,4,2,0,3,nan,nan,nan,nan,nan,nan,nan,nan,nan,nan,nan,nan,0.0,nan,nan,nan,nan,nan,nan,nan,nan,nan,nan,nan,nan,nan,nan,nan,nan,nan,nan,161.41350164660253,630.040398712852,nan,630.2906579367118,nan,nan,nan,nan
1,354,1,1,1.0,1.0,0.346102605573833,0,4,2,7,1,8,0,nan,nan,nan,nan,nan,nan,nan,nan,nan,nan,nan,nan,0.0,nan,nan,nan,nan,nan,nan,nan,nan,nan,nan,nan,nan,nan,nan,nan,nan,nan,nan,161.41350164660253,631.0405238701496,nan,631.3866264757235,nan,nan,nan,nan
1,355,1,1,1.0,1.0,0.2899754161480814,0,6,0,8,3,7,2,nan,nan,nan,nan,nan,nan,nan,nan,nan,nan,nan,nan,0.0,nan,nan,nan,nan,nan,nan,nan,nan,nan,nan,nan,nan,nan,nan,nan,nan,nan,nan,161.41350164660253,632.0406342024216,nan,632.3306096185697,nan,nan,nan,nan
1,356,1,1,1.0,1.0,0.3058207822032273,0,1,5,4,8,2,0,nan,nan,nan,nan,nan,nan,nan,nan,nan,nan,nan,nan,0.0,nan,nan,nan,nan,nan,nan,nan,nan,nan,nan,nan,nan,nan,nan,nan,nan,nan,nan,161.41350164660253,633.0407636361197,nan,633.3465844183229,nan,nan,nan,nan
1,357,1,1,1.0,1.0,0.441676571383141,0,5,1,2,6,0,4,nan,nan,nan,nan,nan,nan,nan,nan,nan,nan,nan,nan,0.0,nan,nan,nan,nan,nan,nan,nan,nan,nan,nan,nan,nan,nan,nan,nan,nan,nan,nan,161.41350164660253,634.0408944953233,nan,634.4825710667064,nan,nan,nan,nan
1,358,0,0,0.0,1.0,0.4015196200925857,0,3,0,8,1,5,6,nan,nan,nan,nan,nan,nan,nan,nan,nan,nan,nan,nan,0.0,nan,nan,nan,nan,nan,nan,nan,nan,nan,nan,nan,nan,nan,nan,nan,nan,nan,nan,161.41350164660253,635.0410205079243,nan,635.4425401280168,nan,nan,nan,nan
1,359,1,1,1.0,1.0,0.36934479454066604,0,8,1,6,3,4,5,nan,nan,nan,nan,nan,nan,nan,nan,nan,nan,nan,nan,0.0,nan,nan,nan,nan,nan,nan,nan,nan,nan,nan,nan,nan,nan,nan,nan,nan,nan,nan,161.41350164660253,636.0411633411422,nan,636.4105081356829,nan,nan,nan,nan
1,360,1,1,1.0,1.0,0.36120387038681656,0,2,7,0,4,6,8,nan,nan,nan,nan,nan,nan,nan,nan,nan,nan,nan,nan,0.0,nan,nan,nan,nan,nan,nan,nan,nan,nan,nan,nan,nan,nan,nan,nan,nan,nan,nan,161.41350164660253,637.0412856474286,nan,637.4024895178154,nan,nan,nan,nan
1,361,1,1,1.0,1.0,0.29706718609668314,0,4,0,3,2,5,1,nan,nan,nan,nan,nan,nan,nan,nan,nan,nan,nan,nan,0.0,nan,nan,nan,nan,nan,nan,nan,nan,nan,nan,nan,nan,nan,nan,nan,nan,nan,nan,161.41350164660253,638.0414082388161,nan,638.3384754249128,nan,nan,nan,nan
1,362,1,1,1.0,1.0,0.264900058042258,0,0,4,6,5,7,8,nan,nan,nan,nan,nan,nan,nan,nan,nan,nan,nan,nan,0.0,nan,nan,nan,nan,nan,nan,nan,nan,nan,nan,nan,nan,nan,nan,nan,nan,nan,nan,161.41350164660253,639.0415522124385,nan,639.3064522704808,nan,nan,nan,nan
1,363,1,1,1.0,1.0,0.23275545262731612,0,8,3,7,1,2,4,nan,nan,nan,nan,nan,nan,nan,nan,nan,nan,nan,nan,0.0,nan,nan,nan,nan,nan,nan,nan,nan,nan,nan,nan,nan,nan,nan,nan,nan,nan,nan,161.41350164660253,640.04166910192,nan,640.2744245545473,nan,nan,nan,nan
1,364,1,1,1.0,1.0,0.32859227724839,0,5,2,3,4,0,1,nan,nan,nan,nan,nan,nan,nan,nan,nan,nan,nan,nan,0.0,nan,nan,nan,nan,nan,nan,nan,nan,nan,nan,nan,nan,nan,nan,nan,nan,nan,nan,161.41350164660253,641.0417976803146,nan,641.370389957563,nan,nan,nan,nan
1,365,1,1,1.0,1.0,0.23246066318824887,0,2,6,0,5,7,4,nan,nan,nan,nan,nan,nan,nan,nan,nan,nan,nan,nan,0.0,nan,nan,nan,nan,nan,nan,nan,nan,nan,nan,nan,nan,nan,nan,nan,nan,nan,nan,161.41350164660253,642.0419211270055,nan,642.2743817901937,nan,nan,nan,nan
1,366,1,1,1.0,1.0,0.26431019394658506,0,0,1,7,3,2,6,nan,nan,nan,nan,nan,nan,nan,nan,nan,nan,nan,nan,0.0,nan,nan,nan,nan,nan,nan,nan,nan,nan,nan,nan,nan,nan,nan,nan,nan,nan,nan,161.41350164660253,643.042049420299,nan,643.3063596142456,nan,nan,nan,nan
1,367,1,1,1.0,1.0,0.24016681557986885,0,3,5,0,4,1,7,nan,nan,nan,nan,nan,nan,nan,nan,nan,nan,nan,nan,0.0,nan,nan,nan,nan,nan,nan,nan,nan,nan,nan,nan,nan,nan,nan,nan,nan,nan,nan,161.41350164660253,644.0421680203872,nan,644.282334835967,nan,nan,nan,nan
1,368,1,1,1.0,1.0,0.3200342572527006,0,5,7,2,0,3,8,nan,nan,nan,nan,nan,nan,nan,nan,nan,nan,nan,nan,0.0,nan,nan,nan,nan,nan,nan,nan,nan,nan,nan,nan,nan,nan,nan,nan,nan,nan,nan,161.41350164660253,645.042275501648,nan,645.3623097589007,nan,nan,nan,nan
1,369,1,1,1.0,1.0,0.26385033351834863,0,6,1,3,7,4,5,nan,nan,nan,nan,nan,nan,nan,nan,nan,nan,nan,nan,0.0,nan,nan,nan,nan,nan,nan,nan,nan,nan,nan,nan,nan,nan,nan,nan,nan,nan,nan,161.41350164660253,646.0424305940978,nan,646.3062809276162,nan,nan,nan,nan
1,370,1,1,1.0,1.0,0.29569957917556167,0,5,7,8,6,3,0,nan,nan,nan,nan,nan,nan,nan,nan,nan,nan,nan,nan,0.0,nan,nan,nan,nan,nan,nan,nan,nan,nan,nan,nan,nan,nan,nan,nan,nan,nan,nan,161.41350164660253,647.0425543258898,nan,647.3382539050654,nan,nan,nan,nan
1,371,1,1,1.0,1.0,0.23155263147782534,0,4,8,2,3,7,1,nan,nan,nan,nan,nan,nan,nan,nan,nan,nan,nan,nan,0.0,nan,nan,nan,nan,nan,nan,nan,nan,nan,nan,nan,nan,nan,nan,nan,nan,nan,nan,161.41350164660253,648.0426834744867,nan,648.2742361059645,nan,nan,nan,nan
1,372,1,1,1.0,1.0,0.23140381113626063,0,1,3,7,8,4,5,nan,nan,nan,nan,nan,nan,nan,nan,nan,nan,nan,nan,0.0,nan,nan,nan,nan,nan,nan,nan,nan,nan,nan,nan,nan,nan,nan,nan,nan,nan,nan,161.41350164660253,649.0428163293982,nan,649.2742201405345,nan,nan,nan,nan
1,373,1,1,1.0,1.0,0.2952419996727258,0,4,8,3,7,2,6,nan,nan,nan,nan,nan,nan,nan,nan,nan,nan,nan,nan,0.0,nan,nan,nan,nan,nan,nan,nan,nan,nan,nan,nan,nan,nan,nan,nan,nan,nan,nan,161.41350164660253,650.0429454779951,nan,650.3381874776678,nan,nan,nan,nan
1,374,1,1,1.0,1.0,0.3030907001812011,0,3,4,5,1,6,0,nan,nan,nan,nan,nan,nan,nan,nan,nan,nan,nan,nan,0.0,nan,nan,nan,nan,nan,nan,nan,nan,nan,nan,nan,nan,nan,nan,nan,nan,nan,nan,161.41350164660253,651.0430806135992,nan,651.3461713137804,nan,nan,nan,nan
1,375,1,1,1.0,1.0,0.3589305125642568,0,8,6,7,5,4,2,nan,nan,nan,nan,nan,nan,nan,nan,nan,nan,nan,nan,0.0,nan,nan,nan,nan,nan,nan,nan,nan,nan,nan,nan,nan,nan,nan,nan,nan,nan,nan,161.41350164660253,652.0432131834095,nan,652.4021436959738,nan,nan,nan,nan
1,376,1,1,1.0,1.0,0.28646588092669845,0,5,4,1,2,0,3,nan,nan,nan,nan,nan,nan,nan,nan,nan,nan,nan,nan,0.0,nan,nan,nan,nan,nan,nan,nan,nan,nan,nan,nan,nan,nan,nan,nan,nan,nan,nan,161.41350164660253,653.0516648625489,nan,653.3381307434756,nan,nan,nan,nan
1,377,1,1,1.0,1.0,0.29431287094485015,0,7,3,8,1,6,0,nan,nan,nan,nan,nan,nan,nan,nan,nan,nan,nan,nan,0.0,nan,nan,nan,nan,nan,nan,nan,nan,nan,nan,nan,nan,nan,nan,nan,nan,nan,nan,161.41350164660253,654.0517985726474,nan,654.3461114435922,nan,nan,nan,nan
1,378,1,1,1.0,1.0,0.3101528201950714,0,4,8,5,7,1,2,nan,nan,nan,nan,nan,nan,nan,nan,nan,nan,nan,nan,0.0,nan,nan,nan,nan,nan,nan,nan,nan,nan,nan,nan,nan,nan,nan,nan,nan,nan,nan,161.41350164660253,655.0519300020533,nan,655.3620828222483,nan,nan,nan,nan
1,379,1,1,1.0,1.0,0.29372357693500817,0,0,4,8,1,7,6,nan,nan,nan,nan,nan,nan,nan,nan,nan,nan,nan,nan,0.0,nan,nan,nan,nan,nan,nan,nan,nan,nan,nan,nan,nan,nan,nan,nan,nan,nan,nan,161.41350164660253,656.060373698594,nan,656.354097275529,nan,nan,nan,nan
1,380,1,1,1.0,1.0,0.2775349549483508,0,2,8,4,3,5,0,nan,nan,nan,nan,nan,nan,nan,nan,nan,nan,nan,nan,0.0,nan,nan,nan,nan,nan,nan,nan,nan,nan,nan,nan,nan,nan,nan,nan,nan,nan,nan,161.41350164660253,657.0605076937936,nan,657.338042648742,nan,nan,nan,nan
1,381,1,1,1.0,1.0,0.2453749543055892,0,0,3,5,4,1,2,nan,nan,nan,nan,nan,nan,nan,nan,nan,nan,nan,nan,0.0,nan,nan,nan,nan,nan,nan,nan,nan,nan,nan,nan,nan,nan,nan,nan,nan,nan,nan,161.41350164660253,658.0606337063946,nan,658.3060086607002,nan,nan,nan,nan
1,382,1,1,1.0,1.0,0.2848701971815899,0,2,5,0,8,6,1,nan,nan,nan,nan,nan,nan,nan,nan,nan,nan,nan,nan,0.0,nan,nan,nan,nan,nan,nan,nan,nan,nan,nan,nan,nan,nan,nan,nan,nan,nan,nan,161.41350164660253,659.0691848840797,nan,659.3540550812613,nan,nan,nan,nan
1,383,1,1,1.0,1.0,0.2527187493396923,0,8,4,7,6,1,2,nan,nan,nan,nan,nan,nan,nan,nan,nan,nan,nan,nan,0.0,nan,nan,nan,nan,nan,nan,nan,nan,nan,nan,nan,nan,nan,nan,nan,nan,nan,nan,161.41350164660253,660.0692376269726,nan,660.3219563763123,nan,nan,nan,nan
