block,trial,freq_trials,correct_response,actual_response,acc,rts,probe_trials,fast_rt_trigger,slow_rt_trigger,rt_triggered,rts_runningavg,rts_runningstd,rts_runningfastthresh,rts_runningslowthresh,rts_runningstd,rts_trailingavg,trials_colorind,trials_colorrgb0,trials_colorrgb1,trials_colorrgb2,wm_respdeg,wm_respdeg_in_colorspace,wm_respcolorminusorigcolor,wm_resptexind,wm_resptexrgb0,wm_resptexrgb1,wm_resptexrgb2,wm_rts,time_blockstart,time_encarray_offset,time_encarray_onset,time_response,time_iti_offset,time_iti_onset,time_memprobe_offset,time_memprobe_onset
1,1,1,1,1.0,1.0,0.331224369816,0,nan,nan,nan,nan,nan,nan,nan,nan,nan,325,-0.119404900653,0.442631039184,0.360186421743,nan,nan,nan,nan,nan,nan,nan,nan,260.343946575,261.35672751,nan,261.68795188,nan,nan,nan,nan
1,2,0,0,1.0,0.0,0.253363869153,0,0.0,0.0,0.0,nan,nan,nan,nan,nan,nan,174,1.0,-0.160790688716,0.281981279739,nan,nan,nan,nan,nan,nan,nan,nan,260.343946575,262.298570405,nan,262.551934275,nan,nan,nan,nan
1,3,1,1,1.0,1.0,0.35962039791,0,nan,nan,nan,nan,nan,nan,nan,nan,nan,379,-0.113535935895,0.478614986251,-0.165970515924,nan,nan,nan,nan,nan,nan,nan,nan,260.343946575,263.240300402,nan,263.5999208,nan,nan,nan,nan
1,4,1,1,1.0,1.0,0.337801006157,0,nan,nan,nan,nan,nan,nan,nan,nan,nan,465,0.456588679398,0.37096152752,-1.0,nan,nan,nan,nan,nan,nan,nan,nan,260.343946575,264.182090554,nan,264.51989156,nan,nan,nan,nan
1,5,1,1,1.0,1.0,0.355999655789,0,nan,nan,nan,nan,nan,nan,nan,nan,nan,350,-0.175756816429,0.469490941964,0.138247479403,nan,nan,nan,nan,nan,nan,nan,nan,260.343946575,265.123883557,nan,265.479883213,nan,nan,nan,nan
1,6,1,1,1.0,1.0,0.302190862829,0,nan,nan,nan,nan,nan,nan,nan,nan,nan,404,0.0124894593597,0.468746268022,-0.463349101315,nan,nan,nan,nan,nan,nan,nan,nan,260.343946575,266.065670858,nan,266.367861721,nan,nan,nan,nan
1,7,1,1,1.0,1.0,0.280394278932,0,nan,nan,nan,nan,nan,nan,nan,nan,nan,199,1.0,-0.0246761787097,0.468786302982,nan,nan,nan,nan,nan,nan,nan,nan,260.343946575,267.007455878,nan,267.287850157,nan,nan,nan,nan
1,8,0,0,0.0,1.0,0.354571885662,0,nan,nan,nan,nan,nan,nan,nan,nan,nan,91,1.0,-0.237709898716,-0.562722318432,nan,nan,nan,nan,nan,nan,nan,nan,260.343946575,267.94924603,nan,268.303817916,nan,nan,nan,nan
1,9,1,1,1.0,1.0,0.274903864833,0,nan,nan,nan,nan,nan,nan,nan,nan,nan,434,0.213881816697,0.43461034373,-1.0,nan,nan,nan,nan,nan,nan,nan,nan,260.343946575,268.932903653,nan,269.207807518,nan,nan,nan,nan
1,10,1,1,1.0,1.0,0.229301042855,0,nan,nan,nan,nan,nan,nan,nan,nan,nan,349,-0.175656888649,0.468768509344,0.147945183432,nan,nan,nan,nan,nan,nan,nan,nan,260.343946575,269.874496802,nan,270.103797845,nan,nan,nan,nan
1,11,1,1,1.0,1.0,0.223487042822,0,nan,nan,nan,nan,nan,nan,nan,nan,nan,256,0.481312611765,0.257047908656,0.656065722404,nan,nan,nan,nan,nan,nan,nan,nan,260.343946575,270.816292656,nan,271.039779699,nan,nan,nan,nan
1,12,1,1,1.0,1.0,0.193684627069,0,nan,nan,nan,nan,nan,nan,nan,nan,nan,53,1.0,-0.049257555853,-1.0,nan,nan,nan,nan,nan,nan,nan,nan,260.343946575,271.758081953,nan,271.95176658,nan,nan,nan,nan
1,13,1,1,1.0,1.0,0.259893464623,0,nan,nan,nan,nan,nan,nan,nan,nan,nan,436,0.228681708805,0.431413732101,-1.0,nan,nan,nan,nan,nan,nan,nan,nan,260.343946575,272.69985785,nan,272.959751315,nan,nan,nan,nan
1,14,1,1,1.0,1.0,0.254093434429,0,nan,nan,nan,nan,nan,nan,nan,nan,nan,34,1.0,0.0514419701458,-1.0,nan,nan,nan,nan,nan,nan,nan,nan,260.343946575,273.64164173,nan,273.895735165,nan,nan,nan,nan
1,15,1,1,1.0,1.0,0.320278608939,0,nan,nan,nan,nan,nan,nan,nan,nan,nan,488,0.647907709101,0.302951493728,-1.0,nan,nan,nan,nan,nan,nan,nan,nan,260.343946575,274.583429886,nan,274.903708495,nan,nan,nan,nan
1,16,1,1,1.0,1.0,0.306423139758,0,nan,nan,nan,nan,nan,nan,nan,nan,nan,155,1.0,-0.2479831371,0.111611878621,nan,nan,nan,nan,nan,nan,nan,nan,260.343946575,275.52526651,nan,275.831689649,nan,nan,nan,nan
1,17,1,1,1.0,1.0,0.228656721534,0,nan,nan,nan,nan,nan,nan,nan,nan,nan,225,0.81146624694,0.115131125244,0.600981946568,nan,nan,nan,nan,nan,nan,nan,nan,260.343946575,276.467020454,nan,276.695677176,nan,nan,nan,nan
1,18,1,1,1.0,1.0,0.340984408511,0,nan,nan,nan,nan,nan,nan,nan,nan,nan,124,1.0,-0.311577186586,-0.198226518473,nan,nan,nan,nan,nan,nan,nan,nan,260.343946575,277.450682068,nan,277.791666477,nan,nan,nan,nan
1,19,1,1,1.0,1.0,0.238295593997,0,nan,nan,nan,nan,nan,nan,nan,nan,nan,73,1.0,-0.1546788618,-0.830916872461,nan,nan,nan,nan,nan,nan,nan,nan,260.343946575,278.433349831,nan,278.671645425,nan,nan,nan,nan
1,20,1,1,1.0,1.0,0.17226323206,0,nan,nan,nan,nan,nan,nan,nan,nan,nan,272,0.310166696092,0.316214117232,0.637281430288,nan,nan,nan,nan,nan,nan,nan,nan,260.343946575,279.403374076,nan,279.575637308,nan,nan,nan,nan
1,21,1,1,1.0,1.0,0.280766616575,0,nan,nan,nan,nan,nan,nan,nan,nan,nan,410,0.0492046846968,0.463921527344,-0.54316189137,nan,nan,nan,nan,nan,nan,nan,nan,260.343946575,280.350838245,nan,280.631604861,nan,nan,nan,nan
1,22,1,1,1.0,1.0,0.314954692265,0,nan,nan,nan,nan,nan,nan,nan,nan,nan,241,0.64365311028,0.192605941253,0.644254782112,nan,nan,nan,nan,nan,nan,nan,nan,260.343946575,281.292636094,nan,281.607590787,nan,nan,nan,nan
1,23,1,1,1.0,1.0,0.317153081531,0,nan,nan,nan,nan,nan,nan,nan,nan,nan,289,0.140592130943,0.368073254824,0.582505265782,nan,nan,nan,nan,nan,nan,nan,nan,260.343946575,282.234429667,nan,282.551582749,nan,nan,nan,nan
1,24,1,1,1.0,1.0,0.2233553275,0,nan,nan,nan,nan,nan,nan,nan,nan,nan,487,0.639529740128,0.306295026098,-1.0,nan,nan,nan,nan,nan,nan,nan,nan,260.343946575,283.176214403,nan,283.39956973,nan,nan,nan,nan
1,25,0,0,1.0,0.0,0.217547884909,0,0.0,0.0,0.0,nan,nan,nan,nan,nan,nan,427,0.163265173604,0.444863218481,-0.840208708629,nan,nan,nan,nan,nan,nan,nan,nan,260.343946575,284.118003129,nan,284.335551014,nan,nan,nan,nan
1,26,1,1,1.0,1.0,0.371752165724,1,nan,nan,nan,nan,nan,nan,nan,nan,nan,270,0.331159066004,0.309369715406,0.641393874915,-103.143216109,193.143216109,3.29946610919,275.0,0.279002393219,0.326185254474,0.630178474337,1.15877382853,260.343946575,285.059780737,285.868213246,285.431532903,288.060101757,289.05671451,286.884955046,288.051770058
1,27,1,1,1.0,1.0,0.765438047005,0,nan,nan,nan,nan,nan,nan,nan,nan,nan,383,-0.0968787136249,0.478131214543,-0.211081409456,nan,nan,nan,nan,nan,nan,nan,nan,260.343946575,289.202006347,nan,289.967444394,nan,nan,nan,nan
1,28,1,1,1.0,1.0,0.775653672172,0,nan,nan,nan,nan,nan,nan,nan,nan,nan,120,1.0,-0.310161497659,-0.240162905937,nan,nan,nan,nan,nan,nan,nan,nan,260.343946575,290.143766849,nan,290.919420521,nan,nan,nan,nan
1,29,1,1,1.0,1.0,0.489857645007,0,nan,nan,nan,nan,nan,nan,nan,nan,nan,449,0.328095008353,0.407646248688,-1.0,nan,nan,nan,nan,nan,nan,nan,nan,260.343946575,291.085559852,nan,291.575417497,nan,nan,nan,nan
1,30,1,1,1.0,1.0,0.420054864138,0,nan,nan,nan,nan,nan,nan,nan,nan,nan,231,0.749609680972,0.145151270079,0.620821461523,nan,nan,nan,nan,nan,nan,nan,nan,260.343946575,292.027356277,nan,292.447411141,nan,nan,nan,nan
1,31,1,1,1.0,1.0,0.342265923275,0,nan,nan,nan,nan,nan,nan,nan,nan,nan,58,1.0,-0.0760896648475,-1.0,nan,nan,nan,nan,nan,nan,nan,nan,260.343946575,292.969132459,nan,293.311398382,nan,nan,nan,nan
1,32,1,1,1.0,1.0,0.240460627014,0,nan,nan,nan,nan,nan,nan,nan,nan,nan,197,1.0,-0.035797595552,0.455774741445,nan,nan,nan,nan,nan,nan,nan,nan,260.343946575,293.91092147,nan,294.151382097,nan,nan,nan,nan
1,33,1,1,1.0,1.0,0.210651368601,1,nan,nan,nan,nan,nan,nan,nan,nan,nan,408,0.036737934283,0.465637664749,-0.515938449969,163.51554681,286.48445319,-0.390546810464,407.0,0.0305886347219,0.46645515455,-0.502577406972,1.59216499864,260.343946575,294.852713903,295.661129592,295.063365272,298.294765775,299.305754871,296.686215919,298.286427234
1,34,1,1,1.0,1.0,0.698282969883,0,nan,nan,nan,nan,nan,nan,nan,nan,nan,288,0.150005133015,0.365331945294,0.586687239957,nan,nan,nan,nan,nan,nan,nan,nan,260.343946575,299.444969848,nan,300.143252818,nan,nan,nan,nan
1,35,1,1,1.0,1.0,0.444496870739,0,nan,nan,nan,nan,nan,nan,nan,nan,nan,8,0.91102658764,0.177400941622,-1.0,nan,nan,nan,nan,nan,nan,nan,nan,260.343946575,300.386754298,nan,300.831251169,nan,nan,nan,nan
1,36,1,1,1.0,1.0,0.28660798585,1,nan,nan,nan,nan,nan,nan,nan,nan,nan,69,1.0,-0.134207199312,-0.939648005704,46.5586842062,43.4413157938,-5.07430920621,62.0,1.0,-0.0974372467467,-1.0,0.908710821997,260.343946575,301.328637677,302.136959283,301.615245663,304.08717094,305.093260059,303.162072695,304.078839241
1,37,1,1,1.0,1.0,0.289792528609,0,nan,nan,nan,nan,nan,nan,nan,nan,nan,217,0.891250405156,0.0735373331823,0.568048345461,nan,nan,nan,nan,nan,nan,nan,nan,260.343946575,305.237387558,nan,305.527180086,nan,nan,nan,nan
1,38,0,0,1.0,0.0,0.251976297935,0,0.0,0.0,0.0,nan,nan,nan,nan,nan,nan,37,1.0,0.0358565504353,-1.0,nan,nan,nan,nan,nan,nan,nan,nan,260.343946575,306.179179135,nan,306.431155433,nan,nan,nan,nan
1,39,1,1,1.0,1.0,0.470166508341,0,nan,nan,nan,nan,nan,nan,nan,nan,nan,444,0.289241202529,0.417409780569,-1.0,nan,nan,nan,nan,nan,nan,nan,nan,260.343946575,307.120965296,nan,307.591131804,nan,nan,nan,nan
1,40,1,1,1.0,1.0,0.296376862796,0,nan,nan,nan,nan,nan,nan,nan,nan,nan,301,0.0351599448551,0.39804275895,0.523414514543,nan,nan,nan,nan,nan,nan,nan,nan,260.343946575,308.062740908,nan,308.359117771,nan,nan,nan,nan
1,41,1,1,1.0,1.0,0.314561542356,0,nan,nan,nan,nan,nan,nan,nan,nan,nan,400,-0.0107874812989,0.471427301814,-0.412692688905,nan,nan,nan,nan,nan,nan,nan,nan,260.343946575,309.004542749,nan,309.319104291,nan,nan,nan,nan
1,42,1,1,1.0,1.0,0.33274964313,0,nan,nan,nan,nan,nan,nan,nan,nan,nan,469,0.489482198204,0.360453357602,-1.0,nan,nan,nan,nan,nan,nan,nan,nan,260.343946575,309.946332045,nan,310.279081688,nan,nan,nan,nan
1,43,1,1,1.0,1.0,0.318947487278,0,nan,nan,nan,nan,nan,nan,nan,nan,nan,51,1.0,-0.0385160204876,-1.0,nan,nan,nan,nan,nan,nan,nan,nan,260.343946575,310.888122197,nan,311.207069685,nan,nan,nan,nan
1,44,1,1,1.0,1.0,0.313132347073,0,nan,nan,nan,nan,nan,nan,nan,nan,nan,160,1.0,-0.227501418013,0.158297521075,nan,nan,nan,nan,nan,nan,nan,nan,260.343946575,311.829910924,nan,312.143043271,nan,nan,nan,nan
1,45,0,0,0.0,1.0,0.355339369038,0,nan,nan,nan,nan,nan,nan,nan,nan,nan,378,-0.117450136118,0.478670924818,-0.154810124165,nan,nan,nan,nan,nan,nan,nan,nan,260.343946575,312.771694804,nan,313.127034173,nan,nan,nan,nan
1,46,1,1,1.0,1.0,0.285540294601,0,nan,nan,nan,nan,nan,nan,nan,nan,nan,44,1.0,-0.00106984144607,-1.0,nan,nan,nan,nan,nan,nan,nan,nan,260.343946575,313.713477543,nan,313.999017838,nan,nan,nan,nan
1,47,1,1,1.0,1.0,0.279724584194,0,nan,nan,nan,nan,nan,nan,nan,nan,nan,300,0.0433537089178,0.395748422077,0.528951029102,nan,nan,nan,nan,nan,nan,nan,nan,260.343946575,314.655273112,nan,314.934997696,nan,nan,nan,nan
1,48,1,1,1.0,1.0,0.385917821201,0,nan,nan,nan,nan,nan,nan,nan,nan,nan,429,0.177531820842,0.442080780324,-0.901885199234,nan,nan,nan,nan,nan,nan,nan,nan,260.343946575,315.597061554,nan,315.982979375,nan,nan,nan,nan
1,49,1,1,1.0,1.0,0.636116534239,0,nan,nan,nan,nan,nan,nan,nan,nan,nan,348,-0.175384772129,0.468017843042,0.157582163916,nan,nan,nan,nan,nan,nan,nan,nan,260.343946575,316.538845719,nan,317.174962253,nan,nan,nan,nan
1,50,1,1,1.0,1.0,0.486303615617,0,nan,nan,nan,nan,nan,nan,nan,nan,nan,478,0.56422249903,0.334793662244,-1.0,nan,nan,nan,nan,nan,nan,nan,nan,260.343946575,317.480640432,nan,317.966944048,nan,nan,nan,nan
1,51,0,0,0.0,1.0,0.664493746124,0,nan,nan,nan,nan,nan,nan,nan,nan,nan,105,1.0,-0.285049837405,-0.401580786678,nan,nan,nan,nan,nan,nan,nan,nan,260.343946575,318.422430584,nan,319.086924331,nan,nan,nan,nan
1,52,1,1,1.0,1.0,0.39470311068,0,nan,nan,nan,nan,nan,nan,nan,nan,nan,485,0.622774561467,0.312875618285,-1.0,nan,nan,nan,nan,nan,nan,nan,nan,260.343946575,319.36421532,nan,319.75891843,nan,nan,nan,nan
1,53,1,1,1.0,1.0,0.324909738032,0,nan,nan,nan,nan,nan,nan,nan,nan,nan,213,0.929785093221,0.0521668813814,0.548906519778,nan,nan,nan,nan,nan,nan,nan,nan,260.343946575,320.306002621,nan,320.630912359,nan,nan,nan,nan
1,54,1,1,1.0,1.0,0.303109447937,0,nan,nan,nan,nan,nan,nan,nan,nan,nan,504,0.78128615449,0.244628286196,-1.0,nan,nan,nan,nan,nan,nan,nan,nan,260.343946575,321.247781084,nan,321.550890532,nan,nan,nan,nan
1,55,1,1,1.0,1.0,0.265293217497,0,nan,nan,nan,nan,nan,nan,nan,nan,nan,197,1.0,-0.035797595552,0.455774741445,nan,nan,nan,nan,nan,nan,nan,nan,260.343946575,322.189577508,nan,322.454870725,nan,nan,nan,nan
1,56,1,1,1.0,1.0,0.467505975626,0,nan,nan,nan,nan,nan,nan,nan,nan,nan,433,0.206536295144,0.436163724167,-1.0,nan,nan,nan,nan,nan,nan,nan,nan,260.343946575,323.131347703,nan,323.598853679,nan,nan,nan,nan
1,57,1,1,1.0,1.0,0.49367054319,0,nan,nan,nan,nan,nan,nan,nan,nan,nan,279,0.238157575771,0.338930353633,0.618978422254,nan,nan,nan,nan,nan,nan,nan,nan,260.343946575,324.073154961,nan,324.566825504,nan,nan,nan,nan
1,58,1,1,1.0,1.0,0.591867641546,0,nan,nan,nan,nan,nan,nan,nan,nan,nan,110,1.0,-0.296722754836,-0.346921960777,nan,nan,nan,nan,nan,nan,nan,nan,260.343946575,325.014941977,nan,325.606809618,nan,nan,nan,nan
1,59,1,1,1.0,1.0,0.522051746491,0,nan,nan,nan,nan,nan,nan,nan,nan,nan,462,0.432089675478,0.378486360879,-1.0,nan,nan,nan,nan,nan,nan,nan,nan,260.343946575,325.956736976,nan,326.478788722,nan,nan,nan,nan
1,60,1,1,1.0,1.0,0.58825573721,0,nan,nan,nan,nan,nan,nan,nan,nan,nan,84,1.0,-0.20765784414,-0.652191087791,nan,nan,nan,nan,nan,nan,nan,nan,260.343946575,326.898524847,nan,327.486780584,nan,nan,nan,nan
1,61,0,0,0.0,1.0,0.414470938267,0,nan,nan,nan,nan,nan,nan,nan,nan,nan,289,0.140592130943,0.368073254824,0.582505265782,nan,nan,nan,nan,nan,nan,nan,nan,260.343946575,327.840303595,nan,328.254774533,nan,nan,nan,nan
1,62,1,1,1.0,1.0,0.416663625743,0,nan,nan,nan,nan,nan,nan,nan,nan,nan,478,0.56422249903,0.334793662244,-1.0,nan,nan,nan,nan,nan,nan,nan,nan,260.343946575,328.782084624,nan,329.19874825,nan,nan,nan,nan
1,63,1,1,1.0,1.0,0.322847910691,0,nan,nan,nan,nan,nan,nan,nan,nan,nan,383,-0.0968787136249,0.478131214543,-0.211081409456,nan,nan,nan,nan,nan,nan,nan,nan,260.343946575,329.723890171,nan,330.046738082,nan,nan,nan,nan
1,64,1,1,1.0,1.0,0.253036862006,0,nan,nan,nan,nan,nan,nan,nan,nan,nan,172,1.0,-0.170984061773,0.265024678188,nan,nan,nan,nan,nan,nan,nan,nan,260.343946575,330.665675191,nan,330.918712053,nan,nan,nan,nan
1,65,1,1,1.0,1.0,0.32723984262,0,nan,nan,nan,nan,nan,nan,nan,nan,nan,36,1.0,0.0410699577143,-1.0,nan,nan,nan,nan,nan,nan,nan,nan,260.343946575,331.607463348,nan,331.93470319,nan,nan,nan,nan
1,66,0,0,1.0,0.0,0.265422081575,0,0.0,0.0,0.0,nan,nan,nan,nan,nan,nan,228,0.780729811514,0.1302769546,0.611433142569,nan,nan,nan,nan,nan,nan,nan,nan,260.343946575,332.54925464,nan,332.814676722,nan,nan,nan,nan
1,67,1,1,1.0,1.0,0.387621850939,1,nan,nan,nan,nan,nan,nan,nan,nan,nan,415,0.0813077335083,0.459153678902,-0.614968023274,160.965565645,289.034434355,-2.76244064516,411.0,0.0555201669072,0.463022710015,-0.557054760163,0.858731748071,260.343946575,333.491039946,334.299453924,333.878661796,336.199688217,337.197516057,335.324544813,336.19136279
1,68,1,1,1.0,1.0,0.393057811074,0,nan,nan,nan,nan,nan,nan,nan,nan,nan,468,0.481236483515,0.363131620867,-1.0,nan,nan,nan,nan,nan,nan,nan,nan,260.343946575,337.341537783,nan,337.734595594,nan,nan,nan,nan
1,69,1,1,1.0,1.0,0.427264133003,0,nan,nan,nan,nan,nan,nan,nan,nan,nan,257,0.470472903111,0.261039853404,0.655841377839,nan,nan,nan,nan,nan,nan,nan,nan,260.343946575,338.28332765,nan,338.710591783,nan,nan,nan,nan
1,70,1,1,1.0,1.0,0.285452484619,0,nan,nan,nan,nan,nan,nan,nan,nan,nan,308,-0.0186828559465,0.413097475488,0.481682330771,nan,nan,nan,nan,nan,nan,nan,nan,260.343946575,339.225116092,nan,339.510568576,nan,nan,nan,nan
1,71,1,1,1.0,1.0,0.255652064458,0,nan,nan,nan,nan,nan,nan,nan,nan,nan,38,1.0,0.0306259494545,-1.0,nan,nan,nan,nan,nan,nan,nan,nan,260.343946575,340.166901682,nan,340.422553747,nan,nan,nan,nan
1,72,1,1,1.0,1.0,0.28183544823,0,nan,nan,nan,nan,nan,nan,nan,nan,nan,392,-0.0541067903503,0.475522277549,-0.315549842675,nan,nan,nan,nan,nan,nan,nan,nan,260.343946575,341.108695826,nan,341.390531274,nan,nan,nan,nan
1,73,1,1,1.0,1.0,0.228027795907,0,nan,nan,nan,nan,nan,nan,nan,nan,nan,147,1.0,-0.275801134503,0.0346720467303,nan,nan,nan,nan,nan,nan,nan,nan,260.343946575,342.050485978,nan,342.278513774,nan,nan,nan,nan
1,74,1,1,1.0,1.0,0.230236163596,0,nan,nan,nan,nan,nan,nan,nan,nan,nan,55,1.0,-0.0599996532909,-1.0,nan,nan,nan,nan,nan,nan,nan,nan,260.343946575,342.992270998,nan,343.222507162,nan,nan,nan,nan
1,75,1,1,1.0,1.0,0.24043012131,0,nan,nan,nan,nan,nan,nan,nan,nan,nan,433,0.206536295144,0.436163724167,-1.0,nan,nan,nan,nan,nan,nan,nan,nan,260.343946575,343.934057444,nan,344.174487565,nan,nan,nan,nan
1,76,1,1,1.0,1.0,0.282629160909,0,nan,nan,nan,nan,nan,nan,nan,nan,nan,222,0.841778467246,0.0997291618919,0.589484691865,nan,nan,nan,nan,nan,nan,nan,nan,260.343946575,344.875845885,nan,345.158475046,nan,nan,nan,nan
1,77,1,1,1.0,1.0,0.244820057647,0,nan,nan,nan,nan,nan,nan,nan,nan,nan,507,0.805995650865,0.232688349973,-1.0,nan,nan,nan,nan,nan,nan,nan,nan,260.343946575,345.817636037,nan,346.062456095,nan,nan,nan,nan
1,78,1,1,1.0,1.0,0.263007873204,0,nan,nan,nan,nan,nan,nan,nan,nan,nan,37,1.0,0.0358565504353,-1.0,nan,nan,nan,nan,nan,nan,nan,nan,260.343946575,346.759422768,nan,347.022430641,nan,nan,nan,nan
1,79,1,1,0.0,0.0,0.281193693168,0,0.0,0.0,0.0,nan,nan,nan,nan,nan,nan,271,0.320642857732,0.312811632898,0.639400143054,nan,nan,nan,nan,nan,nan,nan,nan,260.343946575,347.70121292,nan,347.982406613,nan,nan,nan,nan
1,80,0,0,1.0,0.0,0.275395943783,0,0.0,0.0,0.0,nan,nan,nan,nan,nan,nan,109,1.0,-0.294638327523,-0.357773695079,nan,nan,nan,nan,nan,nan,nan,nan,260.343946575,348.642999936,nan,348.91839588,nan,nan,nan,nan
1,81,1,1,1.0,1.0,0.525584108429,0,0.0,0.0,0.0,0.346569293167,0.12769510461,0.218874188557,0.474264397777,0.12769510461,0.360724581794,326,-0.12383419111,0.444071765824,0.352223541474,nan,nan,nan,nan,nan,nan,nan,nan,260.343946575,349.584789518,nan,350.110373626,nan,nan,nan,nan
1,82,1,1,1.0,1.0,0.495772284456,0,0.0,0.0,0.0,0.348779352615,0.128434729064,0.220344623551,0.477214081678,0.128434729064,0.432250778889,259,0.44882283482,0.268906983076,0.655011783756,nan,nan,nan,nan,nan,nan,nan,nan,260.343946575,350.526578245,nan,351.022350529,nan,nan,nan,nan
1,83,1,1,1.0,1.0,0.32998590474,0,0.0,0.0,0.0,0.350571949344,0.128664683926,0.221907265418,0.479236633271,0.128664683926,0.450447432542,74,1.0,-0.159715158178,-0.810443278181,nan,nan,nan,nan,nan,nan,nan,nan,260.343946575,351.468361839,nan,351.798347744,nan,nan,nan,nan
1,84,1,1,1.0,1.0,0.236181878718,0,0.0,0.0,0.0,0.350323924711,0.12790696696,0.22241695775,0.478230891671,0.12790696696,0.353980022638,204,1.0,0.00303256528985,0.499654420455,nan,nan,nan,nan,nan,nan,nan,nan,260.343946575,352.410151991,nan,352.64633387,nan,nan,nan,nan
1,85,1,1,1.0,1.0,0.286363657098,0,0.0,0.0,0.0,0.34896509083,0.1277445954,0.221220495429,0.47670968623,0.1277445954,0.284177146852,117,1.0,-0.307587969795,-0.271886539361,nan,nan,nan,nan,nan,nan,nan,nan,260.343946575,353.351950696,nan,353.638314353,nan,nan,nan,nan
1,86,1,1,1.0,1.0,0.240570104215,0,0.0,0.0,0.0,0.348228603374,0.127170200601,0.221058402773,0.475398803975,0.127170200601,0.25437188001,411,0.0555201669072,0.463022710015,-0.557054760163,nan,nan,nan,nan,nan,nan,nan,nan,260.343946575,354.293733436,nan,354.53430354,nan,nan,nan,nan
1,87,1,1,1.0,1.0,0.226768804016,0,0.0,0.0,0.0,0.346976760361,0.126954380846,0.220022379515,0.473931141207,0.126954380846,0.251234188443,66,1.0,-0.118568705386,-1.0,nan,nan,nan,nan,nan,nan,nan,nan,260.343946575,355.235519596,nan,355.4622884,nan,nan,nan,nan
1,88,1,1,1.0,1.0,0.244973440189,0,0.0,0.0,0.0,0.345595059713,0.12687135015,0.218723709563,0.472466409863,0.12687135015,0.237437449473,174,1.0,-0.160790688716,0.281981279739,nan,nan,nan,nan,nan,nan,nan,nan,260.343946575,356.177306612,nan,356.422280053,nan,nan,nan,nan
1,89,1,1,1.0,1.0,0.239157729782,0,0.0,0.0,0.0,0.344451632218,0.126598470133,0.217853162085,0.471050102351,0.126598470133,0.236966657996,243,0.622151010882,0.20168048164,0.647463484622,nan,nan,nan,nan,nan,nan,nan,nan,260.343946575,357.11909705,nan,357.358254779,nan,nan,nan,nan
1,90,1,1,1.0,1.0,0.337336867116,0,0.0,0.0,0.0,0.343268554663,0.126373506831,0.216895047832,0.469642061494,0.126373506831,0.273822679029,356,-0.17284377641,0.473239407326,0.0788368070227,nan,nan,nan,nan,nan,nan,nan,nan,260.343946575,358.060889767,nan,358.398226635,nan,nan,nan,nan
1,91,1,1,1.0,1.0,0.315541138407,0,0.0,0.0,0.0,0.343202647024,0.125671008826,0.217531638198,0.468873655849,0.125671008826,0.297345245102,400,-0.0107874812989,0.471427301814,-0.412692688905,nan,nan,nan,nan,nan,nan,nan,nan,260.343946575,359.002675928,nan,359.318217067,nan,nan,nan,nan
1,92,1,1,1.0,1.0,0.43772123591,0,0.0,0.0,0.0,0.342898674401,0.12501186634,0.217886808061,0.467910540741,0.12501186634,0.363533080478,142,1.0,-0.289568116499,-0.0146273521697,nan,nan,nan,nan,nan,nan,nan,nan,260.343946575,359.944461519,nan,360.382182755,nan,nan,nan,nan
1,93,1,1,1.0,1.0,0.439919054974,0,0.0,0.0,0.0,0.343929354418,0.124718751358,0.21921060306,0.468648105775,0.124718751358,0.397727143097,352,-0.17544712699,0.470851603012,0.118673592819,nan,nan,nan,nan,nan,nan,nan,nan,260.343946575,360.886251386,nan,361.326170441,nan,nan,nan,nan
1,94,1,1,1.0,1.0,0.378119825618,0,0.0,0.0,0.0,0.344961501736,0.124440835603,0.220520666132,0.469402337339,0.124440835603,0.418586705501,292,0.112881669716,0.376069582356,0.569261850688,nan,nan,nan,nan,nan,nan,nan,nan,260.343946575,361.828041823,nan,362.206161648,nan,nan,nan,nan
1,95,1,1,1.0,1.0,0.31631033239,0,0.0,0.0,0.0,0.345314249862,0.123823883318,0.221490366544,0.46913813318,0.123823883318,0.378116404327,396,-0.0330153705648,0.473684876347,-0.363523780775,nan,nan,nan,nan,nan,nan,nan,nan,260.343946575,362.769834541,nan,363.086144873,nan,nan,nan,nan
1,96,0,0,1.0,0.0,0.19852188183,0,0.0,0.0,0.0,0.345008945468,0.123206017271,0.221802928197,0.468214962738,0.123206017271,0.297650679946,189,1.0,-0.0802194643608,0.400143472992,nan,nan,nan,nan,nan,nan,nan,nan,260.343946575,363.71161671,nan,363.910138592,nan,nan,nan,nan
1,97,1,1,1.0,1.0,0.256686969427,0,0.0,0.0,0.0,0.343483038555,0.1234617261,0.220021312455,0.466944764654,0.1234617261,0.257173061216,367,-0.15309091083,0.477560897992,-0.0350816338538,nan,nan,nan,nan,nan,nan,nan,nan,260.343946575,364.65341513,nan,364.910102099,nan,nan,nan,nan
1,98,1,1,1.0,1.0,0.378903844627,0,0.0,0.0,0.0,0.342588233718,0.123136186528,0.21945204719,0.465724420247,0.123136186528,0.278037565295,321,-0.0999433513493,0.43654647086,0.391174984052,nan,nan,nan,nan,nan,nan,nan,nan,260.343946575,365.595196159,nan,365.974100003,nan,nan,nan,nan
1,99,1,1,1.0,1.0,0.253097017761,0,0.0,0.0,0.0,0.342958801177,0.12256068252,0.220398118656,0.465519483697,0.12256068252,0.296229277272,424,0.142174562463,0.448819569244,-0.770229420881,nan,nan,nan,nan,nan,nan,nan,nan,260.343946575,366.536981749,nan,366.790078767,nan,nan,nan,nan
1,100,1,1,1.0,1.0,0.247300408781,0,0.0,0.0,0.0,0.342051106395,0.122270746984,0.219780359411,0.464321853379,0.122270746984,0.293100423723,0,0.846831709088,0.212097570855,-1.0,nan,nan,nan,nan,nan,nan,nan,nan,260.343946575,367.478770191,nan,367.726070599,nan,nan,nan,nan
1,101,1,1,1.0,1.0,0.27350745583,0,0.0,0.0,0.0,0.341103599418,0.122022593768,0.21908100565,0.463126193186,0.122022593768,0.257968294124,199,1.0,-0.0246761787097,0.468786302982,nan,nan,nan,nan,nan,nan,nan,nan,260.343946575,368.420550079,nan,368.694057535,nan,nan,nan,nan
1,102,0,0,1.0,0.0,0.219691250473,0,0.0,0.0,0.0,0.34043433067,0.121601334413,0.218832996257,0.462035665083,0.121601334413,0.246833038361,264,0.394966959701,0.287889713878,0.650717615019,nan,nan,nan,nan,nan,nan,nan,nan,260.343946575,369.362346218,nan,369.582037469,nan,nan,nan,nan
1,103,1,1,1.0,1.0,0.365881146165,0,0.0,0.0,0.0,0.339250574982,0.121587187258,0.217663387724,0.46083776224,0.121587187258,0.286359950822,212,0.93926288676,0.0467731277665,0.543851001166,nan,nan,nan,nan,nan,nan,nan,nan,260.343946575,370.30413523,nan,370.670016376,nan,nan,nan,nan
1,104,1,1,1.0,1.0,0.304083912168,0,0.0,0.0,0.0,0.339509124217,0.121023691845,0.218485432372,0.460532816062,0.121023691845,0.296552102935,352,-0.17544712699,0.470851603012,0.118673592819,nan,nan,nan,nan,nan,nan,nan,nan,260.343946575,371.245921391,nan,371.550005303,nan,nan,nan,nan
1,105,0,0,1.0,0.0,0.242271568393,0,0.0,0.0,0.0,0.339168497178,0.120490044259,0.218678452919,0.459658541436,0.120490044259,0.304078875575,460,0.415848916989,0.383334931935,-1.0,nan,nan,nan,nan,nan,nan,nan,nan,260.343946575,372.187711542,nan,372.429983111,nan,nan,nan,nan
1,106,1,1,1.0,1.0,0.220476695104,0,0.0,0.0,0.0,0.338245669284,0.120283636033,0.217962033251,0.458529305318,0.120283636033,0.255610725222,353,-0.175041255135,0.471490071959,0.108799216003,nan,nan,nan,nan,nan,nan,nan,nan,260.343946575,373.129499984,nan,373.349976679,nan,nan,nan,nan
1,107,1,1,1.0,1.0,0.262670317432,0,0.0,0.0,0.0,0.337134641226,0.12025502625,0.216879614976,0.457389667476,0.12025502625,0.241806193643,117,1.0,-0.307587969795,-0.271886539361,nan,nan,nan,nan,nan,nan,nan,nan,260.343946575,374.071289566,nan,374.333959883,nan,nan,nan,nan
1,108,1,1,1.0,1.0,0.248864455381,0,0.0,0.0,0.0,0.336438712966,0.11990603313,0.216532679837,0.456344746096,0.11990603313,0.244003822639,405,0.018463324075,0.468009379796,-0.476293327428,nan,nan,nan,nan,nan,nan,nan,nan,260.343946575,375.013074871,nan,375.261939327,nan,nan,nan,nan
1,109,1,1,1.0,1.0,0.331049319822,0,0.0,0.0,0.0,0.335627840211,0.119643997952,0.215983842259,0.455271838163,0.119643997952,0.280861364212,71,1.0,-0.144504067012,-0.877980773838,nan,nan,nan,nan,nan,nan,nan,nan,260.343946575,375.954867019,nan,376.285916339,nan,nan,nan,nan
1,110,1,1,1.0,1.0,0.421233173693,0,0.0,0.0,0.0,0.335585835437,0.11909470771,0.216491127726,0.454680543147,0.11909470771,0.333715649632,386,-0.0833946583454,0.477495592553,-0.245424736514,nan,nan,nan,nan,nan,nan,nan,nan,260.343946575,376.89665432,nan,377.317887494,nan,nan,nan,nan
1,111,1,1,1.0,1.0,0.431439390639,0,0.0,0.0,0.0,0.336364447603,0.118830500584,0.217533947019,0.455194948187,0.118830500584,0.394573961385,124,1.0,-0.311577186586,-0.198226518473,nan,nan,nan,nan,nan,nan,nan,nan,260.343946575,377.838445897,nan,378.269885288,nan,nan,nan,nan
1,112,1,1,1.0,1.0,0.241634944687,0,0.0,0.0,0.0,0.337220978621,0.118634630093,0.218586348529,0.455855608714,0.118634630093,0.364769169673,468,0.481236483515,0.363131620867,-1.0,nan,nan,nan,nan,nan,nan,nan,nan,260.343946575,378.780226356,nan,379.021861301,nan,nan,nan,nan
1,113,1,1,1.0,1.0,0.291844092542,0,0.0,0.0,0.0,0.33636753189,0.11844560943,0.21792192246,0.45481314132,0.11844560943,0.321639475956,413,0.0683106243366,0.461143133648,-0.585495598612,nan,nan,nan,nan,nan,nan,nan,nan,260.343946575,379.722017649,nan,380.013861741,nan,nan,nan,nan
1,114,1,1,1.0,1.0,0.398026780924,0,0.0,0.0,0.0,0.335973519152,0.117994051968,0.217979467183,0.45396757112,0.117994051968,0.310501939384,350,-0.175756816429,0.469490941964,0.138247479403,nan,nan,nan,nan,nan,nan,nan,nan,260.343946575,380.663809796,nan,381.061836577,nan,nan,nan,nan
1,115,1,1,1.0,1.0,0.328218583483,0,0.0,0.0,0.0,0.33651784601,0.117617809993,0.218900036017,0.454135656002,0.117617809993,0.339363152316,395,-0.0383984177995,0.474183508328,-0.351427224487,nan,nan,nan,nan,nan,nan,nan,nan,260.343946575,381.605595957,nan,381.933814541,nan,nan,nan,nan
1,116,1,1,1.0,1.0,0.306405178737,0,0.0,0.0,0.0,0.336445678509,0.117107846644,0.219337831865,0.453553525154,0.117107846644,0.344216847715,143,1.0,-0.287057525782,-0.00469998909502,nan,nan,nan,nan,nan,nan,nan,nan,260.343946575,382.547394092,nan,382.853799271,nan,nan,nan,nan
1,117,1,1,1.0,1.0,0.236492350232,0,0.0,0.0,0.0,0.336186708684,0.116635046147,0.219551662537,0.45282175483,0.116635046147,0.290372037484,379,-0.113535935895,0.478614986251,-0.165970515924,nan,nan,nan,nan,nan,nan,nan,nan,260.343946575,383.489294577,nan,383.725786927,nan,nan,nan,nan
1,118,1,1,1.0,1.0,0.270812711446,0,0.0,0.0,0.0,0.33533462015,0.116497575613,0.218837044537,0.451832195763,0.116497575613,0.271236746805,226,0.801265930663,0.120208988367,0.60458276857,nan,nan,nan,nan,nan,nan,nan,nan,260.343946575,384.430962992,nan,384.701775703,nan,nan,nan,nan
1,119,1,1,1.0,1.0,0.32898891787,0,0.0,0.0,0.0,0.334787824313,0.116153571484,0.21863425283,0.450941395797,0.116153571484,0.278764659849,326,-0.12383419111,0.444071765824,0.352223541474,nan,nan,nan,nan,nan,nan,nan,nan,260.343946575,385.372759701,nan,385.701748619,nan,nan,nan,nan
1,120,1,1,1.0,1.0,0.275204928126,0,0.0,0.0,0.0,0.334739094007,0.115665712932,0.219073381076,0.450404806939,0.115665712932,0.291668852481,209,0.967301840512,0.0304835193525,0.52804999659,nan,nan,nan,nan,nan,nan,nan,nan,260.343946575,386.31454073,nan,386.589745658,nan,nan,nan,nan
1,121,1,1,1.0,1.0,0.437388811959,0,0.0,0.0,0.0,0.334242975958,0.115309839185,0.218933136773,0.449552815143,0.115309839185,0.347194219319,106,1.0,-0.287630069369,-0.390564445695,nan,nan,nan,nan,nan,nan,nan,nan,260.343946575,387.256329742,nan,387.693718554,nan,nan,nan,nan
1,122,1,1,1.0,1.0,0.415581679437,0,0.0,0.0,0.0,0.335095420884,0.115211419705,0.219884001179,0.450306840589,0.115211419705,0.376058473174,359,-0.169222339917,0.474741883077,0.0483828026834,nan,nan,nan,nan,nan,nan,nan,nan,260.343946575,388.198119324,nan,388.613701003,nan,nan,nan,nan
1,123,0,0,0.0,1.0,0.625788010424,0,0.0,0.0,0.0,0.335755144315,0.114967534905,0.220787609409,0.45072267922,0.114967534905,0.492919500607,312,-0.0464483572634,0.420925197877,0.455573212045,nan,nan,nan,nan,nan,nan,nan,nan,260.343946575,389.139893225,nan,389.765681236,nan,nan,nan,nan
1,124,1,1,1.0,1.0,0.64396641776,0,0.0,0.0,0.0,0.338113135096,0.117424056988,0.220689078108,0.455537192084,0.117424056988,0.56177870254,119,1.0,-0.309446327048,-0.250710895617,nan,nan,nan,nan,nan,nan,nan,nan,260.343946575,390.081697917,nan,390.725664335,nan,nan,nan,nan
1,125,1,1,1.0,1.0,0.438160286518,0,0.0,0.0,0.0,0.340579693827,0.120106342398,0.220473351429,0.460686036226,0.120106342398,0.5693049049,493,0.689769084006,0.285700779988,-1.0,nan,nan,nan,nan,nan,nan,nan,nan,260.343946575,391.023484363,nan,391.46164465,nan,nan,nan,nan
1,126,1,1,1.0,1.0,0.344356830698,0,0.0,1.0,0.0,0.341360338569,0.11994038347,0.221419955099,0.461300722038,0.11994038347,0.475494511658,228,0.780729811514,0.1302769546,0.611433142569,nan,nan,nan,nan,nan,nan,nan,nan,260.343946575,391.965266817,nan,392.309623648,nan,nan,nan,nan
1,127,1,1,1.0,1.0,0.298558716429,1,0.0,0.0,1.0,0.341384120252,0.119463777337,0.221994206816,0.46009961788,0.119463777337,0.360358611215,414,0.0747837862165,0.460162189034,-0.600089175003,162.362004438,287.637995562,-3.4557544377,409.0,0.0429436170054,0.464793150178,-0.529461854507,1.90055160737,260.343946575,392.90705868,393.715470092,393.205617396,396.649145505,397.646485542,394.732230993,396.640811525
1,128,1,1,nan,nan,nan,0,0.0,0.0,0.0,0.341046912348,0.119052705532,0.221994206816,0.46009961788,0.119052705532,0.321457773563,335,-0.155595990888,0.455627721073,0.276893227044,nan,nan,nan,nan,nan,nan,nan,nan,260.343946575,397.790991935,nan,nan,nan,nan,nan,nan
1,129,1,1,1.0,1.0,0.144605607027,0,0.0,0.0,0.0,0.341046912348,0.119052705532,0.221994206816,0.46009961788,0.119052705532,0.221582161728,457,0.391639248186,0.390358177281,-1.0,nan,nan,nan,nan,nan,nan,nan,nan,260.343946575,398.732909526,nan,398.877515133,nan,nan,nan,nan
1,130,1,1,1.0,1.0,0.202895852504,0,0.0,0.0,0.0,0.33951221465,0.11984130583,0.219670908821,0.45935352048,0.11984130583,0.173750729766,158,1.0,-0.235949227405,0.139764106,nan,nan,nan,nan,nan,nan,nan,nan,260.343946575,399.674601889,nan,399.877497742,nan,nan,nan,nan
1,131,1,1,1.0,1.0,0.213093231432,0,1.0,0.0,0.0,0.338453173083,0.11997569155,0.218477481533,0.458428864633,0.11997569155,0.186864896988,66,1.0,-0.118568705386,-1.0,nan,nan,nan,nan,nan,nan,nan,nan,260.343946575,400.616393467,nan,400.829486698,nan,nan,nan,nan
1,132,1,1,1.0,1.0,0.239278326044,1,0.0,0.0,1.0,0.33748886584,0.120014156732,0.217474709108,0.457503022572,0.120014156732,0.218422469993,483,0.606025706087,0.319314454546,-1.0,131.944406542,318.055593458,-21.5537815422,452.0,0.351738073422,0.401406211611,-1.0,1.55880427686,260.343946575,401.558179057,402.366589044,401.797457383,404.958647416,405.961154566,403.383375604,404.950222205
1,133,1,1,1.0,1.0,0.680950447684,0,0.0,0.0,0.0,0.336739167063,0.119860395827,0.216878771236,0.45659956289,0.119860395827,0.37777400172,51,1.0,-0.0385160204876,-1.0,nan,nan,nan,nan,nan,nan,nan,nan,260.343946575,406.100427989,nan,406.781378437,nan,nan,nan,nan
1,134,1,1,1.0,1.0,0.563132632058,0,0.0,0.0,0.0,0.33934682828,0.123079095571,0.216267732708,0.462425923851,0.123079095571,0.494453801929,282,0.208142307666,0.34807905204,0.609295500931,nan,nan,nan,nan,nan,nan,nan,nan,260.343946575,407.042222702,nan,407.605355334,nan,nan,nan,nan
1,135,1,1,1.0,1.0,0.581325579435,0,0.0,1.0,0.0,0.341029428308,0.124130078546,0.216899349762,0.465159506854,0.124130078546,0.608469553059,58,1.0,-0.0760896648475,-1.0,nan,nan,nan,nan,nan,nan,nan,nan,260.343946575,407.984010288,nan,408.565335868,nan,nan,nan,nan
1,136,1,1,1.0,1.0,0.559520727955,1,0.0,0.0,1.0,0.342822683167,0.125383355116,0.217439328051,0.468206038283,0.125383355116,0.567992979816,194,1.0,-0.0524864644427,0.435571704399,-28.8865817669,118.886581767,-17.5196682331,169.0,1.0,-0.185917379452,0.239118302078,0.975412878674,260.343946575,408.925795309,409.734212423,409.485316037,411.742767068,412.747011605,410.750975605,411.734427387
1,137,1,1,1.0,1.0,0.480286340928,0,0.0,0.0,0.0,0.344427853869,0.126292496901,0.218135356968,0.470720350771,0.126292496901,0.540377549439,422,0.128328379107,0.451313674078,-0.730894888444,nan,nan,nan,nan,nan,nan,nan,nan,260.343946575,412.892976558,nan,413.373262899,nan,nan,nan,nan
1,138,1,1,1.0,1.0,0.530456715263,0,0.0,0.0,0.0,0.345426813333,0.126361529241,0.219065284092,0.471788342574,0.126361529241,0.523421261382,139,1.0,-0.296335611021,-0.0445992895203,nan,nan,nan,nan,nan,nan,nan,nan,260.343946575,413.834776118,nan,414.365232834,nan,nan,nan,nan
1,139,0,0,1.0,0.0,0.780031634495,0,0.0,0.0,0.0,0.346777396559,0.126880893402,0.219896503156,0.473658289961,0.126880893402,0.596924896895,425,0.149162615564,0.447529597292,-0.791715667876,nan,nan,nan,nan,nan,nan,nan,nan,260.343946575,414.793188044,nan,415.573219678,nan,nan,nan,nan
1,140,1,1,1.0,1.0,0.56620199536,0,0.0,0.0,0.0,0.349916920022,0.131652795866,0.218264124156,0.481569715888,0.131652795866,0.625563448373,100,1.0,-0.270427092546,-0.457439896749,nan,nan,nan,nan,nan,nan,nan,nan,260.343946575,415.734971924,nan,416.301173919,nan,nan,nan,nan
1,141,1,1,1.0,1.0,0.440384334652,0,0.0,0.0,0.0,0.351472927758,0.132445780614,0.219027147144,0.483918708373,0.132445780614,0.595539321502,26,1.0,0.0920921692153,-1.0,nan,nan,nan,nan,nan,nan,nan,nan,260.343946575,416.676799709,nan,417.117184043,nan,nan,nan,nan
1,142,1,1,1.0,1.0,0.314567814581,0,0.0,0.0,0.0,0.352108009236,0.13218414536,0.219923863876,0.484292154596,0.13218414536,0.440384714864,306,-0.00395437407881,0.408974006242,0.494128827808,nan,nan,nan,nan,nan,nan,nan,nan,260.343946575,417.618606111,nan,417.933173926,nan,nan,nan,nan
1,143,1,1,1.0,1.0,0.300773071358,0,0.0,0.0,0.0,0.351841766721,0.131752239844,0.220089526876,0.483594006565,0.131752239844,0.351908406864,129,1.0,-0.310070485259,-0.146368003411,nan,nan,nan,nan,nan,nan,nan,nan,260.343946575,418.560378302,nan,418.861151373,nan,nan,nan,nan
1,144,1,1,1.0,1.0,0.454981343122,0,0.0,0.0,0.0,0.351482128021,0.13135693971,0.220125188311,0.482839067731,0.13135693971,0.356774076354,434,0.213881816697,0.43461034373,-1.0,nan,nan,nan,nan,nan,nan,nan,nan,260.343946575,419.502160756,nan,419.9571421,nan,nan,nan,nan
1,145,1,1,1.0,1.0,0.449158220086,0,0.0,0.0,0.0,0.352205898756,0.13118067545,0.221025223306,0.483386574206,0.13118067545,0.401637544855,222,0.841778467246,0.0997291618919,0.589484691865,nan,nan,nan,nan,nan,nan,nan,nan,260.343946575,420.443955755,nan,420.893113975,nan,nan,nan,nan
1,146,1,1,1.0,1.0,0.435371174477,0,0.0,0.0,0.0,0.352879178765,0.130972095496,0.221907083269,0.483851274261,0.130972095496,0.446503579228,85,1.0,-0.212156452387,-0.638781227021,nan,nan,nan,nan,nan,nan,nan,nan,260.343946575,421.385737069,nan,421.821108244,nan,nan,nan,nan
1,147,1,1,1.0,1.0,0.277578082634,0,0.0,0.0,0.0,0.353448089081,0.130698107783,0.222749981298,0.484146196863,0.130698107783,0.387369159066,39,1.0,0.0253789930673,-1.0,nan,nan,nan,nan,nan,nan,nan,nan,260.343946575,422.327526081,nan,422.605104163,nan,nan,nan,nan
1,148,1,1,1.0,1.0,0.303752343636,0,0.0,0.0,0.0,0.352928431502,0.130399968518,0.222528462984,0.48332840002,0.130399968518,0.338900533582,264,0.394966959701,0.287889713878,0.650717615019,nan,nan,nan,nan,nan,nan,nan,nan,260.343946575,423.269319369,nan,423.573071712,nan,nan,nan,nan
1,149,1,1,1.0,1.0,0.313950577751,0,0.0,0.0,0.0,0.352593900292,0.13001852296,0.222575377333,0.482612423252,0.13001852296,0.29842700134,80,1.0,-0.189075709245,-0.708965549488,nan,nan,nan,nan,nan,nan,nan,nan,260.343946575,424.21110667,nan,424.525057248,nan,nan,nan,nan
1,150,1,1,1.0,1.0,0.452135496773,0,0.0,0.0,0.0,0.352332796761,0.129617191428,0.222715605334,0.481949988189,0.129617191428,0.356612806053,489,0.656284860842,0.299572439858,-1.0,nan,nan,nan,nan,nan,nan,nan,nan,260.343946575,425.152900243,nan,425.60503574,nan,nan,nan,nan
1,151,1,1,1.0,1.0,0.382329294691,0,0.0,0.0,0.0,0.35300261354,0.129438253109,0.223564360431,0.482440866649,0.129438253109,0.382805123071,269,0.34171296506,0.305888347675,0.643262349404,nan,nan,nan,nan,nan,nan,nan,nan,260.343946575,426.094688114,nan,426.477017409,nan,nan,nan,nan
1,152,0,0,0.0,1.0,0.52852460742,0,0.0,0.0,0.0,0.353198124748,0.129028143296,0.224169981452,0.482226268044,0.129028143296,0.454329799628,137,1.0,-0.300190217086,-0.0647316600203,nan,nan,nan,nan,nan,nan,nan,nan,260.343946575,427.03647456,nan,427.564999168,nan,nan,nan,nan
1,153,1,1,1.0,1.0,0.418733435916,0,0.0,0.0,0.0,0.354359227282,0.129384049394,0.224975177888,0.483743276676,0.129384049394,0.443195779342,184,1.0,-0.107671891867,0.362640045218,nan,nan,nan,nan,nan,nan,nan,nan,260.343946575,427.978262146,nan,428.396995582,nan,nan,nan,nan
1,154,1,1,1.0,1.0,0.348917255411,0,0.0,0.0,0.0,0.354782741812,0.129062710257,0.225720031556,0.483845452069,0.129062710257,0.432058432916,288,0.150005133015,0.365331945294,0.586687239957,nan,nan,nan,nan,nan,nan,nan,nan,260.343946575,428.920052298,nan,429.268969554,nan,nan,nan,nan
1,155,1,1,1.0,1.0,0.303123987978,0,0.0,0.0,0.0,0.3547444053,0.128641113541,0.226103291759,0.483385518841,0.128641113541,0.356924893102,133,1.0,-0.306259573676,-0.105336427414,nan,nan,nan,nan,nan,nan,nan,nan,260.343946575,429.861839029,nan,430.164963017,nan,nan,nan,nan
1,156,1,1,1.0,1.0,0.345324452734,0,0.0,0.0,0.0,0.354409207785,0.128289784257,0.226119423528,0.482698992042,0.128289784257,0.332455232041,308,-0.0186828559465,0.413097475488,0.481682330771,nan,nan,nan,nan,nan,nan,nan,nan,260.343946575,430.803626045,nan,431.148950498,nan,nan,nan,nan
1,157,0,0,1.0,0.0,0.315515764756,0,0.0,0.0,0.0,0.354350596462,0.12787734514,0.226473251322,0.482227941602,0.12787734514,0.321321401823,0,0.846831709088,0.212097570855,-1.0,nan,nan,nan,nan,nan,nan,nan,nan,260.343946575,431.745415627,nan,432.060931392,nan,nan,nan,nan
1,158,1,1,1.0,1.0,0.365693836939,0,0.0,0.0,0.0,0.354101655233,0.12750449624,0.226597158993,0.481606151473,0.12750449624,0.342178018143,307,-0.0113868739462,0.411053355611,0.487957006857,nan,nan,nan,nan,nan,nan,nan,nan,260.343946575,432.687206634,nan,433.052900471,nan,nan,nan,nan
1,159,1,1,1.0,1.0,0.27990105981,0,0.0,0.0,0.0,0.354175490785,0.127101127958,0.227074362827,0.481276618744,0.127101127958,0.320370220502,400,-0.0107874812989,0.471427301814,-0.412692688905,nan,nan,nan,nan,nan,nan,nan,nan,260.343946575,433.62899365,nan,433.90889471,nan,nan,nan,nan
1,160,1,1,1.0,1.0,0.314081722638,0,0.0,0.0,0.0,0.35370539945,0.126835115772,0.226870283679,0.480540515222,0.126835115772,0.319892206462,356,-0.17284377641,0.473239407326,0.0788368070227,nan,nan,nan,nan,nan,nan,nan,nan,260.343946575,434.570783802,nan,434.884865525,nan,nan,nan,nan
1,161,1,1,1.0,1.0,0.308286254061,0,0.0,0.0,0.0,0.353456193936,0.126474431826,0.22698176211,0.479930625761,0.126474431826,0.300756345503,427,0.163265173604,0.444863218481,-0.840208708629,nan,nan,nan,nan,nan,nan,nan,nan,260.343946575,435.512572814,nan,435.820859068,nan,nan,nan,nan
1,162,0,0,1.0,0.0,0.246482178103,0,0.0,0.0,0.0,0.353173881811,0.126128825374,0.227045056437,0.479302707185,0.126128825374,0.289616718267,296,0.0772713571413,0.386205321608,0.550001308524,nan,nan,nan,nan,nan,nan,nan,nan,260.343946575,436.45436154,nan,436.700843719,nan,nan,nan,nan
1,163,1,1,1.0,1.0,0.248680852354,0,0.0,0.0,0.0,0.352511200422,0.126015608603,0.226495591819,0.478526809025,0.126015608603,0.267816428173,89,1.0,-0.229484098413,-0.587370487375,nan,nan,nan,nan,nan,nan,nan,nan,260.343946575,437.396146276,nan,437.644827128,nan,nan,nan,nan
1,164,1,1,1.0,1.0,0.250884088455,0,0.0,0.0,0.0,0.351870272347,0.125889023852,0.225981248496,0.477759296199,0.125889023852,0.248682372971,220,0.861731547614,0.0893272636146,0.581247684387,nan,nan,nan,nan,nan,nan,nan,nan,260.343946575,438.337934717,nan,438.588818806,nan,nan,nan,nan
1,165,1,1,1.0,1.0,0.293068872765,0,0.0,0.0,0.0,0.351250725207,0.125749755113,0.225500970094,0.47700048032,0.125749755113,0.264211271191,154,1.0,-0.251813147593,0.102138173725,nan,nan,nan,nan,nan,nan,nan,nan,260.343946575,439.27972658,nan,439.572795453,nan,nan,nan,nan
1,166,1,1,1.0,1.0,0.279263580916,0,0.0,0.0,0.0,0.350895957814,0.12544758004,0.225448377774,0.476343537854,0.12544758004,0.274405514045,373,-0.135407706169,0.478559568072,-0.0996974893599,nan,nan,nan,nan,nan,nan,nan,nan,260.343946575,440.221516447,nan,440.500780028,nan,nan,nan,nan
1,167,1,1,1.0,1.0,0.289462955669,0,0.0,0.0,0.0,0.350461822196,0.125190369818,0.225271452379,0.475652192014,0.125190369818,0.28726513645,507,0.805995650865,0.232688349973,-1.0,nan,nan,nan,nan,nan,nan,nan,nan,260.343946575,441.163302037,nan,441.452764993,nan,nan,nan,nan
1,168,1,1,1.0,1.0,0.307649060385,0,0.0,0.0,0.0,0.350094359145,0.124901941817,0.225192417328,0.474996300962,0.124901941817,0.29212519899,294,0.0948761993654,0.381212130724,0.559858230992,nan,nan,nan,nan,nan,nan,nan,nan,260.343946575,442.105092759,nan,442.41274182,nan,nan,nan,nan
1,169,1,1,1.0,1.0,0.317840167321,0,0.0,0.0,0.0,0.349840195679,0.124570471528,0.225269724151,0.474410667208,0.124570471528,0.304984061125,393,-0.0489456633786,0.475102171109,-0.327443230616,nan,nan,nan,nan,nan,nan,nan,nan,260.343946575,443.046882911,nan,443.364723079,nan,nan,nan,nan
1,170,1,1,1.0,1.0,0.424046803964,0,0.0,0.0,0.0,0.34964971932,0.124223562471,0.225426156849,0.473873281792,0.124223562471,0.34984534389,120,1.0,-0.310161497659,-0.240162905937,nan,nan,nan,nan,nan,nan,nan,nan,260.343946575,443.988665366,nan,444.41271217,nan,nan,nan,nan
1,171,1,1,1.0,1.0,0.402229122818,0,0.0,0.0,0.0,0.350089938756,0.123986854587,0.226103084169,0.474076793343,0.123986854587,0.381372031368,378,-0.117450136118,0.478670924818,-0.154810124165,nan,nan,nan,nan,nan,nan,nan,nan,260.343946575,444.930454092,nan,445.332683215,nan,nan,nan,nan
1,172,1,1,1.0,1.0,0.308428803226,0,0.0,0.0,0.0,0.350396639839,0.123685930105,0.226710709734,0.474082569944,0.123685930105,0.378234910003,262,0.416452475899,0.2804144186,0.652815538838,nan,nan,nan,nan,nan,nan,nan,nan,260.343946575,445.8722451,nan,446.180673903,nan,nan,nan,nan
1,173,1,1,1.0,1.0,0.310628047679,0,0.0,0.0,0.0,0.350151213894,0.123365253843,0.226785960051,0.473516467736,0.123365253843,0.340428657907,307,-0.0113868739462,0.411053355611,0.487957006857,nan,nan,nan,nan,nan,nan,nan,nan,260.343946575,446.814033826,nan,447.124661874,nan,nan,nan,nan
1,174,1,1,1.0,1.0,0.304811481852,0,0.0,0.0,0.0,0.349921428043,0.123042807358,0.226878620685,0.472964235402,0.123042807358,0.307956110919,30,1.0,0.071945658744,-1.0,nan,nan,nan,nan,nan,nan,nan,nan,260.343946575,447.755835382,nan,448.060646864,nan,nan,nan,nan
1,175,0,0,0.0,1.0,0.53101750277,0,0.0,0.0,0.0,0.349660676909,0.122734327606,0.226926349304,0.472395004515,0.122734327606,0.3821523441,196,1.0,-0.0413610816081,0.449130757868,nan,nan,nan,nan,nan,nan,nan,nan,260.343946575,448.697610139,nan,449.228627642,nan,nan,nan,nan
1,176,1,1,1.0,1.0,0.253206210211,0,0.0,0.0,0.0,0.350702957518,0.123146581159,0.227556376359,0.473849538676,0.123146581159,0.363011731611,335,-0.155595990888,0.455627721073,0.276893227044,nan,nan,nan,nan,nan,nan,nan,nan,260.343946575,449.63941198,nan,449.89261819,nan,nan,nan,nan
1,177,1,1,1.0,1.0,0.239402913954,0,0.0,0.0,0.0,0.350145833247,0.123013943377,0.22713188987,0.473159776625,0.123013943377,0.341208875645,257,0.470472903111,0.261039853404,0.655841377839,nan,nan,nan,nan,nan,nan,nan,nan,260.343946575,450.581191584,nan,450.820594497,nan,nan,nan,nan
1,178,1,1,1.0,1.0,0.241609286051,0,0.0,0.0,0.0,0.349516612115,0.12294607116,0.226570540955,0.472462683275,0.12294607116,0.244739470072,475,0.539218753276,0.343659807328,-1.0,nan,nan,nan,nan,nan,nan,nan,nan,260.343946575,451.522978314,nan,451.7645876,nan,nan,nan,nan
1,179,1,1,1.0,1.0,0.203802178614,0,0.0,0.0,0.0,0.348906966205,0.122864764537,0.226042201668,0.471771730742,0.122864764537,0.22827145954,361,-0.166047812515,0.475607712818,0.0278173107143,nan,nan,nan,nan,nan,nan,nan,nan,260.343946575,452.46476476,nan,452.668566939,nan,nan,nan,nan
1,180,1,1,1.0,1.0,0.213988723699,0,1.0,0.0,0.0,0.348091770769,0.122998239806,0.225093530963,0.471090010575,0.122998239806,0.219800062788,269,0.34171296506,0.305888347675,0.643262349404,nan,nan,nan,nan,nan,nan,nan,nan,260.343946575,453.406554342,nan,453.620543066,nan,nan,nan,nan
1,181,1,1,1.0,1.0,0.280189008452,1,0.0,0.0,1.0,0.347342591735,0.12306078085,0.224281810885,0.470403372585,0.12306078085,0.232659970255,208,0.97651257568,0.025020743352,0.522574479073,-31.4964999063,121.496499906,-24.7535000937,173.0,1.0,-0.165909522591,0.273535192888,1.61718632397,260.343946575,454.348341358,455.15675277,454.628530366,457.807143297,458.813070481,456.173521939,457.798728635
1,182,1,1,1.0,1.0,0.743165920023,0,0.0,0.0,0.0,0.346969516273,0.122819936755,0.224149579517,0.469789453028,0.122819936755,0.412447884058,480,0.580928072941,0.32870764083,-1.0,nan,nan,nan,nan,nan,nan,nan,nan,260.343946575,458.957270394,nan,459.700436314,nan,nan,nan,nan
1,183,1,1,1.0,1.0,0.609362384537,0,0.0,0.0,0.0,0.34915844668,0.125951779329,0.223206667351,0.475110226009,0.125951779329,0.544239104337,78,1.0,-0.179467652321,-0.739907630878,nan,nan,nan,nan,nan,nan,nan,nan,260.343946575,459.899054558,nan,460.508416943,nan,nan,nan,nan
1,184,1,1,1.0,1.0,0.491561389528,0,0.0,1.0,0.0,0.350588138646,0.127069485564,0.223518653082,0.477657624211,0.127069485564,0.614696564696,429,0.177531820842,0.442080780324,-0.901885199234,nan,nan,nan,nan,nan,nan,nan,nan,260.343946575,460.840848702,nan,461.332410092,nan,nan,nan,nan
1,185,1,1,1.0,1.0,0.253792656353,1,0.0,0.0,1.0,0.35135848428,0.127147260193,0.224211224087,0.478505744472,0.127147260193,0.451572143473,360,-0.167709501072,0.475188317955,0.0381258551808,-178.908783775,268.908783775,15.7837837747,382.0,-0.1011887567,0.478291136399,-0.199732273247,0.79214772163,260.343946575,461.782602361,462.591049411,462.036395018,464.424576516,465.427331416,463.616146857,464.41625451
1,186,1,1,1.0,1.0,0.245868647471,0,0.0,0.0,0.0,0.350828235215,0.127004006983,0.223824228231,0.477832242198,0.127004006983,0.330407564451,22,1.0,0.111842423158,-1.0,nan,nan,nan,nan,nan,nan,nan,nan,260.343946575,465.566456017,nan,465.812324665,nan,nan,nan,nan
1,187,1,1,1.0,1.0,0.296060404275,0,0.0,0.0,0.0,0.350260886092,0.126893874358,0.223367011734,0.47715476045,0.126893874358,0.265240569366,433,0.206536295144,0.436163724167,-1.0,nan,nan,nan,nan,nan,nan,nan,nan,260.343946575,466.508250161,nan,466.804310565,nan,nan,nan,nan
1,188,0,0,1.0,0.0,0.258257003268,0,0.0,0.0,0.0,0.349969485652,0.12661435262,0.223355133031,0.476583838272,0.12661435262,0.266728685005,260,0.438016636947,0.272781976488,0.654406567654,nan,nan,nan,nan,nan,nan,nan,nan,260.343946575,467.450041453,nan,467.708298456,nan,nan,nan,nan
1,189,1,1,1.0,1.0,0.532427596394,0,0.0,0.0,0.0,0.34947904457,0.126452382399,0.22363641675,0.477267933579,0.126452382399,0.362248334646,46,1.0,-0.0117313672748,-1.0,nan,nan,nan,nan,nan,nan,nan,nan,260.343946575,468.391821912,nan,468.924249508,nan,nan,nan,nan
1,190,0,0,nan,nan,nan,0,0.0,0.0,0.0,0.350452175165,0.126815758415,0.22363641675,0.477267933579,0.126815758415,0.395342299831,449,0.328095008353,0.407646248688,-1.0,nan,nan,nan,nan,nan,nan,nan,nan,260.343946575,469.333612349,nan,nan,nan,nan,nan,nan
1,191,1,1,1.0,1.0,0.456835049205,0,0.0,0.0,0.0,0.350452175165,0.126815758415,0.22363641675,0.477267933579,0.126815758415,0.494631322799,291,0.122027637739,0.373441943191,0.573791926984,nan,nan,nan,nan,nan,nan,nan,nan,260.343946575,470.275402786,nan,470.732237835,nan,nan,nan,nan
1,192,1,1,1.0,1.0,0.387035119347,0,0.0,0.0,0.0,0.351015047514,0.126715068309,0.224299979205,0.477730115823,0.126715068309,0.421935084276,228,0.780729811514,0.1302769546,0.611433142569,nan,nan,nan,nan,nan,nan,nan,nan,260.343946575,471.217194649,nan,471.604229768,nan,nan,nan,nan
1,193,1,1,1.0,1.0,0.317227492109,0,0.0,0.0,0.0,0.351204626839,0.126408038766,0.224796588073,0.477612665606,0.126408038766,0.387032553554,353,-0.175041255135,0.471490071959,0.108799216003,nan,nan,nan,nan,nan,nan,nan,nan,260.343946575,472.158983946,nan,472.476211438,nan,nan,nan,nan
1,194,1,1,1.0,1.0,0.263419554569,0,0.0,0.0,0.0,0.351026736082,0.126100536052,0.22492620003,0.477127272133,0.126100536052,0.322560722008,117,1.0,-0.307587969795,-0.271886539361,nan,nan,nan,nan,nan,nan,nan,nan,260.343946575,473.100769251,nan,473.364188805,nan,nan,nan,nan
1,195,1,1,1.0,1.0,0.241613847669,0,0.0,0.0,0.0,0.350570448678,0.125929708733,0.224640739945,0.476500157411,0.125929708733,0.274086964782,184,1.0,-0.107671891867,0.362640045218,nan,nan,nan,nan,nan,nan,nan,nan,260.343946575,474.042562539,nan,474.284176387,nan,nan,nan,nan
1,196,1,1,1.0,1.0,0.291808455484,0,0.0,0.0,0.0,0.350005906704,0.125846398816,0.224159507888,0.475852305519,0.125846398816,0.265613952574,133,1.0,-0.306259573676,-0.105336427414,nan,nan,nan,nan,nan,nan,nan,nan,260.343946575,474.984346989,nan,475.276155445,nan,nan,nan,nan
1,197,1,1,1.0,1.0,0.270006169332,0,0.0,0.0,0.0,0.349705919842,0.125590799518,0.224115120324,0.47529671936,0.125590799518,0.267809490828,408,0.036737934283,0.465637664749,-0.515938449969,nan,nan,nan,nan,nan,nan,nan,nan,260.343946575,475.926135716,nan,476.196141885,nan,nan,nan,nan
1,198,1,1,1.0,1.0,0.296196395997,0,0.0,0.0,0.0,0.349297203173,0.125397643759,0.223899559413,0.474694846932,0.125397643759,0.286003673604,51,1.0,-0.0385160204876,-1.0,nan,nan,nan,nan,nan,nan,nan,nan,260.343946575,476.867921306,nan,477.164117702,nan,nan,nan,nan
1,199,1,1,1.0,1.0,0.26639711624,0,0.0,0.0,0.0,0.349026280687,0.125134545474,0.223891735213,0.474160826161,0.125134545474,0.27753322719,292,0.112881669716,0.376069582356,0.569261850688,nan,nan,nan,nan,nan,nan,nan,nan,260.343946575,477.809711458,nan,478.076108574,nan,nan,nan,nan
1,200,1,1,1.0,1.0,0.212595450692,0,0.0,0.0,0.0,0.348606843304,0.124954594745,0.223652248559,0.473561438049,0.124954594745,0.258396320976,454,0.367627362238,0.397084843583,-1.0,nan,nan,nan,nan,nan,nan,nan,nan,260.343946575,478.751498759,nan,478.96409421,nan,nan,nan,nan
1,201,1,1,1.0,1.0,0.246800062014,0,0.0,0.0,0.0,0.347919917079,0.125011006919,0.22290891016,0.472930923998,0.125011006919,0.241930876315,152,1.0,-0.259184487343,0.0830625546756,nan,nan,nan,nan,nan,nan,nan,nan,260.343946575,479.693286345,nan,479.940086407,nan,nan,nan,nan
1,202,0,0,0.0,1.0,0.568885050947,0,0.0,0.0,0.0,0.347411777103,0.124901342142,0.222510434961,0.472313119246,0.124901342142,0.342760187884,78,1.0,-0.179467652321,-0.739907630878,nan,nan,nan,nan,nan,nan,nan,nan,260.343946575,480.63517172,nan,481.204056771,nan,nan,nan,nan
1,203,1,1,1.0,1.0,0.5711601316,0,0.0,0.0,0.0,0.348519143473,0.125564204045,0.222954939427,0.474083347518,0.125564204045,0.462281748187,194,1.0,-0.0524864644427,0.435571704399,nan,nan,nan,nan,nan,nan,nan,nan,260.343946575,481.576865224,nan,482.148025356,nan,nan,nan,nan
1,204,1,1,1.0,1.0,0.50135022332,0,0.0,0.0,0.0,0.34962681008,0.126227234588,0.223399575492,0.475854044668,0.126227234588,0.547131801955,435,0.221263830514,0.433027056876,-1.0,nan,nan,nan,nan,nan,nan,nan,nan,260.343946575,482.518665639,nan,483.020015863,nan,nan,nan,nan
1,205,1,1,1.0,1.0,0.327560007339,0,0.0,0.0,0.0,0.350377916086,0.126363891847,0.224014024239,0.476741807933,0.126363891847,0.466690120753,380,-0.109519508899,0.478533032186,-0.177177385375,nan,nan,nan,nan,nan,nan,nan,nan,260.343946575,483.460446669,nan,483.788006676,nan,nan,nan,nan
1,206,1,1,1.0,1.0,0.305768840481,0,0.0,0.0,0.0,0.350265512595,0.12606238957,0.224203123025,0.476327902165,0.12606238957,0.378226357047,113,1.0,-0.302191989669,-0.314576349441,nan,nan,nan,nan,nan,nan,nan,nan,260.343946575,484.402230833,nan,484.707999674,nan,nan,nan,nan
1,207,1,1,1.0,1.0,0.331957641291,0,0.0,0.0,0.0,0.350047391653,0.125791428664,0.224255962989,0.475838820318,0.125791428664,0.321762163037,221,0.851781464038,0.0945411604707,0.585422935822,nan,nan,nan,nan,nan,nan,nan,nan,260.343946575,485.344023837,nan,485.675981478,nan,nan,nan,nan
1,208,1,1,1.0,1.0,0.422145486344,0,0.0,0.0,0.0,0.349959148969,0.125490574555,0.224468574413,0.475449723524,0.125490574555,0.353290656038,426,0.156193047225,0.446210853967,-0.81485970128,nan,nan,nan,nan,nan,nan,nan,nan,260.343946575,486.285809427,nan,486.707954913,nan,nan,nan,nan
1,209,1,1,1.0,1.0,0.36834610207,0,0.0,0.0,0.0,0.350309568082,0.125286116313,0.225023451769,0.475595684395,0.125286116313,0.374149743235,235,0.707591924495,0.164537776567,0.631659631194,nan,nan,nan,nan,nan,nan,nan,nan,260.343946575,487.227600719,nan,487.595946821,nan,nan,nan,nan
1,210,1,1,1.0,1.0,0.482536047697,0,0.0,0.0,0.0,0.350396701096,0.1249893831,0.225407317996,0.475386084197,0.1249893831,0.42434254537,29,1.0,0.0770173926463,-1.0,nan,nan,nan,nan,nan,nan,nan,nan,260.343946575,488.16938631,nan,488.651922358,nan,nan,nan,nan
1,211,1,1,1.0,1.0,0.468725053826,0,0.0,0.0,0.0,0.351031986417,0.125023122083,0.226008864334,0.4760551085,0.125023122083,0.439869067864,120,1.0,-0.310161497659,-0.240162905937,nan,nan,nan,nan,nan,nan,nan,nan,260.343946575,489.111174751,nan,489.579899805,nan,nan,nan,nan
1,212,1,1,1.0,1.0,0.502913699718,0,0.0,1.0,0.0,0.351595111141,0.124987804989,0.226607306152,0.47658291613,0.124987804989,0.484724933747,8,0.91102658764,0.177400941622,-1.0,nan,nan,nan,nan,nan,nan,nan,nan,260.343946575,490.052964903,nan,490.555878603,nan,nan,nan,nan
1,213,1,1,1.0,1.0,0.585115384776,1,0.0,0.0,1.0,0.352315675849,0.125124245341,0.227191430507,0.47743992119,0.125124245341,0.518918046107,383,-0.0968787136249,0.478131214543,-0.211081409456,-175.006256014,265.006256014,-4.29061898582,377.0,-0.121259861678,0.478700828387,-0.143695900877,2.21732123243,260.343946575,490.994751349,491.803164187,491.579866734,495.053627471,496.049640378,492.81994647,495.045281232
1,214,1,1,1.0,1.0,0.688352727564,0,0.0,0.0,0.0,0.353418992005,0.125847176089,0.227571815915,0.479266168094,0.125847176089,0.592127270686,302,0.027086081288,0.400300843718,0.517770016443,nan,nan,nan,nan,nan,nan,nan,nan,260.343946575,496.195425149,nan,496.883777877,nan,nan,nan,nan
1,215,1,1,1.0,1.0,0.682546710595,0,0.0,0.0,0.0,0.354998868116,0.127630185633,0.227368682483,0.482629053749,0.127630185633,0.652004940979,56,1.0,-0.0653675053377,-1.0,nan,nan,nan,nan,nan,nan,nan,nan,260.343946575,497.137209314,nan,497.819756025,nan,nan,nan,nan
1,216,1,1,1.0,1.0,0.64472990972,0,0.0,1.0,0.0,0.356536651414,0.129283876607,0.227252774807,0.485820528021,0.129283876607,0.671876449293,148,1.0,-0.272695592461,0.0444264621409,nan,nan,nan,nan,nan,nan,nan,nan,260.343946575,498.079002602,nan,498.723732512,nan,nan,nan,nan
1,217,1,1,1.0,1.0,0.630936021917,1,0.0,0.0,1.0,0.357883348883,0.130470349066,0.227412999816,0.488353697949,0.130470349066,0.652737547411,270,0.331159066004,0.309369715406,0.641393874915,-86.3177259377,176.317725938,-13.5260240623,251.0,0.535576518695,0.236509187076,0.655284151108,2.600628983,260.343946575,499.020789333,499.829199605,499.651725355,503.471299772,504.473481911,500.854297907,503.462960376
1,218,1,1,1.0,1.0,0.558388889534,0,0.0,0.0,0.0,0.359153361315,0.131485759187,0.227667602128,0.490639120503,0.131485759187,0.611351607057,91,1.0,-0.237709898716,-0.562722318432,nan,nan,nan,nan,nan,nan,nan,nan,260.343946575,504.613246557,nan,505.171635447,nan,nan,nan,nan
1,219,1,1,1.0,1.0,0.360655588331,0,0.0,0.0,0.0,0.36007574802,0.131876407669,0.228199340351,0.491952155689,0.131876407669,0.516660166594,178,1.0,-0.139919655122,0.315097826042,nan,nan,nan,nan,nan,nan,nan,nan,260.343946575,505.554957737,nan,505.915613325,nan,nan,nan,nan
1,220,1,1,1.0,1.0,0.274843994528,0,0.0,0.0,0.0,0.360078420095,0.131572199958,0.228506220137,0.491650620054,0.131572199958,0.397962824131,291,0.122027637739,0.373441943191,0.573791926984,nan,nan,nan,nan,nan,nan,nan,nan,260.343946575,506.496755302,nan,506.771599296,nan,nan,nan,nan
1,221,1,1,1.0,1.0,0.253030019579,0,0.0,0.0,0.0,0.359687436492,0.131396372938,0.228291063553,0.49108380943,0.131396372938,0.296176534146,80,1.0,-0.189075709245,-0.708965549488,nan,nan,nan,nan,nan,nan,nan,nan,260.343946575,507.438545169,nan,507.691575188,nan,nan,nan,nan
1,222,1,1,1.0,1.0,0.367217969848,0,0.0,0.0,0.0,0.359200416323,0.131293100726,0.227907315597,0.490493517049,0.131293100726,0.298363994652,17,0.981069150956,0.135921910835,-1.0,nan,nan,nan,nan,nan,nan,nan,nan,260.343946575,508.380333325,nan,508.747551295,nan,nan,nan,nan
1,223,1,1,1.0,1.0,0.353425222216,0,0.0,0.0,0.0,0.359236859748,0.130995477651,0.228241382097,0.490232337399,0.130995477651,0.324557737214,183,1.0,-0.113108999915,0.354902835149,nan,nan,nan,nan,nan,nan,nan,nan,260.343946575,509.322121481,nan,509.675546704,nan,nan,nan,nan
1,224,1,1,1.0,1.0,0.371608761605,0,0.0,0.0,0.0,0.359210562746,0.130699353784,0.228511208962,0.48990991653,0.130699353784,0.364083984556,126,1.0,-0.311411754845,-0.177408431044,nan,nan,nan,nan,nan,nan,nan,nan,260.343946575,510.263928169,nan,510.635536931,nan,nan,nan,nan
1,225,0,0,0.0,1.0,0.47779316036,0,0.0,0.0,0.0,0.359266410488,0.130407296498,0.228859113991,0.489673706986,0.130407296498,0.400942381394,270,0.331159066004,0.309369715406,0.641393874915,nan,nan,nan,nan,nan,nan,nan,nan,260.343946575,511.205720602,nan,511.683513762,nan,nan,nan,nan
1,226,1,1,1.0,1.0,0.512004043907,0,0.0,0.0,0.0,0.359797920578,0.130355353815,0.229442566763,0.490153274392,0.130355353815,0.453801988624,43,1.0,0.00424534395127,-1.0,nan,nan,nan,nan,nan,nan,nan,nan,260.343946575,512.147489371,nan,512.659493415,nan,nan,nan,nan
1,227,1,1,1.0,1.0,0.586209019879,0,0.0,0.0,0.0,0.3604774122,0.130459265245,0.230018146954,0.490936677445,0.130459265245,0.525335408049,180,1.0,-0.129278616986,0.331238955499,nan,nan,nan,nan,nan,nan,nan,nan,260.343946575,513.089275247,nan,513.675484267,nan,nan,nan,nan
1,228,1,1,1.0,1.0,0.556382085895,0,0.0,1.0,0.0,0.361480663789,0.131032195333,0.230448468456,0.492512859122,0.131032195333,0.55153171656,437,0.23613482661,0.429770237144,-1.0,nan,nan,nan,nan,nan,nan,nan,nan,260.343946575,514.03106882,nan,514.587450906,nan,nan,nan,nan
1,229,1,1,1.0,1.0,0.67058172496,1,0.0,0.0,1.0,0.362343059462,0.131380377811,0.230962681651,0.493723437274,0.131380377811,0.604390943578,156,1.0,-0.244060613314,0.121041471254,-29.2488263365,119.248826337,9.56132633655,170.0,1.0,-0.180990482069,0.247815061387,1.77553193551,260.343946575,514.972854126,515.781262972,515.643435851,518.589955491,519.589623066,516.798050672,518.581625502
1,230,1,1,1.0,1.0,0.559561781818,0,0.0,0.0,0.0,0.363700939046,0.132670539477,0.231030399569,0.496371478522,0.132670539477,0.595508530891,374,-0.132039125116,0.478634076427,-0.110628443238,nan,nan,nan,nan,nan,nan,nan,nan,260.343946575,519.731803346,nan,520.291365128,nan,nan,nan,nan
1,231,1,1,1.0,1.0,0.481751458487,0,0.0,0.0,0.0,0.36455997783,0.133010475974,0.231549501856,0.497570453804,0.133010475974,0.570631655088,58,1.0,-0.0760896648475,-1.0,nan,nan,nan,nan,nan,nan,nan,nan,260.343946575,520.673588367,nan,521.155339825,nan,nan,nan,nan
1,232,0,0,1.0,0.0,0.267947477987,0,0.0,0.0,0.0,0.365071731021,0.132944504328,0.232127226693,0.498016235349,0.132944504328,0.436420239431,90,1.0,-0.233635786423,-0.574971871003,nan,nan,nan,nan,nan,nan,nan,nan,260.343946575,521.615382225,nan,521.883329703,nan,nan,nan,nan
1,233,1,1,1.0,1.0,0.478132141521,0,0.0,0.0,0.0,0.36464945166,0.132809005537,0.231840446123,0.497458457196,0.132809005537,0.409277025998,371,-0.14179360683,0.478331938097,-0.0779732583494,nan,nan,nan,nan,nan,nan,nan,nan,260.343946575,522.557167816,nan,523.035299957,nan,nan,nan,nan
1,234,1,1,1.0,1.0,0.416342890589,0,0.0,0.0,0.0,0.365140718715,0.132730497372,0.232410221343,0.497871216088,0.132730497372,0.387474170032,178,1.0,-0.139919655122,0.315097826042,nan,nan,nan,nan,nan,nan,nan,nan,260.343946575,523.498944568,nan,523.915287458,nan,nan,nan,nan
1,235,1,1,1.0,1.0,0.266536814161,0,0.0,0.0,0.0,0.365361417732,0.13248660117,0.232874816562,0.497848018902,0.13248660117,0.387003948757,253,0.513865899396,0.244839928328,0.655977188727,nan,nan,nan,nan,nan,nan,nan,nan,260.343946575,524.44074869,nan,524.707285504,nan,nan,nan,nan
1,236,1,1,1.0,1.0,0.244729681872,0,0.0,0.0,0.0,0.364937277803,0.132359743053,0.232577534749,0.497297020856,0.132359743053,0.309203128874,326,-0.12383419111,0.444071765824,0.352223541474,nan,nan,nan,nan,nan,nan,nan,nan,260.343946575,525.382532284,nan,525.627261966,nan,nan,nan,nan
1,237,1,1,1.0,1.0,0.262924054638,0,0.0,0.0,0.0,0.364423570128,0.132309188247,0.23211438188,0.496732758375,0.132309188247,0.25806351689,404,0.0124894593597,0.468746268022,-0.463349101315,nan,nan,nan,nan,nan,nan,nan,nan,260.343946575,526.324322436,nan,526.587246491,nan,nan,nan,nan
1,238,1,1,1.0,1.0,0.20113850967,0,0.0,0.0,0.0,0.363991657296,0.13219259154,0.231799065755,0.496184248836,0.13219259154,0.23626408206,202,1.0,-0.00802826454356,0.487596984314,nan,nan,nan,nan,nan,nan,nan,nan,260.343946575,527.266100329,nan,527.467238839,nan,nan,nan,nan
1,239,1,1,1.0,1.0,0.21932461462,0,1.0,0.0,0.0,0.363301601585,0.132335697069,0.230965904517,0.495637298654,0.132335697069,0.227795726309,317,-0.077772836126,0.429938605076,0.420733606481,nan,nan,nan,nan,nan,nan,nan,nan,260.343946575,528.2079016,nan,528.427226215,nan,nan,nan,nan
1,240,1,1,1.0,1.0,0.2375101496,1,0.0,0.0,1.0,0.36269410375,0.132385573115,0.230308530635,0.495079676866,0.132385573115,0.21932442463,209,0.967301840512,0.0304835193525,0.52804999659,-29.9910863233,119.991086323,-26.9620386767,171.0,1.0,-0.176011872558,0.256450910142,1.99221768463,260.343946575,529.149690612,529.958099173,529.387200761,532.983453493,533.988184121,530.974866916,532.975115522
1,241,1,1,1.0,1.0,0.253410910489,0,0.0,0.0,0.0,0.36216812075,0.132355088831,0.229813031918,0.494523209581,0.132355088831,0.236748558236,295,0.0860222946478,0.38372732295,0.554986075565,nan,nan,nan,nan,nan,nan,nan,nan,260.343946575,534.133700615,nan,534.387111526,nan,nan,nan,nan
1,242,1,1,1.0,1.0,0.0556938597001,0,0.0,0.0,0.0,0.361713069661,0.13226434149,0.229448728171,0.493977411151,0.13226434149,0.182204973263,42,1.0,0.00954878589686,-1.0,nan,nan,nan,nan,nan,nan,nan,nan,260.343946575,535.075452279,nan,535.131146139,nan,nan,nan,nan
1,243,1,1,1.0,1.0,0.201839850284,0,1.0,0.0,0.0,0.360437989619,0.133452381473,0.226985608146,0.493890371092,0.133452381473,0.170314873491,237,0.686387300223,0.174031846447,0.636349816437,nan,nan,nan,nan,nan,nan,nan,nan,260.343946575,536.017245567,nan,536.219085418,nan,nan,nan,nan
1,244,1,1,1.0,1.0,0.236025359947,1,0.0,0.0,1.0,0.359779906053,0.133564880779,0.226215025275,0.493344786832,0.133564880779,0.164519689977,467,0.473005185182,0.365775667588,-1.0,151.830098968,298.169901032,-30.1894739679,424.0,0.142174562463,0.448819569244,-0.770229420881,2.56729477504,260.343946575,536.959038285,537.767444851,537.195063645,541.376228772,542.380837093,538.792565675,541.367897928
1,245,1,1,1.0,1.0,0.284547583899,0,0.0,0.0,0.0,0.359268523631,0.133524846014,0.225743677617,0.492793369646,0.133524846014,0.24080426471,307,-0.0113868739462,0.411053355611,0.487957006857,nan,nan,nan,nan,nan,nan,nan,nan,260.343946575,542.526416594,nan,542.810964178,nan,nan,nan,nan
1,246,1,1,1.0,1.0,0.310738380533,0,0.0,0.0,0.0,0.358961030052,0.13333565264,0.225625377412,0.492296682692,0.13333565264,0.277103774793,357,-0.1717918326,0.473767524415,0.068739031695,nan,nan,nan,nan,nan,nan,nan,nan,260.343946575,543.468205891,nan,543.778944271,nan,nan,nan,nan
1,247,1,1,1.0,1.0,0.240935029695,0,0.0,0.0,0.0,0.358763396243,0.133097803708,0.225665592535,0.491861199951,0.133097803708,0.278740331375,480,0.580928072941,0.32870764083,-1.0,nan,nan,nan,nan,nan,nan,nan,nan,260.343946575,544.409995758,nan,544.650930787,nan,nan,nan,nan
1,248,1,1,1.0,1.0,0.267112141475,0,0.0,0.0,0.0,0.358282464134,0.133038172248,0.225244291886,0.491320636382,0.133038172248,0.272928517234,444,0.289241202529,0.417409780569,-1.0,nan,nan,nan,nan,nan,nan,nan,nan,260.343946575,545.35178591,nan,545.618898051,nan,nan,nan,nan
1,249,1,1,1.0,1.0,0.309280105168,0,0.0,0.0,0.0,0.357911853067,0.132894164159,0.225017688908,0.490806017226,0.132894164159,0.272442425446,65,1.0,-0.113312155659,-1.0,nan,nan,nan,nan,nan,nan,nan,nan,260.343946575,546.293599725,nan,546.60287983,nan,nan,nan,nan
1,250,1,1,1.0,1.0,0.487508438993,0,0.0,0.0,0.0,0.357714963399,0.132660822166,0.225054141233,0.490375785565,0.132660822166,0.354633561879,319,-0.0891891826932,0.433308674125,0.406137099325,nan,nan,nan,nan,nan,nan,nan,nan,260.343946575,547.235363363,nan,547.722871802,nan,nan,nan,nan
1,251,1,1,1.0,1.0,0.529710614355,0,0.0,0.0,0.0,0.358238324188,0.132648352292,0.225589971896,0.49088667648,0.132648352292,0.442166386172,118,1.0,-0.308588151016,-0.261285249573,nan,nan,nan,nan,nan,nan,nan,nan,260.343946575,548.177142966,nan,548.706853581,nan,nan,nan,nan
1,252,1,1,1.0,1.0,0.531905582407,0,0.0,1.0,0.0,0.358926967923,0.132825183804,0.22610178412,0.491752151727,0.132825183804,0.516374878585,240,0.654373017221,0.188015059697,0.642463954019,nan,nan,nan,nan,nan,nan,nan,nan,260.343946575,549.118940531,nan,549.650846113,nan,nan,nan,nan
1,253,1,1,1.0,1.0,0.470093808603,1,0.0,0.0,1.0,0.359618882381,0.133008146342,0.226610736039,0.492627028724,0.133008146342,0.510570001788,142,1.0,-0.289568116499,-0.0146273521697,-23.1237918884,113.123791888,13.2800418884,161.0,1.0,-0.223158351501,0.167490545043,2.18394426,260.343946575,550.06073724,550.86914124,550.530831049,554.077872189,555.079023985,551.877571012,554.069547618
1,254,1,1,1.0,1.0,0.631000168854,0,0.0,0.0,0.0,0.36005902153,0.132925222865,0.227133798664,0.492984244395,0.132925222865,0.544333186621,245,0.600577697281,0.210610106048,0.650172825369,nan,nan,nan,nan,nan,nan,nan,nan,260.343946575,555.21973316,nan,555.850733329,nan,nan,nan,nan
1,255,1,1,1.0,1.0,0.553201249568,0,0.0,0.0,0.0,0.361134184813,0.13375032462,0.227383860193,0.494884509433,0.13375032462,0.551431742342,19,0.99625917486,0.126374530333,-1.0,nan,nan,nan,nan,nan,nan,nan,nan,260.343946575,556.161514189,nan,556.714715438,nan,nan,nan,nan
1,256,1,1,1.0,1.0,0.787385732867,0,0.0,1.0,0.0,0.361893343171,0.134028632135,0.227864711036,0.495921975307,0.134028632135,0.657195717096,163,1.0,-0.214247802105,0.185723682048,nan,nan,nan,nan,nan,nan,nan,nan,260.343946575,557.103310613,nan,557.890696346,nan,nan,nan,nan
1,257,0,0,0.0,1.0,0.717568126973,1,0.0,0.0,1.0,0.36356851006,0.136392505966,0.227176004094,0.499961016026,0.136392505966,0.686051703136,295,0.0860222946478,0.38372732295,0.554986075565,-122.064542484,212.064542484,4.64266748444,302.0,0.027086081288,0.400300843718,0.517770016443,1.59218581091,260.343946575,558.04510219,558.853504479,558.762670317,561.478832627,562.488891448,559.870267946,561.470494656
1,258,1,1,1.0,1.0,0.557532455539,0,0.0,0.0,0.0,0.364956743852,0.137911094951,0.227045648901,0.502867838803,0.137911094951,0.68749543846,413,0.0683106243366,0.461143133648,-0.585495598612,nan,nan,nan,nan,nan,nan,nan,nan,260.343946575,562.629023871,nan,563.186556326,nan,nan,nan,nan
1,259,1,1,1.0,1.0,0.479764896911,0,0.0,0.0,0.0,0.365708992726,0.138164663678,0.227544329047,0.503873656404,0.138164663678,0.584955159808,331,-0.143297839787,0.450801753776,0.311166711333,nan,nan,nan,nan,nan,nan,nan,nan,260.343946575,563.570804615,nan,564.050569511,nan,nan,nan,nan
1,260,1,1,1.0,1.0,0.337968928739,0,0.0,0.0,0.0,0.366152790018,0.138078299977,0.228074490041,0.504231089995,0.138078299977,0.45842209373,483,0.606025706087,0.319314454546,-1.0,nan,nan,nan,nan,nan,nan,nan,nan,260.343946575,564.512599043,nan,564.850567972,nan,nan,nan,nan
1,261,1,1,1.0,1.0,0.340152778197,0,0.0,0.0,0.0,0.366043550246,0.137821573238,0.228221977007,0.503865123484,0.137821573238,0.385962201282,434,0.213881816697,0.43461034373,-1.0,nan,nan,nan,nan,nan,nan,nan,nan,260.343946575,565.454391761,nan,565.794544539,nan,nan,nan,nan
1,262,1,1,1.0,1.0,0.278366092825,0,0.0,0.0,0.0,0.365943585875,0.137564622158,0.228378963717,0.503508208033,0.137564622158,0.318829266587,244,0.611372359265,0.206163547436,0.648880721676,nan,nan,nan,nan,nan,nan,nan,nan,260.343946575,566.39617279,nan,566.674538883,nan,nan,nan,nan
1,263,1,1,1.0,1.0,0.264584749239,0,0.0,0.0,0.0,0.365606749363,0.137406791664,0.228199957699,0.503013541027,0.137406791664,0.29436787342,304,0.0113092810281,0.404708921832,0.506160370659,nan,nan,nan,nan,nan,nan,nan,nan,260.343946575,567.337948402,nan,567.602533151,nan,nan,nan,nan
1,264,1,1,1.0,1.0,0.250751517713,0,0.0,0.0,0.0,0.365219691891,0.137285244426,0.227934447466,0.502504936317,0.137285244426,0.264567453259,377,-0.121259861678,0.478700828387,-0.143695900877,nan,nan,nan,nan,nan,nan,nan,nan,260.343946575,568.279753379,nan,568.530504897,nan,nan,nan,nan
1,265,1,1,1.0,1.0,0.492964925943,0,0.0,0.0,0.0,0.364782790463,0.137204674624,0.227578115839,0.501987465088,0.137204674624,0.336100397632,475,0.539218753276,0.343659807328,-1.0,nan,nan,nan,nan,nan,nan,nan,nan,260.343946575,569.22153897,nan,569.714503895,nan,nan,nan,nan
1,266,1,1,1.0,1.0,0.431142318528,0,0.0,0.0,0.0,0.365270175009,0.137170626497,0.228099548512,0.502440801505,0.137170626497,0.391619587395,155,1.0,-0.2479831371,0.111611878621,nan,nan,nan,nan,nan,nan,nan,nan,260.343946575,570.163323705,nan,570.594466023,nan,nan,nan,nan
1,267,1,1,1.0,1.0,0.345334145939,0,0.0,0.0,0.0,0.365519690704,0.136970371804,0.2285493189,0.502490062508,0.136970371804,0.423147130137,349,-0.175656888649,0.468768509344,0.147945183432,nan,nan,nan,nan,nan,nan,nan,nan,260.343946575,571.105119844,nan,571.45045399,nan,nan,nan,nan
1,268,0,0,1.0,0.0,0.331592716044,0,0.0,0.0,0.0,0.365443518837,0.136717294944,0.228726223893,0.502160813781,0.136717294944,0.369356393504,468,0.481236483515,0.363131620867,-1.0,nan,nan,nan,nan,nan,nan,nan,nan,260.343946575,572.046876354,nan,572.37846907,nan,nan,nan,nan
1,269,1,1,1.0,1.0,0.453700968996,0,0.0,0.0,0.0,0.36531626018,0.136475789451,0.229320364121,0.501974213983,0.136475789451,0.376875943659,307,-0.0113868739462,0.411053355611,0.487957006857,nan,nan,nan,nan,nan,nan,nan,nan,260.343946575,572.988698437,nan,573.442399406,nan,nan,nan,nan
1,270,1,1,nan,nan,nan,0,0.0,0.0,0.0,0.365647289052,0.136326924931,0.229320364121,0.501974213983,0.136326924931,0.39264684252,58,1.0,-0.0760896648475,-1.0,nan,nan,nan,nan,nan,nan,nan,nan,260.343946575,573.930485738,nan,nan,nan,nan,nan,nan
1,271,1,1,nan,nan,nan,0,0.0,0.0,0.0,0.365647289052,0.136326924931,0.229320364121,0.501974213983,0.136326924931,0.453700968996,361,-0.166047812515,0.475607712818,0.0278173107143,nan,nan,nan,nan,nan,nan,nan,nan,260.343946575,574.872270474,nan,nan,nan,nan,nan,nan
1,272,1,1,1.0,1.0,0.732306829188,0,0.0,0.0,0.0,0.365647289052,0.136326924931,0.229320364121,0.501974213983,0.136326924931,0.732306829188,111,1.0,-0.298677811705,-0.336106236365,nan,nan,nan,nan,nan,nan,nan,nan,260.343946575,575.814051217,nan,576.546358046,nan,nan,nan,nan
1,273,1,1,1.0,1.0,0.630502388114,0,0.0,0.0,0.0,0.367015421664,0.137896520697,0.229118900967,0.504911942361,0.137896520697,0.681404608651,315,-0.0657111424032,0.426434809442,0.434956515233,nan,nan,nan,nan,nan,nan,nan,nan,260.343946575,576.755846216,nan,577.386348604,nan,nan,nan,nan
1,274,1,1,1.0,1.0,0.528727026889,0,0.0,1.0,0.0,0.367994927116,0.138570878985,0.229424048131,0.5065658061,0.138570878985,0.630512081397,191,1.0,-0.0691479807067,0.414571651978,nan,nan,nan,nan,nan,nan,nan,nan,260.343946575,577.697598735,nan,578.226325762,nan,nan,nan,nan
1,275,1,1,1.0,1.0,0.442883787211,1,0.0,0.0,1.0,0.368590231189,0.138658214628,0.229932016561,0.507248445817,0.138658214628,0.534037734071,401,-0.00506340639596,0.470796889516,-0.425203102762,165.157772942,284.842227058,2.88910205791,405.0,0.018463324075,0.468009379796,-0.476293327428,2.79231279343,260.343946575,578.639429086,579.447841068,579.082312873,583.264960508,584.266121427,580.45626742,583.256626814
1,276,1,1,1.0,1.0,0.315418546554,0,0.0,0.0,0.0,0.368864377152,0.138475440371,0.230388936781,0.507339817523,0.138475440371,0.429009786885,507,0.805995650865,0.232688349973,-1.0,nan,nan,nan,nan,nan,nan,nan,nan,260.343946575,584.406804658,nan,584.722223204,nan,nan,nan,nan
1,277,1,1,1.0,1.0,0.317555069458,0,0.0,0.0,0.0,0.368667885128,0.138258499512,0.230409385616,0.50692638464,0.138258499512,0.358619134407,79,1.0,-0.184296021705,-0.724170777997,nan,nan,nan,nan,nan,nan,nan,nan,260.343946575,585.348645557,nan,585.666200627,nan,nan,nan,nan
1,278,0,0,1.0,0.0,0.231768849539,0,0.0,0.0,0.0,0.368480658697,0.13803958663,0.230441072067,0.506520245327,0.13803958663,0.288247488517,501,0.7564492333,0.256253544744,-1.0,nan,nan,nan,nan,nan,nan,nan,nan,260.343946575,586.290415182,nan,586.522184032,nan,nan,nan,nan
1,279,1,1,1.0,1.0,0.249961511698,0,0.0,0.0,0.0,0.367981710488,0.138033862182,0.229947848306,0.50601557267,0.138033862182,0.266428476898,415,0.0813077335083,0.459153678902,-0.614968023274,nan,nan,nan,nan,nan,nan,nan,nan,260.343946575,587.232207045,nan,587.482168557,nan,nan,nan,nan
1,280,1,1,1.0,1.0,0.268155029276,0,0.0,0.0,0.0,0.367552546129,0.137965677222,0.229586868907,0.505518223351,0.137965677222,0.249961796838,0,0.846831709088,0.212097570855,-1.0,nan,nan,nan,nan,nan,nan,nan,nan,260.343946575,588.173993206,nan,588.442148235,nan,nan,nan,nan
1,281,1,1,1.0,1.0,0.278352978406,0,0.0,0.0,0.0,0.367192410198,0.137844946694,0.229347463504,0.505037356893,0.137844946694,0.265489839793,272,0.310166696092,0.316214117232,0.637281430288,nan,nan,nan,nan,nan,nan,nan,nan,260.343946575,589.115785353,nan,589.394138332,nan,nan,nan,nan
1,282,1,1,1.0,1.0,0.312535352074,0,0.0,0.0,0.0,0.366871690228,0.137699028871,0.229172661357,0.504570719099,0.137699028871,0.286347786585,192,1.0,-0.0635997558896,0.421658406928,nan,nan,nan,nan,nan,nan,nan,nan,260.343946575,590.057577216,nan,590.370112568,nan,nan,nan,nan
1,283,0,0,0.0,1.0,0.354732966051,0,0.0,0.0,0.0,0.366676235774,0.137489634198,0.229186601577,0.504165869972,0.137489634198,0.315207098844,73,1.0,-0.1546788618,-0.830916872461,nan,nan,nan,nan,nan,nan,nan,nan,260.343946575,590.999362236,nan,591.354095202,nan,nan,nan,nan
1,284,1,1,1.0,1.0,0.284941019025,0,0.0,0.0,0.0,0.366633428356,0.137244871743,0.229388556613,0.503878300099,0.137244871743,0.317403112383,176,1.0,-0.150429669724,0.298675466069,nan,nan,nan,nan,nan,nan,nan,nan,260.343946575,591.941150107,nan,592.226091126,nan,nan,nan,nan
1,285,1,1,1.0,1.0,0.319121967303,0,0.0,0.0,0.0,0.366341669751,0.137086221695,0.229255448056,0.503427891446,0.137086221695,0.319598650793,469,0.489482198204,0.360453357602,-1.0,nan,nan,nan,nan,nan,nan,nan,nan,260.343946575,592.882947672,nan,593.202069639,nan,nan,nan,nan
1,286,1,1,1.0,1.0,0.281331680482,0,0.0,0.0,0.0,0.366173628105,0.136870965228,0.229302662877,0.503044593333,0.136870965228,0.295131555603,220,0.861731547614,0.0893272636146,0.581247684387,nan,nan,nan,nan,nan,nan,nan,nan,260.343946575,593.824724424,nan,594.106056105,nan,nan,nan,nan
1,287,1,1,1.0,1.0,0.243533411063,0,0.0,0.0,0.0,0.365872770135,0.136721119659,0.229151650477,0.502593889794,0.136721119659,0.281329019616,20,1.0,0.121558187834,-1.0,nan,nan,nan,nan,nan,nan,nan,nan,260.343946575,594.766514577,nan,595.010047988,nan,nan,nan,nan
1,288,0,0,1.0,0.0,0.213743824745,0,0.0,0.0,0.0,0.36544047558,0.136672281398,0.228768194182,0.502112756978,0.136672281398,0.246202972097,407,0.0305886347219,0.46645515455,-0.502577406972,nan,nan,nan,nan,nan,nan,nan,nan,260.343946575,595.708287338,nan,595.922031162,nan,nan,nan,nan
1,289,1,1,1.0,1.0,0.343899248634,0,0.0,0.0,0.0,0.364906332443,0.136727037164,0.22817929528,0.501633369607,0.136727037164,0.267058828147,328,-0.132159558243,0.44685796506,0.336046158271,nan,nan,nan,nan,nan,nan,nan,nan,260.343946575,596.650092885,nan,596.993992134,nan,nan,nan,nan
1,290,1,1,1.0,1.0,0.338108911877,0,0.0,0.0,0.0,0.364832623377,0.136492606747,0.22834001663,0.501325230125,0.136492606747,0.298583995085,25,1.0,0.0970682892709,-1.0,nan,nan,nan,nan,nan,nan,nan,nan,260.343946575,597.591879331,nan,597.929988242,nan,nan,nan,nan
1,291,0,0,1.0,0.0,0.204304520972,0,0.0,0.0,0.0,0.364739183827,0.13626290525,0.228476278577,0.501002089076,0.13626290525,0.295437560494,68,1.0,-0.129018143495,-0.972903198114,nan,nan,nan,nan,nan,nan,nan,nan,260.343946575,598.533667487,nan,598.737972008,nan,nan,nan,nan
1,292,1,1,1.0,1.0,0.246490160702,0,0.0,0.0,0.0,0.364180178033,0.136353420812,0.22782675722,0.500533598845,0.136353420812,0.262967864517,429,0.177531820842,0.442080780324,-0.901885199234,nan,nan,nan,nan,nan,nan,nan,nan,260.343946575,599.475457069,nan,599.721947229,nan,nan,nan,nan
1,293,1,1,1.0,1.0,0.224700134015,0,0.0,0.0,0.0,0.363771532139,0.136292426333,0.227479105806,0.500063958472,0.136292426333,0.225164938563,496,0.714833717156,0.274923884212,-1.0,nan,nan,nan,nan,nan,nan,nan,nan,260.343946575,600.417229545,nan,600.641929679,nan,nan,nan,nan
1,294,1,1,1.0,1.0,0.298911952646,0,0.0,0.0,0.0,0.363290316229,0.136301290368,0.226989025861,0.499591606596,0.136301290368,0.256700749121,250,0.546428449327,0.232286661223,0.654747725831,nan,nan,nan,nan,nan,nan,nan,nan,260.343946575,601.359002591,nan,601.657914544,nan,nan,nan,nan
1,295,0,0,0.0,1.0,0.477064735489,0,0.0,0.0,0.0,0.363068321872,0.1361184113,0.226949910571,0.499186733172,0.1361184113,0.333558940717,438,0.243622561222,0.428096439079,-1.0,nan,nan,nan,nan,nan,nan,nan,nan,260.343946575,602.300830661,nan,602.777895397,nan,nan,nan,nan
1,296,1,1,1.0,1.0,0.247182663297,0,0.0,0.0,0.0,0.363460062124,0.136047986213,0.227412075911,0.499508048338,0.136047986213,0.341053117144,292,0.112881669716,0.376069582356,0.569261850688,nan,nan,nan,nan,nan,nan,nan,nan,260.343946575,603.242697219,nan,603.489879883,nan,nan,nan,nan
1,297,1,1,1.0,1.0,0.305477470392,0,0.0,0.0,0.0,0.363061851855,0.135984600829,0.227077251026,0.499046452683,0.135984600829,0.34324162306,342,-0.170052622031,0.462913557708,0.21407524247,nan,nan,nan,nan,nan,nan,nan,nan,260.343946575,604.184400416,nan,604.489877887,nan,nan,nan,nan
1,298,1,1,1.0,1.0,0.379661064129,0,0.0,0.0,0.0,0.362865318129,0.135793881765,0.227071436364,0.498659199895,0.135793881765,0.310773732606,119,1.0,-0.309446327048,-0.250710895617,nan,nan,nan,nan,nan,nan,nan,nan,260.343946575,605.12619399,nan,605.505855054,nan,nan,nan,nan
1,299,1,1,1.0,1.0,0.301862715045,0,0.0,0.0,0.0,0.362922446517,0.135566269995,0.227356176522,0.498488716512,0.135566269995,0.329000416522,363,-0.162287729338,0.476365729747,0.00704812682028,nan,nan,nan,nan,nan,nan,nan,nan,260.343946575,606.067975589,nan,606.369838304,nan,nan,nan,nan
1,300,1,1,1.0,1.0,0.328052656492,0,0.0,0.0,0.0,0.362715464377,0.135382827433,0.227332636944,0.498098291809,0.135382827433,0.336525478556,417,0.0945046041228,0.457053563907,-0.645720198395,nan,nan,nan,nan,nan,nan,nan,nan,260.343946575,607.009768592,nan,607.337821248,nan,nan,nan,nan
1,301,1,1,1.0,1.0,0.33021369786,0,0.0,0.0,0.0,0.362598360296,0.135168911976,0.22742944832,0.497767272272,0.135168911976,0.320043023132,173,1.0,-0.165909522591,0.273535192888,nan,nan,nan,nan,nan,nan,nan,nan,260.343946575,607.951570433,nan,608.281784131,nan,nan,nan,nan
1,302,1,1,1.0,1.0,0.540429437067,0,0.0,0.0,0.0,0.362489321028,0.134954202552,0.227535118477,0.49744352358,0.134954202552,0.399565263807,271,0.320642857732,0.312811632898,0.639400143054,nan,nan,nan,nan,nan,nan,nan,nan,260.343946575,608.893340058,nan,609.433769495,nan,nan,nan,nan
1,303,1,1,1.0,1.0,0.52662186441,0,0.0,0.0,0.0,0.363086435512,0.135120000852,0.22796643466,0.498206436364,0.135120000852,0.465754999779,217,0.891250405156,0.0735373331823,0.568048345461,nan,nan,nan,nan,nan,nan,nan,nan,260.343946575,609.835139333,nan,610.361761197,nan,nan,nan,nan
1,304,1,1,1.0,1.0,0.376819494413,0,0.0,0.0,0.0,0.363633376746,0.135223881646,0.2284094951,0.498857258392,0.135223881646,0.481290265297,349,-0.175656888649,0.468768509344,0.147945183432,nan,nan,nan,nan,nan,nan,nan,nan,260.343946575,610.776921787,nan,611.153741282,nan,nan,nan,nan
1,305,1,1,1.0,1.0,0.259022775805,0,0.0,0.0,0.0,0.363677330471,0.135000459829,0.228676870643,0.4986777903,0.135000459829,0.387488044876,454,0.367627362238,0.397084843583,-1.0,nan,nan,nan,nan,nan,nan,nan,nan,260.343946575,611.718711654,nan,611.97773443,nan,nan,nan,nan
1,306,1,1,1.0,1.0,0.261227152077,0,0.0,0.0,0.0,0.363329640921,0.134910496166,0.228419144755,0.498240137087,0.134910496166,0.299023140765,91,1.0,-0.237709898716,-0.562722318432,nan,nan,nan,nan,nan,nan,nan,nan,260.343946575,612.660497815,nan,612.921724967,nan,nan,nan,nan
1,307,0,0,1.0,0.0,0.231407060288,0,0.0,0.0,0.0,0.362991553209,0.134814611895,0.228176941314,0.497806165105,0.134814611895,0.25055232939,261,0.427225806086,0.276617811781,0.653674462902,nan,nan,nan,nan,nan,nan,nan,nan,260.343946575,613.602293099,nan,613.833700159,nan,nan,nan,nan
1,308,1,1,1.0,1.0,0.209603063995,0,0.0,0.0,0.0,0.362557280955,0.134803379229,0.227753901727,0.497360660184,0.134803379229,0.23407909212,175,1.0,-0.155629953633,0.290361762956,nan,nan,nan,nan,nan,nan,nan,nan,260.343946575,614.544073843,nan,614.753676907,nan,nan,nan,nan
1,309,1,1,1.0,1.0,0.307793319924,0,0.0,0.0,0.0,0.362054142084,0.134866152018,0.227187990066,0.496920294102,0.134866152018,0.249601148069,96,1.0,-0.25681952169,-0.503302481145,nan,nan,nan,nan,nan,nan,nan,nan,260.343946575,615.48587939,nan,615.79367271,nan,nan,nan,nan
1,310,1,1,1.0,1.0,0.270005314145,0,0.0,0.0,0.0,0.361876237749,0.134680603195,0.227195634554,0.496556840944,0.134680603195,0.262467232688,442,0.273907262724,0.421095538958,-1.0,nan,nan,nan,nan,nan,nan,nan,nan,260.343946575,616.427653006,nan,616.69765832,nan,nan,nan,nan
1,311,1,1,1.0,1.0,0.288205674151,0,0.0,0.0,0.0,0.361576005972,0.134562550408,0.227013455565,0.49613855638,0.134562550408,0.28866810274,174,1.0,-0.160790688716,0.281981279739,nan,nan,nan,nan,nan,nan,nan,nan,260.343946575,617.369436031,nan,617.657641705,nan,nan,nan,nan
1,312,1,1,1.0,1.0,0.298393359641,0,0.0,0.0,0.0,0.361337014664,0.134408247554,0.22692876711,0.495745262217,0.134408247554,0.285534782646,13,0.950262168777,0.154664060346,-1.0,nan,nan,nan,nan,nan,nan,nan,nan,260.343946575,618.311229889,nan,618.609623249,nan,nan,nan,nan
1,313,1,1,1.0,1.0,0.50857260637,0,0.0,0.0,0.0,0.361132652147,0.134237640397,0.22689501175,0.495370292544,0.134237640397,0.365057213387,229,0.770397026975,0.135265939772,0.614681466938,nan,nan,nan,nan,nan,nan,nan,nan,260.343946575,619.253022892,nan,619.761595499,nan,nan,nan,nan
1,314,1,1,1.0,1.0,0.718775801361,0,0.0,1.0,0.0,0.361609804103,0.134281612158,0.227328191944,0.495891416261,0.134281612158,0.508580589124,1,0.854939129564,0.207877072944,-1.0,nan,nan,nan,nan,nan,nan,nan,nan,260.343946575,620.194808483,nan,620.913584284,nan,nan,nan,nan
1,315,1,1,1.0,1.0,0.696949567413,1,0.0,0.0,1.0,0.362761952481,0.135586009041,0.22717594344,0.498347961522,0.135586009041,0.641432658381,417,0.0945046041228,0.457053563907,-0.645720198395,165.033280436,284.966719564,-8.236405436,405.0,0.018463324075,0.468009379796,-0.476293327428,2.18391632033,260.343946575,621.136601201,621.945012328,621.833550768,625.170412947,626.167019998,622.970098655,625.162082674
1,316,1,1,1.0,1.0,0.561214208836,0,0.0,0.0,0.0,0.363836510728,0.136683591136,0.227152919592,0.500520101865,0.136683591136,0.658979859203,507,0.805995650865,0.232688349973,-1.0,nan,nan,nan,nan,nan,nan,nan,nan,260.343946575,626.312245693,nan,626.873459902,nan,nan,nan,nan
1,317,1,1,1.0,1.0,0.667372378753,0,0.0,0.0,0.0,0.364469131556,0.136919646579,0.227549484977,0.501388778134,0.136919646579,0.641845385001,338,-0.162891363375,0.458928707883,0.250399161362,nan,nan,nan,nan,nan,nan,nan,nan,260.343946575,627.254071197,nan,627.921443576,nan,nan,nan,nan
1,318,1,1,1.0,1.0,0.781581426272,0,0.0,1.0,0.0,0.365436873559,0.137765346711,0.227671526848,0.503202220271,0.137765346711,0.67005600462,458,0.399688045963,0.388050214986,-1.0,nan,nan,nan,nan,nan,nan,nan,nan,260.343946575,628.195840252,nan,628.977421678,nan,nan,nan,nan
1,319,1,1,1.0,1.0,0.775774553884,1,0.0,0.0,1.0,0.366762174683,0.139529952245,0.227232222438,0.506292126928,0.139529952245,0.741576119636,106,1.0,-0.287630069369,-0.390564445695,10.584708175,79.415291825,4.88404182504,113.0,1.0,-0.302191989669,-0.314576349441,1.79215655988,260.343946575,629.137644088,629.946038109,629.913418642,632.779705768,633.779699496,630.971138122,632.77137749
1,320,1,1,1.0,1.0,0.511766272131,0,0.0,0.0,0.0,0.36806062668,0.14119560699,0.22686501969,0.50925623367,0.14119560699,0.689707417429,453,0.359670421306,0.39926174925,-1.0,nan,nan,nan,nan,nan,nan,nan,nan,260.343946575,633.921578997,nan,634.433345269,nan,nan,nan,nan
1,321,1,1,1.0,1.0,0.433958800044,0,0.0,0.0,0.0,0.368515391381,0.141202888209,0.227312503172,0.50971827959,0.141202888209,0.573833208686,132,1.0,-0.307426825298,-0.115555361894,nan,nan,nan,nan,nan,nan,nan,nan,260.343946575,634.86337143,nan,635.29733023,nan,nan,nan,nan
1,322,1,1,1.0,1.0,0.308149121935,0,0.0,0.0,0.0,0.368721837465,0.141027752051,0.227694085414,0.509749589516,0.141027752051,0.417958064703,403,0.00657627305109,0.469456436931,-0.450524507496,nan,nan,nan,nan,nan,nan,nan,nan,260.343946575,635.805157876,nan,636.113306998,nan,nan,nan,nan
1,323,1,1,1.0,1.0,0.342356014065,0,0.0,0.0,0.0,0.368531357228,0.140846671918,0.22768468531,0.509378029145,0.140846671918,0.361487978681,466,0.464789014893,0.368385601135,-1.0,nan,nan,nan,nan,nan,nan,nan,nan,260.343946575,636.746946602,nan,637.089302616,nan,nan,nan,nan
1,324,1,1,1.0,1.0,0.296539083589,0,0.0,0.0,0.0,0.36844930286,0.140633348267,0.227815954593,0.509082651127,0.140633348267,0.31568140653,147,1.0,-0.275801134503,0.0346720467303,nan,nan,nan,nan,nan,nan,nan,nan,260.343946575,637.688736754,nan,637.985275838,nan,nan,nan,nan
1,325,1,1,1.0,1.0,0.266724123387,0,0.0,0.0,0.0,0.368224583425,0.140470788197,0.227753795228,0.508695371622,0.140470788197,0.30187307368,344,-0.172543464245,0.464730234515,0.195503824632,nan,nan,nan,nan,nan,nan,nan,nan,260.343946575,638.630528332,nan,638.897252455,nan,nan,nan,nan
1,326,0,0,1.0,0.0,0.292919196421,0,0.0,0.0,0.0,0.367908382615,0.140365830402,0.227542552213,0.508274213017,0.140365830402,0.285394134466,46,1.0,-0.0117313672748,-1.0,nan,nan,nan,nan,nan,nan,nan,nan,260.343946575,639.572314493,nan,639.865233689,nan,nan,nan,nan
1,327,1,1,1.0,1.0,0.223130385624,0,0.0,0.0,0.0,0.367675496944,0.140209799663,0.227465697281,0.507885296606,0.140209799663,0.260924568477,183,1.0,-0.113108999915,0.354902835149,nan,nan,nan,nan,nan,nan,nan,nan,260.343946575,640.514101794,nan,640.737232179,nan,nan,nan,nan
1,328,1,1,1.0,1.0,0.209321387345,0,0.0,0.0,0.0,0.367227988859,0.140222714435,0.227005274424,0.507450703294,0.140222714435,0.24179032313,271,0.320642857732,0.312811632898,0.639400143054,nan,nan,nan,nan,nan,nan,nan,nan,260.343946575,641.455891661,nan,641.665213048,nan,nan,nan,nan
1,329,1,1,1.0,1.0,0.283509827917,0,0.0,0.0,0.0,0.366740622805,0.140279877336,0.226460745469,0.507020500141,0.140279877336,0.238653866962,503,0.773020196022,0.248538461814,-1.0,nan,nan,nan,nan,nan,nan,nan,nan,260.343946575,642.397677821,nan,642.681187649,nan,nan,nan,nan
1,330,1,1,1.0,1.0,0.33366081561,0,0.0,0.0,0.0,0.366484528051,0.140139731384,0.226344796667,0.506624259436,0.140139731384,0.275497343624,306,-0.00395437407881,0.408974006242,0.494128827808,nan,nan,nan,nan,nan,nan,nan,nan,260.343946575,643.339504181,nan,643.673164996,nan,nan,nan,nan
1,331,1,1,1.0,1.0,0.311912698438,0,0.0,0.0,0.0,0.366383841817,0.1399364009,0.226447440917,0.506320242717,0.1399364009,0.309694447322,185,1.0,-0.102214474652,0.370299946716,nan,nan,nan,nan,nan,nan,nan,nan,260.343946575,644.281254134,nan,644.593166832,nan,nan,nan,nan
1,332,1,1,1.0,1.0,0.362085638801,0,0.0,0.0,0.0,0.366217263397,0.139754634532,0.226462628865,0.505971897928,0.139754634532,0.335886384283,475,0.539218753276,0.343659807328,-1.0,nan,nan,nan,nan,nan,nan,nan,nan,260.343946575,645.223045711,nan,645.58513135,nan,nan,nan,nan
1,333,0,0,0.0,1.0,0.468284007395,0,0.0,0.0,0.0,0.36620466698,0.139541617216,0.226663049764,0.505746284196,0.139541617216,0.380760781545,78,1.0,-0.179467652321,-0.739907630878,nan,nan,nan,nan,nan,nan,nan,nan,260.343946575,646.164831587,nan,646.633115595,nan,nan,nan,nan
1,334,1,1,1.0,1.0,0.254474325106,0,0.0,0.0,0.0,0.366514938532,0.139442654839,0.227072283693,0.50595759337,0.139442654839,0.3616146571,337,-0.160643365934,0.457858386897,0.259303564052,nan,nan,nan,nan,nan,nan,nan,nan,260.343946575,647.106625445,nan,647.361099771,nan,nan,nan,nan
1,335,1,1,1.0,1.0,0.22466791817,0,0.0,0.0,0.0,0.366175421521,0.139367343481,0.22680807804,0.505542765002,0.139367343481,0.315808750223,277,0.258470646878,0.33263615818,0.624824240443,nan,nan,nan,nan,nan,nan,nan,nan,260.343946575,648.048417878,nan,648.273085796,nan,nan,nan,nan
1,336,1,1,1.0,1.0,0.274882767815,0,0.0,0.0,0.0,0.365747906406,0.139373203032,0.226374703373,0.505121109438,0.139373203032,0.251341670364,364,-0.160194321586,0.476704516321,-0.00341124574885,nan,nan,nan,nan,nan,nan,nan,nan,260.343946575,648.990197767,nan,649.265080534,nan,nan,nan,nan
1,337,1,1,1.0,1.0,0.277501391247,0,0.0,0.0,0.0,0.365474216229,0.139252199297,0.226222016932,0.504726415526,0.139252199297,0.259017359077,79,1.0,-0.184296021705,-0.724170777997,nan,nan,nan,nan,nan,nan,nan,nan,260.343946575,649.93199134,nan,650.209492731,nan,nan,nan,nan
1,338,0,0,0.0,1.0,0.535246643936,0,0.0,0.0,0.0,0.365210033571,0.13912625329,0.226083780282,0.504336286861,0.13912625329,0.362543600999,144,1.0,-0.284423189345,0.00519445478499,nan,nan,nan,nan,nan,nan,nan,nan,260.343946575,650.873781777,nan,651.409028421,nan,nan,nan,nan
1,339,1,1,1.0,1.0,0.241442788858,0,0.0,0.0,0.0,0.365719125219,0.139228111242,0.226491013977,0.504947236461,0.139228111242,0.351396941347,463,0.440238315199,0.376011795327,-1.0,nan,nan,nan,nan,nan,nan,nan,nan,260.343946575,651.815572214,nan,652.057015003,nan,nan,nan,nan
1,340,1,1,1.0,1.0,0.227668002481,0,0.0,0.0,0.0,0.365348151081,0.139185374823,0.226162776258,0.504533525904,0.139185374823,0.334785811758,254,0.503011129055,0.248947817922,0.65613358125,nan,nan,nan,nan,nan,nan,nan,nan,260.343946575,652.757340129,nan,652.985008131,nan,nan,nan,nan
1,341,1,1,1.0,1.0,0.285852476722,0,0.0,0.0,0.0,0.364938388734,0.139180315944,0.22575807279,0.504118704678,0.139180315944,0.251654422687,434,0.213881816697,0.43461034373,-1.0,nan,nan,nan,nan,nan,nan,nan,nan,260.343946575,653.699142255,nan,653.984994731,nan,nan,nan,nan
1,342,1,1,1.0,1.0,0.296046149218,0,0.0,0.0,0.0,0.364703712437,0.139040223224,0.225663489213,0.503743935661,0.139040223224,0.269855542807,20,1.0,0.121558187834,-1.0,nan,nan,nan,nan,nan,nan,nan,nan,260.343946575,654.640933547,nan,654.936979696,nan,nan,nan,nan
1,343,1,1,1.0,1.0,0.314227692783,0,0.0,0.0,0.0,0.364500583552,0.138884458949,0.225616124603,0.5033850425,0.138884458949,0.298708772908,360,-0.167709501072,0.475188317955,0.0381258551808,nan,nan,nan,nan,nan,nan,nan,nan,260.343946575,655.582719993,nan,655.896947686,nan,nan,nan,nan
1,344,1,1,1.0,1.0,0.516417073086,0,0.0,0.0,0.0,0.364352285939,0.138706261235,0.225646024704,0.503058547174,0.138706261235,0.375563638362,295,0.0860222946478,0.38372732295,0.554986075565,nan,nan,nan,nan,nan,nan,nan,nan,260.343946575,656.524509575,nan,657.040926648,nan,nan,nan,nan
1,345,1,1,1.0,1.0,0.478619088884,0,0.0,0.0,0.0,0.364799535313,0.138746716015,0.226052819298,0.503546251328,0.138746716015,0.436421284918,121,1.0,-0.310732805591,-0.229640808446,nan,nan,nan,nan,nan,nan,nan,nan,260.343946575,657.466298301,nan,657.94491739,nan,nan,nan,nan
1,346,1,1,1.0,1.0,0.600806028582,0,0.0,1.0,0.0,0.365133316995,0.138679764761,0.226453552234,0.503813081756,0.138679764761,0.531947396851,339,-0.164955840019,0.45996923152,0.241423096872,nan,nan,nan,nan,nan,nan,nan,nan,260.343946575,658.408083892,nan,659.00888992,nan,nan,nan,nan
1,347,1,1,1.0,1.0,0.643007633742,1,0.0,0.0,1.0,0.365822418491,0.139060312698,0.226762105793,0.504882731189,0.139060312698,0.574144250403,254,0.503011129055,0.248947817922,0.65613358125,-83.4492735289,173.449273529,-5.1444764711,247.0,0.578947625354,0.219392674348,0.6523805853,1.40883483947,260.343946575,659.34987832,660.158287737,659.992885954,662.600246381,663.606399363,661.175048067,662.591914398
1,348,0,0,1.0,0.0,0.234361814102,0,0.0,0.0,0.0,0.366630538652,0.139659364635,0.226971174016,0.506289903287,0.139659364635,0.492725158809,5,0.88714030954,0.190659852496,-1.0,nan,nan,nan,nan,nan,nan,nan,nan,260.343946575,663.750447604,nan,663.984809418,nan,nan,nan,nan
1,349,1,1,1.0,1.0,0.484554255381,0,0.0,0.0,0.0,0.366246036546,0.139637917743,0.226608118803,0.505883954288,0.139637917743,0.453974567742,321,-0.0999433513493,0.43654647086,0.391174984052,nan,nan,nan,nan,nan,nan,nan,nan,260.343946575,664.692238326,nan,665.176792581,nan,nan,nan,nan
1,350,1,1,1.0,1.0,0.262750430033,0,0.0,0.0,0.0,0.366588958919,0.139580381503,0.227008577416,0.506169340422,0.139580381503,0.327222166505,493,0.689769084006,0.285700779988,-1.0,nan,nan,nan,nan,nan,nan,nan,nan,260.343946575,665.634020495,nan,665.896770925,nan,nan,nan,nan
1,351,1,1,1.0,1.0,0.0809589435812,0,0.0,0.0,0.0,0.366288847564,0.139489955278,0.226798892286,0.505778802842,0.139489955278,0.276087876332,375,-0.128556699755,0.478682433309,-0.121605159467,nan,nan,nan,nan,nan,nan,nan,nan,260.343946575,666.575809507,nan,666.65676845,nan,nan,nan,nan
1,352,1,1,1.0,1.0,0.235148969339,0,1.0,0.0,0.0,0.365466571184,0.140126079619,0.225340491564,0.505592650803,0.140126079619,0.192952780984,168,1.0,-0.190790017254,0.230361799274,nan,nan,nan,nan,nan,nan,nan,nan,260.343946575,667.517600514,nan,667.752749483,nan,nan,nan,nan
1,353,1,1,1.0,1.0,0.269325070782,1,0.0,0.0,1.0,0.365092095316,0.140098377671,0.224993717645,0.505190472988,0.140098377671,0.195144327901,504,0.78128615449,0.244628286196,-1.0,85.3275572446,4.67244275539,10.2974427554,7.0,0.9030914636,0.181853060355,-1.0,2.3505879289,260.343946575,668.459397509,669.267801508,668.728722579,672.65153491,673.652627975,670.284563549,672.643219461
1,354,1,1,1.0,1.0,0.767208504491,0,0.0,0.0,0.0,0.364817691234,0.139991141067,0.224826550168,0.504808832301,0.139991141067,0.423894181537,40,1.0,0.0201165467467,-1.0,nan,nan,nan,nan,nan,nan,nan,nan,260.343946575,673.793408424,nan,674.560616929,nan,nan,nan,nan
1,355,1,1,1.0,1.0,0.473424036289,0,0.0,0.0,0.0,0.365967379272,0.141431357153,0.22453602212,0.507398736425,0.141431357153,0.503319203854,326,-0.12383419111,0.444071765824,0.352223541474,nan,nan,nan,nan,nan,nan,nan,nan,260.343946575,674.73519544,nan,675.208619477,nan,nan,nan,nan
1,356,1,1,1.0,1.0,0.435616928851,0,0.0,1.0,0.0,0.366273523594,0.141345831884,0.22492769171,0.507619355478,0.141345831884,0.55874982321,502,0.764740937618,0.25241357569,-1.0,nan,nan,nan,nan,nan,nan,nan,nan,260.343946575,675.676985307,nan,676.112602236,nan,nan,nan,nan
1,357,1,1,1.0,1.0,0.485793575644,1,0.0,0.0,1.0,0.366470521905,0.141193159906,0.225277361998,0.507663681811,0.141193159906,0.464944846928,121,1.0,-0.310732805591,-0.229640808446,10.1542665802,79.8457334198,-5.2323915802,114.0,1.0,-0.303747463913,-0.303859371662,1.24209338194,260.343946575,676.618776885,677.427190293,677.10457046,679.702534634,680.703730334,678.443959747,679.69414506
1,358,0,0,0.0,1.0,0.45221133274,0,0.0,0.0,0.0,0.366808547553,0.141135586822,0.225672960731,0.507944134374,0.141135586822,0.457873945745,256,0.481312611765,0.257047908656,0.656065722404,nan,nan,nan,nan,nan,nan,nan,nan,260.343946575,680.844290688,nan,681.296502021,nan,nan,nan,nan
1,359,1,1,1.0,1.0,0.278385194484,0,0.0,0.0,0.0,0.367049798358,0.141008971621,0.226040826737,0.508058769979,0.141008971621,0.405463367623,87,1.0,-0.220959007447,-0.612675615602,nan,nan,nan,nan,nan,nan,nan,nan,260.343946575,681.786111061,nan,682.064496255,nan,nan,nan,nan
1,360,1,1,1.0,1.0,0.320561425993,0,0.0,0.0,0.0,0.366800038911,0.140888617625,0.225911421285,0.507688656536,0.140888617625,0.350385984406,457,0.391639248186,0.390358177281,-1.0,nan,nan,nan,nan,nan,nan,nan,nan,260.343946575,682.727902923,nan,683.048464349,nan,nan,nan,nan
1,361,0,0,0.0,1.0,0.546792250359,0,0.0,0.0,0.0,0.366670155167,0.140711883081,0.225958272086,0.507382038247,0.140711883081,0.381912956946,492,0.681403316433,0.289222019555,-1.0,nan,nan,nan,nan,nan,nan,nan,nan,260.343946575,683.669689084,nan,684.216481334,nan,nan,nan,nan
1,362,1,1,1.0,1.0,0.452937477035,0,0.0,0.0,0.0,0.367174698851,0.140836775103,0.226337923748,0.508011473953,0.140836775103,0.440097051129,288,0.150005133015,0.365331945294,0.586687239957,nan,nan,nan,nan,nan,nan,nan,nan,260.343946575,684.611497197,nan,685.064434674,nan,nan,nan,nan
1,363,1,1,1.0,1.0,0.33514560503,0,0.0,0.0,0.0,0.367414259683,0.140712757824,0.22670150186,0.508127017507,0.140712757824,0.444958444141,341,-0.168535884224,0.46196150489,0.223260112086,nan,nan,nan,nan,nan,nan,nan,nan,260.343946575,685.553267677,nan,685.888413282,nan,nan,nan,nan
1,364,1,1,1.0,1.0,0.465344934259,0,0.0,0.0,0.0,0.367324374852,0.140526933969,0.226797440882,0.507851308821,0.140526933969,0.417809338775,392,-0.0541067903503,0.475522277549,-0.315549842675,nan,nan,nan,nan,nan,nan,nan,nan,260.343946575,686.495054408,nan,686.960399342,nan,nan,nan,nan
1,365,1,1,1.0,1.0,0.555535345105,0,0.0,0.0,0.0,0.367596654183,0.140426418291,0.227170235893,0.508023072474,0.140426418291,0.452008628131,124,1.0,-0.311577186586,-0.198226518473,nan,nan,nan,nan,nan,nan,nan,nan,260.343946575,687.436843135,nan,687.99237848,nan,nan,nan,nan
1,366,1,1,1.0,1.0,0.477728158003,0,0.0,0.0,0.0,0.368117259975,0.140579248192,0.227538011783,0.508696508167,0.140579248192,0.499536145789,308,-0.0186828559465,0.413097475488,0.481682330771,nan,nan,nan,nan,nan,nan,nan,nan,260.343946575,688.378630721,nan,688.856358879,nan,nan,nan,nan
1,367,1,1,1.0,1.0,0.399933515117,0,0.0,0.0,0.0,0.368420052511,0.140502776094,0.227917276417,0.508922828605,0.140502776094,0.477732339408,249,0.557275547736,0.228026269286,0.654084877906,nan,nan,nan,nan,nan,nan,nan,nan,260.343946575,689.320424009,nan,689.720357524,nan,nan,nan,nan
1,368,1,1,1.0,1.0,0.378140352434,0,0.0,0.0,0.0,0.368506866458,0.140318834653,0.228188031805,0.508825701111,0.140318834653,0.418600675184,94,1.0,-0.249439013202,-0.526745155233,nan,nan,nan,nan,nan,nan,nan,nan,260.343946575,690.262206748,nan,690.640347101,nan,nan,nan,nan
1,369,1,1,1.0,1.0,0.428327262634,0,0.0,0.0,0.0,0.368533332079,0.140126863676,0.228406468403,0.508660195755,0.140126863676,0.402133710062,255,0.492159363509,0.253017189294,0.656163111527,nan,nan,nan,nan,nan,nan,nan,nan,260.343946575,691.203998041,nan,691.632325304,nan,nan,nan,nan
1,370,0,0,0.0,1.0,0.534489138983,0,0.0,0.0,0.0,0.368697151066,0.13996967698,0.228727474086,0.508666828047,0.13996967698,0.446985584684,398,-0.0220377755791,0.472608796233,-0.387943383198,nan,nan,nan,nan,nan,nan,nan,nan,260.343946575,692.145807865,nan,692.680297004,nan,nan,nan,nan
1,371,1,1,1.0,1.0,0.224720376078,0,0.0,0.0,0.0,0.36915013464,0.140045983912,0.229104150728,0.509196118552,0.140045983912,0.395845592565,325,-0.119404900653,0.442631039184,0.360186421743,nan,nan,nan,nan,nan,nan,nan,nan,260.343946575,693.087576349,nan,693.312296725,nan,nan,nan,nan
1,372,1,1,1.0,1.0,0.362910141703,0,0.0,0.0,0.0,0.368756593064,0.140057562332,0.228699030732,0.508814155395,0.140057562332,0.374039885588,458,0.399688045963,0.388050214986,-1.0,nan,nan,nan,nan,nan,nan,nan,nan,260.343946575,694.029367642,nan,694.392277783,nan,nan,nan,nan
