block,trial,time,setsize,freqtrials,colorind,colordeg,colorrgb,correctresp,actualresp,acc,rts,probe_trials,fast_rt_trigger,slow_rt_trigger,rt_trailingavg,rt_runningavg,rt_runningstd,rt_runningslowthresh,rt_runningfastthresh,wm_mousepos,wm_respdeg,wm_colorind,wm_colorrgb,wm_colorhsv,wm_degdiff,wm_rts,timeBlockStart,timeEncArrayOnset,timeResponse,timeProbeOnset,timeProbeOffset
0,0,21:19:03:738000,6,1,325,228.515625,[-0.1194049   0.44263104  0.36018642],1,1,1,0.33122437,0,nan,nan,nan,nan,nan,nan,nan,nan,nan,nan,[ nan  nan  nan],nan,nan,nan,260.3439466,261.3567275,261.6879519,nan,nan
0,1,21:19:04:674000,6,0,174,122.34375,[ 1.         -0.16079069  0.28198128],0,1,0,0.253363869,0,0,0,nan,nan,nan,nan,nan,nan,nan,nan,[ nan  nan  nan],nan,nan,nan,260.3439466,262.2985704,262.5519343,nan,nan
0,2,21:19:05:610000,6,1,379,266.484375,[-0.11353594  0.47861499 -0.16597052],1,1,1,0.359620398,0,nan,nan,nan,nan,nan,nan,nan,nan,nan,nan,[ nan  nan  nan],nan,nan,nan,260.3439466,263.2403004,263.5999208,nan,nan
0,3,21:19:06:561000,6,1,465,326.953125,[ 0.45658868  0.37096153 -1.        ],1,1,1,0.337801006,0,nan,nan,nan,nan,nan,nan,nan,nan,nan,nan,[ nan  nan  nan],nan,nan,nan,260.3439466,264.1820906,264.5198916,nan,nan
0,4,21:19:07:497000,6,1,350,246.09375,[-0.17575682  0.46949094  0.13824748],1,1,1,0.355999656,0,nan,nan,nan,nan,nan,nan,nan,nan,nan,nan,[ nan  nan  nan],nan,nan,nan,260.3439466,265.1238836,265.4798832,nan,nan
0,5,21:19:08:433000,6,1,404,284.0625,[ 0.01248946  0.46874627 -0.4633491 ],1,1,1,0.302190863,0,nan,nan,nan,nan,nan,nan,nan,nan,nan,nan,[ nan  nan  nan],nan,nan,nan,260.3439466,266.0656709,266.3678617,nan,nan
0,6,21:19:09:385000,6,1,199,139.921875,[ 1.         -0.02467618  0.4687863 ],1,1,1,0.280394279,0,nan,nan,nan,nan,nan,nan,nan,nan,nan,nan,[ nan  nan  nan],nan,nan,nan,260.3439466,267.0074559,267.2878502,nan,nan
0,7,21:19:10:321000,6,0,91,63.984375,[ 1.         -0.2377099  -0.56272232],0,0,1,0.354571886,0,nan,nan,nan,nan,nan,nan,nan,nan,nan,nan,[ nan  nan  nan],nan,nan,nan,260.3439466,267.949246,268.3038179,nan,nan
0,8,21:19:11:304000,6,1,434,305.15625,[ 0.21388182  0.43461034 -1.        ],1,1,1,0.274903865,0,nan,nan,nan,nan,nan,nan,nan,nan,nan,nan,[ nan  nan  nan],nan,nan,nan,260.3439466,268.9329037,269.2078075,nan,nan
0,9,21:19:12:255000,6,1,349,245.390625,[-0.17565689  0.46876851  0.14794518],1,1,1,0.229301043,0,nan,nan,nan,nan,nan,nan,nan,nan,nan,nan,[ nan  nan  nan],nan,nan,nan,260.3439466,269.8744968,270.1037978,nan,nan
0,10,21:19:13:191000,6,1,256,180,[ 0.48131261  0.25704791  0.65606572],1,1,1,0.223487043,0,nan,nan,nan,nan,nan,nan,nan,nan,nan,nan,[ nan  nan  nan],nan,nan,nan,260.3439466,270.8162927,271.0397797,nan,nan
0,11,21:19:14:127000,6,1,53,37.265625,[ 1.         -0.04925756 -1.        ],1,1,1,0.193684627,0,nan,nan,nan,nan,nan,nan,nan,nan,nan,nan,[ nan  nan  nan],nan,nan,nan,260.3439466,271.758082,271.9517666,nan,nan
0,12,21:19:15:079000,6,1,436,306.5625,[ 0.22868171  0.43141373 -1.        ],1,1,1,0.259893465,0,nan,nan,nan,nan,nan,nan,nan,nan,nan,nan,[ nan  nan  nan],nan,nan,nan,260.3439466,272.6998579,272.9597513,nan,nan
0,13,21:19:16:015000,6,1,34,23.90625,[ 1.          0.05144197 -1.        ],1,1,1,0.254093434,0,nan,nan,nan,nan,nan,nan,nan,nan,nan,nan,[ nan  nan  nan],nan,nan,nan,260.3439466,273.6416417,273.8957352,nan,nan
0,14,21:19:16:951000,6,1,488,343.125,[ 0.64790771  0.30295149 -1.        ],1,1,1,0.320278609,0,nan,nan,nan,nan,nan,nan,nan,nan,nan,nan,[ nan  nan  nan],nan,nan,nan,260.3439466,274.5834299,274.9037085,nan,nan
0,15,21:19:17:903000,6,1,155,108.984375,[ 1.         -0.24798314  0.11161188],1,1,1,0.30642314,0,nan,nan,nan,nan,nan,nan,nan,nan,nan,nan,[ nan  nan  nan],nan,nan,nan,260.3439466,275.5252665,275.8316896,nan,nan
0,16,21:19:18:839000,6,1,225,158.203125,[ 0.81146625  0.11513113  0.60098195],1,1,1,0.228656722,0,nan,nan,nan,nan,nan,nan,nan,nan,nan,nan,[ nan  nan  nan],nan,nan,nan,260.3439466,276.4670205,276.6956772,nan,nan
0,17,21:19:19:821000,6,1,124,87.1875,[ 1.         -0.31157719 -0.19822652],1,1,1,0.340984409,0,nan,nan,nan,nan,nan,nan,nan,nan,nan,nan,[ nan  nan  nan],nan,nan,nan,260.3439466,277.4506821,277.7916665,nan,nan
0,18,21:19:20:804000,6,1,73,51.328125,[ 1.         -0.15467886 -0.83091687],1,1,1,0.238295594,0,nan,nan,nan,nan,nan,nan,nan,nan,nan,nan,[ nan  nan  nan],nan,nan,nan,260.3439466,278.4333498,278.6716454,nan,nan
0,19,21:19:21:771000,6,1,272,191.25,[ 0.3101667   0.31621412  0.63728143],1,1,1,0.172263232,0,nan,nan,nan,nan,nan,nan,nan,nan,nan,nan,[ nan  nan  nan],nan,nan,nan,260.3439466,279.4033741,279.5756373,nan,nan
0,20,21:19:22:723000,6,1,410,288.28125,[ 0.04920468  0.46392153 -0.54316189],1,1,1,0.280766617,0,nan,nan,nan,nan,nan,nan,nan,nan,nan,nan,[ nan  nan  nan],nan,nan,nan,260.3439466,280.3508382,280.6316049,nan,nan
0,21,21:19:23:659000,6,1,241,169.453125,[ 0.64365311  0.19260594  0.64425478],1,1,1,0.314954692,0,nan,nan,nan,nan,nan,nan,nan,nan,nan,nan,[ nan  nan  nan],nan,nan,nan,260.3439466,281.2926361,281.6075908,nan,nan
0,22,21:19:24:611000,6,1,289,203.203125,[ 0.14059213  0.36807325  0.58250527],1,1,1,0.317153082,0,nan,nan,nan,nan,nan,nan,nan,nan,nan,nan,[ nan  nan  nan],nan,nan,nan,260.3439466,282.2344297,282.5515827,nan,nan
0,23,21:19:25:547000,6,1,487,342.421875,[ 0.63952974  0.30629503 -1.        ],1,1,1,0.223355328,0,nan,nan,nan,nan,nan,nan,nan,nan,nan,nan,[ nan  nan  nan],nan,nan,nan,260.3439466,283.1762144,283.3995697,nan,nan
0,24,21:19:26:498000,6,0,427,300.234375,[ 0.16326517  0.44486322 -0.84020871],0,1,0,0.217547885,0,0,0,nan,nan,nan,nan,nan,nan,nan,nan,[ nan  nan  nan],nan,nan,nan,260.3439466,284.1180031,284.335551,nan,nan
0,25,21:19:30:632000,6,1,270,189.84375,[ 0.33115907  0.30936972  0.64139387],1,1,1,0.371752166,1,nan,nan,nan,nan,nan,nan,nan,nan,-103.1432161,275,[ 0.27900239  0.32618525  0.63017847],nan,3.299466109,1.158773829,260.3439466,285.0597807,285.4315329,286.884955,288.0517701
0,26,21:19:31:568000,6,1,383,269.296875,[-0.09687871  0.47813121 -0.21108141],1,1,1,0.765438047,0,nan,nan,nan,nan,nan,nan,nan,nan,nan,nan,[ nan  nan  nan],nan,nan,nan,260.3439466,289.2020063,289.9674444,nan,nan
0,27,21:19:32:520000,6,1,120,84.375,[ 1.         -0.3101615  -0.24016291],1,1,1,0.775653672,0,nan,nan,nan,nan,nan,nan,nan,nan,nan,nan,[ nan  nan  nan],nan,nan,nan,260.3439466,290.1437668,290.9194205,nan,nan
0,28,21:19:33:456000,6,1,449,315.703125,[ 0.32809501  0.40764625 -1.        ],1,1,1,0.489857645,0,nan,nan,nan,nan,nan,nan,nan,nan,nan,nan,[ nan  nan  nan],nan,nan,nan,260.3439466,291.0855599,291.5754175,nan,nan
0,29,21:19:34:407000,6,1,231,162.421875,[ 0.74960968  0.14515127  0.62082146],1,1,1,0.420054864,0,nan,nan,nan,nan,nan,nan,nan,nan,nan,nan,[ nan  nan  nan],nan,nan,nan,260.3439466,292.0273563,292.4474111,nan,nan
0,30,21:19:35:343000,6,1,58,40.78125,[ 1.         -0.07608966 -1.        ],1,1,1,0.342265923,0,nan,nan,nan,nan,nan,nan,nan,nan,nan,nan,[ nan  nan  nan],nan,nan,nan,260.3439466,292.9691325,293.3113984,nan,nan
0,31,21:19:36:279000,6,1,197,138.515625,[ 1.         -0.0357976   0.45577474],1,1,1,0.240460627,0,nan,nan,nan,nan,nan,nan,nan,nan,nan,nan,[ nan  nan  nan],nan,nan,nan,260.3439466,293.9109215,294.1513821,nan,nan
0,32,21:19:40:881000,6,1,408,286.875,[ 0.03673793  0.46563766 -0.51593845],1,1,1,0.210651369,1,nan,nan,nan,nan,nan,nan,nan,nan,163.5155468,407,[ 0.03058863  0.46645515 -0.50257741],nan,-0.39054681,1.592164999,260.3439466,294.8527139,295.0633653,296.6862159,298.2864272
0,33,21:19:41:817000,6,1,288,202.5,[ 0.15000513  0.36533195  0.58668724],1,1,1,0.69828297,0,nan,nan,nan,nan,nan,nan,nan,nan,nan,nan,[ nan  nan  nan],nan,nan,nan,260.3439466,299.4449698,300.1432528,nan,nan
0,34,21:19:42:753000,6,1,8,5.625,[ 0.91102659  0.17740094 -1.        ],1,1,1,0.444496871,0,nan,nan,nan,nan,nan,nan,nan,nan,nan,nan,[ nan  nan  nan],nan,nan,nan,260.3439466,300.3867543,300.8312512,nan,nan
0,35,21:19:46:669000,6,1,69,48.515625,[ 1.         -0.1342072  -0.93964801],1,1,1,0.286607986,1,nan,nan,nan,nan,nan,nan,nan,nan,46.55868421,62,[ 1.         -0.09743725 -1.        ],nan,-5.074309206,0.908710822,260.3439466,301.3286377,301.6152457,303.1620727,304.0788392
0,36,21:19:47:605000,6,1,217,152.578125,[ 0.89125041  0.07353733  0.56804835],1,1,1,0.289792529,0,nan,nan,nan,nan,nan,nan,nan,nan,nan,nan,[ nan  nan  nan],nan,nan,nan,260.3439466,305.2373876,305.5271801,nan,nan
0,37,21:19:48:557000,6,0,37,26.015625,[ 1.          0.03585655 -1.        ],0,1,0,0.251976298,0,0,0,nan,nan,nan,nan,nan,nan,nan,nan,[ nan  nan  nan],nan,nan,nan,260.3439466,306.1791791,306.4311554,nan,nan
0,38,21:19:49:493000,6,1,444,312.1875,[ 0.2892412   0.41740978 -1.        ],1,1,1,0.470166508,0,nan,nan,nan,nan,nan,nan,nan,nan,nan,nan,[ nan  nan  nan],nan,nan,nan,260.3439466,307.1209653,307.5911318,nan,nan
0,39,21:19:50:444000,6,1,301,211.640625,[ 0.03515994  0.39804276  0.52341451],1,1,1,0.296376863,0,nan,nan,nan,nan,nan,nan,nan,nan,nan,nan,[ nan  nan  nan],nan,nan,nan,260.3439466,308.0627409,308.3591178,nan,nan
0,40,21:19:51:380000,6,1,400,281.25,[-0.01078748  0.4714273  -0.41269269],1,1,1,0.314561542,0,nan,nan,nan,nan,nan,nan,nan,nan,nan,nan,[ nan  nan  nan],nan,nan,nan,260.3439466,309.0045427,309.3191043,nan,nan
0,41,21:19:52:316000,6,1,469,329.765625,[ 0.4894822   0.36045336 -1.        ],1,1,1,0.332749643,0,nan,nan,nan,nan,nan,nan,nan,nan,nan,nan,[ nan  nan  nan],nan,nan,nan,260.3439466,309.946332,310.2790817,nan,nan
0,42,21:19:53:268000,6,1,51,35.859375,[ 1.         -0.03851602 -1.        ],1,1,1,0.318947487,0,nan,nan,nan,nan,nan,nan,nan,nan,nan,nan,[ nan  nan  nan],nan,nan,nan,260.3439466,310.8881222,311.2070697,nan,nan
0,43,21:19:54:204000,6,1,160,112.5,[ 1.         -0.22750142  0.15829752],1,1,1,0.313132347,0,nan,nan,nan,nan,nan,nan,nan,nan,nan,nan,[ nan  nan  nan],nan,nan,nan,260.3439466,311.8299109,312.1430433,nan,nan
0,44,21:19:55:140000,6,0,378,265.78125,[-0.11745014  0.47867092 -0.15481012],0,0,1,0.355339369,0,nan,nan,nan,nan,nan,nan,nan,nan,nan,nan,[ nan  nan  nan],nan,nan,nan,260.3439466,312.7716948,313.1270342,nan,nan
0,45,21:19:56:091000,6,1,44,30.9375,[ 1.         -0.00106984 -1.        ],1,1,1,0.285540295,0,nan,nan,nan,nan,nan,nan,nan,nan,nan,nan,[ nan  nan  nan],nan,nan,nan,260.3439466,313.7134775,313.9990178,nan,nan
0,46,21:19:57:027000,6,1,300,210.9375,[ 0.04335371  0.39574842  0.52895103],1,1,1,0.279724584,0,nan,nan,nan,nan,nan,nan,nan,nan,nan,nan,[ nan  nan  nan],nan,nan,nan,260.3439466,314.6552731,314.9349977,nan,nan
0,47,21:19:57:963000,6,1,429,301.640625,[ 0.17753182  0.44208078 -0.9018852 ],1,1,1,0.385917821,0,nan,nan,nan,nan,nan,nan,nan,nan,nan,nan,[ nan  nan  nan],nan,nan,nan,260.3439466,315.5970616,315.9829794,nan,nan
0,48,21:19:58:915000,6,1,348,244.6875,[-0.17538477  0.46801784  0.15758216],1,1,1,0.636116534,0,nan,nan,nan,nan,nan,nan,nan,nan,nan,nan,[ nan  nan  nan],nan,nan,nan,260.3439466,316.5388457,317.1749623,nan,nan
0,49,21:19:59:851000,6,1,478,336.09375,[ 0.5642225   0.33479366 -1.        ],1,1,1,0.486303616,0,nan,nan,nan,nan,nan,nan,nan,nan,nan,nan,[ nan  nan  nan],nan,nan,nan,260.3439466,317.4806404,317.966944,nan,nan
0,50,21:20:00:803000,6,0,105,73.828125,[ 1.         -0.28504984 -0.40158079],0,0,1,0.664493746,0,nan,nan,nan,nan,nan,nan,nan,nan,nan,nan,[ nan  nan  nan],nan,nan,nan,260.3439466,318.4224306,319.0869243,nan,nan
0,51,21:20:01:739000,6,1,485,341.015625,[ 0.62277456  0.31287562 -1.        ],1,1,1,0.394703111,0,nan,nan,nan,nan,nan,nan,nan,nan,nan,nan,[ nan  nan  nan],nan,nan,nan,260.3439466,319.3642153,319.7589184,nan,nan
0,52,21:20:02:675000,6,1,213,149.765625,[ 0.92978509  0.05216688  0.54890652],1,1,1,0.324909738,0,nan,nan,nan,nan,nan,nan,nan,nan,nan,nan,[ nan  nan  nan],nan,nan,nan,260.3439466,320.3060026,320.6309124,nan,nan
0,53,21:20:03:626000,6,1,504,354.375,[ 0.78128615  0.24462829 -1.        ],1,1,1,0.303109448,0,nan,nan,nan,nan,nan,nan,nan,nan,nan,nan,[ nan  nan  nan],nan,nan,nan,260.3439466,321.2477811,321.5508905,nan,nan
0,54,21:20:04:562000,6,1,197,138.515625,[ 1.         -0.0357976   0.45577474],1,1,1,0.265293217,0,nan,nan,nan,nan,nan,nan,nan,nan,nan,nan,[ nan  nan  nan],nan,nan,nan,260.3439466,322.1895775,322.4548707,nan,nan
0,55,21:20:05:498000,6,1,433,304.453125,[ 0.2065363   0.43616372 -1.        ],1,1,1,0.467505976,0,nan,nan,nan,nan,nan,nan,nan,nan,nan,nan,[ nan  nan  nan],nan,nan,nan,260.3439466,323.1313477,323.5988537,nan,nan
0,56,21:20:06:450000,6,1,279,196.171875,[ 0.23815758  0.33893035  0.61897842],1,1,1,0.493670543,0,nan,nan,nan,nan,nan,nan,nan,nan,nan,nan,[ nan  nan  nan],nan,nan,nan,260.3439466,324.073155,324.5668255,nan,nan
0,57,21:20:07:386000,6,1,110,77.34375,[ 1.         -0.29672275 -0.34692196],1,1,1,0.591867642,0,nan,nan,nan,nan,nan,nan,nan,nan,nan,nan,[ nan  nan  nan],nan,nan,nan,260.3439466,325.014942,325.6068096,nan,nan
0,58,21:20:08:337000,6,1,462,324.84375,[ 0.43208968  0.37848636 -1.        ],1,1,1,0.522051746,0,nan,nan,nan,nan,nan,nan,nan,nan,nan,nan,[ nan  nan  nan],nan,nan,nan,260.3439466,325.956737,326.4787887,nan,nan
0,59,21:20:09:273000,6,1,84,59.0625,[ 1.         -0.20765784 -0.65219109],1,1,1,0.588255737,0,nan,nan,nan,nan,nan,nan,nan,nan,nan,nan,[ nan  nan  nan],nan,nan,nan,260.3439466,326.8985248,327.4867806,nan,nan
0,60,21:20:10:209000,6,0,289,203.203125,[ 0.14059213  0.36807325  0.58250527],0,0,1,0.414470938,0,nan,nan,nan,nan,nan,nan,nan,nan,nan,nan,[ nan  nan  nan],nan,nan,nan,260.3439466,327.8403036,328.2547745,nan,nan
0,61,21:20:11:161000,6,1,478,336.09375,[ 0.5642225   0.33479366 -1.        ],1,1,1,0.416663626,0,nan,nan,nan,nan,nan,nan,nan,nan,nan,nan,[ nan  nan  nan],nan,nan,nan,260.3439466,328.7820846,329.1987483,nan,nan
0,62,21:20:12:097000,6,1,383,269.296875,[-0.09687871  0.47813121 -0.21108141],1,1,1,0.322847911,0,nan,nan,nan,nan,nan,nan,nan,nan,nan,nan,[ nan  nan  nan],nan,nan,nan,260.3439466,329.7238902,330.0467381,nan,nan
0,63,21:20:13:033000,6,1,172,120.9375,[ 1.         -0.17098406  0.26502468],1,1,1,0.253036862,0,nan,nan,nan,nan,nan,nan,nan,nan,nan,nan,[ nan  nan  nan],nan,nan,nan,260.3439466,330.6656752,330.9187121,nan,nan
0,64,21:20:13:985000,6,1,36,25.3125,[ 1.          0.04106996 -1.        ],1,1,1,0.327239843,0,nan,nan,nan,nan,nan,nan,nan,nan,nan,nan,[ nan  nan  nan],nan,nan,nan,260.3439466,331.6074633,331.9347032,nan,nan
0,65,21:20:14:921000,6,0,228,160.3125,[ 0.78072981  0.13027695  0.61143314],0,1,0,0.265422082,0,0,0,nan,nan,nan,nan,nan,nan,nan,nan,[ nan  nan  nan],nan,nan,nan,260.3439466,332.5492546,332.8146767,nan,nan
0,66,21:20:18:774000,6,1,415,291.796875,[ 0.08130773  0.45915368 -0.61496802],1,1,1,0.387621851,1,nan,nan,nan,nan,nan,nan,nan,nan,160.9655656,411,[ 0.05552017  0.46302271 -0.55705476],nan,-2.762440645,0.858731748,260.3439466,333.4910399,333.8786618,335.3245448,336.1913628
0,67,21:20:19:710000,6,1,468,329.0625,[ 0.48123648  0.36313162 -1.        ],1,1,1,0.393057811,0,nan,nan,nan,nan,nan,nan,nan,nan,nan,nan,[ nan  nan  nan],nan,nan,nan,260.3439466,337.3415378,337.7345956,nan,nan
0,68,21:20:20:661000,6,1,257,180.703125,[ 0.4704729   0.26103985  0.65584138],1,1,1,0.427264133,0,nan,nan,nan,nan,nan,nan,nan,nan,nan,nan,[ nan  nan  nan],nan,nan,nan,260.3439466,338.2833277,338.7105918,nan,nan
0,69,21:20:21:597000,6,1,308,216.5625,[-0.01868286  0.41309748  0.48168233],1,1,1,0.285452485,0,nan,nan,nan,nan,nan,nan,nan,nan,nan,nan,[ nan  nan  nan],nan,nan,nan,260.3439466,339.2251161,339.5105686,nan,nan
0,70,21:20:22:549000,6,1,38,26.71875,[ 1.          0.03062595 -1.        ],1,1,1,0.255652064,0,nan,nan,nan,nan,nan,nan,nan,nan,nan,nan,[ nan  nan  nan],nan,nan,nan,260.3439466,340.1669017,340.4225537,nan,nan
0,71,21:20:23:485000,6,1,392,275.625,[-0.05410679  0.47552228 -0.31554984],1,1,1,0.281835448,0,nan,nan,nan,nan,nan,nan,nan,nan,nan,nan,[ nan  nan  nan],nan,nan,nan,260.3439466,341.1086958,341.3905313,nan,nan
0,72,21:20:24:421000,6,1,147,103.359375,[ 1.         -0.27580113  0.03467205],1,1,1,0.228027796,0,nan,nan,nan,nan,nan,nan,nan,nan,nan,nan,[ nan  nan  nan],nan,nan,nan,260.3439466,342.050486,342.2785138,nan,nan
0,73,21:20:25:373000,6,1,55,38.671875,[ 1.         -0.05999965 -1.        ],1,1,1,0.230236164,0,nan,nan,nan,nan,nan,nan,nan,nan,nan,nan,[ nan  nan  nan],nan,nan,nan,260.3439466,342.992271,343.2225072,nan,nan
0,74,21:20:26:309000,6,1,433,304.453125,[ 0.2065363   0.43616372 -1.        ],1,1,1,0.240430121,0,nan,nan,nan,nan,nan,nan,nan,nan,nan,nan,[ nan  nan  nan],nan,nan,nan,260.3439466,343.9340574,344.1744876,nan,nan
0,75,21:20:27:245000,6,1,222,156.09375,[ 0.84177847  0.09972916  0.58948469],1,1,1,0.282629161,0,nan,nan,nan,nan,nan,nan,nan,nan,nan,nan,[ nan  nan  nan],nan,nan,nan,260.3439466,344.8758459,345.158475,nan,nan
0,76,21:20:28:196000,6,1,507,356.484375,[ 0.80599565  0.23268835 -1.        ],1,1,1,0.244820058,0,nan,nan,nan,nan,nan,nan,nan,nan,nan,nan,[ nan  nan  nan],nan,nan,nan,260.3439466,345.817636,346.0624561,nan,nan
0,77,21:20:29:132000,6,1,37,26.015625,[ 1.          0.03585655 -1.        ],1,1,1,0.263007873,0,nan,nan,nan,nan,nan,nan,nan,nan,nan,nan,[ nan  nan  nan],nan,nan,nan,260.3439466,346.7594228,347.0224306,nan,nan
0,78,21:20:30:084000,6,1,271,190.546875,[ 0.32064286  0.31281163  0.63940014],1,0,0,0.281193693,0,0,0,nan,nan,nan,nan,nan,nan,nan,nan,[ nan  nan  nan],nan,nan,nan,260.3439466,347.7012129,347.9824066,nan,nan
0,79,21:20:31:020000,6,0,109,76.640625,[ 1.         -0.29463833 -0.3577737 ],0,1,0,0.275395944,0,0,0,nan,nan,nan,nan,nan,nan,nan,nan,[ nan  nan  nan],nan,nan,nan,260.3439466,348.6429999,348.9183959,nan,nan
0,80,21:20:31:956000,6,1,326,229.21875,[-0.12383419  0.44407177  0.35222354],1,1,1,0.525584108,0,0,0,0.360724582,0.346569293,0.127695105,0.474264398,0.218874189,nan,nan,nan,[ nan  nan  nan],nan,nan,nan,260.3439466,349.5847895,350.1103736,nan,nan
0,81,21:20:32:907000,6,1,259,182.109375,[ 0.44882283  0.26890698  0.65501178],1,1,1,0.495772284,0,0,0,0.432250779,0.348779353,0.128434729,0.477214082,0.220344624,nan,nan,nan,[ nan  nan  nan],nan,nan,nan,260.3439466,350.5265782,351.0223505,nan,nan
0,82,21:20:33:843000,6,1,74,52.03125,[ 1.         -0.15971516 -0.81044328],1,1,1,0.329985905,0,0,0,0.450447433,0.350571949,0.128664684,0.479236633,0.221907265,nan,nan,nan,[ nan  nan  nan],nan,nan,nan,260.3439466,351.4683618,351.7983477,nan,nan
0,83,21:20:34:779000,6,1,204,143.4375,[ 1.          0.00303257  0.49965442],1,1,1,0.236181879,0,0,0,0.353980023,0.350323925,0.127906967,0.478230892,0.222416958,nan,nan,nan,[ nan  nan  nan],nan,nan,nan,260.3439466,352.410152,352.6463339,nan,nan
0,84,21:20:35:731000,6,1,117,82.265625,[ 1.         -0.30758797 -0.27188654],1,1,1,0.286363657,0,0,0,0.284177147,0.348965091,0.127744595,0.476709686,0.221220495,nan,nan,nan,[ nan  nan  nan],nan,nan,nan,260.3439466,353.3519507,353.6383144,nan,nan
0,85,21:20:36:667000,6,1,411,288.984375,[ 0.05552017  0.46302271 -0.55705476],1,1,1,0.240570104,0,0,0,0.25437188,0.348228603,0.127170201,0.475398804,0.221058403,nan,nan,nan,[ nan  nan  nan],nan,nan,nan,260.3439466,354.2937334,354.5343035,nan,nan
0,86,21:20:37:603000,6,1,66,46.40625,[ 1.         -0.11856871 -1.        ],1,1,1,0.226768804,0,0,0,0.251234188,0.34697676,0.126954381,0.473931141,0.22002238,nan,nan,nan,[ nan  nan  nan],nan,nan,nan,260.3439466,355.2355196,355.4622884,nan,nan
0,87,21:20:38:555000,6,1,174,122.34375,[ 1.         -0.16079069  0.28198128],1,1,1,0.24497344,0,0,0,0.237437449,0.34559506,0.12687135,0.47246641,0.21872371,nan,nan,nan,[ nan  nan  nan],nan,nan,nan,260.3439466,356.1773066,356.4222801,nan,nan
0,88,21:20:39:491000,6,1,243,170.859375,[ 0.62215101  0.20168048  0.64746348],1,1,1,0.23915773,0,0,0,0.236966658,0.344451632,0.12659847,0.471050102,0.217853162,nan,nan,nan,[ nan  nan  nan],nan,nan,nan,260.3439466,357.1190971,357.3582548,nan,nan
0,89,21:20:40:442000,6,1,356,250.3125,[-0.17284378  0.47323941  0.07883681],1,1,1,0.337336867,0,0,0,0.273822679,0.343268555,0.126373507,0.469642061,0.216895048,nan,nan,nan,[ nan  nan  nan],nan,nan,nan,260.3439466,358.0608898,358.3982266,nan,nan
0,90,21:20:41:378000,6,1,400,281.25,[-0.01078748  0.4714273  -0.41269269],1,1,1,0.315541138,0,0,0,0.297345245,0.343202647,0.125671009,0.468873656,0.217531638,nan,nan,nan,[ nan  nan  nan],nan,nan,nan,260.3439466,359.0026759,359.3182171,nan,nan
0,91,21:20:42:314000,6,1,142,99.84375,[ 1.         -0.28956812 -0.01462735],1,1,1,0.437721236,0,0,0,0.36353308,0.342898674,0.125011866,0.467910541,0.217886808,nan,nan,nan,[ nan  nan  nan],nan,nan,nan,260.3439466,359.9444615,360.3821828,nan,nan
0,92,21:20:43:266000,6,1,352,247.5,[-0.17544713  0.4708516   0.11867359],1,1,1,0.439919055,0,0,0,0.397727143,0.343929354,0.124718751,0.468648106,0.219210603,nan,nan,nan,[ nan  nan  nan],nan,nan,nan,260.3439466,360.8862514,361.3261704,nan,nan
0,93,21:20:44:202000,6,1,292,205.3125,[ 0.11288167  0.37606958  0.56926185],1,1,1,0.378119826,0,0,0,0.418586706,0.344961502,0.124440836,0.469402337,0.220520666,nan,nan,nan,[ nan  nan  nan],nan,nan,nan,260.3439466,361.8280418,362.2061616,nan,nan
0,94,21:20:45:138000,6,1,396,278.4375,[-0.03301537  0.47368488 -0.36352378],1,1,1,0.316310332,0,0,0,0.378116404,0.34531425,0.123823883,0.469138133,0.221490367,nan,nan,nan,[ nan  nan  nan],nan,nan,nan,260.3439466,362.7698345,363.0861449,nan,nan
0,95,21:20:46:090000,6,0,189,132.890625,[ 1.         -0.08021946  0.40014347],0,1,0,0.198521882,0,0,0,0.29765068,0.345008945,0.123206017,0.468214963,0.221802928,nan,nan,nan,[ nan  nan  nan],nan,nan,nan,260.3439466,363.7116167,363.9101386,nan,nan
0,96,21:20:47:026000,6,1,367,258.046875,[-0.15309091  0.4775609  -0.03508163],1,1,1,0.256686969,0,0,0,0.257173061,0.343483039,0.123461726,0.466944765,0.220021312,nan,nan,nan,[ nan  nan  nan],nan,nan,nan,260.3439466,364.6534151,364.9101021,nan,nan
0,97,21:20:47:977000,6,1,321,225.703125,[-0.09994335  0.43654647  0.39117498],1,1,1,0.378903845,0,0,0,0.278037565,0.342588234,0.123136187,0.46572442,0.219452047,nan,nan,nan,[ nan  nan  nan],nan,nan,nan,260.3439466,365.5951962,365.9741,nan,nan
0,98,21:20:48:913000,6,1,424,298.125,[ 0.14217456  0.44881957 -0.77022942],1,1,1,0.253097018,0,0,0,0.296229277,0.342958801,0.122560683,0.465519484,0.220398119,nan,nan,nan,[ nan  nan  nan],nan,nan,nan,260.3439466,366.5369817,366.7900788,nan,nan
0,99,21:20:49:849000,6,1,0,0,[ 0.84683171  0.21209757 -1.        ],1,1,1,0.247300409,0,0,0,0.293100424,0.342051106,0.122270747,0.464321853,0.219780359,nan,nan,nan,[ nan  nan  nan],nan,nan,nan,260.3439466,367.4787702,367.7260706,nan,nan
0,100,21:20:50:801000,6,1,199,139.921875,[ 1.         -0.02467618  0.4687863 ],1,1,1,0.273507456,0,0,0,0.257968294,0.341103599,0.122022594,0.463126193,0.219081006,nan,nan,nan,[ nan  nan  nan],nan,nan,nan,260.3439466,368.4205501,368.6940575,nan,nan
0,101,21:20:51:737000,6,0,264,185.625,[ 0.39496696  0.28788971  0.65071762],0,1,0,0.21969125,0,0,0,0.246833038,0.340434331,0.121601334,0.462035665,0.218832996,nan,nan,nan,[ nan  nan  nan],nan,nan,nan,260.3439466,369.3623462,369.5820375,nan,nan
0,102,21:20:52:673000,6,1,212,149.0625,[ 0.93926289  0.04677313  0.543851  ],1,1,1,0.365881146,0,0,0,0.286359951,0.339250575,0.121587187,0.460837762,0.217663388,nan,nan,nan,[ nan  nan  nan],nan,nan,nan,260.3439466,370.3041352,370.6700164,nan,nan
0,103,21:20:53:624000,6,1,352,247.5,[-0.17544713  0.4708516   0.11867359],1,1,1,0.304083912,0,0,0,0.296552103,0.339509124,0.121023692,0.460532816,0.218485432,nan,nan,nan,[ nan  nan  nan],nan,nan,nan,260.3439466,371.2459214,371.5500053,nan,nan
0,104,21:20:54:560000,6,0,460,323.4375,[ 0.41584892  0.38333493 -1.        ],0,1,0,0.242271568,0,0,0,0.304078876,0.339168497,0.120490044,0.459658541,0.218678453,nan,nan,nan,[ nan  nan  nan],nan,nan,nan,260.3439466,372.1877115,372.4299831,nan,nan
0,105,21:20:55:512000,6,1,353,248.203125,[-0.17504126  0.47149007  0.10879922],1,1,1,0.220476695,0,0,0,0.255610725,0.338245669,0.120283636,0.458529305,0.217962033,nan,nan,nan,[ nan  nan  nan],nan,nan,nan,260.3439466,373.1295,373.3499767,nan,nan
0,106,21:20:56:448000,6,1,117,82.265625,[ 1.         -0.30758797 -0.27188654],1,1,1,0.262670317,0,0,0,0.241806194,0.337134641,0.120255026,0.457389667,0.216879615,nan,nan,nan,[ nan  nan  nan],nan,nan,nan,260.3439466,374.0712896,374.3339599,nan,nan
0,107,21:20:57:384000,6,1,405,284.765625,[ 0.01846332  0.46800938 -0.47629333],1,1,1,0.248864455,0,0,0,0.244003823,0.336438713,0.119906033,0.456344746,0.21653268,nan,nan,nan,[ nan  nan  nan],nan,nan,nan,260.3439466,375.0130749,375.2619393,nan,nan
0,108,21:20:58:336000,6,1,71,49.921875,[ 1.         -0.14450407 -0.87798077],1,1,1,0.33104932,0,0,0,0.280861364,0.33562784,0.119643998,0.455271838,0.215983842,nan,nan,nan,[ nan  nan  nan],nan,nan,nan,260.3439466,375.954867,376.2859163,nan,nan
0,109,21:20:59:272000,6,1,386,271.40625,[-0.08339466  0.47749559 -0.24542474],1,1,1,0.421233174,0,0,0,0.33371565,0.335585835,0.119094708,0.454680543,0.216491128,nan,nan,nan,[ nan  nan  nan],nan,nan,nan,260.3439466,376.8966543,377.3178875,nan,nan
0,110,21:21:00:208000,6,1,124,87.1875,[ 1.         -0.31157719 -0.19822652],1,1,1,0.431439391,0,0,0,0.394573961,0.336364448,0.118830501,0.455194948,0.217533947,nan,nan,nan,[ nan  nan  nan],nan,nan,nan,260.3439466,377.8384459,378.2698853,nan,nan
0,111,21:21:01:159000,6,1,468,329.0625,[ 0.48123648  0.36313162 -1.        ],1,1,1,0.241634945,0,0,0,0.36476917,0.337220979,0.11863463,0.455855609,0.218586349,nan,nan,nan,[ nan  nan  nan],nan,nan,nan,260.3439466,378.7802264,379.0218613,nan,nan
0,112,21:21:02:095000,6,1,413,290.390625,[ 0.06831062  0.46114313 -0.5854956 ],1,1,1,0.291844093,0,0,0,0.321639476,0.336367532,0.118445609,0.454813141,0.217921922,nan,nan,nan,[ nan  nan  nan],nan,nan,nan,260.3439466,379.7220176,380.0138617,nan,nan
0,113,21:21:03:047000,6,1,350,246.09375,[-0.17575682  0.46949094  0.13824748],1,1,1,0.398026781,0,0,0,0.310501939,0.335973519,0.117994052,0.453967571,0.217979467,nan,nan,nan,[ nan  nan  nan],nan,nan,nan,260.3439466,380.6638098,381.0618366,nan,nan
0,114,21:21:03:983000,6,1,395,277.734375,[-0.03839842  0.47418351 -0.35142722],1,1,1,0.328218583,0,0,0,0.339363152,0.336517846,0.11761781,0.454135656,0.218900036,nan,nan,nan,[ nan  nan  nan],nan,nan,nan,260.3439466,381.605596,381.9338145,nan,nan
0,115,21:21:04:919000,6,1,143,100.546875,[ 1.         -0.28705753 -0.00469999],1,1,1,0.306405179,0,0,0,0.344216848,0.336445679,0.117107847,0.453553525,0.219337832,nan,nan,nan,[ nan  nan  nan],nan,nan,nan,260.3439466,382.5473941,382.8537993,nan,nan
0,116,21:21:05:870000,6,1,379,266.484375,[-0.11353594  0.47861499 -0.16597052],1,1,1,0.23649235,0,0,0,0.290372037,0.336186709,0.116635046,0.452821755,0.219551663,nan,nan,nan,[ nan  nan  nan],nan,nan,nan,260.3439466,383.4892946,383.7257869,nan,nan
0,117,21:21:06:806000,6,1,226,158.90625,[ 0.80126593  0.12020899  0.60458277],1,1,1,0.270812711,0,0,0,0.271236747,0.33533462,0.116497576,0.451832196,0.218837045,nan,nan,nan,[ nan  nan  nan],nan,nan,nan,260.3439466,384.430963,384.7017757,nan,nan
0,118,21:21:07:742000,6,1,326,229.21875,[-0.12383419  0.44407177  0.35222354],1,1,1,0.328988918,0,0,0,0.27876466,0.334787824,0.116153571,0.450941396,0.218634253,nan,nan,nan,[ nan  nan  nan],nan,nan,nan,260.3439466,385.3727597,385.7017486,nan,nan
0,119,21:21:08:694000,6,1,209,146.953125,[ 0.96730184  0.03048352  0.52805   ],1,1,1,0.275204928,0,0,0,0.291668852,0.334739094,0.115665713,0.450404807,0.219073381,nan,nan,nan,[ nan  nan  nan],nan,nan,nan,260.3439466,386.3145407,386.5897457,nan,nan
0,120,21:21:09:630000,6,1,106,74.53125,[ 1.         -0.28763007 -0.39056445],1,1,1,0.437388812,0,0,0,0.347194219,0.334242976,0.115309839,0.449552815,0.218933137,nan,nan,nan,[ nan  nan  nan],nan,nan,nan,260.3439466,387.2563297,387.6937186,nan,nan
0,121,21:21:10:582000,6,1,359,252.421875,[-0.16922234  0.47474188  0.0483828 ],1,1,1,0.415581679,0,0,0,0.376058473,0.335095421,0.11521142,0.450306841,0.219884001,nan,nan,nan,[ nan  nan  nan],nan,nan,nan,260.3439466,388.1981193,388.613701,nan,nan
0,122,21:21:11:518000,6,0,312,219.375,[-0.04644836  0.4209252   0.45557321],0,0,1,0.62578801,0,0,0,0.492919501,0.335755144,0.114967535,0.450722679,0.220787609,nan,nan,nan,[ nan  nan  nan],nan,nan,nan,260.3439466,389.1398932,389.7656812,nan,nan
0,123,21:21:12:454000,6,1,119,83.671875,[ 1.         -0.30944633 -0.2507109 ],1,1,1,0.643966418,0,0,0,0.561778703,0.338113135,0.117424057,0.455537192,0.220689078,nan,nan,nan,[ nan  nan  nan],nan,nan,nan,260.3439466,390.0816979,390.7256643,nan,nan
0,124,21:21:13:405000,6,1,493,346.640625,[ 0.68976908  0.28570078 -1.        ],1,1,1,0.438160287,0,0,0,0.569304905,0.340579694,0.120106342,0.460686036,0.220473351,nan,nan,nan,[ nan  nan  nan],nan,nan,nan,260.3439466,391.0234844,391.4616447,nan,nan
0,125,21:21:14:341000,6,1,228,160.3125,[ 0.78072981  0.13027695  0.61143314],1,1,1,0.344356831,0,0,1,0.475494512,0.341360339,0.119940383,0.461300722,0.221419955,nan,nan,nan,[ nan  nan  nan],nan,nan,nan,260.3439466,391.9652668,392.3096236,nan,nan
0,126,21:21:19:224000,6,1,414,291.09375,[ 0.07478379  0.46016219 -0.60008918],1,1,1,0.298558716,1,0,0,0.360358611,0.34138412,0.119463777,0.460847898,0.221920343,nan,162.3620044,409,[ 0.04294362  0.46479315 -0.52946185],nan,-3.455754438,1.900551607,260.3439466,392.9070587,393.2056174,394.732231,396.6408115
0,127,21:21:20:160000,6,1,335,235.546875,[-0.15559599  0.45562772  0.27689323],1,nan,nan,nan,0,0,0,0.321457774,0.341046912,0.119052706,0.460099618,0.221994207,nan,nan,nan,[ nan  nan  nan],nan,nan,nan,260.3439466,397.7909919,nan,nan,nan
0,128,21:21:21:112000,6,1,457,321.328125,[ 0.39163925  0.39035818 -1.        ],1,1,1,0.144605607,0,0,0,0.221582162,0.341046912,0.119052706,0.460099618,0.221994207,nan,nan,nan,[ nan  nan  nan],nan,nan,nan,260.3439466,398.7329095,398.8775151,nan,nan
0,129,21:21:22:048000,6,1,158,111.09375,[ 1.         -0.23594923  0.13976411],1,1,1,0.202895853,0,0,0,0.17375073,0.339512215,0.119841306,0.45935352,0.219670909,nan,nan,nan,[ nan  nan  nan],nan,nan,nan,260.3439466,399.6746019,399.8774977,nan,nan
0,130,21:21:22:999000,6,1,66,46.40625,[ 1.         -0.11856871 -1.        ],1,1,1,0.213093231,0,1,0,0.186864897,0.338453173,0.119975692,0.458428865,0.218477482,nan,nan,nan,[ nan  nan  nan],nan,nan,nan,260.3439466,400.6163935,400.8294867,nan,nan
0,131,21:21:27:539000,6,1,483,339.609375,[ 0.60602571  0.31931445 -1.        ],1,1,1,0.239278326,1,0,0,0.21842247,0.337488866,0.120014157,0.457503023,0.217474709,nan,131.9444065,452,[ 0.35173807  0.40140621 -1.        ],nan,-21.55378154,1.558804277,260.3439466,401.5581791,401.7974574,403.3833756,404.9502222
0,132,21:21:28:475000,6,1,51,35.859375,[ 1.         -0.03851602 -1.        ],1,1,1,0.680950448,0,0,0,0.377774002,0.336739167,0.119860396,0.456599563,0.216878771,nan,nan,nan,[ nan  nan  nan],nan,nan,nan,260.3439466,406.100428,406.7813784,nan,nan
0,133,21:21:29:426000,6,1,282,198.28125,[ 0.20814231  0.34807905  0.6092955 ],1,1,1,0.563132632,0,0,0,0.494453802,0.339346828,0.123079096,0.462425924,0.216267733,nan,nan,nan,[ nan  nan  nan],nan,nan,nan,260.3439466,407.0422227,407.6053553,nan,nan
0,134,21:21:30:362000,6,1,58,40.78125,[ 1.         -0.07608966 -1.        ],1,1,1,0.581325579,0,0,1,0.608469553,0.341029428,0.124130079,0.465159507,0.21689935,nan,nan,nan,[ nan  nan  nan],nan,nan,nan,260.3439466,407.9840103,408.5653359,nan,nan
0,135,21:21:34:325000,6,1,194,136.40625,[ 1.         -0.05248646  0.4355717 ],1,1,1,0.559520728,1,0,0,0.56799298,0.342822683,0.125383355,0.468206038,0.217439328,nan,-28.88658177,169,[ 1.         -0.18591738  0.2391183 ],nan,-17.51966823,0.975412879,260.3439466,408.9257953,409.485316,410.7509756,411.7344274
0,136,21:21:35:276000,6,1,422,296.71875,[ 0.12832838  0.45131367 -0.73089489],1,1,1,0.480286341,0,0,0,0.540377549,0.344427854,0.126292497,0.470720351,0.218135357,nan,nan,nan,[ nan  nan  nan],nan,nan,nan,260.3439466,412.8929766,413.3732629,nan,nan
0,137,21:21:36:228000,6,1,139,97.734375,[ 1.         -0.29633561 -0.04459929],1,1,1,0.530456715,0,0,0,0.523421261,0.345426813,0.126361529,0.471788343,0.219065284,nan,nan,nan,[ nan  nan  nan],nan,nan,nan,260.3439466,413.8347761,414.3652328,nan,nan
0,138,21:21:37:164000,6,0,425,298.828125,[ 0.14916262  0.4475296  -0.79171567],0,1,0,0.780031634,0,0,0,0.596924897,0.346777397,0.126880893,0.47365829,0.219896503,nan,nan,nan,[ nan  nan  nan],nan,nan,nan,260.3439466,414.793188,415.5732197,nan,nan
0,139,21:21:38:116000,6,1,100,70.3125,[ 1.         -0.27042709 -0.4574399 ],1,1,1,0.566201995,0,0,0,0.625563448,0.34991692,0.131652796,0.481569716,0.218264124,nan,nan,nan,[ nan  nan  nan],nan,nan,nan,260.3439466,415.7349719,416.3011739,nan,nan
0,140,21:21:39:052000,6,1,26,18.28125,[ 1.          0.09209217 -1.        ],1,1,1,0.440384335,0,0,0,0.595539322,0.351472928,0.132445781,0.483918708,0.219027147,nan,nan,nan,[ nan  nan  nan],nan,nan,nan,260.3439466,416.6767997,417.117184,nan,nan
0,141,21:21:39:988000,6,1,306,215.15625,[-0.00395437  0.40897401  0.49412883],1,1,1,0.314567815,0,0,0,0.440384715,0.352108009,0.132184145,0.484292155,0.219923864,nan,nan,nan,[ nan  nan  nan],nan,nan,nan,260.3439466,417.6186061,417.9331739,nan,nan
0,142,21:21:40:939000,6,1,129,90.703125,[ 1.         -0.31007049 -0.146368  ],1,1,1,0.300773071,0,0,0,0.351908407,0.351841767,0.13175224,0.483594007,0.220089527,nan,nan,nan,[ nan  nan  nan],nan,nan,nan,260.3439466,418.5603783,418.8611514,nan,nan
0,143,21:21:41:875000,6,1,434,305.15625,[ 0.21388182  0.43461034 -1.        ],1,1,1,0.454981343,0,0,0,0.356774076,0.351482128,0.13135694,0.482839068,0.220125188,nan,nan,nan,[ nan  nan  nan],nan,nan,nan,260.3439466,419.5021608,419.9571421,nan,nan
0,144,21:21:42:827000,6,1,222,156.09375,[ 0.84177847  0.09972916  0.58948469],1,1,1,0.44915822,0,0,0,0.401637545,0.352205899,0.131180675,0.483386574,0.221025223,nan,nan,nan,[ nan  nan  nan],nan,nan,nan,260.3439466,420.4439558,420.893114,nan,nan
0,145,21:21:43:763000,6,1,85,59.765625,[ 1.         -0.21215645 -0.63878123],1,1,1,0.435371174,0,0,0,0.446503579,0.352879179,0.130972095,0.483851274,0.221907083,nan,nan,nan,[ nan  nan  nan],nan,nan,nan,260.3439466,421.3857371,421.8211082,nan,nan
0,146,21:21:44:699000,6,1,39,27.421875,[ 1.          0.02537899 -1.        ],1,1,1,0.277578083,0,0,0,0.387369159,0.353448089,0.130698108,0.484146197,0.222749981,nan,nan,nan,[ nan  nan  nan],nan,nan,nan,260.3439466,422.3275261,422.6051042,nan,nan
0,147,21:21:45:650000,6,1,264,185.625,[ 0.39496696  0.28788971  0.65071762],1,1,1,0.303752344,0,0,0,0.338900534,0.352928432,0.130399969,0.4833284,0.222528463,nan,nan,nan,[ nan  nan  nan],nan,nan,nan,260.3439466,423.2693194,423.5730717,nan,nan
0,148,21:21:46:586000,6,1,80,56.25,[ 1.         -0.18907571 -0.70896555],1,1,1,0.313950578,0,0,0,0.298427001,0.3525939,0.130018523,0.482612423,0.222575377,nan,nan,nan,[ nan  nan  nan],nan,nan,nan,260.3439466,424.2111067,424.5250572,nan,nan
0,149,21:21:47:522000,6,1,489,343.828125,[ 0.65628486  0.29957244 -1.        ],1,1,1,0.452135497,0,0,0,0.356612806,0.352332797,0.129617191,0.481949988,0.222715605,nan,nan,nan,[ nan  nan  nan],nan,nan,nan,260.3439466,425.1529002,425.6050357,nan,nan
0,150,21:21:48:474000,6,1,269,189.140625,[ 0.34171297  0.30588835  0.64326235],1,1,1,0.382329295,0,0,0,0.382805123,0.353002614,0.129438253,0.482440867,0.22356436,nan,nan,nan,[ nan  nan  nan],nan,nan,nan,260.3439466,426.0946881,426.4770174,nan,nan
0,151,21:21:49:410000,6,0,137,96.328125,[ 1.         -0.30019022 -0.06473166],0,0,1,0.528524607,0,0,0,0.4543298,0.353198125,0.129028143,0.482226268,0.224169981,nan,nan,nan,[ nan  nan  nan],nan,nan,nan,260.3439466,427.0364746,427.5649992,nan,nan
0,152,21:21:50:362000,6,1,184,129.375,[ 1.         -0.10767189  0.36264005],1,1,1,0.418733436,0,0,0,0.443195779,0.354359227,0.129384049,0.483743277,0.224975178,nan,nan,nan,[ nan  nan  nan],nan,nan,nan,260.3439466,427.9782621,428.3969956,nan,nan
0,153,21:21:51:298000,6,1,288,202.5,[ 0.15000513  0.36533195  0.58668724],1,1,1,0.348917255,0,0,0,0.432058433,0.354782742,0.12906271,0.483845452,0.225720032,nan,nan,nan,[ nan  nan  nan],nan,nan,nan,260.3439466,428.9200523,429.2689696,nan,nan
0,154,21:21:52:234000,6,1,133,93.515625,[ 1.         -0.30625957 -0.10533643],1,1,1,0.303123988,0,0,0,0.356924893,0.354744405,0.128641114,0.483385519,0.226103292,nan,nan,nan,[ nan  nan  nan],nan,nan,nan,260.3439466,429.861839,430.164963,nan,nan
0,155,21:21:53:185000,6,1,308,216.5625,[-0.01868286  0.41309748  0.48168233],1,1,1,0.345324453,0,0,0,0.332455232,0.354409208,0.128289784,0.482698992,0.226119424,nan,nan,nan,[ nan  nan  nan],nan,nan,nan,260.3439466,430.803626,431.1489505,nan,nan
0,156,21:21:54:121000,6,0,0,0,[ 0.84683171  0.21209757 -1.        ],0,1,0,0.315515765,0,0,0,0.321321402,0.354350596,0.127877345,0.482227942,0.226473251,nan,nan,nan,[ nan  nan  nan],nan,nan,nan,260.3439466,431.7454156,432.0609314,nan,nan
0,157,21:21:55:057000,6,1,307,215.859375,[-0.01138687  0.41105336  0.48795701],1,1,1,0.365693837,0,0,0,0.342178018,0.354101655,0.127504496,0.481606151,0.226597159,nan,nan,nan,[ nan  nan  nan],nan,nan,nan,260.3439466,432.6872066,433.0529005,nan,nan
0,158,21:21:56:009000,6,1,400,281.25,[-0.01078748  0.4714273  -0.41269269],1,1,1,0.27990106,0,0,0,0.320370221,0.354175491,0.127101128,0.481276619,0.227074363,nan,nan,nan,[ nan  nan  nan],nan,nan,nan,260.3439466,433.6289937,433.9088947,nan,nan
0,159,21:21:56:945000,6,1,356,250.3125,[-0.17284378  0.47323941  0.07883681],1,1,1,0.314081723,0,0,0,0.319892206,0.353705399,0.126835116,0.480540515,0.226870284,nan,nan,nan,[ nan  nan  nan],nan,nan,nan,260.3439466,434.5707838,434.8848655,nan,nan
0,160,21:21:57:896000,6,1,427,300.234375,[ 0.16326517  0.44486322 -0.84020871],1,1,1,0.308286254,0,0,0,0.300756346,0.353456194,0.126474432,0.479930626,0.226981762,nan,nan,nan,[ nan  nan  nan],nan,nan,nan,260.3439466,435.5125728,435.8208591,nan,nan
0,161,21:21:58:832000,6,0,296,208.125,[ 0.07727136  0.38620532  0.55000131],0,1,0,0.246482178,0,0,0,0.289616718,0.353173882,0.126128825,0.479302707,0.227045056,nan,nan,nan,[ nan  nan  nan],nan,nan,nan,260.3439466,436.4543615,436.7008437,nan,nan
0,162,21:21:59:768000,6,1,89,62.578125,[ 1.         -0.2294841  -0.58737049],1,1,1,0.248680852,0,0,0,0.267816428,0.3525112,0.126015609,0.478526809,0.226495592,nan,nan,nan,[ nan  nan  nan],nan,nan,nan,260.3439466,437.3961463,437.6448271,nan,nan
0,163,21:22:00:720000,6,1,220,154.6875,[ 0.86173155  0.08932726  0.58124768],1,1,1,0.250884088,0,0,0,0.248682373,0.351870272,0.125889024,0.477759296,0.225981248,nan,nan,nan,[ nan  nan  nan],nan,nan,nan,260.3439466,438.3379347,438.5888188,nan,nan
0,164,21:22:01:656000,6,1,154,108.28125,[ 1.         -0.25181315  0.10213817],1,1,1,0.293068873,0,0,0,0.264211271,0.351250725,0.125749755,0.47700048,0.22550097,nan,nan,nan,[ nan  nan  nan],nan,nan,nan,260.3439466,439.2797266,439.5727955,nan,nan
0,165,21:22:02:592000,6,1,373,262.265625,[-0.13540771  0.47855957 -0.09969749],1,1,1,0.279263581,0,0,0,0.274405514,0.350895958,0.12544758,0.476343538,0.225448378,nan,nan,nan,[ nan  nan  nan],nan,nan,nan,260.3439466,440.2215164,440.50078,nan,nan
0,166,21:22:03:544000,6,1,507,356.484375,[ 0.80599565  0.23268835 -1.        ],1,1,1,0.289462956,0,0,0,0.287265136,0.350461822,0.12519037,0.475652192,0.225271452,nan,nan,nan,[ nan  nan  nan],nan,nan,nan,260.3439466,441.163302,441.452765,nan,nan
0,167,21:22:04:480000,6,1,294,206.71875,[ 0.0948762   0.38121213  0.55985823],1,1,1,0.30764906,0,0,0,0.292125199,0.350094359,0.124901942,0.474996301,0.225192417,nan,nan,nan,[ nan  nan  nan],nan,nan,nan,260.3439466,442.1050928,442.4127418,nan,nan
0,168,21:22:05:431000,6,1,393,276.328125,[-0.04894566  0.47510217 -0.32744323],1,1,1,0.317840167,0,0,0,0.304984061,0.349840196,0.124570472,0.474410667,0.225269724,nan,nan,nan,[ nan  nan  nan],nan,nan,nan,260.3439466,443.0468829,443.3647231,nan,nan
0,169,21:22:06:367000,6,1,120,84.375,[ 1.         -0.3101615  -0.24016291],1,1,1,0.424046804,0,0,0,0.349845344,0.349649719,0.124223562,0.473873282,0.225426157,nan,nan,nan,[ nan  nan  nan],nan,nan,nan,260.3439466,443.9886654,444.4127122,nan,nan
0,170,21:22:07:303000,6,1,378,265.78125,[-0.11745014  0.47867092 -0.15481012],1,1,1,0.402229123,0,0,0,0.381372031,0.350089939,0.123986855,0.474076793,0.226103084,nan,nan,nan,[ nan  nan  nan],nan,nan,nan,260.3439466,444.9304541,445.3326832,nan,nan
0,171,21:22:08:255000,6,1,262,184.21875,[ 0.41645248  0.28041442  0.65281554],1,1,1,0.308428803,0,0,0,0.37823491,0.35039664,0.12368593,0.47408257,0.22671071,nan,nan,nan,[ nan  nan  nan],nan,nan,nan,260.3439466,445.8722451,446.1806739,nan,nan
0,172,21:22:09:191000,6,1,307,215.859375,[-0.01138687  0.41105336  0.48795701],1,1,1,0.310628048,0,0,0,0.340428658,0.350151214,0.123365254,0.473516468,0.22678596,nan,nan,nan,[ nan  nan  nan],nan,nan,nan,260.3439466,446.8140338,447.1246619,nan,nan
0,173,21:22:10:127000,6,1,30,21.09375,[ 1.          0.07194566 -1.        ],1,1,1,0.304811482,0,0,0,0.307956111,0.349921428,0.123042807,0.472964235,0.226878621,nan,nan,nan,[ nan  nan  nan],nan,nan,nan,260.3439466,447.7558354,448.0606469,nan,nan
0,174,21:22:11:078000,6,0,196,137.8125,[ 1.         -0.04136108  0.44913076],0,0,1,0.531017503,0,0,0,0.382152344,0.349660677,0.122734328,0.472395005,0.226926349,nan,nan,nan,[ nan  nan  nan],nan,nan,nan,260.3439466,448.6976101,449.2286276,nan,nan
0,175,21:22:12:014000,6,1,335,235.546875,[-0.15559599  0.45562772  0.27689323],1,1,1,0.25320621,0,0,0,0.363011732,0.350702958,0.123146581,0.473849539,0.227556376,nan,nan,nan,[ nan  nan  nan],nan,nan,nan,260.3439466,449.639412,449.8926182,nan,nan
0,176,21:22:12:950000,6,1,257,180.703125,[ 0.4704729   0.26103985  0.65584138],1,1,1,0.239402914,0,0,0,0.341208876,0.350145833,0.123013943,0.473159777,0.22713189,nan,nan,nan,[ nan  nan  nan],nan,nan,nan,260.3439466,450.5811916,450.8205945,nan,nan
0,177,21:22:13:902000,6,1,475,333.984375,[ 0.53921875  0.34365981 -1.        ],1,1,1,0.241609286,0,0,0,0.24473947,0.349516612,0.122946071,0.472462683,0.226570541,nan,nan,nan,[ nan  nan  nan],nan,nan,nan,260.3439466,451.5229783,451.7645876,nan,nan
0,178,21:22:14:838000,6,1,361,253.828125,[-0.16604781  0.47560771  0.02781731],1,1,1,0.203802179,0,0,0,0.22827146,0.348906966,0.122864765,0.471771731,0.226042202,nan,nan,nan,[ nan  nan  nan],nan,nan,nan,260.3439466,452.4647648,452.6685669,nan,nan
0,179,21:22:15:790000,6,1,269,189.140625,[ 0.34171297  0.30588835  0.64326235],1,1,1,0.213988724,0,1,0,0.219800063,0.348091771,0.12299824,0.471090011,0.225093531,nan,nan,nan,[ nan  nan  nan],nan,nan,nan,260.3439466,453.4065543,453.6205431,nan,nan
0,180,21:22:20:392000,6,1,208,146.25,[ 0.97651258  0.02502074  0.52257448],1,1,1,0.280189008,1,0,0,0.23265997,0.347342592,0.123060781,0.470403373,0.224281811,nan,-31.49649991,173,[ 1.         -0.16590952  0.27353519],nan,-24.75350009,1.617186324,260.3439466,454.3483414,454.6285304,456.1735219,457.7987286
0,181,21:22:21:328000,6,1,480,337.5,[ 0.58092807  0.32870764 -1.        ],1,1,1,0.74316592,0,0,0,0.412447884,0.346969516,0.122819937,0.469789453,0.22414958,nan,nan,nan,[ nan  nan  nan],nan,nan,nan,260.3439466,458.9572704,459.7004363,nan,nan
0,182,21:22:22:279000,6,1,78,54.84375,[ 1.         -0.17946765 -0.73990763],1,1,1,0.609362385,0,0,0,0.544239104,0.349158447,0.125951779,0.475110226,0.223206667,nan,nan,nan,[ nan  nan  nan],nan,nan,nan,260.3439466,459.8990546,460.5084169,nan,nan
0,183,21:22:23:215000,6,1,429,301.640625,[ 0.17753182  0.44208078 -0.9018852 ],1,1,1,0.49156139,0,0,1,0.614696565,0.350588139,0.127069486,0.477657624,0.223518653,nan,nan,nan,[ nan  nan  nan],nan,nan,nan,260.3439466,460.8408487,461.3324101,nan,nan
0,184,21:22:27:006000,6,1,360,253.125,[-0.1677095   0.47518832  0.03812586],1,1,1,0.253792656,1,0,0,0.451572143,0.351358484,0.12714726,0.478505744,0.224211224,nan,-178.9087838,382,[-0.10118876  0.47829114 -0.19973227],nan,15.78378377,0.792147722,260.3439466,461.7826024,462.036395,463.6161469,464.4162545
0,185,21:22:27:942000,6,1,22,15.46875,[ 1.          0.11184242 -1.        ],1,1,1,0.245868647,0,0,0,0.330407564,0.350828235,0.127004007,0.477832242,0.223824228,nan,nan,nan,[ nan  nan  nan],nan,nan,nan,260.3439466,465.566456,465.8123247,nan,nan
0,186,21:22:28:878000,6,1,433,304.453125,[ 0.2065363   0.43616372 -1.        ],1,1,1,0.296060404,0,0,0,0.265240569,0.350260886,0.126893874,0.47715476,0.223367012,nan,nan,nan,[ nan  nan  nan],nan,nan,nan,260.3439466,466.5082502,466.8043106,nan,nan
0,187,21:22:29:830000,6,0,260,182.8125,[ 0.43801664  0.27278198  0.65440657],0,1,0,0.258257003,0,0,0,0.266728685,0.349969486,0.126614353,0.476583838,0.223355133,nan,nan,nan,[ nan  nan  nan],nan,nan,nan,260.3439466,467.4500415,467.7082985,nan,nan
0,188,21:22:30:766000,6,1,46,32.34375,[ 1.         -0.01173137 -1.        ],1,1,1,0.532427596,0,0,0,0.362248335,0.349479045,0.126452382,0.475931427,0.223026662,nan,nan,nan,[ nan  nan  nan],nan,nan,nan,260.3439466,468.3918219,468.9242495,nan,nan
0,189,21:22:31:717000,6,0,449,315.703125,[ 0.32809501  0.40764625 -1.        ],0,nan,nan,nan,0,0,0,0.3953423,0.350452175,0.126815758,0.477267934,0.223636417,nan,nan,nan,[ nan  nan  nan],nan,nan,nan,260.3439466,469.3336123,nan,nan,nan
0,190,21:22:32:653000,6,1,291,204.609375,[ 0.12202764  0.37344194  0.57379193],1,1,1,0.456835049,0,0,0,0.494631323,0.350452175,0.126815758,0.477267934,0.223636417,nan,nan,nan,[ nan  nan  nan],nan,nan,nan,260.3439466,470.2754028,470.7322378,nan,nan
0,191,21:22:33:589000,6,1,228,160.3125,[ 0.78072981  0.13027695  0.61143314],1,1,1,0.387035119,0,0,0,0.421935084,0.351015048,0.126715068,0.477730116,0.224299979,nan,nan,nan,[ nan  nan  nan],nan,nan,nan,260.3439466,471.2171946,471.6042298,nan,nan
0,192,21:22:34:541000,6,1,353,248.203125,[-0.17504126  0.47149007  0.10879922],1,1,1,0.317227492,0,0,0,0.387032554,0.351204627,0.126408039,0.477612666,0.224796588,nan,nan,nan,[ nan  nan  nan],nan,nan,nan,260.3439466,472.1589839,472.4762114,nan,nan
0,193,21:22:35:477000,6,1,117,82.265625,[ 1.         -0.30758797 -0.27188654],1,1,1,0.263419555,0,0,0,0.322560722,0.351026736,0.126100536,0.477127272,0.2249262,nan,nan,nan,[ nan  nan  nan],nan,nan,nan,260.3439466,473.1007693,473.3641888,nan,nan
0,194,21:22:36:413000,6,1,184,129.375,[ 1.         -0.10767189  0.36264005],1,1,1,0.241613848,0,0,0,0.274086965,0.350570449,0.125929709,0.476500157,0.22464074,nan,nan,nan,[ nan  nan  nan],nan,nan,nan,260.3439466,474.0425625,474.2841764,nan,nan
0,195,21:22:37:364000,6,1,133,93.515625,[ 1.         -0.30625957 -0.10533643],1,1,1,0.291808455,0,0,0,0.265613953,0.350005907,0.125846399,0.475852306,0.224159508,nan,nan,nan,[ nan  nan  nan],nan,nan,nan,260.3439466,474.984347,475.2761554,nan,nan
0,196,21:22:38:301000,6,1,408,286.875,[ 0.03673793  0.46563766 -0.51593845],1,1,1,0.270006169,0,0,0,0.267809491,0.34970592,0.1255908,0.475296719,0.22411512,nan,nan,nan,[ nan  nan  nan],nan,nan,nan,260.3439466,475.9261357,476.1961419,nan,nan
0,197,21:22:39:252000,6,1,51,35.859375,[ 1.         -0.03851602 -1.        ],1,1,1,0.296196396,0,0,0,0.286003674,0.349297203,0.125397644,0.474694847,0.223899559,nan,nan,nan,[ nan  nan  nan],nan,nan,nan,260.3439466,476.8679213,477.1641177,nan,nan
0,198,21:22:40:188000,6,1,292,205.3125,[ 0.11288167  0.37606958  0.56926185],1,1,1,0.266397116,0,0,0,0.277533227,0.349026281,0.125134545,0.474160826,0.223891735,nan,nan,nan,[ nan  nan  nan],nan,nan,nan,260.3439466,477.8097115,478.0761086,nan,nan
0,199,21:22:41:124000,6,1,454,319.21875,[ 0.36762736  0.39708484 -1.        ],1,1,1,0.212595451,0,0,0,0.258396321,0.348606843,0.124954595,0.473561438,0.223652249,nan,nan,nan,[ nan  nan  nan],nan,nan,nan,260.3439466,478.7514988,478.9640942,nan,nan
0,200,21:22:42:076000,6,1,152,106.875,[ 1.         -0.25918449  0.08306255],1,1,1,0.246800062,0,0,0,0.241930876,0.347919917,0.125011007,0.472930924,0.22290891,nan,nan,nan,[ nan  nan  nan],nan,nan,nan,260.3439466,479.6932863,479.9400864,nan,nan
0,201,21:22:43:012000,6,0,78,54.84375,[ 1.         -0.17946765 -0.73990763],0,0,1,0.568885051,0,0,0,0.342760188,0.347411777,0.124901342,0.472313119,0.222510435,nan,nan,nan,[ nan  nan  nan],nan,nan,nan,260.3439466,480.6351717,481.2040568,nan,nan
0,202,21:22:43:948000,6,1,194,136.40625,[ 1.         -0.05248646  0.4355717 ],1,1,1,0.571160132,0,0,0,0.462281748,0.348519143,0.125564204,0.474083348,0.222954939,nan,nan,nan,[ nan  nan  nan],nan,nan,nan,260.3439466,481.5768652,482.1480254,nan,nan
0,203,21:22:44:899000,6,1,435,305.859375,[ 0.22126383  0.43302706 -1.        ],1,1,1,0.501350223,0,0,0,0.547131802,0.34962681,0.126227235,0.475854045,0.223399575,nan,nan,nan,[ nan  nan  nan],nan,nan,nan,260.3439466,482.5186656,483.0200159,nan,nan
0,204,21:22:45:835000,6,1,380,267.1875,[-0.10951951  0.47853303 -0.17717739],1,1,1,0.327560007,0,0,0,0.466690121,0.350377916,0.126363892,0.476741808,0.224014024,nan,nan,nan,[ nan  nan  nan],nan,nan,nan,260.3439466,483.4604467,483.7880067,nan,nan
0,205,21:22:46:787000,6,1,113,79.453125,[ 1.         -0.30219199 -0.31457635],1,1,1,0.30576884,0,0,0,0.378226357,0.350265513,0.12606239,0.476327902,0.224203123,nan,nan,nan,[ nan  nan  nan],nan,nan,nan,260.3439466,484.4022308,484.7079997,nan,nan
0,206,21:22:47:723000,6,1,221,155.390625,[ 0.85178146  0.09454116  0.58542294],1,1,1,0.331957641,0,0,0,0.321762163,0.350047392,0.125791429,0.47583882,0.224255963,nan,nan,nan,[ nan  nan  nan],nan,nan,nan,260.3439466,485.3440238,485.6759815,nan,nan
0,207,21:22:48:659000,6,1,426,299.53125,[ 0.15619305  0.44621085 -0.8148597 ],1,1,1,0.422145486,0,0,0,0.353290656,0.349959149,0.125490575,0.475449724,0.224468574,nan,nan,nan,[ nan  nan  nan],nan,nan,nan,260.3439466,486.2858094,486.7079549,nan,nan
0,208,21:22:49:611000,6,1,235,165.234375,[ 0.70759192  0.16453778  0.63165963],1,1,1,0.368346102,0,0,0,0.374149743,0.350309568,0.125286116,0.475595684,0.225023452,nan,nan,nan,[ nan  nan  nan],nan,nan,nan,260.3439466,487.2276007,487.5959468,nan,nan
0,209,21:22:50:547000,6,1,29,20.390625,[ 1.          0.07701739 -1.        ],1,1,1,0.482536048,0,0,0,0.424342545,0.350396701,0.124989383,0.475386084,0.225407318,nan,nan,nan,[ nan  nan  nan],nan,nan,nan,260.3439466,488.1693863,488.6519224,nan,nan
0,210,21:22:51:483000,6,1,120,84.375,[ 1.         -0.3101615  -0.24016291],1,1,1,0.468725054,0,0,0,0.439869068,0.351031986,0.125023122,0.476055109,0.226008864,nan,nan,nan,[ nan  nan  nan],nan,nan,nan,260.3439466,489.1111748,489.5798998,nan,nan
0,211,21:22:52:434000,6,1,8,5.625,[ 0.91102659  0.17740094 -1.        ],1,1,1,0.5029137,0,0,1,0.484724934,0.351595111,0.124987805,0.476582916,0.226607306,nan,nan,nan,[ nan  nan  nan],nan,nan,nan,260.3439466,490.0529649,490.5558786,nan,nan
0,212,21:22:57:629000,6,1,383,269.296875,[-0.09687871  0.47813121 -0.21108141],1,1,1,0.585115385,1,0,0,0.518918046,0.352315676,0.125124245,0.477439921,0.227191431,nan,-175.006256,377,[-0.12125986  0.47870083 -0.1436959 ],nan,-4.290618986,2.217321232,260.3439466,490.9947513,491.5798667,492.8199465,495.0452812
0,213,21:22:58:565000,6,1,302,212.34375,[ 0.02708608  0.40030084  0.51777002],1,1,1,0.688352728,0,0,0,0.592127271,0.353418992,0.125847176,0.479266168,0.227571816,nan,nan,nan,[ nan  nan  nan],nan,nan,nan,260.3439466,496.1954251,496.8837779,nan,nan
0,214,21:22:59:517000,6,1,56,39.375,[ 1.         -0.06536751 -1.        ],1,1,1,0.682546711,0,0,0,0.652004941,0.354998868,0.127630186,0.482629054,0.227368682,nan,nan,nan,[ nan  nan  nan],nan,nan,nan,260.3439466,497.1372093,497.819756,nan,nan
0,215,21:23:00:453000,6,1,148,104.0625,[ 1.         -0.27269559  0.04442646],1,1,1,0.64472991,0,0,1,0.671876449,0.356536651,0.129283877,0.485820528,0.227252775,nan,nan,nan,[ nan  nan  nan],nan,nan,nan,260.3439466,498.0790026,498.7237325,nan,nan
0,216,21:23:06:053000,6,1,270,189.84375,[ 0.33115907  0.30936972  0.64139387],1,1,1,0.630936022,1,0,0,0.652737547,0.357883349,0.130470349,0.488353698,0.227413,nan,-86.31772594,251,[ 0.53557652  0.23650919  0.65528415],nan,-13.52602406,2.600628983,260.3439466,499.0207893,499.6517254,500.8542979,503.4629604
0,217,21:23:06:989000,6,1,91,63.984375,[ 1.         -0.2377099  -0.56272232],1,1,1,0.55838889,0,0,0,0.611351607,0.359153361,0.131485759,0.490639121,0.227667602,nan,nan,nan,[ nan  nan  nan],nan,nan,nan,260.3439466,504.6132466,505.1716354,nan,nan
0,218,21:23:07:925000,6,1,178,125.15625,[ 1.         -0.13991966  0.31509783],1,1,1,0.360655588,0,0,0,0.516660167,0.360075748,0.131876408,0.491952156,0.22819934,nan,nan,nan,[ nan  nan  nan],nan,nan,nan,260.3439466,505.5549577,505.9156133,nan,nan
0,219,21:23:08:877000,6,1,291,204.609375,[ 0.12202764  0.37344194  0.57379193],1,1,1,0.274843995,0,0,0,0.397962824,0.36007842,0.1315722,0.49165062,0.22850622,nan,nan,nan,[ nan  nan  nan],nan,nan,nan,260.3439466,506.4967553,506.7715993,nan,nan
0,220,21:23:09:813000,6,1,80,56.25,[ 1.         -0.18907571 -0.70896555],1,1,1,0.25303002,0,0,0,0.296176534,0.359687436,0.131396373,0.491083809,0.228291064,nan,nan,nan,[ nan  nan  nan],nan,nan,nan,260.3439466,507.4385452,507.6915752,nan,nan
0,221,21:23:10:764000,6,1,17,11.953125,[ 0.98106915  0.13592191 -1.        ],1,1,1,0.36721797,0,0,0,0.298363995,0.359200416,0.131293101,0.490493517,0.227907316,nan,nan,nan,[ nan  nan  nan],nan,nan,nan,260.3439466,508.3803333,508.7475513,nan,nan
0,222,21:23:11:700000,6,1,183,128.671875,[ 1.         -0.113109    0.35490284],1,1,1,0.353425222,0,0,0,0.324557737,0.35923686,0.130995478,0.490232337,0.228241382,nan,nan,nan,[ nan  nan  nan],nan,nan,nan,260.3439466,509.3221215,509.6755467,nan,nan
0,223,21:23:12:636000,6,1,126,88.59375,[ 1.         -0.31141175 -0.17740843],1,1,1,0.371608762,0,0,0,0.364083985,0.359210563,0.130699354,0.489909917,0.228511209,nan,nan,nan,[ nan  nan  nan],nan,nan,nan,260.3439466,510.2639282,510.6355369,nan,nan
0,224,21:23:13:588000,6,0,270,189.84375,[ 0.33115907  0.30936972  0.64139387],0,0,1,0.47779316,0,0,0,0.400942381,0.35926641,0.130407296,0.489673707,0.228859114,nan,nan,nan,[ nan  nan  nan],nan,nan,nan,260.3439466,511.2057206,511.6835138,nan,nan
0,225,21:23:14:524000,6,1,43,30.234375,[ 1.          0.00424534 -1.        ],1,1,1,0.512004044,0,0,0,0.453801989,0.359797921,0.130355354,0.490153274,0.229442567,nan,nan,nan,[ nan  nan  nan],nan,nan,nan,260.3439466,512.1474894,512.6594934,nan,nan
0,226,21:23:15:460000,6,1,180,126.5625,[ 1.         -0.12927862  0.33123896],1,1,1,0.58620902,0,0,0,0.525335408,0.360477412,0.130459265,0.490936677,0.230018147,nan,nan,nan,[ nan  nan  nan],nan,nan,nan,260.3439466,513.0892752,513.6754843,nan,nan
0,227,21:23:16:411000,6,1,437,307.265625,[ 0.23613483  0.42977024 -1.        ],1,1,1,0.556382086,0,0,1,0.551531717,0.361480664,0.131032195,0.492512859,0.230448468,nan,nan,nan,[ nan  nan  nan],nan,nan,nan,260.3439466,514.0310688,514.5874509,nan,nan
0,228,21:23:21:169000,6,1,156,109.6875,[ 1.         -0.24406061  0.12104147],1,1,1,0.670581725,1,0,0,0.604390944,0.362343059,0.131380378,0.493723437,0.230962682,nan,-29.24882634,170,[ 1.         -0.18099048  0.24781506],nan,9.561326337,1.775531936,260.3439466,514.9728541,515.6434359,516.7980507,518.5816255
0,229,21:23:22:105000,6,1,374,262.96875,[-0.13203913  0.47863408 -0.11062844],1,1,1,0.559561782,0,0,0,0.595508531,0.363700939,0.132670539,0.496371479,0.2310304,nan,nan,nan,[ nan  nan  nan],nan,nan,nan,260.3439466,519.7318033,520.2913651,nan,nan
0,230,21:23:23:057000,6,1,58,40.78125,[ 1.         -0.07608966 -1.        ],1,1,1,0.481751458,0,0,0,0.570631655,0.364559978,0.133010476,0.497570454,0.231549502,nan,nan,nan,[ nan  nan  nan],nan,nan,nan,260.3439466,520.6735884,521.1553398,nan,nan
0,231,21:23:23:993000,6,0,90,63.28125,[ 1.         -0.23363579 -0.57497187],0,1,0,0.267947478,0,0,0,0.436420239,0.365071731,0.132944504,0.498016235,0.232127227,nan,nan,nan,[ nan  nan  nan],nan,nan,nan,260.3439466,521.6153822,521.8833297,nan,nan
0,232,21:23:24:929000,6,1,371,260.859375,[-0.14179361  0.47833194 -0.07797326],1,1,1,0.478132142,0,0,0,0.409277026,0.364649452,0.132809006,0.497458457,0.231840446,nan,nan,nan,[ nan  nan  nan],nan,nan,nan,260.3439466,522.5571678,523.0353,nan,nan
0,233,21:23:25:881000,6,1,178,125.15625,[ 1.         -0.13991966  0.31509783],1,1,1,0.416342891,0,0,0,0.38747417,0.365140719,0.132730497,0.497871216,0.232410221,nan,nan,nan,[ nan  nan  nan],nan,nan,nan,260.3439466,523.4989446,523.9152875,nan,nan
0,234,21:23:26:817000,6,1,253,177.890625,[ 0.5138659   0.24483993  0.65597719],1,1,1,0.266536814,0,0,0,0.387003949,0.365361418,0.132486601,0.497848019,0.232874817,nan,nan,nan,[ nan  nan  nan],nan,nan,nan,260.3439466,524.4407487,524.7072855,nan,nan
0,235,21:23:27:768000,6,1,326,229.21875,[-0.12383419  0.44407177  0.35222354],1,1,1,0.244729682,0,0,0,0.309203129,0.364937278,0.132359743,0.497297021,0.232577535,nan,nan,nan,[ nan  nan  nan],nan,nan,nan,260.3439466,525.3825323,525.627262,nan,nan
0,236,21:23:28:704000,6,1,404,284.0625,[ 0.01248946  0.46874627 -0.4633491 ],1,1,1,0.262924055,0,0,0,0.258063517,0.36442357,0.132309188,0.496732758,0.232114382,nan,nan,nan,[ nan  nan  nan],nan,nan,nan,260.3439466,526.3243224,526.5872465,nan,nan
0,237,21:23:29:640000,6,1,202,142.03125,[ 1.         -0.00802826  0.48759698],1,1,1,0.20113851,0,0,0,0.236264082,0.363991657,0.132192592,0.496184249,0.231799066,nan,nan,nan,[ nan  nan  nan],nan,nan,nan,260.3439466,527.2661003,527.4672388,nan,nan
0,238,21:23:30:592000,6,1,317,222.890625,[-0.07777284  0.42993861  0.42073361],1,1,1,0.219324615,0,1,0,0.227795726,0.363301602,0.132335697,0.495637299,0.230965905,nan,nan,nan,[ nan  nan  nan],nan,nan,nan,260.3439466,528.2079016,528.4272262,nan,nan
0,239,21:23:35:568000,6,1,209,146.953125,[ 0.96730184  0.03048352  0.52805   ],1,1,1,0.23751015,1,0,0,0.219324425,0.362694104,0.132385573,0.495079677,0.230308531,nan,-29.99108632,171,[ 1.         -0.17601187  0.25645091],nan,-26.96203868,1.992217685,260.3439466,529.1496906,529.3872008,530.9748669,532.9751155
0,240,21:23:36:504000,6,1,295,207.421875,[ 0.08602229  0.38372732  0.55498608],1,1,1,0.25341091,0,0,0,0.236748558,0.362168121,0.132355089,0.49452321,0.229813032,nan,nan,nan,[ nan  nan  nan],nan,nan,nan,260.3439466,534.1337006,534.3871115,nan,nan
0,241,21:23:37:456000,6,1,42,29.53125,[ 1.          0.00954879 -1.        ],1,1,1,0.05569386,0,0,0,0.182204973,0.36171307,0.132264341,0.493977411,0.229448728,nan,nan,nan,[ nan  nan  nan],nan,nan,nan,260.3439466,535.0754523,535.1311461,nan,nan
0,242,21:23:38:392000,6,1,237,166.640625,[ 0.6863873   0.17403185  0.63634982],1,1,1,0.20183985,0,1,0,0.170314873,0.36043799,0.133452381,0.493890371,0.226985608,nan,nan,nan,[ nan  nan  nan],nan,nan,nan,260.3439466,536.0172456,536.2190854,nan,nan
0,243,21:23:43:961000,6,1,467,328.359375,[ 0.47300519  0.36577567 -1.        ],1,1,1,0.23602536,1,0,0,0.16451969,0.359779906,0.133564881,0.493344787,0.226215025,nan,151.830099,424,[ 0.14217456  0.44881957 -0.77022942],nan,-30.18947397,2.567294775,260.3439466,536.9590383,537.1950636,538.7925657,541.3678979
0,244,21:23:44:897000,6,1,307,215.859375,[-0.01138687  0.41105336  0.48795701],1,1,1,0.284547584,0,0,0,0.240804265,0.359268524,0.133524846,0.49279337,0.225743678,nan,nan,nan,[ nan  nan  nan],nan,nan,nan,260.3439466,542.5264166,542.8109642,nan,nan
0,245,21:23:45:849000,6,1,357,251.015625,[-0.17179183  0.47376752  0.06873903],1,1,1,0.310738381,0,0,0,0.277103775,0.35896103,0.133335653,0.492296683,0.225625377,nan,nan,nan,[ nan  nan  nan],nan,nan,nan,260.3439466,543.4682059,543.7789443,nan,nan
0,246,21:23:46:785000,6,1,480,337.5,[ 0.58092807  0.32870764 -1.        ],1,1,1,0.24093503,0,0,0,0.278740331,0.358763396,0.133097804,0.4918612,0.225665593,nan,nan,nan,[ nan  nan  nan],nan,nan,nan,260.3439466,544.4099958,544.6509308,nan,nan
0,247,21:23:47:736000,6,1,444,312.1875,[ 0.2892412   0.41740978 -1.        ],1,1,1,0.267112141,0,0,0,0.272928517,0.358282464,0.133038172,0.491320636,0.225244292,nan,nan,nan,[ nan  nan  nan],nan,nan,nan,260.3439466,545.3517859,545.6188981,nan,nan
0,248,21:23:48:672000,6,1,65,45.703125,[ 1.         -0.11331216 -1.        ],1,1,1,0.309280105,0,0,0,0.272442425,0.357911853,0.132894164,0.490806017,0.225017689,nan,nan,nan,[ nan  nan  nan],nan,nan,nan,260.3439466,546.2935997,546.6028798,nan,nan
0,249,21:23:49:608000,6,1,319,224.296875,[-0.08918918  0.43330867  0.4061371 ],1,1,1,0.487508439,0,0,0,0.354633562,0.357714963,0.132660822,0.490375786,0.225054141,nan,nan,nan,[ nan  nan  nan],nan,nan,nan,260.3439466,547.2353634,547.7228718,nan,nan
0,250,21:23:50:560000,6,1,118,82.96875,[ 1.         -0.30858815 -0.26128525],1,1,1,0.529710614,0,0,0,0.442166386,0.358238324,0.132648352,0.490886676,0.225589972,nan,nan,nan,[ nan  nan  nan],nan,nan,nan,260.3439466,548.177143,548.7068536,nan,nan
0,251,21:23:51:496000,6,1,240,168.75,[ 0.65437302  0.18801506  0.64246395],1,1,1,0.531905582,0,0,1,0.516374879,0.358926968,0.132825184,0.491752152,0.226101784,nan,nan,nan,[ nan  nan  nan],nan,nan,nan,260.3439466,549.1189405,549.6508461,nan,nan
0,252,21:23:56:659000,6,1,142,99.84375,[ 1.         -0.28956812 -0.01462735],1,1,1,0.470093809,1,0,0,0.510570002,0.359618882,0.133008146,0.492627029,0.226610736,nan,-23.12379189,161,[ 1.         -0.22315835  0.16749055],nan,13.28004189,2.18394426,260.3439466,550.0607372,550.530831,551.877571,554.0695476
0,253,21:23:57:595000,6,1,245,172.265625,[ 0.6005777   0.21061011  0.65017283],1,1,1,0.631000169,0,0,0,0.544333187,0.360059022,0.132925223,0.492984244,0.227133799,nan,nan,nan,[ nan  nan  nan],nan,nan,nan,260.3439466,555.2197332,555.8507333,nan,nan
0,254,21:23:58:547000,6,1,19,13.359375,[ 0.99625917  0.12637453 -1.        ],1,1,1,0.55320125,0,0,0,0.551431742,0.361134185,0.133750325,0.494884509,0.22738386,nan,nan,nan,[ nan  nan  nan],nan,nan,nan,260.3439466,556.1615142,556.7147154,nan,nan
0,255,21:23:59:483000,6,1,163,114.609375,[ 1.         -0.2142478   0.18572368],1,1,1,0.787385733,0,0,1,0.657195717,0.361893343,0.134028632,0.495921975,0.227864711,nan,nan,nan,[ nan  nan  nan],nan,nan,nan,260.3439466,557.1033106,557.8906963,nan,nan
0,256,21:24:04:069000,6,0,295,207.421875,[ 0.08602229  0.38372732  0.55498608],0,0,1,0.717568127,1,0,0,0.686051703,0.36356851,0.136392506,0.499961016,0.227176004,nan,-122.0645425,302,[ 0.02708608  0.40030084  0.51777002],nan,4.642667484,1.592185811,260.3439466,558.0451022,558.7626703,559.8702679,561.4704947
0,257,21:24:05:005000,6,1,413,290.390625,[ 0.06831062  0.46114313 -0.5854956 ],1,1,1,0.557532456,0,0,0,0.687495438,0.364956744,0.137911095,0.502867839,0.227045649,nan,nan,nan,[ nan  nan  nan],nan,nan,nan,260.3439466,562.6290239,563.1865563,nan,nan
0,258,21:24:05:941000,6,1,331,232.734375,[-0.14329784  0.45080175  0.31116671],1,1,1,0.479764897,0,0,0,0.58495516,0.365708993,0.138164664,0.503873656,0.227544329,nan,nan,nan,[ nan  nan  nan],nan,nan,nan,260.3439466,563.5708046,564.0505695,nan,nan
0,259,21:24:06:893000,6,1,483,339.609375,[ 0.60602571  0.31931445 -1.        ],1,1,1,0.337968929,0,0,0,0.458422094,0.36615279,0.1380783,0.50423109,0.22807449,nan,nan,nan,[ nan  nan  nan],nan,nan,nan,260.3439466,564.512599,564.850568,nan,nan
0,260,21:24:07:829000,6,1,434,305.15625,[ 0.21388182  0.43461034 -1.        ],1,1,1,0.340152778,0,0,0,0.385962201,0.36604355,0.137821573,0.503865123,0.228221977,nan,nan,nan,[ nan  nan  nan],nan,nan,nan,260.3439466,565.4543918,565.7945445,nan,nan
0,261,21:24:08:781000,6,1,244,171.5625,[ 0.61137236  0.20616355  0.64888072],1,1,1,0.278366093,0,0,0,0.318829267,0.365943586,0.137564622,0.503508208,0.228378964,nan,nan,nan,[ nan  nan  nan],nan,nan,nan,260.3439466,566.3961728,566.6745389,nan,nan
0,262,21:24:09:717000,6,1,304,213.75,[ 0.01130928  0.40470892  0.50616037],1,1,1,0.264584749,0,0,0,0.294367873,0.365606749,0.137406792,0.503013541,0.228199958,nan,nan,nan,[ nan  nan  nan],nan,nan,nan,260.3439466,567.3379484,567.6025332,nan,nan
0,263,21:24:10:653000,6,1,377,265.078125,[-0.12125986  0.47870083 -0.1436959 ],1,1,1,0.250751518,0,0,0,0.264567453,0.365219692,0.137285244,0.502504936,0.227934447,nan,nan,nan,[ nan  nan  nan],nan,nan,nan,260.3439466,568.2797534,568.5305049,nan,nan
0,264,21:24:11:604000,6,1,475,333.984375,[ 0.53921875  0.34365981 -1.        ],1,1,1,0.492964926,0,0,0,0.336100398,0.36478279,0.137204675,0.501987465,0.227578116,nan,nan,nan,[ nan  nan  nan],nan,nan,nan,260.3439466,569.221539,569.7145039,nan,nan
0,265,21:24:12:540000,6,1,155,108.984375,[ 1.         -0.24798314  0.11161188],1,1,1,0.431142319,0,0,0,0.391619587,0.365270175,0.137170626,0.502440802,0.228099549,nan,nan,nan,[ nan  nan  nan],nan,nan,nan,260.3439466,570.1633237,570.594466,nan,nan
0,266,21:24:13:492000,6,1,349,245.390625,[-0.17565689  0.46876851  0.14794518],1,1,1,0.345334146,0,0,0,0.42314713,0.365519691,0.136970372,0.502490063,0.228549319,nan,nan,nan,[ nan  nan  nan],nan,nan,nan,260.3439466,571.1051198,571.450454,nan,nan
0,267,21:24:14:428000,6,0,468,329.0625,[ 0.48123648  0.36313162 -1.        ],0,1,0,0.331592716,0,0,0,0.369356394,0.365443519,0.136717295,0.502160814,0.228726224,nan,nan,nan,[ nan  nan  nan],nan,nan,nan,260.3439466,572.0468764,572.3784691,nan,nan
0,268,21:24:15:364000,6,1,307,215.859375,[-0.01138687  0.41105336  0.48795701],1,1,1,0.453700969,0,0,0,0.376875944,0.36531626,0.136475789,0.50179205,0.228840471,nan,nan,nan,[ nan  nan  nan],nan,nan,nan,260.3439466,572.9886984,573.4423994,nan,nan
0,269,21:24:16:315000,6,1,58,40.78125,[ 1.         -0.07608966 -1.        ],1,nan,nan,nan,0,0,0,0.392646843,0.365647289,0.136326925,0.501974214,0.229320364,nan,nan,nan,[ nan  nan  nan],nan,nan,nan,260.3439466,573.9304857,nan,nan,nan
0,270,21:24:17:251000,6,1,361,253.828125,[-0.16604781  0.47560771  0.02781731],1,nan,nan,nan,0,0,0,0.453700969,0.365647289,0.136326925,0.501974214,0.229320364,nan,nan,nan,[ nan  nan  nan],nan,nan,nan,260.3439466,574.8722705,nan,nan,nan
0,271,21:24:18:187000,6,1,111,78.046875,[ 1.         -0.29867781 -0.33610624],1,1,1,0.732306829,0,0,0,0.732306829,0.365647289,0.136326925,0.501974214,0.229320364,nan,nan,nan,[ nan  nan  nan],nan,nan,nan,260.3439466,575.8140512,576.546358,nan,nan
0,272,21:24:19:139000,6,1,315,221.484375,[-0.06571114  0.42643481  0.43495652],1,1,1,0.630502388,0,0,0,0.681404609,0.367015422,0.137896521,0.504911942,0.229118901,nan,nan,nan,[ nan  nan  nan],nan,nan,nan,260.3439466,576.7558462,577.3863486,nan,nan
0,273,21:24:20:075000,6,1,191,134.296875,[ 1.         -0.06914798  0.41457165],1,1,1,0.528727027,0,0,1,0.630512081,0.367994927,0.138570879,0.506565806,0.229424048,nan,nan,nan,[ nan  nan  nan],nan,nan,nan,260.3439466,577.6975987,578.2263258,nan,nan
0,274,21:24:25:847000,6,1,401,281.953125,[-0.00506341  0.47079689 -0.4252031 ],1,1,1,0.442883787,1,0,0,0.534037734,0.368590231,0.138658215,0.507248446,0.229932017,nan,165.1577729,405,[ 0.01846332  0.46800938 -0.47629333],nan,2.889102058,2.792312793,260.3439466,578.6394291,579.0823129,580.4562674,583.2566268
0,275,21:24:26:783000,6,1,507,356.484375,[ 0.80599565  0.23268835 -1.        ],1,1,1,0.315418547,0,0,0,0.429009787,0.368864377,0.13847544,0.507339818,0.230388937,nan,nan,nan,[ nan  nan  nan],nan,nan,nan,260.3439466,584.4068047,584.7222232,nan,nan
0,276,21:24:27:735000,6,1,79,55.546875,[ 1.         -0.18429602 -0.72417078],1,1,1,0.317555069,0,0,0,0.358619134,0.368667885,0.1382585,0.506926385,0.230409386,nan,nan,nan,[ nan  nan  nan],nan,nan,nan,260.3439466,585.3486456,585.6662006,nan,nan
0,277,21:24:28:671000,6,0,501,352.265625,[ 0.75644923  0.25625354 -1.        ],0,1,0,0.23176885,0,0,0,0.288247489,0.368480659,0.138039587,0.506520245,0.230441072,nan,nan,nan,[ nan  nan  nan],nan,nan,nan,260.3439466,586.2904152,586.522184,nan,nan
0,278,21:24:29:607000,6,1,415,291.796875,[ 0.08130773  0.45915368 -0.61496802],1,1,1,0.249961512,0,0,0,0.266428477,0.36798171,0.138033862,0.506015573,0.229947848,nan,nan,nan,[ nan  nan  nan],nan,nan,nan,260.3439466,587.232207,587.4821686,nan,nan
0,279,21:24:30:558000,6,1,0,0,[ 0.84683171  0.21209757 -1.        ],1,1,1,0.268155029,0,0,0,0.249961797,0.367552546,0.137965677,0.505518223,0.229586869,nan,nan,nan,[ nan  nan  nan],nan,nan,nan,260.3439466,588.1739932,588.4421482,nan,nan
0,280,21:24:31:494000,6,1,272,191.25,[ 0.3101667   0.31621412  0.63728143],1,1,1,0.278352978,0,0,0,0.26548984,0.36719241,0.137844947,0.505037357,0.229347464,nan,nan,nan,[ nan  nan  nan],nan,nan,nan,260.3439466,589.1157854,589.3941383,nan,nan
0,281,21:24:32:430000,6,1,192,135,[ 1.         -0.06359976  0.42165841],1,1,1,0.312535352,0,0,0,0.286347787,0.36687169,0.137699029,0.504570719,0.229172661,nan,nan,nan,[ nan  nan  nan],nan,nan,nan,260.3439466,590.0575772,590.3701126,nan,nan
0,282,21:24:33:382000,6,0,73,51.328125,[ 1.         -0.15467886 -0.83091687],0,0,1,0.354732966,0,0,0,0.315207099,0.366676236,0.137489634,0.50416587,0.229186602,nan,nan,nan,[ nan  nan  nan],nan,nan,nan,260.3439466,590.9993622,591.3540952,nan,nan
0,283,21:24:34:318000,6,1,176,123.75,[ 1.         -0.15042967  0.29867547],1,1,1,0.284941019,0,0,0,0.317403112,0.366633428,0.137244872,0.5038783,0.229388557,nan,nan,nan,[ nan  nan  nan],nan,nan,nan,260.3439466,591.9411501,592.2260911,nan,nan
0,284,21:24:35:270000,6,1,469,329.765625,[ 0.4894822   0.36045336 -1.        ],1,1,1,0.319121967,0,0,0,0.319598651,0.36634167,0.137086222,0.503427891,0.229255448,nan,nan,nan,[ nan  nan  nan],nan,nan,nan,260.3439466,592.8829477,593.2020696,nan,nan
0,285,21:24:36:206000,6,1,220,154.6875,[ 0.86173155  0.08932726  0.58124768],1,1,1,0.28133168,0,0,0,0.295131556,0.366173628,0.136870965,0.503044593,0.229302663,nan,nan,nan,[ nan  nan  nan],nan,nan,nan,260.3439466,593.8247244,594.1060561,nan,nan
0,286,21:24:37:142000,6,1,20,14.0625,[ 1.          0.12155819 -1.        ],1,1,1,0.243533411,0,0,0,0.28132902,0.36587277,0.13672112,0.50259389,0.22915165,nan,nan,nan,[ nan  nan  nan],nan,nan,nan,260.3439466,594.7665146,595.010048,nan,nan
0,287,21:24:38:093000,6,0,407,286.171875,[ 0.03058863  0.46645515 -0.50257741],0,1,0,0.213743825,0,0,0,0.246202972,0.365440476,0.136672281,0.502112757,0.228768194,nan,nan,nan,[ nan  nan  nan],nan,nan,nan,260.3439466,595.7082873,595.9220312,nan,nan
0,288,21:24:39:029000,6,1,328,230.625,[-0.13215956  0.44685797  0.33604616],1,1,1,0.343899249,0,0,0,0.267058828,0.364906332,0.136727037,0.50163337,0.228179295,nan,nan,nan,[ nan  nan  nan],nan,nan,nan,260.3439466,596.6500929,596.9939921,nan,nan
0,289,21:24:39:965000,6,1,25,17.578125,[ 1.          0.09706829 -1.        ],1,1,1,0.338108912,0,0,0,0.298583995,0.364832623,0.136492607,0.50132523,0.228340017,nan,nan,nan,[ nan  nan  nan],nan,nan,nan,260.3439466,597.5918793,597.9299882,nan,nan
0,290,21:24:40:917000,6,0,68,47.8125,[ 1.         -0.12901814 -0.9729032 ],0,1,0,0.204304521,0,0,0,0.29543756,0.364739184,0.136262905,0.501002089,0.228476279,nan,nan,nan,[ nan  nan  nan],nan,nan,nan,260.3439466,598.5336675,598.737972,nan,nan
0,291,21:24:41:853000,6,1,429,301.640625,[ 0.17753182  0.44208078 -0.9018852 ],1,1,1,0.246490161,0,0,0,0.262967865,0.364180178,0.136353421,0.500533599,0.227826757,nan,nan,nan,[ nan  nan  nan],nan,nan,nan,260.3439466,599.4754571,599.7219472,nan,nan
0,292,21:24:42:804000,6,1,496,348.75,[ 0.71483372  0.27492388 -1.        ],1,1,1,0.224700134,0,0,0,0.225164939,0.363771532,0.136292426,0.500063958,0.227479106,nan,nan,nan,[ nan  nan  nan],nan,nan,nan,260.3439466,600.4172295,600.6419297,nan,nan
0,293,21:24:43:740000,6,1,250,175.78125,[ 0.54642845  0.23228666  0.65474773],1,1,1,0.298911953,0,0,0,0.256700749,0.363290316,0.13630129,0.499591607,0.226989026,nan,nan,nan,[ nan  nan  nan],nan,nan,nan,260.3439466,601.3590026,601.6579145,nan,nan
0,294,21:24:44:676000,6,0,438,307.96875,[ 0.24362256  0.42809644 -1.        ],0,0,1,0.477064735,0,0,0,0.333558941,0.363068322,0.136118411,0.499186733,0.226949911,nan,nan,nan,[ nan  nan  nan],nan,nan,nan,260.3439466,602.3008307,602.7778954,nan,nan
0,295,21:24:45:628000,6,1,292,205.3125,[ 0.11288167  0.37606958  0.56926185],1,1,1,0.247182663,0,0,0,0.341053117,0.363460062,0.136047986,0.499508048,0.227412076,nan,nan,nan,[ nan  nan  nan],nan,nan,nan,260.3439466,603.2426972,603.4898799,nan,nan
0,296,21:24:46:564000,6,1,342,240.46875,[-0.17005262  0.46291356  0.21407524],1,1,1,0.30547747,0,0,0,0.343241623,0.363061852,0.135984601,0.499046453,0.227077251,nan,nan,nan,[ nan  nan  nan],nan,nan,nan,260.3439466,604.1844004,604.4898779,nan,nan
0,297,21:24:47:500000,6,1,119,83.671875,[ 1.         -0.30944633 -0.2507109 ],1,1,1,0.379661064,0,0,0,0.310773733,0.362865318,0.135793882,0.4986592,0.227071436,nan,nan,nan,[ nan  nan  nan],nan,nan,nan,260.3439466,605.126194,605.5058551,nan,nan
0,298,21:24:48:452000,6,1,363,255.234375,[-0.16228773  0.47636573  0.00704813],1,1,1,0.301862715,0,0,0,0.329000417,0.362922447,0.13556627,0.498488717,0.227356177,nan,nan,nan,[ nan  nan  nan],nan,nan,nan,260.3439466,606.0679756,606.3698383,nan,nan
0,299,21:24:49:388000,6,1,417,293.203125,[ 0.0945046   0.45705356 -0.6457202 ],1,1,1,0.328052656,0,0,0,0.336525479,0.362715464,0.135382827,0.498098292,0.227332637,nan,nan,nan,[ nan  nan  nan],nan,nan,nan,260.3439466,607.0097686,607.3378212,nan,nan
0,300,21:24:50:324000,6,1,173,121.640625,[ 1.         -0.16590952  0.27353519],1,1,1,0.330213698,0,0,0,0.320043023,0.36259836,0.135168912,0.497767272,0.227429448,nan,nan,nan,[ nan  nan  nan],nan,nan,nan,260.3439466,607.9515704,608.2817841,nan,nan
0,301,21:24:51:275000,6,1,271,190.546875,[ 0.32064286  0.31281163  0.63940014],1,1,1,0.540429437,0,0,0,0.399565264,0.362489321,0.134954203,0.497443524,0.227535118,nan,nan,nan,[ nan  nan  nan],nan,nan,nan,260.3439466,608.8933401,609.4337695,nan,nan
0,302,21:24:52:211000,6,1,217,152.578125,[ 0.89125041  0.07353733  0.56804835],1,1,1,0.526621864,0,0,0,0.465755,0.363086436,0.135120001,0.498206436,0.227966435,nan,nan,nan,[ nan  nan  nan],nan,nan,nan,260.3439466,609.8351393,610.3617612,nan,nan
0,303,21:24:53:163000,6,1,349,245.390625,[-0.17565689  0.46876851  0.14794518],1,1,1,0.376819494,0,0,0,0.481290265,0.363633377,0.135223882,0.498857258,0.228409495,nan,nan,nan,[ nan  nan  nan],nan,nan,nan,260.3439466,610.7769218,611.1537413,nan,nan
0,304,21:24:54:099000,6,1,454,319.21875,[ 0.36762736  0.39708484 -1.        ],1,1,1,0.259022776,0,0,0,0.387488045,0.36367733,0.13500046,0.49867779,0.228676871,nan,nan,nan,[ nan  nan  nan],nan,nan,nan,260.3439466,611.7187117,611.9777344,nan,nan
0,305,21:24:55:035000,6,1,91,63.984375,[ 1.         -0.2377099  -0.56272232],1,1,1,0.261227152,0,0,0,0.299023141,0.363329641,0.134910496,0.498240137,0.228419145,nan,nan,nan,[ nan  nan  nan],nan,nan,nan,260.3439466,612.6604978,612.921725,nan,nan
0,306,21:24:55:986000,6,0,261,183.515625,[ 0.42722581  0.27661781  0.65367446],0,1,0,0.23140706,0,0,0,0.250552329,0.362991553,0.134814612,0.497806165,0.228176941,nan,nan,nan,[ nan  nan  nan],nan,nan,nan,260.3439466,613.6022931,613.8337002,nan,nan
0,307,21:24:56:922000,6,1,175,123.046875,[ 1.         -0.15562995  0.29036176],1,1,1,0.209603064,0,0,0,0.234079092,0.362557281,0.134803379,0.49736066,0.227753902,nan,nan,nan,[ nan  nan  nan],nan,nan,nan,260.3439466,614.5440738,614.7536769,nan,nan
0,308,21:24:57:858000,6,1,96,67.5,[ 1.         -0.25681952 -0.50330248],1,1,1,0.30779332,0,0,0,0.249601148,0.362054142,0.134866152,0.496920294,0.22718799,nan,nan,nan,[ nan  nan  nan],nan,nan,nan,260.3439466,615.4858794,615.7936727,nan,nan
0,309,21:24:58:810000,6,1,442,310.78125,[ 0.27390726  0.42109554 -1.        ],1,1,1,0.270005314,0,0,0,0.262467233,0.361876238,0.134680603,0.496556841,0.227195635,nan,nan,nan,[ nan  nan  nan],nan,nan,nan,260.3439466,616.427653,616.6976583,nan,nan
0,310,21:24:59:746000,6,1,174,122.34375,[ 1.         -0.16079069  0.28198128],1,1,1,0.288205674,0,0,0,0.288668103,0.361576006,0.13456255,0.496138556,0.227013456,nan,nan,nan,[ nan  nan  nan],nan,nan,nan,260.3439466,617.369436,617.6576417,nan,nan
0,311,21:25:00:698000,6,1,13,9.140625,[ 0.95026217  0.15466406 -1.        ],1,1,1,0.29839336,0,0,0,0.285534783,0.361337015,0.134408248,0.495745262,0.226928767,nan,nan,nan,[ nan  nan  nan],nan,nan,nan,260.3439466,618.3112299,618.6096232,nan,nan
0,312,21:25:01:634000,6,1,229,161.015625,[ 0.77039703  0.13526594  0.61468147],1,1,1,0.508572606,0,0,0,0.365057213,0.361132652,0.13423764,0.495370293,0.226895012,nan,nan,nan,[ nan  nan  nan],nan,nan,nan,260.3439466,619.2530229,619.7615955,nan,nan
0,313,21:25:02:570000,6,1,1,0.703125,[ 0.85493913  0.20787707 -1.        ],1,1,1,0.718775801,0,0,1,0.508580589,0.361609804,0.134281612,0.495891416,0.227328192,nan,nan,nan,[ nan  nan  nan],nan,nan,nan,260.3439466,620.1948085,620.9135843,nan,nan
0,314,21:25:07:749000,6,1,417,293.203125,[ 0.0945046   0.45705356 -0.6457202 ],1,1,1,0.696949567,1,0,0,0.641432658,0.362761952,0.135586009,0.498347962,0.227175943,nan,165.0332804,405,[ 0.01846332  0.46800938 -0.47629333],nan,-8.236405436,2.18391632,260.3439466,621.1366012,621.8335508,622.9700987,625.1620827
0,315,21:25:08:685000,6,1,507,356.484375,[ 0.80599565  0.23268835 -1.        ],1,1,1,0.561214209,0,0,0,0.658979859,0.363836511,0.136683591,0.500520102,0.22715292,nan,nan,nan,[ nan  nan  nan],nan,nan,nan,260.3439466,626.3122457,626.8734599,nan,nan
0,316,21:25:09:636000,6,1,338,237.65625,[-0.16289136  0.45892871  0.25039916],1,1,1,0.667372379,0,0,0,0.641845385,0.364469132,0.136919647,0.501388778,0.227549485,nan,nan,nan,[ nan  nan  nan],nan,nan,nan,260.3439466,627.2540712,627.9214436,nan,nan
0,317,21:25:10:572000,6,1,458,322.03125,[ 0.39968805  0.38805021 -1.        ],1,1,1,0.781581426,0,0,1,0.670056005,0.365436874,0.137765347,0.50320222,0.227671527,nan,nan,nan,[ nan  nan  nan],nan,nan,nan,260.3439466,628.1958403,628.9774217,nan,nan
0,318,21:25:15:362000,6,1,106,74.53125,[ 1.         -0.28763007 -0.39056445],1,1,1,0.775774554,1,0,0,0.74157612,0.366762175,0.139529952,0.506292127,0.227232222,nan,10.58470818,113,[ 1.         -0.30219199 -0.31457635],nan,4.884041825,1.79215656,260.3439466,629.1376441,629.9134186,630.9711381,632.7713775
0,319,21:25:16:298000,6,1,453,318.515625,[ 0.35967042  0.39926175 -1.        ],1,1,1,0.511766272,0,0,0,0.689707417,0.368060627,0.141195607,0.509256234,0.22686502,nan,nan,nan,[ nan  nan  nan],nan,nan,nan,260.3439466,633.921579,634.4333453,nan,nan
0,320,21:25:17:249000,6,1,132,92.8125,[ 1.         -0.30742683 -0.11555536],1,1,1,0.4339588,0,0,0,0.573833209,0.368515391,0.141202888,0.50971828,0.227312503,nan,nan,nan,[ nan  nan  nan],nan,nan,nan,260.3439466,634.8633714,635.2973302,nan,nan
0,321,21:25:18:185000,6,1,403,283.359375,[ 0.00657627  0.46945644 -0.45052451],1,1,1,0.308149122,0,0,0,0.417958065,0.368721837,0.141027752,0.50974959,0.227694085,nan,nan,nan,[ nan  nan  nan],nan,nan,nan,260.3439466,635.8051579,636.113307,nan,nan
0,322,21:25:19:121000,6,1,466,327.65625,[ 0.46478901  0.3683856  -1.        ],1,1,1,0.342356014,0,0,0,0.361487979,0.368531357,0.140846672,0.509378029,0.227684685,nan,nan,nan,[ nan  nan  nan],nan,nan,nan,260.3439466,636.7469466,637.0893026,nan,nan
0,323,21:25:20:073000,6,1,147,103.359375,[ 1.         -0.27580113  0.03467205],1,1,1,0.296539084,0,0,0,0.315681407,0.368449303,0.140633348,0.509082651,0.227815955,nan,nan,nan,[ nan  nan  nan],nan,nan,nan,260.3439466,637.6887368,637.9852758,nan,nan
0,324,21:25:21:009000,6,1,344,241.875,[-0.17254346  0.46473023  0.19550382],1,1,1,0.266724123,0,0,0,0.301873074,0.368224583,0.140470788,0.508695372,0.227753795,nan,nan,nan,[ nan  nan  nan],nan,nan,nan,260.3439466,638.6305283,638.8972525,nan,nan
0,325,21:25:21:945000,6,0,46,32.34375,[ 1.         -0.01173137 -1.        ],0,1,0,0.292919196,0,0,0,0.285394134,0.367908383,0.14036583,0.508274213,0.227542552,nan,nan,nan,[ nan  nan  nan],nan,nan,nan,260.3439466,639.5723145,639.8652337,nan,nan
0,326,21:25:22:896000,6,1,183,128.671875,[ 1.         -0.113109    0.35490284],1,1,1,0.223130386,0,0,0,0.260924568,0.367675497,0.1402098,0.507885297,0.227465697,nan,nan,nan,[ nan  nan  nan],nan,nan,nan,260.3439466,640.5141018,640.7372322,nan,nan
0,327,21:25:23:832000,6,1,271,190.546875,[ 0.32064286  0.31281163  0.63940014],1,1,1,0.209321387,0,0,0,0.241790323,0.367227989,0.140222714,0.507450703,0.227005274,nan,nan,nan,[ nan  nan  nan],nan,nan,nan,260.3439466,641.4558917,641.665213,nan,nan
0,328,21:25:24:784000,6,1,503,353.671875,[ 0.7730202   0.24853846 -1.        ],1,1,1,0.283509828,0,0,0,0.238653867,0.366740623,0.140279877,0.5070205,0.226460745,nan,nan,nan,[ nan  nan  nan],nan,nan,nan,260.3439466,642.3976778,642.6811876,nan,nan
0,329,21:25:25:720000,6,1,306,215.15625,[-0.00395437  0.40897401  0.49412883],1,1,1,0.333660816,0,0,0,0.275497344,0.366484528,0.140139731,0.506624259,0.226344797,nan,nan,nan,[ nan  nan  nan],nan,nan,nan,260.3439466,643.3395042,643.673165,nan,nan
0,330,21:25:26:656000,6,1,185,130.078125,[ 1.         -0.10221447  0.37029995],1,1,1,0.311912698,0,0,0,0.309694447,0.366383842,0.139936401,0.506320243,0.226447441,nan,nan,nan,[ nan  nan  nan],nan,nan,nan,260.3439466,644.2812541,644.5931668,nan,nan
0,331,21:25:27:608000,6,1,475,333.984375,[ 0.53921875  0.34365981 -1.        ],1,1,1,0.362085639,0,0,0,0.335886384,0.366217263,0.139754635,0.505971898,0.226462629,nan,nan,nan,[ nan  nan  nan],nan,nan,nan,260.3439466,645.2230457,645.5851314,nan,nan
0,332,21:25:28:544000,6,0,78,54.84375,[ 1.         -0.17946765 -0.73990763],0,0,1,0.468284007,0,0,0,0.380760782,0.366204667,0.139541617,0.505746284,0.22666305,nan,nan,nan,[ nan  nan  nan],nan,nan,nan,260.3439466,646.1648316,646.6331156,nan,nan
0,333,21:25:29:480000,6,1,337,236.953125,[-0.16064337  0.45785839  0.25930356],1,1,1,0.254474325,0,0,0,0.361614657,0.366514939,0.139442655,0.505957593,0.227072284,nan,nan,nan,[ nan  nan  nan],nan,nan,nan,260.3439466,647.1066254,647.3610998,nan,nan
0,334,21:25:30:431000,6,1,277,194.765625,[ 0.25847065  0.33263616  0.62482424],1,1,1,0.224667918,0,0,0,0.31580875,0.366175422,0.139367343,0.505542765,0.226808078,nan,nan,nan,[ nan  nan  nan],nan,nan,nan,260.3439466,648.0484179,648.2730858,nan,nan
0,335,21:25:31:367000,6,1,364,255.9375,[-0.16019432  0.47670452 -0.00341125],1,1,1,0.274882768,0,0,0,0.25134167,0.365747906,0.139373203,0.505121109,0.226374703,nan,nan,nan,[ nan  nan  nan],nan,nan,nan,260.3439466,648.9901978,649.2650805,nan,nan
0,336,21:25:32:319000,6,1,79,55.546875,[ 1.         -0.18429602 -0.72417078],1,1,1,0.277501391,0,0,0,0.259017359,0.365474216,0.139252199,0.504726416,0.226222017,nan,nan,nan,[ nan  nan  nan],nan,nan,nan,260.3439466,649.9319913,650.2094927,nan,nan
0,337,21:25:33:255000,6,0,144,101.25,[ 1.         -0.28442319  0.00519445],0,0,1,0.535246644,0,0,0,0.362543601,0.365210034,0.139126253,0.504336287,0.22608378,nan,nan,nan,[ nan  nan  nan],nan,nan,nan,260.3439466,650.8737818,651.4090284,nan,nan
0,338,21:25:34:191000,6,1,463,325.546875,[ 0.44023832  0.3760118  -1.        ],1,1,1,0.241442789,0,0,0,0.351396941,0.365719125,0.139228111,0.504947236,0.226491014,nan,nan,nan,[ nan  nan  nan],nan,nan,nan,260.3439466,651.8155722,652.057015,nan,nan
0,339,21:25:35:142000,6,1,254,178.59375,[ 0.50301113  0.24894782  0.65613358],1,1,1,0.227668002,0,0,0,0.334785812,0.365348151,0.139185375,0.504533526,0.226162776,nan,nan,nan,[ nan  nan  nan],nan,nan,nan,260.3439466,652.7573401,652.9850081,nan,nan
0,340,21:25:36:078000,6,1,434,305.15625,[ 0.21388182  0.43461034 -1.        ],1,1,1,0.285852477,0,0,0,0.251654423,0.364938389,0.139180316,0.504118705,0.225758073,nan,nan,nan,[ nan  nan  nan],nan,nan,nan,260.3439466,653.6991423,653.9849947,nan,nan
0,341,21:25:37:014000,6,1,20,14.0625,[ 1.          0.12155819 -1.        ],1,1,1,0.296046149,0,0,0,0.269855543,0.364703712,0.139040223,0.503743936,0.225663489,nan,nan,nan,[ nan  nan  nan],nan,nan,nan,260.3439466,654.6409335,654.9369797,nan,nan
0,342,21:25:37:966000,6,1,360,253.125,[-0.1677095   0.47518832  0.03812586],1,1,1,0.314227693,0,0,0,0.298708773,0.364500584,0.138884459,0.503385043,0.225616125,nan,nan,nan,[ nan  nan  nan],nan,nan,nan,260.3439466,655.58272,655.8969477,nan,nan
0,343,21:25:38:902000,6,1,295,207.421875,[ 0.08602229  0.38372732  0.55498608],1,1,1,0.516417073,0,0,0,0.375563638,0.364352286,0.138706261,0.503058547,0.225646025,nan,nan,nan,[ nan  nan  nan],nan,nan,nan,260.3439466,656.5245096,657.0409266,nan,nan
0,344,21:25:39:854000,6,1,121,85.078125,[ 1.         -0.31073281 -0.22964081],1,1,1,0.478619089,0,0,0,0.436421285,0.364799535,0.138746716,0.503546251,0.226052819,nan,nan,nan,[ nan  nan  nan],nan,nan,nan,260.3439466,657.4662983,657.9449174,nan,nan
0,345,21:25:40:790000,6,1,339,238.359375,[-0.16495584  0.45996923  0.2414231 ],1,1,1,0.600806029,0,0,1,0.531947397,0.365133317,0.138679765,0.503813082,0.226453552,nan,nan,nan,[ nan  nan  nan],nan,nan,nan,260.3439466,658.4080839,659.0088899,nan,nan
0,346,21:25:45:189000,6,1,254,178.59375,[ 0.50301113  0.24894782  0.65613358],1,1,1,0.643007634,1,0,0,0.57414425,0.365822418,0.139060313,0.504882731,0.226762106,nan,-83.44927353,247,[ 0.57894763  0.21939267  0.65238059],nan,-5.144476471,1.408834839,260.3439466,659.3498783,659.992886,661.1750481,662.5919144
0,347,21:25:46:125000,6,0,5,3.515625,[ 0.88714031  0.19065985 -1.        ],0,1,0,0.234361814,0,0,0,0.492725159,0.366630539,0.139659365,0.506289903,0.226971174,nan,nan,nan,[ nan  nan  nan],nan,nan,nan,260.3439466,663.7504476,663.9848094,nan,nan
0,348,21:25:47:076000,6,1,321,225.703125,[-0.09994335  0.43654647  0.39117498],1,1,1,0.484554255,0,0,0,0.453974568,0.366246037,0.139637918,0.505883954,0.226608119,nan,nan,nan,[ nan  nan  nan],nan,nan,nan,260.3439466,664.6922383,665.1767926,nan,nan
0,349,21:25:48:012000,6,1,493,346.640625,[ 0.68976908  0.28570078 -1.        ],1,1,1,0.26275043,0,0,0,0.327222167,0.366588959,0.139580382,0.50616934,0.227008577,nan,nan,nan,[ nan  nan  nan],nan,nan,nan,260.3439466,665.6340205,665.8967709,nan,nan
0,350,21:25:48:964000,6,1,375,263.671875,[-0.1285567   0.47868243 -0.12160516],1,1,1,0.080958944,0,0,0,0.276087876,0.366288848,0.139489955,0.505778803,0.226798892,nan,nan,nan,[ nan  nan  nan],nan,nan,nan,260.3439466,666.5758095,666.6567685,nan,nan
0,351,21:25:49:900000,6,1,168,118.125,[ 1.         -0.19079002  0.2303618 ],1,1,1,0.235148969,0,1,0,0.192952781,0.365466571,0.14012608,0.505592651,0.225340492,nan,nan,nan,[ nan  nan  nan],nan,nan,nan,260.3439466,667.5176005,667.7527495,nan,nan
0,352,21:25:55:235000,6,1,504,354.375,[ 0.78128615  0.24462829 -1.        ],1,1,1,0.269325071,1,0,0,0.195144328,0.365092095,0.140098378,0.505190473,0.224993718,nan,85.32755724,7,[ 0.90309146  0.18185306 -1.        ],nan,10.29744276,2.350587929,260.3439466,668.4593975,668.7287226,670.2845635,672.6432195
0,353,21:25:56:171000,6,1,40,28.125,[ 1.          0.02011655 -1.        ],1,1,1,0.767208504,0,0,0,0.423894182,0.364817691,0.139991141,0.504808832,0.22482655,nan,nan,nan,[ nan  nan  nan],nan,nan,nan,260.3439466,673.7934084,674.5606169,nan,nan
0,354,21:25:57:123000,6,1,326,229.21875,[-0.12383419  0.44407177  0.35222354],1,1,1,0.473424036,0,0,0,0.503319204,0.365967379,0.141431357,0.507398736,0.224536022,nan,nan,nan,[ nan  nan  nan],nan,nan,nan,260.3439466,674.7351954,675.2086195,nan,nan
0,355,21:25:58:059000,6,1,502,352.96875,[ 0.76474094  0.25241358 -1.        ],1,1,1,0.435616929,0,0,1,0.558749823,0.366273524,0.141345832,0.507619355,0.224927692,nan,nan,nan,[ nan  nan  nan],nan,nan,nan,260.3439466,675.6769853,676.1126022,nan,nan
0,356,21:26:02:286000,6,1,121,85.078125,[ 1.         -0.31073281 -0.22964081],1,1,1,0.485793576,1,0,0,0.464944847,0.366470522,0.14119316,0.507663682,0.225277362,nan,10.15426658,114,[ 1.         -0.30374746 -0.30385937],nan,-5.23239158,1.242093382,260.3439466,676.6187769,677.1045705,678.4439597,679.6941451
0,357,21:26:03:222000,6,0,256,180,[ 0.48131261  0.25704791  0.65606572],0,0,1,0.452211333,0,0,0,0.457873946,0.366808548,0.141135587,0.507944134,0.225672961,nan,nan,nan,[ nan  nan  nan],nan,nan,nan,260.3439466,680.8442907,681.296502,nan,nan
0,358,21:26:04:174000,6,1,87,61.171875,[ 1.         -0.22095901 -0.61267562],1,1,1,0.278385194,0,0,0,0.405463368,0.367049798,0.141008972,0.50805877,0.226040827,nan,nan,nan,[ nan  nan  nan],nan,nan,nan,260.3439466,681.7861111,682.0644963,nan,nan
0,359,21:26:05:110000,6,1,457,321.328125,[ 0.39163925  0.39035818 -1.        ],1,1,1,0.320561426,0,0,0,0.350385984,0.366800039,0.140888618,0.507688657,0.225911421,nan,nan,nan,[ nan  nan  nan],nan,nan,nan,260.3439466,682.7279029,683.0484643,nan,nan
0,360,21:26:06:046000,6,0,492,345.9375,[ 0.68140332  0.28922202 -1.        ],0,0,1,0.54679225,0,0,0,0.381912957,0.366670155,0.140711883,0.507382038,0.225958272,nan,nan,nan,[ nan  nan  nan],nan,nan,nan,260.3439466,683.6696891,684.2164813,nan,nan
0,361,21:26:06:998000,6,1,288,202.5,[ 0.15000513  0.36533195  0.58668724],1,1,1,0.452937477,0,0,0,0.440097051,0.367174699,0.140836775,0.508011474,0.226337924,nan,nan,nan,[ nan  nan  nan],nan,nan,nan,260.3439466,684.6114972,685.0644347,nan,nan
0,362,21:26:07:934000,6,1,341,239.765625,[-0.16853588  0.4619615   0.22326011],1,1,1,0.335145605,0,0,0,0.444958444,0.36741426,0.140712758,0.508127018,0.226701502,nan,nan,nan,[ nan  nan  nan],nan,nan,nan,260.3439466,685.5532677,685.8884133,nan,nan
0,363,21:26:08:870000,6,1,392,275.625,[-0.05410679  0.47552228 -0.31554984],1,1,1,0.465344934,0,0,0,0.417809339,0.367324375,0.140526934,0.507851309,0.226797441,nan,nan,nan,[ nan  nan  nan],nan,nan,nan,260.3439466,686.4950544,686.9603993,nan,nan
0,364,21:26:09:821000,6,1,124,87.1875,[ 1.         -0.31157719 -0.19822652],1,1,1,0.555535345,0,0,0,0.452008628,0.367596654,0.140426418,0.508023072,0.227170236,nan,nan,nan,[ nan  nan  nan],nan,nan,nan,260.3439466,687.4368431,687.9923785,nan,nan
0,365,21:26:10:757000,6,1,308,216.5625,[-0.01868286  0.41309748  0.48168233],1,1,1,0.477728158,0,0,0,0.499536146,0.36811726,0.140579248,0.508696508,0.227538012,nan,nan,nan,[ nan  nan  nan],nan,nan,nan,260.3439466,688.3786307,688.8563589,nan,nan
0,366,21:26:11:709000,6,1,249,175.078125,[ 0.55727555  0.22802627  0.65408488],1,1,1,0.399933515,0,0,0,0.477732339,0.368420053,0.140502776,0.508922829,0.227917276,nan,nan,nan,[ nan  nan  nan],nan,nan,nan,260.3439466,689.320424,689.7203575,nan,nan
0,367,21:26:12:645000,6,1,94,66.09375,[ 1.         -0.24943901 -0.52674516],1,1,1,0.378140352,0,0,0,0.418600675,0.368506866,0.140318835,0.508825701,0.228188032,nan,nan,nan,[ nan  nan  nan],nan,nan,nan,260.3439466,690.2622067,690.6403471,nan,nan
0,368,21:26:13:581000,6,1,255,179.296875,[ 0.49215936  0.25301719  0.65616311],1,1,1,0.428327263,0,0,0,0.40213371,0.368533332,0.140126864,0.508660196,0.228406468,nan,nan,nan,[ nan  nan  nan],nan,nan,nan,260.3439466,691.203998,691.6323253,nan,nan
0,369,21:26:14:532000,6,0,398,279.84375,[-0.02203778  0.4726088  -0.38794338],0,0,1,0.534489139,0,0,0,0.446985585,0.368697151,0.139969677,0.508666828,0.228727474,nan,nan,nan,[ nan  nan  nan],nan,nan,nan,260.3439466,692.1458079,692.680297,nan,nan
0,370,21:26:15:468000,6,1,325,228.515625,[-0.1194049   0.44263104  0.36018642],1,1,1,0.224720376,0,0,0,0.395845593,0.369150135,0.140045984,0.509196119,0.229104151,nan,nan,nan,[ nan  nan  nan],nan,nan,nan,260.3439466,693.0875763,693.3122967,nan,nan
0,371,21:26:16:404000,6,1,458,322.03125,[ 0.39968805  0.38805021 -1.        ],1,1,1,0.362910142,0,0,0,0.374039886,0.368756593,0.140057562,0.508814155,0.228699031,nan,nan,nan,[ nan  nan  nan],nan,nan,nan,260.3439466,694.0293676,694.3922778,nan,nan
0,372,21:26:17:356000,6,1,83,58.359375,[ 1.         -0.20309788 -0.66587671],1,1,1,0.309108191,0,0,0,0.298912903,0.368740706,0.139867468,0.508608174,0.228873238,nan,nan,nan,[ nan  nan  nan],nan,nan,nan,260.3439466,694.9711504,695.2802586,nan,nan
0,373,21:26:18:292000,6,1,324,227.8125,[-0.11479964  0.44115833  0.36806404],1,1,1,0.27130479,0,0,0,0.314441041,0.3685791,0.139712217,0.508291317,0.228866883,nan,nan,nan,[ nan  nan  nan],nan,nan,nan,260.3439466,695.9129417,696.1842465,nan,nan
0,374,21:26:19:228000,6,1,397,279.140625,[-0.02756135  0.47315999 -0.37569455],1,1,1,0.313536046,0,0,0,0.297983009,0.368316197,0.139614658,0.507930855,0.228701539,nan,nan,nan,[ nan  nan  nan],nan,nan,nan,260.3439466,696.8546933,697.1682294,nan,nan
0,375,21:26:20:180000,6,1,211,148.359375,[ 0.94867577  0.04136069  0.53868916],1,1,1,0.291695272,0,0,0,0.292178702,0.368168541,0.139455297,0.507623838,0.228713245,nan,nan,nan,[ nan  nan  nan],nan,nan,nan,260.3439466,697.7965214,698.0882167,nan,nan
0,376,21:26:21:116000,6,1,492,345.9375,[ 0.68140332  0.28922202 -1.        ],1,1,1,0.389875549,0,0,0,0.331702289,0.367962968,0.139324009,0.507286977,0.228638959,nan,nan,nan,[ nan  nan  nan],nan,nan,nan,260.3439466,698.7383087,699.1281843,nan,nan
0,377,21:26:22:067000,6,0,275,193.359375,[ 0.27900239  0.32618525  0.63017847],0,0,1,0.480054556,0,0,0,0.387208459,0.368021715,0.139141736,0.50716345,0.228879979,nan,nan,nan,[ nan  nan  nan],nan,nan,nan,260.3439466,699.6801151,700.1601697,nan,nan
0,378,21:26:23:003000,6,1,216,151.875,[ 0.90097501  0.06822711  0.56342658],1,1,1,0.210274184,0,0,0,0.360068097,0.368321268,0.139075975,0.507397243,0.229245293,nan,nan,nan,[ nan  nan  nan],nan,nan,nan,260.3439466,700.6218859,700.8321601,nan,nan
0,379,21:26:23:939000,6,1,14,9.84375,[ 0.95801505  0.15002356 -1.        ],1,1,1,0.228473119,0,0,0,0.306267286,0.367899809,0.139129366,0.507029175,0.228770443,nan,nan,nan,[ nan  nan  nan],nan,nan,nan,260.3439466,701.5636749,701.792148,nan,nan
0,380,21:26:24:891000,6,1,490,344.53125,[ 0.66466039  0.29615785 -1.        ],1,nan,nan,nan,0,0,0,0.219373652,0.367528993,0.139129663,0.506658657,0.22839933,nan,nan,nan,[ nan  nan  nan],nan,nan,nan,260.3439466,702.5054622,nan,nan,nan
0,381,21:26:25:827000,6,1,314,220.78125,[-0.05944389  0.42463231  0.44192541],1,nan,nan,nan,0,0,0,0.228473119,0.367528993,0.139129663,0.506658657,0.22839933,nan,nan,nan,[ nan  nan  nan],nan,nan,nan,260.3439466,703.4472481,nan,nan,nan
0,382,21:26:26:763000,6,1,167,117.421875,[ 1.         -0.19560581  0.22154672],1,1,1,0.235054887,0,0,0,0.235054887,0.367528993,0.139129663,0.506658657,0.22839933,nan,nan,nan,[ nan  nan  nan],nan,nan,nan,260.3439466,704.3890348,704.6240897,nan,nan
0,383,21:26:27:715000,6,1,35,24.609375,[ 1.          0.04626536 -1.        ],1,1,1,0.197257473,0,0,0,0.21615618,0.367177603,0.139111987,0.50628959,0.228065616,nan,nan,nan,[ nan  nan  nan],nan,nan,nan,260.3439466,705.3308261,705.5280836,nan,nan
0,384,21:26:28:651000,6,1,221,155.390625,[ 0.85178146  0.09454116  0.58542294],1,1,1,0.279450035,0,0,0,0.237254132,0.366728079,0.13920176,0.505929839,0.227526319,nan,nan,nan,[ nan  nan  nan],nan,nan,nan,260.3439466,706.2726171,706.5520671,nan,nan
0,385,21:26:29:602000,6,1,80,56.25,[ 1.         -0.18907571 -0.70896555],1,1,1,0.28160623,0,0,0,0.252771246,0.366497794,0.139090074,0.505587868,0.22740772,nan,nan,nan,[ nan  nan  nan],nan,nan,nan,260.3439466,707.2144221,707.4960283,nan,nan
0,386,21:26:30:538000,6,0,27,18.984375,[ 1.          0.08709126 -1.        ],0,0,1,0.515808959,0,0,0,0.358955075,0.366274395,0.138975008,0.505249403,0.227299387,nan,nan,nan,[ nan  nan  nan],nan,nan,nan,260.3439466,708.1561954,708.6720044,nan,nan
0,387,21:26:31:474000,6,1,116,81.5625,[ 1.         -0.30644692 -0.28251544],1,1,1,0.206025086,0,0,0,0.334480092,0.366666874,0.139003219,0.505670093,0.227663655,nan,nan,nan,[ nan  nan  nan],nan,nan,nan,260.3439466,709.0979836,709.3040086,nan,nan
0,388,21:26:32:426000,6,1,495,348.046875,[ 0.70648511  0.27855169 -1.        ],1,1,1,0.192223216,0,0,0,0.304685754,0.366246346,0.139063624,0.50530997,0.227182722,nan,nan,nan,[ nan  nan  nan],nan,nan,nan,260.3439466,710.039774,710.2319972,nan,nan
0,389,21:26:33:362000,6,1,31,21.796875,[ 1.          0.06685157 -1.        ],1,1,1,0.202419454,0,1,0,0.200222585,0.365791978,0.139165596,0.504957573,0.226626382,nan,nan,nan,[ nan  nan  nan],nan,nan,nan,260.3439466,710.9815584,711.1839779,nan,nan
0,390,21:26:38:213000,6,1,193,135.703125,[ 1.         -0.05804539  0.42865879],1,1,1,0.236604964,1,0,0,0.210415878,0.365366528,0.139233451,0.504599979,0.226133078,nan,-19.23685916,155,[ 1.         -0.24798314  0.11161188],nan,-26.46626584,1.875623794,260.3439466,711.9233495,712.1599544,713.7401906,715.6238955
0,391,21:26:39:149000,6,1,504,354.375,[ 0.78128615  0.24462829 -1.        ],1,1,1,0.641889765,0,0,0,0.360304728,0.365032083,0.13920687,0.504238952,0.225825213,nan,nan,nan,[ nan  nan  nan],nan,nan,nan,260.3439466,716.7739747,717.4158645,nan,nan
0,392,21:26:40:101000,6,1,205,144.140625,[ 1.          0.008548    0.50553524],1,1,1,0.332098765,0,0,0,0.403531165,0.36574933,0.139736932,0.505486262,0.226012399,nan,nan,nan,[ nan  nan  nan],nan,nan,nan,260.3439466,717.7157629,718.0478617,nan,nan
0,393,21:26:41:037000,6,1,44,30.9375,[ 1.         -0.00106984 -1.        ],1,1,1,0.230275222,0,0,0,0.401421251,0.365662378,0.139566732,0.50522911,0.226095646,nan,nan,nan,[ nan  nan  nan],nan,nan,nan,260.3439466,718.6575528,718.887828,nan,nan
0,394,21:26:41:973000,6,1,185,130.078125,[ 1.         -0.10221447  0.37029995],1,1,1,0.256462027,0,0,0,0.272945338,0.365313442,0.139555685,0.504869127,0.225757757,nan,nan,nan,[ nan  nan  nan],nan,nan,nan,260.3439466,719.5993446,719.8558066,nan,nan
0,395,21:26:42:925000,6,1,273,191.953125,[ 0.29973296  0.31957719  0.63503803],1,1,1,0.226668164,0,0,0,0.237801805,0.365033618,0.139485138,0.504518757,0.22554848,nan,nan,nan,[ nan  nan  nan],nan,nan,nan,260.3439466,720.5411322,720.7678004,nan,nan
0,396,21:26:43:861000,6,1,33,23.203125,[ 1.          0.05659903 -1.        ],1,1,1,0.140879664,0,1,0,0.208003285,0.364678835,0.139481827,0.504160663,0.225197008,nan,nan,nan,[ nan  nan  nan],nan,nan,nan,260.3439466,721.4829204,721.6238,nan,nan
0,397,21:26:48:291000,6,1,176,123.75,[ 1.         -0.15042967  0.29867547],1,1,1,0.255057635,1,0,0,0.207535154,0.364106459,0.139761198,0.503867657,0.224345261,nan,-18.70310184,155,[ 1.         -0.24798314  0.11161188],nan,-15.04689816,1.433834212,260.3439466,722.4247102,722.6797679,724.2582217,725.7000933
0,398,21:26:49:227000,6,1,232,163.125,[ 0.73915824  0.15004662  0.62371202],1,1,1,0.58141567,0,0,0,0.325784323,0.363828273,0.139691164,0.503519437,0.224137109,nan,nan,nan,[ nan  nan  nan],nan,nan,nan,260.3439466,726.8502772,727.4316928,nan,nan
0,399,21:26:50:179000,6,1,445,312.890625,[ 0.2969539  0.4155201 -1.       ],1,1,1,0.287615237,0,0,0,0.374696181,0.364381931,0.139943312,0.504325243,0.224438618,nan,nan,nan,[ nan  nan  nan],nan,nan,nan,260.3439466,727.7920688,728.079684,nan,nan
0,400,21:26:51:115000,6,1,374,262.96875,[-0.13203913  0.47863408 -0.11062844],1,1,1,0.289796805,0,0,0,0.386275904,0.364187091,0.139818969,0.50400606,0.224368123,nan,nan,nan,[ nan  nan  nan],nan,nan,nan,260.3439466,728.7338592,729.023656,nan,nan
0,401,21:26:52:051000,6,0,419,294.609375,[ 0.10789467  0.45484197 -0.67809886],0,1,0,0.195998196,0,0,0,0.257803412,0.363998761,0.139691898,0.50369066,0.224306863,nan,nan,nan,[ nan  nan  nan],nan,nan,nan,260.3439466,729.6756431,729.8716413,nan,nan
0,402,21:26:53:002000,6,1,233,163.828125,[ 0.7286704   0.15490978  0.62648223],1,1,1,0.198184041,0,0,0,0.227993014,0.363574518,0.139769962,0.50334448,0.223804555,nan,nan,nan,[ nan  nan  nan],nan,nan,nan,260.3439466,730.6174375,730.8156215,nan,nan
0,403,21:26:53:938000,6,1,340,239.0625,[-0.16683717  0.46098011  0.2323764 ],1,1,1,0.24039591,0,0,0,0.211526049,0.363157917,0.139839774,0.502997691,0.223318143,nan,nan,nan,[ nan  nan  nan],nan,nan,nan,260.3439466,731.559218,731.7996139,nan,nan
0,404,21:26:54:890000,6,1,456,320.625,[ 0.38361243  0.39263319 -1.        ],1,1,1,0.266578153,0,0,0,0.235052701,0.36284947,0.139799139,0.502648609,0.223050331,nan,nan,nan,[ nan  nan  nan],nan,nan,nan,260.3439466,732.5010172,732.7675954,nan,nan
0,405,21:26:55:826000,6,1,346,243.28125,[-0.17431756  0.46643129  0.17667017],1,1,1,0.276777243,0,0,0,0.261250435,0.362608188,0.139706791,0.50231498,0.222901397,nan,nan,nan,[ nan  nan  nan],nan,nan,nan,260.3439466,733.4428008,733.7195781,nan,nan
0,406,21:26:56:762000,6,1,99,69.609375,[ 1.         -0.26717627 -0.4687933 ],1,1,1,0.278981619,0,0,0,0.274112339,0.362393611,0.139597865,0.501991476,0.222795746,nan,nan,nan,[ nan  nan  nan],nan,nan,nan,260.3439466,734.3845896,734.6635712,nan,nan
0,407,21:26:57:713000,6,1,31,21.796875,[ 1.          0.06685157 -1.        ],1,1,1,0.273151654,0,0,0,0.276303505,0.362185601,0.139485748,0.501671348,0.222699853,nan,nan,nan,[ nan  nan  nan],nan,nan,nan,260.3439466,735.3264028,735.5995544,nan,nan
0,408,21:26:58:649000,6,1,345,242.578125,[-0.17351954  0.46559515  0.18611928],1,1,1,0.275361447,0,0,0,0.275831573,0.361964123,0.139382729,0.501346852,0.222581395,nan,nan,nan,[ nan  nan  nan],nan,nan,nan,260.3439466,736.268165,736.5435265,nan,nan
0,409,21:26:59:585000,6,1,101,71.015625,[ 1.         -0.27357267 -0.44615261],1,1,1,0.157563303,0,0,0,0.235358801,0.361749228,0.139276351,0.50102558,0.222472877,nan,nan,nan,[ nan  nan  nan],nan,nan,nan,260.3439466,737.2099557,737.367519,nan,nan
