block,trial,freq_trials,correct_response,actual_response,acc,rts,probe_trials,trials_colorind0,trials_colorind1,trials_colorind2,trials_colorind3,trials_colorind4,trials_colorind5,wholereport_resp0,wholereport_resp1,wholereport_resp2,wholereport_resp3,wholereport_resp4,wholereport_resp5,wholereport_respacc0,wholereport_respacc1,wholereport_respacc2,wholereport_respacc3,wholereport_respacc4,wholereport_respacc5,wholereport_respacc_total,wholereport_respcolorind0,wholereport_respcolorind1,wholereport_respcolorind2,wholereport_respcolorind3,wholereport_respcolorind4,wholereport_respcolorind5,wholereport_resporder0,wholereport_resporder1,wholereport_resporder2,wholereport_resporder3,wholereport_resporder4,wholereport_resporder5,wholereport_rts0,wholereport_rts1,wholereport_rts2,wholereport_rts3,wholereport_rts4,wholereport_rts5,time_blockstart,time_encarray_offset,time_encarray_onset,time_response,time_iti_offset,time_iti_onset,time_memprobe_offset,time_memprobe_onset
1,1,1,1,1.0,1.0,0.540059283724986,0,8,1,3,4,2,7,nan,nan,nan,nan,nan,nan,nan,nan,nan,nan,nan,nan,0.0,nan,nan,nan,nan,nan,nan,nan,nan,nan,nan,nan,nan,nan,nan,nan,nan,nan,nan,186.00471926329192,187.01662048519938,nan,187.55667976892437,nan,nan,nan,nan
1,2,1,1,1.0,1.0,0.4194787285523489,0,7,4,3,2,8,5,nan,nan,nan,nan,nan,nan,nan,nan,nan,nan,nan,nan,0.0,nan,nan,nan,nan,nan,nan,nan,nan,nan,nan,nan,nan,nan,nan,nan,nan,nan,nan,186.00471926329192,188.02521853640792,nan,188.44469726496027,nan,nan,nan,nan
1,3,0,0,0.0,1.0,0.7634158878936432,0,3,6,2,8,0,7,nan,nan,nan,nan,nan,nan,nan,nan,nan,nan,nan,nan,0.0,nan,nan,nan,nan,nan,nan,nan,nan,nan,nan,nan,nan,nan,nan,nan,nan,nan,nan,186.00471926329192,189.02524448052282,nan,189.78866036841646,nan,nan,nan,nan
1,4,1,1,nan,nan,nan,0,1,7,0,4,5,2,nan,nan,nan,nan,nan,nan,nan,nan,nan,nan,nan,nan,0.0,nan,nan,nan,nan,nan,nan,nan,nan,nan,nan,nan,nan,nan,nan,nan,nan,nan,nan,186.00471926329192,190.02538018822088,nan,nan,nan,nan,nan,nan
1,5,1,1,nan,nan,nan,0,3,5,4,0,8,6,nan,nan,nan,nan,nan,nan,nan,nan,nan,nan,nan,nan,0.0,nan,nan,nan,nan,nan,nan,nan,nan,nan,nan,nan,nan,nan,nan,nan,nan,nan,nan,186.00471926329192,191.02551019389648,nan,nan,nan,nan,nan,nan
1,6,1,1,nan,nan,nan,0,5,7,6,3,1,2,nan,nan,nan,nan,nan,nan,nan,nan,nan,nan,nan,nan,0.0,nan,nan,nan,nan,nan,nan,nan,nan,nan,nan,nan,nan,nan,nan,nan,nan,nan,nan,186.00471926329192,192.02565331419464,nan,nan,nan,nan,nan,nan
1,7,1,1,1.0,1.0,0.6428148054983467,0,0,5,4,8,2,1,nan,nan,nan,nan,nan,nan,nan,nan,nan,nan,nan,nan,0.0,nan,nan,nan,nan,nan,nan,nan,nan,nan,nan,nan,nan,nan,nan,nan,nan,nan,nan,186.00471926329192,193.02579073247034,nan,193.6686055379687,nan,nan,nan,nan
1,8,1,1,1.0,1.0,0.7306724173249677,0,1,6,5,4,8,7,nan,nan,nan,nan,nan,nan,nan,nan,nan,nan,nan,nan,0.0,nan,nan,nan,nan,nan,nan,nan,nan,nan,nan,nan,nan,nan,nan,nan,nan,nan,nan,186.00471926329192,194.02593784418423,nan,194.7566102615092,nan,nan,nan,nan
1,9,1,1,1.0,1.0,0.7145408789510839,0,4,3,1,2,7,8,nan,nan,nan,nan,nan,nan,nan,nan,nan,nan,nan,nan,0.0,nan,nan,nan,nan,nan,nan,nan,nan,nan,nan,nan,nan,nan,nan,nan,nan,nan,nan,186.00471926329192,195.0260687051632,nan,195.74060958411428,nan,nan,nan,nan
1,10,1,1,1.0,1.0,0.6183754478697665,0,6,1,2,7,8,5,nan,nan,nan,nan,nan,nan,nan,nan,nan,nan,nan,nan,0.0,nan,nan,nan,nan,nan,nan,nan,nan,nan,nan,nan,nan,nan,nan,nan,nan,nan,nan,186.00471926329192,196.0262123956345,nan,196.64458784350427,nan,nan,nan,nan
1,11,1,1,1.0,1.0,0.570253673591651,0,8,4,7,2,0,1,nan,nan,nan,nan,nan,nan,nan,nan,nan,nan,nan,nan,0.0,nan,nan,nan,nan,nan,nan,nan,nan,nan,nan,nan,nan,nan,nan,nan,nan,nan,nan,186.00471926329192,197.02633299303125,nan,197.5965866666229,nan,nan,nan,nan
1,12,1,1,1.0,1.0,0.5141285670688376,0,6,5,3,7,8,2,nan,nan,nan,nan,nan,nan,nan,nan,nan,nan,nan,nan,0.0,nan,nan,nan,nan,nan,nan,nan,nan,nan,nan,nan,nan,nan,nan,nan,nan,nan,nan,186.00471926329192,198.0264598625945,nan,198.54058842966333,nan,nan,nan,nan
1,13,1,1,1.0,1.0,0.4659794231702108,0,0,7,1,8,2,6,nan,nan,nan,nan,nan,nan,nan,nan,nan,nan,nan,nan,0.0,nan,nan,nan,nan,nan,nan,nan,nan,nan,nan,nan,nan,nan,nan,nan,nan,nan,nan,186.00471926329192,199.02659585539368,nan,199.4925752785639,nan,nan,nan,nan
1,14,0,0,0.0,1.0,0.5455240839801263,0,3,0,2,7,8,5,nan,nan,nan,nan,nan,nan,nan,nan,nan,nan,nan,nan,0.0,nan,nan,nan,nan,nan,nan,nan,nan,nan,nan,nan,nan,nan,nan,nan,nan,nan,nan,186.00471926329192,200.03504194822744,nan,200.58056603220757,nan,nan,nan,nan
1,15,1,1,1.0,1.0,0.4733315866324119,0,5,8,0,4,6,2,nan,nan,nan,nan,nan,nan,nan,nan,nan,nan,nan,nan,0.0,nan,nan,nan,nan,nan,nan,nan,nan,nan,nan,nan,nan,nan,nan,nan,nan,nan,nan,186.00471926329192,201.0352306845307,nan,201.5085622711631,nan,nan,nan,nan
1,16,1,1,1.0,1.0,0.7048708510410506,1,7,2,1,3,0,4,1.0,1.0,1.0,1.0,1.0,1.0,0.0,0.0,0.0,1.0,0.0,0.0,1.0,5.0,3.0,4.0,3.0,2.0,1.0,2.0,3.0,4.0,1.0,5.0,6.0,3.5098623279773165,4.996389206236927,6.452108444122132,2.379823859431781,7.564109764731256,8.636018017190509,186.00471926329192,202.04367335618008,202.852100860473,202.74854420722113,212.5450348520826,213.54358084115665,203.86891521376674,212.536705650331
1,17,1,1,1.0,1.0,0.587215708772419,1,6,1,2,5,7,8,1.0,1.0,1.0,1.0,1.0,1.0,0.0,1.0,0.0,0.0,0.0,0.0,1.0,3.0,1.0,6.0,2.0,6.0,1.0,5.0,4.0,3.0,1.0,2.0,6.0,7.2944526062346995,6.295490370888729,5.134086606034543,2.519515249878168,3.8633951040974353,8.006268497672863,186.00471926329192,213.7452361898322,214.55370389323798,214.33245189860463,223.6132422191149,224.61951271246653,215.57051368494285,223.60492955317022
1,18,1,1,nan,nan,nan,0,8,6,5,1,0,3,nan,nan,nan,nan,nan,nan,nan,nan,nan,nan,nan,nan,0.0,nan,nan,nan,nan,nan,nan,nan,nan,nan,nan,nan,nan,nan,nan,nan,nan,nan,nan,186.00471926329192,224.8217944262433,nan,nan,nan,nan,nan,nan
1,19,1,1,1.0,1.0,0.7500059158192016,0,1,0,7,4,2,8,nan,nan,nan,nan,nan,nan,nan,nan,nan,nan,nan,nan,0.0,nan,nan,nan,nan,nan,nan,nan,nan,nan,nan,nan,nan,nan,nan,nan,nan,nan,nan,186.00471926329192,225.83027359069092,nan,226.58027950651012,nan,nan,nan,nan
1,20,1,1,1.0,1.0,0.557564719900256,0,8,4,1,6,5,3,nan,nan,nan,nan,nan,nan,nan,nan,nan,nan,nan,nan,0.0,nan,nan,nan,nan,nan,nan,nan,nan,nan,nan,nan,nan,nan,nan,nan,nan,nan,nan,186.00471926329192,226.83874306172947,nan,227.39630778162973,nan,nan,nan,nan
1,21,1,1,1.0,1.0,0.4531071500678081,0,6,5,2,0,3,7,nan,nan,nan,nan,nan,nan,nan,nan,nan,nan,nan,nan,0.0,nan,nan,nan,nan,nan,nan,nan,nan,nan,nan,nan,nan,nan,nan,nan,nan,nan,nan,186.00471926329192,227.84719713736558,nan,228.3003042874334,nan,nan,nan,nan
1,22,1,1,1.0,1.0,0.4209529815707356,0,2,4,7,1,8,3,nan,nan,nan,nan,nan,nan,nan,nan,nan,nan,nan,nan,0.0,nan,nan,nan,nan,nan,nan,nan,nan,nan,nan,nan,nan,nan,nan,nan,nan,nan,nan,186.00471926329192,228.84734995107283,nan,229.26830293264356,nan,nan,nan,nan
1,23,0,0,0.0,1.0,0.532796926854644,0,6,8,0,3,4,2,nan,nan,nan,nan,nan,nan,nan,nan,nan,nan,nan,nan,0.0,nan,nan,nan,nan,nan,nan,nan,nan,nan,nan,nan,nan,nan,nan,nan,nan,nan,nan,186.00471926329192,229.84748622894404,nan,230.38028315579868,nan,nan,nan,nan
1,24,1,1,1.0,1.0,0.5003120421315543,0,3,1,7,8,0,5,nan,nan,nan,nan,nan,nan,nan,nan,nan,nan,nan,nan,0.0,nan,nan,nan,nan,nan,nan,nan,nan,nan,nan,nan,nan,nan,nan,nan,nan,nan,nan,186.00471926329192,230.8559631126118,nan,231.35627515474334,nan,nan,nan,nan
1,25,1,1,1.0,1.0,0.39581740929861553,0,4,8,2,6,7,3,nan,nan,nan,nan,nan,nan,nan,nan,nan,nan,nan,nan,0.0,nan,nan,nan,nan,nan,nan,nan,nan,nan,nan,nan,nan,nan,nan,nan,nan,nan,nan,186.00471926329192,231.8644419919583,nan,232.26025940125692,nan,nan,nan,nan
1,26,1,1,1.0,1.0,0.37167997276992537,0,5,7,4,2,1,6,nan,nan,nan,nan,nan,nan,nan,nan,nan,nan,nan,nan,0.0,nan,nan,nan,nan,nan,nan,nan,nan,nan,nan,nan,nan,nan,nan,nan,nan,nan,nan,186.00471926329192,232.8645708572294,nan,233.23625082999934,nan,nan,nan,nan
1,27,1,1,1.0,1.0,0.47513427503872663,0,0,2,6,8,5,4,nan,nan,nan,nan,nan,nan,nan,nan,nan,nan,nan,nan,0.0,nan,nan,nan,nan,nan,nan,nan,nan,nan,nan,nan,nan,nan,nan,nan,nan,nan,nan,186.00471926329192,233.87310105463257,nan,234.3482353296713,nan,nan,nan,nan
1,28,1,1,1.0,1.0,0.6990448288561311,0,2,0,3,5,7,1,nan,nan,nan,nan,nan,nan,nan,nan,nan,nan,nan,nan,0.0,nan,nan,nan,nan,nan,nan,nan,nan,nan,nan,nan,nan,nan,nan,nan,nan,nan,nan,186.00471926329192,234.87318401876837,nan,235.5722288476245,nan,nan,nan,nan
1,29,1,1,1.0,1.0,0.4825907851627562,0,8,5,6,2,4,7,nan,nan,nan,nan,nan,nan,nan,nan,nan,nan,nan,nan,0.0,nan,nan,nan,nan,nan,nan,nan,nan,nan,nan,nan,nan,nan,nan,nan,nan,nan,nan,186.00471926329192,235.8816272605909,nan,236.36421804575366,nan,nan,nan,nan
1,30,1,1,1.0,1.0,0.6181134408107027,0,4,7,1,3,6,2,nan,nan,nan,nan,nan,nan,nan,nan,nan,nan,nan,nan,0.0,nan,nan,nan,nan,nan,nan,nan,nan,nan,nan,nan,nan,nan,nan,nan,nan,nan,nan,186.00471926329192,236.89008048092364,nan,237.50819392173435,nan,nan,nan,nan
1,31,1,1,1.0,1.0,0.5856296964921057,0,7,5,0,1,4,6,nan,nan,nan,nan,nan,nan,nan,nan,nan,nan,nan,nan,0.0,nan,nan,nan,nan,nan,nan,nan,nan,nan,nan,nan,nan,nan,nan,nan,nan,nan,nan,186.00471926329192,237.89857561100507,nan,238.48420530749718,nan,nan,nan,nan
1,32,1,1,1.0,1.0,0.425151651899796,0,0,2,5,3,6,7,nan,nan,nan,nan,nan,nan,nan,nan,nan,nan,nan,nan,0.0,nan,nan,nan,nan,nan,nan,nan,nan,nan,nan,nan,nan,nan,nan,nan,nan,nan,nan,186.00471926329192,238.90704650754924,nan,239.33219815944904,nan,nan,nan,nan
1,33,1,1,1.0,1.0,0.4486709912598599,0,4,0,6,1,5,2,nan,nan,nan,nan,nan,nan,nan,nan,nan,nan,nan,nan,0.0,nan,nan,nan,nan,nan,nan,nan,nan,nan,nan,nan,nan,nan,nan,nan,nan,nan,nan,186.00471926329192,239.91552424649126,nan,240.36419523775112,nan,nan,nan,nan
1,34,0,0,0.0,1.0,0.4645473649725318,0,8,2,0,5,6,7,nan,nan,nan,nan,nan,nan,nan,nan,nan,nan,nan,nan,0.0,nan,nan,nan,nan,nan,nan,nan,nan,nan,nan,nan,nan,nan,nan,nan,nan,nan,nan,186.00471926329192,240.9156325845688,nan,241.38017994954134,nan,nan,nan,nan
1,35,1,1,1.0,1.0,0.44802267345949076,0,7,8,6,4,0,3,nan,nan,nan,nan,nan,nan,nan,nan,nan,nan,nan,nan,0.0,nan,nan,nan,nan,nan,nan,nan,nan,nan,nan,nan,nan,nan,nan,nan,nan,nan,nan,186.00471926329192,241.9241334166145,nan,242.372156090074,nan,nan,nan,nan
1,36,1,1,1.0,1.0,0.7835562199179549,0,8,5,1,3,2,7,nan,nan,nan,nan,nan,nan,nan,nan,nan,nan,nan,nan,0.0,nan,nan,nan,nan,nan,nan,nan,nan,nan,nan,nan,nan,nan,nan,nan,nan,nan,nan,186.00471926329192,242.93259034326184,nan,243.7161465631798,nan,nan,nan,nan
1,37,1,1,1.0,1.0,0.76708512721234,0,7,1,6,0,5,4,nan,nan,nan,nan,nan,nan,nan,nan,nan,nan,nan,nan,0.0,nan,nan,nan,nan,nan,nan,nan,nan,nan,nan,nan,nan,nan,nan,nan,nan,nan,nan,186.00471926329192,243.94105895899702,nan,244.70814408620936,nan,nan,nan,nan
1,38,0,0,1.0,0.0,0.734585417289054,0,3,2,8,5,1,7,nan,nan,nan,nan,nan,nan,nan,nan,nan,nan,nan,nan,0.0,nan,nan,nan,nan,nan,nan,nan,nan,nan,nan,nan,nan,nan,nan,nan,nan,nan,nan,186.00471926329192,244.9495523784717,nan,245.68413779576076,nan,nan,nan,nan
1,39,1,1,1.0,1.0,0.606072804890573,0,5,8,6,3,7,2,nan,nan,nan,nan,nan,nan,nan,nan,nan,nan,nan,nan,0.0,nan,nan,nan,nan,nan,nan,nan,nan,nan,nan,nan,nan,nan,nan,nan,nan,nan,nan,186.00471926329192,245.9580198538024,nan,246.56409265869297,nan,nan,nan,nan
1,40,1,1,1.0,1.0,0.6456233273493126,1,7,5,2,0,3,1,1.0,1.0,1.0,1.0,1.0,1.0,1.0,0.0,0.0,1.0,0.0,0.0,2.0,7.0,8.0,6.0,0.0,1.0,2.0,2.0,3.0,4.0,1.0,5.0,6.0,2.8331938718329184,3.888258405699162,4.617219081526855,1.3044787242542952,5.393110097997123,6.216157539514825,186.00471926329192,246.9664799165621,247.7749048549449,247.6121032439114,255.05922129447572,256.0688174814277,248.80005439711385,255.05089038211736
1,41,1,1,1.0,1.0,0.775952883210266,0,3,8,5,4,7,0,nan,nan,nan,nan,nan,nan,nan,nan,nan,nan,nan,nan,0.0,nan,nan,nan,nan,nan,nan,nan,nan,nan,nan,nan,nan,nan,nan,nan,nan,nan,nan,186.00471926329192,256.2760864526499,nan,257.0520393358602,nan,nan,nan,nan
1,42,1,1,1.0,1.0,0.5354660347511526,0,6,1,7,0,3,8,nan,nan,nan,nan,nan,nan,nan,nan,nan,nan,nan,nan,0.0,nan,nan,nan,nan,nan,nan,nan,nan,nan,nan,nan,nan,nan,nan,nan,nan,nan,nan,186.00471926329192,257.2845539279806,nan,257.82001996273175,nan,nan,nan,nan
1,43,1,1,1.0,1.0,0.4793144138820935,0,1,5,6,8,4,3,nan,nan,nan,nan,nan,nan,nan,nan,nan,nan,nan,nan,0.0,nan,nan,nan,nan,nan,nan,nan,nan,nan,nan,nan,nan,nan,nan,nan,nan,nan,nan,186.00471926329192,258.28469220158877,nan,258.76400661547086,nan,nan,nan,nan
1,44,1,1,1.0,1.0,0.6311505018093158,0,0,2,7,3,5,8,nan,nan,nan,nan,nan,nan,nan,nan,nan,nan,nan,nan,0.0,nan,nan,nan,nan,nan,nan,nan,nan,nan,nan,nan,nan,nan,nan,nan,nan,nan,nan,186.00471926329192,259.2848413089814,nan,259.91599181079073,nan,nan,nan,nan
1,45,1,1,1.0,1.0,0.5349742369144224,0,3,6,1,5,2,4,nan,nan,nan,nan,nan,nan,nan,nan,nan,nan,nan,nan,0.0,nan,nan,nan,nan,nan,nan,nan,nan,nan,nan,nan,nan,nan,nan,nan,nan,nan,nan,186.00471926329192,260.28501750089345,nan,260.81999173780787,nan,nan,nan,nan
1,46,1,1,1.0,1.0,0.4788633854186628,0,2,1,8,3,0,5,nan,nan,nan,nan,nan,nan,nan,nan,nan,nan,nan,nan,0.0,nan,nan,nan,nan,nan,nan,nan,nan,nan,nan,nan,nan,nan,nan,nan,nan,nan,nan,186.00471926329192,261.2851158604317,nan,261.76397924585035,nan,nan,nan,nan
1,47,1,1,1.0,1.0,0.4707289070938714,0,1,2,6,4,5,8,nan,nan,nan,nan,nan,nan,nan,nan,nan,nan,nan,nan,0.0,nan,nan,nan,nan,nan,nan,nan,nan,nan,nan,nan,nan,nan,nan,nan,nan,nan,nan,186.00471926329192,262.285247576714,nan,262.7559764838079,nan,nan,nan,nan
1,48,1,1,1.0,1.0,0.4225817589031067,1,4,1,2,7,3,6,1.0,1.0,1.0,1.0,1.0,1.0,0.0,1.0,0.0,1.0,0.0,0.0,2.0,5.0,1.0,0.0,7.0,7.0,3.0,4.0,5.0,6.0,2.0,1.0,3.0,5.098036828654585,6.0814551170915365,7.2738489863986615,2.761758315435145,1.5617574031057302,4.091558782354696,186.00471926329192,263.28537302080076,264.09380023999256,263.70795477970387,272.4199693859555,273.41587363675353,265.1106097466254,272.4115959936753
1,49,1,1,nan,nan,nan,0,2,5,1,6,0,3,nan,nan,nan,nan,nan,nan,nan,nan,nan,nan,nan,nan,0.0,nan,nan,nan,nan,nan,nan,nan,nan,nan,nan,nan,nan,nan,nan,nan,nan,nan,nan,186.00471926329192,273.6201285288553,nan,nan,nan,nan,nan,nan
1,50,1,1,1.0,1.0,0.4635463782469742,0,8,7,6,2,3,0,nan,nan,nan,nan,nan,nan,nan,nan,nan,nan,nan,nan,0.0,nan,nan,nan,nan,nan,nan,nan,nan,nan,nan,nan,nan,nan,nan,nan,nan,nan,nan,186.00471926329192,274.62026537695783,nan,275.0838117552048,nan,nan,nan,nan
1,51,1,1,1.0,1.0,0.47945069178240374,0,3,8,2,4,1,7,nan,nan,nan,nan,nan,nan,nan,nan,nan,nan,nan,nan,0.0,nan,nan,nan,nan,nan,nan,nan,nan,nan,nan,nan,nan,nan,nan,nan,nan,nan,nan,186.00471926329192,275.62039937404916,nan,276.09985006583156,nan,nan,nan,nan
1,52,1,1,1.0,1.0,0.4873049166344572,0,6,4,0,7,5,8,nan,nan,nan,nan,nan,nan,nan,nan,nan,nan,nan,nan,0.0,nan,nan,nan,nan,nan,nan,nan,nan,nan,nan,nan,nan,nan,nan,nan,nan,nan,nan,186.00471926329192,276.6205396433361,nan,277.10784455997054,nan,nan,nan,nan
1,53,1,1,1.0,1.0,0.487156379444059,0,4,8,1,2,3,0,nan,nan,nan,nan,nan,nan,nan,nan,nan,nan,nan,nan,0.0,nan,nan,nan,nan,nan,nan,nan,nan,nan,nan,nan,nan,nan,nan,nan,nan,nan,nan,186.00471926329192,277.6206725000229,nan,278.107828879467,nan,nan,nan,nan
1,54,1,1,1.0,1.0,0.48700784222455695,0,8,1,7,5,0,3,nan,nan,nan,nan,nan,nan,nan,nan,nan,nan,nan,nan,0.0,nan,nan,nan,nan,nan,nan,nan,nan,nan,nan,nan,nan,nan,nan,nan,nan,nan,nan,186.00471926329192,278.62081419481547,nan,279.10782203704,nan,nan,nan,nan
1,55,1,1,1.0,1.0,0.6548674156074412,0,3,4,6,2,8,5,nan,nan,nan,nan,nan,nan,nan,nan,nan,nan,nan,nan,0.0,nan,nan,nan,nan,nan,nan,nan,nan,nan,nan,nan,nan,nan,nan,nan,nan,nan,nan,186.00471926329192,279.62094790677656,nan,280.275815322384,nan,nan,nan,nan
1,56,0,0,0.0,1.0,0.6386911164736375,0,5,8,2,3,1,0,nan,nan,nan,nan,nan,nan,nan,nan,nan,nan,nan,nan,0.0,nan,nan,nan,nan,nan,nan,nan,nan,nan,nan,nan,nan,nan,nan,nan,nan,nan,nan,186.00471926329192,280.6211021459894,nan,281.25979326246306,nan,nan,nan,nan
1,57,1,1,1.0,1.0,0.6065819938085042,0,2,0,4,1,8,7,nan,nan,nan,nan,nan,nan,nan,nan,nan,nan,nan,nan,0.0,nan,nan,nan,nan,nan,nan,nan,nan,nan,nan,nan,nan,nan,nan,nan,nan,nan,nan,186.00471926329192,281.62121533075697,nan,282.2277973245655,nan,nan,nan,nan
1,58,0,0,1.0,0.0,0.7024058749084361,0,7,8,0,2,4,6,nan,nan,nan,nan,nan,nan,nan,nan,nan,nan,nan,nan,0.0,nan,nan,nan,nan,nan,nan,nan,nan,nan,nan,nan,nan,nan,nan,nan,nan,nan,nan,186.00471926329192,282.621370140143,nan,283.3237760150514,nan,nan,nan,nan
1,59,1,1,1.0,1.0,0.7502736249007285,0,6,1,8,4,3,5,nan,nan,nan,nan,nan,nan,nan,nan,nan,nan,nan,nan,0.0,nan,nan,nan,nan,nan,nan,nan,nan,nan,nan,nan,nan,nan,nan,nan,nan,nan,nan,186.00471926329192,283.6214992905443,nan,284.37177291544504,nan,nan,nan,nan
1,60,1,1,1.0,1.0,0.6458234676974826,0,3,8,6,1,4,0,nan,nan,nan,nan,nan,nan,nan,nan,nan,nan,nan,nan,0.0,nan,nan,nan,nan,nan,nan,nan,nan,nan,nan,nan,nan,nan,nan,nan,nan,nan,nan,186.00471926329192,284.62993797074887,nan,285.27576143844635,nan,nan,nan,nan
1,61,1,1,1.0,1.0,0.629683091188781,0,4,7,1,0,3,5,nan,nan,nan,nan,nan,nan,nan,nan,nan,nan,nan,nan,0.0,nan,nan,nan,nan,nan,nan,nan,nan,nan,nan,nan,nan,nan,nan,nan,nan,nan,nan,186.00471926329192,285.63006284463336,nan,286.25974593582214,nan,nan,nan,nan
1,62,1,1,1.0,1.0,0.5494909678818658,0,0,6,7,3,2,8,nan,nan,nan,nan,nan,nan,nan,nan,nan,nan,nan,nan,0.0,nan,nan,nan,nan,nan,nan,nan,nan,nan,nan,nan,nan,nan,nan,nan,nan,nan,nan,186.00471926329192,286.6302575680602,nan,287.17974853594205,nan,nan,nan,nan
1,63,1,1,1.0,1.0,0.5009897252894007,0,4,3,8,0,6,7,nan,nan,nan,nan,nan,nan,nan,nan,nan,nan,nan,nan,0.0,nan,nan,nan,nan,nan,nan,nan,nan,nan,nan,nan,nan,nan,nan,nan,nan,nan,nan,186.00471926329192,287.6387350219011,nan,288.1397247471905,nan,nan,nan,nan
1,64,1,1,1.0,1.0,0.49286864665918984,0,0,4,1,3,5,6,nan,nan,nan,nan,nan,nan,nan,nan,nan,nan,nan,nan,0.0,nan,nan,nan,nan,nan,nan,nan,nan,nan,nan,nan,nan,nan,nan,nan,nan,nan,nan,186.00471926329192,288.63885704477434,nan,289.13172569143353,nan,nan,nan,nan
1,65,1,1,1.0,1.0,0.46871980611467734,0,4,0,2,7,3,1,nan,nan,nan,nan,nan,nan,nan,nan,nan,nan,nan,nan,0.0,nan,nan,nan,nan,nan,nan,nan,nan,nan,nan,nan,nan,nan,nan,nan,nan,nan,nan,186.00471926329192,289.6389987395669,nan,290.10771854568156,nan,nan,nan,nan
1,66,1,1,1.0,1.0,0.5485655326920096,0,3,7,5,0,2,8,nan,nan,nan,nan,nan,nan,nan,nan,nan,nan,nan,nan,0.0,nan,nan,nan,nan,nan,nan,nan,nan,nan,nan,nan,nan,nan,nan,nan,nan,nan,nan,186.00471926329192,290.63912931547384,nan,291.18769484816585,nan,nan,nan,nan
1,67,1,1,1.0,1.0,0.5084191508649383,0,8,0,4,5,7,2,nan,nan,nan,nan,nan,nan,nan,nan,nan,nan,nan,nan,0.0,nan,nan,nan,nan,nan,nan,nan,nan,nan,nan,nan,nan,nan,nan,nan,nan,nan,nan,186.00471926329192,291.63928184405086,nan,292.1477009949158,nan,nan,nan,nan
1,68,1,1,1.0,1.0,0.532302278035786,0,2,7,1,6,0,8,nan,nan,nan,nan,nan,nan,nan,nan,nan,nan,nan,nan,0.0,nan,nan,nan,nan,nan,nan,nan,nan,nan,nan,nan,nan,nan,nan,nan,nan,nan,nan,186.00471926329192,292.63938305462943,nan,293.1716853326652,nan,nan,nan,nan
1,69,1,1,1.0,1.0,0.5238578958087601,0,5,2,0,1,3,4,nan,nan,nan,nan,nan,nan,nan,nan,nan,nan,nan,nan,0.0,nan,nan,nan,nan,nan,nan,nan,nan,nan,nan,nan,nan,nan,nan,nan,nan,nan,nan,186.00471926329192,293.6478220199351,nan,294.1716799157439,nan,nan,nan,nan
1,70,1,1,1.0,1.0,0.5637057777494192,0,0,6,5,4,7,2,nan,nan,nan,nan,nan,nan,nan,nan,nan,nan,nan,nan,0.0,nan,nan,nan,nan,nan,nan,nan,nan,nan,nan,nan,nan,nan,nan,nan,nan,nan,nan,186.00471926329192,294.6480133221776,nan,295.211719099927,nan,nan,nan,nan
1,71,1,1,1.0,1.0,0.6835157071764115,0,1,2,7,5,8,6,nan,nan,nan,nan,nan,nan,nan,nan,nan,nan,nan,nan,0.0,nan,nan,nan,nan,nan,nan,nan,nan,nan,nan,nan,nan,nan,nan,nan,nan,nan,nan,186.00471926329192,295.6481387662352,nan,296.3316544734116,nan,nan,nan,nan
1,72,1,1,1.0,1.0,0.6433636233268771,1,4,0,2,7,6,5,1.0,1.0,1.0,1.0,1.0,1.0,0.0,1.0,0.0,1.0,0.0,1.0,3.0,6.0,0.0,0.0,7.0,3.0,5.0,2.0,3.0,4.0,1.0,5.0,6.0,2.791486281406833,3.567989122850122,6.112149287597276,1.2415283194277436,7.079401825612877,8.127011845062952,186.00471926329192,296.64829129484133,297.45669285501936,297.2916549181682,306.6329229696421,307.64195437313174,298.46517287477036,306.6245954784972
1,73,1,1,1.0,1.0,0.4737555306055583,0,3,8,5,6,4,7,nan,nan,nan,nan,nan,nan,nan,nan,nan,nan,nan,nan,0.0,nan,nan,nan,nan,nan,nan,nan,nan,nan,nan,nan,nan,nan,nan,nan,nan,nan,nan,186.00471926329192,307.84980865500984,nan,308.3235641856154,nan,nan,nan,nan
1,74,1,1,1.0,1.0,0.4495773247326724,0,7,6,1,8,0,5,nan,nan,nan,nan,nan,nan,nan,nan,nan,nan,nan,nan,0.0,nan,nan,nan,nan,nan,nan,nan,nan,nan,nan,nan,nan,nan,nan,nan,nan,nan,nan,186.00471926329192,308.84995006470126,nan,309.29952738943393,nan,nan,nan,nan
1,75,1,1,1.0,1.0,0.5214242806832772,0,0,7,2,4,6,3,nan,nan,nan,nan,nan,nan,nan,nan,nan,nan,nan,nan,0.0,nan,nan,nan,nan,nan,nan,nan,nan,nan,nan,nan,nan,nan,nan,nan,nan,nan,nan,186.00471926329192,309.8501191291143,nan,310.3715434097976,nan,nan,nan,nan
1,76,1,1,nan,nan,nan,0,2,1,6,5,8,0,nan,nan,nan,nan,nan,nan,nan,nan,nan,nan,nan,nan,0.0,nan,nan,nan,nan,nan,nan,nan,nan,nan,nan,nan,nan,nan,nan,nan,nan,nan,nan,186.00471926329192,310.85022376087727,nan,nan,nan,nan,nan,nan
1,77,0,0,nan,nan,nan,0,0,4,3,1,5,8,nan,nan,nan,nan,nan,nan,nan,nan,nan,nan,nan,nan,0.0,nan,nan,nan,nan,nan,nan,nan,nan,nan,nan,nan,nan,nan,nan,nan,nan,nan,nan,186.00471926329192,311.858710337925,nan,nan,nan,nan,nan,nan
1,78,1,1,1.0,1.0,0.46431757422396913,0,1,8,2,3,7,0,nan,nan,nan,nan,nan,nan,nan,nan,nan,nan,nan,nan,0.0,nan,nan,nan,nan,nan,nan,nan,nan,nan,nan,nan,nan,nan,nan,nan,nan,nan,nan,186.00471926329192,312.8671444565698,nan,313.3314620307938,nan,nan,nan,nan
1,79,0,0,0.0,1.0,0.5761977272341028,0,5,0,7,2,1,3,nan,nan,nan,nan,nan,nan,nan,nan,nan,nan,nan,nan,0.0,nan,nan,nan,nan,nan,nan,nan,nan,nan,nan,nan,nan,nan,nan,nan,nan,nan,nan,186.00471926329192,313.8672918533557,nan,314.4434895805898,nan,nan,nan,nan
1,80,1,1,1.0,1.0,0.40771121860598214,0,0,1,8,5,2,6,nan,nan,nan,nan,nan,nan,nan,nan,nan,nan,nan,nan,0.0,nan,nan,nan,nan,nan,nan,nan,nan,nan,nan,nan,nan,nan,nan,nan,nan,nan,nan,186.00471926329192,314.8757553372998,nan,315.28346655590576,nan,nan,nan,nan
1,81,1,1,1.0,1.0,0.327553022216307,0,5,2,0,1,3,7,nan,nan,nan,nan,nan,nan,nan,nan,nan,nan,nan,nan,0.0,nan,nan,nan,nan,nan,nan,nan,nan,nan,nan,nan,nan,nan,nan,nan,nan,nan,nan,186.00471926329192,315.8759115721914,nan,316.2034645944077,nan,nan,nan,nan
1,82,1,1,1.0,1.0,0.43140760518144816,0,1,5,8,2,6,4,nan,nan,nan,nan,nan,nan,nan,nan,nan,nan,nan,nan,0.0,nan,nan,nan,nan,nan,nan,nan,nan,nan,nan,nan,nan,nan,nan,nan,nan,nan,nan,186.00471926329192,316.87605098617496,nan,317.3074585913564,nan,nan,nan,nan
1,83,1,1,1.0,1.0,0.5192920164263342,0,8,7,4,0,1,3,nan,nan,nan,nan,nan,nan,nan,nan,nan,nan,nan,nan,0.0,nan,nan,nan,nan,nan,nan,nan,nan,nan,nan,nan,nan,nan,nan,nan,nan,nan,nan,186.00471926329192,317.8761482053378,nan,318.39544022176415,nan,nan,nan,nan
1,84,1,1,1.0,1.0,0.5031094451260287,0,5,8,6,3,7,4,nan,nan,nan,nan,nan,nan,nan,nan,nan,nan,nan,nan,0.0,nan,nan,nan,nan,nan,nan,nan,nan,nan,nan,nan,nan,nan,nan,nan,nan,nan,nan,186.00471926329192,318.8763226866431,nan,319.37943213176914,nan,nan,nan,nan
1,85,1,1,1.0,1.0,0.43097225719247945,0,3,2,1,0,5,8,nan,nan,nan,nan,nan,nan,nan,nan,nan,nan,nan,nan,0.0,nan,nan,nan,nan,nan,nan,nan,nan,nan,nan,nan,nan,nan,nan,nan,nan,nan,nan,186.00471926329192,319.8764578241389,nan,320.3074300813314,nan,nan,nan,nan
1,86,1,1,1.0,1.0,0.3268556671682745,0,6,4,8,3,2,5,nan,nan,nan,nan,nan,nan,nan,nan,nan,nan,nan,nan,0.0,nan,nan,nan,nan,nan,nan,nan,nan,nan,nan,nan,nan,nan,nan,nan,nan,nan,nan,186.00471926329192,320.87655846451526,nan,321.20341413168353,nan,nan,nan,nan
1,87,1,1,0.0,0.0,0.48672302716295235,0,2,5,1,0,6,7,nan,nan,nan,nan,nan,nan,nan,nan,nan,nan,nan,nan,0.0,nan,nan,nan,nan,nan,nan,nan,nan,nan,nan,nan,nan,nan,nan,nan,nan,nan,nan,186.00471926329192,321.8767164100136,nan,322.36343943717657,nan,nan,nan,nan
1,88,1,1,1.0,1.0,0.6861856703471858,0,4,1,5,6,2,3,nan,nan,nan,nan,nan,nan,nan,nan,nan,nan,nan,nan,0.0,nan,nan,nan,nan,nan,nan,nan,nan,nan,nan,nan,nan,nan,nan,nan,nan,nan,nan,186.00471926329192,322.8851841704454,nan,323.5713698407926,nan,nan,nan,nan
1,89,1,1,1.0,1.0,0.5420529893017374,0,2,8,3,4,5,0,nan,nan,nan,nan,nan,nan,nan,nan,nan,nan,nan,nan,0.0,nan,nan,nan,nan,nan,nan,nan,nan,nan,nan,nan,nan,nan,nan,nan,nan,nan,nan,186.00471926329192,323.88534183084266,nan,324.4273948201444,nan,nan,nan,nan
1,90,1,1,nan,nan,nan,0,1,7,6,3,4,5,nan,nan,nan,nan,nan,nan,nan,nan,nan,nan,nan,nan,0.0,nan,nan,nan,nan,nan,nan,nan,nan,nan,nan,nan,nan,nan,nan,nan,nan,nan,nan,186.00471926329192,324.8854775385407,nan,nan,nan,nan,nan,nan
1,91,1,1,nan,nan,nan,0,0,2,5,1,3,7,nan,nan,nan,nan,nan,nan,nan,nan,nan,nan,nan,nan,0.0,nan,nan,nan,nan,nan,nan,nan,nan,nan,nan,nan,nan,nan,nan,nan,nan,nan,nan,186.00471926329192,325.88560668891296,nan,nan,nan,nan,nan,nan
1,92,1,1,1.0,1.0,0.7255753963254392,0,4,5,8,2,7,6,nan,nan,nan,nan,nan,nan,nan,nan,nan,nan,nan,nan,0.0,nan,nan,nan,nan,nan,nan,nan,nan,nan,nan,nan,nan,nan,nan,nan,nan,nan,nan,186.00471926329192,326.8857469581999,nan,327.6113223545253,nan,nan,nan,nan
1,93,1,1,1.0,1.0,0.6454804921522737,0,3,7,2,1,0,8,nan,nan,nan,nan,nan,nan,nan,nan,nan,nan,nan,nan,0.0,nan,nan,nan,nan,nan,nan,nan,nan,nan,nan,nan,nan,nan,nan,nan,nan,nan,nan,186.00471926329192,327.88587297248887,nan,328.53135346464114,nan,nan,nan,nan
1,94,0,0,0.0,1.0,0.5653117470792495,0,2,4,3,7,8,1,nan,nan,nan,nan,nan,nan,nan,nan,nan,nan,nan,nan,0.0,nan,nan,nan,nan,nan,nan,nan,nan,nan,nan,nan,nan,nan,nan,nan,nan,nan,nan,186.00471926329192,328.88602635636926,nan,329.4513381034485,nan,nan,nan,nan
1,95,1,1,1.0,1.0,0.5091632623516489,0,7,2,8,3,6,0,nan,nan,nan,nan,nan,nan,nan,nan,nan,nan,nan,nan,0.0,nan,nan,nan,nan,nan,nan,nan,nan,nan,nan,nan,nan,nan,nan,nan,nan,nan,nan,186.00471926329192,329.8861666256562,nan,330.39532988800784,nan,nan,nan,nan
1,96,1,1,1.0,1.0,0.6130340959934983,0,8,5,2,4,0,7,nan,nan,nan,nan,nan,nan,nan,nan,nan,nan,nan,nan,0.0,nan,nan,nan,nan,nan,nan,nan,nan,nan,nan,nan,nan,nan,nan,nan,nan,nan,nan,186.00471926329192,330.8862980568374,nan,331.4993321528309,nan,nan,nan,nan
1,97,1,1,1.0,1.0,0.5808727999974508,0,3,7,4,6,8,5,nan,nan,nan,nan,nan,nan,nan,nan,nan,nan,nan,nan,0.0,nan,nan,nan,nan,nan,nan,nan,nan,nan,nan,nan,nan,nan,nan,nan,nan,nan,nan,186.00471926329192,331.8864377559221,nan,332.46731055591954,nan,nan,nan,nan
1,98,1,1,1.0,1.0,0.5567191127629485,0,6,2,3,1,4,7,nan,nan,nan,nan,nan,nan,nan,nan,nan,nan,nan,nan,0.0,nan,nan,nan,nan,nan,nan,nan,nan,nan,nan,nan,nan,nan,nan,nan,nan,nan,nan,186.00471926329192,332.8865714679123,nan,333.44329058067524,nan,nan,nan,nan
1,99,1,1,1.0,1.0,0.756567211356014,0,7,5,6,2,3,0,nan,nan,nan,nan,nan,nan,nan,nan,nan,nan,nan,nan,0.0,nan,nan,nan,nan,nan,nan,nan,nan,nan,nan,nan,nan,nan,nan,nan,nan,nan,nan,186.00471926329192,333.88671829452505,nan,334.64328550588107,nan,nan,nan,nan
1,100,1,1,1.0,1.0,0.5644573018071242,0,0,3,5,8,2,6,nan,nan,nan,nan,nan,nan,nan,nan,nan,nan,nan,nan,0.0,nan,nan,nan,nan,nan,nan,nan,nan,nan,nan,nan,nan,nan,nan,nan,nan,nan,nan,186.00471926329192,334.88683347500046,nan,335.4512907768076,nan,nan,nan,nan
1,101,1,1,1.0,1.0,0.5722764593665488,0,8,6,0,7,1,5,nan,nan,nan,nan,nan,nan,nan,nan,nan,nan,nan,nan,0.0,nan,nan,nan,nan,nan,nan,nan,nan,nan,nan,nan,nan,nan,nan,nan,nan,nan,nan,186.00471926329192,335.8869959820877,nan,336.45927244145423,nan,nan,nan,nan
1,102,1,1,1.0,1.0,0.5081434589810669,0,6,5,7,8,3,1,nan,nan,nan,nan,nan,nan,nan,nan,nan,nan,nan,nan,0.0,nan,nan,nan,nan,nan,nan,nan,nan,nan,nan,nan,nan,nan,nan,nan,nan,nan,nan,186.00471926329192,336.8871200006688,nan,337.39526345964987,nan,nan,nan,nan
1,103,1,1,1.0,1.0,0.4679873837449122,1,4,1,3,2,7,8,1.0,1.0,1.0,1.0,1.0,1.0,0.0,0.0,0.0,1.0,1.0,0.0,2.0,6.0,3.0,1.0,2.0,7.0,0.0,3.0,4.0,5.0,1.0,2.0,6.0,4.096636131493142,5.015705883823102,6.159199655376142,1.886835185578093,3.3032413894834463,7.2948651461920235,186.00471926329192,337.88725827424787,338.6956723788462,338.3552456579928,347.04681373466155,348.04562999869813,339.7124835960567,347.038477690483
1,104,1,1,nan,nan,nan,0,1,6,8,5,3,4,nan,nan,nan,nan,nan,nan,nan,nan,nan,nan,nan,nan,0.0,nan,nan,nan,nan,nan,nan,nan,nan,nan,nan,nan,nan,nan,nan,nan,nan,nan,nan,186.00471926329192,348.24696061827126,nan,nan,nan,nan,nan,nan
1,105,1,1,1.0,1.0,0.09203974637784995,0,5,7,0,8,4,3,nan,nan,nan,nan,nan,nan,nan,nan,nan,nan,nan,nan,0.0,nan,nan,nan,nan,nan,nan,nan,nan,nan,nan,nan,nan,nan,nan,nan,nan,nan,nan,186.00471926329192,349.2471322485653,nan,349.3391719949432,nan,nan,nan,nan
1,106,1,1,1.0,1.0,0.6758479378186166,0,7,3,6,1,2,0,nan,nan,nan,nan,nan,nan,nan,nan,nan,nan,nan,nan,0.0,nan,nan,nan,nan,nan,nan,nan,nan,nan,nan,nan,nan,nan,nan,nan,nan,nan,nan,186.00471926329192,350.2472645350499,nan,350.9231124728685,nan,nan,nan,nan
1,107,1,1,1.0,1.0,0.6837275365833193,0,8,1,4,6,7,5,nan,nan,nan,nan,nan,nan,nan,nan,nan,nan,nan,nan,0.0,nan,nan,nan,nan,nan,nan,nan,nan,nan,nan,nan,nan,nan,nan,nan,nan,nan,nan,186.00471926329192,351.2474107914604,nan,351.93113832804374,nan,nan,nan,nan
1,108,1,1,1.0,1.0,0.6836223346472252,0,2,8,5,4,1,6,nan,nan,nan,nan,nan,nan,nan,nan,nan,nan,nan,nan,0.0,nan,nan,nan,nan,nan,nan,nan,nan,nan,nan,nan,nan,nan,nan,nan,nan,nan,nan,186.00471926329192,352.2475476395339,nan,352.9311699741811,nan,nan,nan,nan
1,109,1,1,1.0,1.0,0.5794204996782355,0,1,2,3,7,8,4,nan,nan,nan,nan,nan,nan,nan,nan,nan,nan,nan,nan,0.0,nan,nan,nan,nan,nan,nan,nan,nan,nan,nan,nan,nan,nan,nan,nan,nan,nan,nan,186.00471926329192,353.24769560652203,nan,353.82711610620026,nan,nan,nan,nan
1,110,1,1,1.0,1.0,0.4752759698603768,0,4,1,7,8,2,5,nan,nan,nan,nan,nan,nan,nan,nan,nan,nan,nan,nan,0.0,nan,nan,nan,nan,nan,nan,nan,nan,nan,nan,nan,nan,nan,nan,nan,nan,nan,nan,186.00471926329192,354.2478278930066,nan,354.723103862867,nan,nan,nan,nan
1,111,1,1,1.0,1.0,0.7550926732365042,0,6,7,0,2,5,8,nan,nan,nan,nan,nan,nan,nan,nan,nan,nan,nan,nan,0.0,nan,nan,nan,nan,nan,nan,nan,nan,nan,nan,nan,nan,nan,nan,nan,nan,nan,nan,186.00471926329192,355.24800636572763,nan,356.00309903896414,nan,nan,nan,nan
1,112,1,1,1.0,1.0,0.5949863992864266,0,7,2,8,5,4,0,nan,nan,nan,nan,nan,nan,nan,nan,nan,nan,nan,nan,0.0,nan,nan,nan,nan,nan,nan,nan,nan,nan,nan,nan,nan,nan,nan,nan,nan,nan,nan,186.00471926329192,356.2480936063803,nan,356.8430800056667,nan,nan,nan,nan
1,113,1,1,1.0,1.0,0.46682446013437584,0,1,8,4,7,3,6,nan,nan,nan,nan,nan,nan,nan,nan,nan,nan,nan,nan,0.0,nan,nan,nan,nan,nan,nan,nan,nan,nan,nan,nan,nan,nan,nan,nan,nan,nan,nan,186.00471926329192,357.24823957766057,nan,357.71506403779495,nan,nan,nan,nan
1,114,1,1,1.0,1.0,0.4903418037574738,0,7,0,2,3,6,4,nan,nan,nan,nan,nan,nan,nan,nan,nan,nan,nan,nan,0.0,nan,nan,nan,nan,nan,nan,nan,nan,nan,nan,nan,nan,nan,nan,nan,nan,nan,nan,186.00471926329192,358.25671674642945,nan,358.7470585501869,nan,nan,nan,nan
1,115,1,1,1.0,1.0,0.4902157894684933,0,4,1,3,0,8,5,nan,nan,nan,nan,nan,nan,nan,nan,nan,nan,nan,nan,0.0,nan,nan,nan,nan,nan,nan,nan,nan,nan,nan,nan,nan,nan,nan,nan,nan,nan,nan,186.00471926329192,359.25684076501057,nan,359.74705655447906,nan,nan,nan,nan
1,116,1,1,1.0,1.0,0.5140615685086232,0,6,4,8,1,7,2,nan,nan,nan,nan,nan,nan,nan,nan,nan,nan,nan,nan,0.0,nan,nan,nan,nan,nan,nan,nan,nan,nan,nan,nan,nan,nan,nan,nan,nan,nan,nan,186.00471926329192,360.25698188960087,nan,360.7710434581095,nan,nan,nan,nan
1,117,1,1,1.0,1.0,0.457926483504707,0,1,3,5,2,8,6,nan,nan,nan,nan,nan,nan,nan,nan,nan,nan,nan,nan,0.0,nan,nan,nan,nan,nan,nan,nan,nan,nan,nan,nan,nan,nan,nan,nan,nan,nan,nan,186.00471926329192,361.2571198780788,nan,361.7150463615835,nan,nan,nan,nan
1,118,1,1,1.0,1.0,0.3857650620630011,0,5,0,6,8,2,3,nan,nan,nan,nan,nan,nan,nan,nan,nan,nan,nan,nan,0.0,nan,nan,nan,nan,nan,nan,nan,nan,nan,nan,nan,nan,nan,nan,nan,nan,nan,nan,186.00471926329192,362.2572581516579,nan,362.6430232137209,nan,nan,nan,nan
1,119,1,1,1.0,1.0,0.40162661057547666,0,3,2,4,1,8,0,nan,nan,nan,nan,nan,nan,nan,nan,nan,nan,nan,nan,0.0,nan,nan,nan,nan,nan,nan,nan,nan,nan,nan,nan,nan,nan,nan,nan,nan,nan,nan,186.00471926329192,363.25738160003675,nan,363.6590082106122,nan,nan,nan,nan
1,120,1,1,1.0,1.0,0.44148675180622377,0,7,0,3,6,5,8,nan,nan,nan,nan,nan,nan,nan,nan,nan,nan,nan,nan,0.0,nan,nan,nan,nan,nan,nan,nan,nan,nan,nan,nan,nan,nan,nan,nan,nan,nan,nan,186.00471926329192,364.2575170226337,nan,364.6990037744399,nan,nan,nan,nan
1,121,1,1,1.0,1.0,0.44931047098361887,0,1,6,8,5,2,0,nan,nan,nan,nan,nan,nan,nan,nan,nan,nan,nan,nan,0.0,nan,nan,nan,nan,nan,nan,nan,nan,nan,nan,nan,nan,nan,nan,nan,nan,nan,nan,186.00471926329192,365.2576783893164,nan,365.70698886030004,nan,nan,nan,nan
1,122,0,0,0.0,1.0,0.5611988918681163,0,0,5,3,4,1,7,nan,nan,nan,nan,nan,nan,nan,nan,nan,nan,nan,nan,0.0,nan,nan,nan,nan,nan,nan,nan,nan,nan,nan,nan,nan,nan,nan,nan,nan,nan,nan,186.00471926329192,366.25779870161205,nan,366.81899759348016,nan,nan,nan,nan
1,123,1,1,1.0,1.0,0.4890454532287549,0,4,6,7,8,5,0,nan,nan,nan,nan,nan,nan,nan,nan,nan,nan,nan,nan,0.0,nan,nan,nan,nan,nan,nan,nan,nan,nan,nan,nan,nan,nan,nan,nan,nan,nan,nan,186.00471926329192,367.2579307029955,nan,367.74697615622426,nan,nan,nan,nan
1,124,1,1,1.0,1.0,0.68090390440193,0,0,1,8,7,4,2,nan,nan,nan,nan,nan,nan,nan,nan,nan,nan,nan,nan,0.0,nan,nan,nan,nan,nan,nan,nan,nan,nan,nan,nan,nan,nan,nan,nan,nan,nan,nan,186.00471926329192,368.25807125738356,nan,368.9389751617855,nan,nan,nan,nan
1,125,1,1,nan,nan,nan,0,5,6,7,2,3,8,nan,nan,nan,nan,nan,nan,nan,nan,nan,nan,nan,nan,0.0,nan,nan,nan,nan,nan,nan,nan,nan,nan,nan,nan,nan,nan,nan,nan,nan,nan,nan,186.00471926329192,369.25821238197386,nan,nan,nan,nan,nan,nan
1,126,1,1,1.0,1.0,0.7605916855100077,0,7,2,6,1,5,3,nan,nan,nan,nan,nan,nan,nan,nan,nan,nan,nan,nan,0.0,nan,nan,nan,nan,nan,nan,nan,nan,nan,nan,nan,nan,nan,nan,nan,nan,nan,nan,186.00471926329192,370.25833468994824,nan,371.01892637545825,nan,nan,nan,nan
1,127,1,1,nan,nan,nan,0,1,4,0,3,6,8,nan,nan,nan,nan,nan,nan,nan,nan,nan,nan,nan,nan,0.0,nan,nan,nan,nan,nan,nan,nan,nan,nan,nan,nan,nan,nan,nan,nan,nan,nan,nan,186.00471926329192,371.2584738188307,nan,nan,nan,nan,nan,nan
1,128,1,1,1.0,1.0,0.7922611836984288,0,6,2,7,5,8,3,nan,nan,nan,nan,nan,nan,nan,nan,nan,nan,nan,nan,0.0,nan,nan,nan,nan,nan,nan,nan,nan,nan,nan,nan,nan,nan,nan,nan,nan,nan,nan,186.00471926329192,372.2586260623357,nan,373.0508872460341,nan,nan,nan,nan
1,129,0,0,0.0,1.0,0.6561572088103276,0,8,0,3,6,5,4,nan,nan,nan,nan,nan,nan,nan,nan,nan,nan,nan,nan,0.0,nan,nan,nan,nan,nan,nan,nan,nan,nan,nan,nan,nan,nan,nan,nan,nan,nan,nan,186.00471926329192,373.2587686124025,nan,373.9149258212128,nan,nan,nan,nan
1,130,1,1,1.0,1.0,0.7440313564438839,0,3,6,0,5,4,2,nan,nan,nan,nan,nan,nan,nan,nan,nan,nan,nan,nan,0.0,nan,nan,nan,nan,nan,nan,nan,nan,nan,nan,nan,nan,nan,nan,nan,nan,nan,nan,186.00471926329192,374.2588872140914,nan,375.00291857053526,nan,nan,nan,nan
1,131,1,1,0.0,0.0,0.04786005229107104,0,7,4,5,8,6,0,nan,nan,nan,nan,nan,nan,nan,nan,nan,nan,nan,nan,0.0,nan,nan,nan,nan,nan,nan,nan,nan,nan,nan,nan,nan,nan,nan,nan,nan,nan,nan,186.00471926329192,375.2590471552976,nan,375.30690720758867,nan,nan,nan,nan
1,132,0,0,0.0,1.0,0.5594061819429044,0,0,6,1,7,8,3,nan,nan,nan,nan,nan,nan,nan,nan,nan,nan,nan,nan,0.0,nan,nan,nan,nan,nan,nan,nan,nan,nan,nan,nan,nan,nan,nan,nan,nan,nan,nan,186.00471926329192,376.2674866908055,nan,376.82689287274843,nan,nan,nan,nan
1,133,1,1,1.0,1.0,0.4712469340884127,0,8,5,2,3,4,7,nan,nan,nan,nan,nan,nan,nan,nan,nan,nan,nan,nan,0.0,nan,nan,nan,nan,nan,nan,nan,nan,nan,nan,nan,nan,nan,nan,nan,nan,nan,nan,186.00471926329192,377.26764178532176,nan,377.73888871941017,nan,nan,nan,nan
1,134,1,1,1.0,1.0,0.671100449631922,0,5,2,7,6,1,8,nan,nan,nan,nan,nan,nan,nan,nan,nan,nan,nan,nan,0.0,nan,nan,nan,nan,nan,nan,nan,nan,nan,nan,nan,nan,nan,nan,nan,nan,nan,nan,186.00471926329192,378.2677809142042,nan,378.9388813638361,nan,nan,nan,nan
1,135,1,1,1.0,1.0,0.5349759475211613,0,7,8,0,4,3,2,nan,nan,nan,nan,nan,nan,nan,nan,nan,nan,nan,nan,0.0,nan,nan,nan,nan,nan,nan,nan,nan,nan,nan,nan,nan,nan,nan,nan,nan,nan,nan,186.00471926329192,379.26790293707745,nan,379.8028788845986,nan,nan,nan,nan
1,136,1,1,1.0,1.0,0.6468255948275328,0,5,3,6,8,7,0,nan,nan,nan,nan,nan,nan,nan,nan,nan,nan,nan,nan,0.0,nan,nan,nan,nan,nan,nan,nan,nan,nan,nan,nan,nan,nan,nan,nan,nan,nan,nan,186.00471926329192,380.26804035535315,nan,380.9148659501807,nan,nan,nan,nan
1,137,1,1,1.0,1.0,0.48666458163643256,0,6,1,5,0,4,3,nan,nan,nan,nan,nan,nan,nan,nan,nan,nan,nan,nan,0.0,nan,nan,nan,nan,nan,nan,nan,nan,nan,nan,nan,nan,nan,nan,nan,nan,nan,nan,186.00471926329192,381.2681783438602,nan,381.75484292549663,nan,nan,nan,nan
1,138,0,0,0.0,1.0,0.7105229621229228,0,0,2,1,4,3,5,nan,nan,nan,nan,nan,nan,nan,nan,nan,nan,nan,nan,0.0,nan,nan,nan,nan,nan,nan,nan,nan,nan,nan,nan,nan,nan,nan,nan,nan,nan,nan,186.00471926329192,382.2683146217314,nan,382.97883758385433,nan,nan,nan,nan
1,139,1,1,1.0,1.0,0.7423675118188839,0,1,7,6,5,0,2,nan,nan,nan,nan,nan,nan,nan,nan,nan,nan,nan,nan,0.0,nan,nan,nan,nan,nan,nan,nan,nan,nan,nan,nan,nan,nan,nan,nan,nan,nan,nan,186.00471926329192,383.2684654397308,nan,384.0108329515497,nan,nan,nan,nan
1,140,1,1,nan,nan,nan,0,4,5,3,8,2,1,nan,nan,nan,nan,nan,nan,nan,nan,nan,nan,nan,nan,0.0,nan,nan,nan,nan,nan,nan,nan,nan,nan,nan,nan,nan,nan,nan,nan,nan,nan,nan,186.00471926329192,384.2685905987164,nan,nan,nan,nan,nan,nan
1,141,1,1,nan,nan,nan,0,0,8,6,1,3,2,nan,nan,nan,nan,nan,nan,nan,nan,nan,nan,nan,nan,0.0,nan,nan,nan,nan,nan,nan,nan,nan,nan,nan,nan,nan,nan,nan,nan,nan,nan,nan,186.00471926329192,385.2687342892168,nan,nan,nan,nan,nan,nan
1,142,1,1,nan,nan,nan,0,1,7,8,0,6,3,nan,nan,nan,nan,nan,nan,nan,nan,nan,nan,nan,nan,0.0,nan,nan,nan,nan,nan,nan,nan,nan,nan,nan,nan,nan,nan,nan,nan,nan,nan,nan,186.00471926329192,386.2688828264072,nan,nan,nan,nan,nan,nan
1,143,0,0,0.0,1.0,0.5734485062130261,0,4,6,2,8,0,5,nan,nan,nan,nan,nan,nan,nan,nan,nan,nan,nan,nan,0.0,nan,nan,nan,nan,nan,nan,nan,nan,nan,nan,nan,nan,nan,nan,nan,nan,nan,nan,186.00471926329192,387.2773329106276,nan,387.8507814168406,nan,nan,nan,nan
1,144,1,1,1.0,1.0,0.4692854448512662,0,1,7,5,4,6,2,nan,nan,nan,nan,nan,nan,nan,nan,nan,nan,nan,nan,0.0,nan,nan,nan,nan,nan,nan,nan,nan,nan,nan,nan,nan,nan,nan,nan,nan,nan,nan,186.00471926329192,388.27749456244055,nan,388.7467800072918,nan,nan,nan,nan
1,145,1,1,1.0,1.0,0.7411546956573147,0,4,8,2,0,7,6,nan,nan,nan,nan,nan,nan,nan,nan,nan,nan,nan,nan,0.0,nan,nan,nan,nan,nan,nan,nan,nan,nan,nan,nan,nan,nan,nan,nan,nan,nan,nan,186.00471926329192,389.2776054663991,nan,390.0187601620564,nan,nan,nan,nan
1,146,1,1,1.0,1.0,0.6530176856322214,0,0,3,6,8,2,7,nan,nan,nan,nan,nan,nan,nan,nan,nan,nan,nan,nan,0.0,nan,nan,nan,nan,nan,nan,nan,nan,nan,nan,nan,nan,nan,nan,nan,nan,nan,nan,186.00471926329192,390.27774459528155,nan,390.93076228091377,nan,nan,nan,nan
1,147,1,1,1.0,1.0,0.5168629628897179,0,5,0,3,7,1,8,nan,nan,nan,nan,nan,nan,nan,nan,nan,nan,nan,nan,0.0,nan,nan,nan,nan,nan,nan,nan,nan,nan,nan,nan,nan,nan,nan,nan,nan,nan,nan,186.00471926329192,391.2778891410853,nan,391.79475210397504,nan,nan,nan,nan
1,148,1,1,nan,nan,nan,0,0,1,2,5,8,3,nan,nan,nan,nan,nan,nan,nan,nan,nan,nan,nan,nan,0.0,nan,nan,nan,nan,nan,nan,nan,nan,nan,nan,nan,nan,nan,nan,nan,nan,nan,nan,186.00471926329192,392.27802057226654,nan,nan,nan,nan,nan,nan
1,149,1,1,nan,nan,nan,0,3,5,6,8,4,0,nan,nan,nan,nan,nan,nan,nan,nan,nan,nan,nan,nan,0.0,nan,nan,nan,nan,nan,nan,nan,nan,nan,nan,nan,nan,nan,nan,nan,nan,nan,nan,186.00471926329192,393.27811208943604,nan,nan,nan,nan,nan,nan
1,150,1,1,1.0,1.0,0.3724354882433545,0,5,6,1,4,2,8,nan,nan,nan,nan,nan,nan,nan,nan,nan,nan,nan,nan,0.0,nan,nan,nan,nan,nan,nan,nan,nan,nan,nan,nan,nan,nan,nan,nan,nan,nan,nan,186.00471926329192,394.2783036767505,nan,394.65073916499387,nan,nan,nan,nan
1,151,1,1,1.0,1.0,0.5239408599445596,0,0,8,2,1,3,6,nan,nan,nan,nan,nan,nan,nan,nan,nan,nan,nan,nan,0.0,nan,nan,nan,nan,nan,nan,nan,nan,nan,nan,nan,nan,nan,nan,nan,nan,nan,nan,186.00471926329192,395.2867663053912,nan,395.81070716533577,nan,nan,nan,nan
1,152,1,1,1.0,1.0,0.5554444298613816,1,1,0,8,4,6,5,1.0,1.0,1.0,1.0,1.0,1.0,0.0,0.0,1.0,0.0,0.0,1.0,2.0,5.0,1.0,8.0,6.0,0.0,5.0,2.0,6.0,1.0,3.0,4.0,5.0,2.2484904658049345,7.870765228843084,1.183145504561253,3.182850996090565,4.334914879058488,6.494939614349278,186.00471926329192,396.29525060162996,397.1036624254193,396.85069503149134,406.02983744442463,407.02872241762816,398.12047791914665,406.0215290549968
1,153,1,1,nan,nan,nan,0,2,6,0,1,8,7,nan,nan,nan,nan,nan,nan,nan,nan,nan,nan,nan,nan,0.0,nan,nan,nan,nan,nan,nan,nan,nan,nan,nan,nan,nan,nan,nan,nan,nan,nan,nan,186.00471926329192,407.230095232022,nan,nan,nan,nan,nan,nan
1,154,1,1,1.0,1.0,0.004408504057209939,0,0,3,4,8,1,2,nan,nan,nan,nan,nan,nan,nan,nan,nan,nan,nan,nan,0.0,nan,nan,nan,nan,nan,nan,nan,nan,nan,nan,nan,nan,nan,nan,nan,nan,nan,nan,186.00471926329192,408.23020385520067,nan,408.2346123592579,nan,nan,nan,nan
1,155,0,0,0.0,1.0,0.4202331035921816,0,1,0,8,4,7,5,nan,nan,nan,nan,nan,nan,nan,nan,nan,nan,nan,nan,0.0,nan,nan,nan,nan,nan,nan,nan,nan,nan,nan,nan,nan,nan,nan,nan,nan,nan,nan,186.00471926329192,409.23033500128076,nan,409.65056810487295,nan,nan,nan,nan
1,156,1,1,1.0,1.0,0.5801158590184059,0,3,5,6,1,0,4,nan,nan,nan,nan,nan,nan,nan,nan,nan,nan,nan,nan,0.0,nan,nan,nan,nan,nan,nan,nan,nan,nan,nan,nan,nan,nan,nan,nan,nan,nan,nan,186.00471926329192,410.2304727046576,nan,410.810588563676,nan,nan,nan,nan
1,157,1,1,1.0,1.0,0.5239194774476346,0,8,7,3,2,6,5,nan,nan,nan,nan,nan,nan,nan,nan,nan,nan,nan,nan,0.0,nan,nan,nan,nan,nan,nan,nan,nan,nan,nan,nan,nan,nan,nan,nan,nan,nan,nan,186.00471926329192,411.2306323607627,nan,411.7545518382103,nan,nan,nan,nan
1,158,1,1,1.0,1.0,0.42781591310631484,0,7,4,0,8,3,2,nan,nan,nan,nan,nan,nan,nan,nan,nan,nan,nan,nan,0.0,nan,nan,nan,nan,nan,nan,nan,nan,nan,nan,nan,nan,nan,nan,nan,nan,nan,nan,186.00471926329192,412.23073585212114,nan,412.65855176522746,nan,nan,nan,nan
1,159,1,1,1.0,1.0,0.4116407544061076,0,8,7,4,0,6,5,nan,nan,nan,nan,nan,nan,nan,nan,nan,nan,nan,nan,0.0,nan,nan,nan,nan,nan,nan,nan,nan,nan,nan,nan,nan,nan,nan,nan,nan,nan,nan,186.00471926329192,413.2309100483253,nan,413.6425508027314,nan,nan,nan,nan
1,160,1,1,1.0,1.0,0.4675010028295219,0,7,2,5,1,0,3,nan,nan,nan,nan,nan,nan,nan,nan,nan,nan,nan,nan,0.0,nan,nan,nan,nan,nan,nan,nan,nan,nan,nan,nan,nan,nan,nan,nan,nan,nan,nan,186.00471926329192,414.2310352073109,nan,414.69853621014045,nan,nan,nan,nan
1,161,0,0,0.0,1.0,0.5713684152869973,0,1,6,4,2,3,8,nan,nan,nan,nan,nan,nan,nan,nan,nan,nan,nan,nan,0.0,nan,nan,nan,nan,nan,nan,nan,nan,nan,nan,nan,nan,nan,nan,nan,nan,nan,nan,186.00471926329192,415.2311575152853,nan,415.8025259305723,nan,nan,nan,nan
1,162,1,1,1.0,1.0,0.5712059081997722,0,8,7,2,5,0,3,nan,nan,nan,nan,nan,nan,nan,nan,nan,nan,nan,nan,0.0,nan,nan,nan,nan,nan,nan,nan,nan,nan,nan,nan,nan,nan,nan,nan,nan,nan,nan,186.00471926329192,416.23132144787814,nan,416.8025273560779,nan,nan,nan,nan
1,163,1,1,1.0,1.0,0.5470884286623914,0,6,1,5,3,2,7,nan,nan,nan,nan,nan,nan,nan,nan,nan,nan,nan,nan,0.0,nan,nan,nan,nan,nan,nan,nan,nan,nan,nan,nan,nan,nan,nan,nan,nan,nan,nan,186.00471926329192,417.2314323518658,nan,417.7785207805282,nan,nan,nan,nan
1,164,1,1,1.0,1.0,0.46691797295352444,0,5,6,2,8,3,4,nan,nan,nan,nan,nan,nan,nan,nan,nan,nan,nan,nan,0.0,nan,nan,nan,nan,nan,nan,nan,nan,nan,nan,nan,nan,nan,nan,nan,nan,nan,nan,186.00471926329192,418.23158374006744,nan,418.69850171302096,nan,nan,nan,nan
1,165,0,0,0.0,1.0,0.5147754593926948,0,1,7,4,3,8,0,nan,nan,nan,nan,nan,nan,nan,nan,nan,nan,nan,nan,0.0,nan,nan,nan,nan,nan,nan,nan,nan,nan,nan,nan,nan,nan,nan,nan,nan,nan,nan,186.00471926329192,419.23171003942844,nan,419.74648549882113,nan,nan,nan,nan
1,166,1,1,1.0,1.0,0.4746595832693856,0,5,3,0,4,2,7,nan,nan,nan,nan,nan,nan,nan,nan,nan,nan,nan,nan,0.0,nan,nan,nan,nan,nan,nan,nan,nan,nan,nan,nan,nan,nan,nan,nan,nan,nan,nan,186.00471926329192,420.2318086840969,nan,420.7064682673663,nan,nan,nan,nan
1,167,1,1,1.0,1.0,0.5541440879169386,0,2,7,5,3,6,1,nan,nan,nan,nan,nan,nan,nan,nan,nan,nan,nan,nan,0.0,nan,nan,nan,nan,nan,nan,nan,nan,nan,nan,nan,nan,nan,nan,nan,nan,nan,nan,186.00471926329192,421.2403183542774,nan,421.79446244219434,nan,nan,nan,nan
1,168,1,1,1.0,1.0,0.5060146159376018,0,5,8,7,1,0,4,nan,nan,nan,nan,nan,nan,nan,nan,nan,nan,nan,nan,0.0,nan,nan,nan,nan,nan,nan,nan,nan,nan,nan,nan,nan,nan,nan,nan,nan,nan,nan,186.00471926329192,422.24045235136873,nan,422.74646696730633,nan,nan,nan,nan
1,169,1,1,1.0,1.0,0.48985684834769927,0,6,4,3,7,2,1,nan,nan,nan,nan,nan,nan,nan,nan,nan,nan,nan,nan,0.0,nan,nan,nan,nan,nan,nan,nan,nan,nan,nan,nan,nan,nan,nan,nan,nan,nan,nan,186.00471926329192,423.2405920504534,nan,423.7304488988011,nan,nan,nan,nan
1,170,1,1,1.0,1.0,0.4897074558539316,0,1,0,2,4,5,7,nan,nan,nan,nan,nan,nan,nan,nan,nan,nan,nan,nan,0.0,nan,nan,nan,nan,nan,nan,nan,nan,nan,nan,nan,nan,nan,nan,nan,nan,nan,nan,186.00471926329192,424.240731464437,nan,424.7304389202909,nan,nan,nan,nan
1,171,1,1,1.0,1.0,0.4735448415449355,0,7,8,5,3,4,6,nan,nan,nan,nan,nan,nan,nan,nan,nan,nan,nan,nan,0.0,nan,nan,nan,nan,nan,nan,nan,nan,nan,nan,nan,nan,nan,nan,nan,nan,nan,nan,186.00471926329192,425.2408725890273,nan,425.7144174305722,nan,nan,nan,nan
1,172,1,1,1.0,1.0,0.561414427618729,0,4,0,6,7,1,3,nan,nan,nan,nan,nan,nan,nan,nan,nan,nan,nan,nan,0.0,nan,nan,nan,nan,nan,nan,nan,nan,nan,nan,nan,nan,nan,nan,nan,nan,nan,nan,186.00471926329192,426.2410017393995,nan,426.80241616701824,nan,nan,nan,nan
1,173,1,1,1.0,1.0,0.5452478218940087,0,5,8,4,3,2,0,nan,nan,nan,nan,nan,nan,nan,nan,nan,nan,nan,nan,0.0,nan,nan,nan,nan,nan,nan,nan,nan,nan,nan,nan,nan,nan,nan,nan,nan,nan,nan,186.00471926329192,427.241159969999,nan,427.786407791893,nan,nan,nan,nan
1,174,1,1,nan,nan,nan,1,2,1,7,6,0,5,1.0,1.0,1.0,1.0,1.0,1.0,0.0,0.0,0.0,0.0,0.0,0.0,0.0,1.0,2.0,8.0,4.0,7.0,3.0,4.0,5.0,6.0,1.0,2.0,3.0,6.379990643035853,7.204531154187862,9.388305874861544,3.2056858099240344,4.139909777208231,5.173227724648314,186.00471926329192,428.2412791418901,429.0497063610819,nan,439.49278625269653,440.49043816761696,430.06650218286086,439.4844618976349
1,175,1,1,nan,nan,nan,0,7,2,3,1,5,8,nan,nan,nan,nan,nan,nan,nan,nan,nan,nan,nan,nan,0.0,nan,nan,nan,nan,nan,nan,nan,nan,nan,nan,nan,nan,nan,nan,nan,nan,nan,nan,186.00471926329192,440.6930046964553,nan,nan,nan,nan,nan,nan
1,176,1,1,1.0,1.0,0.7811682207975537,0,5,0,8,7,2,4,nan,nan,nan,nan,nan,nan,nan,nan,nan,nan,nan,nan,0.0,nan,nan,nan,nan,nan,nan,nan,nan,nan,nan,nan,nan,nan,nan,nan,nan,nan,nan,186.00471926329192,441.6930910818046,nan,442.47425930260215,nan,nan,nan,nan
1,177,1,1,1.0,1.0,0.5490296757780015,0,3,4,1,8,5,6,nan,nan,nan,nan,nan,nan,nan,nan,nan,nan,nan,nan,0.0,nan,nan,nan,nan,nan,nan,nan,nan,nan,nan,nan,nan,nan,nan,nan,nan,nan,nan,186.00471926329192,442.69322935541277,nan,443.24225903119077,nan,nan,nan,nan
1,178,1,1,1.0,1.0,0.43649236686178483,0,5,6,3,4,8,1,nan,nan,nan,nan,nan,nan,nan,nan,nan,nan,nan,nan,0.0,nan,nan,nan,nan,nan,nan,nan,nan,nan,nan,nan,nan,nan,nan,nan,nan,nan,nan,186.00471926329192,443.7017852118006,nan,444.1382775786624,nan,nan,nan,nan
1,179,1,1,1.0,1.0,0.4523792892869096,0,7,4,6,8,5,2,nan,nan,nan,nan,nan,nan,nan,nan,nan,nan,nan,nan,0.0,nan,nan,nan,nan,nan,nan,nan,nan,nan,nan,nan,nan,nan,nan,nan,nan,nan,nan,186.00471926329192,444.7018681759655,nan,445.1542474652524,nan,nan,nan,nan
1,180,1,1,1.0,1.0,0.4762327660282608,1,1,6,4,7,2,3,1.0,1.0,1.0,1.0,1.0,1.0,0.0,0.0,0.0,1.0,0.0,0.0,1.0,4.0,1.0,2.0,7.0,6.0,4.0,3.0,5.0,6.0,1.0,2.0,4.0,3.6092491059971508,5.624051222228445,6.599560261471197,1.0315796916256659,2.119932522473391,4.583731784572592,186.00471926329192,445.7019993220456,446.5104276816419,446.17823208807386,454.1698059522605,455.1699097287492,447.5272320564545,454.16147218892
1,181,1,1,1.0,1.0,0.7041370031656697,0,0,3,2,6,8,1,nan,nan,nan,nan,nan,nan,nan,nan,nan,nan,nan,nan,0.0,nan,nan,nan,nan,nan,nan,nan,nan,nan,nan,nan,nan,nan,nan,nan,nan,nan,nan,186.00471926329192,455.37001299203257,nan,456.07414999519824,nan,nan,nan,nan
1,182,1,1,1.0,1.0,0.47967506560962647,0,7,0,5,4,6,8,nan,nan,nan,nan,nan,nan,nan,nan,nan,nan,nan,nan,0.0,nan,nan,nan,nan,nan,nan,nan,nan,nan,nan,nan,nan,nan,nan,nan,nan,nan,nan,186.00471926329192,456.37846649746643,nan,456.85814156307606,nan,nan,nan,nan
1,183,1,1,1.0,1.0,0.5032377401948906,0,2,8,6,3,4,5,nan,nan,nan,nan,nan,nan,nan,nan,nan,nan,nan,nan,0.0,nan,nan,nan,nan,nan,nan,nan,nan,nan,nan,nan,nan,nan,nan,nan,nan,nan,nan,186.00471926329192,457.3868966246664,nan,457.8901343648613,nan,nan,nan,nan
1,184,1,1,1.0,1.0,0.4710319685691502,0,5,1,0,7,8,6,nan,nan,nan,nan,nan,nan,nan,nan,nan,nan,nan,nan,0.0,nan,nan,nan,nan,nan,nan,nan,nan,nan,nan,nan,nan,nan,nan,nan,nan,nan,nan,186.00471926329192,458.38709619481233,nan,458.8581281633815,nan,nan,nan,nan
1,185,1,1,1.0,1.0,0.42291019432013854,0,3,7,1,2,0,8,nan,nan,nan,nan,nan,nan,nan,nan,nan,nan,nan,nan,0.0,nan,nan,nan,nan,nan,nan,nan,nan,nan,nan,nan,nan,nan,nan,nan,nan,nan,nan,186.00471926329192,459.38720396265853,nan,459.81011415697867,nan,nan,nan,nan
1,186,1,1,1.0,1.0,0.5027351085736882,0,4,2,7,8,1,6,nan,nan,nan,nan,nan,nan,nan,nan,nan,nan,nan,nan,0.0,nan,nan,nan,nan,nan,nan,nan,nan,nan,nan,nan,nan,nan,nan,nan,nan,nan,nan,186.00471926329192,460.3873570614669,nan,460.8900921700406,nan,nan,nan,nan
1,187,0,0,0.0,1.0,0.5666246334149037,0,5,4,8,7,6,2,nan,nan,nan,nan,nan,nan,nan,nan,nan,nan,nan,nan,0.0,nan,nan,nan,nan,nan,nan,nan,nan,nan,nan,nan,nan,nan,nan,nan,nan,nan,nan,186.00471926329192,461.3874688207288,nan,461.95409345414373,nan,nan,nan,nan
1,188,1,1,1.0,1.0,0.5424395851150621,0,7,3,0,2,8,1,nan,nan,nan,nan,nan,nan,nan,nan,nan,nan,nan,nan,0.0,nan,nan,nan,nan,nan,nan,nan,nan,nan,nan,nan,nan,nan,nan,nan,nan,nan,nan,186.00471926329192,462.3876316129463,nan,462.93007119806134,nan,nan,nan,nan
1,189,1,1,nan,nan,nan,0,3,4,6,0,1,8,nan,nan,nan,nan,nan,nan,nan,nan,nan,nan,nan,nan,0.0,nan,nan,nan,nan,nan,nan,nan,nan,nan,nan,nan,nan,nan,nan,nan,nan,nan,nan,186.00471926329192,463.38776475473423,nan,nan,nan,nan,nan,nan
1,190,1,1,1.0,1.0,0.60610701693804,0,1,8,7,5,4,2,nan,nan,nan,nan,nan,nan,nan,nan,nan,nan,nan,nan,0.0,nan,nan,nan,nan,nan,nan,nan,nan,nan,nan,nan,nan,nan,nan,nan,nan,nan,nan,186.00471926329192,464.3878993219987,nan,464.99400633893674,nan,nan,nan,nan
1,191,1,1,1.0,1.0,0.6220253003411926,0,8,5,0,6,1,3,nan,nan,nan,nan,nan,nan,nan,nan,nan,nan,nan,nan,0.0,nan,nan,nan,nan,nan,nan,nan,nan,nan,nan,nan,nan,nan,nan,nan,nan,nan,nan,186.00471926329192,465.38802961280453,nan,466.0100549131457,nan,nan,nan,nan
1,192,0,0,1.0,0.0,0.4298686343827285,0,1,4,8,0,7,6,nan,nan,nan,nan,nan,nan,nan,nan,nan,nan,nan,nan,0.0,nan,nan,nan,nan,nan,nan,nan,nan,nan,nan,nan,nan,nan,nan,nan,nan,nan,nan,186.00471926329192,466.38816617577686,nan,466.8180348101596,nan,nan,nan,nan
1,193,1,1,1.0,1.0,0.4857268871564884,0,5,0,3,6,1,2,nan,nan,nan,nan,nan,nan,nan,nan,nan,nan,nan,nan,0.0,nan,nan,nan,nan,nan,nan,nan,nan,nan,nan,nan,nan,nan,nan,nan,nan,nan,nan,186.00471926329192,467.3882976069581,nan,467.87402449411456,nan,nan,nan,nan
1,194,1,1,1.0,1.0,0.6775696578260977,0,3,6,0,7,8,1,nan,nan,nan,nan,nan,nan,nan,nan,nan,nan,nan,nan,0.0,nan,nan,nan,nan,nan,nan,nan,nan,nan,nan,nan,nan,nan,nan,nan,nan,nan,nan,186.00471926329192,468.38845327164745,nan,469.06602292947355,nan,nan,nan,nan
1,195,1,1,1.0,1.0,0.7574273585923947,0,8,7,5,4,0,6,nan,nan,nan,nan,nan,nan,nan,nan,nan,nan,nan,nan,0.0,nan,nan,nan,nan,nan,nan,nan,nan,nan,nan,nan,nan,nan,nan,nan,nan,nan,nan,186.00471926329192,469.3885989578557,nan,470.1460263164481,nan,nan,nan,nan
1,196,1,1,1.0,1.0,0.5412758062011562,0,1,5,4,6,3,8,nan,nan,nan,nan,nan,nan,nan,nan,nan,nan,nan,nan,0.0,nan,nan,nan,nan,nan,nan,nan,nan,nan,nan,nan,nan,nan,nan,nan,nan,nan,nan,186.00471926329192,470.38872411684133,nan,470.9299999230425,nan,nan,nan,nan
1,197,1,1,1.0,1.0,0.46113500092178583,0,4,1,6,3,8,7,nan,nan,nan,nan,nan,nan,nan,nan,nan,nan,nan,nan,0.0,nan,nan,nan,nan,nan,nan,nan,nan,nan,nan,nan,nan,nan,nan,nan,nan,nan,nan,186.00471926329192,471.38886067981366,nan,471.84999568073545,nan,nan,nan,nan
1,198,1,1,1.0,1.0,0.5729971926193684,0,6,0,8,5,3,1,nan,nan,nan,nan,nan,nan,nan,nan,nan,nan,nan,nan,0.0,nan,nan,nan,nan,nan,nan,nan,nan,nan,nan,nan,nan,nan,nan,nan,nan,nan,nan,186.00471926329192,472.3890023746062,nan,472.9619995672256,nan,nan,nan,nan
1,199,1,1,1.0,1.0,0.5085149445221759,0,5,1,2,8,4,7,nan,nan,nan,nan,nan,nan,nan,nan,nan,nan,nan,nan,0.0,nan,nan,nan,nan,nan,nan,nan,nan,nan,nan,nan,nan,nan,nan,nan,nan,nan,nan,186.00471926329192,473.39745930125355,nan,473.9059742457757,nan,nan,nan,nan
1,200,1,1,1.0,1.0,0.4923785594291985,1,6,7,8,4,1,0,1.0,1.0,1.0,1.0,1.0,1.0,1.0,1.0,0.0,0.0,0.0,1.0,3.0,6.0,7.0,1.0,1.0,4.0,0.0,2.0,1.0,4.0,3.0,5.0,6.0,2.439315713942051,1.1057048831135035,4.352599073026795,3.5360350947012194,5.463125285285059,6.351574137894204,186.00471926329192,474.39759900033823,475.2060245089233,474.88997755976743,482.6153257312253,483.62406462195213,476.2228097820189,482.60699111258145
1,201,1,1,1.0,1.0,0.5136438967601862,0,2,3,4,0,6,1,nan,nan,nan,nan,nan,nan,nan,nan,nan,nan,nan,nan,0.0,nan,nan,nan,nan,nan,nan,nan,nan,nan,nan,nan,nan,nan,nan,nan,nan,nan,nan,186.00471926329192,483.83223964154604,nan,484.3458835383062,nan,nan,nan,nan
1,202,1,1,1.0,1.0,0.44151497673010454,0,3,1,6,2,7,5,nan,nan,nan,nan,nan,nan,nan,nan,nan,nan,nan,nan,0.0,nan,nan,nan,nan,nan,nan,nan,nan,nan,nan,nan,nan,nan,nan,nan,nan,nan,nan,186.00471926329192,484.83235767300357,nan,485.2738726497337,nan,nan,nan,nan
1,203,1,1,1.0,1.0,0.5453581556794234,0,6,4,5,0,8,7,nan,nan,nan,nan,nan,nan,nan,nan,nan,nan,nan,nan,0.0,nan,nan,nan,nan,nan,nan,nan,nan,nan,nan,nan,nan,nan,nan,nan,nan,nan,nan,186.00471926329192,485.8324965167849,nan,486.3778546724643,nan,nan,nan,nan
1,204,0,0,1.0,0.0,0.5452090482867789,0,7,0,2,1,3,8,nan,nan,nan,nan,nan,nan,nan,nan,nan,nan,nan,nan,0.0,nan,nan,nan,nan,nan,nan,nan,nan,nan,nan,nan,nan,nan,nan,nan,nan,nan,nan,186.00471926329192,486.8326387817797,nan,487.37784783006646,nan,nan,nan,nan
1,205,1,1,nan,nan,nan,0,8,2,1,5,6,0,nan,nan,nan,nan,nan,nan,nan,nan,nan,nan,nan,nan,0.0,nan,nan,nan,nan,nan,nan,nan,nan,nan,nan,nan,nan,nan,nan,nan,nan,nan,nan,186.00471926329192,487.8411065422406,nan,nan,nan,nan,nan,nan
1,206,1,1,1.0,1.0,0.7761997799680103,0,6,7,0,8,4,1,nan,nan,nan,nan,nan,nan,nan,nan,nan,nan,nan,nan,0.0,nan,nan,nan,nan,nan,nan,nan,nan,nan,nan,nan,nan,nan,nan,nan,nan,nan,nan,186.00471926329192,488.84958741726587,nan,489.6257871972339,nan,nan,nan,nan
1,207,1,1,1.0,1.0,0.591796128283022,0,2,5,7,6,1,4,nan,nan,nan,nan,nan,nan,nan,nan,nan,nan,nan,nan,0.0,nan,nan,nan,nan,nan,nan,nan,nan,nan,nan,nan,nan,nan,nan,nan,nan,nan,nan,186.00471926329192,489.8580209657084,nan,490.44981709399144,nan,nan,nan,nan
1,208,1,1,1.0,1.0,0.43928891452378593,0,8,1,0,7,3,6,nan,nan,nan,nan,nan,nan,nan,nan,nan,nan,nan,nan,0.0,nan,nan,nan,nan,nan,nan,nan,nan,nan,nan,nan,nan,nan,nan,nan,nan,nan,nan,186.00471926329192,490.86652008717647,nan,491.30580900170025,nan,nan,nan,nan
1,209,0,0,0.0,1.0,0.47112662185099907,0,2,7,3,8,6,1,nan,nan,nan,nan,nan,nan,nan,nan,nan,nan,nan,nan,0.0,nan,nan,nan,nan,nan,nan,nan,nan,nan,nan,nan,nan,nan,nan,nan,nan,nan,nan,186.00471926329192,491.86667204555124,nan,492.33779866740224,nan,nan,nan,nan
1,210,1,1,1.0,1.0,0.5349739518132992,0,0,6,7,3,5,8,nan,nan,nan,nan,nan,nan,nan,nan,nan,nan,nan,nan,0.0,nan,nan,nan,nan,nan,nan,nan,nan,nan,nan,nan,nan,nan,nan,nan,nan,nan,nan,186.00471926329192,492.86681088936166,nan,493.40178484117496,nan,nan,nan,nan
1,211,1,1,1.0,1.0,0.5908552976907231,0,4,5,8,1,6,2,nan,nan,nan,nan,nan,nan,nan,nan,nan,nan,nan,nan,0.0,nan,nan,nan,nan,nan,nan,nan,nan,nan,nan,nan,nan,nan,nan,nan,nan,nan,nan,186.00471926329192,493.8669237890281,nan,494.4577790867188,nan,nan,nan,nan
1,212,1,1,1.0,1.0,0.6067382287001237,0,3,2,0,4,1,8,nan,nan,nan,nan,nan,nan,nan,nan,nan,nan,nan,nan,0.0,nan,nan,nan,nan,nan,nan,nan,nan,nan,nan,nan,nan,nan,nan,nan,nan,nan,nan,186.00471926329192,494.8670304164989,nan,495.473768645199,nan,nan,nan,nan
1,213,1,1,1.0,1.0,0.5825434870494064,0,0,5,1,2,4,3,nan,nan,nan,nan,nan,nan,nan,nan,nan,nan,nan,nan,0.0,nan,nan,nan,nan,nan,nan,nan,nan,nan,nan,nan,nan,nan,nan,nan,nan,nan,nan,186.00471926329192,495.867214021011,nan,496.44975750806043,nan,nan,nan,nan
1,214,1,1,1.0,1.0,0.5420680995739531,0,6,8,7,3,0,5,nan,nan,nan,nan,nan,nan,nan,nan,nan,nan,nan,nan,0.0,nan,nan,nan,nan,nan,nan,nan,nan,nan,nan,nan,nan,nan,nan,nan,nan,nan,nan,186.00471926329192,496.8756789304607,nan,497.41774703003466,nan,nan,nan,nan
1,215,1,1,1.0,1.0,0.5255990026053041,0,2,3,4,5,8,7,nan,nan,nan,nan,nan,nan,nan,nan,nan,nan,nan,nan,0.0,nan,nan,nan,nan,nan,nan,nan,nan,nan,nan,nan,nan,nan,nan,nan,nan,nan,nan,186.00471926329192,497.8841438398813,nan,498.4097428424866,nan,nan,nan,nan
1,216,1,1,1.0,1.0,0.6134457806474529,0,8,7,5,0,4,1,nan,nan,nan,nan,nan,nan,nan,nan,nan,nan,nan,nan,0.0,nan,nan,nan,nan,nan,nan,nan,nan,nan,nan,nan,nan,nan,nan,nan,nan,nan,nan,186.00471926329192,498.8842849644716,nan,499.49773074511904,nan,nan,nan,nan
1,217,1,1,1.0,1.0,0.5492999507696368,0,1,5,0,2,6,8,nan,nan,nan,nan,nan,nan,nan,nan,nan,nan,nan,nan,0.0,nan,nan,nan,nan,nan,nan,nan,nan,nan,nan,nan,nan,nan,nan,nan,nan,nan,nan,186.00471926329192,499.8844189615629,nan,500.43371891233255,nan,nan,nan,nan
1,218,1,1,1.0,1.0,0.549150273174746,0,3,4,2,5,0,6,nan,nan,nan,nan,nan,nan,nan,nan,nan,nan,nan,nan,0.0,nan,nan,nan,nan,nan,nan,nan,nan,nan,nan,nan,nan,nan,nan,nan,nan,nan,nan,186.00471926329192,500.8845598010521,nan,501.43371007422684,nan,nan,nan,nan
1,219,1,1,1.0,1.0,0.4690145996864885,0,6,2,4,0,7,1,nan,nan,nan,nan,nan,nan,nan,nan,nan,nan,nan,nan,0.0,nan,nan,nan,nan,nan,nan,nan,nan,nan,nan,nan,nan,nan,nan,nan,nan,nan,nan,186.00471926329192,501.8846741262241,nan,502.3536887259106,nan,nan,nan,nan
1,220,1,1,1.0,1.0,0.5328391216753516,0,0,7,3,1,4,6,nan,nan,nan,nan,nan,nan,nan,nan,nan,nan,nan,nan,0.0,nan,nan,nan,nan,nan,nan,nan,nan,nan,nan,nan,nan,nan,nan,nan,nan,nan,nan,186.00471926329192,502.88484632672044,nan,503.4176854483958,nan,nan,nan,nan
1,221,1,1,1.0,1.0,0.6767234804865438,0,6,4,7,0,1,5,nan,nan,nan,nan,nan,nan,nan,nan,nan,nan,nan,nan,0.0,nan,nan,nan,nan,nan,nan,nan,nan,nan,nan,nan,nan,nan,nan,nan,nan,nan,nan,186.00471926329192,503.8849712006049,nan,504.56169468109147,nan,nan,nan,nan
1,222,1,1,1.0,1.0,0.7965656262240373,0,4,3,8,5,0,2,nan,nan,nan,nan,nan,nan,nan,nan,nan,nan,nan,nan,0.0,nan,nan,nan,nan,nan,nan,nan,nan,nan,nan,nan,nan,nan,nan,nan,nan,nan,nan,186.00471926329192,504.88510377219063,nan,505.68166939841467,nan,nan,nan,nan
1,223,1,1,nan,nan,nan,0,5,4,3,2,6,8,nan,nan,nan,nan,nan,nan,nan,nan,nan,nan,nan,nan,0.0,nan,nan,nan,nan,nan,nan,nan,nan,nan,nan,nan,nan,nan,nan,nan,nan,nan,nan,186.00471926329192,505.8935758091393,nan,nan,nan,nan,nan,nan
1,224,1,1,nan,nan,nan,0,2,3,0,1,8,7,nan,nan,nan,nan,nan,nan,nan,nan,nan,nan,nan,nan,0.0,nan,nan,nan,nan,nan,nan,nan,nan,nan,nan,nan,nan,nan,nan,nan,nan,nan,nan,186.00471926329192,506.8937109466351,nan,nan,nan,nan,nan,nan
1,225,1,1,1.0,1.0,0.14780790748773143,0,3,4,5,7,0,6,nan,nan,nan,nan,nan,nan,nan,nan,nan,nan,nan,nan,0.0,nan,nan,nan,nan,nan,nan,nan,nan,nan,nan,nan,nan,nan,nan,nan,nan,nan,nan,186.00471926329192,507.89385150102316,nan,508.0416594085109,nan,nan,nan,nan
1,226,1,1,1.0,1.0,0.5476047451084014,0,0,2,7,4,1,5,nan,nan,nan,nan,nan,nan,nan,nan,nan,nan,nan,nan,0.0,nan,nan,nan,nan,nan,nan,nan,nan,nan,nan,nan,nan,nan,nan,nan,nan,nan,nan,186.00471926329192,508.89399519149447,nan,509.44159993660287,nan,nan,nan,nan
1,227,1,1,1.0,1.0,0.4515003254346084,0,2,5,4,6,7,3,nan,nan,nan,nan,nan,nan,nan,nan,nan,nan,nan,nan,0.0,nan,nan,nan,nan,nan,nan,nan,nan,nan,nan,nan,nan,nan,nan,nan,nan,nan,nan,186.00471926329192,509.8941251971992,nan,510.3456255226338,nan,nan,nan,nan
1,228,1,1,1.0,1.0,0.6353725503722671,0,3,7,5,4,1,8,nan,nan,nan,nan,nan,nan,nan,nan,nan,nan,nan,nan,0.0,nan,nan,nan,nan,nan,nan,nan,nan,nan,nan,nan,nan,nan,nan,nan,nan,nan,nan,186.00471926329192,510.89424493926344,nan,511.5296174896357,nan,nan,nan,nan
1,229,1,1,1.0,1.0,0.5952050711493939,0,7,8,0,2,5,6,nan,nan,nan,nan,nan,nan,nan,nan,nan,nan,nan,nan,0.0,nan,nan,nan,nan,nan,nan,nan,nan,nan,nan,nan,nan,nan,nan,nan,nan,nan,nan,186.00471926329192,511.89440944205853,nan,512.4896145132079,nan,nan,nan,nan
1,230,1,1,1.0,1.0,0.49104685650672764,0,1,4,6,8,0,5,nan,nan,nan,nan,nan,nan,nan,nan,nan,nan,nan,nan,0.0,nan,nan,nan,nan,nan,nan,nan,nan,nan,nan,nan,nan,nan,nan,nan,nan,nan,nan,186.00471926329192,512.8945422987454,nan,513.3855891552521,nan,nan,nan,nan
1,231,1,1,1.0,1.0,0.490954484033864,0,3,6,7,1,4,2,nan,nan,nan,nan,nan,nan,nan,nan,nan,nan,nan,nan,0.0,nan,nan,nan,nan,nan,nan,nan,nan,nan,nan,nan,nan,nan,nan,nan,nan,nan,nan,186.00471926329192,513.8946400881105,nan,514.3855945721443,nan,nan,nan,nan
1,232,1,1,1.0,1.0,0.5547621851146687,0,6,2,4,5,1,8,nan,nan,nan,nan,nan,nan,nan,nan,nan,nan,nan,nan,0.0,nan,nan,nan,nan,nan,nan,nan,nan,nan,nan,nan,nan,nan,nan,nan,nan,nan,nan,186.00471926329192,514.8948185608315,nan,515.4495807459462,nan,nan,nan,nan
1,233,1,1,1.0,1.0,0.49062034662347287,0,2,5,8,7,4,3,nan,nan,nan,nan,nan,nan,nan,nan,nan,nan,nan,nan,0.0,nan,nan,nan,nan,nan,nan,nan,nan,nan,nan,nan,nan,nan,nan,nan,nan,nan,nan,186.00471926329192,515.8949437198171,nan,516.3855640664406,nan,nan,nan,nan
1,234,1,1,1.0,1.0,0.6104701900912914,0,8,1,4,6,0,7,nan,nan,nan,nan,nan,nan,nan,nan,nan,nan,nan,nan,0.0,nan,nan,nan,nan,nan,nan,nan,nan,nan,nan,nan,nan,nan,nan,nan,nan,nan,nan,186.00471926329192,516.8950851294794,nan,517.5055553195707,nan,nan,nan,nan
1,235,1,1,1.0,1.0,0.7223055823415052,0,6,0,2,8,4,5,nan,nan,nan,nan,nan,nan,nan,nan,nan,nan,nan,nan,0.0,nan,nan,nan,nan,nan,nan,nan,nan,nan,nan,nan,nan,nan,nan,nan,nan,nan,nan,186.00471926329192,517.895236517681,nan,518.6175421000225,nan,nan,nan,nan
1,236,1,1,1.0,1.0,0.5698240276251454,1,5,7,4,6,1,8,1.0,1.0,1.0,1.0,1.0,1.0,0.0,0.0,1.0,0.0,0.0,0.0,1.0,7.0,1.0,4.0,3.0,0.0,2.0,2.0,3.0,1.0,6.0,5.0,4.0,2.1412950789672323,2.99769838625798,1.1166359091293998,6.548637377942214,5.636533763434272,3.989607528259512,186.00471926329192,518.9037171076343,519.7121386248327,519.4735411352594,527.3214801033027,528.3176825688861,520.7372607973812,527.3131511866231
1,237,0,0,0.0,1.0,0.5037742987333331,0,7,1,6,4,5,0,nan,nan,nan,nan,nan,nan,nan,nan,nan,nan,nan,nan,0.0,nan,nan,nan,nan,nan,nan,nan,nan,nan,nan,nan,nan,nan,nan,nan,nan,nan,nan,186.00471926329192,528.5217011129425,nan,529.0254754116759,nan,nan,nan,nan
1,238,1,1,1.0,1.0,0.4796656573016662,0,8,3,2,5,0,7,nan,nan,nan,nan,nan,nan,nan,nan,nan,nan,nan,nan,0.0,nan,nan,nan,nan,nan,nan,nan,nan,nan,nan,nan,nan,nan,nan,nan,nan,nan,nan,186.00471926329192,529.5217849324108,nan,530.0014505897125,nan,nan,nan,nan
1,239,1,1,1.0,1.0,0.7034941022866406,0,2,7,8,6,1,3,nan,nan,nan,nan,nan,nan,nan,nan,nan,nan,nan,nan,0.0,nan,nan,nan,nan,nan,nan,nan,nan,nan,nan,nan,nan,nan,nan,nan,nan,nan,nan,186.00471926329192,530.5219471543969,nan,531.2254412566836,nan,nan,nan,nan
1,240,1,1,1.0,1.0,0.6473493238445371,0,3,0,5,2,8,1,nan,nan,nan,nan,nan,nan,nan,nan,nan,nan,nan,nan,0.0,nan,nan,nan,nan,nan,nan,nan,nan,nan,nan,nan,nan,nan,nan,nan,nan,nan,nan,186.00471926329192,531.5220842876006,nan,532.1694336114451,nan,nan,nan,nan
1,241,1,1,1.0,1.0,0.7748367160093039,0,5,2,4,0,7,8,nan,nan,nan,nan,nan,nan,nan,nan,nan,nan,nan,nan,0.0,nan,nan,nan,nan,nan,nan,nan,nan,nan,nan,nan,nan,nan,nan,nan,nan,nan,nan,186.00471926329192,532.5305702944461,nan,533.3054070104554,nan,nan,nan,nan
1,242,1,1,1.0,1.0,0.7026684521697462,0,7,4,5,6,3,0,nan,nan,nan,nan,nan,nan,nan,nan,nan,nan,nan,nan,0.0,nan,nan,nan,nan,nan,nan,nan,nan,nan,nan,nan,nan,nan,nan,nan,nan,nan,nan,186.00471926329192,533.5307362227468,nan,534.2334046749165,nan,nan,nan,nan
1,243,1,1,1.0,1.0,0.7825538076576777,0,3,7,4,1,2,8,nan,nan,nan,nan,nan,nan,nan,nan,nan,nan,nan,nan,0.0,nan,nan,nan,nan,nan,nan,nan,nan,nan,nan,nan,nan,nan,nan,nan,nan,nan,nan,186.00471926329192,534.5308368631231,nan,535.3133906707808,nan,nan,nan,nan
1,244,1,1,1.0,1.0,0.6144105596467853,0,8,1,6,2,3,7,nan,nan,nan,nan,nan,nan,nan,nan,nan,nan,nan,nan,0.0,nan,nan,nan,nan,nan,nan,nan,nan,nan,nan,nan,nan,nan,nan,nan,nan,nan,nan,186.00471926329192,535.5309768473089,nan,536.1453874069557,nan,nan,nan,nan
1,245,0,0,0.0,1.0,0.6222702014201786,0,0,8,3,4,5,2,nan,nan,nan,nan,nan,nan,nan,nan,nan,nan,nan,nan,0.0,nan,nan,nan,nan,nan,nan,nan,nan,nan,nan,nan,nan,nan,nan,nan,nan,nan,nan,186.00471926329192,536.5311085635913,nan,537.1533787650114,nan,nan,nan,nan
1,246,1,1,nan,nan,nan,0,1,6,4,8,2,5,nan,nan,nan,nan,nan,nan,nan,nan,nan,nan,nan,nan,0.0,nan,nan,nan,nan,nan,nan,nan,nan,nan,nan,nan,nan,nan,nan,nan,nan,nan,nan,186.00471926329192,537.5312573858828,nan,nan,nan,nan,nan,nan
1,247,1,1,1.0,1.0,0.5179340842878446,0,6,5,7,2,1,3,nan,nan,nan,nan,nan,nan,nan,nan,nan,nan,nan,nan,0.0,nan,nan,nan,nan,nan,nan,nan,nan,nan,nan,nan,nan,nan,nan,nan,nan,nan,nan,186.00471926329192,538.5313956594619,nan,539.0493297437497,nan,nan,nan,nan
1,248,1,1,1.0,1.0,0.48581811919575557,0,5,7,0,1,8,6,nan,nan,nan,nan,nan,nan,nan,nan,nan,nan,nan,nan,0.0,nan,nan,nan,nan,nan,nan,nan,nan,nan,nan,nan,nan,nan,nan,nan,nan,nan,nan,186.00471926329192,539.5315165419597,nan,540.0173346611555,nan,nan,nan,nan
1,249,1,1,1.0,1.0,0.5656761050922796,0,7,0,6,3,4,1,nan,nan,nan,nan,nan,nan,nan,nan,nan,nan,nan,nan,0.0,nan,nan,nan,nan,nan,nan,nan,nan,nan,nan,nan,nan,nan,nan,nan,nan,nan,nan,186.00471926329192,540.5316519645276,nan,541.0973280696198,nan,nan,nan,nan
1,250,1,1,1.0,1.0,0.42155340255703777,0,5,8,2,6,7,0,nan,nan,nan,nan,nan,nan,nan,nan,nan,nan,nan,nan,0.0,nan,nan,nan,nan,nan,nan,nan,nan,nan,nan,nan,nan,nan,nan,nan,nan,nan,nan,186.00471926329192,541.5317922338145,nan,541.9533456363715,nan,nan,nan,nan
1,251,0,0,0.0,1.0,0.6693801551300567,0,1,4,6,8,0,7,nan,nan,nan,nan,nan,nan,nan,nan,nan,nan,nan,nan,0.0,nan,nan,nan,nan,nan,nan,nan,nan,nan,nan,nan,nan,nan,nan,nan,nan,nan,nan,186.00471926329192,542.531945617724,nan,543.201325772854,nan,nan,nan,nan
1,252,1,1,1.0,1.0,0.5412390282726847,0,8,5,3,4,1,2,nan,nan,nan,nan,nan,nan,nan,nan,nan,nan,nan,nan,0.0,nan,nan,nan,nan,nan,nan,nan,nan,nan,nan,nan,nan,nan,nan,nan,nan,nan,nan,186.00471926329192,543.532071917085,nan,544.0733109453577,nan,nan,nan,nan
1,253,1,1,1.0,1.0,0.7090948952827603,0,3,4,2,7,0,1,nan,nan,nan,nan,nan,nan,nan,nan,nan,nan,nan,nan,0.0,nan,nan,nan,nan,nan,nan,nan,nan,nan,nan,nan,nan,nan,nan,nan,nan,nan,nan,186.00471926329192,544.5322022078908,nan,545.2412971031736,nan,nan,nan,nan
1,254,0,0,0.0,1.0,0.6529378575796727,0,5,1,7,6,3,0,nan,nan,nan,nan,nan,nan,nan,nan,nan,nan,nan,nan,0.0,nan,nan,nan,nan,nan,nan,nan,nan,nan,nan,nan,nan,nan,nan,nan,nan,nan,nan,186.00471926329192,545.5323450430587,nan,546.1852829006384,nan,nan,nan,nan
1,255,1,1,1.0,1.0,0.508793487388175,0,2,0,1,7,4,8,nan,nan,nan,nan,nan,nan,nan,nan,nan,nan,nan,nan,0.0,nan,nan,nan,nan,nan,nan,nan,nan,nan,nan,nan,nan,nan,nan,nan,nan,nan,nan,186.00471926329192,546.532483601768,nan,547.0412770891562,nan,nan,nan,nan
1,256,1,1,1.0,1.0,0.5726562128111254,0,7,2,6,0,5,1,nan,nan,nan,nan,nan,nan,nan,nan,nan,nan,nan,nan,0.0,nan,nan,nan,nan,nan,nan,nan,nan,nan,nan,nan,nan,nan,nan,nan,nan,nan,nan,186.00471926329192,547.5326218753471,nan,548.1052780881582,nan,nan,nan,nan
1,257,1,1,1.0,1.0,0.4604980871081352,0,2,0,5,7,3,8,nan,nan,nan,nan,nan,nan,nan,nan,nan,nan,nan,nan,0.0,nan,nan,nan,nan,nan,nan,nan,nan,nan,nan,nan,nan,nan,nan,nan,nan,nan,nan,186.00471926329192,548.5327564426407,nan,548.9932545297488,nan,nan,nan,nan
1,258,1,1,1.0,1.0,0.460369221837027,0,4,3,7,0,8,5,nan,nan,nan,nan,nan,nan,nan,nan,nan,nan,nan,nan,0.0,nan,nan,nan,nan,nan,nan,nan,nan,nan,nan,nan,nan,nan,nan,nan,nan,nan,nan,186.00471926329192,549.5328878738219,nan,549.9932570956589,nan,nan,nan,nan
1,259,1,1,1.0,1.0,0.4522204884851817,0,5,7,8,4,6,1,nan,nan,nan,nan,nan,nan,nan,nan,nan,nan,nan,nan,0.0,nan,nan,nan,nan,nan,nan,nan,nan,nan,nan,nan,nan,nan,nan,nan,nan,nan,nan,186.00471926329192,550.533026147401,nan,550.9852466358861,nan,nan,nan,nan
1,260,1,1,1.0,1.0,0.5959876711422112,0,8,2,6,5,1,7,nan,nan,nan,nan,nan,nan,nan,nan,nan,nan,nan,nan,0.0,nan,nan,nan,nan,nan,nan,nan,nan,nan,nan,nan,nan,nan,nan,nan,nan,nan,nan,186.00471926329192,551.5332499510259,nan,552.1292376221681,nan,nan,nan,nan
1,261,0,0,0.0,1.0,0.7399079525494017,0,1,8,2,7,0,4,nan,nan,nan,nan,nan,nan,nan,nan,nan,nan,nan,nan,0.0,nan,nan,nan,nan,nan,nan,nan,nan,nan,nan,nan,nan,nan,nan,nan,nan,nan,nan,186.00471926329192,552.5333138134738,nan,553.2732217660232,nan,nan,nan,nan
1,262,1,1,1.0,1.0,0.6917819017835427,0,2,3,4,0,5,8,nan,nan,nan,nan,nan,nan,nan,nan,nan,nan,nan,nan,0.0,nan,nan,nan,nan,nan,nan,nan,nan,nan,nan,nan,nan,nan,nan,nan,nan,nan,nan,186.00471926329192,553.5334460999584,nan,554.2252280017419,nan,nan,nan,nan
1,263,1,1,1.0,1.0,0.5396310632349923,0,0,2,1,3,6,5,nan,nan,nan,nan,nan,nan,nan,nan,nan,nan,nan,nan,0.0,nan,nan,nan,nan,nan,nan,nan,nan,nan,nan,nan,nan,nan,nan,nan,nan,nan,nan,186.00471926329192,554.5335743950563,nan,555.0732054582913,nan,nan,nan,nan
1,264,1,1,1.0,1.0,0.547475309605943,0,4,7,5,2,3,8,nan,nan,nan,nan,nan,nan,nan,nan,nan,nan,nan,nan,0.0,nan,nan,nan,nan,nan,nan,nan,nan,nan,nan,nan,nan,nan,nan,nan,nan,nan,nan,186.00471926329192,555.5337266385322,nan,556.0812019481382,nan,nan,nan,nan
1,265,1,1,1.0,1.0,0.6193533414916601,0,6,3,2,4,8,5,nan,nan,nan,nan,nan,nan,nan,nan,nan,nan,nan,nan,0.0,nan,nan,nan,nan,nan,nan,nan,nan,nan,nan,nan,nan,nan,nan,nan,nan,nan,nan,186.00471926329192,556.5338589250168,nan,557.1532122665085,nan,nan,nan,nan
1,266,1,1,1.0,1.0,0.6591940959042404,0,7,2,5,6,4,1,nan,nan,nan,nan,nan,nan,nan,nan,nan,nan,nan,nan,0.0,nan,nan,nan,nan,nan,nan,nan,nan,nan,nan,nan,nan,nan,nan,nan,nan,nan,nan,186.00471926329192,557.5339837989013,nan,558.1931778948056,nan,nan,nan,nan
1,267,1,1,1.0,1.0,0.675037968205288,0,2,8,6,5,1,7,nan,nan,nan,nan,nan,nan,nan,nan,nan,nan,nan,nan,0.0,nan,nan,nan,nan,nan,nan,nan,nan,nan,nan,nan,nan,nan,nan,nan,nan,nan,nan,186.00471926329192,558.5341368977097,nan,559.209174865915,nan,nan,nan,nan
1,268,1,1,1.0,1.0,0.6029341370158363,0,5,7,3,2,0,4,nan,nan,nan,nan,nan,nan,nan,nan,nan,nan,nan,nan,0.0,nan,nan,nan,nan,nan,nan,nan,nan,nan,nan,nan,nan,nan,nan,nan,nan,nan,nan,186.00471926329192,559.5342241383623,nan,560.1371582753782,nan,nan,nan,nan
1,269,1,1,1.0,1.0,0.7627518895606045,0,8,1,2,3,7,6,nan,nan,nan,nan,nan,nan,nan,nan,nan,nan,nan,nan,0.0,nan,nan,nan,nan,nan,nan,nan,nan,nan,nan,nan,nan,nan,nan,nan,nan,nan,nan,186.00471926329192,560.5343926325731,nan,561.2971445221337,nan,nan,nan,nan
1,270,1,1,nan,nan,nan,0,0,2,7,4,1,5,nan,nan,nan,nan,nan,nan,nan,nan,nan,nan,nan,nan,0.0,nan,nan,nan,nan,nan,nan,nan,nan,nan,nan,nan,nan,nan,nan,nan,nan,nan,nan,186.00471926329192,561.534525774332,nan,nan,nan,nan,nan,nan
1,271,1,1,1.0,1.0,0.7063342702749651,0,7,3,5,8,4,0,nan,nan,nan,nan,nan,nan,nan,nan,nan,nan,nan,nan,0.0,nan,nan,nan,nan,nan,nan,nan,nan,nan,nan,nan,nan,nan,nan,nan,nan,nan,nan,186.00471926329192,562.5347735263931,nan,563.2411077966681,nan,nan,nan,nan
1,272,1,1,nan,nan,nan,0,1,8,0,4,2,7,nan,nan,nan,nan,nan,nan,nan,nan,nan,nan,nan,nan,0.0,nan,nan,nan,nan,nan,nan,nan,nan,nan,nan,nan,nan,nan,nan,nan,nan,nan,nan,186.00471926329192,563.5348105894227,nan,nan,nan,nan,nan,nan
1,273,1,1,1.0,1.0,0.01781077843043022,0,4,6,3,8,7,0,nan,nan,nan,nan,nan,nan,nan,nan,nan,nan,nan,nan,0.0,nan,nan,nan,nan,nan,nan,nan,nan,nan,nan,nan,nan,nan,nan,nan,nan,nan,nan,186.00471926329192,564.5433077151829,nan,564.5611184936133,nan,nan,nan,nan
1,274,1,1,1.0,1.0,0.5776577252836432,0,2,7,6,0,5,4,nan,nan,nan,nan,nan,nan,nan,nan,nan,nan,nan,nan,0.0,nan,nan,nan,nan,nan,nan,nan,nan,nan,nan,nan,nan,nan,nan,nan,nan,nan,nan,186.00471926329192,565.543436580454,nan,566.1210943057376,nan,nan,nan,nan
1,275,1,1,1.0,1.0,0.5935318181873299,0,5,8,4,3,1,0,nan,nan,nan,nan,nan,nan,nan,nan,nan,nan,nan,nan,0.0,nan,nan,nan,nan,nan,nan,nan,nan,nan,nan,nan,nan,nan,nan,nan,nan,nan,nan,186.00471926329192,566.5435566076485,nan,567.1370884258358,nan,nan,nan,nan
1,276,1,1,1.0,1.0,0.4813987813249696,0,2,4,3,1,7,5,nan,nan,nan,nan,nan,nan,nan,nan,nan,nan,nan,nan,0.0,nan,nan,nan,nan,nan,nan,nan,nan,nan,nan,nan,nan,nan,nan,nan,nan,nan,nan,186.00471926329192,567.5436763497128,nan,568.0250751310377,nan,nan,nan,nan
1,277,1,1,1.0,1.0,0.4412498335877899,1,0,1,8,6,2,4,1.0,1.0,1.0,1.0,1.0,1.0,0.0,0.0,0.0,1.0,0.0,0.0,1.0,4.0,7.0,1.0,6.0,0.0,5.0,2.0,3.0,4.0,1.0,5.0,6.0,2.484913496329682,3.660026018245844,4.740525194443762,1.4451705312530976,5.756091379153077,6.979990814055782,186.00471926329192,568.5438257422065,569.3522486849106,568.9850755757943,577.3866748167493,578.3932523629919,570.3690616127278,577.378349036182
1,278,1,1,1.0,1.0,0.4937889500288293,0,5,3,4,8,1,7,nan,nan,nan,nan,nan,nan,nan,nan,nan,nan,nan,nan,0.0,nan,nan,nan,nan,nan,nan,nan,nan,nan,nan,nan,nan,nan,nan,nan,nan,nan,nan,186.00471926329192,578.5952025052393,nan,579.0889914552681,nan,nan,nan,nan
1,279,1,1,1.0,1.0,0.4536297387094237,0,2,7,5,0,3,1,nan,nan,nan,nan,nan,nan,nan,nan,nan,nan,nan,nan,0.0,nan,nan,nan,nan,nan,nan,nan,nan,nan,nan,nan,nan,nan,nan,nan,nan,nan,nan,186.00471926329192,579.595339923515,nan,580.0489696622244,nan,nan,nan,nan
1,280,1,1,1.0,1.0,0.6451417931530159,0,4,1,8,7,0,6,nan,nan,nan,nan,nan,nan,nan,nan,nan,nan,nan,nan,0.0,nan,nan,nan,nan,nan,nan,nan,nan,nan,nan,nan,nan,nan,nan,nan,nan,nan,nan,186.00471926329192,580.603817377385,nan,581.248959170538,nan,nan,nan,nan
1,281,0,0,0.0,1.0,0.5489723706559744,0,8,7,4,2,5,0,nan,nan,nan,nan,nan,nan,nan,nan,nan,nan,nan,nan,0.0,nan,nan,nan,nan,nan,nan,nan,nan,nan,nan,nan,nan,nan,nan,nan,nan,nan,nan,186.00471926329192,581.6039656294743,nan,582.1529380001302,nan,nan,nan,nan
1,282,1,1,1.0,1.0,0.45284685358637944,0,3,4,7,6,0,1,nan,nan,nan,nan,nan,nan,nan,nan,nan,nan,nan,nan,0.0,nan,nan,nan,nan,nan,nan,nan,nan,nan,nan,nan,nan,nan,nan,nan,nan,nan,nan,186.00471926329192,582.6040870821453,nan,583.0569339357316,nan,nan,nan,nan
1,283,1,1,1.0,1.0,0.6047145876218565,0,5,6,1,2,4,7,nan,nan,nan,nan,nan,nan,nan,nan,nan,nan,nan,nan,0.0,nan,nan,nan,nan,nan,nan,nan,nan,nan,nan,nan,nan,nan,nan,nan,nan,nan,nan,186.00471926329192,583.6042216494388,nan,584.2089362370607,nan,nan,nan,nan
1,284,1,1,1.0,1.0,0.4845514190965332,0,1,2,7,4,3,6,nan,nan,nan,nan,nan,nan,nan,nan,nan,nan,nan,nan,0.0,nan,nan,nan,nan,nan,nan,nan,nan,nan,nan,nan,nan,nan,nan,nan,nan,nan,nan,186.00471926329192,584.6043547912268,nan,585.0889062103233,nan,nan,nan,nan
1,285,1,1,1.0,1.0,0.4843897673126776,0,7,1,0,6,4,5,nan,nan,nan,nan,nan,nan,nan,nan,nan,nan,nan,nan,0.0,nan,nan,nan,nan,nan,nan,nan,nan,nan,nan,nan,nan,nan,nan,nan,nan,nan,nan,186.00471926329192,585.6045164430107,nan,586.0889062103233,nan,nan,nan,nan
1,286,1,1,1.0,1.0,0.3402890174766071,1,0,2,1,5,8,4,1.0,1.0,1.0,1.0,1.0,1.0,1.0,0.0,0.0,1.0,0.0,0.0,2.0,0.0,6.0,7.0,5.0,4.0,1.0,5.0,2.0,3.0,4.0,1.0,6.0,5.351385116460733,2.0810300327430014,2.983230977639323,4.391823155776365,1.1202193332719617,6.415118691482348,186.00471926329192,586.6046202194702,587.4130753784848,586.9449092369468,594.8890755028115,595.8963350086706,588.4382086699479,594.8807482967386
1,287,1,1,1.0,1.0,0.5432136321323924,0,4,5,0,7,6,3,nan,nan,nan,nan,nan,nan,nan,nan,nan,nan,nan,nan,0.0,nan,nan,nan,nan,nan,nan,nan,nan,nan,nan,nan,nan,nan,nan,nan,nan,nan,nan,186.00471926329192,596.0976034764026,nan,596.640817108535,nan,nan,nan,nan
1,288,0,0,0.0,1.0,0.6230624947929755,0,0,1,3,6,4,2,nan,nan,nan,nan,nan,nan,nan,nan,nan,nan,nan,nan,0.0,nan,nan,nan,nan,nan,nan,nan,nan,nan,nan,nan,nan,nan,nan,nan,nan,nan,nan,186.00471926329192,597.0977391841006,nan,597.7208016788936,nan,nan,nan,nan
1,289,1,1,1.0,1.0,0.48692886950448155,0,1,0,2,4,3,6,nan,nan,nan,nan,nan,nan,nan,nan,nan,nan,nan,nan,0.0,nan,nan,nan,nan,nan,nan,nan,nan,nan,nan,nan,nan,nan,nan,nan,nan,nan,nan,186.00471926329192,598.0978743215674,nan,598.5848031910718,nan,nan,nan,nan
1,290,1,1,1.0,1.0,0.6628137278021313,0,7,6,1,2,5,8,nan,nan,nan,nan,nan,nan,nan,nan,nan,nan,nan,nan,0.0,nan,nan,nan,nan,nan,nan,nan,nan,nan,nan,nan,nan,nan,nan,nan,nan,nan,nan,186.00471926329192,599.0979726811347,nan,599.7607864089368,nan,nan,nan,nan
1,291,1,1,1.0,1.0,0.6386395133449696,0,4,5,7,1,6,2,nan,nan,nan,nan,nan,nan,nan,nan,nan,nan,nan,nan,0.0,nan,nan,nan,nan,nan,nan,nan,nan,nan,nan,nan,nan,nan,nan,nan,nan,nan,nan,186.00471926329192,600.0981297713297,nan,600.7367692846747,nan,nan,nan,nan
1,292,1,1,1.0,1.0,0.5344690394122154,0,3,8,5,7,0,4,nan,nan,nan,nan,nan,nan,nan,nan,nan,nan,nan,nan,0.0,nan,nan,nan,nan,nan,nan,nan,nan,nan,nan,nan,nan,nan,nan,nan,nan,nan,nan,186.00471926329192,601.0982865764236,nan,601.6327556158358,nan,nan,nan,nan
1,293,0,0,0.0,1.0,0.5103176329575945,0,4,5,7,6,2,0,nan,nan,nan,nan,nan,nan,nan,nan,nan,nan,nan,nan,0.0,nan,nan,nan,nan,nan,nan,nan,nan,nan,nan,nan,nan,nan,nan,nan,nan,nan,nan,186.00471926329192,602.0984282712161,nan,602.6087459041737,nan,nan,nan,nan
1,294,1,1,1.0,1.0,0.47017267663613893,0,1,3,4,5,8,7,nan,nan,nan,nan,nan,nan,nan,nan,nan,nan,nan,nan,0.0,nan,nan,nan,nan,nan,nan,nan,nan,nan,nan,nan,nan,nan,nan,nan,nan,nan,nan,186.00471926329192,603.0985622683074,nan,603.5687349449436,nan,nan,nan,nan
1,295,1,1,1.0,1.0,0.5500155522313435,0,8,7,1,2,3,5,nan,nan,nan,nan,nan,nan,nan,nan,nan,nan,nan,nan,0.0,nan,nan,nan,nan,nan,nan,nan,nan,nan,nan,nan,nan,nan,nan,nan,nan,nan,nan,186.00471926329192,604.0987013971899,nan,604.6487169494212,nan,nan,nan,nan
1,296,1,1,1.0,1.0,0.5335384724021424,0,7,1,5,0,8,6,nan,nan,nan,nan,nan,nan,nan,nan,nan,nan,nan,nan,0.0,nan,nan,nan,nan,nan,nan,nan,nan,nan,nan,nan,nan,nan,nan,nan,nan,nan,nan,186.00471926329192,605.1071777106554,nan,605.6407161830575,nan,nan,nan,nan
1,297,1,1,1.0,1.0,0.613404726202134,0,3,8,6,2,4,5,nan,nan,nan,nan,nan,nan,nan,nan,nan,nan,nan,nan,0.0,nan,nan,nan,nan,nan,nan,nan,nan,nan,nan,nan,nan,nan,nan,nan,nan,nan,nan,186.00471926329192,606.1073105673422,nan,606.7207152935443,nan,nan,nan,nan
1,298,1,1,1.0,1.0,0.5092319714603946,0,7,3,5,1,0,4,nan,nan,nan,nan,nan,nan,nan,nan,nan,nan,nan,nan,0.0,nan,nan,nan,nan,nan,nan,nan,nan,nan,nan,nan,nan,nan,nan,nan,nan,nan,nan,186.00471926329192,607.1074659469305,nan,607.6166979183909,nan,nan,nan,nan
1,299,1,1,1.0,1.0,0.48511677276110277,0,3,6,1,4,2,0,nan,nan,nan,nan,nan,nan,nan,nan,nan,nan,nan,nan,0.0,nan,nan,nan,nan,nan,nan,nan,nan,nan,nan,nan,nan,nan,nan,nan,nan,nan,nan,186.00471926329192,608.1075856889947,nan,608.5927024617558,nan,nan,nan,nan
1,300,1,1,1.0,1.0,0.5569620181049686,0,4,2,0,6,8,1,nan,nan,nan,nan,nan,nan,nan,nan,nan,nan,nan,nan,0.0,nan,nan,nan,nan,nan,nan,nan,nan,nan,nan,nan,nan,nan,nan,nan,nan,nan,nan,186.00471926329192,609.1077308050008,nan,609.6646928231057,nan,nan,nan,nan
1,301,1,1,1.0,1.0,0.7568104018282611,0,6,5,8,1,3,7,nan,nan,nan,nan,nan,nan,nan,nan,nan,nan,nan,nan,0.0,nan,nan,nan,nan,nan,nan,nan,nan,nan,nan,nan,nan,nan,nan,nan,nan,nan,nan,186.00471926329192,610.1078653722652,nan,610.8646757740935,nan,nan,nan,nan
1,302,1,1,1.0,1.0,0.7966656963981222,1,5,7,6,3,2,1,1.0,1.0,1.0,1.0,1.0,1.0,1.0,1.0,1.0,0.0,0.0,1.0,4.0,5.0,7.0,6.0,2.0,8.0,1.0,4.0,1.0,2.0,6.0,5.0,3.0,4.479480627313023,1.1115588450920768,2.0156240600626916,7.047544446395477,6.032222022331553,3.5929197080840822,186.00471926329192,611.1079973736487,611.9247552201268,611.9046630700468,620.0258608671138,621.0276932059787,612.941563301225,620.0175282441778
1,303,1,1,1.0,1.0,0.5982040399394464,0,1,6,4,2,3,8,nan,nan,nan,nan,nan,nan,nan,nan,nan,nan,nan,nan,0.0,nan,nan,nan,nan,nan,nan,nan,nan,nan,nan,nan,nan,nan,nan,nan,nan,nan,nan,186.00471926329192,621.2343862748239,nan,621.8325903147634,nan,nan,nan,nan
1,304,1,1,1.0,1.0,0.5020175114332233,0,3,2,6,1,7,0,nan,nan,nan,nan,nan,nan,nan,nan,nan,nan,nan,nan,0.0,nan,nan,nan,nan,nan,nan,nan,nan,nan,nan,nan,nan,nan,nan,nan,nan,nan,nan,186.00471926329192,622.2345524882257,nan,622.736569999659,nan,nan,nan,nan
1,305,1,1,1.0,1.0,0.5419027414754964,0,7,3,2,5,8,4,nan,nan,nan,nan,nan,nan,nan,nan,nan,nan,nan,nan,0.0,nan,nan,nan,nan,nan,nan,nan,nan,nan,nan,nan,nan,nan,nan,nan,nan,nan,nan,186.00471926329192,623.2346551243099,nan,623.7765578657854,nan,nan,nan,nan
1,306,1,1,1.0,1.0,0.5337990539846942,0,0,1,6,3,4,8,nan,nan,nan,nan,nan,nan,nan,nan,nan,nan,nan,nan,0.0,nan,nan,nan,nan,nan,nan,nan,nan,nan,nan,nan,nan,nan,nan,nan,nan,nan,nan,186.00471926329192,624.2347537689493,nan,624.768552822934,nan,nan,nan,nan
1,307,1,1,1.0,1.0,0.4936481105396524,0,2,3,4,0,6,1,nan,nan,nan,nan,nan,nan,nan,nan,nan,nan,nan,nan,0.0,nan,nan,nan,nan,nan,nan,nan,nan,nan,nan,nan,nan,nan,nan,nan,nan,nan,nan,186.00471926329192,625.2348963190452,nan,625.7285444295849,nan,nan,nan,nan
1,308,1,1,1.0,1.0,0.4374528693733737,0,4,1,6,2,5,8,nan,nan,nan,nan,nan,nan,nan,nan,nan,nan,nan,nan,0.0,nan,nan,nan,nan,nan,nan,nan,nan,nan,nan,nan,nan,nan,nan,nan,nan,nan,nan,186.00471926329192,626.2350810639618,nan,626.6725339333352,nan,nan,nan,nan
1,309,1,1,1.0,1.0,0.557316397636896,0,8,2,5,7,0,4,nan,nan,nan,nan,nan,nan,nan,nan,nan,nan,nan,nan,0.0,nan,nan,nan,nan,nan,nan,nan,nan,nan,nan,nan,nan,nan,nan,nan,nan,nan,nan,186.00471926329192,627.2352047974418,nan,627.7925211950787,nan,nan,nan,nan
1,310,1,1,1.0,1.0,0.46916171137127094,0,3,0,2,4,6,7,nan,nan,nan,nan,nan,nan,nan,nan,nan,nan,nan,nan,0.0,nan,nan,nan,nan,nan,nan,nan,nan,nan,nan,nan,nan,nan,nan,nan,nan,nan,nan,186.00471926329192,628.2353484879422,nan,628.7045101993135,nan,nan,nan,nan
1,311,1,1,1.0,1.0,0.5890295161516406,0,7,2,8,6,3,1,nan,nan,nan,nan,nan,nan,nan,nan,nan,nan,nan,nan,0.0,nan,nan,nan,nan,nan,nan,nan,nan,nan,nan,nan,nan,nan,nan,nan,nan,nan,nan,186.00471926329192,629.2354847658135,nan,629.8245142819651,nan,nan,nan,nan
1,312,1,1,1.0,1.0,0.5888824044377543,0,0,6,4,1,7,8,nan,nan,nan,nan,nan,nan,nan,nan,nan,nan,nan,nan,0.0,nan,nan,nan,nan,nan,nan,nan,nan,nan,nan,nan,nan,nan,nan,nan,nan,nan,nan,186.00471926329192,630.2356184778037,nan,630.8245008822414,nan,nan,nan,nan
1,313,1,1,nan,nan,nan,0,8,0,6,5,2,4,nan,nan,nan,nan,nan,nan,nan,nan,nan,nan,nan,nan,0.0,nan,nan,nan,nan,nan,nan,nan,nan,nan,nan,nan,nan,nan,nan,nan,nan,nan,nan,186.00471926329192,631.2357470579736,nan,nan,nan,nan,nan,nan
1,314,1,1,1.0,1.0,0.54858976622927,0,0,3,1,4,8,7,nan,nan,nan,nan,nan,nan,nan,nan,nan,nan,nan,nan,0.0,nan,nan,nan,nan,nan,nan,nan,nan,nan,nan,nan,nan,nan,nan,nan,nan,nan,nan,186.00471926329192,632.2358801997616,nan,632.7844699659909,nan,nan,nan,nan
1,315,1,1,1.0,1.0,0.46844496953417547,0,8,1,4,6,2,0,nan,nan,nan,nan,nan,nan,nan,nan,nan,nan,nan,nan,0.0,nan,nan,nan,nan,nan,nan,nan,nan,nan,nan,nan,nan,nan,nan,nan,nan,nan,nan,186.00471926329192,633.2360250306665,nan,633.7044700002007,nan,nan,nan,nan
1,316,1,1,1.0,1.0,0.40429429296636954,0,6,7,8,0,5,3,nan,nan,nan,nan,nan,nan,nan,nan,nan,nan,nan,nan,0.0,nan,nan,nan,nan,nan,nan,nan,nan,nan,nan,nan,nan,nan,nan,nan,nan,nan,nan,186.00471926329192,634.2361598830321,nan,634.6404541759985,nan,nan,nan,nan
1,317,1,1,1.0,1.0,0.3801400355005171,0,3,5,2,7,4,0,nan,nan,nan,nan,nan,nan,nan,nan,nan,nan,nan,nan,0.0,nan,nan,nan,nan,nan,nan,nan,nan,nan,nan,nan,nan,nan,nan,nan,nan,nan,nan,186.00471926329192,635.2362978715391,nan,635.6164379070397,nan,nan,nan,nan
1,318,1,1,1.0,1.0,0.3959924608061556,0,6,2,4,5,8,3,nan,nan,nan,nan,nan,nan,nan,nan,nan,nan,nan,nan,0.0,nan,nan,nan,nan,nan,nan,nan,nan,nan,nan,nan,nan,nan,nan,nan,nan,nan,nan,186.00471926329192,636.2364395663317,nan,636.6324320271378,nan,nan,nan,nan
1,319,1,1,1.0,1.0,0.4035042803734541,0,5,6,3,0,4,2,nan,nan,nan,nan,nan,nan,nan,nan,nan,nan,nan,nan,0.0,nan,nan,nan,nan,nan,nan,nan,nan,nan,nan,nan,nan,nan,nan,nan,nan,nan,nan,186.00471926329192,637.2449127436557,nan,637.6484170240292,nan,nan,nan,nan
1,320,1,1,1.0,1.0,0.36335362200043164,0,6,8,1,3,7,5,nan,nan,nan,nan,nan,nan,nan,nan,nan,nan,nan,nan,0.0,nan,nan,nan,nan,nan,nan,nan,nan,nan,nan,nan,nan,nan,nan,nan,nan,nan,nan,186.00471926329192,638.2450604255719,nan,638.6084140475723,nan,nan,nan,nan
1,321,1,1,1.0,1.0,0.45921143001760356,0,2,4,8,5,3,0,nan,nan,nan,nan,nan,nan,nan,nan,nan,nan,nan,nan,0.0,nan,nan,nan,nan,nan,nan,nan,nan,nan,nan,nan,nan,nan,nan,nan,nan,nan,nan,186.00471926329192,639.2451804527373,nan,639.7043918827549,nan,nan,nan,nan
1,322,0,0,0.0,1.0,0.49105769032030366,0,6,7,5,1,4,2,nan,nan,nan,nan,nan,nan,nan,nan,nan,nan,nan,nan,0.0,nan,nan,nan,nan,nan,nan,nan,nan,nan,nan,nan,nan,nan,nan,nan,nan,nan,nan,186.00471926329192,640.2453267091187,nan,640.736384399439,nan,nan,nan,nan
1,323,1,1,1.0,1.0,0.46694733828189783,0,8,3,0,7,5,1,nan,nan,nan,nan,nan,nan,nan,nan,nan,nan,nan,nan,0.0,nan,nan,nan,nan,nan,nan,nan,nan,nan,nan,nan,nan,nan,nan,nan,nan,nan,nan,186.00471926329192,641.2454444555042,nan,641.7123917937861,nan,nan,nan,nan
1,324,0,0,0.0,1.0,0.5468218599853572,0,6,5,3,1,4,7,nan,nan,nan,nan,nan,nan,nan,nan,nan,nan,nan,nan,0.0,nan,nan,nan,nan,nan,nan,nan,nan,nan,nan,nan,nan,nan,nan,nan,nan,nan,nan,186.00471926329192,642.2456046818115,nan,642.7924265417969,nan,nan,nan,nan
1,325,1,1,1.0,1.0,0.6266450636903755,0,2,4,6,0,7,5,nan,nan,nan,nan,nan,nan,nan,nan,nan,nan,nan,nan,0.0,nan,nan,nan,nan,nan,nan,nan,nan,nan,nan,nan,nan,nan,nan,nan,nan,nan,nan,186.00471926329192,643.2457403894805,nan,643.8723854531709,nan,nan,nan,nan
1,326,1,1,nan,nan,nan,0,0,6,5,4,1,8,nan,nan,nan,nan,nan,nan,nan,nan,nan,nan,nan,nan,0.0,nan,nan,nan,nan,nan,nan,nan,nan,nan,nan,nan,nan,nan,nan,nan,nan,nan,nan,186.00471926329192,644.2542081499414,nan,nan,nan,nan,nan,nan
1,327,1,1,1.0,1.0,0.17767756822286174,0,1,0,8,6,4,5,nan,nan,nan,nan,nan,nan,nan,nan,nan,nan,nan,nan,0.0,nan,nan,nan,nan,nan,nan,nan,nan,nan,nan,nan,nan,nan,nan,nan,nan,nan,nan,186.00471926329192,645.2626821825979,nan,645.4403597508208,nan,nan,nan,nan
1,328,1,1,1.0,1.0,0.43350337658193894,0,0,3,2,5,1,8,nan,nan,nan,nan,nan,nan,nan,nan,nan,nan,nan,nan,0.0,nan,nan,nan,nan,nan,nan,nan,nan,nan,nan,nan,nan,nan,nan,nan,nan,nan,nan,186.00471926329192,646.262815894559,nan,646.696319271141,nan,nan,nan,nan
1,329,1,1,1.0,1.0,0.4413598822429776,0,3,5,0,7,8,2,nan,nan,nan,nan,nan,nan,nan,nan,nan,nan,nan,nan,0.0,nan,nan,nan,nan,nan,nan,nan,nan,nan,nan,nan,nan,nan,nan,nan,nan,nan,nan,186.00471926329192,647.2629570191493,nan,647.7043169013923,nan,nan,nan,nan
1,330,1,1,1.0,1.0,0.7292223978147376,0,0,7,4,2,6,3,nan,nan,nan,nan,nan,nan,nan,nan,nan,nan,nan,nan,0.0,nan,nan,nan,nan,nan,nan,nan,nan,nan,nan,nan,nan,nan,nan,nan,nan,nan,nan,186.00471926329192,648.263091871544,nan,648.9923142693588,nan,nan,nan,nan
1,331,1,1,1.0,1.0,0.5930542753776535,0,4,8,2,5,3,1,nan,nan,nan,nan,nan,nan,nan,nan,nan,nan,nan,nan,0.0,nan,nan,nan,nan,nan,nan,nan,nan,nan,nan,nan,nan,nan,nan,nan,nan,nan,nan,186.00471926329192,649.26324668093,nan,649.8563009563077,nan,nan,nan,nan
1,332,1,1,1.0,1.0,0.41694418792030774,0,8,1,6,7,5,0,nan,nan,nan,nan,nan,nan,nan,nan,nan,nan,nan,nan,0.0,nan,nan,nan,nan,nan,nan,nan,nan,nan,nan,nan,nan,nan,nan,nan,nan,nan,nan,186.00471926329192,650.263377256837,nan,650.6803214447573,nan,nan,nan,nan
1,333,0,0,0.0,1.0,0.47245319295325316,0,1,6,0,4,2,8,nan,nan,nan,nan,nan,nan,nan,nan,nan,nan,nan,nan,0.0,nan,nan,nan,nan,nan,nan,nan,nan,nan,nan,nan,nan,nan,nan,nan,nan,nan,nan,186.00471926329192,651.2718370344664,nan,651.7442902274197,nan,nan,nan,nan
1,334,1,1,1.0,1.0,0.3683095184387639,0,6,1,5,7,3,2,nan,nan,nan,nan,nan,nan,nan,nan,nan,nan,nan,nan,0.0,nan,nan,nan,nan,nan,nan,nan,nan,nan,nan,nan,nan,nan,nan,nan,nan,nan,nan,186.00471926329192,652.2719696060522,nan,652.6402791244909,nan,nan,nan,nan
1,335,1,1,1.0,1.0,0.44019410759210587,0,0,7,2,3,4,5,nan,nan,nan,nan,nan,nan,nan,nan,nan,nan,nan,nan,0.0,nan,nan,nan,nan,nan,nan,nan,nan,nan,nan,nan,nan,nan,nan,nan,nan,nan,nan,186.00471926329192,653.2721113008447,nan,653.7123054084368,nan,nan,nan,nan
1,336,1,1,1.0,1.0,0.5440116275276523,0,3,6,8,5,7,1,nan,nan,nan,nan,nan,nan,nan,nan,nan,nan,nan,nan,0.0,nan,nan,nan,nan,nan,nan,nan,nan,nan,nan,nan,nan,nan,nan,nan,nan,nan,nan,186.00471926329192,654.2722458681092,nan,654.8162574956368,nan,nan,nan,nan
1,337,0,0,0.0,1.0,0.49587160686496645,0,1,0,5,4,2,6,nan,nan,nan,nan,nan,nan,nan,nan,nan,nan,nan,nan,0.0,nan,nan,nan,nan,nan,nan,nan,nan,nan,nan,nan,nan,nan,nan,nan,nan,nan,nan,186.00471926329192,655.2723775843915,nan,655.7682491912565,nan,nan,nan,nan
1,338,1,1,1.0,1.0,0.4157231038552709,0,8,3,7,5,0,1,nan,nan,nan,nan,nan,nan,nan,nan,nan,nan,nan,nan,0.0,nan,nan,nan,nan,nan,nan,nan,nan,nan,nan,nan,nan,nan,nan,nan,nan,nan,nan,186.00471926329192,656.2725144324941,nan,656.6882375363493,nan,nan,nan,nan
1,339,0,0,1.0,0.0,0.45557326660491526,0,5,4,1,6,2,0,nan,nan,nan,nan,nan,nan,nan,nan,nan,nan,nan,nan,0.0,nan,nan,nan,nan,nan,nan,nan,nan,nan,nan,nan,nan,nan,nan,nan,nan,nan,nan,186.00471926329192,657.2726527060731,nan,657.728225972678,nan,nan,nan,nan
1,340,1,1,1.0,1.0,0.5914095324405935,0,3,6,4,8,0,5,nan,nan,nan,nan,nan,nan,nan,nan,nan,nan,nan,nan,0.0,nan,nan,nan,nan,nan,nan,nan,nan,nan,nan,nan,nan,nan,nan,nan,nan,nan,nan,186.00471926329192,658.2727676014474,nan,658.864177133888,nan,nan,nan,nan
1,341,1,1,1.0,1.0,0.5832890240126289,0,6,1,3,2,4,0,nan,nan,nan,nan,nan,nan,nan,nan,nan,nan,nan,nan,0.0,nan,nan,nan,nan,nan,nan,nan,nan,nan,nan,nan,nan,nan,nan,nan,nan,nan,nan,186.00471926329192,659.2729295383615,nan,659.8562185623741,nan,nan,nan,nan
1,342,0,0,0.0,1.0,0.5591367622837424,0,0,2,1,7,6,8,nan,nan,nan,nan,nan,nan,nan,nan,nan,nan,nan,nan,0.0,nan,nan,nan,nan,nan,nan,nan,nan,nan,nan,nan,nan,nan,nan,nan,nan,nan,nan,186.00471926329192,660.2730638205248,nan,660.8322005828086,nan,nan,nan,nan
1,343,1,1,1.0,1.0,0.5349819346156437,0,1,4,7,0,8,2,nan,nan,nan,nan,nan,nan,nan,nan,nan,nan,nan,nan,0.0,nan,nan,nan,nan,nan,nan,nan,nan,nan,nan,nan,nan,nan,nan,nan,nan,nan,nan,186.00471926329192,661.2732343104435,nan,661.8082162450592,nan,nan,nan,nan
1,344,1,1,1.0,1.0,0.6148518947302364,1,3,1,4,7,2,5,1.0,1.0,1.0,1.0,1.0,1.0,0.0,0.0,1.0,1.0,0.0,0.0,2.0,6.0,5.0,4.0,7.0,1.0,6.0,5.0,6.0,1.0,2.0,3.0,4.0,5.762656666105613,6.657726685283706,1.1228368380398024,2.1884660441428423,3.1224009198485874,4.6663478296250105,186.00471926329192,662.2733426485211,663.081770152814,662.8881945432513,670.7994422870397,671.805252628692,664.0985790892155,670.7911088087712
1,345,1,1,1.0,1.0,0.6640787172946148,0,7,5,6,2,4,0,nan,nan,nan,nan,nan,nan,nan,nan,nan,nan,nan,nan,0.0,nan,nan,nan,nan,nan,nan,nan,nan,nan,nan,nan,nan,nan,nan,nan,nan,nan,nan,186.00471926329192,672.0080096044694,nan,672.672088321764,nan,nan,nan,nan
1,346,1,1,1.0,1.0,0.6799043431819882,0,8,3,2,6,0,1,nan,nan,nan,nan,nan,nan,nan,nan,nan,nan,nan,nan,0.0,nan,nan,nan,nan,nan,nan,nan,nan,nan,nan,nan,nan,nan,nan,nan,nan,nan,nan,186.00471926329192,673.0081715413544,nan,673.6880758845364,nan,nan,nan,nan
1,347,1,1,1.0,1.0,0.49579776590690017,0,0,1,7,3,4,6,nan,nan,nan,nan,nan,nan,nan,nan,nan,nan,nan,nan,0.0,nan,nan,nan,nan,nan,nan,nan,nan,nan,nan,nan,nan,nan,nan,nan,nan,nan,nan,186.00471926329192,674.0082793092297,nan,674.5040770751366,nan,nan,nan,nan
1,348,1,1,1.0,1.0,0.41529944498324767,0,8,6,4,1,0,3,nan,nan,nan,nan,nan,nan,nan,nan,nan,nan,nan,nan,0.0,nan,nan,nan,nan,nan,nan,nan,nan,nan,nan,nan,nan,nan,nan,nan,nan,nan,nan,186.00471926329192,675.0167530567851,nan,675.4320525017683,nan,nan,nan,nan
1,349,1,1,1.0,1.0,0.479161885305075,0,6,4,3,7,2,0,nan,nan,nan,nan,nan,nan,nan,nan,nan,nan,nan,nan,0.0,nan,nan,nan,nan,nan,nan,nan,nan,nan,nan,nan,nan,nan,nan,nan,nan,nan,nan,186.00471926329192,676.016888764454,nan,676.4960506497591,nan,nan,nan,nan
1,350,1,1,1.0,1.0,0.48700356573681347,0,3,8,4,1,5,2,nan,nan,nan,nan,nan,nan,nan,nan,nan,nan,nan,nan,0.0,nan,nan,nan,nan,nan,nan,nan,nan,nan,nan,nan,nan,nan,nan,nan,nan,nan,nan,186.00471926329192,677.0170267529611,nan,677.5040303186979,nan,nan,nan,nan
1,351,1,1,1.0,1.0,0.3908532449568156,0,7,2,0,3,8,1,nan,nan,nan,nan,nan,nan,nan,nan,nan,nan,nan,nan,0.0,nan,nan,nan,nan,nan,nan,nan,nan,nan,nan,nan,nan,nan,nan,nan,nan,nan,nan,186.00471926329192,678.0171724391403,nan,678.4080256840971,nan,nan,nan,nan
1,352,1,1,1.0,1.0,0.49472493393113837,0,4,3,8,7,6,2,nan,nan,nan,nan,nan,nan,nan,nan,nan,nan,nan,nan,0.0,nan,nan,nan,nan,nan,nan,nan,nan,nan,nan,nan,nan,nan,nan,nan,nan,nan,nan,186.00471926329192,679.0172970279236,nan,679.5120219618548,nan,nan,nan,nan
1,353,1,1,1.0,1.0,0.4865821876737755,0,7,8,6,1,4,5,nan,nan,nan,nan,nan,nan,nan,nan,nan,nan,nan,nan,0.0,nan,nan,nan,nan,nan,nan,nan,nan,nan,nan,nan,nan,nan,nan,nan,nan,nan,nan,186.00471926329192,680.0174390078173,nan,680.5040211954911,nan,nan,nan,nan
1,354,1,1,1.0,1.0,0.5024189324758481,0,4,2,7,5,1,8,nan,nan,nan,nan,nan,nan,nan,nan,nan,nan,nan,nan,0.0,nan,nan,nan,nan,nan,nan,nan,nan,nan,nan,nan,nan,nan,nan,nan,nan,nan,nan,186.00471926329192,681.017578706902,nan,681.5199976393778,nan,nan,nan,nan
1,355,1,1,1.0,1.0,0.48626943278941326,0,8,5,1,7,0,4,nan,nan,nan,nan,nan,nan,nan,nan,nan,nan,nan,nan,0.0,nan,nan,nan,nan,nan,nan,nan,nan,nan,nan,nan,nan,nan,nan,nan,nan,nan,nan,186.00471926329192,682.017728669598,nan,682.5039981023874,nan,nan,nan,nan
1,356,0,0,0.0,1.0,0.47812383554992266,0,4,8,2,5,1,0,nan,nan,nan,nan,nan,nan,nan,nan,nan,nan,nan,nan,0.0,nan,nan,nan,nan,nan,nan,nan,nan,nan,nan,nan,nan,nan,nan,nan,nan,nan,nan,186.00471926329192,683.0178552540601,nan,683.49597908961,nan,nan,nan,nan
1,357,1,1,1.0,1.0,0.39798673658515327,0,0,6,4,2,5,3,nan,nan,nan,nan,nan,nan,nan,nan,nan,nan,nan,nan,0.0,nan,nan,nan,nan,nan,nan,nan,nan,nan,nan,nan,nan,nan,nan,nan,nan,nan,nan,186.00471926329192,684.0179969488527,nan,684.4159836854378,nan,nan,nan,nan
1,358,1,1,1.0,1.0,0.7738015172362793,0,1,4,3,6,8,2,nan,nan,nan,nan,nan,nan,nan,nan,nan,nan,nan,nan,0.0,nan,nan,nan,nan,nan,nan,nan,nan,nan,nan,nan,nan,nan,nan,nan,nan,nan,nan,186.00471926329192,685.0181925275829,nan,685.7919940448191,nan,nan,nan,nan
1,359,0,0,0.0,1.0,0.7657254844671115,0,6,8,5,1,2,3,nan,nan,nan,nan,nan,nan,nan,nan,nan,nan,nan,nan,0.0,nan,nan,nan,nan,nan,nan,nan,nan,nan,nan,nan,nan,nan,nan,nan,nan,nan,nan,186.00471926329192,686.0182606665185,nan,686.7839861509856,nan,nan,nan,nan
1,360,1,1,1.0,1.0,0.6855604456504807,0,7,5,1,2,0,4,nan,nan,nan,nan,nan,nan,nan,nan,nan,nan,nan,nan,0.0,nan,nan,nan,nan,nan,nan,nan,nan,nan,nan,nan,nan,nan,nan,nan,nan,nan,nan,186.00471926329192,687.0183650132094,nan,687.7039254588599,nan,nan,nan,nan
1,361,1,1,1.0,1.0,0.4854013027215842,0,2,1,3,8,7,6,nan,nan,nan,nan,nan,nan,nan,nan,nan,nan,nan,nan,0.0,nan,nan,nan,nan,nan,nan,nan,nan,nan,nan,nan,nan,nan,nan,nan,nan,nan,nan,186.00471926329192,688.0185303713079,nan,688.5039316740294,nan,nan,nan,nan
1,362,1,1,1.0,1.0,0.5332582189294044,0,1,0,7,3,4,5,nan,nan,nan,nan,nan,nan,nan,nan,nan,nan,nan,nan,0.0,nan,nan,nan,nan,nan,nan,nan,nan,nan,nan,nan,nan,nan,nan,nan,nan,nan,nan,186.00471926329192,689.0186717809993,nan,689.5519299999287,nan,nan,nan,nan
1,363,1,1,1.0,1.0,0.5091079528792761,0,5,1,2,4,3,0,nan,nan,nan,nan,nan,nan,nan,nan,nan,nan,nan,nan,0.0,nan,nan,nan,nan,nan,nan,nan,nan,nan,nan,nan,nan,nan,nan,nan,nan,nan,nan,186.00471926329192,690.0188109098817,nan,690.527918862761,nan,nan,nan,nan
1,364,1,1,1.0,1.0,0.4849599676381331,0,1,5,8,3,0,2,nan,nan,nan,nan,nan,nan,nan,nan,nan,nan,nan,nan,0.0,nan,nan,nan,nan,nan,nan,nan,nan,nan,nan,nan,nan,nan,nan,nan,nan,nan,nan,186.00471926329192,691.0189523195731,nan,691.5039122872113,nan,nan,nan,nan
1,365,1,1,1.0,1.0,0.4768109492142685,0,6,0,4,5,8,7,nan,nan,nan,nan,nan,nan,nan,nan,nan,nan,nan,nan,0.0,nan,nan,nan,nan,nan,nan,nan,nan,nan,nan,nan,nan,nan,nan,nan,nan,nan,nan,186.00471926329192,692.01909002295,nan,692.4959009721642,nan,nan,nan,nan
1,366,1,1,1.0,1.0,0.5646611484698951,0,1,7,2,0,5,3,nan,nan,nan,nan,nan,nan,nan,nan,nan,nan,nan,nan,0.0,nan,nan,nan,nan,nan,nan,nan,nan,nan,nan,nan,nan,nan,nan,nan,nan,nan,nan,186.00471926329192,693.0192225945357,nan,693.5838837430056,nan,nan,nan,nan
1,367,1,1,1.0,1.0,0.5564950240077451,0,3,5,8,1,4,0,nan,nan,nan,nan,nan,nan,nan,nan,nan,nan,nan,nan,0.0,nan,nan,nan,nan,nan,nan,nan,nan,nan,nan,nan,nan,nan,nan,nan,nan,nan,nan,186.00471926329192,694.0193796847307,nan,694.5758747087384,nan,nan,nan,nan
1,368,1,1,1.0,1.0,0.5483722347707953,0,0,4,1,3,6,7,nan,nan,nan,nan,nan,nan,nan,nan,nan,nan,nan,nan,0.0,nan,nan,nan,nan,nan,nan,nan,nan,nan,nan,nan,nan,nan,nan,nan,nan,nan,nan,186.00471926329192,695.0194962907117,nan,695.5678685254825,nan,nan,nan,nan
1,369,1,1,1.0,1.0,0.46823199969367124,0,2,1,3,8,0,6,nan,nan,nan,nan,nan,nan,nan,nan,nan,nan,nan,nan,0.0,nan,nan,nan,nan,nan,nan,nan,nan,nan,nan,nan,nan,nan,nan,nan,nan,nan,nan,186.00471926329192,696.0196391259087,nan,696.4878711256024,nan,nan,nan,nan
1,370,1,1,1.0,1.0,0.46005589675041847,0,1,6,7,5,2,0,nan,nan,nan,nan,nan,nan,nan,nan,nan,nan,nan,nan,0.0,nan,nan,nan,nan,nan,nan,nan,nan,nan,nan,nan,nan,nan,nan,nan,nan,nan,nan,186.00471926329192,697.0197905140813,nan,697.4798464108317,nan,nan,nan,nan
1,371,1,1,1.0,1.0,0.5796038190892432,0,4,1,6,7,0,5,nan,nan,nan,nan,nan,nan,nan,nan,nan,nan,nan,nan,0.0,nan,nan,nan,nan,nan,nan,nan,nan,nan,nan,nan,nan,nan,nan,nan,nan,nan,nan,186.00471926329192,698.0282525725488,nan,698.607856391638,nan,nan,nan,nan
1,372,1,1,1.0,1.0,0.5477592693641782,0,6,2,5,1,3,8,nan,nan,nan,nan,nan,nan,nan,nan,nan,nan,nan,nan,0.0,nan,nan,nan,nan,nan,nan,nan,nan,nan,nan,nan,nan,nan,nan,nan,nan,nan,nan,186.00471926329192,699.0283845739323,nan,699.5761438432964,nan,nan,nan,nan
1,373,1,1,1.0,1.0,0.450965762604028,0,0,8,3,7,2,6,nan,nan,nan,nan,nan,nan,nan,nan,nan,nan,nan,nan,0.0,nan,nan,nan,nan,nan,nan,nan,nan,nan,nan,nan,nan,nan,nan,nan,nan,nan,nan,186.00471926329192,700.0368697254744,nan,700.4878354880784,nan,nan,nan,nan
1,374,1,1,1.0,1.0,0.5708121848292649,0,8,7,0,3,5,4,nan,nan,nan,nan,nan,nan,nan,nan,nan,nan,nan,nan,0.0,nan,nan,nan,nan,nan,nan,nan,nan,nan,nan,nan,nan,nan,nan,nan,nan,nan,nan,186.00471926329192,701.0370125606714,nan,701.6078247455007,nan,nan,nan,nan
1,375,1,1,1.0,1.0,0.6587134170113131,0,2,4,3,7,6,1,nan,nan,nan,nan,nan,nan,nan,nan,nan,nan,nan,nan,0.0,nan,nan,nan,nan,nan,nan,nan,nan,nan,nan,nan,nan,nan,nan,nan,nan,nan,nan,186.00471926329192,702.0371368643537,nan,702.695850281365,nan,nan,nan,nan
1,376,1,1,1.0,1.0,0.5705464714556001,0,1,3,8,4,7,5,nan,nan,nan,nan,nan,nan,nan,nan,nan,nan,nan,nan,0.0,nan,nan,nan,nan,nan,nan,nan,nan,nan,nan,nan,nan,nan,nan,nan,nan,nan,nan,186.00471926329192,703.0372500491212,nan,703.6077965205768,nan,nan,nan,nan
1,377,1,1,1.0,1.0,0.7223523387801833,0,6,5,4,3,1,8,nan,nan,nan,nan,nan,nan,nan,nan,nan,nan,nan,nan,0.0,nan,nan,nan,nan,nan,nan,nan,nan,nan,nan,nan,nan,nan,nan,nan,nan,nan,nan,186.00471926329192,704.0374390705256,nan,704.7597914093058,nan,nan,nan,nan
1,378,1,1,1.0,1.0,0.7699515244166832,0,3,1,0,8,4,7,nan,nan,nan,nan,nan,nan,nan,nan,nan,nan,nan,nan,0.0,nan,nan,nan,nan,nan,nan,nan,nan,nan,nan,nan,nan,nan,nan,nan,nan,nan,nan,186.00471926329192,705.0458506662399,nan,705.8158021906565,nan,nan,nan,nan
1,379,1,1,1.0,1.0,0.7697667795000598,0,8,4,6,2,3,0,nan,nan,nan,nan,nan,nan,nan,nan,nan,nan,nan,nan,0.0,nan,nan,nan,nan,nan,nan,nan,nan,nan,nan,nan,nan,nan,nan,nan,nan,nan,nan,186.00471926329192,706.0460097521427,nan,706.8157765316428,nan,nan,nan,nan
1,380,1,1,1.0,1.0,0.6815981233667117,0,1,2,8,0,5,4,nan,nan,nan,nan,nan,nan,nan,nan,nan,nan,nan,nan,0.0,nan,nan,nan,nan,nan,nan,nan,nan,nan,nan,nan,nan,nan,nan,nan,nan,nan,nan,186.00471926329192,707.0461585744342,nan,707.7277566978009,nan,nan,nan,nan
1,381,1,1,1.0,1.0,0.5774772568547633,0,5,0,1,3,7,6,nan,nan,nan,nan,nan,nan,nan,nan,nan,nan,nan,nan,0.0,nan,nan,nan,nan,nan,nan,nan,nan,nan,nan,nan,nan,nan,nan,nan,nan,nan,nan,186.00471926329192,708.0463005543279,nan,708.6237778111827,nan,nan,nan,nan
1,382,1,1,1.0,1.0,0.47330108092864975,0,1,8,5,4,3,0,nan,nan,nan,nan,nan,nan,nan,nan,nan,nan,nan,nan,0.0,nan,nan,nan,nan,nan,nan,nan,nan,nan,nan,nan,nan,nan,nan,nan,nan,nan,nan,186.00471926329192,709.0464362619969,nan,709.5197373429255,nan,nan,nan,nan
1,383,1,1,1.0,1.0,0.41717255316325463,0,7,2,6,8,0,3,nan,nan,nan,nan,nan,nan,nan,nan,nan,nan,nan,nan,0.0,nan,nan,nan,nan,nan,nan,nan,nan,nan,nan,nan,nan,nan,nan,nan,nan,nan,nan,186.00471926329192,710.0465551487869,nan,710.4637277019501,nan,nan,nan,nan
1,384,1,1,1.0,1.0,0.529023911076365,0,8,4,2,7,5,6,nan,nan,nan,nan,nan,nan,nan,nan,nan,nan,nan,nan,0.0,nan,nan,nan,nan,nan,nan,nan,nan,nan,nan,nan,nan,nan,nan,nan,nan,nan,nan,186.00471926329192,711.0466962733772,nan,711.5757201844535,nan,nan,nan,nan
1,385,1,1,1.0,1.0,0.4648914808931295,0,3,6,4,2,0,1,nan,nan,nan,nan,nan,nan,nan,nan,nan,nan,nan,nan,0.0,nan,nan,nan,nan,nan,nan,nan,nan,nan,nan,nan,nan,nan,nan,nan,nan,nan,nan,186.00471926329192,712.0468222876661,nan,712.5117137685593,nan,nan,nan,nan
1,386,1,1,1.0,1.0,0.4167266564909369,0,4,0,2,8,7,5,nan,nan,nan,nan,nan,nan,nan,nan,nan,nan,nan,nan,0.0,nan,nan,nan,nan,nan,nan,nan,nan,nan,nan,nan,nan,nan,nan,nan,nan,nan,nan,186.00471926329192,713.0469711099577,nan,713.4636977664486,nan,nan,nan,nan
1,387,1,1,1.0,1.0,0.4325825030100532,0,1,5,0,2,4,3,nan,nan,nan,nan,nan,nan,nan,nan,nan,nan,nan,nan,0.0,nan,nan,nan,nan,nan,nan,nan,nan,nan,nan,nan,nan,nan,nan,nan,nan,nan,nan,186.00471926329192,714.0471068176266,nan,714.4796893206367,nan,nan,nan,nan
1,388,1,1,1.0,1.0,0.43247188412351534,0,6,3,8,5,2,1,nan,nan,nan,nan,nan,nan,nan,nan,nan,nan,nan,nan,0.0,nan,nan,nan,nan,nan,nan,nan,nan,nan,nan,nan,nan,nan,nan,nan,nan,nan,nan,186.00471926329192,715.0472068878007,nan,715.4796787719242,nan,nan,nan,nan
