block,trial,freq_trials,correct_response,actual_response,acc,rts,probe_trials,fast_rt_trigger,slow_rt_trigger,rt_triggered,rts_runningavg,rts_runningstd,rts_runningfastthresh,rts_runningslowthresh,rts_runningstd,rts_trailingavg,trials_colorind0,trials_colorind1,trials_colorind2,trials_colorind3,trials_colorind4,trials_colorind5,wholereport_resp0,wholereport_resp1,wholereport_resp2,wholereport_resp3,wholereport_resp4,wholereport_resp5,wholereport_respacc0,wholereport_respacc1,wholereport_respacc2,wholereport_respacc3,wholereport_respacc4,wholereport_respacc5,wholereport_respacc_total,wholereport_respcolorind0,wholereport_respcolorind1,wholereport_respcolorind2,wholereport_respcolorind3,wholereport_respcolorind4,wholereport_respcolorind5,wholereport_resporder0,wholereport_resporder1,wholereport_resporder2,wholereport_resporder3,wholereport_resporder4,wholereport_resporder5,wholereport_rts0,wholereport_rts1,wholereport_rts2,wholereport_rts3,wholereport_rts4,wholereport_rts5,time_blockstart,time_encarray_offset,time_encarray_onset,time_response,time_iti_offset,time_iti_onset,time_memprobe_offset,time_memprobe_onset
1,1,1,1,1.0,1.0,0.4259677190275397,0,nan,nan,nan,nan,nan,nan,nan,nan,nan,0,1,5,3,4,6,nan,nan,nan,nan,nan,nan,nan,nan,nan,nan,nan,nan,0.0,nan,nan,nan,nan,nan,nan,nan,nan,nan,nan,nan,nan,nan,nan,nan,nan,nan,nan,495.9730033088417,496.99501422350295,nan,497.4209819425305,nan,nan,nan,nan
1,2,1,1,1.0,1.0,0.43274989182827994,0,nan,nan,nan,nan,nan,nan,nan,nan,nan,5,2,6,8,7,4,nan,nan,nan,nan,nan,nan,nan,nan,nan,nan,nan,nan,0.0,nan,nan,nan,nan,nan,nan,nan,nan,nan,nan,nan,nan,nan,nan,nan,nan,nan,nan,495.9730033088417,498.0202227862028,nan,498.4529726780311,nan,nan,nan,nan
1,3,1,1,1.0,1.0,0.42367325827945024,0,nan,nan,nan,nan,nan,nan,nan,nan,nan,4,8,0,1,5,7,nan,nan,nan,nan,nan,nan,nan,nan,nan,nan,nan,nan,0.0,nan,nan,nan,nan,nan,nan,nan,nan,nan,nan,nan,nan,nan,nan,nan,nan,nan,nan,495.9730033088417,499.04526884364896,nan,499.4689421019284,nan,nan,nan,nan
1,4,1,1,1.0,1.0,0.40649730383302085,0,nan,nan,nan,nan,nan,nan,nan,nan,nan,7,6,1,3,2,5,nan,nan,nan,nan,nan,nan,nan,nan,nan,nan,nan,nan,0.0,nan,nan,nan,nan,nan,nan,nan,nan,nan,nan,nan,nan,nan,nan,nan,nan,nan,nan,495.9730033088417,500.07043150573736,nan,500.4769288095704,nan,nan,nan,nan
1,5,1,1,1.0,1.0,0.44535117963096127,0,nan,nan,nan,nan,nan,nan,nan,nan,nan,6,5,8,4,1,0,nan,nan,nan,nan,nan,nan,nan,nan,nan,nan,nan,nan,0.0,nan,nan,nan,nan,nan,nan,nan,nan,nan,nan,nan,nan,nan,nan,nan,nan,nan,nan,495.9730033088417,501.095563092269,nan,501.54091427189996,nan,nan,nan,nan
1,6,1,1,1.0,1.0,0.516191229398828,0,nan,nan,nan,nan,nan,nan,nan,nan,nan,4,3,7,6,2,8,nan,nan,nan,nan,nan,nan,nan,nan,nan,nan,nan,nan,0.0,nan,nan,nan,nan,nan,nan,nan,nan,nan,nan,nan,nan,nan,nan,nan,nan,nan,nan,495.9730033088417,502.12069467877154,nan,502.63688590817037,nan,nan,nan,nan
1,7,1,1,1.0,1.0,0.5550416840123944,0,nan,nan,nan,nan,nan,nan,nan,nan,nan,3,8,0,7,1,5,nan,nan,nan,nan,nan,nan,nan,nan,nan,nan,nan,nan,0.0,nan,nan,nan,nan,nan,nan,nan,nan,nan,nan,nan,nan,nan,nan,nan,nan,nan,nan,495.9730033088417,503.1458211335703,nan,503.7008628175827,nan,nan,nan,nan
1,8,1,1,1.0,1.0,0.5538819094072096,1,nan,nan,nan,nan,nan,nan,nan,nan,nan,8,4,1,3,2,6,1.0,1.0,1.0,1.0,1.0,1.0,1.0,0.0,1.0,1.0,0.0,0.0,3.0,8.0,1.0,1.0,3.0,6.0,7.0,5.0,6.0,1.0,2.0,3.0,4.0,8.27708264789544,9.156637714098906,1.8766753012896515,2.8941967933496926,6.038144839549204,7.2047090613341425,495.9730033088417,504.1709589922102,504.97938035876723,504.7248409016174,515.1974291092192,516.2071301051765,506.00450937941787,515.189044976345
1,9,1,1,1.0,1.0,0.4136686340207234,0,nan,nan,nan,nan,nan,nan,nan,nan,nan,2,0,8,7,1,4,nan,nan,nan,nan,nan,nan,nan,nan,nan,nan,nan,nan,0.0,nan,nan,nan,nan,nan,nan,nan,nan,nan,nan,nan,nan,nan,nan,nan,nan,nan,nan,495.9730033088417,516.4308873530535,nan,516.8445559870743,nan,nan,nan,nan
1,10,1,1,1.0,1.0,0.39684106811182573,0,nan,nan,nan,nan,nan,nan,nan,nan,nan,0,1,4,2,3,7,nan,nan,nan,nan,nan,nan,nan,nan,nan,nan,nan,nan,0.0,nan,nan,nan,nan,nan,nan,nan,nan,nan,nan,nan,nan,nan,nan,nan,nan,nan,nan,495.9730033088417,517.4477095021284,nan,517.8445505702402,nan,nan,nan,nan
1,11,0,0,0.0,1.0,0.5797196812345646,0,nan,nan,nan,nan,nan,nan,nan,nan,nan,1,3,8,5,0,2,nan,nan,nan,nan,nan,nan,nan,nan,nan,nan,nan,nan,0.0,nan,nan,nan,nan,nan,nan,nan,nan,nan,nan,nan,nan,nan,nan,nan,nan,nan,nan,495.9730033088417,518.4728214169445,nan,519.0525410981791,nan,nan,nan,nan
1,12,1,1,1.0,1.0,0.41857629394507967,0,nan,nan,nan,nan,nan,nan,nan,nan,nan,3,6,0,8,5,7,nan,nan,nan,nan,nan,nan,nan,nan,nan,nan,nan,nan,0.0,nan,nan,nan,nan,nan,nan,nan,nan,nan,nan,nan,nan,nan,nan,nan,nan,nan,nan,495.9730033088417,519.4979538587795,nan,519.9165301527246,nan,nan,nan,nan
1,13,1,1,1.0,1.0,0.4813250054430682,0,nan,nan,nan,nan,nan,nan,nan,nan,nan,0,1,2,5,8,4,nan,nan,nan,nan,nan,nan,nan,nan,nan,nan,nan,nan,0.0,nan,nan,nan,nan,nan,nan,nan,nan,nan,nan,nan,nan,nan,nan,nan,nan,nan,nan,495.9730033088417,520.5231877951301,nan,521.0045128005731,nan,nan,nan,nan
1,14,0,0,0.0,1.0,0.7122658427106217,0,nan,nan,nan,nan,nan,nan,nan,nan,nan,7,3,0,2,4,8,nan,nan,nan,nan,nan,nan,nan,nan,nan,nan,nan,nan,0.0,nan,nan,nan,nan,nan,nan,nan,nan,nan,nan,nan,nan,nan,nan,nan,nan,nan,nan,495.9730033088417,521.5482081937953,nan,522.2604740365059,nan,nan,nan,nan
1,15,1,1,1.0,1.0,0.47110684352810495,0,nan,nan,nan,nan,nan,nan,nan,nan,nan,4,1,2,6,0,5,nan,nan,nan,nan,nan,nan,nan,nan,nan,nan,nan,nan,0.0,nan,nan,nan,nan,nan,nan,nan,nan,nan,nan,nan,nan,nan,nan,nan,nan,nan,nan,495.9730033088417,522.5733620178944,nan,523.0444688614225,nan,nan,nan,nan
1,16,1,1,1.0,1.0,0.3899551200156566,0,nan,nan,nan,nan,nan,nan,nan,nan,nan,2,7,1,8,4,6,nan,nan,nan,nan,nan,nan,nan,nan,nan,nan,nan,nan,0.0,nan,nan,nan,nan,nan,nan,nan,nan,nan,nan,nan,nan,nan,nan,nan,nan,nan,nan,495.9730033088417,523.5984978808847,nan,523.9884530009003,nan,nan,nan,nan
1,17,1,1,1.0,1.0,0.3247725353576243,0,nan,nan,nan,nan,nan,nan,nan,nan,nan,5,2,3,4,1,8,nan,nan,nan,nan,nan,nan,nan,nan,nan,nan,nan,nan,0.0,nan,nan,nan,nan,nan,nan,nan,nan,nan,nan,nan,nan,nan,nan,nan,nan,nan,nan,495.9730033088417,524.6236488540017,nan,524.9484213893593,nan,nan,nan,nan
1,18,1,1,1.0,1.0,0.34310113702667877,0,nan,nan,nan,nan,nan,nan,nan,nan,nan,6,7,4,8,5,2,nan,nan,nan,nan,nan,nan,nan,nan,nan,nan,nan,nan,0.0,nan,nan,nan,nan,nan,nan,nan,nan,nan,nan,nan,nan,nan,nan,nan,nan,nan,nan,495.9730033088417,525.6692988723225,nan,526.0124000093492,nan,nan,nan,nan
1,19,1,1,1.0,1.0,0.37781369365984574,0,nan,nan,nan,nan,nan,nan,nan,nan,nan,7,0,2,3,4,5,nan,nan,nan,nan,nan,nan,nan,nan,nan,nan,nan,nan,0.0,nan,nan,nan,nan,nan,nan,nan,nan,nan,nan,nan,nan,nan,nan,nan,nan,nan,nan,495.9730033088417,526.6905656837916,nan,527.0683793774515,nan,nan,nan,nan
1,20,1,1,1.0,1.0,0.4326646477857139,0,nan,nan,nan,nan,nan,nan,nan,nan,nan,4,7,0,6,3,8,nan,nan,nan,nan,nan,nan,nan,nan,nan,nan,nan,nan,0.0,nan,nan,nan,nan,nan,nan,nan,nan,nan,nan,nan,nan,nan,nan,nan,nan,nan,nan,495.9730033088417,527.7156969852222,nan,528.1483616330079,nan,nan,nan,nan
1,21,1,1,1.0,1.0,0.5195077628886793,0,nan,nan,nan,nan,nan,nan,nan,nan,nan,8,2,6,7,5,1,nan,nan,nan,nan,nan,nan,nan,nan,nan,nan,nan,nan,0.0,nan,nan,nan,nan,nan,nan,nan,nan,nan,nan,nan,nan,nan,nan,nan,nan,nan,nan,495.9730033088417,528.740826576075,nan,529.2603343389637,nan,nan,nan,nan
1,22,1,1,1.0,1.0,0.45433287584455684,0,nan,nan,nan,nan,nan,nan,nan,nan,nan,7,5,4,8,2,3,nan,nan,nan,nan,nan,nan,nan,nan,nan,nan,nan,nan,0.0,nan,nan,nan,nan,nan,nan,nan,nan,nan,nan,nan,nan,nan,nan,nan,nan,nan,nan,495.9730033088417,529.7659738429356,nan,530.2203067187802,nan,nan,nan,nan
1,23,1,1,1.0,1.0,0.5244844163244125,0,nan,nan,nan,nan,nan,nan,nan,nan,nan,3,0,5,2,6,8,nan,nan,nan,nan,nan,nan,nan,nan,nan,nan,nan,nan,0.0,nan,nan,nan,nan,nan,nan,nan,nan,nan,nan,nan,nan,nan,nan,nan,nan,nan,nan,495.9730033088417,530.8077844598156,nan,531.33226887614,nan,nan,nan,nan
1,24,1,1,1.0,1.0,0.6753606049751397,0,nan,nan,nan,nan,nan,nan,nan,nan,nan,5,3,4,7,2,6,nan,nan,nan,nan,nan,nan,nan,nan,nan,nan,nan,nan,0.0,nan,nan,nan,nan,nan,nan,nan,nan,nan,nan,nan,nan,nan,nan,nan,nan,nan,nan,495.9730033088417,531.8329072083288,nan,532.508267813304,nan,nan,nan,nan
1,25,1,1,1.0,1.0,0.5621195023995824,0,nan,nan,nan,nan,nan,nan,nan,nan,nan,0,7,2,4,6,1,nan,nan,nan,nan,nan,nan,nan,nan,nan,nan,nan,nan,0.0,nan,nan,nan,nan,nan,nan,nan,nan,nan,nan,nan,nan,nan,nan,nan,nan,nan,nan,495.9730033088417,532.8581217580941,nan,533.4202412604936,nan,nan,nan,nan
1,26,1,1,1.0,1.0,0.5530539876781404,0,nan,nan,nan,nan,nan,nan,nan,nan,nan,3,1,4,8,2,5,nan,nan,nan,nan,nan,nan,nan,nan,nan,nan,nan,nan,0.0,nan,nan,nan,nan,nan,nan,nan,nan,nan,nan,nan,nan,nan,nan,nan,nan,nan,nan,495.9730033088417,533.8831735174463,nan,534.4362275051244,nan,nan,nan,nan
1,27,1,1,1.0,1.0,0.47990408196346834,0,nan,nan,nan,nan,nan,nan,nan,nan,nan,2,8,7,1,3,4,nan,nan,nan,nan,nan,nan,nan,nan,nan,nan,nan,nan,0.0,nan,nan,nan,nan,nan,nan,nan,nan,nan,nan,nan,nan,nan,nan,nan,nan,nan,nan,495.9730033088417,534.9083062443824,nan,535.3882103263459,nan,nan,nan,nan
1,28,0,0,0.0,1.0,0.5267446654033847,0,nan,nan,nan,nan,nan,nan,nan,nan,nan,1,2,8,4,5,3,nan,nan,nan,nan,nan,nan,nan,nan,nan,nan,nan,nan,0.0,nan,nan,nan,nan,nan,nan,nan,nan,nan,nan,nan,nan,nan,nan,nan,nan,nan,nan,495.9730033088417,535.9334349799319,nan,536.4601796453353,nan,nan,nan,nan
1,29,1,1,1.0,1.0,0.41360306172282435,0,nan,nan,nan,nan,nan,nan,nan,nan,nan,7,0,5,3,4,1,nan,nan,nan,nan,nan,nan,nan,nan,nan,nan,nan,nan,0.0,nan,nan,nan,nan,nan,nan,nan,nan,nan,nan,nan,nan,nan,nan,nan,nan,nan,nan,495.9730033088417,536.958573123673,nan,537.3721761853958,nan,nan,nan,nan
1,30,1,1,1.0,1.0,0.3724521592957899,0,nan,nan,nan,nan,nan,nan,nan,nan,nan,6,7,0,4,8,5,nan,nan,nan,nan,nan,nan,nan,nan,nan,nan,nan,nan,0.0,nan,nan,nan,nan,nan,nan,nan,nan,nan,nan,nan,nan,nan,nan,nan,nan,nan,nan,495.9730033088417,537.9837038549304,nan,538.3561560142261,nan,nan,nan,nan
1,31,1,1,1.0,1.0,0.35529131497605704,0,nan,nan,nan,nan,nan,nan,nan,nan,nan,1,3,2,6,5,4,nan,nan,nan,nan,nan,nan,nan,nan,nan,nan,nan,nan,0.0,nan,nan,nan,nan,nan,nan,nan,nan,nan,nan,nan,nan,nan,nan,nan,nan,nan,nan,495.9730033088417,539.0088471304043,nan,539.3641384453804,nan,nan,nan,nan
1,32,1,1,1.0,1.0,0.354145224991953,0,nan,nan,nan,nan,nan,nan,nan,nan,nan,3,2,8,7,0,6,nan,nan,nan,nan,nan,nan,nan,nan,nan,nan,nan,nan,0.0,nan,nan,nan,nan,nan,nan,nan,nan,nan,nan,nan,nan,nan,nan,nan,nan,nan,nan,495.9730033088417,540.0339667428634,nan,540.3881119678554,nan,nan,nan,nan
1,33,1,1,1.0,1.0,0.44888923355028965,0,nan,nan,nan,nan,nan,nan,nan,nan,nan,5,1,3,6,7,0,nan,nan,nan,nan,nan,nan,nan,nan,nan,nan,nan,nan,0.0,nan,nan,nan,nan,nan,nan,nan,nan,nan,nan,nan,nan,nan,nan,nan,nan,nan,nan,495.9730033088417,541.0591989686363,nan,541.5080882021866,nan,nan,nan,nan
1,34,1,1,1.0,1.0,0.4158410732343327,0,nan,nan,nan,nan,nan,nan,nan,nan,nan,8,3,2,4,6,7,nan,nan,nan,nan,nan,nan,nan,nan,nan,nan,nan,nan,0.0,nan,nan,nan,nan,nan,nan,nan,nan,nan,nan,nan,nan,nan,nan,nan,nan,nan,nan,495.9730033088417,542.0842356178619,nan,542.5000766910962,nan,nan,nan,nan
1,35,1,1,1.0,1.0,0.4386610932124313,1,nan,nan,nan,nan,nan,nan,nan,nan,nan,6,5,3,1,7,2,1.0,1.0,1.0,1.0,1.0,1.0,0.0,0.0,1.0,1.0,1.0,0.0,3.0,0.0,6.0,3.0,1.0,7.0,4.0,5.0,4.0,3.0,2.0,1.0,6.0,7.393882331321947,6.561985791893676,3.8827538546465803,3.04282442186377,1.8677765683387406,8.409052628325298,495.9730033088417,543.1093777529604,543.9178039661492,543.5480388461729,553.3940089144162,554.3951786674443,544.9429241488106,553.3856758139154
1,36,1,1,1.0,1.0,0.5525901348446496,0,nan,nan,nan,nan,nan,nan,nan,nan,nan,0,6,4,3,1,7,nan,nan,nan,nan,nan,nan,nan,nan,nan,nan,nan,nan,0.0,nan,nan,nan,nan,nan,nan,nan,nan,nan,nan,nan,nan,nan,nan,nan,nan,nan,nan,495.9730033088417,554.6192002002499,nan,555.1717903350946,nan,nan,nan,nan
1,37,1,1,1.0,1.0,0.5194396247388795,0,nan,nan,nan,nan,nan,nan,nan,nan,nan,6,8,3,5,2,1,nan,nan,nan,nan,nan,nan,nan,nan,nan,nan,nan,nan,0.0,nan,nan,nan,nan,nan,nan,nan,nan,nan,nan,nan,nan,nan,nan,nan,nan,nan,nan,495.9730033088417,555.6443312165793,nan,556.1637708413182,nan,nan,nan,nan
1,38,1,1,1.0,1.0,0.517604455264518,0,nan,nan,nan,nan,nan,nan,nan,nan,nan,4,6,0,3,7,2,nan,nan,nan,nan,nan,nan,nan,nan,nan,nan,nan,nan,0.0,nan,nan,nan,nan,nan,nan,nan,nan,nan,nan,nan,nan,nan,nan,nan,nan,nan,nan,495.9730033088417,556.6861372719286,nan,557.2037417271931,nan,nan,nan,nan
1,39,1,1,1.0,1.0,0.6124536646238994,1,nan,nan,nan,nan,nan,nan,nan,nan,nan,3,7,4,1,0,5,1.0,1.0,1.0,1.0,1.0,1.0,0.0,1.0,1.0,0.0,0.0,0.0,2.0,2.0,7.0,4.0,3.0,6.0,1.0,6.0,1.0,2.0,3.0,4.0,5.0,5.703466323466273,1.3195920375583228,2.0001721985754557,2.8715840388904326,3.7923838044225704,4.927824270765996,495.9730033088417,557.7112739901931,558.5196887995116,558.323727654817,565.2788895927661,566.2821750506992,559.5364835792861,565.2705550667888
1,40,1,1,1.0,1.0,0.4034527528565377,0,nan,nan,nan,nan,nan,nan,nan,nan,nan,0,3,8,6,2,4,nan,nan,nan,nan,nan,nan,nan,nan,nan,nan,nan,nan,0.0,nan,nan,nan,nan,nan,nan,nan,nan,nan,nan,nan,nan,nan,nan,nan,nan,nan,nan,495.9730033088417,566.5040837295819,nan,566.9075364824384,nan,nan,nan,nan
1,41,1,1,1.0,1.0,0.3783357062784489,0,nan,nan,nan,nan,nan,nan,nan,nan,nan,7,0,6,8,3,2,nan,nan,nan,nan,nan,nan,nan,nan,nan,nan,nan,nan,0.0,nan,nan,nan,nan,nan,nan,nan,nan,nan,nan,nan,nan,nan,nan,nan,nan,nan,nan,495.9730033088417,567.5292124651314,nan,567.9075481714099,nan,nan,nan,nan
1,42,0,0,0.0,1.0,0.4811670617200434,0,nan,nan,nan,nan,nan,nan,nan,nan,nan,8,1,0,2,4,6,nan,nan,nan,nan,nan,nan,nan,nan,nan,nan,nan,nan,0.0,nan,nan,nan,nan,nan,nan,nan,nan,nan,nan,nan,nan,nan,nan,nan,nan,nan,nan,495.9730033088417,568.554357166111,nan,569.035524227831,nan,nan,nan,nan
1,43,1,1,1.0,1.0,0.319979769497877,0,nan,nan,nan,nan,nan,nan,nan,nan,nan,0,7,1,8,6,5,nan,nan,nan,nan,nan,nan,nan,nan,nan,nan,nan,nan,0.0,nan,nan,nan,nan,nan,nan,nan,nan,nan,nan,nan,nan,nan,nan,nan,nan,nan,nan,495.9730033088417,569.5795298066223,nan,569.8995095761202,nan,nan,nan,nan
1,44,0,0,0.0,1.0,0.462864118773723,0,nan,nan,nan,nan,nan,nan,nan,nan,nan,7,0,8,3,5,4,nan,nan,nan,nan,nan,nan,nan,nan,nan,nan,nan,nan,0.0,nan,nan,nan,nan,nan,nan,nan,nan,nan,nan,nan,nan,nan,nan,nan,nan,nan,nan,495.9730033088417,570.6046149223112,nan,571.0674790410849,nan,nan,nan,nan
1,45,1,1,1.0,1.0,0.28998414290254004,0,nan,nan,nan,nan,nan,nan,nan,nan,nan,5,4,0,8,7,3,nan,nan,nan,nan,nan,nan,nan,nan,nan,nan,nan,nan,0.0,nan,nan,nan,nan,nan,nan,nan,nan,nan,nan,nan,nan,nan,nan,nan,nan,nan,nan,495.9730033088417,571.6414708382799,nan,571.9314549811825,nan,nan,nan,nan
1,46,1,1,1.0,1.0,0.3642179874586873,0,nan,nan,nan,nan,nan,nan,nan,nan,nan,8,3,4,2,6,7,nan,nan,nan,nan,nan,nan,nan,nan,nan,nan,nan,nan,0.0,nan,nan,nan,nan,nan,nan,nan,nan,nan,nan,nan,nan,nan,nan,nan,nan,nan,nan,495.9730033088417,572.6632200338936,nan,573.0274380213523,nan,nan,nan,nan
1,47,1,1,1.0,1.0,0.2830537196714431,0,nan,nan,nan,nan,nan,nan,nan,nan,nan,2,5,6,4,1,3,nan,nan,nan,nan,nan,nan,nan,nan,nan,nan,nan,nan,0.0,nan,nan,nan,nan,nan,nan,nan,nan,nan,nan,nan,nan,nan,nan,nan,nan,nan,nan,495.9730033088417,573.6883635944978,nan,573.9714173141692,nan,nan,nan,nan
1,48,0,0,1.0,0.0,0.2739155052404385,0,nan,nan,0.0,nan,nan,nan,nan,nan,nan,1,3,8,7,5,4,nan,nan,nan,nan,nan,nan,nan,nan,nan,nan,nan,nan,0.0,nan,nan,nan,nan,nan,nan,nan,nan,nan,nan,nan,nan,nan,nan,nan,nan,nan,nan,495.9730033088417,574.7134880535887,nan,574.9874035588291,nan,nan,nan,nan
1,49,1,1,1.0,1.0,0.4327496067271568,0,nan,nan,nan,nan,nan,nan,nan,nan,nan,5,6,2,4,0,7,nan,nan,nan,nan,nan,nan,nan,nan,nan,nan,nan,nan,0.0,nan,nan,nan,nan,nan,nan,nan,nan,nan,nan,nan,nan,nan,nan,nan,nan,nan,nan,495.9730033088417,575.7386184997158,nan,576.171368106443,nan,nan,nan,nan
1,50,1,1,0.0,0.0,0.4789019659801852,0,nan,nan,0.0,nan,nan,nan,nan,nan,nan,6,7,4,8,1,0,nan,nan,nan,nan,nan,nan,nan,nan,nan,nan,nan,nan,0.0,nan,nan,nan,nan,nan,nan,nan,nan,nan,nan,nan,nan,nan,nan,nan,nan,nan,nan,495.9730033088417,576.7804171425523,nan,577.2593191085325,nan,nan,nan,nan
1,51,1,1,1.0,1.0,0.413780106959166,0,nan,nan,nan,nan,nan,nan,nan,nan,nan,1,3,0,4,2,8,nan,nan,nan,nan,nan,nan,nan,nan,nan,nan,nan,nan,0.0,nan,nan,nan,nan,nan,nan,nan,nan,nan,nan,nan,nan,nan,nan,nan,nan,nan,nan,495.9730033088417,577.8055555713945,nan,578.2193356783537,nan,nan,nan,nan
1,52,1,1,1.0,1.0,0.4045939962088596,0,nan,nan,nan,nan,nan,nan,nan,nan,nan,2,4,1,7,3,6,nan,nan,nan,nan,nan,nan,nan,nan,nan,nan,nan,nan,0.0,nan,nan,nan,nan,nan,nan,nan,nan,nan,nan,nan,nan,nan,nan,nan,nan,nan,nan,495.9730033088417,578.8307088252914,nan,579.2353028215002,nan,nan,nan,nan
1,53,1,1,1.0,1.0,0.5314519021194428,0,nan,nan,nan,nan,nan,nan,nan,nan,nan,7,3,6,8,1,5,nan,nan,nan,nan,nan,nan,nan,nan,nan,nan,nan,nan,0.0,nan,nan,nan,nan,nan,nan,nan,nan,nan,nan,nan,nan,nan,nan,nan,nan,nan,nan,495.9730033088417,579.8558250165952,nan,580.3872769187146,nan,nan,nan,nan
1,54,1,1,1.0,1.0,0.562312798196217,0,nan,nan,nan,nan,nan,nan,nan,nan,nan,8,5,0,2,7,6,nan,nan,nan,nan,nan,nan,nan,nan,nan,nan,nan,nan,0.0,nan,nan,nan,nan,nan,nan,nan,nan,nan,nan,nan,nan,nan,nan,nan,nan,nan,nan,495.9730033088417,580.8809548925201,nan,581.4432676907163,nan,nan,nan,nan
1,55,1,1,1.0,1.0,0.5051283249922562,0,nan,nan,nan,nan,nan,nan,nan,nan,nan,3,7,5,8,1,4,nan,nan,nan,nan,nan,nan,nan,nan,nan,nan,nan,nan,0.0,nan,nan,nan,nan,nan,nan,nan,nan,nan,nan,nan,nan,nan,nan,nan,nan,nan,nan,495.9730033088417,581.9060993084277,nan,582.4112276334199,nan,nan,nan,nan
1,56,1,1,1.0,1.0,0.4960191904392559,0,nan,nan,nan,nan,nan,nan,nan,nan,nan,6,8,1,0,2,7,nan,nan,nan,nan,nan,nan,nan,nan,nan,nan,nan,nan,0.0,nan,nan,nan,nan,nan,nan,nan,nan,nan,nan,nan,nan,nan,nan,nan,nan,nan,nan,495.9730033088417,582.9312032405287,nan,583.427222430968,nan,nan,nan,nan
1,57,1,1,1.0,1.0,0.5188323680777103,0,nan,nan,nan,nan,nan,nan,nan,nan,nan,1,3,5,8,7,4,nan,nan,nan,nan,nan,nan,nan,nan,nan,nan,nan,nan,0.0,nan,nan,nan,nan,nan,nan,nan,nan,nan,nan,nan,nan,nan,nan,nan,nan,nan,nan,495.9730033088417,583.9563607708842,nan,584.4751931389619,nan,nan,nan,nan
1,58,1,1,1.0,1.0,0.4696690992859658,0,nan,nan,nan,nan,nan,nan,nan,nan,nan,3,2,8,7,0,6,nan,nan,nan,nan,nan,nan,nan,nan,nan,nan,nan,nan,0.0,nan,nan,nan,nan,nan,nan,nan,nan,nan,nan,nan,nan,nan,nan,nan,nan,nan,nan,495.9730033088417,584.9815049016906,nan,585.4511740009766,nan,nan,nan,nan
1,59,1,1,1.0,1.0,0.5085349491855595,0,nan,nan,nan,nan,nan,nan,nan,nan,nan,8,7,1,2,4,3,nan,nan,nan,nan,nan,nan,nan,nan,nan,nan,nan,nan,0.0,nan,nan,nan,nan,nan,nan,nan,nan,nan,nan,nan,nan,nan,nan,nan,nan,nan,nan,495.9730033088417,586.006627935305,nan,586.5151628844906,nan,nan,nan,nan
1,60,1,1,1.0,1.0,0.5793681565846782,0,nan,nan,nan,nan,nan,nan,nan,nan,nan,6,3,5,4,7,1,nan,nan,nan,nan,nan,nan,nan,nan,nan,nan,nan,nan,0.0,nan,nan,nan,nan,nan,nan,nan,nan,nan,nan,nan,nan,nan,nan,nan,nan,nan,nan,495.9730033088417,587.0317626578908,nan,587.6111308144755,nan,nan,nan,nan
1,61,1,1,1.0,1.0,0.6022466214490123,0,nan,nan,nan,nan,nan,nan,nan,nan,nan,2,4,7,3,6,5,nan,nan,nan,nan,nan,nan,nan,nan,nan,nan,nan,nan,0.0,nan,nan,nan,nan,nan,nan,nan,nan,nan,nan,nan,nan,nan,nan,nan,nan,nan,nan,495.9730033088417,588.0568628837354,nan,588.6591095051845,nan,nan,nan,nan
1,62,0,0,0.0,1.0,0.5610583713278174,0,nan,nan,nan,nan,nan,nan,nan,nan,nan,4,7,8,5,1,0,nan,nan,nan,nan,nan,nan,nan,nan,nan,nan,nan,nan,0.0,nan,nan,nan,nan,nan,nan,nan,nan,nan,nan,nan,nan,nan,nan,nan,nan,nan,nan,495.9730033088417,589.0820295372105,nan,589.6430879085383,nan,nan,nan,nan
1,63,1,1,1.0,1.0,0.447887687740149,0,nan,nan,nan,nan,nan,nan,nan,nan,nan,3,5,6,0,4,2,nan,nan,nan,nan,nan,nan,nan,nan,nan,nan,nan,nan,0.0,nan,nan,nan,nan,nan,nan,nan,nan,nan,nan,nan,nan,nan,nan,nan,nan,nan,nan,495.9730033088417,590.1071842165838,nan,590.555071904324,nan,nan,nan,nan
1,64,1,1,1.0,1.0,0.4227598074940033,0,nan,nan,nan,nan,nan,nan,nan,nan,nan,6,8,2,3,7,5,nan,nan,nan,nan,nan,nan,nan,nan,nan,nan,nan,nan,0.0,nan,nan,nan,nan,nan,nan,nan,nan,nan,nan,nan,nan,nan,nan,nan,nan,nan,nan,495.9730033088417,591.1323021184362,nan,591.5550619259302,nan,nan,nan,nan
1,65,1,1,1.0,1.0,0.421534745633835,0,nan,nan,nan,nan,nan,nan,nan,nan,nan,0,4,7,5,3,1,nan,nan,nan,nan,nan,nan,nan,nan,nan,nan,nan,nan,0.0,nan,nan,nan,nan,nan,nan,nan,nan,nan,nan,nan,nan,nan,nan,nan,nan,nan,nan,495.9730033088417,592.1574964263127,nan,592.5790311719466,nan,nan,nan,nan
1,66,1,1,1.0,1.0,0.45246035867603496,0,nan,nan,nan,nan,nan,nan,nan,nan,nan,6,8,2,7,1,5,nan,nan,nan,nan,nan,nan,nan,nan,nan,nan,nan,nan,0.0,nan,nan,nan,nan,nan,nan,nan,nan,nan,nan,nan,nan,nan,nan,nan,nan,nan,nan,495.9730033088417,593.1825650063984,nan,593.6350253650744,nan,nan,nan,nan
1,67,1,1,1.0,1.0,0.4112823720497545,0,nan,nan,nan,nan,nan,nan,nan,nan,nan,5,0,3,1,4,7,nan,nan,nan,nan,nan,nan,nan,nan,nan,nan,nan,nan,0.0,nan,nan,nan,nan,nan,nan,nan,nan,nan,nan,nan,nan,nan,nan,nan,nan,nan,nan,495.9730033088417,594.2077077116992,nan,594.6189900837489,nan,nan,nan,nan
1,68,1,1,1.0,1.0,0.3701551326957997,0,nan,nan,nan,nan,nan,nan,nan,nan,nan,4,3,0,2,8,5,nan,nan,nan,nan,nan,nan,nan,nan,nan,nan,nan,nan,0.0,nan,nan,nan,nan,nan,nan,nan,nan,nan,nan,nan,nan,nan,nan,nan,nan,nan,nan,495.9730033088417,595.2328210520209,nan,595.6029761847167,nan,nan,nan,nan
1,69,1,1,1.0,1.0,0.39300508782616816,0,nan,nan,nan,nan,nan,nan,nan,nan,nan,0,6,4,8,2,7,nan,nan,nan,nan,nan,nan,nan,nan,nan,nan,nan,nan,0.0,nan,nan,nan,nan,nan,nan,nan,nan,nan,nan,nan,nan,nan,nan,nan,nan,nan,nan,495.9730033088417,596.2579569150112,nan,596.6509620028373,nan,nan,nan,nan
1,70,0,0,0.0,1.0,0.6596380750415847,0,nan,nan,nan,nan,nan,nan,nan,nan,nan,6,7,8,4,0,1,nan,nan,nan,nan,nan,nan,nan,nan,nan,nan,nan,nan,0.0,nan,nan,nan,nan,nan,nan,nan,nan,nan,nan,nan,nan,nan,nan,nan,nan,nan,nan,495.9730033088417,597.3032873396005,nan,597.9629254146421,nan,nan,nan,nan
1,71,1,1,1.0,1.0,0.3900078629667405,0,nan,nan,nan,nan,nan,nan,nan,nan,nan,4,1,3,8,6,2,nan,nan,nan,nan,nan,nan,nan,nan,nan,nan,nan,nan,0.0,nan,nan,nan,nan,nan,nan,nan,nan,nan,nan,nan,nan,nan,nan,nan,nan,nan,nan,495.9730033088417,598.3248931313865,nan,598.7149009943532,nan,nan,nan,nan
1,72,1,1,1.0,1.0,0.3728649797558319,0,nan,nan,nan,nan,nan,nan,nan,nan,nan,8,7,5,1,3,6,nan,nan,nan,nan,nan,nan,nan,nan,nan,nan,nan,nan,0.0,nan,nan,nan,nan,nan,nan,nan,nan,nan,nan,nan,nan,nan,nan,nan,nan,nan,nan,495.9730033088417,599.350026998698,nan,599.7228919784538,nan,nan,nan,nan
1,73,1,1,1.0,1.0,0.2997039552719798,0,nan,nan,nan,nan,nan,nan,nan,nan,nan,5,0,1,8,6,4,nan,nan,nan,nan,nan,nan,nan,nan,nan,nan,nan,nan,0.0,nan,nan,nan,nan,nan,nan,nan,nan,nan,nan,nan,nan,nan,nan,nan,nan,nan,nan,495.9730033088417,600.3751651424391,nan,600.674869097711,nan,nan,nan,nan
1,74,1,1,1.0,1.0,0.3145617859554477,0,nan,nan,nan,nan,nan,nan,nan,nan,nan,2,8,3,5,7,1,nan,nan,nan,nan,nan,nan,nan,nan,nan,nan,nan,nan,0.0,nan,nan,nan,nan,nan,nan,nan,nan,nan,nan,nan,nan,nan,nan,nan,nan,nan,nan,495.9730033088417,601.4002961587685,nan,601.7148579447239,nan,nan,nan,nan
1,75,1,1,1.0,1.0,0.3046771874942351,0,nan,nan,nan,nan,nan,nan,nan,nan,nan,5,7,0,4,6,2,nan,nan,nan,nan,nan,nan,nan,nan,nan,nan,nan,nan,0.0,nan,nan,nan,nan,nan,nan,nan,nan,nan,nan,nan,nan,nan,nan,nan,nan,nan,nan,495.9730033088417,602.4420990780636,nan,602.7467762655579,nan,nan,nan,nan
1,76,0,0,0.0,1.0,0.4875597919744905,0,nan,nan,nan,nan,nan,nan,nan,nan,nan,0,6,2,3,1,4,nan,nan,nan,nan,nan,nan,nan,nan,nan,nan,nan,nan,0.0,nan,nan,nan,nan,nan,nan,nan,nan,nan,nan,nan,nan,nan,nan,nan,nan,nan,nan,495.9730033088417,603.4672375069058,nan,603.9547972988803,nan,nan,nan,nan
1,77,1,1,1.0,1.0,0.3024035388662014,0,nan,nan,nan,nan,nan,nan,nan,nan,nan,8,4,7,6,5,3,nan,nan,nan,nan,nan,nan,nan,nan,nan,nan,nan,nan,0.0,nan,nan,nan,nan,nan,nan,nan,nan,nan,nan,nan,nan,nan,nan,nan,nan,nan,nan,495.9730033088417,604.4923884800228,nan,604.794792018889,nan,nan,nan,nan
1,78,1,1,1.0,1.0,0.333259873354109,1,nan,nan,nan,nan,nan,nan,nan,nan,nan,6,7,2,3,1,4,1.0,1.0,1.0,1.0,1.0,1.0,0.0,0.0,1.0,1.0,0.0,0.0,2.0,4.0,6.0,2.0,3.0,8.0,0.0,6.0,1.0,2.0,3.0,4.0,5.0,8.096785873320187,1.0168623477511574,1.944561746029649,3.000675109709846,5.009404495067429,6.200469953910215,495.9730033088417,605.5174995395646,606.3259305994143,605.8507594129187,615.4687693331507,616.4663559869514,607.3343643391563,615.4604370879242
1,79,1,1,1.0,1.0,0.3009247406735085,0,nan,nan,nan,nan,nan,nan,nan,nan,nan,2,0,1,5,6,3,nan,nan,nan,nan,nan,nan,nan,nan,nan,nan,nan,nan,0.0,nan,nan,nan,nan,nan,nan,nan,nan,nan,nan,nan,nan,nan,nan,nan,nan,nan,nan,495.9730033088417,616.6856146891078,nan,616.9865394297813,nan,nan,nan,nan
1,80,1,1,1.0,1.0,0.3156642560788896,0,nan,nan,nan,nan,nan,nan,nan,nan,nan,5,1,4,7,3,6,nan,nan,nan,nan,nan,nan,nan,nan,nan,nan,nan,nan,0.0,nan,nan,nan,nan,nan,nan,nan,nan,nan,nan,nan,nan,nan,nan,nan,nan,nan,nan,495.9730033088417,617.710842638422,nan,618.0265068945009,nan,nan,nan,nan
1,81,1,1,1.0,1.0,0.3785780387406703,0,1.0,0.0,0.0,0.44649516347089957,0.09575934502028019,0.3507358184506194,0.5422545084911797,0.09575934502028019,0.3317223451643561,3,5,7,4,0,1,nan,nan,nan,nan,nan,nan,nan,nan,nan,nan,nan,nan,0.0,nan,nan,nan,nan,nan,nan,nan,nan,nan,nan,nan,nan,nan,nan,nan,nan,nan,nan,495.9730033088417,618.7359160651686,nan,619.1144941039092,nan,nan,nan,nan
1,82,1,1,1.0,1.0,0.37742140018963255,1,0.0,0.0,1.0,0.4456566804495387,0.09546144986087189,0.3501952305886668,0.5411181303104106,0.09546144986087189,0.3572212316697308,0,4,2,5,8,3,1.0,1.0,1.0,1.0,1.0,1.0,1.0,0.0,1.0,0.0,0.0,0.0,2.0,0.0,1.0,2.0,4.0,6.0,7.0,1.0,3.0,2.0,4.0,5.0,6.0,1.1758797666116152,3.573520816920791,2.3992700946400873,4.71744890633272,5.7169231874577235,6.748787339864066,495.9730033088417,619.761036818003,620.5694413638266,620.1384582181927,628.3621054186078,629.3673004563316,621.5779070344288,628.3537734585116
1,83,1,1,1.0,1.0,0.2549411588406656,0,0.0,0.0,0.0,0.4448245428853935,0.09517270780552661,0.3496518350798669,0.5399972506909201,0.09517270780552661,0.33698019925698947,6,0,3,4,2,8,nan,nan,nan,nan,nan,nan,nan,nan,nan,nan,nan,nan,0.0,nan,nan,nan,nan,nan,nan,nan,nan,nan,nan,nan,nan,nan,nan,nan,nan,nan,nan,495.9730033088417,629.5872992703225,nan,629.8422404291632,nan,nan,nan,nan
1,84,0,0,0.0,1.0,0.4377847049909178,0,0.0,0.0,0.0,0.4425367912703968,0.09683948506546161,0.3456973062049352,0.5393762763358584,0.09683948506546161,0.35671575467373867,0,7,6,1,4,3,nan,nan,nan,nan,nan,nan,nan,nan,nan,nan,nan,nan,0.0,nan,nan,nan,nan,nan,nan,nan,nan,nan,nan,nan,nan,nan,nan,nan,nan,nan,nan,495.9730033088417,630.6124348482117,nan,631.0502195532026,nan,nan,nan,nan
1,85,1,1,1.0,1.0,0.3246473777689971,0,0.0,0.0,0.0,0.4424802188146887,0.0962627134775769,0.3462175053371118,0.5387429322922656,0.0962627134775769,0.33912441386686015,3,0,8,2,5,7,nan,nan,nan,nan,nan,nan,nan,nan,nan,nan,nan,nan,0.0,nan,nan,nan,nan,nan,nan,nan,nan,nan,nan,nan,nan,nan,nan,nan,nan,nan,nan,495.9730033088417,631.6375439120748,nan,631.9621912898438,nan,nan,nan,nan
1,86,1,1,1.0,1.0,0.33945303567452356,0,0.0,0.0,0.0,0.4410939500965041,0.09653454553602178,0.3445594045604823,0.5376284956325259,0.09653454553602178,0.3672950394781462,1,3,0,5,8,2,nan,nan,nan,nan,nan,nan,nan,nan,nan,nan,nan,nan,0.0,nan,nan,nan,nan,nan,nan,nan,nan,nan,nan,nan,nan,nan,nan,nan,nan,nan,nan,495.9730033088417,632.6627233948966,nan,633.0021764305711,nan,nan,nan,nan
1,87,1,1,1.0,1.0,0.5943508597556502,0,0.0,0.0,0.0,0.4399120789985741,0.09658824257872117,0.3433238364198529,0.5365003215772952,0.09658824257872117,0.41948375773305696,3,2,4,8,0,5,nan,nan,nan,nan,nan,nan,nan,nan,nan,nan,nan,nan,0.0,nan,nan,nan,nan,nan,nan,nan,nan,nan,nan,nan,nan,nan,nan,nan,nan,nan,nan,495.9730033088417,633.6878324587597,nan,634.2821833185153,nan,nan,nan,nan
1,88,1,1,1.0,1.0,0.4091706585022621,0,0.0,0.0,0.0,0.44168723739808075,0.09743232273544071,0.34425491466264,0.5391195601335215,0.09743232273544071,0.44765818464414525,2,4,6,1,5,8,nan,nan,nan,nan,nan,nan,nan,nan,nan,nan,nan,nan,0.0,nan,nan,nan,nan,nan,nan,nan,nan,nan,nan,nan,nan,nan,nan,nan,nan,nan,nan,495.9730033088417,634.7129751640605,nan,635.1221458225627,nan,nan,nan,nan
1,89,1,1,1.0,1.0,0.4480313766398467,0,0.0,0.0,0.0,0.44131773081971915,0.09693843620956316,0.344379294610156,0.5382561670292823,0.09693843620956316,0.48385096496591967,0,6,3,2,7,1,nan,nan,nan,nan,nan,nan,nan,nan,nan,nan,nan,nan,0.0,nan,nan,nan,nan,nan,nan,nan,nan,nan,nan,nan,nan,nan,nan,nan,nan,nan,nan,495.9730033088417,635.738109031372,nan,636.1861404080119,nan,nan,nan,nan
1,90,1,1,1.0,1.0,0.49486711344798096,0,0.0,0.0,0.0,0.4413931650424172,0.09639489724361504,0.34499826779880216,0.5377880622860323,0.09639489724361504,0.45068971619669657,3,2,0,1,4,8,nan,nan,nan,nan,nan,nan,nan,nan,nan,nan,nan,nan,0.0,nan,nan,nan,nan,nan,nan,nan,nan,nan,nan,nan,nan,nan,nan,nan,nan,nan,nan,495.9730033088417,636.7632374818204,nan,637.2581045952684,nan,nan,nan,nan
1,91,1,1,1.0,1.0,0.6137135082972236,0,0.0,0.0,0.0,0.44198732002470126,0.09602161645780286,0.3459657035668984,0.5380089364825041,0.09602161645780286,0.5188706661283504,0,8,4,2,5,1,nan,nan,nan,nan,nan,nan,nan,nan,nan,nan,nan,nan,0.0,nan,nan,nan,nan,nan,nan,nan,nan,nan,nan,nan,nan,nan,nan,nan,nan,nan,nan,495.9730033088417,637.7883796169481,nan,638.4020931252453,nan,nan,nan,nan
1,92,1,1,1.0,1.0,0.51657354447525,0,0.0,1.0,0.0,0.44387442099472896,0.09715623497648748,0.34671818601824145,0.5410306559712165,0.09715623497648748,0.5417180554068182,1,2,7,4,8,3,nan,nan,nan,nan,nan,nan,nan,nan,nan,nan,nan,nan,0.0,nan,nan,nan,nan,nan,nan,nan,nan,nan,nan,nan,nan,nan,nan,nan,nan,nan,nan,495.9730033088417,638.8135055015155,nan,639.3300790459907,nan,nan,nan,nan
1,93,1,1,1.0,1.0,0.5154246035090182,1,0.0,0.0,1.0,0.44466462885864766,0.09692035662825055,0.3477442722303971,0.5415849854868982,0.09692035662825055,0.5485705520938305,4,3,2,7,6,0,1.0,1.0,1.0,1.0,1.0,1.0,0.0,1.0,1.0,1.0,1.0,0.0,4.0,1.0,3.0,2.0,7.0,6.0,2.0,5.0,6.0,1.0,2.0,3.0,4.0,4.9590974171005655,5.886777998966863,1.1839038219768554,2.0240601919649635,3.136447999160737,4.142902025283547,495.9730033088417,639.8386359476717,640.6470419189718,640.3540605511807,647.581274030119,648.5861209643772,641.6555189934443,647.5729383637372
1,94,1,1,nan,nan,nan,0,0.0,0.0,0.0,0.44542548880112476,0.09667372485793554,0.3487517639431892,0.5420992136590603,0.09667372485793554,0.5159990739921341,0,8,3,5,4,7,nan,nan,nan,nan,nan,nan,nan,nan,nan,nan,nan,nan,0.0,nan,nan,nan,nan,nan,nan,nan,nan,nan,nan,nan,nan,nan,nan,nan,nan,nan,nan,495.9730033088417,648.8064701626136,nan,nan,nan,nan,nan,nan
1,95,1,1,1.0,1.0,0.570214261795627,0,0.0,0.0,0.0,0.44542548880112476,0.09667372485793554,0.3487517639431892,0.5420992136590603,0.09667372485793554,0.5428194326523226,3,5,8,0,7,1,nan,nan,nan,nan,nan,nan,nan,nan,nan,nan,nan,nan,0.0,nan,nan,nan,nan,nan,nan,nan,nan,nan,nan,nan,nan,nan,nan,nan,nan,nan,nan,495.9730033088417,649.8315971875854,nan,650.4018114493811,nan,nan,nan,nan
1,96,1,1,1.0,1.0,0.39311256940709427,0,0.0,0.0,0.0,0.44675302893936414,0.0970066251305148,0.34974640380884936,0.5437596540698789,0.0970066251305148,0.4816634156013606,5,3,1,4,2,7,nan,nan,nan,nan,nan,nan,nan,nan,nan,nan,nan,nan,0.0,nan,nan,nan,nan,nan,nan,nan,nan,nan,nan,nan,nan,nan,nan,nan,nan,nan,nan,495.9730033088417,650.8567148043658,nan,651.2498273737729,nan,nan,nan,nan
1,97,1,1,1.0,1.0,0.343877741281176,0,0.0,0.0,0.0,0.446188392523235,0.0966498744273398,0.3495385180958952,0.5428382669505748,0.0966498744273398,0.4357348574946324,7,0,5,6,8,4,nan,nan,nan,nan,nan,nan,nan,nan,nan,nan,nan,nan,0.0,nan,nan,nan,nan,nan,nan,nan,nan,nan,nan,nan,nan,nan,nan,nan,nan,nan,nan,495.9730033088417,651.8818957126641,nan,652.2257734539453,nan,nan,nan,nan
1,98,1,1,1.0,1.0,0.3347631898941472,0,0.0,0.0,0.0,0.44512265657279687,0.0967046763328943,0.34841798023990256,0.5418273329056912,0.0967046763328943,0.3572511668608058,6,3,8,4,2,7,nan,nan,nan,nan,nan,nan,nan,nan,nan,nan,nan,nan,0.0,nan,nan,nan,nan,nan,nan,nan,nan,nan,nan,nan,nan,nan,nan,nan,nan,nan,nan,495.9730033088417,652.9069976490864,nan,653.2417608389806,nan,nan,nan,nan
1,99,1,1,1.0,1.0,0.3496164589887485,0,1.0,0.0,0.0,0.44398493011219226,0.09684858613716923,0.347136343975023,0.5408335162493615,0.09684858613716923,0.3427524633880239,7,0,1,6,8,2,nan,nan,nan,nan,nan,nan,nan,nan,nan,nan,nan,nan,0.0,nan,nan,nan,nan,nan,nan,nan,nan,nan,nan,nan,nan,nan,nan,nan,nan,nan,nan,495.9730033088417,653.9321397842141,nan,654.2817562432028,nan,nan,nan,nan
1,100,1,1,1.0,1.0,0.3404736829979811,1,0.0,0.0,1.0,0.44302198652929997,0.09681881113577742,0.3462031753935225,0.5398407976650774,0.09681881113577742,0.3416177772936256,4,5,8,2,1,3,1.0,1.0,1.0,1.0,1.0,1.0,1.0,1.0,0.0,1.0,0.0,0.0,3.0,4.0,5.0,1.0,2.0,3.0,6.0,2.0,3.0,4.0,1.0,5.0,6.0,2.119482446316397,3.1289539391582366,4.063991734496085,1.1533234613889363,5.199673963070381,6.103144106862601,495.9730033088417,654.9572682346625,655.7656953031546,655.2977419176605,662.9332428245398,663.9362454662623,656.7908268896572,662.9249342423864
1,101,1,1,1.0,1.0,0.4910493793722708,0,0.0,0.0,0.0,0.4419861450794887,0.0968728410183033,0.3451133040611854,0.538858986097792,0.0968728410183033,0.39371317378633347,0,4,6,7,2,8,nan,nan,nan,nan,nan,nan,nan,nan,nan,nan,nan,nan,0.0,nan,nan,nan,nan,nan,nan,nan,nan,nan,nan,nan,nan,nan,nan,nan,nan,nan,nan,495.9730033088417,664.1584711729956,nan,664.6495205523679,nan,nan,nan,nan
1,102,1,1,1.0,1.0,0.44189722937881015,0,0.0,0.0,0.0,0.4424767774224165,0.096510803245982,0.3459659741764345,0.5389875806683985,0.096510803245982,0.42447343058302067,1,0,4,8,6,5,nan,nan,nan,nan,nan,nan,nan,nan,nan,nan,nan,nan,0.0,nan,nan,nan,nan,nan,nan,nan,nan,nan,nan,nan,nan,nan,nan,nan,nan,nan,nan,495.9730033088417,665.1836093167367,nan,665.6255065461155,nan,nan,nan,nan
1,103,1,1,1.0,1.0,0.3367263678810559,0,0.0,0.0,0.0,0.4424710393229748,0.09603185562995041,0.3464391836930244,0.5385028949529252,0.09603185562995041,0.4232243255440456,3,2,6,5,4,0,nan,nan,nan,nan,nan,nan,nan,nan,nan,nan,nan,nan,0.0,nan,nan,nan,nan,nan,nan,nan,nan,nan,nan,nan,nan,nan,nan,nan,nan,nan,nan,495.9730033088417,666.2087437542505,nan,666.5454701221315,nan,nan,nan,nan
1,104,1,1,1.0,1.0,0.3515995937923435,0,0.0,0.0,0.0,0.441434326857858,0.09612625253975003,0.34530807431810795,0.537560579397608,0.09612625253975003,0.37674106368406984,1,5,7,8,0,2,nan,nan,nan,nan,nan,nan,nan,nan,nan,nan,nan,nan,0.0,nan,nan,nan,nan,nan,nan,nan,nan,nan,nan,nan,nan,nan,nan,nan,nan,nan,nan,495.9730033088417,667.233867072966,nan,667.5854666667583,nan,nan,nan,nan
1,105,1,1,1.0,1.0,0.36643832296249457,0,0.0,0.0,0.0,0.44056214498343554,0.09606319130935213,0.3444989536740834,0.5366253362927876,0.09606319130935213,0.35158809487863135,7,8,6,3,5,4,nan,nan,nan,nan,nan,nan,nan,nan,nan,nan,nan,nan,0.0,nan,nan,nan,nan,nan,nan,nan,nan,nan,nan,nan,nan,nan,nan,nan,nan,nan,nan,495.9730033088417,668.2589949532121,nan,668.6254332761746,nan,nan,nan,nan
1,106,1,1,1.0,1.0,0.37329975271131843,0,0.0,0.0,0.0,0.43984941592554183,0.09587349404175226,0.34397592188378956,0.5357229099672941,0.09587349404175226,0.3637792231553855,5,4,0,7,2,1,nan,nan,nan,nan,nan,nan,nan,nan,nan,nan,nan,nan,0.0,nan,nan,nan,nan,nan,nan,nan,nan,nan,nan,nan,nan,nan,nan,nan,nan,nan,nan,495.9730033088417,669.2841484922101,nan,669.6574482449214,nan,nan,nan,nan
1,107,1,1,1.0,1.0,0.38014493192895316,0,0.0,0.0,0.0,0.4392156096092159,0.09563453607570048,0.3435810735335154,0.5348501456849164,0.09563453607570048,0.3732943358675887,7,0,8,5,4,2,nan,nan,nan,nan,nan,nan,nan,nan,nan,nan,nan,nan,0.0,nan,nan,nan,nan,nan,nan,nan,nan,nan,nan,nan,nan,nan,nan,nan,nan,nan,nan,495.9730033088417,670.3092712407233,nan,670.6894161726523,nan,nan,nan,nan
1,108,1,1,1.0,1.0,0.42701887170551345,0,0.0,0.0,0.0,0.4386583390650625,0.09535349812554143,0.34330484093952107,0.534011837190604,0.09535349812554143,0.39348785211526166,2,1,0,6,7,3,nan,nan,nan,nan,nan,nan,nan,nan,nan,nan,nan,nan,0.0,nan,nan,nan,nan,nan,nan,nan,nan,nan,nan,nan,nan,nan,nan,nan,nan,nan,nan,495.9730033088417,671.334379164211,nan,671.7613980359165,nan,nan,nan,nan
1,109,1,1,1.0,1.0,0.3698520745674614,0,0.0,0.0,0.0,0.4385495589962817,0.09491348294384042,0.3436360760524413,0.5334630419401221,0.09491348294384042,0.39233862606730935,3,7,5,1,0,2,nan,nan,nan,nan,nan,nan,nan,nan,nan,nan,nan,nan,0.0,nan,nan,nan,nan,nan,nan,nan,nan,nan,nan,nan,nan,nan,nan,nan,nan,nan,nan,495.9730033088417,672.3595201589342,nan,672.7293722335016,nan,nan,nan,nan
1,110,1,1,1.0,1.0,0.3926792219572235,0,0.0,0.0,0.0,0.4379134711774963,0.09470189856414574,0.34321157261335056,0.532615369741642,0.09470189856414574,0.39651672274339944,8,4,1,5,7,3,nan,nan,nan,nan,nan,nan,nan,nan,nan,nan,nan,nan,0.0,nan,nan,nan,nan,nan,nan,nan,nan,nan,nan,nan,nan,nan,nan,nan,nan,nan,nan,495.9730033088417,673.3846756936109,nan,673.7773549155681,nan,nan,nan,nan
1,111,1,1,1.0,1.0,0.351525183476042,0,0.0,0.0,0.0,0.4374984780653837,0.09436508846059953,0.3431333896047842,0.5318635665259832,0.09436508846059953,0.3713521600002423,4,7,6,8,3,2,nan,nan,nan,nan,nan,nan,nan,nan,nan,nan,nan,nan,0.0,nan,nan,nan,nan,nan,nan,nan,nan,nan,nan,nan,nan,nan,nan,nan,nan,nan,nan,495.9730033088417,674.4098087056191,nan,674.7613338890951,nan,nan,nan,nan
1,112,1,1,1.0,1.0,0.43838882553973235,0,0.0,0.0,0.0,0.43671690266002605,0.09428892415767255,0.3424279785023535,0.5310058268176986,0.09428892415767255,0.39419774365766597,7,2,4,6,0,8,nan,nan,nan,nan,nan,nan,nan,nan,nan,nan,nan,nan,0.0,nan,nan,nan,nan,nan,nan,nan,nan,nan,nan,nan,nan,nan,nan,nan,nan,nan,nan,495.9730033088417,675.4349303137569,nan,675.8733191392967,nan,nan,nan,nan
1,113,1,1,1.0,1.0,0.4531374640937429,0,0.0,0.0,0.0,0.4367319650283117,0.09386337129242998,0.3428685937358817,0.5305953363207416,0.09386337129242998,0.41435049103650573,0,4,2,7,8,5,nan,nan,nan,nan,nan,nan,nan,nan,nan,nan,nan,nan,0.0,nan,nan,nan,nan,nan,nan,nan,nan,nan,nan,nan,nan,nan,nan,nan,nan,nan,nan,495.9730033088417,676.4601608289231,nan,676.9132982930169,nan,nan,nan,nan
1,114,1,1,1.0,1.0,0.40406884750700556,0,0.0,0.0,0.0,0.43687844269853876,0.09345614143106624,0.34342230126747253,0.530334584129605,0.09345614143106624,0.4318650457134936,5,3,4,1,2,7,nan,nan,nan,nan,nan,nan,nan,nan,nan,nan,nan,nan,0.0,nan,nan,nan,nan,nan,nan,nan,nan,nan,nan,nan,nan,nan,nan,nan,nan,nan,nan,495.9730033088417,677.4852097373223,nan,677.8892785848293,nan,nan,nan,nan
1,115,1,1,1.0,1.0,0.5469229764712509,0,0.0,0.0,0.0,0.4365880922986137,0.09309242646828497,0.3434956658303287,0.5296805187668987,0.09309242646828497,0.4680430960239998,6,7,5,0,4,1,nan,nan,nan,nan,nan,nan,nan,nan,nan,nan,nan,nan,0.0,nan,nan,nan,nan,nan,nan,nan,nan,nan,nan,nan,nan,nan,nan,nan,nan,nan,nan,495.9730033088417,678.5103216521675,nan,679.0572446286387,nan,nan,nan,nan
1,116,1,1,1.0,1.0,0.4577526144857984,0,0.0,0.0,0.0,0.43755594215977717,0.09325251437714299,0.3443034277826342,0.5308084565369202,0.09325251437714299,0.46958147948801826,2,5,7,4,6,8,nan,nan,nan,nan,nan,nan,nan,nan,nan,nan,nan,nan,0.0,nan,nan,nan,nan,nan,nan,nan,nan,nan,nan,nan,nan,nan,nan,nan,nan,nan,nan,495.9730033088417,679.5354717699811,nan,679.9932243844669,nan,nan,nan,nan
1,117,1,1,1.0,1.0,0.512612406630069,0,0.0,0.0,0.0,0.4377315653973947,0.0928651168870495,0.3448664485103452,0.5305966822844442,0.0928651168870495,0.5057626658623727,8,2,3,5,7,1,nan,nan,nan,nan,nan,nan,nan,nan,nan,nan,nan,nan,0.0,nan,nan,nan,nan,nan,nan,nan,nan,nan,nan,nan,nan,nan,nan,nan,nan,nan,nan,495.9730033088417,680.5606033565127,nan,681.0732157631428,nan,nan,nan,nan
1,118,1,1,1.0,1.0,0.45542850365745835,0,0.0,0.0,0.0,0.43837708989077984,0.09272273953082909,0.34565435035995073,0.5310998294216089,0.09272273953082909,0.4752645082577753,2,6,5,4,0,8,nan,nan,nan,nan,nan,nan,nan,nan,nan,nan,nan,nan,0.0,nan,nan,nan,nan,nan,nan,nan,nan,nan,nan,nan,nan,nan,nan,nan,nan,nan,nan,495.9730033088417,681.5857557551062,nan,682.0411842587637,nan,nan,nan,nan
1,119,1,1,1.0,1.0,0.4702963127347175,0,0.0,0.0,0.0,0.43852282846998225,0.09233898025361445,0.34618384821636783,0.5308618087235967,0.09233898025361445,0.47944574100741494,1,5,4,7,2,0,nan,nan,nan,nan,nan,nan,nan,nan,nan,nan,nan,nan,0.0,nan,nan,nan,nan,nan,nan,nan,nan,nan,nan,nan,nan,nan,nan,nan,nan,nan,nan,495.9730033088417,682.6108710911067,nan,683.0811674038414,nan,nan,nan,nan
1,120,1,1,1.0,1.0,0.445141063129995,0,0.0,0.0,0.0,0.4387920952857851,0.09199299945030094,0.3467990958354842,0.530785094736086,0.09199299945030094,0.456955293174057,5,7,1,6,4,2,nan,nan,nan,nan,nan,nan,nan,nan,nan,nan,nan,nan,0.0,nan,nan,nan,nan,nan,nan,nan,nan,nan,nan,nan,nan,nan,nan,nan,nan,nan,nan,495.9730033088417,683.636009519978,nan,684.081150583108,nan,nan,nan,nan
1,121,1,1,1.0,1.0,0.5639766243111808,0,0.0,0.0,0.0,0.43884544795674485,0.09160749210242176,0.3472379558543231,0.5304529400591667,0.09160749210242176,0.4931380000586311,7,0,2,4,3,8,nan,nan,nan,nan,nan,nan,nan,nan,nan,nan,nan,nan,0.0,nan,nan,nan,nan,nan,nan,nan,nan,nan,nan,nan,nan,nan,nan,nan,nan,nan,nan,495.9730033088417,684.6611405363074,nan,685.2251171606185,nan,nan,nan,nan
1,122,1,1,1.0,1.0,0.6188364164554514,0,0.0,1.0,0.0,0.43988820775969845,0.09193146496354332,0.3479567427961551,0.5318196727232418,0.09193146496354332,0.5426513679655424,6,4,1,2,5,7,nan,nan,nan,nan,nan,nan,nan,nan,nan,nan,nan,nan,0.0,nan,nan,nan,nan,nan,nan,nan,nan,nan,nan,nan,nan,nan,nan,nan,nan,nan,nan,495.9730033088417,685.6862758290954,nan,686.3051122455508,nan,nan,nan,nan
1,123,1,1,1.0,1.0,0.657697134593036,1,0.0,0.0,1.0,0.44136711857536587,0.09297316430536844,0.3483939542699974,0.5343402828807343,0.09297316430536844,0.6135033917865561,3,1,2,7,8,0,1.0,1.0,1.0,1.0,1.0,1.0,0.0,0.0,1.0,1.0,1.0,0.0,3.0,1.0,5.0,2.0,7.0,8.0,6.0,2.0,4.0,3.0,1.0,5.0,6.0,2.085033889481565,5.461615678970702,3.1182824729767162,1.0129958620818797,6.884375771536725,7.796702168852789,495.9730033088417,686.7113777655177,687.5198062594864,687.3690749001107,696.3709707952512,697.3819575787056,688.5366264128825,696.3626331331907
1,124,0,0,0.0,1.0,0.5403338143660221,0,0.0,0.0,0.0,0.4431403154279697,0.0946235077679508,0.3485168076600189,0.5377638231959205,0.0946235077679508,0.6056224551381698,4,8,0,3,6,2,nan,nan,nan,nan,nan,nan,nan,nan,nan,nan,nan,nan,0.0,nan,nan,nan,nan,nan,nan,nan,nan,nan,nan,nan,nan,nan,nan,nan,nan,nan,nan,495.9730033088417,697.6044917604304,nan,698.1448255747964,nan,nan,nan,nan
1,125,1,1,1.0,1.0,0.3955319026426878,0,0.0,0.0,0.0,0.44393050647624654,0.09464138466044969,0.34928912181579685,0.5385718911366962,0.09464138466044969,0.5311876172005819,3,2,4,5,0,7,nan,nan,nan,nan,nan,nan,nan,nan,nan,nan,nan,nan,0.0,nan,nan,nan,nan,nan,nan,nan,nan,nan,nan,nan,nan,nan,nan,nan,nan,nan,nan,495.9730033088417,698.6213067820645,nan,699.0168386847072,nan,nan,nan,nan
1,126,1,1,1.0,1.0,0.3144092590373475,0,0.0,0.0,0.0,0.44354019515500814,0.09435833861706588,0.34918185653794226,0.5378985337720741,0.09435833861706588,0.4167583253486858,5,8,7,2,6,0,nan,nan,nan,nan,nan,nan,nan,nan,nan,nan,nan,nan,0.0,nan,nan,nan,nan,nan,nan,nan,nan,nan,nan,nan,nan,nan,nan,nan,nan,nan,nan,495.9730033088417,699.6464235435415,nan,699.9608328025788,nan,nan,nan,nan
1,127,1,1,1.0,1.0,0.31326060320134275,0,1.0,0.0,0.0,0.44250714766606686,0.09468156790118584,0.34782557976488104,0.5371887155672527,0.09468156790118584,0.34106725496045937,6,7,3,0,1,2,nan,nan,nan,nan,nan,nan,nan,nan,nan,nan,nan,nan,0.0,nan,nan,nan,nan,nan,nan,nan,nan,nan,nan,nan,nan,nan,nan,nan,nan,nan,nan,495.9730033088417,700.6715565555496,nan,700.984817158751,nan,nan,nan,nan
1,128,1,1,1.0,1.0,0.3600832255324349,1,0.0,0.0,1.0,0.44148138144015636,0.09499987489734045,0.3464815065428159,0.5364812563374968,0.09499987489734045,0.3292510292570417,5,6,1,3,7,0,1.0,1.0,1.0,1.0,1.0,1.0,0.0,0.0,0.0,1.0,1.0,1.0,3.0,3.0,8.0,2.0,3.0,7.0,0.0,6.0,5.0,4.0,1.0,2.0,3.0,10.442791863781167,7.659408857056405,5.47578728114604,1.2925155192497186,2.1876046662509907,3.181149784824811,495.9730033088417,701.696695554594,702.5051103639125,702.0567787801265,714.0065535249596,715.0096200284024,703.5219059989613,713.9982184287801
1,129,1,1,1.0,1.0,0.38467654888518155,0,0.0,0.0,0.0,0.44084045107867825,0.09489822539598415,0.3459422256826941,0.5357386764746624,0.09489822539598415,0.3526734592063197,3,5,7,0,1,8,nan,nan,nan,nan,nan,nan,nan,nan,nan,nan,nan,nan,0.0,nan,nan,nan,nan,nan,nan,nan,nan,nan,nan,nan,nan,nan,nan,nan,nan,nan,nan,495.9730033088417,715.2317844392965,nan,715.6164609881816,nan,nan,nan,nan
1,130,1,1,1.0,1.0,0.39955091520096175,0,0.0,0.0,0.0,0.44040167059279156,0.09465604818257195,0.3457456224102196,0.5350577187753636,0.09465604818257195,0.38143689653952606,5,8,0,6,4,2,nan,nan,nan,nan,nan,nan,nan,nan,nan,nan,nan,nan,0.0,nan,nan,nan,nan,nan,nan,nan,nan,nan,nan,nan,nan,nan,nan,nan,nan,nan,nan,495.9730033088417,716.2569069027086,nan,716.6564578179095,nan,nan,nan,nan
1,131,1,1,1.0,1.0,0.42236608848907053,0,0.0,0.0,0.0,0.44008499807037427,0.09435649382062236,0.3457285042497519,0.5344414918909967,0.09435649382062236,0.4021978508584046,1,5,6,2,0,4,nan,nan,nan,nan,nan,nan,nan,nan,nan,nan,nan,nan,0.0,nan,nan,nan,nan,nan,nan,nan,nan,nan,nan,nan,nan,nan,nan,nan,nan,nan,nan,495.9730033088417,717.2820555950748,nan,717.7044216835639,nan,nan,nan,nan
1,132,1,1,1.0,1.0,0.4132438394881319,0,0.0,0.0,0.0,0.4399486987659027,0.09400563105684051,0.3459430677090622,0.5339543298227432,0.09400563105684051,0.41172028105938807,0,7,4,1,6,5,nan,nan,nan,nan,nan,nan,nan,nan,nan,nan,nan,nan,0.0,nan,nan,nan,nan,nan,nan,nan,nan,nan,nan,nan,nan,nan,nan,nan,nan,nan,nan,495.9730033088417,718.3071883219818,nan,718.72043216147,nan,nan,nan,nan
1,133,1,1,1.0,1.0,0.5720557034073863,0,0.0,0.0,0.0,0.43974484487828613,0.0936749835347547,0.34606986134353146,0.5334198284130408,0.0936749835347547,0.46922187712819624,2,6,1,4,8,7,nan,nan,nan,nan,nan,nan,nan,nan,nan,nan,nan,nan,0.0,nan,nan,nan,nan,nan,nan,nan,nan,nan,nan,nan,nan,nan,nan,nan,nan,nan,nan,495.9730033088417,719.3323221892642,nan,719.9043778926716,nan,nan,nan,nan
1,134,1,1,1.0,1.0,0.4748638519376982,0,0.0,0.0,0.0,0.44074719986714295,0.09402203455503375,0.3467251653121092,0.5347692344221767,0.09402203455503375,0.48672113161107217,5,3,0,6,4,8,nan,nan,nan,nan,nan,nan,nan,nan,nan,nan,nan,nan,0.0,nan,nan,nan,nan,nan,nan,nan,nan,nan,nan,nan,nan,nan,nan,nan,nan,nan,nan,495.9730033088417,720.3575259053323,nan,720.83238975727,nan,nan,nan,nan
1,135,1,1,1.0,1.0,0.513790427474305,0,0.0,0.0,0.0,0.44100371604812455,0.09371425406067478,0.34728946198744975,0.5347179701087993,0.09371425406067478,0.5202366609397965,7,8,6,4,2,0,nan,nan,nan,nan,nan,nan,nan,nan,nan,nan,nan,nan,0.0,nan,nan,nan,nan,nan,nan,nan,nan,nan,nan,nan,nan,nan,nan,nan,nan,nan,nan,495.9730033088417,721.3825833666488,nan,721.8963737941231,nan,nan,nan,nan
1,136,1,1,1.0,1.0,0.5126092705468182,0,0.0,0.0,0.0,0.44154690046175277,0.0935738369495133,0.34797306351223944,0.5351207374112661,0.0935738369495133,0.5004211833196072,1,0,8,5,3,4,nan,nan,nan,nan,nan,nan,nan,nan,nan,nan,nan,nan,0.0,nan,nan,nan,nan,nan,nan,nan,nan,nan,nan,nan,nan,nan,nan,nan,nan,nan,nan,495.9730033088417,722.4077371907479,nan,722.9203464612947,nan,nan,nan,nan
1,137,1,1,1.0,1.0,0.5594678150955588,0,0.0,0.0,0.0,0.44207328838830884,0.09342554535676904,0.3486477430315398,0.5354988337450779,0.09342554535676904,0.5286225043722274,8,7,1,4,2,0,nan,nan,nan,nan,nan,nan,nan,nan,nan,nan,nan,nan,0.0,nan,nan,nan,nan,nan,nan,nan,nan,nan,nan,nan,nan,nan,nan,nan,nan,nan,nan,495.9730033088417,723.4328582286835,nan,723.992326043779,nan,nan,nan,nan
1,138,1,1,1.0,1.0,0.5183143468166236,0,0.0,0.0,0.0,0.4429364834376268,0.09362020550159421,0.3493162779360326,0.536556688939221,0.09362020550159421,0.5301304774863335,5,3,4,1,8,7,nan,nan,nan,nan,nan,nan,nan,nan,nan,nan,nan,nan,0.0,nan,nan,nan,nan,nan,nan,nan,nan,nan,nan,nan,nan,nan,nan,nan,nan,nan,nan,495.9730033088417,724.4579849685542,nan,724.9762993153709,nan,nan,nan,nan
1,139,1,1,1.0,1.0,0.45857369384611957,0,0.0,0.0,0.0,0.4434866868199553,0.09349832663954251,0.3499883601804128,0.5369850134594978,0.09349832663954251,0.5121186185861006,4,0,6,3,1,8,nan,nan,nan,nan,nan,nan,nan,nan,nan,nan,nan,nan,0.0,nan,nan,nan,nan,nan,nan,nan,nan,nan,nan,nan,nan,nan,nan,nan,nan,nan,nan,495.9730033088417,725.5016795065021,nan,725.9602532003482,nan,nan,nan,nan
1,140,1,1,1.0,1.0,0.4381413613737095,0,0.0,0.0,0.0,0.443596012957826,0.09316773672373711,0.3504282762340889,0.5367637496815632,0.09316773672373711,0.47167646734548424,3,8,5,4,7,2,nan,nan,nan,nan,nan,nan,nan,nan,nan,nan,nan,nan,0.0,nan,nan,nan,nan,nan,nan,nan,nan,nan,nan,nan,nan,nan,nan,nan,nan,nan,nan,495.9730033088417,726.6500867550203,nan,727.088228116394,nan,nan,nan,nan
1,141,1,1,1.0,1.0,0.5564506334485486,0,0.0,0.0,0.0,0.4435567708600986,0.09283314063844357,0.35072363022165504,0.5363899114985422,0.09283314063844357,0.48438856288945925,5,6,4,0,2,1,nan,nan,nan,nan,nan,nan,nan,nan,nan,nan,nan,nan,0.0,nan,nan,nan,nan,nan,nan,nan,nan,nan,nan,nan,nan,nan,nan,nan,nan,nan,nan,495.9730033088417,727.6917479810945,nan,728.2481986145431,nan,nan,nan,nan
1,142,1,1,nan,nan,nan,0,0.0,0.0,0.0,0.4443631555928732,0.09298828176687156,0.35137487382600163,0.5373514373597448,0.09298828176687156,0.49729599741112906,4,7,6,3,0,2,nan,nan,nan,nan,nan,nan,nan,nan,nan,nan,nan,nan,0.0,nan,nan,nan,nan,nan,nan,nan,nan,nan,nan,nan,nan,nan,nan,nan,nan,nan,nan,495.9730033088417,728.7168787123228,nan,nan,nan,nan,nan,nan
1,143,1,1,1.0,1.0,0.5381850382254925,0,0.0,0.0,0.0,0.4443631555928732,0.09298828176687156,0.35137487382600163,0.5373514373597448,0.09298828176687156,0.5473178358370205,6,1,3,5,7,0,nan,nan,nan,nan,nan,nan,nan,nan,nan,nan,nan,nan,0.0,nan,nan,nan,nan,nan,nan,nan,nan,nan,nan,nan,nan,nan,nan,nan,nan,nan,nan,495.9730033088417,729.742014290212,nan,730.2801993284374,nan,nan,nan,nan
1,144,1,1,1.0,1.0,0.3210614275885746,0,0.0,0.0,0.0,0.44502855901579963,0.09299183952196002,0.35203671949383963,0.5380203985377596,0.09299183952196002,0.4296232329070335,7,2,6,1,3,5,nan,nan,nan,nan,nan,nan,nan,nan,nan,nan,nan,nan,0.0,nan,nan,nan,nan,nan,nan,nan,nan,nan,nan,nan,nan,nan,nan,nan,nan,nan,nan,495.9730033088417,730.7671205030929,nan,731.0881819306815,nan,nan,nan,nan
1,145,1,1,1.0,1.0,0.33587991487002,0,0.0,0.0,0.0,0.44415555104800225,0.09324187152857216,0.3509136795194301,0.5373974225765744,0.09324187152857216,0.398375460228029,6,3,8,0,5,2,nan,nan,nan,nan,nan,nan,nan,nan,nan,nan,nan,nan,0.0,nan,nan,nan,nan,nan,nan,nan,nan,nan,nan,nan,nan,nan,nan,nan,nan,nan,nan,495.9730033088417,731.7922763228707,nan,732.1281562377408,nan,nan,nan,nan
1,146,1,1,1.0,1.0,0.39071034200605936,0,1.0,0.0,0.0,0.44339837876703736,0.09335233836380942,0.35004604040322795,0.5367507171308468,0.09335233836380942,0.34921722815488465,4,2,6,3,0,1,nan,nan,nan,nan,nan,nan,nan,nan,nan,nan,nan,nan,0.0,nan,nan,nan,nan,nan,nan,nan,nan,nan,nan,nan,nan,nan,nan,nan,nan,nan,nan,495.9730033088417,732.81740961998,nan,733.2081199619861,nan,nan,nan,nan
1,147,1,1,1.0,1.0,0.41356029716553167,1,0.0,0.0,1.0,0.4430324896228639,0.09313047147944979,0.3499020181434141,0.5361629611023137,0.09313047147944979,0.38005018468053703,7,4,3,0,1,8,1.0,1.0,1.0,1.0,1.0,1.0,1.0,0.0,0.0,1.0,0.0,0.0,2.0,7.0,5.0,1.0,0.0,6.0,6.0,1.0,5.0,6.0,2.0,3.0,4.0,1.1050402870459948,5.76126489561284,6.601059192413231,2.0509459803870413,3.025018117914442,4.033219503588043,495.9730033088417,733.8425457680423,734.6509617177362,734.2561060652079,742.3019396860327,743.307454317488,735.6594251075876,742.2936154235213
1,148,1,1,1.0,1.0,0.3447606867121067,0,0.0,0.0,0.0,0.44282923312315814,0.0928408211013976,0.34998841202176056,0.5356700542245557,0.0928408211013976,0.3830104419612326,3,5,6,1,2,0,nan,nan,nan,nan,nan,nan,nan,nan,nan,nan,nan,nan,0.0,nan,nan,nan,nan,nan,nan,nan,nan,nan,nan,nan,nan,nan,nan,nan,nan,nan,nan,495.9730033088417,743.5271529243328,nan,743.8719136110449,nan,nan,nan,nan
1,149,0,0,0.0,1.0,0.5355735496268608,0,0.0,0.0,0.0,0.4421575307504797,0.09287519929450826,0.34928233145597143,0.535032730044988,0.09287519929450826,0.43129817783483304,5,1,3,2,7,4,nan,nan,nan,nan,nan,nan,nan,nan,nan,nan,nan,nan,0.0,nan,nan,nan,nan,nan,nan,nan,nan,nan,nan,nan,nan,nan,nan,nan,nan,nan,nan,495.9730033088417,744.5523113099625,nan,745.0878848595894,nan,nan,nan,nan
1,150,1,1,1.0,1.0,0.33437175166909583,0,0.0,0.0,0.0,0.44279301387208775,0.09287671494475648,0.3499162989273313,0.5356697288168443,0.09287671494475648,0.4049019960026878,3,5,1,0,4,7,nan,nan,nan,nan,nan,nan,nan,nan,nan,nan,nan,nan,0.0,nan,nan,nan,nan,nan,nan,nan,nan,nan,nan,nan,nan,nan,nan,nan,nan,nan,nan,495.9730033088417,745.577471406199,nan,745.9118431578681,nan,nan,nan,nan
1,151,1,1,1.0,1.0,0.2693448299833108,0,0.0,0.0,0.0,0.4420604377761216,0.09298757972771003,0.34907285804841154,0.5350480175038316,0.09298757972771003,0.3797633770930891,2,4,6,1,0,8,nan,nan,nan,nan,nan,nan,nan,nan,nan,nan,nan,nan,0.0,nan,nan,nan,nan,nan,nan,nan,nan,nan,nan,nan,nan,nan,nan,nan,nan,nan,nan,495.9730033088417,746.6025151828362,nan,746.8718600128195,nan,nan,nan,nan
1,152,1,1,1.0,1.0,0.3321605392557103,0,1.0,0.0,0.0,0.4409012726231497,0.09374177701160265,0.3471594956115471,0.5346430496347524,0.09374177701160265,0.31195904030270566,7,2,3,0,6,1,nan,nan,nan,nan,nan,nan,nan,nan,nan,nan,nan,nan,0.0,nan,nan,nan,nan,nan,nan,nan,nan,nan,nan,nan,nan,nan,nan,nan,nan,nan,nan,495.9730033088417,747.6276701473398,nan,747.9598306865955,nan,nan,nan,nan
1,153,1,1,1.0,1.0,0.33100276030017994,1,0.0,0.0,1.0,0.4401763344007001,0.0938469075894706,0.34632942681122947,0.5340232419901707,0.0938469075894706,0.3108360431797337,3,6,1,8,5,7,1.0,1.0,1.0,1.0,1.0,1.0,0.0,0.0,0.0,1.0,1.0,1.0,3.0,6.0,3.0,4.0,8.0,5.0,7.0,4.0,5.0,6.0,1.0,2.0,3.0,3.6230652604135685,6.254657202225644,7.597881216061069,0.9600000342179555,1.6700800381368026,2.2790501023991965,495.9730033088417,748.652811142063,749.4612171133631,748.9838139023632,758.1122920146154,759.1099872903724,750.4780175950436,758.104031043651
1,154,1,1,1.0,1.0,0.38238978578010574,0,0.0,0.0,0.0,0.4394533305987099,0.09395385107793967,0.3454994795207702,0.5334071816766496,0.09395385107793967,0.34851769511199865,6,2,7,3,4,5,nan,nan,nan,nan,nan,nan,nan,nan,nan,nan,nan,nan,0.0,nan,nan,nan,nan,nan,nan,nan,nan,nan,nan,nan,nan,nan,nan,nan,nan,nan,nan,495.9730033088417,759.329183556285,nan,759.7115733420651,nan,nan,nan,nan
1,155,1,1,1.0,1.0,0.4132207466464024,0,0.0,0.0,0.0,0.4390779125406928,0.09375784428413425,0.34532006825655853,0.532835756824827,0.09375784428413425,0.37553776424222934,1,7,0,4,3,8,nan,nan,nan,nan,nan,nan,nan,nan,nan,nan,nan,nan,0.0,nan,nan,nan,nan,nan,nan,nan,nan,nan,nan,nan,nan,nan,nan,nan,nan,nan,nan,495.9730033088417,760.3543268317881,nan,760.7675475784345,nan,nan,nan,nan
1,156,0,0,0.0,1.0,0.5000584448862355,0,0.0,0.0,0.0,0.43890891145641636,0.09347416876376745,0.3454347426926489,0.5323830802201838,0.09347416876376745,0.43188965910424787,2,6,7,5,0,1,nan,nan,nan,nan,nan,nan,nan,nan,nan,nan,nan,nan,0.0,nan,nan,nan,nan,nan,nan,nan,nan,nan,nan,nan,nan,nan,nan,nan,nan,nan,nan,495.9730033088417,761.3794601288973,nan,761.8795185737836,nan,nan,nan,nan
1,157,1,1,1.0,1.0,0.4028426452714484,0,0.0,0.0,0.0,0.4393059863488178,0.09329955523495069,0.3460064311138671,0.5326055415837685,0.09329955523495069,0.43870727893469547,1,7,4,0,8,2,nan,nan,nan,nan,nan,nan,nan,nan,nan,nan,nan,nan,0.0,nan,nan,nan,nan,nan,nan,nan,nan,nan,nan,nan,nan,nan,nan,nan,nan,nan,nan,495.9730033088417,762.404649590113,nan,762.8074922353844,nan,nan,nan,nan
1,158,0,0,1.0,0.0,0.5297681191877928,0,0.0,0.0,0.0,0.4390707389870283,0.09304391181212321,0.34602682717490507,0.5321146507991515,0.09304391181212321,0.4775564031151589,2,0,7,1,5,3,nan,nan,nan,nan,nan,nan,nan,nan,nan,nan,nan,nan,0.0,nan,nan,nan,nan,nan,nan,nan,nan,nan,nan,nan,nan,nan,nan,nan,nan,nan,nan,495.9730033088417,763.4297287187946,nan,763.9594968379824,nan,nan,nan,nan
1,159,1,1,nan,nan,nan,0,0.0,0.0,0.0,0.43965213244985374,0.09302724167921682,0.3466248907706369,0.5326793741290705,0.09302724167921682,0.4663053822296206,8,1,2,5,4,7,nan,nan,nan,nan,nan,nan,nan,nan,nan,nan,nan,nan,0.0,nan,nan,nan,nan,nan,nan,nan,nan,nan,nan,nan,nan,nan,nan,nan,nan,nan,nan,495.9730033088417,764.4548614457017,nan,nan,nan,nan,nan,nan
1,160,1,1,1.0,1.0,0.7194388834759593,0,0.0,0.0,0.0,0.43965213244985374,0.09302724167921682,0.3466248907706369,0.5326793741290705,0.09302724167921682,0.624603501331876,0,6,3,8,2,4,nan,nan,nan,nan,nan,nan,nan,nan,nan,nan,nan,nan,0.0,nan,nan,nan,nan,nan,nan,nan,nan,nan,nan,nan,nan,nan,nan,nan,nan,nan,nan,495.9730033088417,765.4799867600959,nan,766.1994256435719,nan,nan,nan,nan
1,161,0,0,0.0,1.0,0.56631698567071,0,0.0,0.0,0.0,0.4414342136665805,0.0953644228441087,0.3460697908224718,0.5367986365106892,0.0953644228441087,0.6428779345733346,1,4,0,7,5,8,nan,nan,nan,nan,nan,nan,nan,nan,nan,nan,nan,nan,0.0,nan,nan,nan,nan,nan,nan,nan,nan,nan,nan,nan,nan,nan,nan,nan,nan,nan,nan,495.9730033088417,766.5051268995448,nan,767.0714438852156,nan,nan,nan,nan
1,162,1,1,1.0,1.0,0.3490819020953495,0,0.0,0.0,0.0,0.4422246109577459,0.09557665037821057,0.34664796057953534,0.5378012613359565,0.09557665037821057,0.5449459237473396,6,2,4,5,8,3,nan,nan,nan,nan,nan,nan,nan,nan,nan,nan,nan,nan,0.0,nan,nan,nan,nan,nan,nan,nan,nan,nan,nan,nan,nan,nan,nan,nan,nan,nan,nan,495.9730033088417,767.5303368877503,nan,767.8794187898457,nan,nan,nan,nan
1,163,1,1,1.0,1.0,0.3400084046588745,0,0.0,0.0,0.0,0.4416388077573534,0.09555974075079926,0.34607906700655416,0.5371985485081527,0.09555974075079926,0.418469097474978,2,8,7,0,1,5,nan,nan,nan,nan,nan,nan,nan,nan,nan,nan,nan,nan,0.0,nan,nan,nan,nan,nan,nan,nan,nan,nan,nan,nan,nan,nan,nan,nan,nan,nan,nan,495.9730033088417,768.5553906427813,nan,768.8953990474402,nan,nan,nan,nan
1,164,1,1,1.0,1.0,0.37085989251499996,0,0.0,0.0,0.0,0.44100361773798796,0.09559676931457602,0.34540684842341196,0.536600387052564,0.09559676931457602,0.3533167330897413,1,2,8,5,6,3,nan,nan,nan,nan,nan,nan,nan,nan,nan,nan,nan,nan,0.0,nan,nan,nan,nan,nan,nan,nan,nan,nan,nan,nan,nan,nan,nan,nan,nan,nan,nan,495.9730033088417,769.5805267908436,nan,769.9513866833586,nan,nan,nan,nan
1,165,1,1,1.0,1.0,0.4016971254895907,0,0.0,0.0,0.0,0.4405679424260439,0.09545862981008622,0.3451093126159577,0.5360265722361301,0.09545862981008622,0.37085514088782173,2,8,6,7,3,4,nan,nan,nan,nan,nan,nan,nan,nan,nan,nan,nan,nan,0.0,nan,nan,nan,nan,nan,nan,nan,nan,nan,nan,nan,nan,nan,nan,nan,nan,nan,nan,495.9730033088417,770.6056538158155,nan,771.007350941305,nan,nan,nan,nan
1,166,0,0,0.0,1.0,0.5925059970177244,0,0.0,0.0,0.0,0.44032799911162135,0.09521223740133775,0.3451157617102836,0.5355402365129591,0.09521223740133775,0.45502100500743836,1,5,0,8,2,6,nan,nan,nan,nan,nan,nan,nan,nan,nan,nan,nan,nan,0.0,nan,nan,nan,nan,nan,nan,nan,nan,nan,nan,nan,nan,nan,nan,nan,nan,nan,nan,495.9730033088417,771.6307891086035,nan,772.2232951056212,nan,nan,nan,nan
1,167,1,1,1.0,1.0,0.36735348438378423,0,0.0,0.0,0.0,0.4412616064607386,0.09566063588387913,0.34560097057685946,0.5369222423446177,0.09566063588387913,0.4538522022970331,3,0,8,1,4,5,nan,nan,nan,nan,nan,nan,nan,nan,nan,nan,nan,nan,0.0,nan,nan,nan,nan,nan,nan,nan,nan,nan,nan,nan,nan,nan,nan,nan,nan,nan,nan,495.9730033088417,772.6559463538579,nan,773.0232998382417,nan,nan,nan,nan
1,168,1,1,1.0,1.0,0.4062070750806015,0,0.0,0.0,0.0,0.44081094717978153,0.09554194380066065,0.34526900337912086,0.5363528909804421,0.09554194380066065,0.4553555188273701,1,3,7,0,5,4,nan,nan,nan,nan,nan,nan,nan,nan,nan,nan,nan,nan,0.0,nan,nan,nan,nan,nan,nan,nan,nan,nan,nan,nan,nan,nan,nan,nan,nan,nan,nan,495.9730033088417,773.6810742341331,nan,774.0872813092137,nan,nan,nan,nan
1,169,1,1,1.0,1.0,0.4930932398419827,0,0.0,0.0,0.0,0.4406012267428168,0.09528983878415812,0.3453113879586587,0.535891065526975,0.09528983878415812,0.4222179331021228,8,7,2,6,0,3,nan,nan,nan,nan,nan,nan,nan,nan,nan,nan,nan,nan,0.0,nan,nan,nan,nan,nan,nan,nan,nan,nan,nan,nan,nan,nan,nan,nan,nan,nan,nan,495.9730033088417,774.7061727494001,nan,775.1992659892421,nan,nan,nan,nan
1,170,1,1,1.0,1.0,0.4682635710341856,0,0.0,0.0,0.0,0.44091744368919733,0.0950891819678541,0.34582826172134323,0.5360066256570515,0.0950891819678541,0.4558546286522566,0,2,3,5,4,6,nan,nan,nan,nan,nan,nan,nan,nan,nan,nan,nan,nan,0.0,nan,nan,nan,nan,nan,nan,nan,nan,nan,nan,nan,nan,nan,nan,nan,nan,nan,nan,495.9730033088417,775.7229934729985,nan,776.1912570440327,nan,nan,nan,nan
1,171,1,1,1.0,1.0,0.5150936058780644,0,0.0,0.0,0.0,0.4410811929547362,0.09482752866891817,0.34625366428581805,0.5359087216236543,0.09482752866891817,0.4921501389180776,6,5,4,0,8,3,nan,nan,nan,nan,nan,nan,nan,nan,nan,nan,nan,nan,0.0,nan,nan,nan,nan,nan,nan,nan,nan,nan,nan,nan,nan,nan,nan,nan,nan,nan,nan,495.9730033088417,776.7481290508877,nan,777.2632226567657,nan,nan,nan,nan
1,172,0,0,0.0,1.0,0.561952435557032,0,0.0,0.0,0.0,0.44152174303166075,0.09471613867233288,0.3468056043593279,0.5362378817039937,0.09471613867233288,0.5151032041564273,2,6,0,5,3,8,nan,nan,nan,nan,nan,nan,nan,nan,nan,nan,nan,nan,0.0,nan,nan,nan,nan,nan,nan,nan,nan,nan,nan,nan,nan,nan,nan,nan,nan,nan,nan,495.9730033088417,777.7732632032712,nan,778.3352156388282,nan,nan,nan,nan
1,173,1,1,1.0,1.0,0.4087834967649542,0,0.0,0.0,0.0,0.4422343506797399,0.09488611720519588,0.347348233474544,0.5371204678849357,0.09488611720519588,0.4952765127333502,8,5,2,1,0,6,nan,nan,nan,nan,nan,nan,nan,nan,nan,nan,nan,nan,0.0,nan,nan,nan,nan,nan,nan,nan,nan,nan,nan,nan,nan,nan,nan,nan,nan,nan,nan,495.9730033088417,778.7983984960592,nan,779.2071819928242,nan,nan,nan,nan
1,174,0,0,0.0,1.0,0.6476434736396186,0,0.0,0.0,0.0,0.44203758095082935,0.09464120458127734,0.347396376369552,0.5366787855321067,0.09464120458127734,0.5394598019872016,4,0,7,6,1,2,nan,nan,nan,nan,nan,nan,nan,nan,nan,nan,nan,nan,0.0,nan,nan,nan,nan,nan,nan,nan,nan,nan,nan,nan,nan,nan,nan,nan,nan,nan,nan,495.9730033088417,779.8235186787206,nan,780.4711621523602,nan,nan,nan,nan
1,175,1,1,1.0,1.0,0.4304597075097263,0,0.0,0.0,0.0,0.44323995459228427,0.09565744685640326,0.347582507735881,0.5388974014486876,0.09565744685640326,0.49562889263809967,6,7,8,3,0,1,nan,nan,nan,nan,nan,nan,nan,nan,nan,nan,nan,nan,0.0,nan,nan,nan,nan,nan,nan,nan,nan,nan,nan,nan,nan,nan,nan,nan,nan,nan,nan,495.9730033088417,780.8486856172676,nan,781.2791453247773,nan,nan,nan,nan
1,176,1,1,1.0,1.0,0.42932901278254576,0,0.0,0.0,0.0,0.4431656508301764,0.09538391659921681,0.3477817342309596,0.5385495674293932,0.09538391659921681,0.5024773979772968,2,4,5,7,6,8,nan,nan,nan,nan,nan,nan,nan,nan,nan,nan,nan,nan,0.0,nan,nan,nan,nan,nan,nan,nan,nan,nan,nan,nan,nan,nan,nan,nan,nan,nan,nan,495.9730033088417,781.8737921152497,nan,782.3031211280322,nan,nan,nan,nan
1,177,1,1,1.0,1.0,0.39649410505080596,0,0.0,0.0,0.0,0.44308567026342704,0.09511362513607614,0.3479720451273509,0.5381992953995032,0.09511362513607614,0.418760941781026,0,8,1,6,5,3,nan,nan,nan,nan,nan,nan,nan,nan,nan,nan,nan,nan,0.0,nan,nan,nan,nan,nan,nan,nan,nan,nan,nan,nan,nan,nan,nan,nan,nan,nan,nan,495.9730033088417,782.890612838848,nan,783.2871069438988,nan,nan,nan,nan
1,178,0,0,0.0,1.0,0.5793593185953796,0,0.0,0.0,0.0,0.44281790264726256,0.09490528823866685,0.3479126144085957,0.5377231908859295,0.09490528823866685,0.46839414547624375,6,0,7,8,3,5,nan,nan,nan,nan,nan,nan,nan,nan,nan,nan,nan,nan,0.0,nan,nan,nan,nan,nan,nan,nan,nan,nan,nan,nan,nan,nan,nan,nan,nan,nan,nan,495.9730033088417,783.9157227579853,nan,784.4950820765807,nan,nan,nan,nan
1,179,1,1,1.0,1.0,0.41019273130223155,0,0.0,0.0,0.0,0.4435981393098232,0.09519175875661409,0.34840638055320916,0.5387898980664373,0.09519175875661409,0.4620153849828057,2,7,5,3,6,0,nan,nan,nan,nan,nan,nan,nan,nan,nan,nan,nan,nan,0.0,nan,nan,nan,nan,nan,nan,nan,nan,nan,nan,nan,nan,nan,nan,nan,nan,nan,nan,495.9730033088417,784.94085719547,nan,785.3510499267722,nan,nan,nan,nan
1,180,1,1,1.0,1.0,0.4810476060665678,0,0.0,0.0,0.0,0.44340833585523465,0.09495414546692692,0.3484541903883077,0.5383624813221616,0.09495414546692692,0.49019988532139297,6,3,4,0,5,2,nan,nan,nan,nan,nan,nan,nan,nan,nan,nan,nan,nan,0.0,nan,nan,nan,nan,nan,nan,nan,nan,nan,nan,nan,nan,nan,nan,nan,nan,nan,nan,495.9730033088417,785.9659947690379,nan,786.4470423751045,nan,nan,nan,nan
1,181,1,1,1.0,1.0,0.4638847660680767,0,0.0,0.0,0.0,0.4436209870993665,0.09472755179131988,0.3488934353080466,0.5383485388906863,0.09472755179131988,0.451708367812292,0,5,6,8,7,3,nan,nan,nan,nan,nan,nan,nan,nan,nan,nan,nan,nan,0.0,nan,nan,nan,nan,nan,nan,nan,nan,nan,nan,nan,nan,nan,nan,nan,nan,nan,nan,495.9730033088417,786.9911283512483,nan,787.4550131173164,nan,nan,nan,nan
1,182,1,1,1.0,1.0,0.5507218941347674,0,0.0,0.0,0.0,0.4437348285542469,0.09447322963612902,0.34926159891811787,0.5382080581903759,0.09447322963612902,0.49855142208980396,5,3,4,1,2,0,nan,nan,nan,nan,nan,nan,nan,nan,nan,nan,nan,nan,0.0,nan,nan,nan,nan,nan,nan,nan,nan,nan,nan,nan,nan,nan,nan,nan,nan,nan,nan,495.9730033088417,788.0162673502928,nan,788.5669892444275,nan,nan,nan,nan
1,183,1,1,1.0,1.0,0.525493374618236,0,0.0,0.0,0.0,0.44433252165804865,0.09454585083034957,0.3497866708276991,0.5388783724883982,0.09454585083034957,0.5133666782736933,8,1,6,4,3,5,nan,nan,nan,nan,nan,nan,nan,nan,nan,nan,nan,nan,0.0,nan,nan,nan,nan,nan,nan,nan,nan,nan,nan,nan,nan,nan,nan,nan,nan,nan,nan,495.9730033088417,789.041479334177,nan,789.5669727087952,nan,nan,nan,nan
1,184,1,1,1.0,1.0,0.556444931513397,0,0.0,1.0,0.0,0.4447834152856053,0.09447565221011625,0.35030776307548905,0.5392590674957215,0.09447565221011625,0.5442200667554667,2,7,8,1,6,3,nan,nan,nan,nan,nan,nan,nan,nan,nan,nan,nan,nan,0.0,nan,nan,nan,nan,nan,nan,nan,nan,nan,nan,nan,nan,nan,nan,nan,nan,nan,nan,495.9730033088417,790.0665117069439,nan,790.6229566384573,nan,nan,nan,nan
1,185,1,1,1.0,1.0,0.6516051816870458,1,0.0,0.0,1.0,0.44540032973990246,0.09457716903831816,0.3508231607015843,0.5399774987782207,0.09457716903831816,0.5778478292728929,6,4,0,8,5,2,1.0,1.0,1.0,1.0,1.0,1.0,1.0,0.0,0.0,1.0,0.0,1.0,3.0,6.0,2.0,1.0,8.0,6.0,2.0,3.0,5.0,6.0,1.0,4.0,2.0,2.998737020243425,5.591088494664291,6.270368898403831,1.0716699671174865,3.958888440974988,2.1184127622982487,495.9730033088417,791.0833272987802,791.8917421080987,791.7349324804673,799.2176824008056,800.215137054678,792.9085400239273,799.2093447387451
1,186,1,1,1.0,1.0,0.7002022478263825,0,0.0,0.0,0.0,0.4465333234319197,0.09554076903408958,0.3509925543978301,0.5420740924660092,0.09554076903408958,0.6360841203422751,8,5,6,4,7,0,nan,nan,nan,nan,nan,nan,nan,nan,nan,nan,nan,nan,0.0,nan,nan,nan,nan,nan,nan,nan,nan,nan,nan,nan,nan,nan,nan,nan,nan,nan,nan,495.9730033088417,800.4345414414129,nan,801.1347436892393,nan,nan,nan,nan
1,187,1,1,1.0,1.0,0.3873844002664555,0,0.0,0.0,0.0,0.4479194924176818,0.09709719402100077,0.35082229839668105,0.5450166864386826,0.09709719402100077,0.579730609926628,1,6,7,0,2,8,nan,nan,nan,nan,nan,nan,nan,nan,nan,nan,nan,nan,0.0,nan,nan,nan,nan,nan,nan,nan,nan,nan,nan,nan,nan,nan,nan,nan,nan,nan,nan,495.9730033088417,801.4513345106097,nan,801.8387189108762,nan,nan,nan,nan
1,188,0,0,0.0,1.0,0.5375492718885653,0,0.0,0.0,0.0,0.4475904973516425,0.09693520618654385,0.3506552911650987,0.5445257035381864,0.09693520618654385,0.5417119733271344,8,3,2,7,6,0,nan,nan,nan,nan,nan,nan,nan,nan,nan,nan,nan,nan,0.0,nan,nan,nan,nan,nan,nan,nan,nan,nan,nan,nan,nan,nan,nan,nan,nan,nan,nan,495.9730033088417,802.4931382851792,nan,803.0306875570677,nan,nan,nan,nan
1,189,1,1,1.0,1.0,0.32873966023907997,0,0.0,0.0,0.0,0.4480767609977881,0.09689762583054136,0.35117913516724675,0.5449743868283294,0.09689762583054136,0.4178911107980336,5,4,7,1,8,3,nan,nan,nan,nan,nan,nan,nan,nan,nan,nan,nan,nan,0.0,nan,nan,nan,nan,nan,nan,nan,nan,nan,nan,nan,nan,nan,nan,nan,nan,nan,nan,495.9730033088417,803.5099438986217,nan,803.8386835588608,nan,nan,nan,nan
1,190,1,1,1.0,1.0,0.3836034437408671,0,0.0,0.0,0.0,0.447435163681881,0.09703002271215998,0.35040514096972103,0.544465186394041,0.09703002271215998,0.41663079195617075,8,3,2,5,7,1,nan,nan,nan,nan,nan,nan,nan,nan,nan,nan,nan,nan,0.0,nan,nan,nan,nan,nan,nan,nan,nan,nan,nan,nan,nan,nan,nan,nan,nan,nan,nan,495.9730033088417,804.5350663620338,nan,804.9186698057747,nan,nan,nan,nan
1,191,1,1,1.0,1.0,0.36642321283579804,0,0.0,0.0,0.0,0.4470938175859398,0.09688214922969882,0.35021166835624096,0.5439759668156386,0.09688214922969882,0.35958877227191505,0,1,8,4,3,7,nan,nan,nan,nan,nan,nan,nan,nan,nan,nan,nan,nan,0.0,nan,nan,nan,nan,nan,nan,nan,nan,nan,nan,nan,nan,nan,nan,nan,nan,nan,nan,495.9730033088417,805.5602136288944,nan,805.9266368417302,nan,nan,nan,nan
1,192,1,1,1.0,1.0,0.34926807045121677,0,0.0,0.0,0.0,0.44666471862450285,0.09680214900461535,0.3498625696198875,0.5434668676291182,0.09680214900461535,0.36643157567596063,7,4,3,0,5,8,nan,nan,nan,nan,nan,nan,nan,nan,nan,nan,nan,nan,0.0,nan,nan,nan,nan,nan,nan,nan,nan,nan,nan,nan,nan,nan,nan,nan,nan,nan,nan,495.9730033088417,806.5853460707003,nan,806.9346141411515,nan,nan,nan,nan
1,193,1,1,1.0,1.0,0.36410394866834395,0,0.0,0.0,0.0,0.44614939244369184,0.09680393247598575,0.3493454599677061,0.5429533249196776,0.09680393247598575,0.35993174398511957,1,0,4,5,2,7,nan,nan,nan,nan,nan,nan,nan,nan,nan,nan,nan,nan,0.0,nan,nan,nan,nan,nan,nan,nan,nan,nan,nan,nan,nan,nan,nan,nan,nan,nan,nan,495.9730033088417,807.610501320276,nan,807.9746052689443,nan,nan,nan,nan
1,194,1,1,1.0,1.0,0.338964094320545,0,0.0,0.0,0.0,0.4457175743185584,0.09673118693539222,0.3489863873831662,0.5424487612539506,0.09673118693539222,0.35077870448003523,6,7,0,2,8,5,nan,nan,nan,nan,nan,nan,nan,nan,nan,nan,nan,nan,0.0,nan,nan,nan,nan,nan,nan,nan,nan,nan,nan,nan,nan,nan,nan,nan,nan,nan,nan,495.9730033088417,808.6356106692401,nan,808.9745747635607,nan,nan,nan,nan
1,195,1,1,1.0,1.0,0.32981219521025196,0,1.0,0.0,0.0,0.4451586555751133,0.09678474845498382,0.3483739071201295,0.5419434040300971,0.09678474845498382,0.344293412733047,2,4,5,8,7,6,nan,nan,nan,nan,nan,nan,nan,nan,nan,nan,nan,nan,0.0,nan,nan,nan,nan,nan,nan,nan,nan,nan,nan,nan,nan,nan,nan,nan,nan,nan,nan,495.9730033088417,809.660748242808,nan,809.9905604380183,nan,nan,nan,nan
1,196,1,1,1.0,1.0,0.37665363392443396,1,0.0,0.0,1.0,0.444557892760713,0.09688877399261289,0.34766911876810014,0.5414466667533259,0.09688877399261289,0.34847664115174365,6,8,7,3,0,1,1.0,1.0,1.0,1.0,1.0,1.0,0.0,0.0,1.0,1.0,0.0,0.0,2.0,1.0,0.0,7.0,3.0,6.0,3.0,5.0,6.0,2.0,1.0,3.0,4.0,6.060717395332176,7.179730857023969,2.1496134939952753,1.3079042005701922,3.2286509380792268,5.236268445063615,495.9730033088417,810.6858735572023,811.4942937833548,811.0625271911267,819.7203440664744,820.7287259185687,812.5027571731771,819.7120300674869
1,197,1,1,1.0,1.0,0.29277467241627164,0,0.0,0.0,0.0,0.4442060572227012,0.09676033439306787,0.3474457228296333,0.5409663916157691,0.09676033439306787,0.3330801671836525,8,0,2,6,3,4,nan,nan,nan,nan,nan,nan,nan,nan,nan,nan,nan,nan,0.0,nan,nan,nan,nan,nan,nan,nan,nan,nan,nan,nan,nan,nan,nan,nan,nan,nan,nan,495.9730033088417,820.9455387734924,nan,821.2383134459087,nan,nan,nan,nan
1,198,1,1,1.0,1.0,0.3239263674186077,0,0.0,0.0,0.0,0.4434254830742144,0.09711794792741957,0.34630753514679485,0.5405434310016339,0.09711794792741957,0.33111822458643775,1,8,3,2,5,7,nan,nan,nan,nan,nan,nan,nan,nan,nan,nan,nan,nan,0.0,nan,nan,nan,nan,nan,nan,nan,nan,nan,nan,nan,nan,nan,nan,nan,nan,nan,nan,495.9730033088417,821.9623435316316,nan,822.2862698990502,nan,nan,nan,nan
1,199,1,1,1.0,1.0,0.3388030145142693,0,1.0,0.0,0.0,0.44281266709649336,0.09724393316370984,0.34556873393278353,0.5400566002602032,0.09724393316370984,0.3185013514497162,2,6,0,3,4,5,nan,nan,nan,nan,nan,nan,nan,nan,nan,nan,nan,nan,0.0,nan,nan,nan,nan,nan,nan,nan,nan,nan,nan,nan,nan,nan,nan,nan,nan,nan,nan,495.9730033088417,822.9874808200984,nan,823.3262838346127,nan,nan,nan,nan
1,200,1,1,1.0,1.0,0.31362837832421064,1,0.0,0.0,1.0,0.44228200560372694,0.09727819901370623,0.3450038065900207,0.5395602046174331,0.09727819901370623,0.32545258675236255,8,2,6,1,3,7,1.0,1.0,1.0,1.0,1.0,1.0,1.0,0.0,0.0,1.0,0.0,1.0,3.0,8.0,3.0,0.0,1.0,6.0,7.0,3.0,5.0,6.0,1.0,4.0,2.0,3.2285893570806365,5.620728605310433,6.811964837252162,1.2059626328991726,4.501026634330628,2.236237369477749,495.9730033088417,824.0126263763814,824.8210255053418,824.3262547547056,832.6970436580596,833.7076740702614,825.8461625087366,832.6887000089628
1,201,1,1,1.0,1.0,0.5394597069534939,0,0.0,0.0,0.0,0.44162894150586135,0.09746078595519324,0.3441681555506681,0.5390897274610545,0.09746078595519324,0.3972970332639913,4,0,7,3,1,5,nan,nan,nan,nan,nan,nan,nan,nan,nan,nan,nan,nan,0.0,nan,nan,nan,nan,nan,nan,nan,nan,nan,nan,nan,nan,nan,nan,nan,nan,nan,nan,495.9730033088417,833.930565478513,nan,834.4700251854665,nan,nan,nan,nan
1,202,1,1,1.0,1.0,0.33869752861210145,0,0.0,0.0,0.0,0.4421230362808494,0.09746140563262956,0.34466163064821986,0.539584441913479,0.09746140563262956,0.397261871296602,7,6,2,0,5,8,nan,nan,nan,nan,nan,nan,nan,nan,nan,nan,nan,nan,0.0,nan,nan,nan,nan,nan,nan,nan,nan,nan,nan,nan,nan,nan,nan,nan,nan,nan,nan,495.9730033088417,834.9473619688652,nan,835.2860594974773,nan,nan,nan,nan
1,203,1,1,1.0,1.0,0.3778493308054749,0,0.0,0.0,0.0,0.4416033101116597,0.0974909027864027,0.344112407325257,0.5390942128980624,0.0974909027864027,0.4186688554570234,5,2,7,4,0,3,nan,nan,nan,nan,nan,nan,nan,nan,nan,nan,nan,nan,0.0,nan,nan,nan,nan,nan,nan,nan,nan,nan,nan,nan,nan,nan,nan,nan,nan,nan,nan,495.9730033088417,835.9641727140406,nan,836.3420220448461,nan,nan,nan,nan
1,204,1,1,1.0,1.0,0.3769917589961551,0,0.0,0.0,0.0,0.4412845402151288,0.09735078315358955,0.3439337570615393,0.5386353233687183,0.09735078315358955,0.36451287280457717,6,1,0,7,3,8,nan,nan,nan,nan,nan,nan,nan,nan,nan,nan,nan,nan,0.0,nan,nan,nan,nan,nan,nan,nan,nan,nan,nan,nan,nan,nan,nan,nan,nan,nan,nan,495.9730033088417,836.9809766169055,nan,837.3579683759017,nan,nan,nan,nan
1,205,1,1,1.0,1.0,0.4238685497548431,0,0.0,0.0,0.0,0.44096467563194985,0.09721361801028697,0.3437510576216629,0.5381782936422368,0.09721361801028697,0.39290321318549104,8,4,6,5,7,0,nan,nan,nan,nan,nan,nan,nan,nan,nan,nan,nan,nan,0.0,nan,nan,nan,nan,nan,nan,nan,nan,nan,nan,nan,nan,nan,nan,nan,nan,nan,nan,495.9730033088417,838.0060987952456,nan,838.4299673450005,nan,nan,nan,nan
1,206,1,1,1.0,1.0,0.4067228155618068,0,0.0,0.0,0.0,0.4408800413454295,0.09698011492253099,0.3438999264228985,0.5378601562679605,0.09698011492253099,0.40252770810426836,3,0,5,8,2,4,nan,nan,nan,nan,nan,nan,nan,nan,nan,nan,nan,nan,0.0,nan,nan,nan,nan,nan,nan,nan,nan,nan,nan,nan,nan,nan,nan,nan,nan,nan,nan,495.9730033088417,839.0312278158963,nan,839.4379506314581,nan,nan,nan,nan
1,207,1,1,1.0,1.0,0.43754636391531676,0,0.0,0.0,0.0,0.44071177914945103,0.09677050684929893,0.3439412723001521,0.5374822859987499,0.09677050684929893,0.42271257641065557,0,8,2,7,6,1,nan,nan,nan,nan,nan,nan,nan,nan,nan,nan,nan,nan,0.0,nan,nan,nan,nan,nan,nan,nan,nan,nan,nan,nan,nan,nan,nan,nan,nan,nan,nan,495.9730033088417,840.0563850611506,nan,840.493931425066,nan,nan,nan,nan
1,208,0,0,0.0,1.0,0.5487225087999832,0,0.0,0.0,0.0,0.4406962624081073,0.09653328601226177,0.3441629763958455,0.5372295484203691,0.09653328601226177,0.46433056275903556,2,5,4,6,7,8,nan,nan,nan,nan,nan,nan,nan,nan,nan,nan,nan,nan,0.0,nan,nan,nan,nan,nan,nan,nan,nan,nan,nan,nan,nan,nan,nan,nan,nan,nan,nan,495.9730033088417,841.0731484802382,nan,841.6218709890381,nan,nan,nan,nan
1,209,1,1,1.0,1.0,0.41957726955297403,0,0.0,0.0,0.0,0.44122321970757983,0.09659123092018732,0.34463198878739254,0.5378144506277671,0.09659123092018732,0.4686153807560913,3,0,1,8,4,6,nan,nan,nan,nan,nan,nan,nan,nan,nan,nan,nan,nan,0.0,nan,nan,nan,nan,nan,nan,nan,nan,nan,nan,nan,nan,nan,nan,nan,nan,nan,nan,495.9730033088417,842.0982966024021,nan,842.5178738719551,nan,nan,nan,nan
1,210,1,1,1.0,1.0,0.40243923300295137,0,0.0,0.0,0.0,0.44111814227964485,0.09636824549123406,0.3447498967884108,0.5374863877708789,0.09636824549123406,0.45691300378530286,7,1,5,0,3,2,nan,nan,nan,nan,nan,nan,nan,nan,nan,nan,nan,nan,0.0,nan,nan,nan,nan,nan,nan,nan,nan,nan,nan,nan,nan,nan,nan,nan,nan,nan,nan,495.9730033088417,843.1234213465941,nan,843.5258605795971,nan,nan,nan,nan
1,211,1,1,1.0,1.0,0.4332798871328123,0,0.0,0.0,0.0,0.4409312876454579,0.09617259070331281,0.3447586969421451,0.5371038783487707,0.09617259070331281,0.4184321298962459,3,5,8,6,2,4,nan,nan,nan,nan,nan,nan,nan,nan,nan,nan,nan,nan,0.0,nan,nan,nan,nan,nan,nan,nan,nan,nan,nan,nan,nan,nan,nan,nan,nan,nan,nan,495.9730033088417,844.1485580648587,nan,844.5818379519915,nan,nan,nan,nan
1,212,1,1,1.0,1.0,0.4640230381046422,0,0.0,0.0,0.0,0.4408945020660702,0.09594258783562504,0.3449519142304452,0.5368370899016952,0.09594258783562504,0.4332473860801353,8,6,5,4,7,3,nan,nan,nan,nan,nan,nan,nan,nan,nan,nan,nan,nan,0.0,nan,nan,nan,nan,nan,nan,nan,nan,nan,nan,nan,nan,nan,nan,nan,nan,nan,nan,495.9730033088417,845.1737928565126,nan,845.6378158946172,nan,nan,nan,nan
1,213,0,0,0.0,1.0,0.590960771223763,0,0.0,0.0,0.0,0.4410051649179294,0.09572609057520118,0.3452790743427282,0.5367312554931306,0.09572609057520118,0.4960878988204058,5,7,6,1,0,8,nan,nan,nan,nan,nan,nan,nan,nan,nan,nan,nan,nan,0.0,nan,nan,nan,nan,nan,nan,nan,nan,nan,nan,nan,nan,nan,nan,nan,nan,nan,nan,495.9730033088417,846.1988275100302,nan,846.789788281254,nan,nan,nan,nan
1,214,1,1,1.0,1.0,0.4941623536287807,0,0.0,0.0,0.0,0.44171923923367146,0.09605424676487596,0.3456649924687955,0.5377734859985475,0.09605424676487596,0.5163820543190619,6,2,7,8,4,0,nan,nan,nan,nan,nan,nan,nan,nan,nan,nan,nan,nan,0.0,nan,nan,nan,nan,nan,nan,nan,nan,nan,nan,nan,nan,nan,nan,nan,nan,nan,nan,495.9730033088417,847.2156111710065,nan,847.7097735246352,nan,nan,nan,nan
1,215,0,0,1.0,0.0,0.46900026171351783,0,0.0,0.0,0.0,0.4419677847995251,0.09589402457484904,0.34607376022467606,0.5378618093743741,0.09589402457484904,0.5180411288553538,3,6,0,4,1,7,nan,nan,nan,nan,nan,nan,nan,nan,nan,nan,nan,nan,0.0,nan,nan,nan,nan,nan,nan,nan,nan,nan,nan,nan,nan,nan,nan,nan,nan,nan,nan,495.9730033088417,848.2407607186469,nan,848.7097609803604,nan,nan,nan,nan
1,216,1,1,1.0,1.0,0.6678294823504984,0,0.0,0.0,0.0,0.44209529648308166,0.09568552070835595,0.3464097757747257,0.5377808171914376,0.09568552070835595,0.5436640325642657,4,8,6,1,2,5,nan,nan,nan,nan,nan,nan,nan,nan,nan,nan,nan,nan,0.0,nan,nan,nan,nan,nan,nan,nan,nan,nan,nan,nan,nan,nan,nan,nan,nan,nan,nan,495.9730033088417,849.2658977220126,nan,849.9337272043631,nan,nan,nan,nan
1,217,1,1,1.0,1.0,0.6510250092833303,0,0.0,0.0,0.0,0.4431550813932573,0.09669974569468884,0.34645533569856846,0.5398548270879462,0.09669974569468884,0.5959515844491156,6,1,2,5,3,0,nan,nan,nan,nan,nan,nan,nan,nan,nan,nan,nan,nan,0.0,nan,nan,nan,nan,nan,nan,nan,nan,nan,nan,nan,nan,nan,nan,nan,nan,nan,nan,495.9730033088417,850.282676536357,nan,850.9337015456404,nan,nan,nan,nan
1,218,1,1,1.0,1.0,0.586184540996328,0,0.0,1.0,0.0,0.44412643619648196,0.0975095750289546,0.3466168611675273,0.5416360112254366,0.0975095750289546,0.6350130108767189,1,0,5,2,6,8,nan,nan,nan,nan,nan,nan,nan,nan,nan,nan,nan,nan,0.0,nan,nan,nan,nan,nan,nan,nan,nan,nan,nan,nan,nan,nan,nan,nan,nan,nan,nan,495.9730033088417,851.2995049575693,nan,851.8856894985656,nan,nan,nan,nan
1,219,1,1,1.0,1.0,0.5530385924212169,1,0.0,0.0,1.0,0.444787171567644,0.09776154491753927,0.3470256266501047,0.5425487164851833,0.09776154491753927,0.5967493809002917,3,2,6,8,4,0,1.0,1.0,1.0,1.0,1.0,1.0,1.0,0.0,0.0,1.0,1.0,1.0,4.0,3.0,1.0,5.0,8.0,4.0,0.0,2.0,5.0,6.0,1.0,3.0,4.0,2.069015428860439,5.507549653906608,6.651605181687046,1.278061671036994,3.0522776685247663,4.316053983668098,495.9730033088417,852.3246399652562,853.1330470769317,852.8776785576774,860.85072092482,861.8495235173614,854.1581872163806,860.8423861137417
1,220,1,1,1.0,1.0,0.3055960551719181,0,0.0,0.0,0.0,0.44528833555307723,0.09781141734239499,0.3474769182106823,0.5430997528954722,0.09781141734239499,0.48160639619648765,8,4,5,7,3,1,nan,nan,nan,nan,nan,nan,nan,nan,nan,nan,nan,nan,0.0,nan,nan,nan,nan,nan,nan,nan,nan,nan,nan,nan,nan,nan,nan,nan,nan,nan,nan,495.9730033088417,862.0758908283897,nan,862.3814868835616,nan,nan,nan,nan
1,221,1,1,1.0,1.0,0.32840039482107386,0,0.0,0.0,0.0,0.4446445923255143,0.0980433425630903,0.346601249762424,0.5426879348886046,0.0980433425630903,0.39567834747140296,5,0,1,6,2,8,nan,nan,nan,nan,nan,nan,nan,nan,nan,nan,nan,nan,0.0,nan,nan,nan,nan,nan,nan,nan,nan,nan,nan,nan,nan,nan,nan,nan,nan,nan,nan,495.9730033088417,863.1010569116333,nan,863.4294573064544,nan,nan,nan,nan
1,222,1,1,1.0,1.0,0.3915767518337816,0,1.0,0.0,0.0,0.44411136206173246,0.09813309119504905,0.3459782708666834,0.5422444532567815,0.09813309119504905,0.3418577339422579,3,4,0,2,6,1,nan,nan,nan,nan,nan,nan,nan,nan,nan,nan,nan,nan,0.0,nan,nan,nan,nan,nan,nan,nan,nan,nan,nan,nan,nan,nan,nan,nan,nan,nan,nan,495.9730033088417,864.1178491255268,nan,864.5094258773606,nan,nan,nan,nan
1,223,0,0,0.0,1.0,0.4944215067953337,1,0.0,0.0,1.0,0.44387147799676463,0.09797282880085773,0.3458986491959069,0.5418443067976224,0.09797282880085773,0.40479955115006305,7,3,1,6,4,8,1.0,1.0,1.0,1.0,1.0,1.0,1.0,1.0,0.0,1.0,1.0,0.0,4.0,7.0,3.0,8.0,6.0,4.0,1.0,2.0,3.0,4.0,1.0,5.0,6.0,2.018079426867189,2.810362306976458,4.049941868695896,0.9385404971544631,5.113953559979564,6.017984204459935,495.9730033088417,865.1429787163797,865.9513769900659,865.6374002231751,873.0189626574283,874.0172837211285,866.959847507329,873.0106287016242
1,224,1,1,1.0,1.0,0.3373347648885101,0,0.0,0.0,0.0,0.44410125085493996,0.09780903368570669,0.34629221716923325,0.5419102845406466,0.09780903368570669,0.40777767450587515,1,6,3,8,5,2,nan,nan,nan,nan,nan,nan,nan,nan,nan,nan,nan,nan,0.0,nan,nan,nan,nan,nan,nan,nan,nan,nan,nan,nan,nan,nan,nan,nan,nan,nan,nan,495.9730033088417,874.2358838492073,nan,874.5732186140958,nan,nan,nan,nan
1,225,1,1,1.0,1.0,0.4005809706868604,0,0.0,0.0,0.0,0.4436181445835986,0.09785021933037742,0.3457679252532212,0.541468363913976,0.09785021933037742,0.41077908079023473,0,2,8,4,7,5,nan,nan,nan,nan,nan,nan,nan,nan,nan,nan,nan,nan,0.0,nan,nan,nan,nan,nan,nan,nan,nan,nan,nan,nan,nan,nan,nan,nan,nan,nan,nan,495.9730033088417,875.2526144821313,nan,875.6531954528182,nan,nan,nan,nan
1,226,1,1,1.0,1.0,0.3597607808187604,0,0.0,0.0,0.0,0.44342428343991963,0.09767211451118088,0.3457521689287387,0.5410963979511005,0.09767211451118088,0.365892172131377,4,0,1,5,8,3,nan,nan,nan,nan,nan,nan,nan,nan,nan,nan,nan,nan,0.0,nan,nan,nan,nan,nan,nan,nan,nan,nan,nan,nan,nan,nan,nan,nan,nan,nan,nan,495.9730033088417,876.2694263677113,nan,876.62918714853,nan,nan,nan,nan
1,227,1,1,1.0,1.0,0.5745813777903095,0,0.0,0.0,0.0,0.44304911078242565,0.09761306212207566,0.34543604866035,0.5406621729045014,0.09761306212207566,0.44497437643197674,0,6,2,3,1,7,nan,nan,nan,nan,nan,nan,nan,nan,nan,nan,nan,nan,0.0,nan,nan,nan,nan,nan,nan,nan,nan,nan,nan,nan,nan,nan,nan,nan,nan,nan,nan,495.9730033088417,877.2945525374089,nan,877.8691339151992,nan,nan,nan,nan
1,228,1,1,1.0,1.0,0.5734532489441335,0,0.0,0.0,0.0,0.44363630840299656,0.09778887171996688,0.3458474366830297,0.5414251801229635,0.09778887171996688,0.5025984691844011,8,5,4,6,0,2,nan,nan,nan,nan,nan,nan,nan,nan,nan,nan,nan,nan,0.0,nan,nan,nan,nan,nan,nan,nan,nan,nan,nan,nan,nan,nan,nan,nan,nan,nan,nan,495.9730033088417,878.3196787070774,nan,878.8931319560215,nan,nan,nan,nan
1,229,1,1,1.0,1.0,0.6366367333685048,0,0.0,1.0,0.0,0.4442132725831794,0.09795269033011021,0.34626058225306916,0.5421659629132896,0.09795269033011021,0.5948904533676492,5,1,6,0,2,3,nan,nan,nan,nan,nan,nan,nan,nan,nan,nan,nan,nan,0.0,nan,nan,nan,nan,nan,nan,nan,nan,nan,nan,nan,nan,nan,nan,nan,nan,nan,nan,495.9730033088417,879.3364834652457,nan,879.9731201986142,nan,nan,nan,nan
1,230,1,1,1.0,1.0,0.6434648067515809,1,0.0,0.0,1.0,0.4450647038255923,0.09856665459744574,0.3464980492281466,0.5436313584230381,0.09856665459744574,0.6178515963547397,0,3,8,5,4,1,1.0,1.0,1.0,1.0,1.0,1.0,1.0,0.0,1.0,1.0,0.0,0.0,3.0,0.0,6.0,8.0,5.0,2.0,0.0,2.0,5.0,6.0,1.0,3.0,4.0,1.9742603015329223,6.814121311035706,7.942159233498387,1.0410328722500708,3.270228630688507,5.687002541351831,495.9730033088417,880.36162474507,881.1700290057634,881.0050895518216,890.1711961929395,891.1769725434424,882.1868303427764,890.1628705049516
1,231,1,1,1.0,1.0,0.33646350842900574,0,0.0,0.0,0.0,0.4459387130895835,0.0992231121244121,0.3467156009651714,0.5451618252139956,0.0992231121244121,0.5388550161830304,3,2,7,6,0,4,nan,nan,nan,nan,nan,nan,nan,nan,nan,nan,nan,nan,0.0,nan,nan,nan,nan,nan,nan,nan,nan,nan,nan,nan,nan,nan,nan,nan,nan,nan,nan,495.9730033088417,891.3963837725169,nan,891.7328472809459,nan,nan,nan,nan
1,232,1,1,1.0,1.0,0.35165404732106254,0,0.0,0.0,0.0,0.4454585586831774,0.09926922794909511,0.3461893307340823,0.5447277866322725,0.09926922794909511,0.44386078750054975,1,4,6,0,8,3,nan,nan,nan,nan,nan,nan,nan,nan,nan,nan,nan,nan,0.0,nan,nan,nan,nan,nan,nan,nan,nan,nan,nan,nan,nan,nan,nan,nan,nan,nan,nan,495.9730033088417,892.4131973686744,nan,892.7648514159955,nan,nan,nan,nan
1,233,1,1,1.0,1.0,0.3498040528211277,0,0.0,0.0,0.0,0.4450489319960066,0.09924517333056099,0.3458037586654456,0.5442941053265675,0.09924517333056099,0.345973869523732,8,0,7,1,5,2,nan,nan,nan,nan,nan,nan,nan,nan,nan,nan,nan,nan,0.0,nan,nan,nan,nan,nan,nan,nan,nan,nan,nan,nan,nan,nan,nan,nan,nan,nan,nan,495.9730033088417,893.4550017134461,nan,893.8048057662672,nan,nan,nan,nan
1,234,1,1,1.0,1.0,0.4606740035524126,0,0.0,0.0,0.0,0.44463482382568104,0.09922726570555065,0.34540755812013035,0.5438620895312317,0.09922726570555065,0.38737736789820093,7,6,5,0,3,4,nan,nan,nan,nan,nan,nan,nan,nan,nan,nan,nan,nan,0.0,nan,nan,nan,nan,nan,nan,nan,nan,nan,nan,nan,nan,nan,nan,nan,nan,nan,nan,495.9730033088417,894.4801238917571,nan,894.9407978953095,nan,nan,nan,nan
1,235,0,0,0.0,1.0,0.5555226426804438,0,0.0,0.0,0.0,0.44470425750415177,0.09901785446784729,0.3456864030363045,0.543722111971999,0.09901785446784729,0.45533356635132805,3,4,6,2,7,0,nan,nan,nan,nan,nan,nan,nan,nan,nan,nan,nan,nan,0.0,nan,nan,nan,nan,nan,nan,nan,nan,nan,nan,nan,nan,nan,nan,nan,nan,nan,nan,495.9730033088417,895.5052674523613,nan,896.0607900950417,nan,nan,nan,nan
1,236,1,1,1.0,1.0,0.44238160920212977,0,0.0,0.0,0.0,0.44518192295749787,0.0990705835474423,0.34611133941005556,0.5442525065049402,0.0990705835474423,0.48619275181166205,6,7,8,1,5,4,nan,nan,nan,nan,nan,nan,nan,nan,nan,nan,nan,nan,0.0,nan,nan,nan,nan,nan,nan,nan,nan,nan,nan,nan,nan,nan,nan,nan,nan,nan,nan,495.9730033088417,896.5303819330584,nan,896.9727635422605,nan,nan,nan,nan
1,237,1,1,1.0,1.0,0.4415556831518188,0,0.0,0.0,0.0,0.44516990444352633,0.0988579266202912,0.34631197782323514,0.5440278310638176,0.0988579266202912,0.47981997834479745,3,8,0,7,2,6,nan,nan,nan,nan,nan,nan,nan,nan,nan,nan,nan,nan,0.0,nan,nan,nan,nan,nan,nan,nan,nan,nan,nan,nan,nan,nan,nan,nan,nan,nan,nan,495.9730033088417,897.5471903974831,nan,897.9887460806349,nan,nan,nan,nan
1,238,1,1,1.0,1.0,0.4163995782728307,0,0.0,0.0,0.0,0.4451544590533908,0.09864674730802192,0.3465077117453689,0.5438012063614127,0.09864674730802192,0.43344562354225974,7,3,6,5,0,4,nan,nan,nan,nan,nan,nan,nan,nan,nan,nan,nan,nan,0.0,nan,nan,nan,nan,nan,nan,nan,nan,nan,nan,nan,nan,nan,nan,nan,nan,nan,nan,495.9730033088417,898.5723179926572,nan,898.98871757093,nan,nan,nan,nan
1,239,1,1,1.0,1.0,0.4632310386223253,0,0.0,0.0,0.0,0.4450320978585799,0.09845443100213168,0.3465776668564482,0.5434865288607116,0.09845443100213168,0.4403954333489916,8,1,3,0,6,5,nan,nan,nan,nan,nan,nan,nan,nan,nan,nan,nan,nan,0.0,nan,nan,nan,nan,nan,nan,nan,nan,nan,nan,nan,nan,nan,nan,nan,nan,nan,nan,495.9730033088417,899.5974609830591,nan,900.0606920216815,nan,nan,nan,nan
1,240,1,1,1.0,1.0,0.47009531935327686,0,0.0,0.0,0.0,0.4451092120143585,0.0982527314339352,0.3468564805804233,0.5433619434482937,0.0982527314339352,0.4499086454161443,3,6,2,7,0,8,nan,nan,nan,nan,nan,nan,nan,nan,nan,nan,nan,nan,0.0,nan,nan,nan,nan,nan,nan,nan,nan,nan,nan,nan,nan,nan,nan,nan,nan,nan,nan,495.9730033088417,900.6225851570489,nan,901.0926804764022,nan,nan,nan,nan
1,241,1,1,1.0,1.0,0.5652535738481674,0,0.0,0.0,0.0,0.44521463862760285,0.09805860407895242,0.3471560345486504,0.5432732427065553,0.09805860407895242,0.4995266439412565,7,0,3,6,5,4,nan,nan,nan,nan,nan,nan,nan,nan,nan,nan,nan,nan,0.0,nan,nan,nan,nan,nan,nan,nan,nan,nan,nan,nan,nan,nan,nan,nan,nan,nan,nan,495.9730033088417,901.6394115825824,nan,902.2046651564306,nan,nan,nan,nan
1,242,1,1,1.0,1.0,0.5001317148271482,0,0.0,0.0,0.0,0.4457190039016389,0.09815995977103419,0.3475590441306047,0.5438789636726731,0.09815995977103419,0.5118268693428641,8,4,7,1,3,5,nan,nan,nan,nan,nan,nan,nan,nan,nan,nan,nan,nan,0.0,nan,nan,nan,nan,nan,nan,nan,nan,nan,nan,nan,nan,nan,nan,nan,nan,nan,nan,495.9730033088417,902.6645177954633,nan,903.1646495102905,nan,nan,nan,nan
1,243,1,1,1.0,1.0,0.5553909278823994,0,0.0,0.0,0.0,0.4459466721481891,0.09801733789504534,0.34792933425314376,0.5439640100432345,0.09801733789504534,0.5402587388525717,6,8,1,2,5,7,nan,nan,nan,nan,nan,nan,nan,nan,nan,nan,nan,nan,0.0,nan,nan,nan,nan,nan,nan,nan,nan,nan,nan,nan,nan,nan,nan,nan,nan,nan,nan,495.9730033088417,903.6813094391546,nan,904.236700367037,nan,nan,nan,nan
1,244,1,1,1.0,1.0,0.6181327970407438,0,0.0,1.0,0.0,0.446402689880415,0.09806665218087297,0.348336037699542,0.5444693420612879,0.09806665218087297,0.5578851465834305,0,2,6,8,3,4,nan,nan,nan,nan,nan,nan,nan,nan,nan,nan,nan,nan,0.0,nan,nan,nan,nan,nan,nan,nan,nan,nan,nan,nan,nan,nan,nan,nan,nan,nan,nan,495.9730033088417,904.7064655440336,nan,905.3245983410743,nan,nan,nan,nan
1,245,1,1,1.0,1.0,0.5849797210539691,1,0.0,0.0,1.0,0.44711526293917153,0.09848363269978859,0.34863163023938293,0.5455988956389601,0.09848363269978859,0.5861678153257041,1,4,2,7,8,0,1.0,1.0,1.0,1.0,1.0,1.0,1.0,0.0,1.0,1.0,0.0,0.0,3.0,1.0,2.0,2.0,7.0,4.0,1.0,2.0,4.0,3.0,1.0,5.0,6.0,2.180070977745345,4.899731666693697,3.3332248063816223,1.077847449138062,7.540120276709786,8.955762067140313,495.9730033088417,905.7315951348864,906.5400076634251,906.3165748559404,916.5496351043403,917.5560466510069,907.5568075749325,916.5413139779121
1,246,1,1,1.0,1.0,0.6054881744494196,0,0.0,0.0,0.0,0.4476849507826211,0.09867706142705047,0.34900788935557064,0.5463620122096716,0.09867706142705047,0.6028668975147108,6,8,1,2,4,5,nan,nan,nan,nan,nan,nan,nan,nan,nan,nan,nan,nan,0.0,nan,nan,nan,nan,nan,nan,nan,nan,nan,nan,nan,nan,nan,nan,nan,nan,nan,nan,495.9730033088417,917.774831521936,nan,918.3803196963854,nan,nan,nan,nan
1,247,1,1,1.0,1.0,0.42869410174898803,0,0.0,0.0,0.0,0.448334346764789,0.09899064041001358,0.3493437063547754,0.5473249871748026,0.09899064041001358,0.5397206657507923,4,0,3,1,5,7,nan,nan,nan,nan,nan,nan,nan,nan,nan,nan,nan,nan,0.0,nan,nan,nan,nan,nan,nan,nan,nan,nan,nan,nan,nan,nan,nan,nan,nan,nan,nan,495.9730033088417,918.7916351396998,nan,919.2203292414488,nan,nan,nan,nan
1,248,1,1,1.0,1.0,0.3558463988592848,0,0.0,0.0,0.0,0.4482538539573472,0.09879555086178698,0.3494583030955602,0.5470494048191341,0.09879555086178698,0.4633428916858975,6,4,1,8,2,3,nan,nan,nan,nan,nan,nan,nan,nan,nan,nan,nan,nan,0.0,nan,nan,nan,nan,nan,nan,nan,nan,nan,nan,nan,nan,nan,nan,nan,nan,nan,nan,495.9730033088417,919.8084401829401,nan,920.1642865817994,nan,nan,nan,nan
1,249,1,1,1.0,1.0,0.3550484123406932,0,0.0,0.0,0.0,0.44787668067123265,0.09876959658689244,0.3491070840843402,0.5466462772581251,0.09876959658689244,0.37986297098298866,4,8,7,5,3,1,nan,nan,nan,nan,nan,nan,nan,nan,nan,nan,nan,nan,0.0,nan,nan,nan,nan,nan,nan,nan,nan,nan,nan,nan,nan,nan,nan,nan,nan,nan,nan,495.9730033088417,920.8252218482376,nan,921.1802702605783,nan,nan,nan,nan
1,250,0,0,0.0,1.0,0.5062105532560963,0,0.0,0.0,0.0,0.4474993299869622,0.0987454474617033,0.34875388252525885,0.5462447774486655,0.0987454474617033,0.4057017881520248,2,4,3,8,6,5,nan,nan,nan,nan,nan,nan,nan,nan,nan,nan,nan,nan,0.0,nan,nan,nan,nan,nan,nan,nan,nan,nan,nan,nan,nan,nan,nan,nan,nan,nan,nan,495.9730033088417,921.8420280318824,nan,922.3482385851385,nan,nan,nan,nan
1,251,1,1,1.0,1.0,0.43339221537462436,0,0.0,0.0,0.0,0.4477370272471611,0.09861585076102442,0.34912117648613666,0.5463528780081854,0.09861585076102442,0.43155039365713793,4,6,5,0,8,1,nan,nan,nan,nan,nan,nan,nan,nan,nan,nan,nan,nan,0.0,nan,nan,nan,nan,nan,nan,nan,nan,nan,nan,nan,nan,nan,nan,nan,nan,nan,nan,495.9730033088417,922.8588333602238,nan,923.2922255755984,nan,nan,nan,nan
1,252,1,1,1.0,1.0,0.4002673639624845,0,0.0,0.0,0.0,0.44767918526380407,0.09842102596222826,0.3492581593015758,0.5461002112260324,0.09842102596222826,0.4466233775310684,0,2,8,6,1,3,nan,nan,nan,nan,nan,nan,nan,nan,nan,nan,nan,nan,0.0,nan,nan,nan,nan,nan,nan,nan,nan,nan,nan,nan,nan,nan,nan,nan,nan,nan,nan,495.9730033088417,923.8839492664265,nan,924.284216630389,nan,nan,nan,nan
1,253,1,1,1.0,1.0,0.5034345636668149,0,0.0,0.0,0.0,0.4474887763429153,0.09826895403235912,0.34921982231055615,0.5457577303752744,0.09826895403235912,0.4456980476679746,1,7,6,2,0,4,nan,nan,nan,nan,nan,nan,nan,nan,nan,nan,nan,nan,0.0,nan,nan,nan,nan,nan,nan,nan,nan,nan,nan,nan,nan,nan,nan,nan,nan,nan,nan,495.9730033088417,924.9007434759988,nan,925.4041780396656,nan,nan,nan,nan
1,254,1,1,1.0,1.0,0.47859577179769985,0,0.0,0.0,0.0,0.44771255949221084,0.09813577239155308,0.34957678710065776,0.5458483318837639,0.09813577239155308,0.4607658998089998,6,4,1,0,3,5,nan,nan,nan,nan,nan,nan,nan,nan,nan,nan,nan,nan,0.0,nan,nan,nan,nan,nan,nan,nan,nan,nan,nan,nan,nan,nan,nan,nan,nan,nan,nan,495.9730033088417,925.9175699015032,nan,926.3961656733009,nan,nan,nan,nan
1,255,1,1,1.0,1.0,0.5338139308732934,0,0.0,0.0,0.0,0.4478356001786869,0.09795940757476927,0.3498761926039176,0.5457950077534561,0.09795940757476927,0.5052814221126027,5,0,8,2,4,7,nan,nan,nan,nan,nan,nan,nan,nan,nan,nan,nan,nan,0.0,nan,nan,nan,nan,nan,nan,nan,nan,nan,nan,nan,nan,nan,nan,nan,nan,nan,nan,495.9730033088417,926.9343244826014,nan,927.4681384134747,nan,nan,nan,nan
1,256,1,1,1.0,1.0,0.5169512980210129,0,0.0,0.0,0.0,0.44817678403064964,0.09791416648405452,0.35026261754659516,0.5460909505147041,0.09791416648405452,0.5097870002306687,0,4,2,1,5,3,nan,nan,nan,nan,nan,nan,nan,nan,nan,nan,nan,nan,0.0,nan,nan,nan,nan,nan,nan,nan,nan,nan,nan,nan,nan,nan,nan,nan,nan,nan,nan,495.9730033088417,927.9511691543448,nan,928.4681204523658,nan,nan,nan,nan
1,257,1,1,1.0,1.0,0.4521202379546594,0,0.0,0.0,0.0,0.44844862005432695,0.0978157016330127,0.3506329184213143,0.5462643216873396,0.0978157016330127,0.5009618222829886,1,6,7,4,0,5,nan,nan,nan,nan,nan,nan,nan,nan,nan,nan,nan,nan,0.0,nan,nan,nan,nan,nan,nan,nan,nan,nan,nan,nan,nan,nan,nan,nan,nan,nan,nan,495.9730033088417,928.9679664999712,nan,929.4200867379259,nan,nan,nan,nan
1,258,1,1,1.0,1.0,0.595285407762276,0,0.0,0.0,0.0,0.44846307524291096,0.09762323190755949,0.35083984333535145,0.5460863071504705,0.09762323190755949,0.5214523145793161,4,1,5,8,3,7,nan,nan,nan,nan,nan,nan,nan,nan,nan,nan,nan,nan,0.0,nan,nan,nan,nan,nan,nan,nan,nan,nan,nan,nan,nan,nan,nan,nan,nan,nan,nan,495.9730033088417,929.9847766749735,nan,930.5800620827358,nan,nan,nan,nan
1,259,1,1,1.0,1.0,0.5944774428207893,0,0.0,1.0,0.0,0.44903884909592806,0.09786279499977663,0.35117605409615144,0.5469016440957046,0.09786279499977663,0.5472943628459083,8,7,6,1,2,3,nan,nan,nan,nan,nan,nan,nan,nan,nan,nan,nan,nan,0.0,nan,nan,nan,nan,nan,nan,nan,nan,nan,nan,nan,nan,nan,nan,nan,nan,nan,nan,495.9730033088417,931.0015723100223,nan,931.5960497528431,nan,nan,nan,nan
1,260,1,1,1.0,1.0,0.6093489581835456,1,0.0,0.0,1.0,0.4496069686026658,0.09809189434690452,0.3515150742557613,0.5476988629495703,0.09809189434690452,0.599703936255537,3,6,4,0,1,8,1.0,1.0,1.0,1.0,1.0,1.0,0.0,1.0,0.0,1.0,1.0,0.0,3.0,8.0,6.0,3.0,0.0,1.0,2.0,3.0,2.0,4.0,1.0,5.0,6.0,3.4618277911504265,2.3664266339910682,4.437554061529227,1.3024209297727793,5.540580423286883,6.284299593622563,495.9730033088417,932.0266944883333,932.8351112933306,932.6360434465169,940.1777140807826,941.1739576425753,933.8519046475994,940.1693846865383
1,261,1,1,1.0,1.0,0.5932290030468721,0,0.0,0.0,0.0,0.4502285327644591,0.09840469259594363,0.3518238401685155,0.5486332253604027,0.09840469259594363,0.599018468017069,2,0,8,6,5,4,nan,nan,nan,nan,nan,nan,nan,nan,nan,nan,nan,nan,0.0,nan,nan,nan,nan,nan,nan,nan,nan,nan,nan,nan,nan,nan,nan,nan,nan,nan,nan,495.9730033088417,941.3945771127474,nan,941.9878061157942,nan,nan,nan,nan
1,262,0,0,0.0,1.0,0.5680654856550973,0,0.0,0.0,0.0,0.45078279815315064,0.09861492607179578,0.35216787208135486,0.5493977242249464,0.09861492607179578,0.5902144822951717,7,4,1,5,6,8,nan,nan,nan,nan,nan,nan,nan,nan,nan,nan,nan,nan,0.0,nan,nan,nan,nan,nan,nan,nan,nan,nan,nan,nan,nan,nan,nan,nan,nan,nan,nan,495.9730033088417,942.4197126906365,nan,942.9877781762916,nan,nan,nan,nan
1,263,1,1,1.0,1.0,0.40725936816306785,0,0.0,0.0,0.0,0.45123562706242454,0.09869275399473336,0.35254287306769116,0.5499283810571579,0.09869275399473336,0.522851285621679,0,2,3,6,1,7,nan,nan,nan,nan,nan,nan,nan,nan,nan,nan,nan,nan,0.0,nan,nan,nan,nan,nan,nan,nan,nan,nan,nan,nan,nan,nan,nan,nan,nan,nan,nan,495.9730033088417,943.4365043343278,nan,943.8437637024908,nan,nan,nan,nan
1,264,1,1,1.0,1.0,0.43015408352948725,0,0.0,0.0,0.0,0.45106648760511936,0.09854038089128825,0.3525261067138311,0.5496068684964076,0.09854038089128825,0.4684929791158841,2,3,5,0,8,6,nan,nan,nan,nan,nan,nan,nan,nan,nan,nan,nan,nan,0.0,nan,nan,nan,nan,nan,nan,nan,nan,nan,nan,nan,nan,nan,nan,nan,nan,nan,nan,495.9730033088417,944.4616276530433,nan,944.8917817365727,nan,nan,nan,nan
1,265,1,1,1.0,1.0,0.516991496697301,0,0.0,0.0,0.0,0.45098636345157284,0.0983599104210488,0.35262645303052403,0.5493462738726216,0.0983599104210488,0.45146831612995203,0,8,2,3,1,7,nan,nan,nan,nan,nan,nan,nan,nan,nan,nan,nan,nan,0.0,nan,nan,nan,nan,nan,nan,nan,nan,nan,nan,nan,nan,nan,nan,nan,nan,nan,nan,495.9730033088417,945.4867706434452,nan,946.0037621401425,nan,nan,nan,nan
1,266,1,1,1.0,1.0,0.539826341700973,0,0.0,0.0,0.0,0.45123829144106037,0.0982563525779148,0.35298193886314555,0.5494946440189752,0.0982563525779148,0.4956573073092538,3,1,5,4,0,6,nan,nan,nan,nan,nan,nan,nan,nan,nan,nan,nan,nan,0.0,nan,nan,nan,nan,nan,nan,nan,nan,nan,nan,nan,nan,nan,nan,nan,nan,nan,nan,495.9730033088417,946.5119039405545,nan,947.0517302822554,nan,nan,nan,nan
1,267,1,1,1.0,1.0,0.5546855978609528,0,0.0,0.0,0.0,0.45157512813406386,0.09822081583187928,0.3533543123021846,0.5497959439659431,0.09822081583187928,0.537167812086409,4,2,1,7,6,0,nan,nan,nan,nan,nan,nan,nan,nan,nan,nan,nan,nan,0.0,nan,nan,nan,nan,nan,nan,nan,nan,nan,nan,nan,nan,nan,nan,nan,nan,nan,nan,495.9730033088417,947.5370349568839,nan,948.0917205547448,nan,nan,nan,nan
1,268,1,1,1.0,1.0,0.6015099307987839,0,0.0,1.0,0.0,0.4519656980951505,0.09823902003956088,0.35372667805558966,0.5502047181347114,0.09823902003956088,0.56534062345357,6,3,2,8,5,1,nan,nan,nan,nan,nan,nan,nan,nan,nan,nan,nan,nan,0.0,nan,nan,nan,nan,nan,nan,nan,nan,nan,nan,nan,nan,nan,nan,nan,nan,nan,nan,495.9730033088417,948.5621822237445,nan,949.1636921545432,nan,nan,nan,nan
1,269,1,1,1.0,1.0,0.632357427268289,1,0.0,0.0,1.0,0.45253001595440956,0.09848126002086247,0.3540487559335471,0.551011275975272,0.09848126002086247,0.5961843186426753,5,7,0,3,6,4,1.0,1.0,1.0,1.0,1.0,1.0,0.0,1.0,1.0,1.0,0.0,0.0,3.0,8.0,7.0,0.0,3.0,1.0,5.0,4.0,3.0,2.0,1.0,6.0,5.0,4.307781038660323,2.91683121517417,1.7963343937008176,0.8204892378707882,6.1637671350326855,5.316410354949767,495.9730033088417,949.5873140953772,950.3957229176303,950.2196715226455,957.6050089263881,958.6144114257768,951.4041900137381,957.5966558690998
1,270,1,1,1.0,1.0,0.7248962104204111,0,0.0,0.0,0.0,0.45320605885408577,0.0989101200047637,0.3542959388493221,0.5521161788588494,0.0989101200047637,0.652921189495828,2,8,3,0,7,1,nan,nan,nan,nan,nan,nan,nan,nan,nan,nan,nan,nan,0.0,nan,nan,nan,nan,nan,nan,nan,nan,nan,nan,nan,nan,nan,nan,nan,nan,nan,nan,495.9730033088417,958.8385412954667,nan,959.5634375058871,nan,nan,nan,nan
1,271,1,1,1.0,1.0,0.4918254134245217,0,0.0,0.0,0.0,0.45422362496482105,0.10010992881116955,0.3541136961536515,0.5543335537759906,0.10010992881116955,0.6163596837044073,7,4,1,5,2,8,nan,nan,nan,nan,nan,nan,nan,nan,nan,nan,nan,nan,0.0,nan,nan,nan,nan,nan,nan,nan,nan,nan,nan,nan,nan,nan,nan,nan,nan,nan,nan,495.9730033088417,959.8636477934488,nan,960.3554732068733,nan,nan,nan,nan
1,272,1,1,1.0,1.0,0.4510086447116919,0,0.0,1.0,0.0,0.45436393014564086,0.09994927899894902,0.35441465114669185,0.5543132091445899,0.09994927899894902,0.5559100895188749,4,7,2,3,8,5,nan,nan,nan,nan,nan,nan,nan,nan,nan,nan,nan,nan,0.0,nan,nan,nan,nan,nan,nan,nan,nan,nan,nan,nan,nan,nan,nan,nan,nan,nan,nan,495.9730033088417,960.8804477049562,nan,961.3314563496679,nan,nan,nan,nan
