block,trial,time,setsize,freqtrials,colorind,colordeg,colorrgb,correctresp,actualresp,acc,rts,probe_trials,fast_rt_trigger,slow_rt_trigger,rt_trailingavg,rt_runningavg,rt_runningstd,rt_runningslowthresh,rt_runningfastthresh,wm_mousepos,wm_respdeg,wm_colorind,wm_colorrgb,wm_colorhsv,wm_degdiff,wm_rts,timeBlockStart,timeEncArrayOnset,timeResponse,timeProbeOnset,timeProbeOffset
0,0,17:36:32:776000,6,1,87,61.171875,[ 1.         -0.22095901 -0.61267562],1,nan,nan,nan,0,nan,nan,nan,nan,nan,nan,nan,nan,nan,nan,[ nan  nan  nan],nan,nan,nan,113.5989257,114.6149438,nan,nan,nan
0,1,17:36:33:727000,6,1,364,255.9375,[-0.16019432  0.47670452 -0.00341125],1,1,1,0.489756063,0,nan,nan,nan,nan,nan,nan,nan,nan,nan,nan,[ nan  nan  nan],nan,nan,nan,113.5989257,115.5651572,116.0549133,nan,nan
0,2,17:36:34:663000,6,1,296,208.125,[ 0.07727136  0.38620532  0.55000131],1,1,1,0.284024031,0,nan,nan,nan,nan,nan,nan,nan,nan,nan,nan,[ nan  nan  nan],nan,nan,nan,113.5989257,116.5068841,116.7909081,nan,nan
0,3,17:36:35:599000,6,1,204,143.4375,[ 1.          0.00303257  0.49965442],1,1,1,0.198211762,0,nan,nan,nan,nan,nan,nan,nan,nan,nan,nan,[ nan  nan  nan],nan,nan,nan,113.5989257,117.4486743,117.646886,nan,nan
0,4,17:36:36:551000,6,1,77,54.140625,[ 1.         -0.17459302 -0.75626719],1,1,1,0.024363473,0,nan,nan,nan,nan,nan,nan,nan,nan,nan,nan,[ nan  nan  nan],nan,nan,nan,113.5989257,118.3904656,118.4148291,nan,nan
0,5,17:36:37:487000,6,1,296,208.125,[ 0.07727136  0.38620532  0.55000131],1,1,1,0.498560691,0,nan,nan,nan,nan,nan,nan,nan,nan,nan,nan,[ nan  nan  nan],nan,nan,nan,113.5989257,119.3322595,119.8308202,nan,nan
0,6,17:36:38:423000,6,0,356,250.3125,[-0.17284378  0.47323941  0.07883681],0,1,0,0.292775917,0,0,0,nan,nan,nan,nan,nan,nan,nan,nan,[ nan  nan  nan],nan,nan,nan,113.5989257,120.2740277,120.5668036,nan,nan
0,7,17:36:39:375000,6,1,446,313.59375,[ 0.30469626  0.41359904 -1.        ],1,1,1,0.446917211,0,nan,nan,nan,nan,nan,nan,nan,nan,nan,nan,[ nan  nan  nan],nan,nan,nan,113.5989257,121.2158752,121.6627924,nan,nan
0,8,17:36:40:311000,6,0,20,14.0625,[ 1.          0.12155819 -1.        ],0,1,0,0.345107334,0,0,0,nan,nan,nan,nan,nan,nan,nan,nan,[ nan  nan  nan],nan,nan,nan,113.5989257,122.1576426,122.5027499,nan,nan
0,9,17:36:41:247000,6,1,254,178.59375,[ 0.50301113  0.24894782  0.65613358],1,1,1,0.443281378,0,nan,nan,nan,nan,nan,nan,nan,nan,nan,nan,[ nan  nan  nan],nan,nan,nan,113.5989257,123.0994461,123.5427275,nan,nan
0,10,17:36:42:198000,6,1,488,343.125,[ 0.64790771  0.30295149 -1.        ],1,1,1,0.49349225,0,nan,nan,nan,nan,nan,nan,nan,nan,nan,nan,[ nan  nan  nan],nan,nan,nan,113.5989257,124.0412201,124.5347123,nan,nan
0,11,17:36:43:134000,6,1,277,194.765625,[ 0.25847065  0.33263616  0.62482424],1,1,1,0.471636484,0,nan,nan,nan,nan,nan,nan,nan,nan,nan,nan,[ nan  nan  nan],nan,nan,nan,113.5989257,124.9830428,125.4546792,nan,nan
0,12,17:36:44:086000,6,1,497,349.453125,[ 0.72317494  0.2712606  -1.        ],1,1,1,0.361837069,0,nan,nan,nan,nan,nan,nan,nan,nan,nan,nan,[ nan  nan  nan],nan,nan,nan,113.5989257,125.9248349,126.286672,nan,nan
0,13,17:36:45:022000,6,1,433,304.453125,[ 0.2065363   0.43616372 -1.        ],1,1,1,0.340021502,0,nan,nan,nan,nan,nan,nan,nan,nan,nan,nan,[ nan  nan  nan],nan,nan,nan,113.5989257,126.8666248,127.2066463,nan,nan
0,14,17:36:45:958000,6,1,356,250.3125,[-0.17284378  0.47323941  0.07883681],1,1,1,0.254204386,0,nan,nan,nan,nan,nan,nan,nan,nan,nan,nan,[ nan  nan  nan],nan,nan,nan,113.5989257,127.8084219,128.0626262,nan,nan
0,15,17:36:46:909000,6,0,167,117.421875,[ 1.         -0.19560581  0.22154672],0,1,0,0.240411713,0,0,0,nan,nan,nan,nan,nan,nan,nan,nan,[ nan  nan  nan],nan,nan,nan,113.5989257,128.7502149,128.9906266,nan,nan
0,16,17:36:47:845000,6,1,370,260.15625,[-0.144806    0.47817873 -0.06718033],1,1,1,0.370549612,0,nan,nan,nan,nan,nan,nan,nan,nan,nan,nan,[ nan  nan  nan],nan,nan,nan,113.5989257,129.6920213,130.0625709,nan,nan
0,17,17:36:48:781000,6,1,311,218.671875,[-0.03972498  0.41902022  0.46225021],1,1,1,0.292748833,0,nan,nan,nan,nan,nan,nan,nan,nan,nan,nan,[ nan  nan  nan],nan,nan,nan,113.5989257,130.6338183,130.9265672,nan,nan
0,18,17:36:49:733000,6,1,26,18.28125,[ 1.          0.09209217 -1.        ],1,1,1,0.526953145,0,nan,nan,nan,nan,nan,nan,nan,nan,nan,nan,[ nan  nan  nan],nan,nan,nan,113.5989257,131.5755729,132.102526,nan,nan
0,19,17:36:50:669000,6,0,443,311.484375,[ 0.28155878  0.41926821 -1.        ],0,0,1,0.55312983,0,nan,nan,nan,nan,nan,nan,nan,nan,nan,nan,[ nan  nan  nan],nan,nan,nan,113.5989257,132.5173887,133.0705186,nan,nan
0,20,17:36:51:621000,6,1,132,92.8125,[ 1.         -0.30742683 -0.11555536],1,1,1,0.547288492,0,nan,nan,nan,nan,nan,nan,nan,nan,nan,nan,[ nan  nan  nan],nan,nan,nan,113.5989257,133.4591923,134.0064808,nan,nan
0,21,17:36:52:557000,6,1,240,168.75,[ 0.65437302  0.18801506  0.64246395],1,1,1,0.565477065,0,nan,nan,nan,nan,nan,nan,nan,nan,nan,nan,[ nan  nan  nan],nan,nan,nan,113.5989257,134.4009834,134.9664604,nan,nan
0,22,17:36:53:493000,6,1,337,236.953125,[-0.16064337  0.45785839  0.25930356],1,1,1,0.463658065,0,nan,nan,nan,nan,nan,nan,nan,nan,nan,nan,[ nan  nan  nan],nan,nan,nan,113.5989257,135.3427832,135.8064413,nan,nan
0,23,17:36:54:444000,6,1,416,292.5,[ 0.08788162  0.4581175  -0.63016532],1,1,1,0.529837749,0,nan,nan,nan,nan,nan,nan,nan,nan,nan,nan,[ nan  nan  nan],nan,nan,nan,113.5989257,136.2845842,136.814422,nan,nan
0,24,17:36:55:380000,6,1,254,178.59375,[ 0.50301113  0.24894782  0.65613358],1,1,1,0.540015116,0,nan,nan,nan,nan,nan,nan,nan,nan,nan,nan,[ nan  nan  nan],nan,nan,nan,113.5989257,137.2263793,137.7663944,nan,nan
0,25,17:36:56:316000,6,0,86,60.46875,[ 1.         -0.21659106 -0.6256178 ],0,0,1,0.518194132,0,nan,nan,nan,nan,nan,nan,nan,nan,nan,nan,[ nan  nan  nan],nan,nan,nan,113.5989257,138.1681877,138.6863818,nan,nan
0,26,17:36:57:268000,6,1,412,289.6875,[ 0.06188912  0.46209661 -0.57115894],1,1,1,0.504410012,0,nan,nan,nan,nan,nan,nan,nan,nan,nan,nan,[ nan  nan  nan],nan,nan,nan,113.5989257,139.1099494,139.6143594,nan,nan
0,27,17:36:58:204000,6,1,10,7.03125,[ 0.9268115   0.16840058 -1.        ],1,1,1,0.650574027,0,nan,nan,nan,nan,nan,nan,nan,nan,nan,nan,[ nan  nan  nan],nan,nan,nan,113.5989257,140.0517595,140.7023335,nan,nan
0,28,17:36:59:155000,6,0,131,92.109375,[ 1.         -0.30845167 -0.1258005 ],0,0,1,0.676755274,0,nan,nan,nan,nan,nan,nan,nan,nan,nan,nan,[ nan  nan  nan],nan,nan,nan,113.5989257,140.9935597,141.6703149,nan,nan
0,29,17:37:00:091000,6,1,214,150.46875,[ 0.92024366  0.05754104  0.55385485],1,1,1,0.66293067,0,nan,nan,nan,nan,nan,nan,nan,nan,nan,nan,[ nan  nan  nan],nan,nan,nan,113.5989257,141.935361,142.5982916,nan,nan
0,30,17:37:01:027000,6,1,376,264.375,[-0.12496282  0.47870467 -0.13262763],1,1,1,0.753117172,0,nan,nan,nan,nan,nan,nan,nan,nan,nan,nan,[ nan  nan  nan],nan,nan,nan,113.5989257,142.87715,143.6302672,nan,nan
0,31,17:37:01:979000,6,1,140,98.4375,[ 1.         -0.29420925 -0.03457774],1,1,1,0.795328812,0,nan,nan,nan,nan,nan,nan,nan,nan,nan,nan,[ nan  nan  nan],nan,nan,nan,113.5989257,143.8189245,144.6142533,nan,nan
0,32,17:37:02:931000,6,1,307,215.859375,[-0.01138687  0.41105336  0.48795701],1,1,1,0.741143413,0,nan,nan,nan,nan,nan,nan,nan,nan,nan,nan,[ nan  nan  nan],nan,nan,nan,113.5989257,144.7690723,145.5102157,nan,nan
0,33,17:37:03:867000,6,1,201,141.328125,[ 1.         -0.01357126  0.48142235],1,1,1,0.735323172,0,nan,nan,nan,nan,nan,nan,nan,nan,nan,nan,[ nan  nan  nan],nan,nan,nan,113.5989257,145.7108719,146.4461951,nan,nan
0,34,17:37:04:803000,6,1,255,179.296875,[ 0.49215936  0.25301719  0.65616311],1,nan,nan,nan,0,nan,nan,nan,nan,nan,nan,nan,nan,nan,nan,[ nan  nan  nan],nan,nan,nan,113.5989257,146.652633,nan,nan,nan
0,35,17:37:05:754000,6,1,324,227.8125,[-0.11479964  0.44115833  0.36806404],1,nan,nan,nan,0,nan,nan,nan,nan,nan,nan,nan,nan,nan,nan,[ nan  nan  nan],nan,nan,nan,113.5989257,147.5944585,nan,nan,nan
0,36,17:37:06:690000,6,1,455,319.921875,[ 0.37560825  0.39487537 -1.        ],1,1,1,0.741864992,0,nan,nan,nan,nan,nan,nan,nan,nan,nan,nan,[ nan  nan  nan],nan,nan,nan,113.5989257,148.5362658,149.2781308,nan,nan
0,37,17:37:07:626000,6,1,234,164.53125,[ 0.71814775  0.15974031  0.6291316 ],1,1,1,0.736014246,0,nan,nan,nan,nan,nan,nan,nan,nan,nan,nan,[ nan  nan  nan],nan,nan,nan,113.5989257,149.4781025,150.2141167,nan,nan
0,38,17:37:08:578000,6,1,289,203.203125,[ 0.14059213  0.36807325  0.58250527],1,1,1,0.746237513,0,nan,nan,nan,nan,nan,nan,nan,nan,nan,nan,[ nan  nan  nan],nan,nan,nan,113.5989257,150.419857,151.1660945,nan,nan
0,39,17:37:09:514000,6,1,111,78.046875,[ 1.         -0.29867781 -0.33610624],1,nan,nan,nan,0,nan,nan,nan,nan,nan,nan,nan,nan,nan,nan,[ nan  nan  nan],nan,nan,nan,113.5989257,151.3616369,nan,nan,nan
0,40,17:37:10:465000,6,1,10,7.03125,[ 0.9268115   0.16840058 -1.        ],1,nan,nan,nan,0,nan,nan,nan,nan,nan,nan,nan,nan,nan,nan,[ nan  nan  nan],nan,nan,nan,113.5989257,152.3034379,nan,nan,nan
0,41,17:37:11:401000,6,1,440,309.375,[ 0.2586994  0.4246574 -1.       ],1,nan,nan,nan,0,nan,nan,nan,nan,nan,nan,nan,nan,nan,nan,[ nan  nan  nan],nan,nan,nan,113.5989257,153.2452307,nan,nan,nan
0,42,17:37:12:337000,6,1,171,120.234375,[ 1.         -0.17601187  0.25645091],1,nan,nan,nan,0,nan,nan,nan,nan,nan,nan,nan,nan,nan,nan,[ nan  nan  nan],nan,nan,nan,113.5989257,154.1870272,nan,nan,nan
0,43,17:37:13:289000,6,1,244,171.5625,[ 0.61137236  0.20616355  0.64888072],1,1,1,0.061217583,0,nan,nan,nan,nan,nan,nan,nan,nan,nan,nan,[ nan  nan  nan],nan,nan,nan,113.5989257,155.1288262,155.1900438,nan,nan
0,44,17:37:14:225000,6,1,359,252.421875,[-0.16922234  0.47474188  0.0483828 ],1,1,1,0.047323416,0,nan,nan,nan,nan,nan,nan,nan,nan,nan,nan,[ nan  nan  nan],nan,nan,nan,113.5989257,156.0706246,156.117948,nan,nan
0,45,17:37:15:161000,6,1,483,339.609375,[ 0.60602571  0.31931445 -1.        ],1,1,1,0.121538824,0,nan,nan,nan,nan,nan,nan,nan,nan,nan,nan,[ nan  nan  nan],nan,nan,nan,113.5989257,157.0124336,157.1339724,nan,nan
0,46,17:37:16:113000,6,1,343,241.171875,[-0.17138818  0.46383642  0.20482281],1,1,1,0.203724954,0,nan,nan,nan,nan,nan,nan,nan,nan,nan,nan,[ nan  nan  nan],nan,nan,nan,113.5989257,157.9542113,158.1579362,nan,nan
0,47,17:37:17:049000,6,1,85,59.765625,[ 1.         -0.21215645 -0.63878123],1,1,1,0.149928142,0,nan,nan,nan,nan,nan,nan,nan,nan,nan,nan,[ nan  nan  nan],nan,nan,nan,113.5989257,158.8960089,159.045937,nan,nan
0,48,17:37:18:000000,6,0,342,240.46875,[-0.17005262  0.46291356  0.21407524],0,1,0,0.23208234,0,0,0,nan,nan,nan,nan,nan,nan,nan,nan,[ nan  nan  nan],nan,nan,nan,113.5989257,159.8378025,160.0698848,nan,nan
0,49,17:37:18:936000,6,1,17,11.953125,[ 0.98106915  0.13592191 -1.        ],1,1,1,0.562247779,0,nan,nan,nan,nan,nan,nan,nan,nan,nan,nan,[ nan  nan  nan],nan,nan,nan,113.5989257,160.7795983,161.3418461,nan,nan
0,50,17:37:19:872000,6,1,284,199.6875,[ 0.18846515  0.3539841   0.60223628],1,1,1,0.604434615,0,nan,nan,nan,nan,nan,nan,nan,nan,nan,nan,[ nan  nan  nan],nan,nan,nan,113.5989257,161.7213991,162.3258337,nan,nan
0,51,17:37:20:824000,6,1,147,103.359375,[ 1.         -0.27580113  0.03467205],1,1,1,0.526624714,0,nan,nan,nan,nan,nan,nan,nan,nan,nan,nan,[ nan  nan  nan],nan,nan,nan,113.5989257,162.6631907,163.1898154,nan,nan
0,52,17:37:21:760000,6,1,73,51.328125,[ 1.         -0.15467886 -0.83091687],1,1,1,0.464815841,0,nan,nan,nan,nan,nan,nan,nan,nan,nan,nan,[ nan  nan  nan],nan,nan,nan,113.5989257,163.6049868,164.0698027,nan,nan
0,53,17:37:22:696000,6,1,434,305.15625,[ 0.21388182  0.43461034 -1.        ],1,1,1,0.562931155,0,nan,nan,nan,nan,nan,nan,nan,nan,nan,nan,[ nan  nan  nan],nan,nan,nan,113.5989257,164.5468244,165.1097555,nan,nan
0,54,17:37:23:647000,6,1,509,357.890625,[ 0.82238638  0.224555   -1.        ],1,nan,nan,nan,0,nan,nan,nan,nan,nan,nan,nan,nan,nan,nan,[ nan  nan  nan],nan,nan,nan,113.5989257,165.4885869,nan,nan,nan
0,55,17:37:24:583000,6,1,354,248.90625,[-0.17447067  0.47210079  0.09886772],1,1,1,0.007354629,0,nan,nan,nan,nan,nan,nan,nan,nan,nan,nan,[ nan  nan  nan],nan,nan,nan,113.5989257,166.4303813,166.437736,nan,nan
0,56,17:37:25:535000,6,1,168,118.125,[ 1.         -0.19079002  0.2303618 ],1,1,1,0.257532885,0,nan,nan,nan,nan,nan,nan,nan,nan,nan,nan,[ nan  nan  nan],nan,nan,nan,113.5989257,167.3721784,167.6297113,nan,nan
0,57,17:37:30:465000,6,1,316,222.1875,[-0.07182156  0.42820351  0.42789226],1,1,1,0.419738128,1,nan,nan,nan,nan,nan,nan,nan,nan,-135.6250201,321,[-0.09994335  0.43654647  0.39117498],nan,3.437520074,1.942251753,113.5989257,168.3139611,168.7336993,170.1391447,172.0894048
0,58,17:37:31:401000,6,1,413,290.390625,[ 0.06831062  0.46114313 -0.5854956 ],1,1,1,0.317592978,0,nan,nan,nan,nan,nan,nan,nan,nan,nan,nan,[ nan  nan  nan],nan,nan,nan,113.5989257,173.2479631,173.565556,nan,nan
0,59,17:37:36:159000,6,1,88,61.875,[ 1.         -0.22525759 -0.59993285],1,1,1,0.295785108,1,nan,nan,nan,nan,nan,nan,nan,nan,30.09424148,85,[ 1.         -0.21215645 -0.63878123],nan,-1.969241476,1.758882959,113.5989257,174.1897621,174.4855472,176.0232804,177.7902082
0,60,17:37:37:095000,6,1,156,109.6875,[ 1.         -0.24406061  0.12104147],1,1,1,0.457036704,0,nan,nan,nan,nan,nan,nan,nan,nan,nan,nan,[ nan  nan  nan],nan,nan,nan,113.5989257,178.9404117,179.3974484,nan,nan
0,61,17:37:38:031000,6,1,49,34.453125,[ 1.         -0.02778543 -1.        ],1,1,1,0.315219551,0,nan,nan,nan,nan,nan,nan,nan,nan,nan,nan,[ nan  nan  nan],nan,nan,nan,113.5989257,179.8822039,180.1974235,nan,nan
0,62,17:37:38:982000,6,1,329,231.328125,[-0.13605328  0.44820379  0.32783374],1,1,1,0.269419975,0,nan,nan,nan,nan,nan,nan,nan,nan,nan,nan,[ nan  nan  nan],nan,nan,nan,113.5989257,180.8239941,181.0934141,nan,nan
0,63,17:37:39:918000,6,1,270,189.84375,[ 0.33115907  0.30936972  0.64139387],1,1,1,0.263604866,0,nan,nan,nan,nan,nan,nan,nan,nan,nan,nan,[ nan  nan  nan],nan,nan,nan,113.5989257,181.7657945,182.0293994,nan,nan
0,64,17:37:40:870000,6,1,478,336.09375,[ 0.5642225   0.33479366 -1.        ],1,1,1,0.329763168,0,nan,nan,nan,nan,nan,nan,nan,nan,nan,nan,[ nan  nan  nan],nan,nan,nan,113.5989257,182.707589,183.0373522,nan,nan
0,65,17:37:41:806000,6,1,249,175.078125,[ 0.55727555  0.22802627  0.65408488],1,1,1,0.25995934,0,nan,nan,nan,nan,nan,nan,nan,nan,nan,nan,[ nan  nan  nan],nan,nan,nan,113.5989257,183.6493823,183.9093417,nan,nan
0,66,17:37:42:742000,6,1,461,324.140625,[ 0.42395965  0.38092737 -1.        ],1,1,1,0.390150266,0,nan,nan,nan,nan,nan,nan,nan,nan,nan,nan,[ nan  nan  nan],nan,nan,nan,113.5989257,184.5911816,184.9813319,nan,nan
0,67,17:37:47:469000,6,1,285,200.390625,[ 0.17873435  0.35687868  0.59852701],1,1,1,0.312312995,1,nan,nan,nan,nan,nan,nan,nan,nan,-128.840837,311,[-0.03972498  0.41902022  0.46225021],nan,18.45021197,1.7172073,113.5989257,185.5329732,185.8452862,187.3664944,189.0917548
0,68,17:37:48:405000,6,1,236,165.9375,[ 0.69700456  0.16930175  0.63406585],1,1,1,0.666888947,0,nan,nan,nan,nan,nan,nan,nan,nan,nan,nan,[ nan  nan  nan],nan,nan,nan,113.5989257,190.2502832,190.9171721,nan,nan
0,69,17:37:49:341000,6,1,173,121.640625,[ 1.         -0.16590952  0.27353519],1,1,1,0.581052159,0,nan,nan,nan,nan,nan,nan,nan,nan,nan,nan,[ nan  nan  nan],nan,nan,nan,113.5989257,191.1920979,191.77315,nan,nan
0,70,17:37:54:270000,6,1,282,198.28125,[ 0.20814231  0.34807905  0.6092955 ],1,1,1,0.615279963,1,nan,nan,nan,nan,nan,nan,nan,nan,-147.3448404,338,[-0.16289136  0.45892871  0.25039916],nan,39.06359044,1.917268766,113.5989257,192.1338781,192.749158,193.9673992,195.8926818
0,71,17:37:55:222000,6,1,155,108.984375,[ 1.         -0.24798314  0.11161188],1,1,1,0.393815463,0,nan,nan,nan,nan,nan,nan,nan,nan,nan,nan,[ nan  nan  nan],nan,nan,nan,113.5989257,197.0512107,197.4450262,nan,nan
0,72,17:37:56:158000,6,1,208,146.25,[ 0.97651258  0.02502074  0.52257448],1,1,1,0.355691534,0,nan,nan,nan,nan,nan,nan,nan,nan,nan,nan,[ nan  nan  nan],nan,nan,nan,113.5989257,198.0013077,198.3569993,nan,nan
0,73,17:37:57:094000,6,1,150,105.46875,[ 1.         -0.26615253  0.06382271],1,1,1,0.349835656,0,nan,nan,nan,nan,nan,nan,nan,nan,nan,nan,[ nan  nan  nan],nan,nan,nan,113.5989257,198.9431418,199.2929775,nan,nan
0,74,17:37:58:045000,6,1,347,243.984375,[-0.17493884  0.46723881  0.16715748],1,1,1,0.288024502,0,nan,nan,nan,nan,nan,nan,nan,nan,nan,nan,[ nan  nan  nan],nan,nan,nan,113.5989257,199.8849357,200.1729602,nan,nan
0,75,17:37:58:981000,6,1,500,351.5625,[ 0.74814593  0.26005829 -1.        ],1,1,1,0.314215727,0,nan,nan,nan,nan,nan,nan,nan,nan,nan,nan,[ nan  nan  nan],nan,nan,nan,113.5989257,200.8267302,201.1409459,nan,nan
0,76,17:37:59:917000,6,1,426,299.53125,[ 0.15619305  0.44621085 -0.8148597 ],1,1,1,0.396417537,0,nan,nan,nan,nan,nan,nan,nan,nan,nan,nan,[ nan  nan  nan],nan,nan,nan,113.5989257,201.768505,202.1649225,nan,nan
0,77,17:38:00:869000,6,1,254,178.59375,[ 0.50301113  0.24894782  0.65613358],1,1,1,0.462570707,0,nan,nan,nan,nan,nan,nan,nan,nan,nan,nan,[ nan  nan  nan],nan,nan,nan,113.5989257,202.7103228,203.1728935,nan,nan
0,78,17:38:01:805000,6,1,122,85.78125,[ 1.         -0.31115954 -0.21914422],1,1,1,0.424743563,0,nan,nan,nan,nan,nan,nan,nan,nan,nan,nan,[ nan  nan  nan],nan,nan,nan,113.5989257,203.6521164,204.07686,nan,nan
0,79,17:38:02:757000,6,1,423,297.421875,[ 0.13522958  0.45008089 -0.75003992],1,1,1,0.498928466,0,nan,nan,nan,nan,nan,nan,nan,nan,nan,nan,[ nan  nan  nan],nan,nan,nan,113.5989257,204.5939094,205.0928379,nan,nan
0,80,17:38:03:693000,6,1,308,216.5625,[-0.01868286  0.41309748  0.48168233],1,1,1,0.445118254,0,0,0,0.456263427,0.425221622,0.186589482,0.611811104,0.23863214,nan,nan,nan,[ nan  nan  nan],nan,nan,nan,113.5989257,205.535697,205.9808153,nan,nan
0,81,17:38:04:629000,6,1,227,159.609375,[ 0.79101995  0.12525779  0.60806671],1,1,1,0.487295112,0,0,0,0.477113944,0.425494179,0.185321496,0.610815674,0.240172683,nan,nan,nan,[ nan  nan  nan],nan,nan,nan,113.5989257,206.4775157,206.9648109,nan,nan
0,82,17:38:05:580000,6,1,66,46.40625,[ 1.         -0.11856871 -1.        ],1,1,1,0.601489571,0,0,0,0.511300979,0.426329326,0.184203321,0.610532647,0.242126005,nan,nan,nan,[ nan  nan  nan],nan,nan,nan,113.5989257,207.4192888,208.0207784,nan,nan
0,83,17:38:06:516000,6,1,464,326.25,[ 0.44840488  0.37350356 -1.        ],1,1,1,0.699655917,0,0,0,0.596146867,0.428664796,0.184070853,0.612735649,0.244593943,nan,nan,nan,[ nan  nan  nan],nan,nan,nan,113.5989257,208.361089,209.0607449,nan,nan
0,84,17:38:07:452000,6,1,412,289.6875,[ 0.06188912  0.46209661 -0.57115894],1,1,1,0.709844688,0,0,1,0.670330059,0.432230469,0.185444908,0.617675376,0.246785561,nan,nan,nan,[ nan  nan  nan],nan,nan,nan,113.5989257,209.3028903,210.012735,nan,nan
0,85,17:38:12:054000,6,1,187,131.484375,[ 1.         -0.09124635  0.38538321],1,1,1,0.735987447,1,0,0,0.715162684,0.435835848,0.186898632,0.62273448,0.248937216,nan,-2.045408489,131,[ 1.         -0.30845167 -0.1258005 ],nan,-39.43896651,1.558819781,113.5989257,210.2447138,210.9807013,212.1115798,213.6784219
0,86,17:38:12:990000,6,1,119,83.671875,[ 1.         -0.30944633 -0.2507109 ],1,1,1,0.439635282,0,0,0,0.628489139,0.439683946,0.188741804,0.62842575,0.250942141,nan,nan,nan,[ nan  nan  nan],nan,nan,nan,113.5989257,214.8369725,215.2766078,nan,nan
0,87,17:38:13:942000,6,0,357,251.015625,[-0.17179183  0.47376752  0.06873903],0,1,0,0.505812115,0,0,0,0.560478281,0.43968333,0.187543432,0.627226762,0.252139898,nan,nan,nan,[ nan  nan  nan],nan,nan,nan,113.5989257,215.7787704,216.2845825,nan,nan
0,88,17:38:14:878000,6,1,33,23.203125,[ 1.          0.05659903 -1.        ],1,1,1,0.63601245,0,0,0,0.527153282,0.44050994,0.186512363,0.627022302,0.253997577,nan,nan,nan,[ nan  nan  nan],nan,nan,nan,113.5989257,216.720558,217.3565705,nan,nan
0,89,17:38:15:814000,6,1,213,149.765625,[ 0.92978509  0.05216688  0.54890652],1,1,1,0.694181213,0,0,0,0.612001926,0.442923551,0.186610384,0.629533935,0.256313166,nan,nan,nan,[ nan  nan  nan],nan,nan,nan,113.5989257,217.6623596,218.3565408,nan,nan
0,90,17:38:16:766000,6,1,169,118.828125,[ 1.         -0.18591738  0.2391183 ],1,1,1,0.736285657,0,0,1,0.68882644,0.445987669,0.18750801,0.633495679,0.258479659,nan,nan,nan,[ nan  nan  nan],nan,nan,nan,113.5989257,218.6042368,219.3405224,nan,nan
0,91,17:38:17:702000,6,1,5,3.515625,[ 0.88714031  0.19065985 -1.        ],1,nan,nan,nan,0,0,0,0.715233435,0.449485235,0.189046957,0.638532191,0.260438278,nan,nan,nan,[ nan  nan  nan],nan,nan,nan,113.5989257,219.5459485,nan,nan,nan
0,92,17:38:18:653000,6,1,291,204.609375,[ 0.12202764  0.37344194  0.57379193],1,nan,nan,nan,0,0,0,0.736285657,0.449485235,0.189046957,0.638532191,0.260438278,nan,nan,nan,[ nan  nan  nan],nan,nan,nan,113.5989257,220.4877404,nan,nan,nan
0,93,17:38:19:589000,6,1,130,91.40625,[ 1.         -0.30933315 -0.13607149],1,nan,nan,nan,0,0,0,nan,0.449485235,0.189046957,0.638532191,0.260438278,nan,nan,nan,[ nan  nan  nan],nan,nan,nan,113.5989257,221.4295466,nan,nan,nan
0,94,17:38:20:541000,6,1,179,125.859375,[ 1.         -0.13461442  0.32320413],1,nan,nan,nan,0,0,0,nan,0.449485235,0.189046957,0.638532191,0.260438278,nan,nan,nan,[ nan  nan  nan],nan,nan,nan,113.5989257,222.3796921,nan,nan,nan
0,95,17:38:21:477000,6,1,393,276.328125,[-0.04894566  0.47510217 -0.32744323],1,1,1,0.114962508,0,0,0,0.114962508,0.449485235,0.189046957,0.638532191,0.260438278,nan,nan,nan,[ nan  nan  nan],nan,nan,nan,113.5989257,223.321488,223.4364505,nan,nan
0,96,17:38:22:413000,6,0,175,123.046875,[ 1.         -0.15562995  0.29036176],0,0,1,0.549111398,0,0,0,0.332036953,0.445502821,0.191388711,0.636891532,0.254114111,nan,nan,nan,[ nan  nan  nan],nan,nan,nan,113.5989257,224.2632642,224.8123756,nan,nan
0,97,17:38:23:364000,6,1,5,3.515625,[ 0.88714031  0.19065985 -1.        ],1,1,1,0.495278663,0,0,0,0.386450856,0.446721746,0.190587269,0.637309014,0.256134477,nan,nan,nan,[ nan  nan  nan],nan,nan,nan,113.5989257,225.2050566,225.7003353,nan,nan
0,98,17:38:24:300000,6,0,251,176.484375,[ 0.53557652  0.23650919  0.65528415],0,0,1,0.641491145,0,0,0,0.561960402,0.447286361,0.189547455,0.636833816,0.257738906,nan,nan,nan,[ nan  nan  nan],nan,nan,nan,113.5989257,226.1468451,226.7883363,nan,nan
0,99,17:38:25:252000,6,1,124,87.1875,[ 1.         -0.31157719 -0.19822652],1,1,1,0.587689771,0,0,0,0.57481986,0.4495186,0.189588497,0.639107097,0.259930103,nan,nan,nan,[ nan  nan  nan],nan,nan,nan,113.5989257,227.088635,227.6763248,nan,nan
0,100,17:38:26:188000,6,1,398,279.84375,[-0.02203778  0.4726088  -0.38794338],1,1,1,0.693860765,0,0,0,0.641013894,0.451088727,0.189076246,0.640164973,0.262012481,nan,nan,nan,[ nan  nan  nan],nan,nan,nan,113.5989257,228.0304406,228.7243014,nan,nan
0,101,17:38:27:124000,6,1,99,69.609375,[ 1.         -0.26717627 -0.4687933 ],1,nan,nan,nan,0,0,0,0.640775268,0.453816503,0.189744382,0.643560884,0.264072121,nan,nan,nan,[ nan  nan  nan],nan,nan,nan,113.5989257,228.9722302,nan,nan,nan
0,102,17:38:28:076000,6,1,479,336.796875,[ 0.57257215  0.33176822 -1.        ],1,nan,nan,nan,0,0,0,0.693860765,0.453816503,0.189744382,0.643560884,0.264072121,nan,nan,nan,[ nan  nan  nan],nan,nan,nan,113.5989257,229.9140258,nan,nan,nan
0,103,17:38:29:012000,6,1,175,123.046875,[ 1.         -0.15562995  0.29036176],1,nan,nan,nan,0,0,0,nan,0.453816503,0.189744382,0.643560884,0.264072121,nan,nan,nan,[ nan  nan  nan],nan,nan,nan,113.5989257,230.855818,nan,nan,nan
0,104,17:38:29:948000,6,1,286,201.09375,[ 0.16907896  0.35973478  0.59469871],1,1,1,0.070637165,0,0,0,0.070637165,0.453816503,0.189744382,0.643560884,0.264072121,nan,nan,nan,[ nan  nan  nan],nan,nan,nan,113.5989257,231.7976204,231.8682576,nan,nan
0,105,17:38:30:899000,6,1,34,23.90625,[ 1.          0.05144197 -1.        ],1,1,1,0.240789181,0,0,0,0.155713173,0.449558954,0.192914944,0.642473898,0.256644011,nan,nan,nan,[ nan  nan  nan],nan,nan,nan,113.5989257,232.739412,232.9802012,nan,nan
0,106,17:38:31:835000,6,1,440,309.375,[ 0.2586994  0.4246574 -1.       ],1,1,1,0.354963113,0,1,0,0.222129819,0.447264781,0.193082618,0.640347399,0.254182163,nan,nan,nan,[ nan  nan  nan],nan,nan,nan,113.5989257,233.6812105,234.0361736,nan,nan
0,107,17:38:37:264000,6,1,230,161.71875,[ 0.76002313  0.14022421  0.6178111 ],1,1,1,0.39715109,1,0,0,0.330967794,0.446261502,0.192268739,0.638530241,0.253992763,nan,-65.78486101,222,[ 0.84177847  0.09972916  0.58948469],nan,-5.933888986,2.425580036,113.5989257,234.6230012,235.0201523,236.4565221,238.8901886
0,108,17:38:38:200000,6,1,107,75.234375,[ 1.         -0.29008977 -0.37959278],1,nan,nan,nan,0,0,0,0.376057101,0.445733433,0.191299308,0.637032741,0.254434125,nan,nan,nan,[ nan  nan  nan],nan,nan,nan,113.5989257,240.0487589,nan,nan,nan
0,109,17:38:39:152000,6,1,181,127.265625,[ 1.         -0.12391439  0.33920113],1,nan,nan,nan,0,0,0,0.39715109,0.445733433,0.191299308,0.637032741,0.254434125,nan,nan,nan,[ nan  nan  nan],nan,nan,nan,113.5989257,240.9905753,nan,nan,nan
0,110,17:38:40:088000,6,1,25,17.578125,[ 1.          0.09706829 -1.        ],1,1,1,0.039670862,0,0,0,0.039670862,0.445733433,0.191299308,0.637032741,0.254434125,nan,nan,nan,[ nan  nan  nan],nan,nan,nan,113.5989257,241.9323315,241.9720024,nan,nan
0,111,17:38:41:039000,6,0,403,283.359375,[ 0.00657627  0.46945644 -0.45052451],0,1,0,0.113880568,0,0,0,0.076775715,0.441413619,0.194785951,0.636199569,0.246627668,nan,nan,nan,[ nan  nan  nan],nan,nan,nan,113.5989257,242.8741266,242.9880071,nan,nan
0,112,17:38:41:975000,6,1,272,191.25,[ 0.3101667   0.31621412  0.63728143],1,1,1,0.484020781,0,0,0,0.21252407,0.437965902,0.196620284,0.634586186,0.241345619,nan,nan,nan,[ nan  nan  nan],nan,nan,nan,113.5989257,243.8159111,244.2999318,nan,nan
0,113,17:38:42:911000,6,1,370,260.15625,[-0.144806    0.47817873 -0.06718033],1,1,1,0.430196029,0,0,0,0.342699126,0.438445641,0.195649423,0.634095063,0.242796218,nan,nan,nan,[ nan  nan  nan],nan,nan,nan,113.5989257,244.7577175,245.1879135,nan,nan
0,114,17:38:43:863000,6,1,468,329.0625,[ 0.48123648  0.36313162 -1.        ],1,1,1,0.328384727,0,0,0,0.414200513,0.438360593,0.194640091,0.633000684,0.243720502,nan,nan,nan,[ nan  nan  nan],nan,nan,nan,113.5989257,245.6995176,246.0279024,nan,nan
0,115,17:38:44:799000,6,1,262,184.21875,[ 0.41645248  0.28041442  0.65281554],1,1,1,0.450564448,0,0,0,0.403048401,0.43723839,0.19395964,0.63119803,0.243278751,nan,nan,nan,[ nan  nan  nan],nan,nan,nan,113.5989257,246.6413127,247.0918771,nan,nan
0,116,17:38:45:735000,6,1,311,218.671875,[-0.03972498  0.41902022  0.46225021],1,1,1,0.412739869,0,0,0,0.397229681,0.437372997,0.19298216,0.630355157,0.244390837,nan,nan,nan,[ nan  nan  nan],nan,nan,nan,113.5989257,247.5831077,247.9958476,nan,nan
0,117,17:38:46:686000,6,1,156,109.6875,[ 1.         -0.24406061  0.12104147],1,1,1,0.486907381,0,0,0,0.450070566,0.437126666,0.192030467,0.629157132,0.245096199,nan,nan,nan,[ nan  nan  nan],nan,nan,nan,113.5989257,248.5249235,249.0118309,nan,nan
0,118,17:38:47:622000,6,0,397,279.140625,[-0.02756135  0.47315999 -0.37569455],0,0,1,0.553111584,0,0,0,0.484252945,0.437619544,0.191141014,0.628760558,0.24647853,nan,nan,nan,[ nan  nan  nan],nan,nan,nan,113.5989257,249.4666921,250.0198036,nan,nan
0,119,17:38:48:558000,6,1,345,242.578125,[-0.17351954  0.46559515  0.18611928],1,1,1,0.45129515,0,0,0,0.497104705,0.438751819,0.190541829,0.629293648,0.24820999,nan,nan,nan,[ nan  nan  nan],nan,nan,nan,113.5989257,250.4084874,250.8597825,nan,nan
0,120,17:38:49:510000,6,1,68,47.8125,[ 1.         -0.12901814 -0.9729032 ],1,1,1,0.437473112,0,0,0,0.480626615,0.438873599,0.189618601,0.6284922,0.249254997,nan,nan,nan,[ nan  nan  nan],nan,nan,nan,113.5989257,251.3502853,251.7877584,nan,nan
0,121,17:38:50:446000,6,1,453,318.515625,[ 0.35967042  0.39926175 -1.        ],1,1,1,0.511662861,0,0,0,0.466810374,0.438860133,0.188704821,0.627564954,0.250155312,nan,nan,nan,[ nan  nan  nan],nan,nan,nan,113.5989257,252.2920797,252.8037426,nan,nan
0,122,17:38:51:398000,6,1,135,94.921875,[ 1.         -0.30350232 -0.08497887],1,1,1,0.553842285,0,0,0,0.500992753,0.439553492,0.187937141,0.627490633,0.251616351,nan,nan,nan,[ nan  nan  nan],nan,nan,nan,113.5989257,253.2338707,253.787713,nan,nan
0,123,17:38:52:334000,6,1,32,22.5,[ 1.         0.0617358 -1.       ],1,1,1,0.5800184,0,0,0,0.548507849,0.440631688,0.187374548,0.628006236,0.25325714,nan,nan,nan,[ nan  nan  nan],nan,nan,nan,113.5989257,254.1756644,254.7556828,nan,nan
0,124,17:38:53:270000,6,1,129,90.703125,[ 1.         -0.31007049 -0.146368  ],1,1,1,0.558207394,0,0,0,0.564022693,0.441934368,0.186978547,0.628912914,0.254955821,nan,nan,nan,[ nan  nan  nan],nan,nan,nan,113.5989257,255.117458,255.6756654,nan,nan
0,125,17:38:54:221000,6,1,339,238.359375,[-0.16495584  0.45996923  0.2414231 ],1,1,1,0.488307489,0,0,0,0.542177761,0.44301097,0.186443785,0.629454755,0.256567185,nan,nan,nan,[ nan  nan  nan],nan,nan,nan,113.5989257,256.0593445,256.547652,nan,nan
0,126,17:38:55:157000,6,0,21,14.765625,[ 1.        0.116714 -1.      ],0,0,1,0.554574983,0,0,0,0.533696622,0.443426534,0.185636809,0.629063343,0.257789725,nan,nan,nan,[ nan  nan  nan],nan,nan,nan,113.5989257,257.0010563,257.5556313,nan,nan
0,127,17:38:56:093000,6,1,300,210.9375,[ 0.04335371  0.39574842  0.52895103],1,1,1,0.500753082,0,0,0,0.514545184,0.444436975,0.185091952,0.629528927,0.259345022,nan,nan,nan,[ nan  nan  nan],nan,nan,nan,113.5989257,257.9428485,258.4436015,nan,nan
0,128,17:38:57:045000,6,1,197,138.515625,[ 1.         -0.0357976   0.45577474],1,1,1,0.342959134,0,0,0,0.466095733,0.444944327,0.184333137,0.629277464,0.26061119,nan,nan,nan,[ nan  nan  nan],nan,nan,nan,113.5989257,258.8846406,259.2275998,nan,nan
0,129,17:38:57:981000,6,1,44,30.9375,[ 1.         -0.00106984 -1.        ],1,1,1,0.185135536,0,0,0,0.342949251,0.444033745,0.183758975,0.62779272,0.26027477,nan,nan,nan,[ nan  nan  nan],nan,nan,nan,113.5989257,259.8264334,260.0115689,nan,nan
0,130,17:38:58:932000,6,0,211,148.359375,[ 0.94867577  0.04136069  0.53868916],0,0,1,0.387310422,0,0,0,0.305135031,0.44174261,0.184543914,0.626286524,0.257198696,nan,nan,nan,[ nan  nan  nan],nan,nan,nan,113.5989257,260.7682313,261.1555417,nan,nan
0,131,17:38:59:868000,6,1,343,241.171875,[-0.17138818  0.46383642  0.20482281],1,1,1,0.301495587,0,0,0,0.291313848,0.441265135,0.183802822,0.625067957,0.257462313,nan,nan,nan,[ nan  nan  nan],nan,nan,nan,113.5989257,261.7100257,262.0115213,nan,nan
0,132,17:39:00:804000,6,1,21,14.765625,[ 1.        0.116714 -1.      ],1,1,1,0.271682499,0,0,0,0.320162836,0.440049748,0.183461454,0.623511201,0.256588294,nan,nan,nan,[ nan  nan  nan],nan,nan,nan,113.5989257,262.651821,262.9235035,nan,nan
0,133,17:39:01:756000,6,0,81,56.953125,[ 1.         -0.19380425 -0.69421917],0,1,0,0.289895874,0,0,0,0.28769132,0.438598306,0.183330896,0.621929202,0.25526741,nan,nan,nan,[ nan  nan  nan],nan,nan,nan,113.5989257,263.5936278,263.8835236,nan,nan
0,134,17:39:02:692000,6,1,346,243.28125,[-0.17431756  0.46643129  0.17667017],1,1,1,0.260047149,0,0,0,0.273875174,0.437327345,0.18305827,0.620385615,0.254269075,nan,nan,nan,[ nan  nan  nan],nan,nan,nan,113.5989257,264.5354085,264.7954557,nan,nan
0,135,17:39:03:628000,6,1,235,165.234375,[ 0.70759192  0.16453778  0.63165963],1,1,1,0.342242687,0,0,0,0.297395237,0.43582497,0.183003903,0.618828873,0.252821067,nan,nan,nan,[ nan  nan  nan],nan,nan,nan,113.5989257,265.477203,265.8194457,nan,nan
0,136,17:39:04:580000,6,1,349,245.390625,[-0.17565689  0.46876851  0.14794518],1,1,1,0.304411836,0,0,0,0.302233891,0.435038565,0.182433472,0.617472036,0.252605093,nan,nan,nan,[ nan  nan  nan],nan,nan,nan,113.5989257,266.418998,266.7234099,nan,nan
0,137,17:39:05:516000,6,1,455,319.921875,[ 0.37560825  0.39487537 -1.        ],1,1,1,0.290615457,0,0,0,0.312423327,0.433950008,0.182059417,0.616009426,0.251890591,nan,nan,nan,[ nan  nan  nan],nan,nan,nan,113.5989257,267.3607908,267.6514062,nan,nan
0,138,17:39:06:467000,6,1,215,151.171875,[ 0.91063986  0.06289474  0.55869515],1,1,1,0.34879648,0,0,0,0.314607925,0.432765425,0.181769329,0.614534754,0.250996096,nan,nan,nan,[ nan  nan  nan],nan,nan,nan,113.5989257,268.3025915,268.651388,nan,nan
0,139,17:39:07:403000,6,1,446,313.59375,[ 0.30469626  0.41359904 -1.        ],1,1,1,0.326981483,0,0,0,0.32213114,0.432077155,0.181181092,0.613258248,0.250896063,nan,nan,nan,[ nan  nan  nan],nan,nan,nan,113.5989257,269.2443797,269.5713612,nan,nan
0,140,17:39:08:339000,6,0,283,198.984375,[ 0.19826868  0.35105092  0.60582595],0,0,1,0.449156642,0,0,0,0.374978202,0.431222719,0.180689714,0.611912433,0.250533005,nan,nan,nan,[ nan  nan  nan],nan,nan,nan,113.5989257,270.1861727,270.6353294,nan,nan
0,141,17:39:09:291000,6,1,388,272.8125,[-0.07396337  0.47694192 -0.26857716],1,1,1,0.467334381,0,0,0,0.414490836,0.431367347,0.1799668,0.611334147,0.251400547,nan,nan,nan,[ nan  nan  nan],nan,nan,nan,113.5989257,271.1279686,271.595303,nan,nan
0,142,17:39:10:227000,6,0,81,56.953125,[ 1.         -0.19380425 -0.69421917],0,0,1,0.661518018,0,0,0,0.526003014,0.431655084,0.179274122,0.610929206,0.252380961,nan,nan,nan,[ nan  nan  nan],nan,nan,nan,113.5989257,272.0697645,272.7312825,nan,nan
0,143,17:39:11:163000,6,1,390,274.21875,[-0.06419603  0.4762842  -0.29194755],1,1,1,0.567686276,0,0,0,0.565512892,0.433479393,0.179722427,0.61320182,0.253756966,nan,nan,nan,[ nan  nan  nan],nan,nan,nan,113.5989257,273.0115632,273.5792495,nan,nan
0,144,17:39:12:114000,6,1,48,33.75,[ 1.         -0.02242733 -1.        ],1,1,1,0.481894533,0,0,0,0.570366276,0.43453614,0.179406034,0.613942173,0.255130106,nan,nan,nan,[ nan  nan  nan],nan,nan,nan,113.5989257,273.9533551,274.4352496,nan,nan
0,145,17:39:13:050000,6,1,322,226.40625,[-0.10506723  0.43811622  0.38355935],1,1,1,0.396076277,0,0,0,0.481885695,0.434906127,0.17875249,0.613658618,0.256153637,nan,nan,nan,[ nan  nan  nan],nan,nan,nan,113.5989257,274.8951524,275.2912287,nan,nan
0,146,17:39:14:002000,6,1,49,34.453125,[ 1.         -0.02778543 -1.        ],1,1,1,0.326264181,0,0,0,0.401411664,0.434605121,0.178090867,0.612695987,0.256514254,nan,nan,nan,[ nan  nan  nan],nan,nan,nan,113.5989257,275.8369415,276.1632056,nan,nan
0,147,17:39:14:938000,6,1,165,116.015625,[ 1.         -0.20505638  0.20374544],1,1,1,0.320438809,0,0,0,0.347593089,0.433771729,0.177656919,0.611428647,0.25611481,nan,nan,nan,[ nan  nan  nan],nan,nan,nan,113.5989257,276.7787379,277.0991767,nan,nan
0,148,17:39:15:874000,6,1,124,87.1875,[ 1.         -0.31157719 -0.19822652],1,1,1,0.346592971,0,0,0,0.331098654,0.432906592,0.17725222,0.610158812,0.255654372,nan,nan,nan,[ nan  nan  nan],nan,nan,nan,113.5989257,277.7205344,278.0671273,nan,nan
0,149,17:39:16:826000,6,1,346,243.28125,[-0.17431756  0.46643129  0.17667017],1,1,1,0.324755737,0,0,0,0.330595839,0.432252701,0.176738066,0.608990767,0.255514635,nan,nan,nan,[ nan  nan  nan],nan,nan,nan,113.5989257,278.6623454,278.9871011,nan,nan
0,150,17:39:17:762000,6,1,11,7.734375,[ 0.9346595  0.1638529 -1.       ],1,1,1,0.342991635,0,0,0,0.338113448,0.431444453,0.176317087,0.60776154,0.255127366,nan,nan,nan,[ nan  nan  nan],nan,nan,nan,113.5989257,279.6041222,279.9471138,nan,nan
0,151,17:39:18:698000,6,0,163,114.609375,[ 1.         -0.2142478   0.18572368],0,1,0,0.361163957,0,0,0,0.342970443,0.430784357,0.175822834,0.606607191,0.254961524,nan,nan,nan,[ nan  nan  nan],nan,nan,nan,113.5989257,280.5459229,280.9070868,nan,nan
0,152,17:39:19:649000,6,1,328,230.625,[-0.13215956  0.44685797  0.33604616],1,1,1,0.435351425,0,0,0,0.379835672,0.430268651,0.175272121,0.605540772,0.25499653,nan,nan,nan,[ nan  nan  nan],nan,nan,nan,113.5989257,281.4877193,281.9230708,nan,nan
0,153,17:39:20:585000,6,1,420,295.3125,[ 0.11466019  0.4536941  -0.6950475 ],1,1,1,0.549558999,0,0,0,0.44869146,0.430306024,0.174627089,0.604933114,0.255678935,nan,nan,nan,[ nan  nan  nan],nan,nan,nan,113.5989257,282.4295161,282.9790751,nan,nan
0,154,17:39:21:537000,6,1,278,195.46875,[ 0.24828552  0.33580281  0.62196257],1,1,1,0.575717153,0,0,0,0.520209192,0.431176484,0.174284477,0.605460961,0.256892006,nan,nan,nan,[ nan  nan  nan],nan,nan,nan,113.5989257,283.3712994,283.9470166,nan,nan
0,155,17:39:22:473000,6,1,4,2.8125,[ 0.87912605  0.19501404 -1.        ],1,1,1,0.681879594,0,0,0,0.602385249,0.43222388,0.174084072,0.606307952,0.258139808,nan,nan,nan,[ nan  nan  nan],nan,nan,nan,113.5989257,284.3131013,284.9949809,nan,nan
0,156,17:39:23:409000,6,1,354,248.90625,[-0.17447067  0.47210079  0.09886772],1,1,1,0.700089834,0,0,1,0.652562193,0.434019964,0.174735278,0.608755242,0.259284686,nan,nan,nan,[ nan  nan  nan],nan,nan,nan,113.5989257,285.2548909,285.9549807,nan,nan
0,157,17:39:27:309000,6,1,201,141.328125,[ 1.         -0.01357126  0.48142235],1,1,1,0.702162769,1,0,0,0.694710732,0.435920463,0.175545955,0.611466418,0.260374508,nan,-10.28012871,143,[ 1.         -0.28705753 -0.00469999],nan,-41.04799629,0.900447516,113.5989257,286.1967891,286.8989519,288.0302022,288.938698
0,158,17:39:28:245000,6,1,146,102.65625,[ 1.         -0.27879258  0.02488132],1,1,1,0.369991393,0,0,0,0.590747999,0.437808707,0.17634339,0.614152097,0.261465316,nan,nan,nan,[ nan  nan  nan],nan,nan,nan,113.5989257,290.0888816,290.458873,nan,nan
0,159,17:39:29:196000,6,1,66,46.40625,[ 1.         -0.11856871 -1.        ],1,1,1,0.380158782,0,0,0,0.484104315,0.43733112,0.175812852,0.613143972,0.261518268,nan,nan,nan,[ nan  nan  nan],nan,nan,nan,113.5989257,291.0306798,291.4108386,nan,nan
0,160,17:39:30:132000,6,1,23,16.171875,[ 1.          0.10694394 -1.        ],1,1,1,0.366364968,0,0,0,0.372171714,0.436931313,0.17526181,0.612193123,0.261669503,nan,nan,nan,[ nan  nan  nan],nan,nan,nan,113.5989257,291.9724714,292.3388364,nan,nan
0,161,17:39:31:068000,6,1,217,152.578125,[ 0.89125041  0.07353733  0.56804835],1,1,1,0.416536782,0,0,0,0.387686844,0.436441269,0.174750485,0.611191754,0.261690784,nan,nan,nan,[ nan  nan  nan],nan,nan,nan,113.5989257,292.9142639,293.3308006,nan,nan
0,162,17:39:32:020000,6,1,269,189.140625,[ 0.34171297  0.30588835  0.64326235],1,1,1,0.378743564,0,0,0,0.387215104,0.436303997,0.174154645,0.610458642,0.262149352,nan,nan,nan,[ nan  nan  nan],nan,nan,nan,113.5989257,293.8560469,294.2347905,nan,nan
0,163,17:39:32:956000,6,1,507,356.484375,[ 0.80599565  0.23268835 -1.        ],1,1,1,0.540888081,0,0,0,0.445389475,0.435909747,0.173622117,0.609531865,0.26228763,nan,nan,nan,[ nan  nan  nan],nan,nan,nan,113.5989257,294.7978562,295.3387443,nan,nan
0,164,17:39:33:892000,6,0,3,2.109375,[ 0.87108718  0.19933511 -1.        ],0,0,1,0.583081189,0,0,0,0.500904278,0.436623886,0.173245586,0.609869472,0.2633783,nan,nan,nan,[ nan  nan  nan],nan,nan,nan,113.5989257,295.7396492,296.3227304,nan,nan
0,165,17:39:34:844000,6,1,114,80.15625,[ 1.         -0.30374746 -0.30385937],1,1,1,0.473243857,0,0,0,0.532404376,0.437613462,0.173075668,0.61068913,0.264537794,nan,nan,nan,[ nan  nan  nan],nan,nan,nan,113.5989257,296.6814688,297.1547126,nan,nan
0,166,17:39:35:780000,6,1,357,251.015625,[-0.17179183  0.47376752  0.06873903],1,1,1,0.531402357,0,0,0,0.529242468,0.437852592,0.17251843,0.610371022,0.265334163,nan,nan,nan,[ nan  nan  nan],nan,nan,nan,113.5989257,297.6232359,298.1546382,nan,nan
0,167,17:39:36:731000,6,1,89,62.578125,[ 1.         -0.2294841  -0.58737049],1,1,1,0.669634709,0,0,0,0.558093641,0.438476257,0.172110854,0.610587111,0.266365404,nan,nan,nan,[ nan  nan  nan],nan,nan,nan,113.5989257,298.5650323,299.234667,nan,nan
0,168,17:39:37:667000,6,1,399,280.546875,[-0.01644604  0.47203125 -0.40027452],1,1,1,0.64781401,0,0,1,0.616283692,0.440007108,0.172561578,0.612568686,0.26744553,nan,nan,nan,[ nan  nan  nan],nan,nan,nan,113.5989257,299.506831,300.1546451,nan,nan
0,169,17:39:38:603000,6,0,319,224.296875,[-0.08918918  0.43330867  0.4061371 ],0,nan,nan,nan,0,0,0,0.65872436,0.441374259,0.172811539,0.614185798,0.26856272,nan,nan,nan,[ nan  nan  nan],nan,nan,nan,113.5989257,300.4486295,nan,nan,nan
0,170,17:39:39:555000,6,1,80,56.25,[ 1.         -0.18907571 -0.70896555],1,0,0,0.084189786,0,0,0,0.366001898,0.441374259,0.172811539,0.614185798,0.26856272,nan,nan,nan,[ nan  nan  nan],nan,nan,nan,113.5989257,301.3904208,301.4746106,nan,nan
0,171,17:39:40:491000,6,1,241,169.453125,[ 0.64365311  0.19260594  0.64425478],1,1,1,0.470364384,0,0,0,0.277277085,0.43903972,0.174634048,0.613673767,0.264405672,nan,nan,nan,[ nan  nan  nan],nan,nan,nan,113.5989257,302.3322059,302.8025703,nan,nan
0,172,17:39:41:427000,6,1,420,295.3125,[ 0.11466019  0.4536941  -0.6950475 ],1,1,1,0.360549289,0,0,0,0.305034487,0.439243127,0.174084313,0.61332744,0.265158813,nan,nan,nan,[ nan  nan  nan],nan,nan,nan,113.5989257,303.2740032,303.6345525,nan,nan
0,173,17:39:42:378000,6,1,350,246.09375,[-0.17575682  0.46949094  0.13824748],1,1,1,0.378730734,0,0,0,0.403214803,0.438735424,0.173636186,0.61237161,0.265099239,nan,nan,nan,[ nan  nan  nan],nan,nan,nan,113.5989257,304.2158133,304.5945441,nan,nan
0,174,17:39:43:314000,6,1,247,173.671875,[ 0.57894763  0.21939267  0.65238059],1,1,1,0.428911956,0,0,0,0.389397326,0.438350779,0.173145001,0.61149578,0.265205778,nan,nan,nan,[ nan  nan  nan],nan,nan,nan,113.5989257,305.1575958,305.5865078,nan,nan
0,175,17:39:44:266000,6,1,292,205.3125,[ 0.11288167  0.37606958  0.56926185],1,1,1,0.431119171,0,0,0,0.41292062,0.438290659,0.172594336,0.610884995,0.265696323,nan,nan,nan,[ nan  nan  nan],nan,nan,nan,113.5989257,306.099388,306.5305072,nan,nan
0,176,17:39:45:202000,6,1,379,266.484375,[-0.11353594  0.47861499 -0.16597052],1,1,1,0.537281328,0,0,0,0.465770818,0.43824527,0.172048225,0.610293495,0.266197045,nan,nan,nan,[ nan  nan  nan],nan,nan,nan,113.5989257,307.0411824,307.5784638,nan,nan
0,177,17:39:46:138000,6,1,299,210.234375,[ 0.05166456  0.39341767  0.53437875],1,1,1,0.515469752,0,0,0,0.494623417,0.438868138,0.171684952,0.610553091,0.267183186,nan,nan,nan,[ nan  nan  nan],nan,nan,nan,113.5989257,307.9829749,308.4984447,nan,nan
0,178,17:39:47:090000,6,1,161,113.203125,[ 1.         -0.22315835  0.16749055],1,nan,nan,nan,0,0,0,0.52637554,0.439346898,0.171254034,0.610600932,0.268092864,nan,nan,nan,[ nan  nan  nan],nan,nan,nan,113.5989257,308.9247785,nan,nan,nan
0,179,17:39:48:026000,6,1,425,298.828125,[ 0.14916262  0.4475296  -0.79171567],1,nan,nan,nan,0,0,0,0.515469752,0.439346898,0.171254034,0.610600932,0.268092864,nan,nan,nan,[ nan  nan  nan],nan,nan,nan,113.5989257,309.8665687,nan,nan,nan
0,180,17:39:48:962000,6,1,321,225.703125,[-0.09994335  0.43654647  0.39117498],1,1,1,0.146034582,0,0,0,0.146034582,0.439346898,0.171254034,0.610600932,0.268092864,nan,nan,nan,[ nan  nan  nan],nan,nan,nan,113.5989257,310.8083731,310.9544077,nan,nan
0,181,17:39:49:913000,6,1,433,304.453125,[ 0.2065363   0.43616372 -1.        ],1,1,1,0.348122513,0,0,0,0.247078547,0.437525083,0.172269629,0.609794711,0.265255454,nan,nan,nan,[ nan  nan  nan],nan,nan,nan,113.5989257,311.7502508,312.0983733,nan,nan
0,182,17:39:50:849000,6,1,183,128.671875,[ 1.         -0.113109    0.35490284],1,1,1,0.454390155,0,0,0,0.316182416,0.436973215,0.171879808,0.608853023,0.265093406,nan,nan,nan,[ nan  nan  nan],nan,nan,nan,113.5989257,312.6919552,313.1463453,nan,nan
0,183,17:39:51:785000,6,1,55,38.671875,[ 1.         -0.05999965 -1.        ],1,1,1,0.520572405,0,0,0,0.441028358,0.437080067,0.171357156,0.608437223,0.265722912,nan,nan,nan,[ nan  nan  nan],nan,nan,nan,113.5989257,313.6337411,314.1543135,nan,nan
0,184,17:39:52:737000,6,1,430,302.34375,[ 0.18472502  0.44064573 -0.94190417],1,1,1,0.626770484,0,0,0,0.533911015,0.437589167,0.17095753,0.608546697,0.266631637,nan,nan,nan,[ nan  nan  nan],nan,nan,nan,113.5989257,314.5755333,315.2023037,nan,nan
0,185,17:39:53:673000,6,1,365,256.640625,[-0.15796203  0.47701659 -0.01391969],1,nan,nan,nan,0,0,0,0.573671444,0.43873572,0.171069983,0.609805703,0.267665738,nan,nan,nan,[ nan  nan  nan],nan,nan,nan,113.5989257,315.5173192,nan,nan,nan
0,186,17:39:54:624000,6,1,262,184.21875,[ 0.41645248  0.28041442  0.65281554],1,nan,nan,nan,0,0,0,0.626770484,0.43873572,0.171069983,0.609805703,0.267665738,nan,nan,nan,[ nan  nan  nan],nan,nan,nan,113.5989257,316.4591285,nan,nan,nan
0,187,17:39:55:560000,6,1,85,59.765625,[ 1.         -0.21215645 -0.63878123],1,nan,nan,nan,0,0,0,nan,0.43873572,0.171069983,0.609805703,0.267665738,nan,nan,nan,[ nan  nan  nan],nan,nan,nan,113.5989257,317.4009169,nan,nan,nan
0,188,17:39:56:496000,6,1,206,144.84375,[ 0.99472346  0.01405192  0.51131616],1,nan,nan,nan,0,0,0,nan,0.43873572,0.171069983,0.609805703,0.267665738,nan,nan,nan,[ nan  nan  nan],nan,nan,nan,113.5989257,318.3427102,nan,nan,nan
0,189,17:39:57:448000,6,1,299,210.234375,[ 0.05166456  0.39341767  0.53437875],1,nan,nan,nan,0,0,0,nan,0.43873572,0.171069983,0.609805703,0.267665738,nan,nan,nan,[ nan  nan  nan],nan,nan,nan,113.5989257,319.2845244,nan,nan,nan
0,190,17:39:58:384000,6,1,250,175.78125,[ 0.54642845  0.23228666  0.65474773],1,nan,nan,nan,0,0,0,nan,0.43873572,0.171069983,0.609805703,0.267665738,nan,nan,nan,[ nan  nan  nan],nan,nan,nan,113.5989257,320.2262983,nan,nan,nan
0,191,17:39:59:336000,6,1,300,210.9375,[ 0.04335371  0.39574842  0.52895103],1,1,1,0.210066921,0,0,0,0.210066921,0.43873572,0.171069983,0.609805703,0.267665738,nan,nan,nan,[ nan  nan  nan],nan,nan,nan,113.5989257,321.168101,321.378168,nan,nan
0,192,17:40:00:272000,6,1,147,103.359375,[ 1.         -0.27580113  0.03467205],1,1,1,0.316243047,0,0,0,0.263154984,0.437358197,0.171469365,0.608827562,0.265888833,nan,nan,nan,[ nan  nan  nan],nan,nan,nan,113.5989257,322.1098949,322.426138,nan,nan
0,193,17:40:01:208000,6,1,203,142.734375,[ 1.         -0.00249325  0.49367467],1,1,1,0.638423794,0,0,0,0.388244587,0.436632957,0.171210386,0.607843343,0.265422571,nan,nan,nan,[ nan  nan  nan],nan,nan,nan,113.5989257,323.0516868,323.6901106,nan,nan
0,194,17:40:02:159000,6,1,438,307.96875,[ 0.24362256  0.42809644 -1.        ],1,1,1,0.784629433,0,0,0,0.579765425,0.437834093,0.171404346,0.609238439,0.266429747,nan,nan,nan,[ nan  nan  nan],nan,nan,nan,113.5989257,323.9934374,324.7780668,nan,nan
0,195,17:40:03:095000,6,1,380,267.1875,[-0.10951951  0.47853303 -0.17717739],1,nan,nan,nan,0,0,0,0.711526614,0.439886136,0.172953852,0.612839989,0.266932284,nan,nan,nan,[ nan  nan  nan],nan,nan,nan,113.5989257,324.9352772,nan,nan,nan
0,196,17:40:04:031000,6,1,89,62.578125,[ 1.         -0.2294841  -0.58737049],1,nan,nan,nan,0,0,0,0.784629433,0.439886136,0.172953852,0.612839989,0.266932284,nan,nan,nan,[ nan  nan  nan],nan,nan,nan,113.5989257,325.8770688,nan,nan,nan
0,197,17:40:04:983000,6,1,224,157.5,[ 0.82161942  0.11002479  0.59726488],1,1,1,0.239072616,0,0,0,0.239072616,0.439886136,0.172953852,0.612839989,0.266932284,nan,nan,nan,[ nan  nan  nan],nan,nan,nan,113.5989257,326.8189547,327.0580274,nan,nan
0,198,17:40:05:919000,6,1,168,118.125,[ 1.         -0.19079002  0.2303618 ],1,1,1,0.353332362,0,0,0,0.296202489,0.43870488,0.173126811,0.611831692,0.265578069,nan,nan,nan,[ nan  nan  nan],nan,nan,nan,113.5989257,327.7606597,328.113992,nan,nan
0,199,17:40:06:855000,6,1,412,289.6875,[ 0.06188912  0.46209661 -0.57115894],1,1,1,0.29151009,0,0,0,0.294638356,0.438205626,0.172742543,0.610948169,0.265463083,nan,nan,nan,[ nan  nan  nan],nan,nan,nan,113.5989257,328.7024604,328.9939705,nan,nan
0,200,17:40:07:807000,6,1,189,132.890625,[ 1.         -0.08021946  0.40014347],1,1,1,0.421691037,0,0,0,0.355511163,0.437352745,0.17260036,0.609953105,0.264752385,nan,nan,nan,[ nan  nan  nan],nan,nan,nan,113.5989257,329.6442543,330.0659453,nan,nan
0,201,17:40:08:743000,6,1,11,7.734375,[ 0.9346595  0.1638529 -1.       ],1,1,1,0.399876896,0,0,0,0.371026007,0.437262215,0.172104887,0.609367102,0.265157327,nan,nan,nan,[ nan  nan  nan],nan,nan,nan,113.5989257,330.5860419,330.9859188,nan,nan
0,202,17:40:09:694000,6,1,384,270,[-0.09247501  0.47794532 -0.22247927],1,1,1,0.362071703,0,0,0,0.394546545,0.437047357,0.171632888,0.608680245,0.265414469,nan,nan,nan,[ nan  nan  nan],nan,nan,nan,113.5989257,331.5278381,331.8899098,nan,nan
0,203,17:40:10:630000,6,1,466,327.65625,[ 0.46478901  0.3683856  -1.        ],1,1,1,0.708228762,0,0,0,0.49005912,0.436618924,0.17123509,0.607854014,0.265383834,nan,nan,nan,[ nan  nan  nan],nan,nan,nan,113.5989257,332.4696411,333.1778699,nan,nan
0,204,17:40:11:566000,6,1,324,227.8125,[-0.11479964  0.44115833  0.36806404],1,1,1,0.718426371,0,0,0,0.596242279,0.438162162,0.171964048,0.61012621,0.266198114,nan,nan,nan,[ nan  nan  nan],nan,nan,nan,113.5989257,333.4114167,334.1298431,nan,nan
0,205,17:40:12:518000,6,1,76,53.4375,[ 1.         -0.16967451 -0.77336583],1,1,1,0.704588653,0,0,1,0.710414596,0.439745576,0.172759456,0.612505031,0.26698612,nan,nan,nan,[ nan  nan  nan],nan,nan,nan,113.5989257,334.3532366,335.0578252,nan,nan
0,206,17:40:18:274000,6,1,472,331.875,[ 0.51429865  0.35221228 -1.        ],1,1,1,0.738785381,1,0,0,0.720600135,0.441233458,0.173407029,0.614640488,0.267826429,nan,138.1363584,444,[ 0.2892412   0.41740978 -1.        ],nan,-20.01135837,2.767349178,113.5989257,335.2950145,336.0337999,337.1201972,339.8955781
0,207,17:40:19:226000,6,1,308,216.5625,[-0.01868286  0.41309748  0.48168233],1,1,1,0.491533353,0,0,0,0.644969129,0.442895759,0.174338368,0.617234128,0.268557391,nan,nan,nan,[ nan  nan  nan],nan,nan,nan,113.5989257,341.0541255,341.5456589,nan,nan
0,208,17:40:20:162000,6,1,36,25.3125,[ 1.          0.04106996 -1.        ],1,1,1,0.429387211,0,0,0,0.553235315,0.443165968,0.173891004,0.617056972,0.269274964,nan,nan,nan,[ nan  nan  nan],nan,nan,nan,113.5989257,342.0042479,342.4336351,nan,nan
0,209,17:40:21:113000,6,1,183,128.671875,[ 1.         -0.113109    0.35490284],1,1,1,0.359597923,0,0,0,0.426839496,0.443089842,0.173412984,0.616502827,0.269676858,nan,nan,nan,[ nan  nan  nan],nan,nan,nan,113.5989257,342.9460492,343.3056472,nan,nan
0,210,17:40:22:049000,6,1,134,94.21875,[ 1.         -0.304951   -0.09514411],1,1,1,0.329774001,0,0,0,0.372919712,0.442631096,0.173046015,0.61567711,0.269585081,nan,nan,nan,[ nan  nan  nan],nan,nan,nan,113.5989257,343.8878494,344.2176234,nan,nan
0,211,17:40:22:985000,6,1,474,333.28125,[ 0.53090176  0.34654538 -1.        ],1,1,1,0.307957294,0,0,0,0.332443073,0.44201439,0.172772998,0.614787389,0.269241392,nan,nan,nan,[ nan  nan  nan],nan,nan,nan,113.5989257,344.8296359,345.1375932,nan,nan
0,212,17:40:23:937000,6,1,12,8.4375,[ 0.94247669  0.15927395 -1.        ],1,1,1,0.342151171,0,0,0,0.326627489,0.441285819,0.172584522,0.613870341,0.268701297,nan,nan,nan,[ nan  nan  nan],nan,nan,nan,113.5989257,345.7714346,346.1135858,nan,nan
0,213,17:40:24:873000,6,1,270,189.84375,[ 0.33115907  0.30936972  0.64139387],1,1,1,0.408332851,0,0,0,0.352813772,0.440749956,0.172270864,0.61302082,0.268479092,nan,nan,nan,[ nan  nan  nan],nan,nan,nan,113.5989257,346.7132288,347.1215616,nan,nan
0,214,17:40:25:809000,6,1,168,118.125,[ 1.         -0.19079002  0.2303618 ],1,1,1,0.378508359,0,0,0,0.376330794,0.440575671,0.171823499,0.61239917,0.268752172,nan,nan,nan,[ nan  nan  nan],nan,nan,nan,113.5989257,347.6550207,348.033529,nan,nan
0,215,17:40:26:761000,6,1,366,257.34375,[-0.15559338  0.47730203 -0.02447665],1,1,1,0.452697538,0,0,0,0.413179583,0.44024376,0.171423239,0.611666999,0.268820521,nan,nan,nan,[ nan  nan  nan],nan,nan,nan,113.5989257,348.5968154,349.049513,nan,nan
0,216,17:40:27:697000,6,1,437,307.265625,[ 0.23613483  0.42977024 -1.        ],1,1,1,0.4388755,0,0,0,0.423360466,0.440310003,0.170969118,0.611279121,0.269340886,nan,nan,nan,[ nan  nan  nan],nan,nan,nan,113.5989257,349.5386119,349.9774874,nan,nan
0,217,17:40:28:633000,6,1,46,32.34375,[ 1.         -0.01173137 -1.        ],1,1,1,0.449067122,0,0,0,0.446880053,0.440302413,0.17051625,0.610818664,0.269786163,nan,nan,nan,[ nan  nan  nan],nan,nan,nan,113.5989257,350.4804049,350.929472,nan,nan
0,218,17:40:29:584000,6,1,266,187.03125,[ 0.37357759  0.29520749  0.64811377],1,1,1,0.51524139,0,0,0,0.467728004,0.440348543,0.170068114,0.610416657,0.270280429,nan,nan,nan,[ nan  nan  nan],nan,nan,nan,113.5989257,351.4221965,351.9374379,nan,nan
0,219,17:40:30:520000,6,1,401,281.953125,[-0.00506341  0.47079689 -0.4252031 ],1,1,1,0.573428685,0,0,0,0.512579066,0.440740653,0.169708414,0.610449066,0.271032239,nan,nan,nan,[ nan  nan  nan],nan,nan,nan,113.5989257,352.3639921,352.9374208,nan,nan
0,220,17:40:31:472000,6,0,274,192.65625,[ 0.28934405  0.32290089  0.63267027],0,0,1,0.67960139,0,0,0,0.589423821,0.441431736,0.169535134,0.61096687,0.271896602,nan,nan,nan,[ nan  nan  nan],nan,nan,nan,113.5989257,353.3057908,353.9853922,nan,nan
0,221,17:40:32:408000,6,1,128,90,[ 1.         -0.31066301 -0.15668979],1,1,1,0.665784769,0,0,0,0.639604948,0.442665776,0.16995772,0.612623495,0.272708056,nan,nan,nan,[ nan  nan  nan],nan,nan,nan,113.5989257,354.2475853,354.9133701,nan,nan
0,222,17:40:33:344000,6,1,375,263.671875,[-0.1285567   0.47868243 -0.12160516],1,1,1,0.723970068,0,0,0,0.689785409,0.443815874,0.170270424,0.614086298,0.273545449,nan,nan,nan,[ nan  nan  nan],nan,nan,nan,113.5989257,355.1893766,355.9133467,nan,nan
0,223,17:40:34:295000,6,1,246,172.96875,[ 0.58976884  0.2150199   0.65133953],1,1,1,0.790125804,0,0,1,0.726626881,0.445252562,0.171008101,0.616260663,0.274244461,nan,nan,nan,[ nan  nan  nan],nan,nan,nan,113.5989257,356.1311731,356.9212989,nan,nan
0,224,17:40:39:833000,6,1,136,95.625,[ 1.         -0.3019149  -0.07484121],1,1,1,0.728353424,1,0,0,0.747483099,0.447012119,0.172331935,0.619344054,0.274680184,nan,-23.84489903,162,[ 1.         -0.21873956  0.17663297],nan,18.21989903,2.558977154,113.5989257,357.0729655,357.801319,358.8981451,361.4651588
0,225,17:40:40:769000,6,1,75,52.734375,[ 1.         -0.16471446 -0.79135592],1,1,1,0.601788352,0,0,0,0.70675586,0.448440248,0.173052868,0.621493115,0.27538738,nan,nan,nan,[ nan  nan  nan],nan,nan,nan,113.5989257,362.6153832,363.2171715,nan,nan
0,226,17:40:41:721000,6,1,488,343.125,[ 0.64790771  0.30295149 -1.        ],1,1,1,0.451956573,0,0,0,0.594032783,0.449214733,0.172957255,0.622171988,0.276257478,nan,nan,nan,[ nan  nan  nan],nan,nan,nan,113.5989257,363.5571967,364.0091533,nan,nan
0,227,17:40:42:657000,6,0,195,137.109375,[ 1.         -0.04692453  0.44239605],0,1,0,0.390166231,0,0,0,0.481303719,0.449228511,0.172522251,0.621750762,0.27670626,nan,nan,nan,[ nan  nan  nan],nan,nan,nan,113.5989257,364.4989695,364.8891358,nan,nan
0,228,17:40:43:609000,6,1,102,71.71875,[ 1.         -0.27661034 -0.43492695],1,0,0,0.10439456,0,0,0,0.315505788,0.4489332,0.17214082,0.62107402,0.27679238,nan,nan,nan,[ nan  nan  nan],nan,nan,nan,113.5989257,365.4407688,365.5451634,nan,nan
0,229,17:40:44:545000,6,1,503,353.671875,[ 0.7730202   0.24853846 -1.        ],1,1,1,0.658531349,0,0,0,0.384364047,0.447219077,0.173414763,0.62063384,0.273804314,nan,nan,nan,[ nan  nan  nan],nan,nan,nan,113.5989257,366.382551,367.0410824,nan,nan
0,230,17:40:45:481000,6,0,194,136.40625,[ 1.         -0.05248646  0.4355717 ],0,nan,nan,nan,0,0,0,0.381462954,0.448265177,0.173619598,0.621884776,0.274645579,nan,nan,nan,[ nan  nan  nan],nan,nan,nan,113.5989257,367.3243535,nan,nan,nan
0,231,17:40:46:432000,6,1,359,252.421875,[-0.16922234  0.47474188  0.0483828 ],1,0,0,0.142930738,0,0,0,0.400731044,0.448265177,0.173619598,0.621884776,0.274645579,nan,nan,nan,[ nan  nan  nan],nan,nan,nan,113.5989257,368.2661533,368.4090841,nan,nan
0,232,17:40:47:368000,6,1,315,221.484375,[-0.06571114  0.42643481  0.43495652],1,nan,nan,nan,0,0,0,0.142930738,0.446761067,0.174505782,0.621266849,0.272255285,nan,nan,nan,[ nan  nan  nan],nan,nan,nan,113.5989257,369.2079387,nan,nan,nan
0,233,17:40:48:304000,6,1,261,183.515625,[ 0.42722581  0.27661781  0.65367446],1,1,1,0.235291384,0,0,0,0.189111061,0.446761067,0.174505782,0.621266849,0.272255285,nan,nan,nan,[ nan  nan  nan],nan,nan,nan,113.5989257,370.1497346,370.3850259,nan,nan
0,234,17:40:49:256000,6,0,51,35.859375,[ 1.         -0.03851602 -1.        ],0,1,0,0.149484247,0,0,0,0.192387815,0.445724451,0.174702977,0.620427428,0.271021473,nan,nan,nan,[ nan  nan  nan],nan,nan,nan,113.5989257,371.0915307,371.241015,nan,nan
0,235,17:40:50:192000,6,1,426,299.53125,[ 0.15619305  0.44621085 -0.8148597 ],1,1,1,0.399658512,0,0,0,0.261478048,0.444279377,0.175494295,0.619773672,0.268785082,nan,nan,nan,[ nan  nan  nan],nan,nan,nan,113.5989257,372.0333149,372.4329734,nan,nan
0,236,17:40:51:128000,6,1,160,112.5,[ 1.         -0.22750142  0.15829752],1,1,1,0.369838296,0,0,0,0.306327018,0.44406277,0.175095288,0.619158058,0.268967483,nan,nan,nan,[ nan  nan  nan],nan,nan,nan,113.5989257,372.9751045,373.3449428,nan,nan
0,237,17:40:52:079000,6,1,223,156.796875,[ 0.83172397  0.10489059  0.59343224],1,1,1,0.372029261,0,0,0,0.38050869,0.443704198,0.174747641,0.618451839,0.268956557,nan,nan,nan,[ nan  nan  nan],nan,nan,nan,113.5989257,373.9169027,374.288932,nan,nan
0,238,17:40:53:015000,6,1,12,8.4375,[ 0.94247669  0.15927395 -1.        ],1,1,1,0.406188072,0,0,0,0.38268521,0.443359607,0.174397553,0.61775716,0.268962054,nan,nan,nan,[ nan  nan  nan],nan,nan,nan,113.5989257,374.8587049,375.2648929,nan,nan
0,239,17:40:53:967000,6,1,182,127.96875,[ 1.         -0.11852384  0.34708947],1,1,1,0.424383201,0,0,0,0.400866845,0.443181753,0.173998742,0.617180494,0.269183011,nan,nan,nan,[ nan  nan  nan],nan,nan,nan,113.5989257,375.8004979,376.2248811,nan,nan
0,240,17:40:54:903000,6,1,106,74.53125,[ 1.         -0.28763007 -0.39056445],1,1,1,0.570569454,0,0,0,0.467046909,0.443092236,0.173588789,0.616681025,0.269503447,nan,nan,nan,[ nan  nan  nan],nan,nan,nan,113.5989257,376.7422961,377.3128655,nan,nan
0,241,17:40:55:839000,6,1,259,182.109375,[ 0.44882283  0.26890698  0.65501178],1,1,1,0.596737871,0,0,0,0.530563509,0.443696393,0.17339812,0.617094514,0.270298273,nan,nan,nan,[ nan  nan  nan],nan,nan,nan,113.5989257,377.6840874,378.2808253,nan,nan
0,242,17:40:56:791000,6,1,416,292.5,[ 0.08788162  0.4581175  -0.63016532],1,1,1,0.630930323,0,0,0,0.59941255,0.444418287,0.173306208,0.617724495,0.27111208,nan,nan,nan,[ nan  nan  nan],nan,nan,nan,113.5989257,378.6258759,379.2568062,nan,nan
0,243,17:40:57:727000,6,1,165,116.015625,[ 1.         -0.20505638  0.20374544],1,1,1,0.769115634,0,0,1,0.66559461,0.445293931,0.173368346,0.618662276,0.271925585,nan,nan,nan,[ nan  nan  nan],nan,nan,nan,113.5989257,379.5676746,380.3367902,nan,nan
0,244,17:40:58:678000,6,1,30,21.09375,[ 1.          0.07194566 -1.        ],1,nan,nan,nan,0,0,0,0.700022979,0.446807116,0.174366982,0.621174098,0.272440134,nan,nan,nan,[ nan  nan  nan],nan,nan,nan,113.5989257,380.5094722,nan,nan,nan
0,245,17:40:59:614000,6,1,324,227.8125,[-0.11479964  0.44115833  0.36806404],1,nan,nan,nan,0,0,0,0.769115634,0.446807116,0.174366982,0.621174098,0.272440134,nan,nan,nan,[ nan  nan  nan],nan,nan,nan,113.5989257,381.4512823,nan,nan,nan
0,246,17:41:00:550000,6,1,173,121.640625,[ 1.         -0.16590952  0.27353519],1,nan,nan,nan,0,0,0,nan,0.446807116,0.174366982,0.621174098,0.272440134,nan,nan,nan,[ nan  nan  nan],nan,nan,nan,113.5989257,382.3930494,nan,nan,nan
0,247,17:41:01:502000,6,1,398,279.84375,[-0.02203778  0.4726088  -0.38794338],1,nan,nan,nan,0,0,0,nan,0.446807116,0.174366982,0.621174098,0.272440134,nan,nan,nan,[ nan  nan  nan],nan,nan,nan,113.5989257,383.3348538,nan,nan,nan
0,248,17:41:02:438000,6,0,487,342.421875,[ 0.63952974  0.30629503 -1.        ],0,nan,nan,nan,0,0,0,nan,0.446807116,0.174366982,0.621174098,0.272440134,nan,nan,nan,[ nan  nan  nan],nan,nan,nan,113.5989257,384.2766389,nan,nan,nan
0,249,17:41:03:374000,6,1,82,57.65625,[ 1.         -0.19847916 -0.67987248],1,1,1,0.750184101,0,0,0,0.750184101,0.446807116,0.174366982,0.621174098,0.272440134,nan,nan,nan,[ nan  nan  nan],nan,nan,nan,113.5989257,385.2184294,385.9686135,nan,nan
0,250,17:41:04:325000,6,1,384,270,[-0.09247501  0.47794532 -0.22247927],1,nan,nan,nan,0,0,0,0.750184101,0.448218172,0.175181398,0.623399569,0.273036774,nan,nan,nan,[ nan  nan  nan],nan,nan,nan,113.5989257,386.160231,nan,nan,nan
0,251,17:41:05:261000,6,0,194,136.40625,[ 1.         -0.05248646  0.4355717 ],0,0,1,0.73054895,0,0,0,0.740366526,0.448218172,0.175181398,0.623399569,0.273036774,nan,nan,nan,[ nan  nan  nan],nan,nan,nan,113.5989257,387.1020194,387.8325684,nan,nan
0,252,17:41:06:197000,6,1,319,224.296875,[-0.08918918  0.43330867  0.4061371 ],1,0,0,0.1727826,0,0,0,0.451665775,0.449525259,0.175823116,0.625348374,0.273702143,nan,nan,nan,[ nan  nan  nan],nan,nan,nan,113.5989257,388.0438241,388.2166067,nan,nan
0,253,17:41:07:149000,6,1,119,83.671875,[ 1.         -0.30944633 -0.2507109 ],1,1,1,0.030928385,0,0,0,0.311419978,0.448249947,0.176416028,0.624665975,0.271833919,nan,nan,nan,[ nan  nan  nan],nan,nan,nan,113.5989257,388.9856101,389.0165384,nan,nan
0,254,17:41:08:085000,6,1,480,337.5,[ 0.58092807  0.32870764 -1.        ],1,nan,nan,nan,0,0,0,0.101855492,0.446335628,0.178255639,0.624591266,0.268079989,nan,nan,nan,[ nan  nan  nan],nan,nan,nan,113.5989257,389.9274037,nan,nan,nan
0,255,17:41:09:037000,6,1,42,29.53125,[ 1.          0.00954879 -1.        ],1,1,1,0.131348987,0,0,0,0.081138686,0.446335628,0.178255639,0.624591266,0.268079989,nan,nan,nan,[ nan  nan  nan],nan,nan,nan,113.5989257,390.8692149,391.0005639,nan,nan
0,256,17:41:09:973000,6,1,310,217.96875,[-0.03285454  0.41708073  0.46882802],1,1,1,0.165571944,0,0,0,0.148460466,0.444897333,0.179111574,0.624008907,0.265785758,nan,nan,nan,[ nan  nan  nan],nan,nan,nan,113.5989257,391.8109946,391.9765665,nan,nan
0,257,17:41:10:909000,6,1,343,241.171875,[-0.17138818  0.46383642  0.20482281],1,1,1,0.287714603,0,1,0,0.194878511,0.443627672,0.179689093,0.623316765,0.263938579,nan,nan,nan,[ nan  nan  nan],nan,nan,nan,113.5989257,392.752789,393.0405036,nan,nan
0,258,17:41:16:259000,6,1,217,152.578125,[ 0.89125041  0.07353733  0.56804835],1,1,1,0.345872533,1,0,0,0.26638636,0.442922183,0.179587213,0.622509396,0.26333497,nan,-147.2115084,337,[-0.16064337  0.45785839  0.25930356],nan,84.63338338,2.350608267,113.5989257,393.6945861,394.0404586,395.5281129,397.8867512
0,259,17:41:17:195000,6,1,156,109.6875,[ 1.         -0.24406061  0.12104147],1,1,1,0.44337489,0,0,0,0.358987342,0.442485022,0.179300097,0.621785119,0.263184925,nan,nan,nan,[ nan  nan  nan],nan,nan,nan,113.5989257,399.0369724,399.4803473,nan,nan
0,260,17:41:18:147000,6,1,380,267.1875,[-0.10951951  0.47853303 -0.17717739],1,1,1,0.293552234,0,0,0,0.360933219,0.442489013,0.178897637,0.62138665,0.263591376,nan,nan,nan,[ nan  nan  nan],nan,nan,nan,113.5989257,399.9787766,400.2723288,nan,nan
0,261,17:41:19:083000,6,1,480,337.5,[ 0.58092807  0.32870764 -1.        ],1,1,1,0.295741203,0,0,0,0.344222776,0.441824116,0.178773805,0.620597921,0.263050311,nan,nan,nan,[ nan  nan  nan],nan,nan,nan,113.5989257,400.920567,401.2163082,nan,nan
0,262,17:41:20:019000,6,1,382,268.59375,[-0.10118876  0.47829114 -0.19973227],1,1,1,0.353930779,0,0,0,0.314408072,0.441174859,0.178640568,0.619815427,0.262534291,nan,nan,nan,[ nan  nan  nan],nan,nan,nan,113.5989257,401.8623569,402.2162877,nan,nan
0,263,17:41:20:971000,6,1,112,78.75,[ 1.         -0.30050152 -0.32532486],1,1,1,0.292108507,0,0,0,0.31392683,0.440788823,0.178338939,0.619127762,0.262449884,nan,nan,nan,[ nan  nan  nan],nan,nan,nan,113.5989257,402.8041525,403.096261,nan,nan
0,264,17:41:21:907000,6,1,262,184.21875,[ 0.41645248  0.28041442  0.65281554],1,1,1,0.430289256,0,0,0,0.358776181,0.440133844,0.178217905,0.618351749,0.261915939,nan,nan,nan,[ nan  nan  nan],nan,nan,nan,113.5989257,403.7459387,404.176228,nan,nan
0,265,17:41:22:843000,6,1,473,332.578125,[ 0.52259481  0.34939617 -1.        ],1,1,1,0.392478932,0,0,0,0.371625565,0.440090666,0.177827837,0.617918502,0.262262829,nan,nan,nan,[ nan  nan  nan],nan,nan,nan,113.5989257,404.6877332,405.0802121,nan,nan
0,266,17:41:23:794000,6,1,322,226.40625,[-0.10506723  0.43811622  0.38355935],1,1,1,0.386657836,0,0,0,0.403142008,0.439882754,0.177466912,0.617349666,0.262415843,nan,nan,nan,[ nan  nan  nan],nan,nan,nan,113.5989257,405.6295242,406.0161821,nan,nan
0,267,17:41:24:730000,6,1,475,333.984375,[ 0.53921875  0.34365981 -1.        ],1,1,1,0.460839603,0,0,0,0.413325457,0.439651342,0.177115317,0.616766658,0.262536025,nan,nan,nan,[ nan  nan  nan],nan,nan,nan,113.5989257,406.5713232,407.0321629,nan,nan
0,268,17:41:25:682000,6,1,372,261.5625,[-0.13866002  0.47845887 -0.08881238],1,1,1,0.534999987,0,0,0,0.460832475,0.439743066,0.176737009,0.616480075,0.263006057,nan,nan,nan,[ nan  nan  nan],nan,nan,nan,113.5989257,407.5131322,408.0481322,nan,nan
0,269,17:41:26:618000,6,1,81,56.953125,[ 1.         -0.19380425 -0.69421917],1,1,1,0.561210314,0,0,0,0.519016635,0.440153656,0.176466075,0.616619731,0.263687581,nan,nan,nan,[ nan  nan  nan],nan,nan,nan,113.5989257,408.4549102,409.0161205,nan,nan
0,270,17:41:27:554000,6,1,215,151.171875,[ 0.91063986  0.06289474  0.55869515],1,1,1,0.619381073,0,0,0,0.571863791,0.440673212,0.176264722,0.616937934,0.264408491,nan,nan,nan,[ nan  nan  nan],nan,nan,nan,113.5989257,409.3967083,410.0160894,nan,nan
0,271,17:41:28:505000,6,1,373,262.265625,[-0.13540771  0.47855957 -0.09969749],1,1,1,0.717566236,0,0,1,0.632719207,0.441436921,0.17627358,0.617710501,0.265163341,nan,nan,nan,[ nan  nan  nan],nan,nan,nan,113.5989257,410.3384957,411.0560619,nan,nan
0,272,17:41:33:201000,6,1,511,359.296875,[ 0.83870319  0.21628417 -1.        ],1,1,1,0.759748226,1,0,0,0.698898512,0.44261194,0.176814107,0.619426047,0.265797832,nan,-163.6790363,361,[-0.16604781  0.47560771  0.02781731],nan,-105.6178387,1.717150565,113.5989257,411.2802941,412.0400423,413.1055004,414.8307922
0,273,17:41:34:137000,6,1,70,49.21875,[ 1.         -0.13936985 -0.90643691],1,1,1,0.459021829,0,0,0,0.64544543,0.443955737,0.177637604,0.621593342,0.266318133,nan,nan,nan,[ nan  nan  nan],nan,nan,nan,113.5989257,415.9809239,416.4399458,nan,nan
0,274,17:41:35:089000,6,1,374,262.96875,[-0.13203913  0.47863408 -0.11062844],1,1,1,0.373208134,0,0,0,0.530659396,0.444019307,0.177265135,0.621284443,0.266754172,nan,nan,nan,[ nan  nan  nan],nan,nan,nan,113.5989257,416.9227232,417.2959314,nan,nan
0,275,17:41:36:025000,6,0,127,89.296875,[ 1.         -0.31111021 -0.16703665],0,1,0,0.295394526,0,0,0,0.37587483,0.443721781,0.176951628,0.62067341,0.266770153,nan,nan,nan,[ nan  nan  nan],nan,nan,nan,113.5989257,417.8645123,418.1599068,nan,nan
0,276,17:41:36:961000,6,1,229,161.015625,[ 0.77039703  0.13526594  0.61468147],1,1,1,0.377564691,0,0,0,0.34872245,0.443101165,0.176840425,0.61994159,0.266260741,nan,nan,nan,[ nan  nan  nan],nan,nan,nan,113.5989257,418.8063104,419.1838751,nan,nan
0,277,17:41:37:912000,6,1,59,41.484375,[ 1.         -0.08144099 -1.        ],1,1,1,0.379753945,0,0,0,0.350904387,0.442828097,0.176522109,0.619350206,0.266305988,nan,nan,nan,[ nan  nan  nan],nan,nan,nan,113.5989257,419.7481206,420.1278745,nan,nan
0,278,17:41:38:848000,6,1,488,343.125,[ 0.64790771  0.30295149 -1.        ],1,1,1,0.445959573,0,0,0,0.401092736,0.442566378,0.176202155,0.618768533,0.266364223,nan,nan,nan,[ nan  nan  nan],nan,nan,nan,113.5989257,420.6898919,421.1358515,nan,nan
0,279,17:41:39:800000,6,1,224,157.5,[ 0.82161942  0.11002479  0.59726488],1,1,1,0.496130531,0,0,0,0.440614683,0.4425804,0.175837859,0.618418258,0.266742541,nan,nan,nan,[ nan  nan  nan],nan,nan,nan,113.5989257,421.6316873,422.1278178,nan,nan
0,280,17:41:40:736000,6,1,37,26.015625,[ 1.          0.03585655 -1.        ],1,1,1,0.570315148,0,0,0,0.504135084,0.442800771,0.175509163,0.618309934,0.267291607,nan,nan,nan,[ nan  nan  nan],nan,nan,nan,113.5989257,422.5734868,423.143802,nan,nan
0,281,17:41:41:672000,6,1,342,240.46875,[-0.17005262  0.46291356  0.21407524],1,1,1,0.620500646,0,0,0,0.562315442,0.44332337,0.175338497,0.618661867,0.267984873,nan,nan,nan,[ nan  nan  nan],nan,nan,nan,113.5989257,423.5152765,424.1357771,nan,nan
0,282,17:41:42:623000,6,1,46,32.34375,[ 1.         -0.01173137 -1.        ],1,1,1,0.734670587,0,0,1,0.641828794,0.444046543,0.17534455,0.619391093,0.268701993,nan,nan,nan,[ nan  nan  nan],nan,nan,nan,113.5989257,424.4570721,425.1917426,nan,nan
0,283,17:41:46:757000,6,1,325,228.515625,[-0.1194049   0.44263104  0.36018642],1,1,1,0.736860697,1,0,0,0.697343977,0.445227942,0.175962143,0.621190085,0.269265798,nan,-138.5374194,325,[-0.1194049   0.44263104  0.36018642],nan,0.02179443,1.142105385,113.5989257,425.39886,426.1357207,427.2240438,428.3742944
0,284,17:41:47:693000,6,1,455,319.921875,[ 0.37560825  0.39487537 -1.        ],1,1,1,0.490893312,0,0,0,0.654141532,0.446408641,0.176579323,0.622987964,0.269829318,nan,nan,nan,[ nan  nan  nan],nan,nan,nan,113.5989257,429.5327426,430.0236359,nan,nan
0,285,17:41:48:629000,6,1,113,79.453125,[ 1.         -0.30219199 -0.31457635],1,1,1,0.581059002,0,0,0,0.60293767,0.446588015,0.176245504,0.622833519,0.27034251,nan,nan,nan,[ nan  nan  nan],nan,nan,nan,113.5989257,430.4745485,431.0556075,nan,nan
0,286,17:41:49:581000,6,0,394,277.03125,[-0.04370902  0.47465593 -0.33940142],0,0,1,0.679236752,0,0,0,0.583729689,0.447128059,0.176096728,0.623224786,0.271031331,nan,nan,nan,[ nan  nan  nan],nan,nan,nan,113.5989257,431.4163384,432.0955751,nan,nan
0,287,17:41:50:517000,6,1,496,348.75,[ 0.71483372  0.27492388 -1.        ],1,1,1,0.721427865,0,0,0,0.660574539,0.448056494,0.176353772,0.624410266,0.271702721,nan,nan,nan,[ nan  nan  nan],nan,nan,nan,113.5989257,432.3581374,433.0795652,nan,nan
0,288,17:41:51:469000,6,1,319,224.296875,[-0.08918918  0.43330867  0.4061371 ],1,1,1,0.739604463,0,0,0,0.713423026,0.449145623,0.176842576,0.625988198,0.272303047,nan,nan,nan,[ nan  nan  nan],nan,nan,nan,113.5989257,433.2999338,434.0395383,nan,nan
0,289,17:41:52:405000,6,0,441,310.078125,[ 0.26628726  0.42289189 -1.        ],0,nan,nan,nan,0,0,0,0.730516164,0.450298237,0.177433522,0.627731759,0.272864715,nan,nan,nan,[ nan  nan  nan],nan,nan,nan,113.5989257,434.2417229,nan,nan,nan
0,290,17:41:53:341000,6,1,130,91.40625,[ 1.         -0.30933315 -0.13607149],1,1,1,0.759958627,0,0,0,0.749781545,0.450298237,0.177433522,0.627731759,0.272864715,nan,nan,nan,[ nan  nan  nan],nan,nan,nan,113.5989257,435.1835159,435.9434745,nan,nan
0,291,17:41:54:292000,6,1,463,325.546875,[ 0.44023832  0.3760118  -1.        ],1,1,1,0.602177223,0,0,0,0.681067925,0.451522191,0.178145248,0.629667439,0.273376943,nan,nan,nan,[ nan  nan  nan],nan,nan,nan,113.5989257,436.1253055,436.7274827,nan,nan
0,292,17:41:55:228000,6,1,288,202.5,[ 0.15000513  0.36533195  0.58668724],1,1,1,0.492365264,0,0,0,0.618167038,0.452115321,0.178044353,0.630159675,0.274070968,nan,nan,nan,[ nan  nan  nan],nan,nan,nan,113.5989257,437.0671031,437.5594684,nan,nan
0,293,17:41:56:164000,6,1,172,120.9375,[ 1.         -0.17098406  0.26502468],1,1,1,0.310541407,0,0,0,0.468361298,0.452273164,0.177712709,0.629985874,0.274560455,nan,nan,nan,[ nan  nan  nan],nan,nan,nan,113.5989257,438.0088967,438.3194381,nan,nan
0,294,17:41:57:116000,6,1,216,151.875,[ 0.90097501  0.06822711  0.56342658],1,1,1,0.296740751,0,0,0,0.366549141,0.451719524,0.177585479,0.629305004,0.274134045,nan,nan,nan,[ nan  nan  nan],nan,nan,nan,113.5989257,438.9506897,439.2474305,nan,nan
0,295,17:41:58:052000,6,1,350,246.09375,[-0.17575682  0.46949094  0.13824748],1,1,1,0.266917114,0,0,0,0.291399757,0.451116494,0.177502071,0.628618565,0.273614423,nan,nan,nan,[ nan  nan  nan],nan,nan,nan,113.5989257,439.8924862,440.1594033,nan,nan
0,296,17:41:59:003000,6,1,489,343.828125,[ 0.65628486  0.29957244 -1.        ],1,1,1,0.229110782,0,1,0,0.264256216,0.450402543,0.177527082,0.627929625,0.272875461,nan,nan,nan,[ nan  nan  nan],nan,nan,nan,113.5989257,440.8342798,441.0633906,nan,nan
0,297,17:42:02:872000,6,1,315,221.484375,[-0.06571114  0.42643481  0.43495652],1,1,1,0.271307027,1,0,0,0.255778308,0.449548135,0.17771473,0.627262865,0.271833404,nan,-152.7764056,345,[-0.17351954  0.46559515  0.18611928],nan,21.29203065,0.883759975,113.5989257,441.7760714,442.0473784,443.6012581,444.4930569
0,298,17:42:03:808000,6,0,208,146.25,[ 0.97651258  0.02502074  0.52257448],0,1,0,0.371667189,0,0,0,0.290694999,0.448862592,0.177715436,0.626578028,0.271147156,nan,nan,nan,[ nan  nan  nan],nan,nan,nan,113.5989257,445.6515927,446.0232599,nan,nan
0,299,17:42:04:760000,6,1,253,177.890625,[ 0.5138659   0.24483993  0.65597719],1,1,1,0.645837438,0,0,0,0.429603884,0.448566824,0.17743876,0.626005585,0.271128064,nan,nan,nan,[ nan  nan  nan],nan,nan,nan,113.5989257,446.5933908,447.2392283,nan,nan
0,300,17:42:05:696000,6,1,455,319.921875,[ 0.37560825  0.39487537 -1.        ],1,1,1,0.464034962,0,0,0,0.493846529,0.449319765,0.17751707,0.626836835,0.271802696,nan,nan,nan,[ nan  nan  nan],nan,nan,nan,113.5989257,447.5351847,447.9992197,nan,nan
0,301,17:42:06:632000,6,0,65,45.703125,[ 1.         -0.11331216 -1.        ],0,1,0,0.282218802,0,0,0,0.4640304,0.449375717,0.177181578,0.626557295,0.272194139,nan,nan,nan,[ nan  nan  nan],nan,nan,nan,113.5989257,448.4769809,448.7591997,nan,nan
0,302,17:42:07:584000,6,1,331,232.734375,[-0.14329784  0.45080175  0.31116671],1,1,1,0.620347835,0,0,0,0.455533866,0.448742547,0.177143545,0.625886091,0.271599002,nan,nan,nan,[ nan  nan  nan],nan,nan,nan,113.5989257,449.4187671,450.0391149,nan,nan
0,303,17:42:08:520000,6,0,434,305.15625,[ 0.21388182  0.43461034 -1.        ],0,0,1,0.750572972,0,0,0,0.551046536,0.449390114,0.177121787,0.626511901,0.272268326,nan,nan,nan,[ nan  nan  nan],nan,nan,nan,113.5989257,450.3605641,451.1111371,nan,nan
0,304,17:42:09:471000,6,1,352,247.5,[-0.17544713  0.4708516   0.11867359],1,1,1,0.42471876,0,0,0,0.598546522,0.45052238,0.177746799,0.628269179,0.272775582,nan,nan,nan,[ nan  nan  nan],nan,nan,nan,113.5989257,451.3024162,451.7271349,nan,nan
0,305,17:42:10:407000,6,1,33,23.203125,[ 1.          0.05659903 -1.        ],1,0,0,0.378971926,0,0,0,0.518087886,0.450425737,0.177420629,0.627846366,0.273005109,nan,nan,nan,[ nan  nan  nan],nan,nan,nan,113.5989257,452.2441499,452.6231218,nan,nan
0,306,17:42:11:343000,6,1,223,156.796875,[ 0.83172397  0.10489059  0.59343224],1,1,1,0.349142587,0,0,0,0.384277758,0.450159119,0.177142891,0.62730201,0.273016228,nan,nan,nan,[ nan  nan  nan],nan,nan,nan,113.5989257,453.1859492,453.5350918,nan,nan
0,307,17:42:12:295000,6,1,425,298.828125,[ 0.14916262  0.4475296  -0.79171567],1,1,1,0.599335099,0,0,0,0.442483204,0.449783592,0.176920164,0.626703756,0.272863429,nan,nan,nan,[ nan  nan  nan],nan,nan,nan,113.5989257,454.127738,454.7270731,nan,nan
0,308,17:42:13:231000,6,0,120,84.375,[ 1.         -0.3101615  -0.24016291],0,0,1,0.50551476,0,0,0,0.484664149,0.450337487,0.176825746,0.627163233,0.273511741,nan,nan,nan,[ nan  nan  nan],nan,nan,nan,113.5989257,455.0695367,455.5750515,nan,nan
0,309,17:42:14:167000,6,1,334,234.84375,[-0.15279655  0.45446705  0.2855764 ],1,1,1,0.33970362,0,0,0,0.481517826,0.450541093,0.176530904,0.627071997,0.27401019,nan,nan,nan,[ nan  nan  nan],nan,nan,nan,113.5989257,456.0113354,456.351039,nan,nan
0,310,17:42:15:118000,6,1,23,16.171875,[ 1.          0.10694394 -1.        ],1,1,1,0.541873373,0,0,0,0.462363918,0.450133602,0.176333742,0.626467345,0.27379986,nan,nan,nan,[ nan  nan  nan],nan,nan,nan,113.5989257,456.9531208,457.4949941,nan,nan
0,311,17:42:16:054000,6,1,310,217.96875,[-0.03285454  0.41708073  0.46882802],1,1,1,0.376071356,0,0,0,0.419216116,0.450469646,0.176097724,0.626567369,0.274371922,nan,nan,nan,[ nan  nan  nan],nan,nan,nan,113.5989257,457.8949104,458.2709817,nan,nan
0,312,17:42:17:006000,6,1,39,27.421875,[ 1.          0.02537899 -1.        ],1,1,1,0.482220113,0,0,0,0.466721614,0.450198119,0.175833327,0.626031446,0.274364791,nan,nan,nan,[ nan  nan  nan],nan,nan,nan,113.5989257,458.8367228,459.3189429,nan,nan
0,313,17:42:17:942000,6,1,170,119.53125,[ 1.         -0.18099048  0.24781506],1,1,1,0.492437964,0,0,0,0.450243144,0.450314563,0.175523923,0.625838485,0.27479064,nan,nan,nan,[ nan  nan  nan],nan,nan,nan,113.5989257,459.778501,460.270939,nan,nan
0,314,17:42:18:878000,6,1,76,53.4375,[ 1.         -0.16967451 -0.77336583],1,1,1,0.510623115,0,0,0,0.495093731,0.450467184,0.175223935,0.625691119,0.275243248,nan,nan,nan,[ nan  nan  nan],nan,nan,nan,113.5989257,460.7202903,461.2309134,nan,nan
0,315,17:42:19:830000,6,1,259,182.109375,[ 0.44882283  0.26890698  0.65501178],1,1,1,0.608792312,0,0,0,0.537284464,0.450684353,0.174944568,0.625628921,0.275739785,nan,nan,nan,[ nan  nan  nan],nan,nan,nan,113.5989257,461.6620842,462.2708765,nan,nan
0,316,17:42:20:766000,6,0,305,214.453125,[ 0.00361193  0.40685925  0.50019691],0,0,1,0.626985731,0,0,0,0.58213372,0.451253087,0.174885984,0.626139071,0.276367102,nan,nan,nan,[ nan  nan  nan],nan,nan,nan,113.5989257,462.6038801,463.2308658,nan,nan
0,317,17:42:21:702000,6,1,132,92.8125,[ 1.         -0.30742683 -0.11555536],1,1,1,0.45317707,0,0,0,0.562985038,0.451882953,0.174887892,0.626770845,0.276995061,nan,nan,nan,[ nan  nan  nan],nan,nan,nan,113.5989257,463.545674,463.9988511,nan,nan
0,318,17:42:22:653000,6,1,403,283.359375,[ 0.00657627  0.46945644 -0.45052451],1,1,1,0.559346069,0,0,0,0.546502957,0.451887575,0.17457533,0.626462905,0.277312245,nan,nan,nan,[ nan  nan  nan],nan,nan,nan,113.5989257,464.4874696,465.0468157,nan,nan
0,319,17:42:23:589000,6,1,192,135,[ 1.         -0.06359976  0.42165841],1,1,1,0.417543171,0,0,0,0.47668877,0.452269989,0.174381868,0.626651857,0.277888121,nan,nan,nan,[ nan  nan  nan],nan,nan,nan,113.5989257,465.4292623,465.8468055,nan,nan
0,320,17:42:24:541000,6,1,475,333.984375,[ 0.53921875  0.34365981 -1.        ],1,1,1,0.451638976,0,0,0,0.476176072,0.452146844,0.174084645,0.626231489,0.278062199,nan,nan,nan,[ nan  nan  nan],nan,nan,nan,113.5989257,466.3711435,466.8227824,nan,nan
0,321,17:42:25:477000,6,1,317,222.890625,[-0.07777284  0.42993861  0.42073361],1,1,1,0.365923639,0,0,0,0.411701929,0.45214505,0.173776805,0.625921855,0.278368244,nan,nan,nan,[ nan  nan  nan],nan,nan,nan,113.5989257,467.3128413,467.6787649,nan,nan
0,322,17:42:26:413000,6,1,27,18.984375,[ 1.          0.08709126 -1.        ],1,1,1,0.704089734,0,0,0,0.50721745,0.451841453,0.173545758,0.625387211,0.278295695,nan,nan,nan,[ nan  nan  nan],nan,nan,nan,113.5989257,468.2546426,468.9587323,nan,nan
0,323,17:42:27:364000,6,1,170,119.53125,[ 1.         -0.18099048  0.24781506],1,1,1,0.642274874,0,0,0,0.570762749,0.452726535,0.173881941,0.626608476,0.278844594,nan,nan,nan,[ nan  nan  nan],nan,nan,nan,113.5989257,469.1964373,469.8387122,nan,nan
0,324,17:42:28:300000,6,1,368,258.75,[-0.15045717  0.47779326 -0.04573418],1,1,1,0.572454796,0,0,1,0.639606468,0.453389291,0.173937914,0.627327206,0.279451377,nan,nan,nan,[ nan  nan  nan],nan,nan,nan,113.5989257,470.1382281,470.7106829,nan,nan
0,325,17:42:32:731000,6,1,27,18.984375,[ 1.          0.08709126 -1.        ],1,1,1,0.510635659,1,0,0,0.575121777,0.453804154,0.173776309,0.627580463,0.280027844,nan,102.2361115,495,[ 0.70648511  0.27855169 -1.        ],nan,-31.22048651,1.442188604,113.5989257,471.0800237,471.5906593,472.8968724,474.3470688
0,326,17:42:33:667000,6,0,121,85.078125,[ 1.         -0.31073281 -0.22964081],0,1,0,0.428933338,0,0,0,0.504007931,0.454001485,0.17350656,0.627508046,0.280494925,nan,nan,nan,[ nan  nan  nan],nan,nan,nan,113.5989257,475.505622,475.9345553,nan,nan
0,327,17:42:34:603000,6,1,274,192.65625,[ 0.28934405  0.32290089  0.63267027],1,0,0,0.543130363,0,0,0,0.49423312,0.453914744,0.173212371,0.627127116,0.280702373,nan,nan,nan,[ nan  nan  nan],nan,nan,nan,113.5989257,476.4474124,476.9905428,nan,nan
0,328,17:42:35:554000,6,1,376,264.375,[-0.12496282  0.47870467 -0.13262763],1,1,1,0.257331322,0,0,0,0.409798341,0.454222385,0.172992544,0.627214928,0.281229841,nan,nan,nan,[ nan  nan  nan],nan,nan,nan,113.5989257,477.3892077,477.6465391,nan,nan
0,329,17:42:36:490000,6,1,53,37.265625,[ 1.         -0.04925756 -1.        ],1,1,1,0.675463788,0,0,0,0.491975157,0.453545783,0.173078997,0.62662478,0.280466786,nan,nan,nan,[ nan  nan  nan],nan,nan,nan,113.5989257,478.3309982,479.006462,nan,nan
0,330,17:42:37:442000,6,0,404,284.0625,[ 0.01248946  0.46874627 -0.4633491 ],0,0,1,0.501684206,0,0,0,0.478159772,0.454305776,0.17326808,0.627573856,0.281037696,nan,nan,nan,[ nan  nan  nan],nan,nan,nan,113.5989257,479.2727992,479.7744834,nan,nan
0,331,17:42:38:378000,6,1,59,41.484375,[ 1.         -0.08144099 -1.        ],1,1,1,0.303891536,0,0,0,0.493679843,0.454467477,0.172994217,0.627461694,0.28147326,nan,nan,nan,[ nan  nan  nan],nan,nan,nan,113.5989257,480.2145837,480.5184752,nan,nan
0,332,17:42:39:314000,6,1,470,330.46875,[ 0.49774161  0.35774078 -1.        ],1,1,1,0.274083294,0,0,0,0.359886345,0.453955314,0.172922132,0.626877446,0.281033182,nan,nan,nan,[ nan  nan  nan],nan,nan,nan,113.5989257,481.1563804,481.4304637,nan,nan
0,333,17:42:40:266000,6,1,139,97.734375,[ 1.         -0.29633561 -0.04459929],1,1,1,0.180236442,0,1,0,0.252737091,0.453345579,0.172945088,0.626290666,0.280400491,nan,nan,nan,[ nan  nan  nan],nan,nan,nan,113.5989257,482.098194,482.2784304,nan,nan
0,334,17:42:45:086000,6,1,386,271.40625,[-0.08339466  0.47749559 -0.24542474],1,1,1,0.190448305,1,0,0,0.21492268,0.452422912,0.173378468,0.625801381,0.279044444,nan,-161.5650512,358,[-0.17058391  0.47426832  0.05858744],nan,-19.84119882,1.842274475,113.5989257,483.0399708,483.2304191,484.8651611,486.7154363
0,335,17:42:46:022000,6,1,68,47.8125,[ 1.         -0.12901814 -0.9729032 ],1,nan,nan,nan,0,0,0,0.185342374,0.451540843,0.173750346,0.625291189,0.277790498,nan,nan,nan,[ nan  nan  nan],nan,nan,nan,113.5989257,487.8655942,nan,nan,nan
0,336,17:42:46:974000,6,1,218,153.28125,[ 0.88146739  0.07882461  0.57255963],1,nan,nan,nan,0,0,0,0.190448305,0.451540843,0.173750346,0.625291189,0.277790498,nan,nan,nan,[ nan  nan  nan],nan,nan,nan,113.5989257,488.8073978,nan,nan,nan
0,337,17:42:47:910000,6,1,322,226.40625,[-0.10506723  0.43811622  0.38355935],1,1,1,0.689056608,0,0,0,0.689056608,0.451540843,0.173750346,0.625291189,0.277790498,nan,nan,nan,[ nan  nan  nan],nan,nan,nan,113.5989257,489.7491737,490.4382303,nan,nan
0,338,17:42:48:861000,6,1,498,350.15625,[ 0.73150794  0.26756188 -1.        ],1,1,1,0.643205429,0,0,0,0.666131018,0.452337876,0.174001578,0.626339454,0.278336298,nan,nan,nan,[ nan  nan  nan],nan,nan,nan,113.5989257,490.6910007,491.3342061,nan,nan
0,339,17:42:49:797000,6,1,352,247.5,[-0.17544713  0.4708516   0.11867359],1,1,1,0.509387793,0,0,0,0.613883276,0.452976229,0.174059539,0.627035768,0.27891669,nan,nan,nan,[ nan  nan  nan],nan,nan,nan,113.5989257,491.6327971,492.1421849,nan,nan
0,340,17:42:50:733000,6,1,89,62.578125,[ 1.         -0.2294841  -0.58737049],1,1,1,0.479563301,0,0,0,0.544052174,0.453164267,0.173799615,0.626963883,0.279364652,nan,nan,nan,[ nan  nan  nan],nan,nan,nan,113.5989257,492.5746093,493.0541726,nan,nan
0,341,17:42:51:685000,6,1,308,216.5625,[-0.01868286  0.41309748  0.48168233],1,1,1,0.481768521,0,0,0,0.490239872,0.453251972,0.173517321,0.626769293,0.279734651,nan,nan,nan,[ nan  nan  nan],nan,nan,nan,113.5989257,493.5163789,493.9981474,nan,nan
0,342,17:42:52:621000,6,1,112,78.75,[ 1.         -0.30050152 -0.32532486],1,1,1,0.491957007,0,0,0,0.484429609,0.453346398,0.173237549,0.626583946,0.280108849,nan,nan,nan,[ nan  nan  nan],nan,nan,nan,113.5989257,494.4581737,494.9501307,nan,nan
0,343,17:42:53:557000,6,1,355,249.609375,[-0.17373746  0.47268386  0.08887998],1,1,1,0.550143731,0,0,0,0.50795642,0.453473825,0.172965618,0.626439444,0.280508207,nan,nan,nan,[ nan  nan  nan],nan,nan,nan,113.5989257,495.3999641,495.9501079,nan,nan
0,344,17:42:54:508000,6,1,152,106.875,[ 1.         -0.25918449  0.08306255],1,1,1,0.616342232,0,0,0,0.552814323,0.453791818,0.172769595,0.626561413,0.281022224,nan,nan,nan,[ nan  nan  nan],nan,nan,nan,113.5989257,496.3417569,496.9580991,nan,nan
0,345,17:42:55:444000,6,0,98,68.90625,[ 1.         -0.26382291 -0.48021779],0,0,1,0.666504637,0,0,0,0.610996867,0.454324771,0.172736255,0.627061025,0.281588516,nan,nan,nan,[ nan  nan  nan],nan,nan,nan,113.5989257,497.2835553,497.95006,nan,nan
0,346,17:42:56:396000,6,1,364,255.9375,[-0.16019432  0.47670452 -0.00341125],1,1,1,0.532700971,0,0,0,0.605182613,0.455018169,0.172878422,0.627896591,0.282139747,nan,nan,nan,[ nan  nan  nan],nan,nan,nan,113.5989257,498.2253455,498.7580465,nan,nan
0,347,17:42:57:332000,6,1,276,194.0625,[ 0.26871044  0.32943033  0.62756301],1,1,1,0.494893213,0,0,0,0.564699607,0.455271207,0.172653381,0.627924588,0.282617826,nan,nan,nan,[ nan  nan  nan],nan,nan,nan,113.5989257,499.1671383,499.6620315,nan,nan
0,348,17:42:58:268000,6,1,346,243.28125,[-0.17431756  0.46643129  0.17667017],1,1,1,0.425081402,0,0,0,0.484225195,0.45539985,0.172387608,0.627787458,0.283012242,nan,nan,nan,[ nan  nan  nan],nan,nan,nan,113.5989257,500.1089322,500.5340136,nan,nan
0,349,17:42:59:220000,6,1,100,70.3125,[ 1.         -0.27042709 -0.4574399 ],1,1,1,0.571242566,0,0,0,0.497072394,0.455301732,0.172117052,0.627418784,0.283184681,nan,nan,nan,[ nan  nan  nan],nan,nan,nan,113.5989257,501.0507278,501.6219703,nan,nan
0,350,17:43:00:156000,6,0,296,208.125,[ 0.07727136  0.38620532  0.55000131],0,0,1,0.597432651,0,0,0,0.531252207,0.455675735,0.171964937,0.627640672,0.283710798,nan,nan,nan,[ nan  nan  nan],nan,nan,nan,113.5989257,501.9925191,502.5899517,nan,nan
0,351,17:43:01:092000,6,1,240,168.75,[ 0.65437302  0.18801506  0.64246395],1,1,1,0.399629147,0,0,0,0.522768121,0.456131545,0.171875709,0.628007254,0.284255836,nan,nan,nan,[ nan  nan  nan],nan,nan,nan,113.5989257,502.9343127,503.3339418,nan,nan
0,352,17:43:02:043000,6,0,459,322.734375,[ 0.40775816  0.38570917 -1.        ],0,1,0,0.561813007,0,0,0,0.519624935,0.455950447,0.171629763,0.62758021,0.284320685,nan,nan,nan,[ nan  nan  nan],nan,nan,nan,113.5989257,503.876104,504.437917,nan,nan
0,353,17:43:02:979000,6,1,70,49.21875,[ 1.         -0.13936985 -0.90643691],1,1,1,0.619986617,0,0,0,0.527142924,0.456288667,0.171459484,0.627748151,0.284829182,nan,nan,nan,[ nan  nan  nan],nan,nan,nan,113.5989257,504.8179002,505.4378868,nan,nan
0,354,17:43:03:931000,6,1,189,132.890625,[ 1.         -0.08021946  0.40014347],1,nan,nan,nan,0,0,0,0.590899812,0.456809998,0.171434531,0.628244529,0.285375466,nan,nan,nan,[ nan  nan  nan],nan,nan,nan,113.5989257,505.7596923,nan,nan,nan
0,355,17:43:04:867000,6,1,102,71.71875,[ 1.         -0.27661034 -0.43492695],1,1,1,0.07236998,0,0,0,0.346178299,0.456809998,0.171434531,0.628244529,0.285375466,nan,nan,nan,[ nan  nan  nan],nan,nan,nan,113.5989257,506.7014908,506.7738608,nan,nan
0,356,17:43:05:803000,6,1,256,180,[ 0.48131261  0.25704791  0.65606572],1,1,1,0.610549931,0,0,0,0.341459955,0.455589553,0.17252303,0.628112583,0.283066523,nan,nan,nan,[ nan  nan  nan],nan,nan,nan,113.5989257,507.6432787,508.2538286,nan,nan
0,357,17:43:06:754000,6,1,168,118.125,[ 1.         -0.19079002  0.2303618 ],1,nan,nan,nan,0,0,0,0.341459955,0.456079934,0.172469575,0.628549509,0.283610359,nan,nan,nan,[ nan  nan  nan],nan,nan,nan,113.5989257,508.5850777,nan,nan,nan
0,358,17:43:07:690000,6,1,73,51.328125,[ 1.         -0.15467886 -0.83091687],1,1,1,0.134956026,0,0,0,0.372752978,0.456079934,0.172469575,0.628549509,0.283610359,nan,nan,nan,[ nan  nan  nan],nan,nan,nan,113.5989257,509.5268645,509.6618205,nan,nan
0,359,17:43:08:626000,6,1,264,185.625,[ 0.39496696  0.28788971  0.65071762],1,1,1,0.201112047,0,0,0,0.168034036,0.455066925,0.173136347,0.628203271,0.281930578,nan,nan,nan,[ nan  nan  nan],nan,nan,nan,113.5989257,510.4686618,510.6697738,nan,nan
0,360,17:43:09:578000,6,1,309,217.265625,[-0.02583963  0.41510654  0.4753057 ],1,1,1,0.379282966,0,1,0,0.238450346,0.454268325,0.173447688,0.627716012,0.280820637,nan,nan,nan,[ nan  nan  nan],nan,nan,nan,113.5989257,511.4104568,511.7897398,nan,nan
0,361,17:43:15:194000,6,1,236,165.9375,[ 0.69700456  0.16930175  0.63406585],1,1,1,0.293485522,1,0,0,0.291293511,0.454033261,0.173226337,0.627259598,0.280806923,nan,-74.09382092,233,[ 0.7286704   0.15490978  0.62648223],nan,-1.843679083,2.63398684,113.5989257,512.3522493,512.6457348,514.1774268,516.8195172
0,362,17:43:16:130000,6,1,469,329.765625,[ 0.4894822   0.36045336 -1.        ],1,1,1,0.459920737,0,0,0,0.377563075,0.453531549,0.173187436,0.626718985,0.280344113,nan,nan,nan,[ nan  nan  nan],nan,nan,nan,113.5989257,517.9696774,518.4295982,nan,nan
0,363,17:43:17:082000,6,1,104,73.125,[ 1.         -0.28235148 -0.41264457],1,1,1,0.38210713,0,0,0,0.378504463,0.453551453,0.17291783,0.626469283,0.280633624,nan,nan,nan,[ nan  nan  nan],nan,nan,nan,113.5989257,518.9114699,519.293577,nan,nan
0,364,17:43:18:018000,6,1,490,344.53125,[ 0.66466039  0.29615785 -1.        ],1,1,1,0.280290981,0,0,0,0.374106283,0.453329576,0.172694874,0.62602445,0.280634702,nan,nan,nan,[ nan  nan  nan],nan,nan,nan,113.5989257,519.8532535,520.1335445,nan,nan
0,365,17:43:18:954000,6,1,347,243.984375,[-0.17493884  0.46723881  0.16715748],1,1,1,0.282475959,0,0,0,0.314958023,0.452793853,0.172695108,0.625488961,0.280098745,nan,nan,nan,[ nan  nan  nan],nan,nan,nan,113.5989257,520.7950511,521.0775271,nan,nan
0,366,17:43:19:905000,6,1,255,179.296875,[ 0.49215936  0.25301719  0.65616311],1,1,1,0.228672589,0,1,0,0.263813176,0.452268181,0.172687021,0.624955202,0.279581159,nan,nan,nan,[ nan  nan  nan],nan,nan,nan,113.5989257,521.7368638,521.9655364,nan,nan
0,367,17:43:24:039000,6,1,447,314.296875,[ 0.31246764  0.41164647 -1.        ],1,1,1,0.190853997,1,0,0,0.234000848,0.451580194,0.17286529,0.624445484,0.278714904,nan,133.1912607,451,[ 0.34383096  0.40351836 -1.        ],nan,2.511864322,1.142201177,113.5989257,522.6786372,522.8694912,524.5038187,525.6539735
0,368,17:43:24:975000,6,1,30,21.09375,[ 1.          0.07194566 -1.        ],1,1,1,0.568876838,0,0,0,0.329467808,0.450780421,0.173201117,0.623981537,0.277579304,nan,nan,nan,[ nan  nan  nan],nan,nan,nan,113.5989257,526.812521,527.3813978,nan,nan
0,369,17:43:25:911000,6,1,288,202.5,[ 0.15000513  0.36533195  0.58668724],1,1,1,0.555043111,0,0,0,0.438257982,0.451141572,0.173058973,0.624200545,0.278082599,nan,nan,nan,[ nan  nan  nan],nan,nan,nan,113.5989257,527.7543206,528.3093637,nan,nan
0,370,17:43:26:863000,6,1,438,307.96875,[ 0.24362256  0.42809644 -1.        ],1,1,1,0.725217935,0,0,0,0.616379294,0.451458345,0.172889884,0.624348228,0.278568461,nan,nan,nan,[ nan  nan  nan],nan,nan,nan,113.5989257,528.6961113,529.4213293,nan,nan
0,371,17:43:27:799000,6,1,341,239.765625,[-0.16853588  0.4619615   0.22326011],1,1,1,0.639404525,0,0,1,0.639888524,0.452290441,0.173283467,0.625573908,0.279006974,nan,nan,nan,[ nan  nan  nan],nan,nan,nan,113.5989257,529.6379015,530.277306,nan,nan
0,372,17:43:32:682000,6,1,290,203.90625,[ 0.13126538  0.37077654  0.57820662],1,1,1,0.46556878,1,0,0,0.610063747,0.452857453,0.173326117,0.626183571,0.279531336,nan,-132.8470372,317,[-0.07777284  0.42993861  0.42073361],nan,18.94078721,1.883901098,113.5989257,530.5797222,531.045291,532.4132168,534.3051611
0,373,17:43:33:618000,6,1,46,32.34375,[ 1.         -0.01173137 -1.        ],1,1,1,0.501853839,0,0,0,0.535609048,0.452895856,0.173065504,0.625961359,0.279830352,nan,nan,nan,[ nan  nan  nan],nan,nan,nan,113.5989257,535.4553583,535.9572122,nan,nan
0,374,17:43:34:554000,6,1,280,196.875,[ 0.22808935  0.34201885  0.61587222],1,1,1,0.576001394,0,0,0,0.514474671,0.45304332,0.172825491,0.625868811,0.280217828,nan,nan,nan,[ nan  nan  nan],nan,nan,nan,113.5989257,536.3971522,536.9731536,nan,nan
0,375,17:43:35:505000,6,1,222,156.09375,[ 0.84177847  0.09972916  0.58948469],1,1,1,0.514207345,0,0,0,0.530687526,0.453412563,0.172696902,0.626109465,0.280715661,nan,nan,nan,[ nan  nan  nan],nan,nan,nan,113.5989257,537.3389396,537.8531469,nan,nan
0,376,17:43:36:441000,6,1,288,202.5,[ 0.15000513  0.36533195  0.58668724],1,1,1,0.380384008,0,0,0,0.490197582,0.453594583,0.172470167,0.626064751,0.281124416,nan,nan,nan,[ nan  nan  nan],nan,nan,nan,113.5989257,538.2807363,538.6611203,nan,nan
0,377,17:43:37:393000,6,1,188,132.1875,[ 1.         -0.08573935  0.39280429],1,1,1,0.334571602,0,0,0,0.409720985,0.453376044,0.172258864,0.625634909,0.28111718,nan,nan,nan,[ nan  nan  nan],nan,nan,nan,113.5989257,539.2225273,539.5570989,nan,nan
0,378,17:43:38:329000,6,1,428,300.9375,[ 0.17037832  0.44348657 -0.8686614 ],1,1,1,0.264760361,0,0,0,0.32657199,0.45302246,0.172124042,0.625146502,0.280898418,nan,nan,nan,[ nan  nan  nan],nan,nan,nan,113.5989257,540.1643218,540.4290822,nan,nan
0,379,17:43:39:265000,6,1,246,172.96875,[ 0.58976884  0.2150199   0.65133953],1,1,1,0.146983382,0,1,0,0.248771781,0.452463819,0.172173261,0.624637079,0.280290558,nan,nan,nan,[ nan  nan  nan],nan,nan,nan,113.5989257,541.1061043,541.2530877,nan,nan
0,380,17:43:43:742000,6,1,497,349.453125,[ 0.72317494  0.2712606  -1.        ],1,1,1,0.221100432,1,0,0,0.210948058,0.45156003,0.172717114,0.624277144,0.278842916,nan,119.9910863,469,[ 0.4894822   0.36045336 -1.        ],nan,-19.44421132,1.467146218,113.5989257,542.0479295,542.26903,543.8814245,545.3566209
0,381,17:43:44:678000,6,1,52,36.5625,[ 1.         -0.04388606 -1.        ],1,1,1,0.489771173,0,0,0,0.285951662,0.450880208,0.172914468,0.623794676,0.277965741,nan,nan,nan,[ nan  nan  nan],nan,nan,nan,113.5989257,546.5151616,547.0049327,nan,nan
0,382,17:43:45:614000,6,1,101,71.015625,[ 1.         -0.27357267 -0.44615261],1,1,1,0.307951592,0,0,0,0.339607732,0.450994594,0.172672839,0.623667432,0.278321755,nan,nan,nan,[ nan  nan  nan],nan,nan,nan,113.5989257,547.4569669,547.7649184,nan,nan
0,383,17:43:46:566000,6,1,265,186.328125,[ 0.38425915  0.29156831  0.64947886],1,1,1,0.19814676,0,0,0,0.331956508,0.450575113,0.172592874,0.623167987,0.277982238,nan,nan,nan,[ nan  nan  nan],nan,nan,nan,113.5989257,548.3987647,548.5969115,nan,nan
0,384,17:43:47:502000,6,1,330,232.03125,[-0.13976633  0.44951833  0.31954025],1,1,1,0.200328032,0,1,0,0.235475461,0.449837018,0.172878487,0.622715505,0.276958531,nan,nan,nan,[ nan  nan  nan],nan,nan,nan,113.5989257,549.3405521,549.5408801,nan,nan
0,385,17:43:51:589000,6,1,233,163.828125,[ 0.7286704   0.15490978  0.62648223],1,1,1,0.202503602,1,0,0,0.200326131,0.449109587,0.173149672,0.622259258,0.275959915,nan,-29.31000707,170,[ 1.         -0.18099048  0.24781506],nan,-44.51811793,1.083772975,113.5989257,550.2823497,550.4848533,552.1158626,553.2076895
0,386,17:43:52:525000,6,0,331,232.734375,[-0.14329784  0.45080175  0.31116671],0,0,1,0.654474144,0,0,0,0.352435259,0.448392709,0.173406827,0.621799536,0.274985882,nan,nan,nan,[ nan  nan  nan],nan,nan,nan,113.5989257,554.3662697,555.0207439,nan,nan
0,387,17:43:53:477000,6,1,75,52.734375,[ 1.         -0.16471446 -0.79135592],1,1,1,0.49669217,0,0,0,0.451223305,0.448990046,0.1735094,0.622499446,0.275480646,nan,nan,nan,[ nan  nan  nan],nan,nan,nan,113.5989257,555.3080314,555.8047236,nan,nan
0,388,17:43:54:413000,6,1,19,13.359375,[ 0.99625917  0.12637453 -1.        ],1,1,1,0.442888516,0,0,0,0.53135161,0.449127914,0.173277405,0.622405319,0.275850508,nan,nan,nan,[ nan  nan  nan],nan,nan,nan,113.5989257,556.249817,556.6927056,nan,nan
0,389,17:43:55:349000,6,1,452,317.8125,[ 0.35173807  0.40140621 -1.        ],1,1,1,0.341077214,0,0,0,0.426885967,0.449109933,0.173027869,0.622137802,0.276082063,nan,nan,nan,[ nan  nan  nan],nan,nan,nan,113.5989257,557.1916089,557.5326861,nan,nan
0,390,17:43:56:300000,6,1,384,270,[-0.09247501  0.47794532 -0.22247927],1,1,1,0.263273014,0,0,0,0.349079581,0.448799494,0.172875835,0.621675328,0.275923659,nan,nan,nan,[ nan  nan  nan],nan,nan,nan,113.5989257,558.1333994,558.3966724,nan,nan
0,391,17:43:57:236000,6,1,154,108.28125,[ 1.         -0.25181315  0.10213817],1,1,1,0.097457882,0,1,0,0.233936036,0.448267899,0.172912588,0.621180487,0.275355311,nan,nan,nan,[ nan  nan  nan],nan,nan,nan,113.5989257,559.0751979,559.1726557,nan,nan
0,392,17:43:58:188000,6,1,106,74.53125,[ 1.         -0.28763007 -0.39056445],1,nan,nan,nan,0,0,0,0.180365448,0.447265585,0.173677734,0.620943319,0.273587851,nan,nan,nan,[ nan  nan  nan],nan,nan,nan,113.5989257,560.0169889,nan,nan,nan
0,393,17:43:59:124000,6,1,391,274.921875,[-0.0591908   0.47591628 -0.30371871],1,1,1,0.00583364,0,0,0,0.051645761,0.447265585,0.173677734,0.620943319,0.273587851,nan,nan,nan,[ nan  nan  nan],nan,nan,nan,113.5989257,560.9587848,560.9646184,nan,nan
0,394,17:44:00:060000,6,1,441,310.078125,[ 0.26628726  0.42289189 -1.        ],1,1,1,0.03202515,0,0,0,0.018929395,0.446007944,0.175018854,0.621026798,0.27098909,nan,nan,nan,[ nan  nan  nan],nan,nan,nan,113.5989257,561.9005781,561.9326032,nan,nan
0,395,17:44:01:011000,6,1,143,100.546875,[ 1.         -0.28705753 -0.00469999],1,1,1,0.250197928,0,1,0,0.096018906,0.444831857,0.176153554,0.62098541,0.268678303,nan,nan,nan,[ nan  nan  nan],nan,nan,nan,113.5989257,562.8423674,563.0925653,nan,nan
0,396,17:44:05:489000,6,1,31,21.796875,[ 1.          0.06685157 -1.        ],1,1,1,0.292369084,1,0,0,0.191530721,0.444280486,0.176207781,0.620488267,0.268072705,nan,51.94279504,54,[ 1.         -0.05462921 -1.        ],nan,16.26032996,1.483812091,113.5989257,563.7841613,564.0765304,565.6093457,567.1012112
0,397,17:44:06:425000,6,1,355,249.609375,[-0.17373746  0.47268386  0.08887998],1,1,1,0.720646701,0,0,0,0.421071238,0.443851357,0.176143345,0.619994702,0.267708013,nan,nan,nan,[ nan  nan  nan],nan,nan,nan,113.5989257,568.2597626,568.9804093,nan,nan
0,398,17:44:07:361000,6,1,59,41.484375,[ 1.         -0.08144099 -1.        ],1,nan,nan,nan,0,0,0,0.506507893,0.444631063,0.176505779,0.621136842,0.268125283,nan,nan,nan,[ nan  nan  nan],nan,nan,nan,113.5989257,569.2015562,nan,nan,nan
0,399,17:44:08:312000,6,1,144,101.25,[ 1.         -0.28442319  0.00519445],1,1,1,0.133114873,0,0,0,0.426880787,0.444631063,0.176505779,0.621136842,0.268125283,nan,nan,nan,[ nan  nan  nan],nan,nan,nan,113.5989257,570.143345,570.2764599,nan,nan
0,400,17:44:09:248000,6,1,24,16.875,[ 1.          0.10201906 -1.        ],1,1,1,0.591184196,0,0,0,0.362149535,0.443756017,0.177027126,0.620783143,0.266728892,nan,nan,nan,[ nan  nan  nan],nan,nan,nan,113.5989257,571.0851392,571.6763234,nan,nan
0,401,17:44:10:184000,6,1,455,319.921875,[ 0.37560825  0.39487537 -1.        ],1,1,1,0.657390394,0,0,0,0.460563154,0.444168981,0.176950649,0.62111963,0.267218333,nan,nan,nan,[ nan  nan  nan],nan,nan,nan,113.5989257,572.0269393,572.6843297,nan,nan
0,402,17:44:11:136000,6,1,84,59.0625,[ 1.         -0.20765784 -0.65219109],1,1,1,0.659571666,0,0,1,0.636048752,0.444764572,0.17706131,0.621825882,0.267703262,nan,nan,nan,[ nan  nan  nan],nan,nan,nan,113.5989257,572.9687326,573.6283043,nan,nan
0,403,17:44:12:072000,6,1,170,119.53125,[ 1.         -0.18099048  0.24781506],1,nan,nan,nan,0,0,0,0.65848103,0.44536292,0.17717661,0.62253953,0.26818631,nan,nan,nan,[ nan  nan  nan],nan,nan,nan,113.5989257,573.910524,nan,nan,nan
0,404,17:44:13:023000,6,1,397,279.140625,[-0.02756135  0.47315999 -0.37569455],1,nan,nan,nan,0,0,0,0.659571666,0.44536292,0.17717661,0.62253953,0.26818631,nan,nan,nan,[ nan  nan  nan],nan,nan,nan,113.5989257,574.8522945,nan,nan,nan
0,405,17:44:13:959000,6,1,179,125.859375,[ 1.         -0.13461442  0.32320413],1,nan,nan,nan,0,0,0,nan,0.44536292,0.17717661,0.62253953,0.26818631,nan,nan,nan,[ nan  nan  nan],nan,nan,nan,113.5989257,575.7941057,nan,nan,nan
0,406,17:44:14:895000,6,1,317,222.890625,[-0.07777284  0.42993861  0.42073361],1,1,1,0.772292177,0,0,0,0.772292177,0.44536292,0.17717661,0.62253953,0.26818631,nan,nan,nan,[ nan  nan  nan],nan,nan,nan,113.5989257,576.7358976,577.5081898,nan,nan
0,407,17:44:15:847000,6,1,226,158.90625,[ 0.80126593  0.12020899  0.60458277],1,1,1,0.646485746,0,0,0,0.709388962,0.446271057,0.177765081,0.624036139,0.268505976,nan,nan,nan,[ nan  nan  nan],nan,nan,nan,113.5989257,577.6777018,578.3241875,nan,nan
0,408,17:44:16:783000,6,1,55,38.671875,[ 1.         -0.05999965 -1.        ],1,1,1,0.72868385,0,0,1,0.715820591,0.446825668,0.177830318,0.624655987,0.26899535,nan,nan,nan,[ nan  nan  nan],nan,nan,nan,113.5989257,578.6194886,579.3481724,nan,nan
0,409,17:44:21:557000,6,0,252,177.1875,[ 0.52472169  0.24069367  0.65569401],0,0,1,0.730870824,1,0,0,0.702013473,0.447604282,0.178199653,0.625803936,0.269404629,nan,-78.43986921,240,[ 0.65437302  0.18801506  0.64246395],nan,-8.747630794,1.775519752,113.5989257,579.5612842,580.292155,581.3947976,583.1783725
0,410,17:44:22:493000,6,1,329,231.328125,[-0.13605328  0.44820379  0.32783374],1,1,1,0.46746296,0,0,0,0.642339211,0.448384631,0.178572323,0.626956954,0.269812308,nan,nan,nan,[ nan  nan  nan],nan,nan,nan,113.5989257,584.32859,584.796053,nan,nan
0,411,17:44:23:429000,6,1,204,143.4375,[ 1.          0.00303257  0.49965442],1,1,1,0.421650268,0,0,0,0.539994684,0.448437044,0.178329659,0.626766702,0.270107385,nan,nan,nan,[ nan  nan  nan],nan,nan,nan,113.5989257,585.2703847,585.692035,nan,nan
0,412,17:44:24:380000,6,1,153,107.578125,[ 1.         -0.25554786  0.09262139],1,1,1,0.49583346,0,0,0,0.461648896,0.448363655,0.178090708,0.626454363,0.270272947,nan,nan,nan,[ nan  nan  nan],nan,nan,nan,113.5989257,586.2121729,586.7080064,nan,nan
