block,trial,freq_trials,correct_response,actual_response,acc,rts,probe_trials,trials_colorind0,trials_colorind1,trials_colorind2,trials_colorind3,trials_colorind4,trials_colorind5,wholereport_resp0,wholereport_resp1,wholereport_resp2,wholereport_resp3,wholereport_resp4,wholereport_resp5,wholereport_respacc0,wholereport_respacc1,wholereport_respacc2,wholereport_respacc3,wholereport_respacc4,wholereport_respacc5,wholereport_respacc_total,wholereport_respcolorind0,wholereport_respcolorind1,wholereport_respcolorind2,wholereport_respcolorind3,wholereport_respcolorind4,wholereport_respcolorind5,wholereport_resporder0,wholereport_resporder1,wholereport_resporder2,wholereport_resporder3,wholereport_resporder4,wholereport_resporder5,wholereport_rts0,wholereport_rts1,wholereport_rts2,wholereport_rts3,wholereport_rts4,wholereport_rts5,time_blockstart,time_encarray_offset,time_encarray_onset,time_response,time_iti_offset,time_iti_onset,time_memprobe_offset,time_memprobe_onset
1,1,1,1,1.0,1.0,0.3323718883912079,0.0,0,8,3,5,2,4,nan,nan,nan,nan,nan,nan,nan,nan,nan,nan,nan,nan,0.0,nan,nan,nan,nan,nan,nan,nan,nan,nan,nan,nan,nan,nan,nan,nan,nan,nan,nan,108.37380829110043,109.39341190253617,nan,109.72578379092738,nan,nan,nan,nan
1,2,1,1,1.0,1.0,0.30781584279611707,0.0,6,0,1,2,7,3,nan,nan,nan,nan,nan,nan,nan,nan,nan,nan,nan,nan,0.0,nan,nan,nan,nan,nan,nan,nan,nan,nan,nan,nan,nan,nan,nan,nan,nan,nan,nan,108.37380829110043,110.40196597756585,nan,110.70978182036197,nan,nan,nan,nan
1,3,1,1,1.0,1.0,0.3233913070289418,0.0,3,6,0,4,5,8,nan,nan,nan,nan,nan,nan,nan,nan,nan,nan,nan,nan,0.0,nan,nan,nan,nan,nan,nan,nan,nan,nan,nan,nan,nan,nan,nan,nan,nan,nan,nan,108.37380829110043,111.41036068298854,nan,111.73375199001748,nan,nan,nan,nan
1,4,1,1,1.0,1.0,0.4668975769309327,0.0,6,4,2,5,8,1,nan,nan,nan,nan,nan,nan,nan,nan,nan,nan,nan,nan,0.0,nan,nan,nan,nan,nan,nan,nan,nan,nan,nan,nan,nan,nan,nan,nan,nan,nan,nan,108.37380829110043,112.41882067575352,nan,112.88571825268446,nan,nan,nan,nan
1,5,1,1,1.0,1.0,0.5784503679024056,0.0,4,7,3,1,0,2,nan,nan,nan,nan,nan,nan,nan,nan,nan,nan,nan,nan,0.0,nan,nan,nan,nan,nan,nan,nan,nan,nan,nan,nan,nan,nan,nan,nan,nan,nan,nan,108.37380829110043,113.42726071173092,nan,114.00571107963333,nan,nan,nan,nan
1,6,1,1,1.0,1.0,0.41793060034979135,0.0,1,0,7,3,2,8,nan,nan,nan,nan,nan,nan,nan,nan,nan,nan,nan,nan,0.0,nan,nan,nan,nan,nan,nan,nan,nan,nan,nan,nan,nan,nan,nan,nan,nan,nan,nan,108.37380829110043,114.43575748213334,nan,114.85368808248313,nan,nan,nan,nan
1,7,1,1,1.0,1.0,0.46553937083808705,0.0,2,7,6,8,4,1,nan,nan,nan,nan,nan,nan,nan,nan,nan,nan,nan,nan,0.0,nan,nan,nan,nan,nan,nan,nan,nan,nan,nan,nan,nan,nan,nan,nan,nan,nan,nan,108.37380829110043,115.44422631297493,nan,115.90976568381302,nan,nan,nan,nan
1,8,1,1,1.0,1.0,0.40095758659299463,0.0,6,2,4,1,7,3,nan,nan,nan,nan,nan,nan,nan,nan,nan,nan,nan,nan,0.0,nan,nan,nan,nan,nan,nan,nan,nan,nan,nan,nan,nan,nan,nan,nan,nan,nan,nan,108.37380829110043,116.45268944179406,nan,116.85364702838706,nan,nan,nan,nan
1,9,1,1,1.0,1.0,0.3764731004484929,0.0,7,1,3,0,8,6,nan,nan,nan,nan,nan,nan,nan,nan,nan,nan,nan,nan,0.0,nan,nan,nan,nan,nan,nan,nan,nan,nan,nan,nan,nan,nan,nan,nan,nan,nan,nan,108.37380829110043,117.46115314087365,nan,117.83762624132214,nan,nan,nan,nan
1,10,1,1,1.0,1.0,0.3519923206185922,0.0,6,4,1,2,3,0,nan,nan,nan,nan,nan,nan,nan,nan,nan,nan,nan,nan,0.0,nan,nan,nan,nan,nan,nan,nan,nan,nan,nan,nan,nan,nan,nan,nan,nan,nan,nan,108.37380829110043,118.46962510776939,nan,118.82161742838798,nan,nan,nan,nan
1,11,1,1,1.0,1.0,0.4318359615281224,0.0,5,0,4,7,2,8,nan,nan,nan,nan,nan,nan,nan,nan,nan,nan,nan,nan,0.0,nan,nan,nan,nan,nan,nan,nan,nan,nan,nan,nan,nan,nan,nan,nan,nan,nan,nan,108.37380829110043,119.46975454222411,nan,119.90159050375223,nan,nan,nan,nan
1,12,0,0,0.0,1.0,0.4553619487560354,0.0,8,4,5,3,6,1,nan,nan,nan,nan,nan,nan,nan,nan,nan,nan,nan,nan,0.0,nan,nan,nan,nan,nan,nan,nan,nan,nan,nan,nan,nan,nan,nan,nan,nan,nan,nan,108.37380829110043,120.47821196913719,nan,120.93357391789323,nan,nan,nan,nan
1,13,1,1,1.0,1.0,0.4469059473485686,0.0,1,8,7,2,0,3,nan,nan,nan,nan,nan,nan,nan,nan,nan,nan,nan,nan,0.0,nan,nan,nan,nan,nan,nan,nan,nan,nan,nan,nan,nan,nan,nan,nan,nan,nan,nan,108.37380829110043,121.48667167680105,nan,121.93357762414962,nan,nan,nan,nan
1,14,0,0,0.0,1.0,0.3664051559753716,0.0,5,0,3,8,2,6,nan,nan,nan,nan,nan,nan,nan,nan,nan,nan,nan,nan,0.0,nan,nan,nan,nan,nan,nan,nan,nan,nan,nan,nan,nan,nan,nan,nan,nan,nan,nan,108.37380829110043,122.49514763505431,nan,122.86155279102968,nan,nan,nan,nan
1,15,1,1,1.0,1.0,0.3899071949417703,0.0,0,5,1,3,6,4,nan,nan,nan,nan,nan,nan,nan,nan,nan,nan,nan,nan,0.0,nan,nan,nan,nan,nan,nan,nan,nan,nan,nan,nan,nan,nan,nan,nan,nan,nan,nan,108.37380829110043,123.50361161923502,nan,123.89351881417679,nan,nan,nan,nan
1,16,1,1,1.0,1.0,0.38943022629246116,0.0,6,8,5,0,3,1,nan,nan,nan,nan,nan,nan,nan,nan,nan,nan,nan,nan,0.0,nan,nan,nan,nan,nan,nan,nan,nan,nan,nan,nan,nan,nan,nan,nan,nan,nan,nan,108.37380829110043,124.51207275240449,nan,124.90150297869695,nan,nan,nan,nan
1,17,1,1,1.0,1.0,0.4369628756539896,0.0,7,6,1,8,2,3,nan,nan,nan,nan,nan,nan,nan,nan,nan,nan,nan,nan,0.0,nan,nan,nan,nan,nan,nan,nan,nan,nan,nan,nan,nan,nan,nan,nan,nan,nan,nan,108.37380829110043,125.52052903897129,nan,125.95749191462528,nan,nan,nan,nan
1,18,1,1,1.0,1.0,0.46847787412116304,0.0,1,3,2,4,7,6,nan,nan,nan,nan,nan,nan,nan,nan,nan,nan,nan,nan,0.0,nan,nan,nan,nan,nan,nan,nan,nan,nan,nan,nan,nan,nan,nan,nan,nan,nan,nan,108.37380829110043,126.52900471212342,nan,126.99748258624459,nan,nan,nan,nan
1,19,1,1,1.0,1.0,0.43598128389567137,0.0,4,1,5,3,8,0,nan,nan,nan,nan,nan,nan,nan,nan,nan,nan,nan,nan,0.0,nan,nan,nan,nan,nan,nan,nan,nan,nan,nan,nan,nan,nan,nan,nan,nan,nan,nan,108.37380829110043,127.53747126215603,nan,127.9734525460517,nan,nan,nan,nan
1,20,1,1,1.0,1.0,0.47549128060927615,0.0,0,3,6,7,1,5,nan,nan,nan,nan,nan,nan,nan,nan,nan,nan,nan,nan,0.0,nan,nan,nan,nan,nan,nan,nan,nan,nan,nan,nan,nan,nan,nan,nan,nan,nan,nan,108.37380829110043,128.54593695688527,nan,129.02142823749455,nan,nan,nan,nan
1,21,1,1,1.0,1.0,0.48300560389179736,0.0,2,7,3,1,5,6,nan,nan,nan,nan,nan,nan,nan,nan,nan,nan,nan,nan,0.0,nan,nan,nan,nan,nan,nan,nan,nan,nan,nan,nan,nan,nan,nan,nan,nan,nan,nan,108.37380829110043,129.55440721323248,nan,130.03741281712428,nan,nan,nan,nan
1,22,1,1,1.0,1.0,0.5865217723185197,0.0,5,1,8,3,0,4,nan,nan,nan,nan,nan,nan,nan,nan,nan,nan,nan,nan,0.0,nan,nan,nan,nan,nan,nan,nan,nan,nan,nan,nan,nan,nan,nan,nan,nan,nan,nan,108.37380829110043,130.56287062721094,nan,131.14939239952946,nan,nan,nan,nan
1,23,1,1,1.0,1.0,0.5060378016787581,0.0,3,8,6,0,5,7,nan,nan,nan,nan,nan,nan,nan,nan,nan,nan,nan,nan,0.0,nan,nan,nan,nan,nan,nan,nan,nan,nan,nan,nan,nan,nan,nan,nan,nan,nan,nan,108.37380829110043,131.5713377474458,nan,132.07737554912455,nan,nan,nan,nan
1,24,0,0,0.0,1.0,0.4735617385013029,1.0,7,3,8,4,2,1,1.0,1.0,1.0,1.0,1.0,1.0,0.0,1.0,1.0,1.0,0.0,1.0,4.0,3.0,3.0,8.0,4.0,5.0,1.0,3.0,2.0,1.0,4.0,5.0,6.0,4.485051750962157,3.3345705628744327,2.383020657056477,5.197445922647603,6.33253182831686,7.3002430744236335,108.37380829110043,132.57979945081752,133.38820886722533,133.05336118931882,141.74763939005788,142.75379151594825,134.40501994546503,141.73930683598155
1,25,1,1,1.0,1.0,0.6730406937422231,0.0,8,2,0,6,4,5,nan,nan,nan,nan,nan,nan,nan,nan,nan,nan,nan,nan,0.0,nan,nan,nan,nan,nan,nan,nan,nan,nan,nan,nan,nan,nan,nan,nan,nan,nan,nan,108.37380829110043,142.95616421406157,nan,143.6292049078038,nan,nan,nan,nan
1,26,1,1,1.0,1.0,0.6645433531375602,0.0,1,0,2,4,5,7,nan,nan,nan,nan,nan,nan,nan,nan,nan,nan,nan,nan,0.0,nan,nan,nan,nan,nan,nan,nan,nan,nan,nan,nan,nan,nan,nan,nan,nan,nan,nan,108.37380829110043,143.96462278137915,nan,144.6291661345167,nan,nan,nan,nan
1,27,1,1,1.0,1.0,0.576053265365772,0.0,2,8,1,7,0,4,nan,nan,nan,nan,nan,nan,nan,nan,nan,nan,nan,nan,0.0,nan,nan,nan,nan,nan,nan,nan,nan,nan,nan,nan,nan,nan,nan,nan,nan,nan,nan,108.37380829110043,144.97308305930346,nan,145.54913632466923,nan,nan,nan,nan
1,28,1,1,1.0,1.0,0.4635690597933717,0.0,0,2,3,5,4,7,nan,nan,nan,nan,nan,nan,nan,nan,nan,nan,nan,nan,0.0,nan,nan,nan,nan,nan,nan,nan,nan,nan,nan,nan,nan,nan,nan,nan,nan,nan,nan,108.37380829110043,145.98156329401536,nan,146.44513235380873,nan,nan,nan,nan
1,29,1,1,1.0,1.0,0.39107581094140187,0.0,5,8,6,3,7,1,nan,nan,nan,nan,nan,nan,nan,nan,nan,nan,nan,nan,0.0,nan,nan,nan,nan,nan,nan,nan,nan,nan,nan,nan,nan,nan,nan,nan,nan,nan,nan,108.37380829110043,146.9900301291491,nan,147.3811059400905,nan,nan,nan,nan
1,30,1,1,1.0,1.0,0.38260612479643896,0.0,6,7,2,5,1,3,nan,nan,nan,nan,nan,nan,nan,nan,nan,nan,nan,nan,0.0,nan,nan,nan,nan,nan,nan,nan,nan,nan,nan,nan,nan,nan,nan,nan,nan,nan,nan,108.37380829110043,147.99849325802643,nan,148.38109938282287,nan,nan,nan,nan
1,31,1,1,1.0,1.0,0.36614144046325237,0.0,5,0,7,3,8,1,nan,nan,nan,nan,nan,nan,nan,nan,nan,nan,nan,nan,0.0,nan,nan,nan,nan,nan,nan,nan,nan,nan,nan,nan,nan,nan,nan,nan,nan,nan,nan,108.37380829110043,149.00693386414787,nan,149.37307530461112,nan,nan,nan,nan
1,32,1,1,1.0,1.0,0.40564031834946945,0.0,1,5,6,4,2,3,nan,nan,nan,nan,nan,nan,nan,nan,nan,nan,nan,nan,0.0,nan,nan,nan,nan,nan,nan,nan,nan,nan,nan,nan,nan,nan,nan,nan,nan,nan,nan,108.37380829110043,150.01541552436538,nan,150.42105584271485,nan,nan,nan,nan
1,33,1,1,1.0,1.0,0.43715845281258225,0.0,5,7,2,6,4,1,nan,nan,nan,nan,nan,nan,nan,nan,nan,nan,nan,nan,0.0,nan,nan,nan,nan,nan,nan,nan,nan,nan,nan,nan,nan,nan,nan,nan,nan,nan,nan,108.37380829110043,151.02388749131933,nan,151.4610459441319,nan,nan,nan,nan
1,34,1,1,1.0,1.0,0.4846600265009329,0.0,8,4,1,5,0,2,nan,nan,nan,nan,nan,nan,nan,nan,nan,nan,nan,nan,0.0,nan,nan,nan,nan,nan,nan,nan,nan,nan,nan,nan,nan,nan,nan,nan,nan,nan,nan,108.37380829110043,152.0323497648933,nan,152.51700979139423,nan,nan,nan,nan
1,35,1,1,1.0,1.0,0.44419153104536235,0.0,3,8,0,2,1,4,nan,nan,nan,nan,nan,nan,nan,nan,nan,nan,nan,nan,0.0,nan,nan,nan,nan,nan,nan,nan,nan,nan,nan,nan,nan,nan,nan,nan,nan,nan,nan,108.37380829110043,153.04081289371243,nan,153.4850044247578,nan,nan,nan,nan
1,36,1,1,1.0,1.0,0.3957086505834013,0.0,1,5,7,3,2,6,nan,nan,nan,nan,nan,nan,nan,nan,nan,nan,nan,nan,0.0,nan,nan,nan,nan,nan,nan,nan,nan,nan,nan,nan,nan,nan,nan,nan,nan,nan,nan,108.37380829110043,154.04928229475627,nan,154.44499094533967,nan,nan,nan,nan
1,37,1,1,1.0,1.0,0.43522777035832405,0.0,5,6,3,8,0,1,nan,nan,nan,nan,nan,nan,nan,nan,nan,nan,nan,nan,0.0,nan,nan,nan,nan,nan,nan,nan,nan,nan,nan,nan,nan,nan,nan,nan,nan,nan,nan,108.37380829110043,155.05774371302687,nan,155.4929714833852,nan,nan,nan,nan
1,38,1,1,1.0,1.0,0.36274507007328793,0.0,4,1,6,2,8,5,nan,nan,nan,nan,nan,nan,nan,nan,nan,nan,nan,nan,0.0,nan,nan,nan,nan,nan,nan,nan,nan,nan,nan,nan,nan,nan,nan,nan,nan,nan,nan,108.37380829110043,156.06621282896958,nan,156.42895789904287,nan,nan,nan,nan
1,39,1,1,1.0,1.0,0.3862579428241588,0.0,3,0,2,1,5,6,nan,nan,nan,nan,nan,nan,nan,nan,nan,nan,nan,nan,0.0,nan,nan,nan,nan,nan,nan,nan,nan,nan,nan,nan,nan,nan,nan,nan,nan,nan,nan,108.37380829110043,157.07468422566308,nan,157.46094216848724,nan,nan,nan,nan
1,40,1,1,1.0,1.0,0.3937905124039389,0.0,2,3,8,7,1,5,nan,nan,nan,nan,nan,nan,nan,nan,nan,nan,nan,nan,0.0,nan,nan,nan,nan,nan,nan,nan,nan,nan,nan,nan,nan,nan,nan,nan,nan,nan,nan,108.37380829110043,158.08313338476,nan,158.47692389716394,nan,nan,nan,nan
1,41,1,1,1.0,1.0,0.3052950078272261,0.0,6,2,5,4,0,3,nan,nan,nan,nan,nan,nan,nan,nan,nan,nan,nan,nan,0.0,nan,nan,nan,nan,nan,nan,nan,nan,nan,nan,nan,nan,nan,nan,nan,nan,nan,nan,108.37380829110043,159.0916184661328,nan,159.39691347396,nan,nan,nan,nan
1,42,1,1,1.0,1.0,0.28880723053589463,0.0,3,4,1,5,6,2,nan,nan,nan,nan,nan,nan,nan,nan,nan,nan,nan,nan,0.0,nan,nan,nan,nan,nan,nan,nan,nan,nan,nan,nan,nan,nan,nan,nan,nan,nan,nan,108.37380829110043,160.10006848053308,nan,160.38887571106898,nan,nan,nan,nan
1,43,1,1,1.0,1.0,0.31265651871217415,0.0,6,8,4,2,3,0,nan,nan,nan,nan,nan,nan,nan,nan,nan,nan,nan,nan,0.0,nan,nan,nan,nan,nan,nan,nan,nan,nan,nan,nan,nan,nan,nan,nan,nan,nan,nan,108.37380829110043,161.10021701647202,nan,161.4128735351842,nan,nan,nan,nan
1,44,1,1,1.0,1.0,0.22417099255835637,0.0,1,2,6,0,4,5,nan,nan,nan,nan,nan,nan,nan,nan,nan,nan,nan,nan,0.0,nan,nan,nan,nan,nan,nan,nan,nan,nan,nan,nan,nan,nan,nan,nan,nan,nan,nan,108.37380829110043,162.1086695967242,nan,162.33284058928257,nan,nan,nan,nan
1,45,0,0,1.0,0.0,0.12801747536286712,1.0,6,3,8,4,2,0,1.0,1.0,1.0,1.0,1.0,1.0,0.0,1.0,1.0,1.0,0.0,1.0,4.0,7.0,3.0,8.0,4.0,5.0,0.0,3.0,2.0,1.0,4.0,5.0,6.0,3.773004828428384,2.7077217034529895,1.724742328573484,4.74704211007338,5.875515741936397,6.683155679376796,108.37380829110043,163.1088075840962,163.91721129853977,163.23682505945908,171.6598745911615,172.65852864435874,164.93401296855882,171.6515488794539
1,46,1,1,1.0,1.0,0.6246002928819507,0.0,5,0,2,8,7,3,nan,nan,nan,nan,nan,nan,nan,nan,nan,nan,nan,nan,0.0,nan,nan,nan,nan,nan,nan,nan,nan,nan,nan,nan,nan,nan,nan,nan,nan,nan,nan,108.37380829110043,172.86006572074257,nan,173.48466601362452,nan,nan,nan,nan
1,47,1,1,1.0,1.0,0.456425363663584,0.0,3,4,8,1,2,6,nan,nan,nan,nan,nan,nan,nan,nan,nan,nan,nan,nan,0.0,nan,nan,nan,nan,nan,nan,nan,nan,nan,nan,nan,nan,nan,nan,nan,nan,nan,nan,108.37380829110043,173.86020456341794,nan,174.31662992708152,nan,nan,nan,nan
1,48,1,1,1.0,1.0,0.4002873215940781,0.0,1,7,4,0,5,3,nan,nan,nan,nan,nan,nan,nan,nan,nan,nan,nan,nan,0.0,nan,nan,nan,nan,nan,nan,nan,nan,nan,nan,nan,nan,nan,nan,nan,nan,nan,nan,108.37380829110043,174.8603322872077,nan,175.2606196088018,nan,nan,nan,nan
1,49,1,1,1.0,1.0,0.327823152707424,0.0,0,1,5,7,2,8,nan,nan,nan,nan,nan,nan,nan,nan,nan,nan,nan,nan,0.0,nan,nan,nan,nan,nan,nan,nan,nan,nan,nan,nan,nan,nan,nan,nan,nan,nan,nan,108.37380829110043,175.86878543766215,nan,176.19660859036958,nan,nan,nan,nan
1,50,1,1,1.0,1.0,0.33531837444752455,0.0,6,5,4,8,3,7,nan,nan,nan,nan,nan,nan,nan,nan,nan,nan,nan,nan,0.0,nan,nan,nan,nan,nan,nan,nan,nan,nan,nan,nan,nan,nan,nan,nan,nan,nan,nan,108.37380829110043,176.87726453202777,nan,177.2125829064753,nan,nan,nan,nan
1,51,1,1,1.0,1.0,0.30285086418734863,0.0,5,3,6,2,4,1,nan,nan,nan,nan,nan,nan,nan,nan,nan,nan,nan,nan,0.0,nan,nan,nan,nan,nan,nan,nan,nan,nan,nan,nan,nan,nan,nan,nan,nan,nan,nan,108.37380829110043,177.88571198051795,nan,178.1885628447053,nan,nan,nan,nan
1,52,1,1,1.0,1.0,0.3343550289282575,0.0,6,8,1,7,2,0,nan,nan,nan,nan,nan,nan,nan,nan,nan,nan,nan,nan,0.0,nan,nan,nan,nan,nan,nan,nan,nan,nan,nan,nan,nan,nan,nan,nan,nan,nan,nan,108.37380829110043,178.89419734699186,nan,179.22855237592012,nan,nan,nan,nan
1,53,1,1,1.0,1.0,0.3898784000775777,0.0,5,1,2,8,4,3,nan,nan,nan,nan,nan,nan,nan,nan,nan,nan,nan,nan,0.0,nan,nan,nan,nan,nan,nan,nan,nan,nan,nan,nan,nan,nan,nan,nan,nan,nan,nan,108.37380829110043,179.90265192295192,nan,180.2925303230295,nan,nan,nan,nan
1,54,1,1,1.0,1.0,0.3494386994279921,0.0,0,4,1,7,2,6,nan,nan,nan,nan,nan,nan,nan,nan,nan,nan,nan,nan,0.0,nan,nan,nan,nan,nan,nan,nan,nan,nan,nan,nan,nan,nan,nan,nan,nan,nan,nan,108.37380829110043,180.9110893930192,nan,181.2605280924472,nan,nan,nan,nan
1,55,1,1,1.0,1.0,0.37292391766095534,0.0,1,3,0,8,6,5,nan,nan,nan,nan,nan,nan,nan,nan,nan,nan,nan,nan,0.0,nan,nan,nan,nan,nan,nan,nan,nan,nan,nan,nan,nan,nan,nan,nan,nan,nan,nan,108.37380829110043,181.9195881591295,nan,182.29251207679044,nan,nan,nan,nan
1,56,1,1,1.0,1.0,0.3404432929237373,0.0,3,5,4,0,8,6,nan,nan,nan,nan,nan,nan,nan,nan,nan,nan,nan,nan,0.0,nan,nan,nan,nan,nan,nan,nan,nan,nan,nan,nan,nan,nan,nan,nan,nan,nan,nan,108.37380829110043,182.9280433052336,nan,183.26848659815732,nan,nan,nan,nan
1,57,1,1,1.0,1.0,0.379929056216497,0.0,7,3,0,8,1,5,nan,nan,nan,nan,nan,nan,nan,nan,nan,nan,nan,nan,0.0,nan,nan,nan,nan,nan,nan,nan,nan,nan,nan,nan,nan,nan,nan,nan,nan,nan,nan,108.37380829110043,183.9365172678372,nan,184.3164463240537,nan,nan,nan,nan
1,58,1,1,1.0,1.0,0.4354424490593374,0.0,3,0,8,2,5,7,nan,nan,nan,nan,nan,nan,nan,nan,nan,nan,nan,nan,0.0,nan,nan,nan,nan,nan,nan,nan,nan,nan,nan,nan,nan,nan,nan,nan,nan,nan,nan,108.37380829110043,184.9449863837217,nan,185.38042883278104,nan,nan,nan,nan
1,59,1,1,1.0,1.0,0.4270138170104474,0.0,2,7,6,8,1,5,nan,nan,nan,nan,nan,nan,nan,nan,nan,nan,nan,nan,0.0,nan,nan,nan,nan,nan,nan,nan,nan,nan,nan,nan,nan,nan,nan,nan,nan,nan,nan,108.37380829110043,185.95342356868787,nan,186.38043738569831,nan,nan,nan,nan
1,60,1,1,1.0,1.0,0.40248171956045553,0.0,4,2,5,7,6,8,nan,nan,nan,nan,nan,nan,nan,nan,nan,nan,nan,nan,0.0,nan,nan,nan,nan,nan,nan,nan,nan,nan,nan,nan,nan,nan,nan,nan,nan,nan,nan,108.37380829110043,186.9619166328339,nan,187.36439835239435,nan,nan,nan,nan
1,61,1,1,1.0,1.0,0.3940123185166158,0.0,7,4,0,8,2,6,nan,nan,nan,nan,nan,nan,nan,nan,nan,nan,nan,nan,0.0,nan,nan,nan,nan,nan,nan,nan,nan,nan,nan,nan,nan,nan,nan,nan,nan,nan,nan,108.37380829110043,187.97038375306875,nan,188.36439607158536,nan,nan,nan,nan
1,62,1,1,1.0,1.0,0.45752555615035817,0.0,4,7,6,1,8,3,nan,nan,nan,nan,nan,nan,nan,nan,nan,nan,nan,nan,0.0,nan,nan,nan,nan,nan,nan,nan,nan,nan,nan,nan,nan,nan,nan,nan,nan,nan,nan,108.37380829110043,188.9788534392137,nan,189.43637899536407,nan,nan,nan,nan
1,63,1,1,1.0,1.0,0.49703441240126267,0.0,3,6,4,5,1,2,nan,nan,nan,nan,nan,nan,nan,nan,nan,nan,nan,nan,0.0,nan,nan,nan,nan,nan,nan,nan,nan,nan,nan,nan,nan,nan,nan,nan,nan,nan,nan,108.37380829110043,189.98730288341176,nan,190.48433729581302,nan,nan,nan,nan
1,64,1,1,1.0,1.0,0.5605436587356962,0.0,0,7,5,3,8,6,nan,nan,nan,nan,nan,nan,nan,nan,nan,nan,nan,nan,0.0,nan,nan,nan,nan,nan,nan,nan,nan,nan,nan,nan,nan,nan,nan,nan,nan,nan,nan,108.37380829110043,190.9957885349868,nan,191.55633219372248,nan,nan,nan,nan
1,65,1,1,1.0,1.0,0.5520679855253547,0.0,1,0,7,5,4,3,nan,nan,nan,nan,nan,nan,nan,nan,nan,nan,nan,nan,0.0,nan,nan,nan,nan,nan,nan,nan,nan,nan,nan,nan,nan,nan,nan,nan,nan,nan,nan,108.37380829110043,192.00424197054235,nan,192.5563099560677,nan,nan,nan,nan
1,66,1,1,1.0,1.0,0.7435924264718778,0.0,0,1,8,2,5,6,nan,nan,nan,nan,nan,nan,nan,nan,nan,nan,nan,nan,0.0,nan,nan,nan,nan,nan,nan,nan,nan,nan,nan,nan,nan,nan,nan,nan,nan,nan,nan,108.37380829110043,193.0127053844626,nan,193.75629781093448,nan,nan,nan,nan
1,67,1,1,1.0,1.0,0.6470913749653846,0.0,5,4,1,8,2,3,nan,nan,nan,nan,nan,nan,nan,nan,nan,nan,nan,nan,0.0,nan,nan,nan,nan,nan,nan,nan,nan,nan,nan,nan,nan,nan,nan,nan,nan,nan,nan,108.37380829110043,194.02117193455342,nan,194.6682633095188,nan,nan,nan,nan
1,68,1,1,1.0,1.0,0.6786320322426036,0.0,8,3,0,6,4,1,nan,nan,nan,nan,nan,nan,nan,nan,nan,nan,nan,nan,0.0,nan,nan,nan,nan,nan,nan,nan,nan,nan,nan,nan,nan,nan,nan,nan,nan,nan,nan,108.37380829110043,195.02963791438378,nan,195.7082699466264,nan,nan,nan,nan
1,69,1,1,1.0,1.0,0.5741268594283611,0.0,0,4,2,1,7,3,nan,nan,nan,nan,nan,nan,nan,nan,nan,nan,nan,nan,0.0,nan,nan,nan,nan,nan,nan,nan,nan,nan,nan,nan,nan,nan,nan,nan,nan,nan,nan,108.37380829110043,196.03810503461864,nan,196.612231894047,nan,nan,nan,nan
1,70,0,0,0.0,1.0,0.6296932803816162,1.0,3,8,4,5,1,7,1.0,1.0,1.0,1.0,1.0,1.0,0.0,1.0,1.0,1.0,0.0,0.0,3.0,0.0,8.0,4.0,5.0,7.0,2.0,4.0,3.0,1.0,2.0,6.0,5.0,4.969673004176002,3.6249449761235155,1.2914825885090977,2.4097309018252417,7.048483735707123,5.728500773140695,108.37380829110043,197.04653566231718,197.85500466421945,197.6762289426988,205.9643724655034,206.96230921254028,198.8801223526243,205.95604304748122
1,71,1,1,1.0,1.0,0.5911554672638886,0.0,6,3,7,4,0,1,nan,nan,nan,nan,nan,nan,nan,nan,nan,nan,nan,nan,0.0,nan,nan,nan,nan,nan,nan,nan,nan,nan,nan,nan,nan,nan,nan,nan,nan,nan,nan,108.37380829110043,207.17290270637022,nan,207.7640581736341,nan,nan,nan,nan
1,72,1,1,1.0,1.0,0.43869883636943996,0.0,7,1,5,0,2,8,nan,nan,nan,nan,nan,nan,nan,nan,nan,nan,nan,nan,0.0,nan,nan,nan,nan,nan,nan,nan,nan,nan,nan,nan,nan,nan,nan,nan,nan,nan,nan,108.37380829110043,208.181341316842,nan,208.62004015321145,nan,nan,nan,nan
1,73,0,0,1.0,0.0,0.5821888556238264,1.0,3,0,4,5,7,1,1.0,1.0,1.0,1.0,1.0,1.0,0.0,0.0,0.0,1.0,1.0,0.0,2.0,4.0,2.0,8.0,5.0,7.0,5.0,5.0,4.0,3.0,2.0,1.0,6.0,5.833195821149275,4.96229324711021,4.1228572048130445,2.714946082327515,1.3771439356496558,6.825425765127875,108.37380829110043,209.18981670495123,209.99823609978193,209.77200556057505,217.88259614643175,218.88053431897424,211.01504347170703,217.87426986452192
1,74,1,1,1.0,1.0,0.6887535750865936,0.0,2,1,7,4,8,3,nan,nan,nan,nan,nan,nan,nan,nan,nan,nan,nan,nan,0.0,nan,nan,nan,nan,nan,nan,nan,nan,nan,nan,nan,nan,nan,nan,nan,nan,nan,nan,108.37380829110043,219.09108419285621,nan,219.7798377679428,nan,nan,nan,nan
1,75,0,0,0.0,1.0,0.6562247688998468,0.0,0,5,1,6,4,7,nan,nan,nan,nan,nan,nan,nan,nan,nan,nan,nan,nan,0.0,nan,nan,nan,nan,nan,nan,nan,nan,nan,nan,nan,nan,nan,nan,nan,nan,nan,nan,108.37380829110043,220.0995818185038,nan,220.75580658740364,nan,nan,nan,nan
1,76,1,1,1.0,1.0,0.7357499555218965,0.0,1,7,6,0,3,2,nan,nan,nan,nan,nan,nan,nan,nan,nan,nan,nan,nan,0.0,nan,nan,nan,nan,nan,nan,nan,nan,nan,nan,nan,nan,nan,nan,nan,nan,nan,nan,108.37380829110043,221.10804523248225,nan,221.84379518800415,nan,nan,nan,nan
1,77,1,1,nan,nan,nan,0.0,4,5,0,3,1,6,nan,nan,nan,nan,nan,nan,nan,nan,nan,nan,nan,nan,0.0,nan,nan,nan,nan,nan,nan,nan,nan,nan,nan,nan,nan,nan,nan,nan,nan,nan,nan,108.37380829110043,222.116517199378,nan,nan,nan,nan,nan,nan
1,78,1,1,1.0,1.0,0.3827637839131057,0.0,7,8,3,0,5,1,nan,nan,nan,nan,nan,nan,nan,nan,nan,nan,nan,nan,0.0,nan,nan,nan,nan,nan,nan,nan,nan,nan,nan,nan,nan,nan,nan,nan,nan,nan,nan,108.37380829110043,223.12497833260568,nan,223.50774211651878,nan,nan,nan,nan
1,79,1,1,1.0,1.0,0.4302915866719559,0.0,1,2,0,6,8,4,nan,nan,nan,nan,nan,nan,nan,nan,nan,nan,nan,nan,0.0,nan,nan,nan,nan,nan,nan,nan,nan,nan,nan,nan,nan,nan,nan,nan,nan,nan,nan,108.37380829110043,224.13344345713267,nan,224.56373504380463,nan,nan,nan,nan
1,80,1,1,1.0,1.0,0.46979074960108846,0.0,8,5,1,4,6,7,nan,nan,nan,nan,nan,nan,nan,nan,nan,nan,nan,nan,0.0,nan,nan,nan,nan,nan,nan,nan,nan,nan,nan,nan,nan,nan,nan,nan,nan,nan,nan,108.37380829110043,225.14193110441556,nan,225.61172185401665,nan,nan,nan,nan
1,81,0,0,0.0,1.0,0.6133298057247885,1.0,3,0,2,8,1,4,1.0,1.0,1.0,1.0,1.0,1.0,0.0,1.0,1.0,1.0,0.0,0.0,3.0,7.0,0.0,2.0,8.0,5.0,1.0,4.0,3.0,2.0,1.0,6.0,5.0,3.577086459903512,2.840155059006065,2.018045551783871,1.1201530519174412,6.584243840770796,4.856894577678759,108.37380829110043,226.1503853952745,226.95878112700302,226.7637152009993,234.60144493280677,235.6034505959833,227.97559420089237,234.59311209362932
1,82,1,1,1.0,1.0,0.5615768532152288,0.0,5,1,8,0,4,6,nan,nan,nan,nan,nan,nan,nan,nan,nan,nan,nan,nan,0.0,nan,nan,nan,nan,nan,nan,nan,nan,nan,nan,nan,nan,nan,nan,nan,nan,nan,nan,108.37380829110043,235.80997945019044,nan,236.37155630340567,nan,nan,nan,nan
1,83,1,1,1.0,1.0,0.4251159207778983,0.0,7,6,0,3,2,8,nan,nan,nan,nan,nan,nan,nan,nan,nan,nan,nan,nan,0.0,nan,nan,nan,nan,nan,nan,nan,nan,nan,nan,nan,nan,nan,nan,nan,nan,nan,nan,108.37380829110043,236.81843630690128,nan,237.24355222767917,nan,nan,nan,nan
1,84,1,1,1.0,1.0,0.39258369331946597,0.0,8,7,6,2,0,5,nan,nan,nan,nan,nan,nan,nan,nan,nan,nan,nan,nan,0.0,nan,nan,nan,nan,nan,nan,nan,nan,nan,nan,nan,nan,nan,nan,nan,nan,nan,nan,108.37380829110043,237.82691853732103,nan,238.2195022306405,nan,nan,nan,nan
1,85,1,1,1.0,1.0,0.3199239473324269,0.0,4,3,2,7,8,0,nan,nan,nan,nan,nan,nan,nan,nan,nan,nan,nan,nan,0.0,nan,nan,nan,nan,nan,nan,nan,nan,nan,nan,nan,nan,nan,nan,nan,nan,nan,nan,108.37380829110043,238.83556384366238,nan,239.1554877909948,nan,nan,nan,nan
1,86,1,1,1.0,1.0,0.42363455245504156,0.0,0,2,6,1,4,8,nan,nan,nan,nan,nan,nan,nan,nan,nan,nan,nan,nan,0.0,nan,nan,nan,nan,nan,nan,nan,nan,nan,nan,nan,nan,nan,nan,nan,nan,nan,nan,108.37380829110043,239.84383367624832,nan,240.26746822870336,nan,nan,nan,nan
1,87,1,1,1.0,1.0,0.4151414883090183,0.0,8,0,1,4,7,3,nan,nan,nan,nan,nan,nan,nan,nan,nan,nan,nan,nan,0.0,nan,nan,nan,nan,nan,nan,nan,nan,nan,nan,nan,nan,nan,nan,nan,nan,nan,nan,108.37380829110043,240.85230649844743,nan,241.26744798675645,nan,nan,nan,nan
1,88,1,1,1.0,1.0,0.4226754833944142,0.0,0,7,6,2,1,4,nan,nan,nan,nan,nan,nan,nan,nan,nan,nan,nan,nan,0.0,nan,nan,nan,nan,nan,nan,nan,nan,nan,nan,nan,nan,nan,nan,nan,nan,nan,nan,108.37380829110043,241.86076307005715,nan,242.28343855345156,nan,nan,nan,nan
1,89,1,1,1.0,1.0,0.49424073891714215,0.0,1,4,2,6,0,7,nan,nan,nan,nan,nan,nan,nan,nan,nan,nan,nan,nan,0.0,nan,nan,nan,nan,nan,nan,nan,nan,nan,nan,nan,nan,nan,nan,nan,nan,nan,nan,108.37380829110043,242.86919284245232,nan,243.36343358136946,nan,nan,nan,nan
1,90,1,1,1.0,1.0,0.39769834821345285,0.0,8,0,4,1,7,2,nan,nan,nan,nan,nan,nan,nan,nan,nan,nan,nan,nan,0.0,nan,nan,nan,nan,nan,nan,nan,nan,nan,nan,nan,nan,nan,nan,nan,nan,nan,nan,108.37380829110043,243.87769873603247,nan,244.27539708424592,nan,nan,nan,nan
1,91,1,1,1.0,1.0,0.4292045086622238,0.0,6,2,5,7,4,3,nan,nan,nan,nan,nan,nan,nan,nan,nan,nan,nan,nan,0.0,nan,nan,nan,nan,nan,nan,nan,nan,nan,nan,nan,nan,nan,nan,nan,nan,nan,nan,108.37380829110043,244.88616528606508,nan,245.3153697947273,nan,nan,nan,nan
1,92,1,1,1.0,1.0,0.42073852877365425,0.0,8,4,1,3,0,7,nan,nan,nan,nan,nan,nan,nan,nan,nan,nan,nan,nan,0.0,nan,nan,nan,nan,nan,nan,nan,nan,nan,nan,nan,nan,nan,nan,nan,nan,nan,nan,108.37380829110043,245.89462670433568,nan,246.31536523310933,nan,nan,nan,nan
1,93,0,0,0.0,1.0,0.6602406568126753,0.0,6,5,7,4,2,3,nan,nan,nan,nan,nan,nan,nan,nan,nan,nan,nan,nan,0.0,nan,nan,nan,nan,nan,nan,nan,nan,nan,nan,nan,nan,nan,nan,nan,nan,nan,nan,108.37380829110043,246.90310266258894,nan,247.5633433194016,nan,nan,nan,nan
1,94,1,1,1.0,1.0,0.7317580158123747,0.0,7,3,5,2,4,0,nan,nan,nan,nan,nan,nan,nan,nan,nan,nan,nan,nan,0.0,nan,nan,nan,nan,nan,nan,nan,nan,nan,nan,nan,nan,nan,nan,nan,nan,nan,nan,108.37380829110043,247.9115560981445,nan,248.64331411395688,nan,nan,nan,nan
1,95,1,1,1.0,1.0,0.5793179205502383,0.0,8,7,6,0,1,4,nan,nan,nan,nan,nan,nan,nan,nan,nan,nan,nan,nan,0.0,nan,nan,nan,nan,nan,nan,nan,nan,nan,nan,nan,nan,nan,nan,nan,nan,nan,nan,108.37380829110043,248.91999271290842,nan,249.49931063345866,nan,nan,nan,nan
1,96,1,1,1.0,1.0,0.7788105604704469,0.0,7,2,0,8,4,1,nan,nan,nan,nan,nan,nan,nan,nan,nan,nan,nan,nan,0.0,nan,nan,nan,nan,nan,nan,nan,nan,nan,nan,nan,nan,nan,nan,nan,nan,nan,nan,108.37380829110043,249.92848948331084,nan,250.7073000437813,nan,nan,nan,nan
1,97,0,0,0.0,1.0,0.7783296004636213,1.0,3,4,7,2,6,0,1.0,1.0,1.0,1.0,1.0,1.0,0.0,1.0,1.0,1.0,1.0,0.0,4.0,8.0,4.0,7.0,2.0,6.0,5.0,5.0,4.0,3.0,2.0,1.0,6.0,6.870009077480063,5.062233433534857,4.022017249546479,2.567409669572953,1.5438828270416707,7.668975768960081,108.37380829110043,250.93694691022392,251.7453645945061,251.71527651068754,260.47150561300805,261.46781644719886,252.76217225159053,260.4631727738888
1,98,1,1,1.0,1.0,0.40340914274565876,0.0,5,0,4,6,8,7,nan,nan,nan,nan,nan,nan,nan,nan,nan,nan,nan,nan,0.0,nan,nan,nan,nan,nan,nan,nan,nan,nan,nan,nan,nan,nan,nan,nan,nan,nan,nan,108.37380829110043,261.6716816324042,nan,262.0750907751499,nan,nan,nan,nan
1,99,1,1,1.0,1.0,0.45089560630731285,0.0,3,8,1,0,2,5,nan,nan,nan,nan,nan,nan,nan,nan,nan,nan,nan,nan,0.0,nan,nan,nan,nan,nan,nan,nan,nan,nan,nan,nan,nan,nan,nan,nan,nan,nan,nan,108.37380829110043,262.6801550248056,nan,263.1310506311129,nan,nan,nan,nan
1,100,1,1,1.0,1.0,0.4424347581807524,0.0,5,0,2,7,3,1,nan,nan,nan,nan,nan,nan,nan,nan,nan,nan,nan,nan,0.0,nan,nan,nan,nan,nan,nan,nan,nan,nan,nan,nan,nan,nan,nan,nan,nan,nan,nan,108.37380829110043,263.6886144474265,nan,264.13104920560727,nan,nan,nan,nan
1,101,1,1,1.0,1.0,0.43394140899181366,0.0,0,2,3,5,8,7,nan,nan,nan,nan,nan,nan,nan,nan,nan,nan,nan,nan,0.0,nan,nan,nan,nan,nan,nan,nan,nan,nan,nan,nan,nan,nan,nan,nan,nan,nan,nan,108.37380829110043,264.6970892652753,nan,265.1310306742671,nan,nan,nan,nan
1,102,1,1,1.0,1.0,0.39347462402656674,0.0,2,5,6,7,3,1,nan,nan,nan,nan,nan,nan,nan,nan,nan,nan,nan,nan,0.0,nan,nan,nan,nan,nan,nan,nan,nan,nan,nan,nan,nan,nan,nan,nan,nan,nan,nan,108.37380829110043,265.7055310118012,nan,266.0990056358278,nan,nan,nan,nan
1,103,1,1,1.0,1.0,0.38496245827991515,0.0,3,4,0,1,5,7,nan,nan,nan,nan,nan,nan,nan,nan,nan,nan,nan,nan,0.0,nan,nan,nan,nan,nan,nan,nan,nan,nan,nan,nan,nan,nan,nan,nan,nan,nan,nan,108.37380829110043,266.714051445364,nan,267.09901390364394,nan,nan,nan,nan
1,104,1,1,1.0,1.0,0.376497903955169,0.0,6,7,1,5,8,4,nan,nan,nan,nan,nan,nan,nan,nan,nan,nan,nan,nan,0.0,nan,nan,nan,nan,nan,nan,nan,nan,nan,nan,nan,nan,nan,nan,nan,nan,nan,nan,108.37380829110043,267.7224772264017,nan,268.09897513035685,nan,nan,nan,nan
1,105,1,1,1.0,1.0,0.5520007024751976,0.0,3,1,4,0,6,8,nan,nan,nan,nan,nan,nan,nan,nan,nan,nan,nan,nan,0.0,nan,nan,nan,nan,nan,nan,nan,nan,nan,nan,nan,nan,nan,nan,nan,nan,nan,nan,108.37380829110043,268.7309449168388,nan,269.282945619314,nan,nan,nan,nan
1,106,1,1,1.0,1.0,0.3435192133183591,0.0,4,8,2,7,5,6,nan,nan,nan,nan,nan,nan,nan,nan,nan,nan,nan,nan,0.0,nan,nan,nan,nan,nan,nan,nan,nan,nan,nan,nan,nan,nan,nan,nan,nan,nan,nan,108.37380829110043,269.73941830924014,nan,270.0829375225585,nan,nan,nan,nan
1,107,1,1,1.0,1.0,0.3510455107316375,0.0,5,3,7,4,2,0,nan,nan,nan,nan,nan,nan,nan,nan,nan,nan,nan,nan,0.0,nan,nan,nan,nan,nan,nan,nan,nan,nan,nan,nan,nan,nan,nan,nan,nan,nan,nan,108.37380829110043,270.74787488084985,nan,271.0989203915815,nan,nan,nan,nan
1,108,1,1,1.0,1.0,0.3265661563491449,0.0,2,5,0,1,8,4,nan,nan,nan,nan,nan,nan,nan,nan,nan,nan,nan,nan,0.0,nan,nan,nan,nan,nan,nan,nan,nan,nan,nan,nan,nan,nan,nan,nan,nan,nan,nan,108.37380829110043,271.75634257128695,nan,272.0829087276361,nan,nan,nan,nan
1,109,1,1,1.0,1.0,0.3340762032312341,0.0,4,0,2,8,1,6,nan,nan,nan,nan,nan,nan,nan,nan,nan,nan,nan,nan,0.0,nan,nan,nan,nan,nan,nan,nan,nan,nan,nan,nan,nan,nan,nan,nan,nan,nan,nan,108.37380829110043,272.76481653389055,nan,273.0988927371218,nan,nan,nan,nan
1,110,1,1,1.0,1.0,0.30959542334312573,0.0,1,3,7,0,2,8,nan,nan,nan,nan,nan,nan,nan,nan,nan,nan,nan,nan,0.0,nan,nan,nan,nan,nan,nan,nan,nan,nan,nan,nan,nan,nan,nan,nan,nan,nan,nan,108.37380829110043,273.7732782372623,nan,274.0828736606054,nan,nan,nan,nan
1,111,1,1,1.0,1.0,0.2771082413964905,0.0,5,4,0,1,6,7,nan,nan,nan,nan,nan,nan,nan,nan,nan,nan,nan,nan,0.0,nan,nan,nan,nan,nan,nan,nan,nan,nan,nan,nan,nan,nan,nan,nan,nan,nan,nan,108.37380829110043,274.78173794492614,nan,275.0588461863226,nan,nan,nan,nan
1,112,1,1,1.0,1.0,0.29263837507460266,0.0,0,2,8,6,3,4,nan,nan,nan,nan,nan,nan,nan,nan,nan,nan,nan,nan,0.0,nan,nan,nan,nan,nan,nan,nan,nan,nan,nan,nan,nan,nan,nan,nan,nan,nan,nan,108.37380829110043,275.7902036397136,nan,276.0828420147882,nan,nan,nan,nan
1,113,1,1,1.0,1.0,0.29215085780015215,0.0,1,7,6,5,0,3,nan,nan,nan,nan,nan,nan,nan,nan,nan,nan,nan,nan,0.0,nan,nan,nan,nan,nan,nan,nan,nan,nan,nan,nan,nan,nan,nan,nan,nan,nan,nan,108.37380829110043,276.7986681940383,nan,277.0908190518385,nan,nan,nan,nan
1,114,0,0,0.0,1.0,0.4596563773229718,0.0,5,6,1,0,8,2,nan,nan,nan,nan,nan,nan,nan,nan,nan,nan,nan,nan,0.0,nan,nan,nan,nan,nan,nan,nan,nan,nan,nan,nan,nan,nan,nan,nan,nan,nan,nan,108.37380829110043,277.80714130133856,nan,278.26679767866153,nan,nan,nan,nan
1,115,1,1,1.0,1.0,0.531178297882434,0.0,2,3,7,5,4,8,nan,nan,nan,nan,nan,nan,nan,nan,nan,nan,nan,nan,0.0,nan,nan,nan,nan,nan,nan,nan,nan,nan,nan,nan,nan,nan,nan,nan,nan,nan,nan,108.37380829110043,278.8155930262874,nan,279.3467713241698,nan,nan,nan,nan
1,116,1,1,1.0,1.0,0.6270156415994279,0.0,5,0,6,2,8,4,nan,nan,nan,nan,nan,nan,nan,nan,nan,nan,nan,nan,0.0,nan,nan,nan,nan,nan,nan,nan,nan,nan,nan,nan,nan,nan,nan,nan,nan,nan,nan,108.37380829110043,279.81574327283306,nan,280.4427589144325,nan,nan,nan,nan
1,117,1,1,1.0,1.0,0.5065737856202759,0.0,3,7,8,4,1,0,nan,nan,nan,nan,nan,nan,nan,nan,nan,nan,nan,nan,0.0,nan,nan,nan,nan,nan,nan,nan,nan,nan,nan,nan,nan,nan,nan,nan,nan,nan,nan,108.37380829110043,280.8241764664417,nan,281.330750252062,nan,nan,nan,nan
1,118,1,1,1.0,1.0,0.5620649406919256,0.0,4,2,3,0,8,5,nan,nan,nan,nan,nan,nan,nan,nan,nan,nan,nan,nan,0.0,nan,nan,nan,nan,nan,nan,nan,nan,nan,nan,nan,nan,nan,nan,nan,nan,nan,nan,108.37380829110043,281.8326618329738,nan,282.39472677366575,nan,nan,nan,nan
1,119,1,1,1.0,1.0,0.5055839259293862,0.0,6,7,0,2,1,4,nan,nan,nan,nan,nan,nan,nan,nan,nan,nan,nan,nan,0.0,nan,nan,nan,nan,nan,nan,nan,nan,nan,nan,nan,nan,nan,nan,nan,nan,nan,nan,108.37380829110043,282.8411329445662,nan,283.3467168704956,nan,nan,nan,nan
1,120,1,1,1.0,1.0,0.4493637757259421,0.0,2,0,5,1,3,7,nan,nan,nan,nan,nan,nan,nan,nan,nan,nan,nan,nan,0.0,nan,nan,nan,nan,nan,nan,nan,nan,nan,nan,nan,nan,nan,nan,nan,nan,nan,nan,108.37380829110043,283.84132795146434,nan,284.2906917271903,nan,nan,nan,nan
1,121,1,1,1.0,1.0,0.33695939753670245,0.0,1,4,6,5,8,3,nan,nan,nan,nan,nan,nan,nan,nan,nan,nan,nan,nan,0.0,nan,nan,nan,nan,nan,nan,nan,nan,nan,nan,nan,nan,nan,nan,nan,nan,nan,nan,108.37380829110043,284.84971410391154,nan,285.18667350144824,nan,nan,nan,nan
1,122,1,1,1.0,1.0,0.3364727355656214,0.0,6,3,0,2,7,5,nan,nan,nan,nan,nan,nan,nan,nan,nan,nan,nan,nan,0.0,nan,nan,nan,nan,nan,nan,nan,nan,nan,nan,nan,nan,nan,nan,nan,nan,nan,nan,108.37380829110043,285.8581760923844,nan,286.19464882795,nan,nan,nan,nan
1,123,1,1,1.0,1.0,0.35999929293757305,0.0,0,2,7,6,1,4,nan,nan,nan,nan,nan,nan,nan,nan,nan,nan,nan,nan,0.0,nan,nan,nan,nan,nan,nan,nan,nan,nan,nan,nan,nan,nan,nan,nan,nan,nan,nan,108.37380829110043,286.8666366554098,nan,287.2266359483474,nan,nan,nan,nan
1,124,1,1,1.0,1.0,0.3438068769755773,0.0,7,4,0,1,2,3,nan,nan,nan,nan,nan,nan,nan,nan,nan,nan,nan,nan,0.0,nan,nan,nan,nan,nan,nan,nan,nan,nan,nan,nan,nan,nan,nan,nan,nan,nan,nan,108.37380829110043,287.86680286744377,nan,288.21060974441934,nan,nan,nan,nan
1,125,1,1,1.0,1.0,0.3356781678739935,0.0,6,5,3,0,1,2,nan,nan,nan,nan,nan,nan,nan,nan,nan,nan,nan,nan,0.0,nan,nan,nan,nan,nan,nan,nan,nan,nan,nan,nan,nan,nan,nan,nan,nan,nan,nan,108.37380829110043,288.8669223234174,nan,289.2026004912914,nan,nan,nan,nan
1,126,1,1,1.0,1.0,0.31156972580356523,0.0,5,0,2,6,7,8,nan,nan,nan,nan,nan,nan,nan,nan,nan,nan,nan,nan,0.0,nan,nan,nan,nan,nan,nan,nan,nan,nan,nan,nan,nan,nan,nan,nan,nan,nan,nan,108.37380829110043,289.86702096724184,nan,290.1785906930454,nan,nan,nan,nan
1,127,1,1,1.0,1.0,0.2790631571551785,0.0,1,4,5,0,2,3,nan,nan,nan,nan,nan,nan,nan,nan,nan,nan,nan,nan,0.0,nan,nan,nan,nan,nan,nan,nan,nan,nan,nan,nan,nan,nan,nan,nan,nan,nan,nan,108.37380829110043,290.87551773764426,nan,291.15458089479944,nan,nan,nan,nan
1,128,1,1,1.0,1.0,0.3345585887436755,0.0,4,5,7,3,0,8,nan,nan,nan,nan,nan,nan,nan,nan,nan,nan,nan,nan,0.0,nan,nan,nan,nan,nan,nan,nan,nan,nan,nan,nan,nan,nan,nan,nan,nan,nan,nan,108.37380829110043,291.8839822920272,nan,292.2185408807709,nan,nan,nan,nan
1,129,0,0,0.0,1.0,0.6224098862730898,1.0,0,4,6,7,8,3,1.0,1.0,1.0,1.0,1.0,1.0,0.0,1.0,1.0,1.0,1.0,0.0,4.0,2.0,4.0,6.0,7.0,8.0,0.0,5.0,4.0,3.0,2.0,1.0,6.0,6.257106633449439,5.194730080780573,4.058390599966515,3.041326925100293,1.9319642555783503,7.353412963042501,108.37380829110043,292.8841177134891,293.69251715153223,293.5065275997622,302.1019056508667,303.1035486696637,294.7093193916953,302.09357452229597
1,130,1,1,1.0,1.0,0.7718823982868344,0.0,4,6,2,1,3,5,nan,nan,nan,nan,nan,nan,nan,nan,nan,nan,nan,nan,0.0,nan,nan,nan,nan,nan,nan,nan,nan,nan,nan,nan,nan,nan,nan,nan,nan,nan,nan,108.37380829110043,303.31046012509614,nan,304.082342523383,nan,nan,nan,nan
1,131,1,1,1.0,1.0,0.6277223990764469,0.0,8,1,0,4,7,3,nan,nan,nan,nan,nan,nan,nan,nan,nan,nan,nan,nan,0.0,nan,nan,nan,nan,nan,nan,nan,nan,nan,nan,nan,nan,nan,nan,nan,nan,nan,nan,108.37380829110043,304.31060210382566,nan,304.9383245029021,nan,nan,nan,nan
1,132,1,1,1.0,1.0,0.44358113658381626,0.0,0,4,5,3,1,6,nan,nan,nan,nan,nan,nan,nan,nan,nan,nan,nan,nan,0.0,nan,nan,nan,nan,nan,nan,nan,nan,nan,nan,nan,nan,nan,nan,nan,nan,nan,nan,108.37380829110043,305.3107369550853,nan,305.7543180916691,nan,nan,nan,nan
1,133,1,1,1.0,1.0,0.41141440451610833,0.0,6,8,1,7,2,0,nan,nan,nan,nan,nan,nan,nan,nan,nan,nan,nan,nan,0.0,nan,nan,nan,nan,nan,nan,nan,nan,nan,nan,nan,nan,nan,nan,nan,nan,nan,nan,108.37380829110043,306.31087066594046,nan,306.72228507045656,nan,nan,nan,nan
1,134,1,1,1.0,1.0,0.36294235778041184,0.0,5,6,3,2,1,4,nan,nan,nan,nan,nan,nan,nan,nan,nan,nan,nan,nan,0.0,nan,nan,nan,nan,nan,nan,nan,nan,nan,nan,nan,nan,nan,nan,nan,nan,nan,nan,108.37380829110043,307.3193238163949,nan,307.6822661741753,nan,nan,nan,nan
1,135,1,1,1.0,1.0,0.3067797972471453,0.0,3,8,0,7,4,2,nan,nan,nan,nan,nan,nan,nan,nan,nan,nan,nan,nan,0.0,nan,nan,nan,nan,nan,nan,nan,nan,nan,nan,nan,nan,nan,nan,nan,nan,nan,nan,108.37380829110043,308.31947235239204,nan,308.6262521496392,nan,nan,nan,nan
1,136,1,1,1.0,1.0,0.26665398926706985,0.0,8,1,7,5,6,0,nan,nan,nan,nan,nan,nan,nan,nan,nan,nan,nan,nan,0.0,nan,nan,nan,nan,nan,nan,nan,nan,nan,nan,nan,nan,nan,nan,nan,nan,nan,nan,108.37380829110043,309.3195835405495,nan,309.5862375298166,nan,nan,nan,nan
1,137,1,1,1.0,1.0,0.2904878822155297,0.0,7,0,5,6,3,4,nan,nan,nan,nan,nan,nan,nan,nan,nan,nan,nan,nan,0.0,nan,nan,nan,nan,nan,nan,nan,nan,nan,nan,nan,nan,nan,nan,nan,nan,nan,nan,108.37380829110043,310.31972238316666,nan,310.6102102653822,nan,nan,nan,nan
1,138,1,1,1.0,1.0,0.2820429995772429,0.0,6,3,0,5,1,2,nan,nan,nan,nan,nan,nan,nan,nan,nan,nan,nan,nan,0.0,nan,nan,nan,nan,nan,nan,nan,nan,nan,nan,nan,nan,nan,nan,nan,nan,nan,nan,108.37380829110043,311.32817382301437,nan,311.6102168225916,nan,nan,nan,nan
1,139,1,1,1.0,1.0,0.28954962524585426,0.0,1,7,5,4,6,3,nan,nan,nan,nan,nan,nan,nan,nan,nan,nan,nan,nan,0.0,nan,nan,nan,nan,nan,nan,nan,nan,nan,nan,nan,nan,nan,nan,nan,nan,nan,nan,108.37380829110043,312.3366469303146,nan,312.62619655556045,nan,nan,nan,nan
1,140,1,1,1.0,1.0,0.2333793670986779,0.0,2,8,6,0,1,4,nan,nan,nan,nan,nan,nan,nan,nan,nan,nan,nan,nan,0.0,nan,nan,nan,nan,nan,nan,nan,nan,nan,nan,nan,nan,nan,nan,nan,nan,nan,nan,108.37380829110043,313.336788623943,nan,313.57016799104167,nan,nan,nan,nan
1,141,1,1,1.0,1.0,0.24123552272794768,0.0,8,0,7,6,3,1,nan,nan,nan,nan,nan,nan,nan,nan,nan,nan,nan,nan,0.0,nan,nan,nan,nan,nan,nan,nan,nan,nan,nan,nan,nan,nan,nan,nan,nan,nan,nan,108.37380829110043,314.33692005404737,nan,314.5781555767753,nan,nan,nan,nan
1,142,1,1,1.0,1.0,0.29675461747683585,0.0,3,4,6,8,2,5,nan,nan,nan,nan,nan,nan,nan,nan,nan,nan,nan,nan,0.0,nan,nan,nan,nan,nan,nan,nan,nan,nan,nan,nan,nan,nan,nan,nan,nan,nan,nan,108.37380829110043,315.3453794766101,nan,315.64213409408694,nan,nan,nan,nan
1,143,0,0,0.0,1.0,0.3762894974788651,1.0,2,8,1,4,7,6,1.0,1.0,1.0,1.0,1.0,1.0,1.0,0.0,0.0,1.0,1.0,0.0,3.0,2.0,0.0,8.0,4.0,7.0,5.0,5.0,4.0,3.0,2.0,1.0,6.0,7.611358924477827,6.627683625789359,5.730863093747757,4.644597624370363,1.6050434375065379,8.57865449792007,108.37380829110043,316.3538329121657,317.16225686861435,316.73012240964454,326.8051803985145,327.8134947063518,318.1873956542113,326.7968458487885
1,144,1,1,1.0,1.0,0.6838835341623053,0.0,3,2,6,7,0,8,nan,nan,nan,nan,nan,nan,nan,nan,nan,nan,nan,nan,0.0,nan,nan,nan,nan,nan,nan,nan,nan,nan,nan,nan,nan,nan,nan,nan,nan,nan,nan,108.37380829110043,328.0220326448325,nan,328.7059161789948,nan,nan,nan,nan
1,145,1,1,1.0,1.0,0.40370935073588043,0.0,2,3,8,1,5,7,nan,nan,nan,nan,nan,nan,nan,nan,nan,nan,nan,nan,0.0,nan,nan,nan,nan,nan,nan,nan,nan,nan,nan,nan,nan,nan,nan,nan,nan,nan,nan,108.37380829110043,329.02217262791237,nan,329.42588197864825,nan,nan,nan,nan
1,146,1,1,1.0,1.0,0.33124318619957194,0.0,0,8,5,6,7,4,nan,nan,nan,nan,nan,nan,nan,nan,nan,nan,nan,nan,0.0,nan,nan,nan,nan,nan,nan,nan,nan,nan,nan,nan,nan,nan,nan,nan,nan,nan,nan,108.37380829110043,330.0306169402902,nan,330.3618601264898,nan,nan,nan,nan
1,147,1,1,1.0,1.0,0.2830659305327572,0.0,6,7,0,2,3,8,nan,nan,nan,nan,nan,nan,nan,nan,nan,nan,nan,nan,0.0,nan,nan,nan,nan,nan,nan,nan,nan,nan,nan,nan,nan,nan,nan,nan,nan,nan,nan,108.37380829110043,331.03079084999627,nan,331.313856780529,nan,nan,nan,nan
1,148,1,1,1.0,1.0,0.29060306173050776,0.0,2,8,7,1,0,3,nan,nan,nan,nan,nan,nan,nan,nan,nan,nan,nan,nan,0.0,nan,nan,nan,nan,nan,nan,nan,nan,nan,nan,nan,nan,nan,nan,nan,nan,nan,nan,108.37380829110043,332.0392288902076,nan,332.3298319519381,nan,nan,nan,nan
1,149,1,1,1.0,1.0,0.40212990884901956,0.0,0,7,4,5,3,1,nan,nan,nan,nan,nan,nan,nan,nan,nan,nan,nan,nan,0.0,nan,nan,nan,nan,nan,nan,nan,nan,nan,nan,nan,nan,nan,nan,nan,nan,nan,nan,108.37380829110043,333.0476863171207,nan,333.4498162259697,nan,nan,nan,nan
1,150,0,0,0.0,1.0,0.48159265908179805,1.0,4,3,5,2,1,6,1.0,1.0,1.0,1.0,1.0,1.0,0.0,0.0,1.0,1.0,1.0,0.0,3.0,6.0,8.0,5.0,2.0,1.0,0.0,5.0,4.0,3.0,2.0,1.0,6.0,6.037614666332956,5.165502137097064,3.4462009004782885,2.4937922800309025,1.5830703781102784,6.8689830104704015,108.37380829110043,334.0562041847734,334.8645719769411,334.5377968438552,342.7822648057481,343.78760212205816,335.8730348207173,342.77393168146955
1,151,1,1,nan,nan,nan,0.0,5,6,0,7,4,8,nan,nan,nan,nan,nan,nan,nan,nan,nan,nan,nan,nan,0.0,nan,nan,nan,nan,nan,nan,nan,nan,nan,nan,nan,nan,nan,nan,nan,nan,nan,nan,108.37380829110043,343.9907879191451,nan,nan,nan,nan,nan,nan
1,152,1,1,nan,nan,nan,0.0,1,5,3,6,7,0,nan,nan,nan,nan,nan,nan,nan,nan,nan,nan,nan,nan,0.0,nan,nan,nan,nan,nan,nan,nan,nan,nan,nan,nan,nan,nan,nan,nan,nan,nan,nan,108.37380829110043,344.9909122218378,nan,nan,nan,nan,nan,nan
1,153,0,0,1.0,0.0,0.0665221600793302,0.0,0,6,4,8,5,3,nan,nan,nan,nan,nan,nan,nan,nan,nan,nan,nan,nan,0.0,nan,nan,nan,nan,nan,nan,nan,nan,nan,nan,nan,nan,nan,nan,nan,nan,nan,nan,108.37380829110043,345.99107501265826,nan,346.0575971727376,nan,nan,nan,nan
1,154,1,1,1.0,1.0,0.5780429631122388,0.0,3,0,7,5,1,8,nan,nan,nan,nan,nan,nan,nan,nan,nan,nan,nan,nan,0.0,nan,nan,nan,nan,nan,nan,nan,nan,nan,nan,nan,nan,nan,nan,nan,nan,nan,nan,108.37380829110043,346.99950849136803,nan,347.5775514544803,nan,nan,nan,nan
1,155,1,1,1.0,1.0,0.41757365787634626,0.0,5,3,6,2,7,0,nan,nan,nan,nan,nan,nan,nan,nan,nan,nan,nan,nan,0.0,nan,nan,nan,nan,nan,nan,nan,nan,nan,nan,nan,nan,nan,nan,nan,nan,nan,nan,108.37380829110043,348.0079778924119,nan,348.4255515502882,nan,nan,nan,nan
1,156,1,1,1.0,1.0,0.45739213039632887,0.0,7,4,2,5,3,1,nan,nan,nan,nan,nan,nan,nan,nan,nan,nan,nan,nan,0.0,nan,nan,nan,nan,nan,nan,nan,nan,nan,nan,nan,nan,nan,nan,nan,nan,nan,nan,108.37380829110043,349.0081338409218,nan,349.46552597131813,nan,nan,nan,nan
1,157,0,0,0.0,1.0,0.5529204281046987,1.0,8,5,3,6,7,4,1.0,1.0,1.0,1.0,1.0,1.0,0.0,1.0,1.0,1.0,1.0,0.0,4.0,2.0,5.0,3.0,6.0,7.0,0.0,5.0,4.0,3.0,2.0,1.0,6.0,6.092949017707724,5.101331748941448,3.685931391781196,2.741653761244379,1.5010166588472202,6.851975784928072,108.37380829110043,350.01659212308004,350.8249981183908,350.56951255118474,358.72602070722496,359.7305848383112,351.8334372990066,358.71768729790347
1,158,1,1,1.0,1.0,0.3948362512164749,0.0,3,7,6,1,0,5,nan,nan,nan,nan,nan,nan,nan,nan,nan,nan,nan,nan,0.0,nan,nan,nan,nan,nan,nan,nan,nan,nan,nan,nan,nan,nan,nan,nan,nan,nan,nan,108.37380829110043,359.9345161662204,nan,360.3293524174369,nan,nan,nan,nan
1,159,0,0,0.0,1.0,0.5622844660538249,1.0,1,5,0,4,2,6,1.0,1.0,1.0,1.0,1.0,1.0,0.0,0.0,1.0,0.0,1.0,0.0,2.0,7.0,8.0,0.0,5.0,2.0,0.0,5.0,4.0,3.0,2.0,1.0,6.0,11.461477582226507,10.598174290556926,9.54325133538805,4.886061225319281,3.831090088642668,12.917335031030234,108.37380829110043,360.9430525652133,361.7514266295475,361.5053370312671,375.72824817651417,376.73430507979356,362.768232575967,375.71991961385356
1,160,1,1,1.0,1.0,0.5922810335177928,0.0,3,8,4,2,6,7,nan,nan,nan,nan,nan,nan,nan,nan,nan,nan,nan,nan,0.0,nan,nan,nan,nan,nan,nan,nan,nan,nan,nan,nan,nan,nan,nan,nan,nan,nan,nan,108.37380829110043,376.9367707197671,nan,377.5290517532849,nan,nan,nan,nan
1,161,0,0,0.0,1.0,0.6237963170278817,0.0,4,3,7,6,0,5,nan,nan,nan,nan,nan,nan,nan,nan,nan,nan,nan,nan,0.0,nan,nan,nan,nan,nan,nan,nan,nan,nan,nan,nan,nan,nan,nan,nan,nan,nan,nan,108.37380829110043,377.94521275139414,nan,378.569009068422,nan,nan,nan,nan
1,162,1,1,1.0,1.0,0.5592421871842816,0.0,7,1,2,5,3,4,nan,nan,nan,nan,nan,nan,nan,nan,nan,nan,nan,nan,0.0,nan,nan,nan,nan,nan,nan,nan,nan,nan,nan,nan,nan,nan,nan,nan,nan,nan,nan,108.37380829110043,378.9537491504452,nan,379.5129913376295,nan,nan,nan,nan
1,163,1,1,1.0,1.0,0.5191263576853089,0.0,1,5,3,6,8,7,nan,nan,nan,nan,nan,nan,nan,nan,nan,nan,nan,nan,0.0,nan,nan,nan,nan,nan,nan,nan,nan,nan,nan,nan,nan,nan,nan,nan,nan,nan,nan,108.37380829110043,379.9621675189119,nan,380.4812938765972,nan,nan,nan,nan
1,164,1,1,1.0,1.0,0.43031068821437657,0.0,5,1,2,8,3,0,nan,nan,nan,nan,nan,nan,nan,nan,nan,nan,nan,nan,0.0,nan,nan,nan,nan,nan,nan,nan,nan,nan,nan,nan,nan,nan,nan,nan,nan,nan,nan,108.37380829110043,380.97064233681886,nan,381.40095302503323,nan,nan,nan,nan
1,165,0,0,0.0,1.0,0.685936238442082,1.0,1,6,8,4,2,3,1.0,1.0,1.0,1.0,1.0,1.0,0.0,0.0,0.0,0.0,1.0,0.0,1.0,6.0,8.0,5.0,5.0,2.0,7.0,5.0,4.0,3.0,2.0,1.0,6.0,10.464782721246593,9.849155597272329,8.21910651482176,2.739664348657243,1.745335514540784,12.177325143828057,108.37380829110043,381.9790994786308,382.78751801821636,382.6650357170729,396.01425289548934,397.0139352965052,383.79599312116625,396.00591720535886
1,166,1,1,1.0,1.0,0.5302483087871224,0.0,4,8,0,2,6,1,nan,nan,nan,nan,nan,nan,nan,nan,nan,nan,nan,nan,0.0,nan,nan,nan,nan,nan,nan,nan,nan,nan,nan,nan,nan,nan,nan,nan,nan,nan,nan,108.37380829110043,397.2144366124994,nan,397.74468492128653,nan,nan,nan,nan
1,167,1,1,1.0,1.0,0.5140875387005508,0.0,5,2,8,1,0,4,nan,nan,nan,nan,nan,nan,nan,nan,nan,nan,nan,nan,0.0,nan,nan,nan,nan,nan,nan,nan,nan,nan,nan,nan,nan,nan,nan,nan,nan,nan,nan,108.37380829110043,398.21456490654964,nan,398.7286524452502,nan,nan,nan,nan
1,168,1,1,1.0,1.0,0.6019216163549572,0.0,1,5,2,3,7,6,nan,nan,nan,nan,nan,nan,nan,nan,nan,nan,nan,nan,0.0,nan,nan,nan,nan,nan,nan,nan,nan,nan,nan,nan,nan,nan,nan,nan,nan,nan,nan,108.37380829110043,399.2147066001198,nan,399.8166282164748,nan,nan,nan,nan
1,169,1,1,1.0,1.0,0.4734690816840157,0.0,4,1,6,5,8,0,nan,nan,nan,nan,nan,nan,nan,nan,nan,nan,nan,nan,0.0,nan,nan,nan,nan,nan,nan,nan,nan,nan,nan,nan,nan,nan,nan,nan,nan,nan,nan,108.37380829110043,400.22315176785924,nan,400.69662084954325,nan,nan,nan,nan
1,170,1,1,1.0,1.0,0.36130532604875043,0.0,3,7,1,6,0,2,nan,nan,nan,nan,nan,nan,nan,nan,nan,nan,nan,nan,0.0,nan,nan,nan,nan,nan,nan,nan,nan,nan,nan,nan,nan,nan,nan,nan,nan,nan,nan,108.37380829110043,401.22329887835076,nan,401.5846042043995,nan,nan,nan,nan
1,171,1,1,1.0,1.0,0.3688091007643379,0.0,5,2,4,0,3,1,nan,nan,nan,nan,nan,nan,nan,nan,nan,nan,nan,nan,0.0,nan,nan,nan,nan,nan,nan,nan,nan,nan,nan,nan,nan,nan,nan,nan,nan,nan,nan,108.37380829110043,402.2317659985856,nan,402.60057509934995,nan,nan,nan,nan
1,172,1,1,1.0,1.0,0.3206606400781311,0.0,3,0,6,1,5,4,nan,nan,nan,nan,nan,nan,nan,nan,nan,nan,nan,nan,0.0,nan,nan,nan,nan,nan,nan,nan,nan,nan,nan,nan,nan,nan,nan,nan,nan,nan,nan,108.37380829110043,403.2318988541374,nan,403.55255949421553,nan,nan,nan,nan
1,173,1,1,1.0,1.0,0.3762005469179712,0.0,2,5,4,8,6,3,nan,nan,nan,nan,nan,nan,nan,nan,nan,nan,nan,nan,0.0,nan,nan,nan,nan,nan,nan,nan,nan,nan,nan,nan,nan,nan,nan,nan,nan,nan,nan,108.37380829110043,404.24034459207905,nan,404.616545138997,nan,nan,nan,nan
1,174,1,1,1.0,1.0,0.3440318192006089,0.0,8,1,2,5,3,7,nan,nan,nan,nan,nan,nan,nan,nan,nan,nan,nan,nan,0.0,nan,nan,nan,nan,nan,nan,nan,nan,nan,nan,nan,nan,nan,nan,nan,nan,nan,nan,108.37380829110043,405.240495978971,nan,405.5845277981716,nan,nan,nan,nan
1,175,1,1,1.0,1.0,0.32754974387353286,0.0,1,8,3,7,5,4,nan,nan,nan,nan,nan,nan,nan,nan,nan,nan,nan,nan,0.0,nan,nan,nan,nan,nan,nan,nan,nan,nan,nan,nan,nan,nan,nan,nan,nan,nan,nan,108.37380829110043,406.2489508400322,nan,406.5765005839057,nan,nan,nan,nan
1,176,1,1,1.0,1.0,0.4070755007560365,0.0,3,6,8,0,7,1,nan,nan,nan,nan,nan,nan,nan,nan,nan,nan,nan,nan,0.0,nan,nan,nan,nan,nan,nan,nan,nan,nan,nan,nan,nan,nan,nan,nan,nan,nan,nan,108.37380829110043,407.2574239473324,nan,407.66449944808846,nan,nan,nan,nan
1,177,1,1,1.0,1.0,0.3185939659597352,0.0,4,7,5,6,2,8,nan,nan,nan,nan,nan,nan,nan,nan,nan,nan,nan,nan,0.0,nan,nan,nan,nan,nan,nan,nan,nan,nan,nan,nan,nan,nan,nan,nan,nan,nan,nan,108.37380829110043,408.26588336989516,nan,408.5844773358549,nan,nan,nan,nan
1,178,1,1,1.0,1.0,0.2941268708091229,0.0,1,2,0,4,8,5,nan,nan,nan,nan,nan,nan,nan,nan,nan,nan,nan,nan,0.0,nan,nan,nan,nan,nan,nan,nan,nan,nan,nan,nan,nan,nan,nan,nan,nan,nan,nan,108.37380829110043,409.27434934978373,nan,409.56847622059286,nan,nan,nan,nan
1,179,1,1,1.0,1.0,0.2619627045933157,0.0,4,3,7,2,0,1,nan,nan,nan,nan,nan,nan,nan,nan,nan,nan,nan,nan,0.0,nan,nan,nan,nan,nan,nan,nan,nan,nan,nan,nan,nan,nan,nan,nan,nan,nan,nan,108.37380829110043,410.274490758311,nan,410.5364534629043,nan,nan,nan,nan
1,180,1,1,1.0,1.0,0.3574701901525259,0.0,6,8,5,7,1,3,nan,nan,nan,nan,nan,nan,nan,nan,nan,nan,nan,nan,0.0,nan,nan,nan,nan,nan,nan,nan,nan,nan,nan,nan,nan,nan,nan,nan,nan,nan,nan,108.37380829110043,411.28294533421285,nan,411.6404155243654,nan,nan,nan,nan
1,181,1,1,1.0,1.0,0.3173252806882374,0.0,1,6,0,2,8,4,nan,nan,nan,nan,nan,nan,nan,nan,nan,nan,nan,nan,0.0,nan,nan,nan,nan,nan,nan,nan,nan,nan,nan,nan,nan,nan,nan,nan,nan,nan,nan,108.37380829110043,412.28308474703226,nan,412.6004100277205,nan,nan,nan,nan
1,182,1,1,1.0,1.0,0.3091700574150309,0.0,6,0,2,1,5,7,nan,nan,nan,nan,nan,nan,nan,nan,nan,nan,nan,nan,0.0,nan,nan,nan,nan,nan,nan,nan,nan,nan,nan,nan,nan,nan,nan,nan,nan,nan,nan,108.37380829110043,413.2832181728445,nan,413.59238823025953,nan,nan,nan,nan
1,183,1,1,1.0,1.0,0.35667961393482983,0.0,8,1,7,0,2,5,nan,nan,nan,nan,nan,nan,nan,nan,nan,nan,nan,nan,0.0,nan,nan,nan,nan,nan,nan,nan,nan,nan,nan,nan,nan,nan,nan,nan,nan,nan,nan,108.37380829110043,414.2916884291335,nan,414.64836804306833,nan,nan,nan,nan
1,184,0,0,0.0,1.0,0.5485436063027009,1.0,6,4,3,7,8,1,1.0,1.0,1.0,1.0,1.0,1.0,0.0,0.0,1.0,1.0,1.0,0.0,3.0,5.0,2.0,3.0,7.0,8.0,0.0,5.0,4.0,3.0,2.0,1.0,6.0,5.799875298223924,4.704581350961234,3.4560176738305017,2.4959430579910986,1.5143221742473543,6.719340009964071,108.37380829110043,415.29181586788036,416.10021730157314,415.84035947418306,423.8762384649599,424.8750487517682,417.11703009036137,423.8679064810858
1,185,1,1,1.0,1.0,0.6277660190244205,0.0,4,0,5,8,1,3,nan,nan,nan,nan,nan,nan,nan,nan,nan,nan,nan,nan,0.0,nan,nan,nan,nan,nan,nan,nan,nan,nan,nan,nan,nan,nan,nan,nan,nan,nan,nan,108.37380829110043,425.07642189692706,nan,425.7041879159515,nan,nan,nan,nan
1,186,1,1,1.0,1.0,0.523606669914443,0.0,6,7,3,4,8,1,nan,nan,nan,nan,nan,nan,nan,nan,nan,nan,nan,nan,0.0,nan,nan,nan,nan,nan,nan,nan,nan,nan,nan,nan,nan,nan,nan,nan,nan,nan,nan,108.37380829110043,426.0765695775626,nan,426.60017624747707,nan,nan,nan,nan
1,187,1,1,1.0,1.0,0.3951279062894173,0.0,2,6,1,5,3,0,nan,nan,nan,nan,nan,nan,nan,nan,nan,nan,nan,nan,0.0,nan,nan,nan,nan,nan,nan,nan,nan,nan,nan,nan,nan,nan,nan,nan,nan,nan,nan,108.37380829110043,427.0850121793919,nan,427.48014008568134,nan,nan,nan,nan
1,188,1,1,1.0,1.0,0.33063934894744307,0.0,3,0,5,6,4,7,nan,nan,nan,nan,nan,nan,nan,nan,nan,nan,nan,nan,0.0,nan,nan,nan,nan,nan,nan,nan,nan,nan,nan,nan,nan,nan,nan,nan,nan,nan,nan,108.37380829110043,428.0934855717933,nan,428.4241249207407,nan,nan,nan,nan
1,189,1,1,1.0,1.0,0.4421704725828022,0.0,5,7,6,4,8,0,nan,nan,nan,nan,nan,nan,nan,nan,nan,nan,nan,nan,0.0,nan,nan,nan,nan,nan,nan,nan,nan,nan,nan,nan,nan,nan,nan,nan,nan,nan,nan,108.37380829110043,429.101950126118,nan,429.54412059870083,nan,nan,nan,nan
1,190,1,1,1.0,1.0,0.34568424616008997,0.0,0,8,5,7,2,3,nan,nan,nan,nan,nan,nan,nan,nan,nan,nan,nan,nan,0.0,nan,nan,nan,nan,nan,nan,nan,nan,nan,nan,nan,nan,nan,nan,nan,nan,nan,nan,108.37380829110043,430.1104109742446,nan,430.4560952204047,nan,nan,nan,nan
1,191,1,1,1.0,1.0,0.4095219251466915,0.0,7,2,8,1,4,0,nan,nan,nan,nan,nan,nan,nan,nan,nan,nan,nan,nan,0.0,nan,nan,nan,nan,nan,nan,nan,nan,nan,nan,nan,nan,nan,nan,nan,nan,nan,nan,108.37380829110043,431.110552667873,nan,431.5200745930197,nan,nan,nan,nan
1,192,1,1,1.0,1.0,0.4493717584409751,0.0,6,4,7,3,8,1,nan,nan,nan,nan,nan,nan,nan,nan,nan,nan,nan,nan,0.0,nan,nan,nan,nan,nan,nan,nan,nan,nan,nan,nan,nan,nan,nan,nan,nan,nan,nan,108.37380829110043,432.1106846681214,nan,432.56005642656237,nan,nan,nan,nan
1,193,1,1,1.0,1.0,0.3932203167350963,0.0,4,0,6,1,2,5,nan,nan,nan,nan,nan,nan,nan,nan,nan,nan,nan,nan,0.0,nan,nan,nan,nan,nan,nan,nan,nan,nan,nan,nan,nan,nan,nan,nan,nan,nan,nan,108.37380829110043,433.110813817475,nan,433.5040341342101,nan,nan,nan,nan
1,194,1,1,1.0,1.0,0.44106115691829473,0.0,7,2,0,6,4,3,nan,nan,nan,nan,nan,nan,nan,nan,nan,nan,nan,nan,0.0,nan,nan,nan,nan,nan,nan,nan,nan,nan,nan,nan,nan,nan,nan,nan,nan,nan,nan,108.37380829110043,434.110947243229,nan,434.5520084001473,nan,nan,nan,nan
1,195,1,1,1.0,1.0,0.5209142061066814,0.0,2,8,3,1,5,6,nan,nan,nan,nan,nan,nan,nan,nan,nan,nan,nan,nan,0.0,nan,nan,nan,nan,nan,nan,nan,nan,nan,nan,nan,nan,nan,nan,nan,nan,nan,nan,108.37380829110043,435.1110815242864,nan,435.6319957303931,nan,nan,nan,nan
1,196,1,1,1.0,1.0,0.4247615442145616,0.0,7,6,0,4,1,5,nan,nan,nan,nan,nan,nan,nan,nan,nan,nan,nan,nan,0.0,nan,nan,nan,nan,nan,nan,nan,nan,nan,nan,nan,nan,nan,nan,nan,nan,nan,nan,108.37380829110043,436.11122350301594,nan,436.5359850472305,nan,nan,nan,nan
1,197,1,1,1.0,1.0,0.464686073071789,0.0,3,8,1,2,5,0,nan,nan,nan,nan,nan,nan,nan,nan,nan,nan,nan,nan,0.0,nan,nan,nan,nan,nan,nan,nan,nan,nan,nan,nan,nan,nan,nan,nan,nan,nan,nan,108.37380829110043,437.1113469504053,nan,437.57603302347707,nan,nan,nan,nan
1,198,1,1,1.0,1.0,0.44815039937384427,0.0,4,5,8,6,7,2,nan,nan,nan,nan,nan,nan,nan,nan,nan,nan,nan,nan,0.0,nan,nan,nan,nan,nan,nan,nan,nan,nan,nan,nan,nan,nan,nan,nan,nan,nan,nan,108.37380829110043,438.1198009561049,nan,438.5679513554787,nan,nan,nan,nan
1,199,1,1,1.0,1.0,0.3436569155892357,0.0,5,6,7,1,4,3,nan,nan,nan,nan,nan,nan,nan,nan,nan,nan,nan,nan,0.0,nan,nan,nan,nan,nan,nan,nan,nan,nan,nan,nan,nan,nan,nan,nan,nan,nan,nan,108.37380829110043,439.1282777696615,nan,439.47193468525074,nan,nan,nan,nan
1,200,1,1,1.0,1.0,0.3272130433470011,0.0,6,4,3,8,2,1,nan,nan,nan,nan,nan,nan,nan,nan,nan,nan,nan,nan,0.0,nan,nan,nan,nan,nan,nan,nan,nan,nan,nan,nan,nan,nan,nan,nan,nan,nan,nan,108.37380829110043,440.1367163801333,nan,440.4639294234803,nan,nan,nan,nan
1,201,1,1,1.0,1.0,0.3267175432993099,0.0,1,0,5,2,8,6,nan,nan,nan,nan,nan,nan,nan,nan,nan,nan,nan,nan,0.0,nan,nan,nan,nan,nan,nan,nan,nan,nan,nan,nan,nan,nan,nan,nan,nan,nan,nan,108.37380829110043,441.1451917682425,nan,441.4719093115418,nan,nan,nan,nan
1,202,1,1,1.0,1.0,0.3022185171721503,0.0,2,6,7,3,5,1,nan,nan,nan,nan,nan,nan,nan,nan,nan,nan,nan,nan,0.0,nan,nan,nan,nan,nan,nan,nan,nan,nan,nan,nan,nan,nan,nan,nan,nan,nan,nan,108.37380829110043,442.15366886690026,nan,442.4558873840724,nan,nan,nan,nan
1,203,1,1,1.0,1.0,0.3418861729442142,0.0,3,4,1,7,0,2,nan,nan,nan,nan,nan,nan,nan,nan,nan,nan,nan,nan,0.0,nan,nan,nan,nan,nan,nan,nan,nan,nan,nan,nan,nan,nan,nan,nan,nan,nan,nan,108.37380829110043,443.1621405486949,nan,443.5040267216391,nan,nan,nan,nan
1,204,1,1,1.0,1.0,0.30925729736918584,0.0,4,1,0,3,7,5,nan,nan,nan,nan,nan,nan,nan,nan,nan,nan,nan,nan,0.0,nan,nan,nan,nan,nan,nan,nan,nan,nan,nan,nan,nan,nan,nan,nan,nan,nan,nan,108.37380829110043,444.1705808697152,nan,444.4798381670844,nan,nan,nan,nan
1,205,0,0,nan,nan,nan,0.0,8,6,7,4,2,1,nan,nan,nan,nan,nan,nan,nan,nan,nan,nan,nan,nan,0.0,nan,nan,nan,nan,nan,nan,nan,nan,nan,nan,nan,nan,nan,nan,nan,nan,nan,nan,108.37380829110043,445.17075221351115,nan,nan,nan,nan,nan,nan
1,206,1,1,0.0,0.0,0.16496814886340871,0.0,3,2,5,0,1,6,nan,nan,nan,nan,nan,nan,nan,nan,nan,nan,nan,nan,0.0,nan,nan,nan,nan,nan,nan,nan,nan,nan,nan,nan,nan,nan,nan,nan,nan,nan,nan,108.37380829110043,446.17086283146637,nan,446.3358309803298,nan,nan,nan,nan
1,207,1,1,1.0,1.0,0.5884478932712227,0.0,1,8,2,6,4,0,nan,nan,nan,nan,nan,nan,nan,nan,nan,nan,nan,nan,0.0,nan,nan,nan,nan,nan,nan,nan,nan,nan,nan,nan,nan,nan,nan,nan,nan,nan,nan,108.37380829110043,447.1793105650577,nan,447.7677584583289,nan,nan,nan,nan
1,208,0,0,0.0,1.0,0.5399866802035831,0.0,4,1,3,7,5,8,nan,nan,nan,nan,nan,nan,nan,nan,nan,nan,nan,nan,0.0,nan,nan,nan,nan,nan,nan,nan,nan,nan,nan,nan,nan,nan,nan,nan,nan,nan,nan,108.37380829110043,448.18777540454175,nan,448.72776208474534,nan,nan,nan,nan
1,209,1,1,1.0,1.0,0.5078142462298274,0.0,3,2,4,5,7,6,nan,nan,nan,nan,nan,nan,nan,nan,nan,nan,nan,nan,0.0,nan,nan,nan,nan,nan,nan,nan,nan,nan,nan,nan,nan,nan,nan,nan,nan,nan,nan,108.37380829110043,449.1879304977483,nan,449.69574474397814,nan,nan,nan,nan
1,210,1,1,1.0,1.0,0.42766669095726684,0.0,1,5,6,7,0,4,nan,nan,nan,nan,nan,nan,nan,nan,nan,nan,nan,nan,0.0,nan,nan,nan,nan,nan,nan,nan,nan,nan,nan,nan,nan,nan,nan,nan,nan,nan,nan,108.37380829110043,450.1880567960907,nan,450.61572348704794,nan,nan,nan,nan
1,211,1,1,1.0,1.0,0.4115230268216692,0.0,3,7,4,8,1,5,nan,nan,nan,nan,nan,nan,nan,nan,nan,nan,nan,nan,0.0,nan,nan,nan,nan,nan,nan,nan,nan,nan,nan,nan,nan,nan,nan,nan,nan,nan,nan,108.37380829110043,451.1881890814402,nan,451.5997121082619,nan,nan,nan,nan
1,212,1,1,1.0,1.0,0.34737231041071936,0.0,0,6,5,2,3,7,nan,nan,nan,nan,nan,nan,nan,nan,nan,nan,nan,nan,0.0,nan,nan,nan,nan,nan,nan,nan,nan,nan,nan,nan,nan,nan,nan,nan,nan,nan,nan,108.37380829110043,452.18831880093785,nan,452.53569111134857,nan,nan,nan,nan
1,213,1,1,1.0,1.0,0.41922038287157193,0.0,1,7,0,8,6,4,nan,nan,nan,nan,nan,nan,nan,nan,nan,nan,nan,nan,0.0,nan,nan,nan,nan,nan,nan,nan,nan,nan,nan,nan,nan,nan,nan,nan,nan,nan,nan,108.37380829110043,453.1884476651903,nan,453.6076680480619,nan,nan,nan,nan
1,214,1,1,1.0,1.0,0.29906847135862336,0.0,4,8,1,7,5,0,nan,nan,nan,nan,nan,nan,nan,nan,nan,nan,nan,nan,0.0,nan,nan,nan,nan,nan,nan,nan,nan,nan,nan,nan,nan,nan,nan,nan,nan,nan,nan,108.37380829110043,454.18858964391984,nan,454.48765811527846,nan,nan,nan,nan
1,215,1,1,1.0,1.0,0.2909186650067568,0.0,2,6,3,5,4,1,nan,nan,nan,nan,nan,nan,nan,nan,nan,nan,nan,nan,0.0,nan,nan,nan,nan,nan,nan,nan,nan,nan,nan,nan,nan,nan,nan,nan,nan,nan,nan,108.37380829110043,455.188725635584,nan,455.47964430059073,nan,nan,nan,nan
1,216,1,1,1.0,1.0,0.3307682131999172,0.0,4,0,1,3,2,7,nan,nan,nan,nan,nan,nan,nan,nan,nan,nan,nan,nan,0.0,nan,nan,nan,nan,nan,nan,nan,nan,nan,nan,nan,nan,nan,nan,nan,nan,nan,nan,108.37380829110043,456.1888527891715,nan,456.5196210023714,nan,nan,nan,nan
1,217,0,0,0.0,1.0,0.39462299802107736,0.0,6,5,0,8,7,2,nan,nan,nan,nan,nan,nan,nan,nan,nan,nan,nan,nan,0.0,nan,nan,nan,nan,nan,nan,nan,nan,nan,nan,nan,nan,nan,nan,nan,nan,nan,nan,108.37380829110043,457.1889859298826,nan,457.5836089279037,nan,nan,nan,nan
1,218,1,1,1.0,1.0,0.4501777300029062,0.0,7,0,4,5,2,3,nan,nan,nan,nan,nan,nan,nan,nan,nan,nan,nan,nan,0.0,nan,nan,nan,nan,nan,nan,nan,nan,nan,nan,nan,nan,nan,nan,nan,nan,nan,nan,108.37380829110043,458.1974308124627,nan,458.6476085424656,nan,nan,nan,nan
1,219,1,1,0.0,0.0,0.6656672087265179,0.0,8,7,5,0,1,4,nan,nan,nan,nan,nan,nan,nan,nan,nan,nan,nan,nan,0.0,nan,nan,nan,nan,nan,nan,nan,nan,nan,nan,nan,nan,nan,nan,nan,nan,nan,nan,108.37380829110043,459.20589422644116,nan,459.8715614351677,nan,nan,nan,nan
1,220,1,1,1.0,1.0,0.017534371407236904,0.0,3,2,1,8,7,6,nan,nan,nan,nan,nan,nan,nan,nan,nan,nan,nan,nan,0.0,nan,nan,nan,nan,nan,nan,nan,nan,nan,nan,nan,nan,nan,nan,nan,nan,nan,nan,108.37380829110043,460.2060387710226,nan,460.2235731424298,nan,nan,nan,nan
1,221,0,0,0.0,1.0,0.4810027916682884,1.0,0,8,6,4,5,7,1.0,1.0,1.0,1.0,1.0,1.0,1.0,0.0,0.0,0.0,1.0,1.0,3.0,0.0,1.0,2.0,7.0,5.0,7.0,6.0,5.0,4.0,3.0,2.0,1.0,7.523629762872588,6.772039772302378,5.46897907613311,3.037173334916588,2.1740955556742847,1.4061888465075754,108.37380829110043,461.21449705323903,462.0229135971167,461.6954998449073,470.60736869537504,471.611845301406,463.04805494862376,470.5990387072088
1,222,1,1,1.0,1.0,0.47947267163544893,0.0,3,1,4,0,7,2,nan,nan,nan,nan,nan,nan,nan,nan,nan,nan,nan,nan,0.0,nan,nan,nan,nan,nan,nan,nan,nan,nan,nan,nan,nan,nan,nan,nan,nan,nan,nan,108.37380829110043,471.8158869621693,nan,472.29535963380476,nan,nan,nan,nan
1,223,1,1,1.0,1.0,0.47930246830219403,0.0,5,6,8,7,2,3,nan,nan,nan,nan,nan,nan,nan,nan,nan,nan,nan,nan,0.0,nan,nan,nan,nan,nan,nan,nan,nan,nan,nan,nan,nan,nan,nan,nan,nan,nan,nan,108.37380829110043,472.81602951104287,nan,473.29533197934506,nan,nan,nan,nan
1,224,1,1,1.0,1.0,0.3831843031803146,0.0,6,5,3,4,8,2,nan,nan,nan,nan,nan,nan,nan,nan,nan,nan,nan,nan,0.0,nan,nan,nan,nan,nan,nan,nan,nan,nan,nan,nan,nan,nan,nan,nan,nan,nan,nan,108.37380829110043,473.8161330015864,nan,474.19931730476674,nan,nan,nan,nan
1,225,1,1,1.0,1.0,0.5670042605488561,0.0,1,2,5,7,3,0,nan,nan,nan,nan,nan,nan,nan,nan,nan,nan,nan,nan,0.0,nan,nan,nan,nan,nan,nan,nan,nan,nan,nan,nan,nan,nan,nan,nan,nan,nan,nan,108.37380829110043,474.8162912308471,nan,475.383295491396,nan,nan,nan,nan
1,226,1,1,1.0,1.0,0.45486559346318245,0.0,7,5,4,3,0,6,nan,nan,nan,nan,nan,nan,nan,nan,nan,nan,nan,nan,0.0,nan,nan,nan,nan,nan,nan,nan,nan,nan,nan,nan,nan,nan,nan,nan,nan,nan,nan,108.37380829110043,475.8164098315756,nan,476.27127542503877,nan,nan,nan,nan
1,227,1,1,1.0,1.0,0.3827110407873988,0.0,0,8,5,1,7,2,nan,nan,nan,nan,nan,nan,nan,nan,nan,nan,nan,nan,0.0,nan,nan,nan,nan,nan,nan,nan,nan,nan,nan,nan,nan,nan,nan,nan,nan,nan,nan,108.37380829110043,476.816561788728,nan,477.1992728295154,nan,nan,nan,nan
1,228,1,1,1.0,1.0,0.3185665965429507,0.0,5,4,7,2,0,3,nan,nan,nan,nan,nan,nan,nan,nan,nan,nan,nan,nan,0.0,nan,nan,nan,nan,nan,nan,nan,nan,nan,nan,nan,nan,nan,nan,nan,nan,nan,nan,108.37380829110043,477.81669150822563,nan,478.1352581047686,nan,nan,nan,nan
1,229,1,1,0.0,0.0,0.382070426014252,0.0,0,5,2,6,8,7,nan,nan,nan,nan,nan,nan,nan,nan,nan,nan,nan,nan,0.0,nan,nan,nan,nan,nan,nan,nan,nan,nan,nan,nan,nan,nan,nan,nan,nan,nan,nan,108.37380829110043,478.8251486500376,nan,479.20721907605184,nan,nan,nan,nan
1,230,1,1,1.0,1.0,0.4379051240393892,0.0,3,6,0,4,2,1,nan,nan,nan,nan,nan,nan,nan,nan,nan,nan,nan,nan,0.0,nan,nan,nan,nan,nan,nan,nan,nan,nan,nan,nan,nan,nan,nan,nan,nan,nan,nan,108.37380829110043,479.8252820757916,nan,480.263187199831,nan,nan,nan,nan
1,231,1,1,1.0,1.0,0.4374632224207744,0.0,0,7,1,6,4,8,nan,nan,nan,nan,nan,nan,nan,nan,nan,nan,nan,nan,0.0,nan,nan,nan,nan,nan,nan,nan,nan,nan,nan,nan,nan,nan,nan,nan,nan,nan,nan,108.37380829110043,480.8337280987762,nan,481.27119132119697,nan,nan,nan,nan
1,232,1,1,1.0,1.0,0.31696178088895977,0.0,1,3,0,4,8,5,nan,nan,nan,nan,nan,nan,nan,nan,nan,nan,nan,nan,0.0,nan,nan,nan,nan,nan,nan,nan,nan,nan,nan,nan,nan,nan,nan,nan,nan,nan,nan,108.37380829110043,481.84223057120107,nan,482.15919235209003,nan,nan,nan,nan
1,233,1,1,1.0,1.0,0.3084712826530449,0.0,7,6,8,2,0,4,nan,nan,nan,nan,nan,nan,nan,nan,nan,nan,nan,nan,0.0,nan,nan,nan,nan,nan,nan,nan,nan,nan,nan,nan,nan,nan,nan,nan,nan,nan,nan,108.37380829110043,482.85071052081184,nan,483.1591818034649,nan,nan,nan,nan
1,234,1,1,1.0,1.0,0.32400084618711844,0.0,0,2,3,1,5,6,nan,nan,nan,nan,nan,nan,nan,nan,nan,nan,nan,nan,0.0,nan,nan,nan,nan,nan,nan,nan,nan,nan,nan,nan,nan,nan,nan,nan,nan,nan,nan,108.37380829110043,483.859147705778,nan,484.18314855196513,nan,nan,nan,nan
1,235,1,1,1.0,1.0,0.30752247711643577,0.0,3,0,5,2,1,4,nan,nan,nan,nan,nan,nan,nan,nan,nan,nan,nan,nan,0.0,nan,nan,nan,nan,nan,nan,nan,nan,nan,nan,nan,nan,nan,nan,nan,nan,nan,nan,108.37380829110043,484.86760598799447,nan,485.1751284651109,nan,nan,nan,nan
1,236,1,1,1.0,1.0,0.3310350647661835,0.0,1,3,8,6,2,7,nan,nan,nan,nan,nan,nan,nan,nan,nan,nan,nan,nan,0.0,nan,nan,nan,nan,nan,nan,nan,nan,nan,nan,nan,nan,nan,nan,nan,nan,nan,nan,108.37380829110043,485.87607852509245,nan,486.20711358985864,nan,nan,nan,nan
1,237,1,1,1.0,1.0,0.3388952116947621,0.0,8,2,4,7,0,1,nan,nan,nan,nan,nan,nan,nan,nan,nan,nan,nan,nan,0.0,nan,nan,nan,nan,nan,nan,nan,nan,nan,nan,nan,nan,nan,nan,nan,nan,nan,nan,108.37380829110043,486.8762085296912,nan,487.215103741386,nan,nan,nan,nan
1,238,1,1,1.0,1.0,0.2664036734495312,0.0,7,5,6,3,8,2,nan,nan,nan,nan,nan,nan,nan,nan,nan,nan,nan,nan,0.0,nan,nan,nan,nan,nan,nan,nan,nan,nan,nan,nan,nan,nan,nan,nan,nan,nan,nan,108.37380829110043,487.8846750797238,nan,488.15107875317335,nan,nan,nan,nan
1,239,1,1,1.0,1.0,0.2579376936191693,0.0,1,6,5,2,7,0,nan,nan,nan,nan,nan,nan,nan,nan,nan,nan,nan,nan,0.0,nan,nan,nan,nan,nan,nan,nan,nan,nan,nan,nan,nan,nan,nan,nan,nan,nan,nan,108.37380829110043,488.8931310811313,nan,489.15106877475046,nan,nan,nan,nan
1,240,1,1,1.0,1.0,0.36143504560459405,0.0,7,3,4,1,0,5,nan,nan,nan,nan,nan,nan,nan,nan,nan,nan,nan,nan,0.0,nan,nan,nan,nan,nan,nan,nan,nan,nan,nan,nan,nan,nan,nan,nan,nan,nan,nan,108.37380829110043,489.90159449510975,nan,490.26302954071434,nan,nan,nan,nan
1,241,0,0,0.0,1.0,0.7129635120509192,1.0,2,5,3,8,7,0,1.0,1.0,1.0,1.0,1.0,1.0,0.0,0.0,0.0,1.0,1.0,1.0,3.0,5.0,3.0,2.0,8.0,7.0,0.0,6.0,5.0,4.0,3.0,2.0,1.0,10.667850202764384,8.676546826725826,7.46073518745834,3.973127819597721,3.0285893245600164,1.9184868261800148,108.37380829110043,490.91005819418933,491.71848129533464,491.62302170624025,503.44500691076973,504.44932642788626,492.7352841057,503.4366769226035
1,242,1,1,1.0,1.0,0.4812394228647463,0.0,1,3,0,6,2,8,nan,nan,nan,nan,nan,nan,nan,nan,nan,nan,nan,nan,0.0,nan,nan,nan,nan,nan,nan,nan,nan,nan,nan,nan,nan,nan,nan,nan,nan,nan,nan,108.37380829110043,504.65354313876014,nan,505.1347825616249,nan,nan,nan,nan
1,243,1,1,1.0,1.0,0.6167335886275396,0.0,8,5,7,4,6,1,nan,nan,nan,nan,nan,nan,nan,nan,nan,nan,nan,nan,0.0,nan,nan,nan,nan,nan,nan,nan,nan,nan,nan,nan,nan,nan,nan,nan,nan,nan,nan,108.37380829110043,505.6620042719296,nan,506.27873786055716,nan,nan,nan,nan
1,244,1,1,1.0,1.0,0.5202664638054557,0.0,2,3,1,6,0,5,nan,nan,nan,nan,nan,nan,nan,nan,nan,nan,nan,nan,0.0,nan,nan,nan,nan,nan,nan,nan,nan,nan,nan,nan,nan,nan,nan,nan,nan,nan,nan,108.37380829110043,506.6704668306047,nan,507.19073329441017,nan,nan,nan,nan
1,245,1,1,1.0,1.0,0.46378887025639415,0.0,4,1,6,7,8,2,nan,nan,nan,nan,nan,nan,nan,nan,nan,nan,nan,nan,0.0,nan,nan,nan,nan,nan,nan,nan,nan,nan,nan,nan,nan,nan,nan,nan,nan,nan,nan,108.37380829110043,507.67891855555354,nan,508.14270742580993,nan,nan,nan,nan
1,246,1,1,1.0,1.0,0.47928336675977334,0.0,8,0,7,6,1,3,nan,nan,nan,nan,nan,nan,nan,nan,nan,nan,nan,nan,0.0,nan,nan,nan,nan,nan,nan,nan,nan,nan,nan,nan,nan,nan,nan,nan,nan,nan,nan,108.37380829110043,508.68740392202744,nan,509.1666872887872,nan,nan,nan,nan
1,247,1,1,1.0,1.0,0.4068086491897702,0.0,6,1,2,7,5,8,nan,nan,nan,nan,nan,nan,nan,nan,nan,nan,nan,nan,0.0,nan,nan,nan,nan,nan,nan,nan,nan,nan,nan,nan,nan,nan,nan,nan,nan,nan,nan,108.37380829110043,509.69587018701714,nan,510.1026788362069,nan,nan,nan,nan
1,248,1,1,1.0,1.0,0.40634336951188743,0.0,4,2,1,8,3,0,nan,nan,nan,nan,nan,nan,nan,nan,nan,nan,nan,nan,0.0,nan,nan,nan,nan,nan,nan,nan,nan,nan,nan,nan,nan,nan,nan,nan,nan,nan,nan,108.37380829110043,510.7043233374716,nan,511.11066670698347,nan,nan,nan,nan
1,249,1,1,1.0,1.0,0.4938812305335887,0.0,0,1,8,5,2,6,nan,nan,nan,nan,nan,nan,nan,nan,nan,nan,nan,nan,0.0,nan,nan,nan,nan,nan,nan,nan,nan,nan,nan,nan,nan,nan,nan,nan,nan,nan,nan,108.37380829110043,511.712758811831,nan,512.2066400423646,nan,nan,nan,nan
1,250,1,1,1.0,1.0,0.46169140556594357,0.0,6,0,2,4,7,1,nan,nan,nan,nan,nan,nan,nan,nan,nan,nan,nan,nan,0.0,nan,nan,nan,nan,nan,nan,nan,nan,nan,nan,nan,nan,nan,nan,nan,nan,nan,nan,108.37380829110043,512.7129315810744,nan,513.1746229866403,nan,nan,nan,nan
1,251,1,1,1.0,1.0,0.3655472965911031,0.0,4,8,6,1,0,7,nan,nan,nan,nan,nan,nan,nan,nan,nan,nan,nan,nan,0.0,nan,nan,nan,nan,nan,nan,nan,nan,nan,nan,nan,nan,nan,nan,nan,nan,nan,nan,108.37380829110043,513.7130638664821,nan,514.0786111630732,nan,nan,nan,nan
1,252,1,1,1.0,1.0,0.25339494488434866,0.0,6,2,5,0,7,8,nan,nan,nan,nan,nan,nan,nan,nan,nan,nan,nan,nan,0.0,nan,nan,nan,nan,nan,nan,nan,nan,nan,nan,nan,nan,nan,nan,nan,nan,nan,nan,108.37380829110043,514.7131987177418,nan,514.9665936626261,nan,nan,nan,nan
1,253,1,1,1.0,1.0,0.23692769464105368,0.0,4,0,6,7,1,5,nan,nan,nan,nan,nan,nan,nan,nan,nan,nan,nan,nan,0.0,nan,nan,nan,nan,nan,nan,nan,nan,nan,nan,nan,nan,nan,nan,nan,nan,nan,nan,108.37380829110043,515.7216558595537,nan,515.9585835541948,nan,nan,nan,nan
1,254,1,1,1.0,1.0,0.32443676074035466,0.0,6,3,1,0,2,8,nan,nan,nan,nan,nan,nan,nan,nan,nan,nan,nan,nan,0.0,nan,nan,nan,nan,nan,nan,nan,nan,nan,nan,nan,nan,nan,nan,nan,nan,nan,nan,108.37380829110043,516.7301078696037,nan,517.054544630344,nan,nan,nan,nan
1,255,1,1,1.0,1.0,0.3399540650425479,0.0,5,4,0,6,3,2,nan,nan,nan,nan,nan,nan,nan,nan,nan,nan,nan,nan,0.0,nan,nan,nan,nan,nan,nan,nan,nan,nan,nan,nan,nan,nan,nan,nan,nan,nan,nan,108.37380829110043,517.7385767004453,nan,518.0785307654878,nan,nan,nan,nan
1,256,1,1,1.0,1.0,0.36379251949256286,0.0,1,3,7,2,8,0,nan,nan,nan,nan,nan,nan,nan,nan,nan,nan,nan,nan,0.0,nan,nan,nan,nan,nan,nan,nan,nan,nan,nan,nan,nan,nan,nan,nan,nan,nan,nan,108.37380829110043,518.7387360701105,nan,519.102528589603,nan,nan,nan,nan
1,257,1,1,1.0,1.0,0.3396401723730378,0.0,2,6,4,1,7,5,nan,nan,nan,nan,nan,nan,nan,nan,nan,nan,nan,nan,0.0,nan,nan,nan,nan,nan,nan,nan,nan,nan,nan,nan,nan,nan,nan,nan,nan,nan,nan,108.37380829110043,519.7388580919942,nan,520.0784982643672,nan,nan,nan,nan
1,258,1,1,1.0,1.0,0.2671717269695364,0.0,6,7,0,3,5,4,nan,nan,nan,nan,nan,nan,nan,nan,nan,nan,nan,nan,0.0,nan,nan,nan,nan,nan,nan,nan,nan,nan,nan,nan,nan,nan,nan,nan,nan,nan,nan,108.37380829110043,520.7473075361922,nan,521.0144792631618,nan,nan,nan,nan
1,259,1,1,1.0,1.0,0.32270165538648143,0.0,5,2,7,8,4,0,nan,nan,nan,nan,nan,nan,nan,nan,nan,nan,nan,nan,0.0,nan,nan,nan,nan,nan,nan,nan,nan,nan,nan,nan,nan,nan,nan,nan,nan,nan,nan,108.37380829110043,521.7557820689399,nan,522.0784837243264,nan,nan,nan,nan
1,260,0,0,1.0,0.0,0.26621408335631713,0.0,4,1,0,2,3,5,nan,nan,nan,nan,nan,nan,nan,nan,nan,nan,nan,nan,0.0,nan,nan,nan,nan,nan,nan,nan,nan,nan,nan,nan,nan,nan,nan,nan,nan,nan,nan,108.37380829110043,522.7642528954893,nan,523.0304669788457,nan,nan,nan,nan
1,261,1,1,1.0,1.0,0.5937253390438855,0.0,0,2,5,7,8,6,nan,nan,nan,nan,nan,nan,nan,nan,nan,nan,nan,nan,0.0,nan,nan,nan,nan,nan,nan,nan,nan,nan,nan,nan,nan,nan,nan,nan,nan,nan,nan,108.37380829110043,523.7727126031532,nan,524.3664379421971,nan,nan,nan,nan
1,262,1,1,1.0,1.0,0.5052651865407825,0.0,6,5,7,0,2,8,nan,nan,nan,nan,nan,nan,nan,nan,nan,nan,nan,nan,0.0,nan,nan,nan,nan,nan,nan,nan,nan,nan,nan,nan,nan,nan,nan,nan,nan,nan,nan,108.37380829110043,524.7811580559937,nan,525.2864232425345,nan,nan,nan,nan
1,263,0,0,0.0,1.0,0.4730727957212366,0.0,3,4,8,1,7,0,nan,nan,nan,nan,nan,nan,nan,nan,nan,nan,nan,nan,0.0,nan,nan,nan,nan,nan,nan,nan,nan,nan,nan,nan,nan,nan,nan,nan,nan,nan,nan,108.37380829110043,525.7813228425221,nan,526.2543956382433,nan,nan,nan,nan
1,264,1,1,1.0,1.0,0.544909464311786,0.0,7,1,5,8,0,3,nan,nan,nan,nan,nan,nan,nan,nan,nan,nan,nan,nan,0.0,nan,nan,nan,nan,nan,nan,nan,nan,nan,nan,nan,nan,nan,nan,nan,nan,nan,nan,108.37380829110043,526.7814574086806,nan,527.3263668729924,nan,nan,nan,nan
1,265,1,1,1.0,1.0,0.5767691460787319,0.0,6,7,0,3,5,8,nan,nan,nan,nan,nan,nan,nan,nan,nan,nan,nan,nan,0.0,nan,nan,nan,nan,nan,nan,nan,nan,nan,nan,nan,nan,nan,nan,nan,nan,nan,nan,108.37380829110043,527.781576294452,nan,528.3583454405307,nan,nan,nan,nan
1,266,1,1,1.0,1.0,0.40864981088088825,0.0,5,8,3,0,4,1,nan,nan,nan,nan,nan,nan,nan,nan,nan,nan,nan,nan,0.0,nan,nan,nan,nan,nan,nan,nan,nan,nan,nan,nan,nan,nan,nan,nan,nan,nan,nan,108.37380829110043,528.7817057289067,nan,529.1903555397876,nan,nan,nan,nan
1,267,1,1,1.0,1.0,0.40017271222313866,0.0,6,1,2,4,8,3,nan,nan,nan,nan,nan,nan,nan,nan,nan,nan,nan,nan,0.0,nan,nan,nan,nan,nan,nan,nan,nan,nan,nan,nan,nan,nan,nan,nan,nan,nan,nan,108.37380829110043,529.7901628707186,nan,530.1903355829418,nan,nan,nan,nan
1,268,1,1,1.0,1.0,0.5196794474031776,0.0,7,3,6,5,2,0,nan,nan,nan,nan,nan,nan,nan,nan,nan,nan,nan,nan,0.0,nan,nan,nan,nan,nan,nan,nan,nan,nan,nan,nan,nan,nan,nan,nan,nan,nan,nan,108.37380829110043,530.7986445309361,nan,531.3183239783393,nan,nan,nan,nan
1,269,0,0,0.0,1.0,0.4791941310977563,0.0,8,7,1,0,6,3,nan,nan,nan,nan,nan,nan,nan,nan,nan,nan,nan,nan,0.0,nan,nan,nan,nan,nan,nan,nan,nan,nan,nan,nan,nan,nan,nan,nan,nan,nan,nan,108.37380829110043,531.8070996770402,nan,532.286293808138,nan,nan,nan,nan
1,270,1,1,1.0,1.0,0.4790427441475913,0.0,3,0,8,1,2,6,nan,nan,nan,nan,nan,nan,nan,nan,nan,nan,nan,nan,0.0,nan,nan,nan,nan,nan,nan,nan,nan,nan,nan,nan,nan,nan,nan,nan,nan,nan,nan,108.37380829110043,532.8072385197156,nan,533.2862812638632,nan,nan,nan,nan
1,271,1,1,1.0,1.0,0.4386110262130387,0.0,4,2,5,3,6,8,nan,nan,nan,nan,nan,nan,nan,nan,nan,nan,nan,nan,0.0,nan,nan,nan,nan,nan,nan,nan,nan,nan,nan,nan,nan,nan,nan,nan,nan,nan,nan,108.37380829110043,533.815663730551,nan,534.2542747567641,nan,nan,nan,nan
1,272,1,1,1.0,1.0,0.414071231149137,0.0,6,1,0,7,5,4,nan,nan,nan,nan,nan,nan,nan,nan,nan,nan,nan,nan,0.0,nan,nan,nan,nan,nan,nan,nan,nan,nan,nan,nan,nan,nan,nan,nan,nan,nan,nan,108.37380829110043,534.8241653476143,nan,535.2382365787635,nan,nan,nan,nan
1,273,1,1,1.0,1.0,0.37358677008887753,0.0,5,2,8,6,7,3,nan,nan,nan,nan,nan,nan,nan,nan,nan,nan,nan,nan,0.0,nan,nan,nan,nan,nan,nan,nan,nan,nan,nan,nan,nan,nan,nan,nan,nan,nan,nan,108.37380829110043,535.8326361741638,nan,536.2062229442527,nan,nan,nan,nan
1,274,1,1,1.0,1.0,0.3410938861197792,0.0,4,6,7,0,2,5,nan,nan,nan,nan,nan,nan,nan,nan,nan,nan,nan,nan,0.0,nan,nan,nan,nan,nan,nan,nan,nan,nan,nan,nan,nan,nan,nan,nan,nan,nan,nan,108.37380829110043,536.8411115622148,nan,537.1822054483346,nan,nan,nan,nan
1,275,1,1,1.0,1.0,0.3566479680594057,0.0,7,8,5,3,0,2,nan,nan,nan,nan,nan,nan,nan,nan,nan,nan,nan,nan,0.0,nan,nan,nan,nan,nan,nan,nan,nan,nan,nan,nan,nan,nan,nan,nan,nan,nan,nan,108.37380829110043,537.8495498875855,nan,538.2061978556449,nan,nan,nan,nan
1,276,1,1,1.0,1.0,0.364449099812191,0.0,2,5,3,6,8,4,nan,nan,nan,nan,nan,nan,nan,nan,nan,nan,nan,nan,0.0,nan,nan,nan,nan,nan,nan,nan,nan,nan,nan,nan,nan,nan,nan,nan,nan,nan,nan,108.37380829110043,538.8497141039115,nan,539.2141632037237,nan,nan,nan,nan
1,277,1,1,1.0,1.0,0.3403073012595996,0.0,6,1,7,4,3,8,nan,nan,nan,nan,nan,nan,nan,nan,nan,nan,nan,nan,0.0,nan,nan,nan,nan,nan,nan,nan,nan,nan,nan,nan,nan,nan,nan,nan,nan,nan,nan,108.37380829110043,539.8498409724561,nan,540.1901482737157,nan,nan,nan,nan
1,278,1,1,1.0,1.0,0.27619165187934414,0.0,0,5,2,6,8,7,nan,nan,nan,nan,nan,nan,nan,nan,nan,nan,nan,nan,0.0,nan,nan,nan,nan,nan,nan,nan,nan,nan,nan,nan,nan,nan,nan,nan,nan,nan,nan,108.37380829110043,540.8499521606136,nan,541.126143812493,nan,nan,nan,nan
1,279,0,0,1.0,0.0,0.28370112855918705,0.0,2,1,0,7,4,3,nan,nan,nan,nan,nan,nan,nan,nan,nan,nan,nan,nan,0.0,nan,nan,nan,nan,nan,nan,nan,nan,nan,nan,nan,nan,nan,nan,nan,nan,nan,nan,108.37380829110043,541.8584278337657,nan,542.1421289623249,nan,nan,nan,nan
1,280,1,1,0.0,0.0,0.027208310726564378,0.0,6,7,8,0,5,2,nan,nan,nan,nan,nan,nan,nan,nan,nan,nan,nan,nan,0.0,nan,nan,nan,nan,nan,nan,nan,nan,nan,nan,nan,nan,nan,nan,nan,nan,nan,nan,108.37380829110043,542.8668824097258,nan,542.8940907204524,nan,nan,nan,nan
1,281,1,1,1.0,1.0,0.4990531901130453,0.0,0,4,3,5,1,7,nan,nan,nan,nan,nan,nan,nan,nan,nan,nan,nan,nan,0.0,nan,nan,nan,nan,nan,nan,nan,nan,nan,nan,nan,nan,nan,nan,nan,nan,nan,nan,108.37380829110043,543.8670241033542,nan,544.3660772934672,nan,nan,nan,nan
1,282,1,1,1.0,1.0,0.4825765316491015,0.0,7,0,8,1,3,6,nan,nan,nan,nan,nan,nan,nan,nan,nan,nan,nan,nan,0.0,nan,nan,nan,nan,nan,nan,nan,nan,nan,nan,nan,nan,nan,nan,nan,nan,nan,nan,108.37380829110043,544.8754783941549,nan,545.358054925804,nan,nan,nan,nan
1,283,1,1,1.0,1.0,0.37809958355501294,0.0,6,3,7,4,8,0,nan,nan,nan,nan,nan,nan,nan,nan,nan,nan,nan,nan,0.0,nan,nan,nan,nan,nan,nan,nan,nan,nan,nan,nan,nan,nan,nan,nan,nan,nan,nan,108.37380829110043,545.8839443739853,nan,546.2620439575403,nan,nan,nan,nan
1,284,1,1,1.0,1.0,0.5219200312276371,0.0,5,6,0,1,2,7,nan,nan,nan,nan,nan,nan,nan,nan,nan,nan,nan,nan,0.0,nan,nan,nan,nan,nan,nan,nan,nan,nan,nan,nan,nan,nan,nan,nan,nan,nan,nan,108.37380829110043,546.8840977566433,nan,547.406017787871,nan,nan,nan,nan
1,285,1,1,1.0,1.0,0.5214641597704031,0.0,0,3,5,7,4,1,nan,nan,nan,nan,nan,nan,nan,nan,nan,nan,nan,nan,0.0,nan,nan,nan,nan,nan,nan,nan,nan,nan,nan,nan,nan,nan,nan,nan,nan,nan,nan,108.37380829110043,547.8925414988771,nan,548.4140056586475,nan,nan,nan,nan
1,286,1,1,1.0,1.0,0.5453031844226643,0.0,2,8,1,5,6,4,nan,nan,nan,nan,nan,nan,nan,nan,nan,nan,nan,nan,0.0,nan,nan,nan,nan,nan,nan,nan,nan,nan,nan,nan,nan,nan,nan,nan,nan,nan,nan,108.37380829110043,548.8926880391664,nan,549.437991223589,nan,nan,nan,nan
1,287,1,1,1.0,1.0,0.5927753931027837,0.0,7,0,6,1,3,8,nan,nan,nan,nan,nan,nan,nan,nan,nan,nan,nan,nan,0.0,nan,nan,nan,nan,nan,nan,nan,nan,nan,nan,nan,nan,nan,nan,nan,nan,nan,nan,108.37380829110043,549.9011813883553,nan,550.4939567814581,nan,nan,nan,nan
1,288,1,1,1.0,1.0,0.6083317557931878,0.0,4,5,8,2,0,6,nan,nan,nan,nan,nan,nan,nan,nan,nan,nan,nan,nan,0.0,nan,nan,nan,nan,nan,nan,nan,nan,nan,nan,nan,nan,nan,nan,nan,nan,nan,nan,108.37380829110043,550.9096171478741,nan,551.5179489036673,nan,nan,nan,nan
1,289,0,0,0.0,1.0,0.47984073299448937,1.0,1,6,3,0,2,7,1.0,1.0,1.0,1.0,1.0,1.0,0.0,0.0,0.0,1.0,1.0,1.0,3.0,5.0,8.0,6.0,0.0,2.0,7.0,6.0,5.0,4.0,3.0,2.0,1.0,6.9466228451929055,5.851161545549985,4.707732537179254,3.347143091727048,2.3478361645247787,1.6685096339788288,108.37380829110043,551.9180808468955,552.7264868422062,552.39792157989,560.7275454103947,561.7315598728601,553.7432964949403,560.719201737491
1,290,1,1,1.0,1.0,0.7737084498512559,0.0,4,1,0,5,3,2,nan,nan,nan,nan,nan,nan,nan,nan,nan,nan,nan,nan,0.0,nan,nan,nan,nan,nan,nan,nan,nan,nan,nan,nan,nan,nan,nan,nan,nan,nan,nan,108.37380829110043,561.9360565497191,nan,562.7097649995703,nan,nan,nan,nan
1,291,1,1,1.0,1.0,0.7492290955269709,0.0,7,8,6,2,4,1,nan,nan,nan,nan,nan,nan,nan,nan,nan,nan,nan,nan,0.0,nan,nan,nan,nan,nan,nan,nan,nan,nan,nan,nan,nan,nan,nan,nan,nan,nan,nan,108.37380829110043,562.9445088448701,nan,563.6937379403971,nan,nan,nan,nan
1,292,1,1,1.0,1.0,0.5967177257989533,0.0,2,1,3,7,0,4,nan,nan,nan,nan,nan,nan,nan,nan,nan,nan,nan,nan,0.0,nan,nan,nan,nan,nan,nan,nan,nan,nan,nan,nan,nan,nan,nan,nan,nan,nan,nan,108.37380829110043,563.9529816670693,nan,564.5496993928682,nan,nan,nan,nan
1,293,1,1,1.0,1.0,0.40425702364882454,0.0,0,3,5,4,1,7,nan,nan,nan,nan,nan,nan,nan,nan,nan,nan,nan,nan,0.0,nan,nan,nan,nan,nan,nan,nan,nan,nan,nan,nan,nan,nan,nan,nan,nan,nan,nan,108.37380829110043,564.9614425151958,nan,565.3656995388446,nan,nan,nan,nan
1,294,1,1,1.0,1.0,0.3320785228279419,0.0,8,7,2,1,6,0,nan,nan,nan,nan,nan,nan,nan,nan,nan,nan,nan,nan,0.0,nan,nan,nan,nan,nan,nan,nan,nan,nan,nan,nan,nan,nan,nan,nan,nan,nan,nan,108.37380829110043,565.9615899107303,nan,566.2936684335582,nan,nan,nan,nan
1,295,1,1,1.0,1.0,0.3395985480165109,0.0,1,5,0,7,4,6,nan,nan,nan,nan,nan,nan,nan,nan,nan,nan,nan,nan,0.0,nan,nan,nan,nan,nan,nan,nan,nan,nan,nan,nan,nan,nan,nan,nan,nan,nan,nan,108.37380829110043,566.9700507588568,nan,567.3096493068733,nan,nan,nan,nan
1,296,1,1,1.0,1.0,0.33113655960187316,0.0,4,7,6,1,8,2,nan,nan,nan,nan,nan,nan,nan,nan,nan,nan,nan,nan,0.0,nan,nan,nan,nan,nan,nan,nan,nan,nan,nan,nan,nan,nan,nan,nan,nan,nan,nan,108.37380829110043,567.9785047645564,nan,568.3096413241583,nan,nan,nan,nan
1,297,1,1,1.0,1.0,0.29064582637511194,0.0,3,6,8,5,4,0,nan,nan,nan,nan,nan,nan,nan,nan,nan,nan,nan,nan,0.0,nan,nan,nan,nan,nan,nan,nan,nan,nan,nan,nan,nan,nan,nan,nan,nan,nan,nan,108.37380829110043,568.9869858546299,nan,569.277631681005,nan,nan,nan,nan
1,298,1,1,1.0,1.0,0.41016082937130705,0.0,8,1,3,6,7,5,nan,nan,nan,nan,nan,nan,nan,nan,nan,nan,nan,nan,0.0,nan,nan,nan,nan,nan,nan,nan,nan,nan,nan,nan,nan,nan,nan,nan,nan,nan,nan,108.37380829110043,569.99545639602,nan,570.4056172253913,nan,nan,nan,nan
1,299,1,1,1.0,1.0,0.3776804897352122,0.0,0,2,4,1,5,7,nan,nan,nan,nan,nan,nan,nan,nan,nan,nan,nan,nan,0.0,nan,nan,nan,nan,nan,nan,nan,nan,nan,nan,nan,nan,nan,nan,nan,nan,nan,nan,108.37380829110043,571.0039121123264,nan,571.3815926020616,nan,nan,nan,nan
1,300,1,1,1.0,1.0,0.5451945621171035,0.0,4,6,1,7,2,8,nan,nan,nan,nan,nan,nan,nan,nan,nan,nan,nan,nan,0.0,nan,nan,nan,nan,nan,nan,nan,nan,nan,nan,nan,nan,nan,nan,nan,nan,nan,nan,108.37380829110043,572.0123669733875,nan,572.5575615355046,nan,nan,nan,nan
1,301,1,1,1.0,1.0,0.4410426255199127,0.0,3,2,8,5,7,6,nan,nan,nan,nan,nan,nan,nan,nan,nan,nan,nan,nan,0.0,nan,nan,nan,nan,nan,nan,nan,nan,nan,nan,nan,nan,nan,nan,nan,nan,nan,nan,108.37380829110043,573.0125126583735,nan,573.4535552838934,nan,nan,nan,nan
1,302,1,1,1.0,1.0,0.3608734028530307,0.0,2,4,5,6,1,8,nan,nan,nan,nan,nan,nan,nan,nan,nan,nan,nan,nan,0.0,nan,nan,nan,nan,nan,nan,nan,nan,nan,nan,nan,nan,nan,nan,nan,nan,nan,nan,108.37380829110043,574.0126583433594,nan,574.3735317462124,nan,nan,nan,nan
1,303,1,1,1.0,1.0,0.2887419431353919,0.0,3,7,6,8,5,1,nan,nan,nan,nan,nan,nan,nan,nan,nan,nan,nan,nan,0.0,nan,nan,nan,nan,nan,nan,nan,nan,nan,nan,nan,nan,nan,nan,nan,nan,nan,nan,108.37380829110043,575.0127786546363,nan,575.3015205977717,nan,nan,nan,nan
1,304,1,1,1.0,1.0,0.24858192342799157,0.0,7,6,8,5,1,3,nan,nan,nan,nan,nan,nan,nan,nan,nan,nan,nan,nan,0.0,nan,nan,nan,nan,nan,nan,nan,nan,nan,nan,nan,nan,nan,nan,nan,nan,nan,nan,108.37380829110043,576.0129206333659,nan,576.2615025567939,nan,nan,nan,nan
1,305,0,0,0.0,1.0,0.40842828986933455,1.0,0,1,5,3,2,7,1.0,1.0,1.0,1.0,1.0,1.0,1.0,0.0,0.0,1.0,1.0,1.0,4.0,0.0,5.0,8.0,3.0,2.0,7.0,6.0,5.0,4.0,3.0,2.0,1.0,8.891571310930885,7.331160792906303,5.819413907302078,4.915438845346216,3.3898484648088925,1.8123645785381086,108.37380829110043,577.0130517783691,577.8214517865563,577.4214800682385,587.7727168796118,588.7814933310146,578.8382517459686,587.7643743471708
1,306,1,1,1.0,1.0,0.3116783481091261,0.0,1,2,8,5,3,4,nan,nan,nan,nan,nan,nan,nan,nan,nan,nan,nan,nan,0.0,nan,nan,nan,nan,nan,nan,nan,nan,nan,nan,nan,nan,nan,nan,nan,nan,nan,nan,108.37380829110043,588.9896118906327,nan,589.3012902387418,nan,nan,nan,nan
1,307,1,1,1.0,1.0,0.4074968753266148,0.0,2,3,0,6,7,1,nan,nan,nan,nan,nan,nan,nan,nan,nan,nan,nan,nan,0.0,nan,nan,nan,nan,nan,nan,nan,nan,nan,nan,nan,nan,nan,nan,nan,nan,nan,nan,108.37380829110043,589.9897501631058,nan,590.3972470384324,nan,nan,nan,nan
1,308,1,1,1.0,1.0,0.39136033854447305,0.0,6,1,5,2,4,8,nan,nan,nan,nan,nan,nan,nan,nan,nan,nan,nan,nan,0.0,nan,nan,nan,nan,nan,nan,nan,nan,nan,nan,nan,nan,nan,nan,nan,nan,nan,nan,108.37380829110043,590.989876176347,nan,591.3812365148915,nan,nan,nan,nan
1,309,1,1,1.0,1.0,0.36721283808583394,0.0,4,6,2,1,0,3,nan,nan,nan,nan,nan,nan,nan,nan,nan,nan,nan,nan,0.0,nan,nan,nan,nan,nan,nan,nan,nan,nan,nan,nan,nan,nan,nan,nan,nan,nan,nan,108.37380829110043,591.9900204358273,nan,592.3572332739132,nan,nan,nan,nan
1,310,1,1,1.0,1.0,0.2707391559961252,0.0,0,1,4,8,5,7,nan,nan,nan,nan,nan,nan,nan,nan,nan,nan,nan,nan,0.0,nan,nan,nan,nan,nan,nan,nan,nan,nan,nan,nan,nan,nan,nan,nan,nan,nan,nan,108.37380829110043,592.9984693098231,nan,593.2692084658192,nan,nan,nan,nan
1,311,1,1,1.0,1.0,0.29456991283223033,0.0,1,2,3,5,0,8,nan,nan,nan,nan,nan,nan,nan,nan,nan,nan,nan,nan,0.0,nan,nan,nan,nan,nan,nan,nan,nan,nan,nan,nan,nan,nan,nan,nan,nan,nan,nan,108.37380829110043,593.9986164202564,nan,594.2931863330887,nan,nan,nan,nan
1,312,1,1,1.0,1.0,0.2784590348601341,0.0,2,1,5,6,7,4,nan,nan,nan,nan,nan,nan,nan,nan,nan,nan,nan,nan,0.0,nan,nan,nan,nan,nan,nan,nan,nan,nan,nan,nan,nan,nan,nan,nan,nan,nan,nan,108.37380829110043,594.9987213363056,nan,595.2771803711657,nan,nan,nan,nan
1,313,1,1,1.0,1.0,0.30995664233341813,0.0,1,3,7,5,2,0,nan,nan,nan,nan,nan,nan,nan,nan,nan,nan,nan,nan,0.0,nan,nan,nan,nan,nan,nan,nan,nan,nan,nan,nan,nan,nan,nan,nan,nan,nan,nan,108.37380829110043,596.0071913074935,nan,596.3171479498269,nan,nan,nan,nan
1,314,0,0,1.0,0.0,0.3174644084065221,1.0,8,5,0,1,4,6,1.0,1.0,1.0,1.0,1.0,1.0,0.0,1.0,0.0,1.0,1.0,1.0,4.0,0.0,5.0,2.0,1.0,4.0,6.0,6.0,5.0,4.0,3.0,2.0,1.0,6.528471294092014,5.664429599128198,4.616250347811729,3.7694986953865737,2.7789628027239814,1.5708784548332915,108.37380829110043,597.015652440663,597.8240783928195,597.3331168490695,605.4083949335036,606.4092006199644,598.8408891858999,605.400069221796
1,315,1,1,1.0,1.0,0.5800289545441046,0.0,3,4,7,0,5,2,nan,nan,nan,nan,nan,nan,nan,nan,nan,nan,nan,nan,0.0,nan,nan,nan,nan,nan,nan,nan,nan,nan,nan,nan,nan,nan,nan,nan,nan,nan,nan,108.37380829110043,606.6169411398587,nan,607.1969700944028,nan,nan,nan,nan
1,316,1,1,1.0,1.0,0.4434956071781926,0.0,2,7,3,6,1,4,nan,nan,nan,nan,nan,nan,nan,nan,nan,nan,nan,nan,0.0,nan,nan,nan,nan,nan,nan,nan,nan,nan,nan,nan,nan,nan,nan,nan,nan,nan,nan,108.37380829110043,607.6254698412376,nan,608.0689654484158,nan,nan,nan,nan
1,317,0,0,0.0,1.0,0.5070262358058244,0.0,5,2,0,3,6,1,nan,nan,nan,nan,nan,nan,nan,nan,nan,nan,nan,nan,0.0,nan,nan,nan,nan,nan,nan,nan,nan,nan,nan,nan,nan,nan,nan,nan,nan,nan,nan,108.37380829110043,608.6338939117268,nan,609.1409201475326,nan,nan,nan,nan
1,318,1,1,1.0,1.0,0.5465995242120698,0.0,1,4,2,7,5,8,nan,nan,nan,nan,nan,nan,nan,nan,nan,nan,nan,nan,0.0,nan,nan,nan,nan,nan,nan,nan,nan,nan,nan,nan,nan,nan,nan,nan,nan,nan,nan,108.37380829110043,609.642308573937,nan,610.1889080981491,nan,nan,nan,nan
1,319,1,1,1.0,1.0,0.4981155034038238,0.0,7,2,8,6,1,5,nan,nan,nan,nan,nan,nan,nan,nan,nan,nan,nan,nan,0.0,nan,nan,nan,nan,nan,nan,nan,nan,nan,nan,nan,nan,nan,nan,nan,nan,nan,nan,108.37380829110043,610.6507768345764,nan,611.1488923379802,nan,nan,nan,nan
1,320,1,1,1.0,1.0,0.3616217846865766,0.0,3,6,2,1,7,4,nan,nan,nan,nan,nan,nan,nan,nan,nan,nan,nan,nan,0.0,nan,nan,nan,nan,nan,nan,nan,nan,nan,nan,nan,nan,nan,nan,nan,nan,nan,nan,108.37380829110043,611.6592582096928,nan,612.0208799943794,nan,nan,nan,nan
1,321,1,1,1.0,1.0,0.33745489752618596,0.0,4,3,6,0,2,7,nan,nan,nan,nan,nan,nan,nan,nan,nan,nan,nan,nan,0.0,nan,nan,nan,nan,nan,nan,nan,nan,nan,nan,nan,nan,nan,nan,nan,nan,nan,nan,108.37380829110043,612.6594018989708,nan,612.996856796497,nan,nan,nan,nan
1,322,1,1,1.0,1.0,0.33698391588404775,0.0,3,1,5,2,7,4,nan,nan,nan,nan,nan,nan,nan,nan,nan,nan,nan,nan,0.0,nan,nan,nan,nan,nan,nan,nan,nan,nan,nan,nan,nan,nan,nan,nan,nan,nan,nan,108.37380829110043,613.667853909079,nan,614.004837824963,nan,nan,nan,nan
1,323,1,1,1.0,1.0,0.3368427925161086,0.0,5,4,2,0,1,3,nan,nan,nan,nan,nan,nan,nan,nan,nan,nan,nan,nan,0.0,nan,nan,nan,nan,nan,nan,nan,nan,nan,nan,nan,nan,nan,nan,nan,nan,nan,nan,108.37380829110043,614.667985054024,nan,615.0048278465401,nan,nan,nan,nan
1,324,1,1,1.0,1.0,0.2963660291279666,0.0,3,0,6,8,5,2,nan,nan,nan,nan,nan,nan,nan,nan,nan,nan,nan,nan,0.0,nan,nan,nan,nan,nan,nan,nan,nan,nan,nan,nan,nan,nan,nan,nan,nan,nan,nan,108.37380829110043,615.6764387746807,nan,615.9728048038087,nan,nan,nan,nan
1,325,1,1,1.0,1.0,0.328194064903073,0.0,2,7,8,1,3,6,nan,nan,nan,nan,nan,nan,nan,nan,nan,nan,nan,nan,0.0,nan,nan,nan,nan,nan,nan,nan,nan,nan,nan,nan,nan,nan,nan,nan,nan,nan,nan,108.37380829110043,616.6766078377259,nan,617.004801902629,nan,nan,nan,nan
1,326,1,1,1.0,1.0,0.2717218882171437,0.0,5,1,4,3,6,2,nan,nan,nan,nan,nan,nan,nan,nan,nan,nan,nan,nan,0.0,nan,nan,nan,nan,nan,nan,nan,nan,nan,nan,nan,nan,nan,nan,nan,nan,nan,nan,108.37380829110043,617.6850473034428,nan,617.95676919166,nan,nan,nan,nan
1,327,1,1,1.0,1.0,0.2552392426878214,0.0,8,3,7,6,0,1,nan,nan,nan,nan,nan,nan,nan,nan,nan,nan,nan,nan,0.0,nan,nan,nan,nan,nan,nan,nan,nan,nan,nan,nan,nan,nan,nan,nan,nan,nan,nan,108.37380829110043,618.6935221213498,nan,618.9487613640376,nan,nan,nan,nan
1,328,1,1,1.0,1.0,0.28676963644102216,0.0,2,5,4,3,8,6,nan,nan,nan,nan,nan,nan,nan,nan,nan,nan,nan,nan,0.0,nan,nan,nan,nan,nan,nan,nan,nan,nan,nan,nan,nan,nan,nan,nan,nan,nan,nan,108.37380829110043,619.7019709952874,nan,619.9887406317284,nan,nan,nan,nan
1,329,1,1,1.0,1.0,0.35027118504513055,0.0,3,7,2,1,5,0,nan,nan,nan,nan,nan,nan,nan,nan,nan,nan,nan,nan,0.0,nan,nan,nan,nan,nan,nan,nan,nan,nan,nan,nan,nan,nan,nan,nan,nan,nan,nan,108.37380829110043,620.7104418218369,nan,621.060713006882,nan,nan,nan,nan
1,330,1,1,1.0,1.0,0.27778991032391787,0.0,4,1,6,5,0,8,nan,nan,nan,nan,nan,nan,nan,nan,nan,nan,nan,nan,0.0,nan,nan,nan,nan,nan,nan,nan,nan,nan,nan,nan,nan,nan,nan,nan,nan,nan,nan,108.37380829110043,621.7188952573342,nan,621.9966851676581,nan,nan,nan,nan
1,331,1,1,1.0,1.0,0.23730630450882018,0.0,5,3,1,4,6,2,nan,nan,nan,nan,nan,nan,nan,nan,nan,nan,nan,nan,0.0,nan,nan,nan,nan,nan,nan,nan,nan,nan,nan,nan,nan,nan,nan,nan,nan,nan,nan,108.37380829110043,622.7273760623066,nan,622.9646823668154,nan,nan,nan,nan
1,332,1,1,1.0,1.0,0.38082397828111425,0.0,4,8,7,2,0,3,nan,nan,nan,nan,nan,nan,nan,nan,nan,nan,nan,nan,0.0,nan,nan,nan,nan,nan,nan,nan,nan,nan,nan,nan,nan,nan,nan,nan,nan,nan,nan,108.37380829110043,623.735844608047,nan,624.1166685863282,nan,nan,nan,nan
1,333,1,1,1.0,1.0,0.3083378568990156,0.0,0,5,3,1,6,7,nan,nan,nan,nan,nan,nan,nan,nan,nan,nan,nan,nan,0.0,nan,nan,nan,nan,nan,nan,nan,nan,nan,nan,nan,nan,nan,nan,nan,nan,nan,nan,108.37380829110043,624.7443088772707,nan,625.0526467341697,nan,nan,nan,nan
1,334,0,0,0.0,1.0,0.45215716416714713,1.0,2,4,5,3,0,8,1.0,1.0,1.0,1.0,1.0,1.0,0.0,0.0,0.0,0.0,1.0,1.0,2.0,5.0,2.0,3.0,6.0,0.0,8.0,6.0,5.0,4.0,3.0,2.0,1.0,6.727053616661578,5.72653930017259,4.76736559352139,3.8955412981449626,2.816071420442313,1.6795645872480236,108.37380829110043,625.7444557026611,626.5528559959494,626.1966128668282,634.3455337145715,635.3467168704956,627.5779916454921,634.3371997349896
1,335,1,1,1.0,1.0,0.5544046473223716,0.0,0,3,2,7,8,1,nan,nan,nan,nan,nan,nan,nan,nan,nan,nan,nan,nan,0.0,nan,nan,nan,nan,nan,nan,nan,nan,nan,nan,nan,nan,nan,nan,nan,nan,nan,nan,108.37380829110043,635.5540585385752,nan,636.1084631858976,nan,nan,nan,nan
1,336,1,1,1.0,1.0,0.4422215050435625,0.0,3,0,7,6,2,8,nan,nan,nan,nan,nan,nan,nan,nan,nan,nan,nan,nan,0.0,nan,nan,nan,nan,nan,nan,nan,nan,nan,nan,nan,nan,nan,nan,nan,nan,nan,nan,108.37380829110043,636.5541996620013,nan,636.9964211670449,nan,nan,nan,nan
1,337,1,1,1.0,1.0,0.37775832146871835,0.0,2,3,4,0,5,7,nan,nan,nan,nan,nan,nan,nan,nan,nan,nan,nan,nan,0.0,nan,nan,nan,nan,nan,nan,nan,nan,nan,nan,nan,nan,nan,nan,nan,nan,nan,nan,108.37380829110043,637.562645970087,nan,637.9404042915558,nan,nan,nan,nan
1,338,1,1,1.0,1.0,0.3376042888266966,0.0,3,1,2,8,6,5,nan,nan,nan,nan,nan,nan,nan,nan,nan,nan,nan,nan,0.0,nan,nan,nan,nan,nan,nan,nan,nan,nan,nan,nan,nan,nan,nan,nan,nan,nan,nan,108.37380829110043,638.5627965017338,nan,638.9004007905605,nan,nan,nan,nan
1,339,1,1,1.0,1.0,0.3051219534827396,0.0,7,3,8,5,1,4,nan,nan,nan,nan,nan,nan,nan,nan,nan,nan,nan,nan,0.0,nan,nan,nan,nan,nan,nan,nan,nan,nan,nan,nan,nan,nan,nan,nan,nan,nan,nan,108.37380829110043,639.571254213748,nan,639.8763761672308,nan,nan,nan,nan
1,340,1,1,1.0,1.0,0.3126556634088047,0.0,0,7,6,2,8,5,nan,nan,nan,nan,nan,nan,nan,nan,nan,nan,nan,nan,0.0,nan,nan,nan,nan,nan,nan,nan,nan,nan,nan,nan,nan,nan,nan,nan,nan,nan,nan,108.37380829110043,640.579721619084,nan,640.8923772824928,nan,nan,nan,nan
1,341,1,1,1.0,1.0,0.3364992496208288,0.0,1,8,0,7,4,3,nan,nan,nan,nan,nan,nan,nan,nan,nan,nan,nan,nan,0.0,nan,nan,nan,nan,nan,nan,nan,nan,nan,nan,nan,nan,nan,nan,nan,nan,nan,nan,108.37380829110043,641.5798459217767,nan,641.9163451713976,nan,nan,nan,nan
1,342,1,1,1.0,1.0,0.3443422907148488,0.0,7,4,5,3,0,1,nan,nan,nan,nan,nan,nan,nan,nan,nan,nan,nan,nan,0.0,nan,nan,nan,nan,nan,nan,nan,nan,nan,nan,nan,nan,nan,nan,nan,nan,nan,nan,108.37380829110043,642.5799784922274,nan,642.9243207829422,nan,nan,nan,nan
1,343,1,1,1.0,1.0,0.3518708689371124,0.0,3,7,2,0,6,5,nan,nan,nan,nan,nan,nan,nan,nan,nan,nan,nan,nan,0.0,nan,nan,nan,nan,nan,nan,nan,nan,nan,nan,nan,nan,nan,nan,nan,nan,nan,nan,108.37380829110043,643.5884381999495,nan,643.9403090688866,nan,nan,nan,nan
1,344,1,1,1.0,1.0,0.27970690798247233,0.0,1,8,7,2,4,3,nan,nan,nan,nan,nan,nan,nan,nan,nan,nan,nan,nan,0.0,nan,nan,nan,nan,nan,nan,nan,nan,nan,nan,nan,nan,nan,nan,nan,nan,nan,nan,108.37380829110043,644.5885850253399,nan,644.8682919333223,nan,nan,nan,nan
1,345,0,0,0.0,1.0,0.39955176919465885,1.0,4,3,1,8,6,2,1.0,1.0,1.0,1.0,1.0,1.0,0.0,0.0,1.0,0.0,1.0,1.0,3.0,0.0,5.0,1.0,3.0,6.0,2.0,6.0,5.0,4.0,3.0,2.0,1.0,6.170580299512949,5.362977424811106,4.483257060113829,3.5324683655053377,2.469115352840163,1.5241144291358069,108.37380829110043,645.5887201617006,646.3971278675599,645.9882719308953,653.62307501951,654.6279940973618,647.4139420818537,653.6147384740761
1,346,1,1,1.0,1.0,0.3085268767317757,0.0,2,8,4,5,3,6,nan,nan,nan,nan,nan,nan,nan,nan,nan,nan,nan,nan,0.0,nan,nan,nan,nan,nan,nan,nan,nan,nan,nan,nan,nan,nan,nan,nan,nan,nan,nan,108.37380829110043,654.8316035498283,nan,655.1401304265601,nan,nan,nan,nan
1,347,1,1,1.0,1.0,0.38035214139381424,0.0,5,1,8,3,4,0,nan,nan,nan,nan,nan,nan,nan,nan,nan,nan,nan,nan,0.0,nan,nan,nan,nan,nan,nan,nan,nan,nan,nan,nan,nan,nan,nan,nan,nan,nan,nan,108.37380829110043,655.8317364054383,nan,656.2120885468321,nan,nan,nan,nan
1,348,1,1,1.0,1.0,0.34790145192528144,0.0,4,0,5,8,3,7,nan,nan,nan,nan,nan,nan,nan,nan,nan,nan,nan,nan,0.0,nan,nan,nan,nan,nan,nan,nan,nan,nan,nan,nan,nan,nan,nan,nan,nan,nan,nan,108.37380829110043,656.8401815731195,nan,657.1880830250448,nan,nan,nan,nan
1,349,0,0,0.0,1.0,0.5397107055177912,1.0,8,6,2,0,7,5,1.0,1.0,1.0,1.0,1.0,1.0,0.0,0.0,1.0,1.0,1.0,1.0,4.0,3.0,8.0,2.0,0.0,7.0,5.0,6.0,5.0,4.0,3.0,2.0,1.0,6.174743583018426,5.007038209994789,4.071752849849872,3.207849142199848,2.238913115870673,1.2485710897599347,108.37380829110043,657.8403380918317,658.6487352490658,658.3800487973494,665.8830098233302,666.8893908828031,659.6655420507886,665.8746841116226
1,350,1,1,1.0,1.0,0.5043600010103546,0.0,4,1,3,8,6,7,nan,nan,nan,nan,nan,nan,nan,nan,nan,nan,nan,nan,0.0,nan,nan,nan,nan,nan,nan,nan,nan,nan,nan,nan,nan,nan,nan,nan,nan,nan,nan,108.37380829110043,667.0915377834463,nan,667.5958977844566,nan,nan,nan,nan
1,351,1,1,1.0,1.0,0.3442051586462185,0.0,6,8,7,5,1,0,nan,nan,nan,nan,nan,nan,nan,nan,nan,nan,nan,nan,0.0,nan,nan,nan,nan,nan,nan,nan,nan,nan,nan,nan,nan,nan,nan,nan,nan,nan,nan,108.37380829110043,668.0916623712401,nan,668.4358675298863,nan,nan,nan,nan
1,352,1,1,1.0,1.0,0.25602183619048446,0.0,4,6,2,0,3,8,nan,nan,nan,nan,nan,nan,nan,nan,nan,nan,nan,nan,0.0,nan,nan,nan,nan,nan,nan,nan,nan,nan,nan,nan,nan,nan,nan,nan,nan,nan,nan,108.37380829110043,669.0918374212924,nan,669.3478592574829,nan,nan,nan,nan
1,353,1,1,1.0,1.0,0.31958068953827024,0.0,8,2,7,4,5,1,nan,nan,nan,nan,nan,nan,nan,nan,nan,nan,nan,nan,0.0,nan,nan,nan,nan,nan,nan,nan,nan,nan,nan,nan,nan,nan,nan,nan,nan,nan,nan,108.37380829110043,670.1002583556692,nan,670.4198390452075,nan,nan,nan,nan
1,354,1,1,1.0,1.0,0.3270990042365156,0.0,2,7,4,0,3,8,nan,nan,nan,nan,nan,nan,nan,nan,nan,nan,nan,nan,0.0,nan,nan,nan,nan,nan,nan,nan,nan,nan,nan,nan,nan,nan,nan,nan,nan,nan,nan,108.37380829110043,671.10871521238,nan,671.4358142166166,nan,nan,nan,nan
1,355,1,1,1.0,1.0,0.334940904926043,0.0,6,2,7,3,8,1,nan,nan,nan,nan,nan,nan,nan,nan,nan,nan,nan,nan,0.0,nan,nan,nan,nan,nan,nan,nan,nan,nan,nan,nan,nan,nan,nan,nan,nan,nan,nan,108.37380829110043,672.1088509189431,nan,672.4437918238691,nan,nan,nan,nan
1,356,1,1,1.0,1.0,0.36678718705661595,0.0,1,8,3,7,0,2,nan,nan,nan,nan,nan,nan,nan,nan,nan,nan,nan,nan,0.0,nan,nan,nan,nan,nan,nan,nan,nan,nan,nan,nan,nan,nan,nan,nan,nan,nan,nan,108.37380829110043,673.1089900466613,nan,673.475777233718,nan,nan,nan,nan
1,357,0,0,0.0,1.0,0.36662468122085556,0.0,8,7,5,1,2,0,nan,nan,nan,nan,nan,nan,nan,nan,nan,nan,nan,nan,0.0,nan,nan,nan,nan,nan,nan,nan,nan,nan,nan,nan,nan,nan,nan,nan,nan,nan,nan,108.37380829110043,674.1091340210987,nan,674.4757587023196,nan,nan,nan,nan
1,358,1,1,1.0,1.0,0.3981619172845967,0.0,6,5,3,4,0,1,nan,nan,nan,nan,nan,nan,nan,nan,nan,nan,nan,nan,0.0,nan,nan,nan,nan,nan,nan,nan,nan,nan,nan,nan,nan,nan,nan,nan,nan,nan,nan,108.37380829110043,675.1175925884163,nan,675.5157545057009,nan,nan,nan,nan
1,359,1,1,1.0,1.0,0.30966641270788386,0.0,0,4,1,3,8,5,nan,nan,nan,nan,nan,nan,nan,nan,nan,nan,nan,nan,0.0,nan,nan,nan,nan,nan,nan,nan,nan,nan,nan,nan,nan,nan,nan,nan,nan,nan,nan,108.37380829110043,676.1260688317707,nan,676.4357352444786,nan,nan,nan,nan
1,360,1,1,1.0,1.0,0.3255130050238222,0.0,2,8,5,1,3,4,nan,nan,nan,nan,nan,nan,nan,nan,nan,nan,nan,nan,0.0,nan,nan,nan,nan,nan,nan,nan,nan,nan,nan,nan,nan,nan,nan,nan,nan,nan,nan,108.37380829110043,677.1262033979292,nan,677.451716402953,nan,nan,nan,nan
1,361,1,1,1.0,1.0,0.3413644439424388,0.0,8,4,6,3,0,2,nan,nan,nan,nan,nan,nan,nan,nan,nan,nan,nan,nan,0.0,nan,nan,nan,nan,nan,nan,nan,nan,nan,nan,nan,nan,nan,nan,nan,nan,nan,nan,108.37380829110043,678.126325704914,nan,678.4676901488565,nan,nan,nan,nan
1,362,1,1,1.0,1.0,0.33291186374844983,0.0,5,8,7,4,2,3,nan,nan,nan,nan,nan,nan,nan,nan,nan,nan,nan,nan,0.0,nan,nan,nan,nan,nan,nan,nan,nan,nan,nan,nan,nan,nan,nan,nan,nan,nan,nan,108.37380829110043,679.1347751490539,nan,679.4676870128023,nan,nan,nan,nan
1,363,1,1,1.0,1.0,0.34841263230191544,0.0,2,4,5,6,7,1,nan,nan,nan,nan,nan,nan,nan,nan,nan,nan,nan,nan,0.0,nan,nan,nan,nan,nan,nan,nan,nan,nan,nan,nan,nan,nan,nan,nan,nan,nan,nan,108.37380829110043,680.1432408438413,nan,680.4916534761433,nan,nan,nan,nan
1,364,1,1,1.0,1.0,0.307938719925005,0.0,4,6,2,7,0,5,nan,nan,nan,nan,nan,nan,nan,nan,nan,nan,nan,nan,0.0,nan,nan,nan,nan,nan,nan,nan,nan,nan,nan,nan,nan,nan,nan,nan,nan,nan,nan,108.37380829110043,681.1517034025164,nan,681.4596421224414,nan,nan,nan,nan
1,365,1,1,1.0,1.0,0.33975991344777867,0.0,7,1,0,4,5,8,nan,nan,nan,nan,nan,nan,nan,nan,nan,nan,nan,nan,0.0,nan,nan,nan,nan,nan,nan,nan,nan,nan,nan,nan,nan,nan,nan,nan,nan,nan,nan,108.37380829110043,682.1518556447118,nan,682.4916155581595,nan,nan,nan,nan
1,366,1,1,1.0,1.0,0.36329188774107024,0.0,5,4,6,8,1,3,nan,nan,nan,nan,nan,nan,nan,nan,nan,nan,nan,nan,0.0,nan,nan,nan,nan,nan,nan,nan,nan,nan,nan,nan,nan,nan,nan,nan,nan,nan,nan,108.37380829110043,683.1603142120293,nan,683.5236060997704,nan,nan,nan,nan
1,367,1,1,1.0,1.0,0.3631293819635175,0.0,2,6,5,4,7,0,nan,nan,nan,nan,nan,nan,nan,nan,nan,nan,nan,nan,0.0,nan,nan,nan,nan,nan,nan,nan,nan,nan,nan,nan,nan,nan,nan,nan,nan,nan,nan,108.37380829110043,684.1604539099499,nan,684.5235832919134,nan,nan,nan,nan
1,368,1,1,1.0,1.0,0.33098887890810147,0.0,6,5,4,3,2,1,nan,nan,nan,nan,nan,nan,nan,nan,nan,nan,nan,nan,0.0,nan,nan,nan,nan,nan,nan,nan,nan,nan,nan,nan,nan,nan,nan,nan,nan,nan,nan,108.37380829110043,685.1605944631738,nan,685.4915833420819,nan,nan,nan,nan
1,369,1,1,1.0,1.0,0.3468485857010819,0.0,8,6,1,5,0,7,nan,nan,nan,nan,nan,nan,nan,nan,nan,nan,nan,nan,0.0,nan,nan,nan,nan,nan,nan,nan,nan,nan,nan,nan,nan,nan,nan,nan,nan,nan,nan,108.37380829110043,686.1607096426887,nan,686.5075582283898,nan,nan,nan,nan
1,370,1,1,1.0,1.0,0.37068732525222003,0.0,3,8,7,6,1,5,nan,nan,nan,nan,nan,nan,nan,nan,nan,nan,nan,nan,0.0,nan,nan,nan,nan,nan,nan,nan,nan,nan,nan,nan,nan,nan,nan,nan,nan,nan,nan,108.37380829110043,687.1608464896563,nan,687.5315338149085,nan,nan,nan,nan
1,371,1,1,1.0,1.0,0.33053756901063025,0.0,2,3,8,7,4,1,nan,nan,nan,nan,nan,nan,nan,nan,nan,nan,nan,nan,0.0,nan,nan,nan,nan,nan,nan,nan,nan,nan,nan,nan,nan,nan,nan,nan,nan,nan,nan,108.37380829110043,688.1609804856707,nan,688.4915180546814,nan,nan,nan,nan
1,372,1,1,1.0,1.0,0.3063723925151862,0.0,0,6,4,3,8,7,nan,nan,nan,nan,nan,nan,nan,nan,nan,nan,nan,nan,0.0,nan,nan,nan,nan,nan,nan,nan,nan,nan,nan,nan,nan,nan,nan,nan,nan,nan,nan,108.37380829110043,689.1611216090387,nan,689.4674940015539,nan,nan,nan,nan
1,373,0,0,0.0,1.0,0.4342424722854048,1.0,6,7,3,1,2,5,1.0,1.0,1.0,1.0,1.0,1.0,0.0,0.0,1.0,1.0,1.0,1.0,4.0,8.0,0.0,3.0,1.0,2.0,5.0,6.0,5.0,4.0,3.0,2.0,1.0,8.069111418502871,7.117676121997647,5.709077058476396,4.6944378555053845,3.445071913069114,1.5344363957992755,108.37380829110043,690.1612327971961,690.9696442093118,690.5954752694815,700.0958436158835,701.0996097581228,691.9864575683605,700.0875116320094
1,374,1,1,1.0,1.0,0.6909397052368149,0.0,1,2,8,5,7,6,nan,nan,nan,nan,nan,nan,nan,nan,nan,nan,nan,nan,0.0,nan,nan,nan,nan,nan,nan,nan,nan,nan,nan,nan,nan,nan,nan,nan,nan,nan,nan,108.37380829110043,701.3043590316665,nan,701.9952987369034,nan,nan,nan,nan
1,375,1,1,1.0,1.0,0.4027542730909772,0.0,0,3,5,6,1,7,nan,nan,nan,nan,nan,nan,nan,nan,nan,nan,nan,nan,0.0,nan,nan,nan,nan,nan,nan,nan,nan,nan,nan,nan,nan,nan,nan,nan,nan,nan,nan,108.37380829110043,702.3045050017536,nan,702.7072592748445,nan,nan,nan,nan
1,376,1,1,1.0,1.0,0.25062664499273524,0.0,5,1,7,4,6,8,nan,nan,nan,nan,nan,nan,nan,nan,nan,nan,nan,nan,0.0,nan,nan,nan,nan,nan,nan,nan,nan,nan,nan,nan,nan,nan,nan,nan,nan,nan,nan,108.37380829110043,703.3046136240591,nan,703.5552402690519,nan,nan,nan,nan
1,377,1,1,1.0,1.0,0.21049342449987307,0.0,2,7,0,5,1,4,nan,nan,nan,nan,nan,nan,nan,nan,nan,nan,nan,nan,0.0,nan,nan,nan,nan,nan,nan,nan,nan,nan,nan,nan,nan,nan,nan,nan,nan,nan,nan,108.37380829110043,704.304738781997,nan,704.5152322064969,nan,nan,nan,nan
