block,trial,freq_trials,correct_response,actual_response,acc,rts,probe_trials,fast_rt_trigger,slow_rt_trigger,rt_triggered,rts_runningavg,rts_runningstd,rts_runningfastthresh,rts_runningslowthresh,rts_runningstd,rts_trailingavg,trials_colorind,trials_colorrgb0,trials_colorrgb1,trials_colorrgb2,wm_respdeg,wm_respdeg_in_colorspace,wm_respcolorminusorigcolor,wm_resptexind,wm_resptexrgb0,wm_resptexrgb1,wm_resptexrgb2,wm_rts,time_blockstart,time_encarray_offset,time_encarray_onset,time_response,time_iti_offset,time_iti_onset,time_memprobe_offset,time_memprobe_onset
1,1,1,1,1.0,1.0,0.331218952779,0,nan,nan,nan,nan,nan,nan,nan,nan,nan,282,0.208142307666,0.34807905204,0.609295500931,nan,nan,nan,nan,0.0,0.0,0.0,nan,224.102686249,225.115431262,225.615460627,225.446650214,nan,nan,nan,nan
1,2,1,1,1.0,1.0,0.303391124588,0,nan,nan,nan,nan,nan,nan,nan,nan,nan,181,1.0,-0.123914391386,0.3392011262,nan,nan,nan,nan,0.0,0.0,0.0,nan,224.102686249,226.207281512,226.707280372,226.510672637,nan,nan,nan,nan
1,3,0,0,0.0,1.0,0.35122170113,0,nan,nan,nan,nan,nan,nan,nan,nan,nan,232,0.739158239773,0.150046616059,0.623712016981,nan,nan,nan,nan,0.0,0.0,0.0,nan,224.102686249,227.207410662,227.707425202,227.558632363,nan,nan,nan,nan
1,4,1,1,1.0,1.0,0.311114139855,0,nan,nan,nan,nan,nan,nan,nan,nan,nan,137,1.0,-0.300190217086,-0.0647316600203,nan,nan,nan,nan,0.0,0.0,0.0,nan,224.102686249,228.207497616,228.707519569,228.518611756,nan,nan,nan,nan
1,5,1,1,1.0,1.0,0.302917006891,0,nan,nan,nan,nan,nan,nan,nan,nan,nan,84,1.0,-0.20765784414,-0.652191087791,nan,nan,nan,nan,0.0,0.0,0.0,nan,224.102686249,229.207669246,229.70768407,229.510586252,nan,nan,nan,nan
1,6,1,1,1.0,1.0,0.318833732978,1,nan,nan,nan,nan,nan,nan,nan,nan,nan,441,0.266287261384,0.422891888867,-1.0,156.342003001,293.657996999,-16.4201280012,418.0,0.101175887384,0.455961754156,-0.661679309199,2.20886494592,224.102686249,230.207756485,230.707808088,230.526590218,234.258211102,235.262936314,232.032931079,234.249876553
1,7,1,1,1.0,1.0,0.339743092656,0,nan,nan,nan,nan,nan,nan,nan,nan,nan,198,1.0,-0.0302354974571,0.462326941081,nan,nan,nan,nan,0.0,0.0,0.0,nan,224.102686249,235.466726518,235.966765577,235.806469611,nan,nan,nan,nan
1,8,1,1,1.0,1.0,0.299550571945,0,nan,nan,nan,nan,nan,nan,nan,nan,nan,436,0.228681708805,0.431413732101,-1.0,nan,nan,nan,nan,0.0,0.0,0.0,nan,224.102686249,236.466909266,236.966931789,236.766459838,nan,nan,nan,nan
1,9,1,1,1.0,1.0,0.291427849326,0,nan,nan,nan,nan,nan,nan,nan,nan,nan,358,-0.170583909915,0.474268316859,0.0585874414746,nan,nan,nan,nan,0.0,0.0,0.0,nan,224.102686249,237.467009335,237.967021309,237.758437185,nan,nan,nan,nan
1,10,1,1,1.0,1.0,0.307306658011,0,nan,nan,nan,nan,nan,nan,nan,nan,nan,199,1.0,-0.0246761787097,0.468786302982,nan,nan,nan,nan,0.0,0.0,0.0,nan,224.102686249,238.467134208,238.967159582,238.774440866,nan,nan,nan,nan
1,11,1,1,1.0,1.0,0.315125465859,0,nan,nan,nan,nan,nan,nan,nan,nan,nan,30,1.0,0.071945658744,-1.0,nan,nan,nan,nan,0.0,0.0,0.0,nan,224.102686249,239.467273621,239.967276472,239.782399087,nan,nan,nan,nan
1,12,0,0,0.0,1.0,0.314998026937,0,nan,nan,nan,nan,nan,nan,nan,nan,nan,278,0.248285521772,0.335802812283,0.621962573991,nan,nan,nan,nan,0.0,0.0,0.0,nan,224.102686249,240.467400489,240.967436412,240.782398516,nan,nan,nan,nan
1,13,1,1,1.0,1.0,0.218853347935,0,nan,nan,nan,nan,nan,nan,nan,nan,nan,469,0.489482198204,0.360453357602,-1.0,nan,nan,nan,nan,0.0,0.0,0.0,nan,224.102686249,241.467519375,241.967539332,241.686372723,nan,nan,nan,nan
1,14,1,1,1.0,1.0,0.234677987639,0,nan,nan,nan,nan,nan,nan,nan,nan,nan,419,0.107894673663,0.454841969249,-0.678098861371,nan,nan,nan,nan,0.0,0.0,0.0,nan,224.102686249,242.467659643,242.967659073,242.702337631,nan,nan,nan,nan
1,15,1,1,0.0,0.0,0.378605632111,0,0.0,0.0,0.0,nan,nan,nan,nan,nan,nan,112,1.0,-0.300501516081,-0.325324861792,nan,nan,nan,nan,0.0,0.0,0.0,nan,224.102686249,243.467748879,243.967789648,243.846354511,nan,nan,nan,nan
1,16,1,1,1.0,1.0,0.274453980383,0,nan,nan,nan,nan,nan,nan,nan,nan,nan,393,-0.0489456633786,0.475102171109,-0.327443230616,nan,nan,nan,nan,0.0,0.0,0.0,nan,224.102686249,244.467873467,244.967907963,244.742327447,nan,nan,nan,nan
1,17,1,1,1.0,1.0,0.434275543783,0,nan,nan,nan,nan,nan,nan,nan,nan,nan,47,1.0,-0.0170755915744,-1.0,nan,nan,nan,nan,0.0,0.0,0.0,nan,224.102686249,245.468023998,245.968053934,245.902299542,nan,nan,nan,nan
1,18,1,1,1.0,1.0,0.314135321416,0,nan,nan,nan,nan,nan,nan,nan,nan,nan,478,0.56422249903,0.334793662244,-1.0,nan,nan,nan,nan,0.0,0.0,0.0,nan,224.102686249,246.468155713,246.968208171,246.782291035,nan,nan,nan,nan
1,19,1,1,1.0,1.0,0.249984889757,0,nan,nan,nan,nan,nan,nan,nan,nan,nan,393,-0.0489456633786,0.475102171109,-0.327443230616,nan,nan,nan,nan,0.0,0.0,0.0,nan,224.102686249,247.468291705,247.968297407,247.718276595,nan,nan,nan,nan
1,20,1,1,1.0,1.0,0.257902626414,0,nan,nan,nan,nan,nan,nan,nan,nan,nan,14,0.95801504718,0.150023555696,-1.0,nan,nan,nan,nan,0.0,0.0,0.0,nan,224.102686249,248.468418289,248.968458202,248.726320915,nan,nan,nan,nan
1,21,1,1,1.0,1.0,0.26573454868,0,nan,nan,nan,nan,nan,nan,nan,nan,nan,62,1.0,-0.0974372467467,-1.0,nan,nan,nan,nan,0.0,0.0,0.0,nan,224.102686249,249.468535179,249.968549434,249.734269727,nan,nan,nan,nan
1,22,1,1,1.0,1.0,0.273627767339,0,nan,nan,nan,nan,nan,nan,nan,nan,nan,326,-0.12383419111,0.444071765824,0.352223541474,nan,nan,nan,nan,0.0,0.0,0.0,nan,224.102686249,250.468663473,250.96871308,250.74229124,nan,nan,nan,nan
1,23,1,1,1.0,1.0,0.289447559975,0,nan,nan,nan,nan,nan,nan,nan,nan,nan,180,1.0,-0.129278616986,0.331238955499,nan,nan,nan,nan,0.0,0.0,0.0,nan,224.102686249,251.468770099,251.96882997,251.758217659,nan,nan,nan,nan
1,24,1,1,1.0,1.0,0.273326418828,0,nan,nan,nan,nan,nan,nan,nan,nan,nan,468,0.481236483515,0.363131620867,-1.0,nan,nan,nan,nan,0.0,0.0,0.0,nan,224.102686249,252.46891664,252.968963966,252.742243059,nan,nan,nan,nan
1,25,1,1,1.0,1.0,0.241130606737,0,nan,nan,nan,nan,nan,nan,nan,nan,nan,117,1.0,-0.307587969795,-0.271886539361,nan,nan,nan,nan,0.0,0.0,0.0,nan,224.102686249,253.469057763,253.969084847,253.71018837,nan,nan,nan,nan
1,26,0,0,1.0,0.0,0.208989533596,0,0.0,0.0,0.0,nan,nan,nan,nan,nan,nan,223,0.83172397378,0.104890589731,0.593432239612,nan,nan,nan,nan,0.0,0.0,0.0,nan,224.102686249,254.469169806,254.969220839,254.67815934,nan,nan,nan,nan
1,27,1,1,1.0,1.0,0.152872303966,0,nan,nan,nan,nan,nan,nan,nan,nan,nan,408,0.036737934283,0.465637664749,-0.515938449969,nan,nan,nan,nan,0.0,0.0,0.0,nan,224.102686249,255.469278999,255.969335163,255.622151303,nan,nan,nan,nan
1,28,1,1,1.0,1.0,0.256675280631,0,nan,nan,nan,nan,nan,nan,nan,nan,nan,69,1.0,-0.134207199312,-0.939648005704,nan,nan,nan,nan,0.0,0.0,0.0,nan,224.102686249,256.469445496,256.969473436,256.726120776,nan,nan,nan,nan
1,29,1,1,1.0,1.0,0.248521768022,0,nan,nan,nan,nan,nan,nan,nan,nan,nan,325,-0.119404900653,0.442631039184,0.360186421743,nan,nan,nan,nan,0.0,0.0,0.0,nan,224.102686249,257.469564097,257.969568943,257.718085865,nan,nan,nan,nan
1,30,1,1,1.0,1.0,0.272382459603,0,nan,nan,nan,nan,nan,nan,nan,nan,nan,221,0.851781464038,0.0945411604707,0.585422935822,nan,nan,nan,nan,0.0,0.0,0.0,nan,224.102686249,258.46968897,258.969695527,258.742071429,nan,nan,nan,nan
1,31,1,1,1.0,1.0,0.280232057907,0,nan,nan,nan,nan,nan,nan,nan,nan,nan,142,1.0,-0.289568116499,-0.0146273521697,nan,nan,nan,nan,0.0,0.0,0.0,nan,224.102686249,259.469819259,259.969854611,259.750051317,nan,nan,nan,nan
1,32,1,1,1.0,1.0,0.2321500252,0,nan,nan,nan,nan,nan,nan,nan,nan,nan,56,1.0,-0.0653675053377,-1.0,nan,nan,nan,nan,0.0,0.0,0.0,nan,224.102686249,260.469948409,260.969960383,260.702098434,nan,nan,nan,nan
1,33,1,1,1.0,1.0,0.287977025378,0,nan,nan,nan,nan,nan,nan,nan,nan,nan,293,0.103830259013,0.378659598285,0.564617056734,nan,nan,nan,nan,0.0,0.0,0.0,nan,224.102686249,261.470051614,261.970100936,261.758028639,nan,nan,nan,nan
1,34,0,0,0.0,1.0,0.327803765889,0,nan,nan,nan,nan,nan,nan,nan,nan,nan,412,0.0618891196837,0.462096609288,-0.571158935758,nan,nan,nan,nan,0.0,0.0,0.0,nan,224.102686249,262.470206992,262.970237498,262.798010758,nan,nan,nan,nan
1,35,1,1,1.0,1.0,0.199709028937,0,nan,nan,nan,nan,nan,nan,nan,nan,nan,185,1.0,-0.102214474652,0.370299946716,nan,nan,nan,nan,0.0,0.0,0.0,nan,224.102686249,263.470303926,263.97036066,263.670012955,nan,nan,nan,nan
1,36,1,1,1.0,1.0,0.21553680487,0,nan,nan,nan,nan,nan,nan,nan,nan,nan,326,-0.12383419111,0.444071765824,0.352223541474,nan,nan,nan,nan,0.0,0.0,0.0,nan,224.102686249,264.470449611,264.970514328,264.685986415,nan,nan,nan,nan
1,37,1,1,1.0,1.0,0.223393531051,0,nan,nan,nan,nan,nan,nan,nan,nan,nan,43,1.0,0.00424534395127,-1.0,nan,nan,nan,nan,0.0,0.0,0.0,nan,224.102686249,265.47057933,265.970615252,265.693972861,nan,nan,nan,nan
1,38,1,1,1.0,1.0,0.239241548348,0,nan,nan,nan,nan,nan,nan,nan,nan,nan,441,0.266287261384,0.422891888867,-1.0,nan,nan,nan,nan,0.0,0.0,0.0,nan,224.102686249,266.470701922,266.970741836,266.709943471,nan,nan,nan,nan
1,39,1,1,1.0,1.0,0.271104081534,0,nan,nan,nan,nan,nan,nan,nan,nan,nan,268,0.35230222188,0.302367520405,0.645005310408,nan,nan,nan,nan,0.0,0.0,0.0,nan,224.102686249,267.470825654,267.970873836,267.741929736,nan,nan,nan,nan
1,40,1,1,1.0,1.0,0.254955570213,0,nan,nan,nan,nan,nan,nan,nan,nan,nan,33,1.0,0.0565990290419,-1.0,nan,nan,nan,nan,0.0,0.0,0.0,nan,224.102686249,268.470954519,268.97097362,268.725910089,nan,nan,nan,nan
1,41,0,0,1.0,0.0,0.262789488304,0,0.0,0.0,0.0,nan,nan,nan,nan,nan,nan,143,1.0,-0.287057525782,-0.00469998909502,nan,nan,nan,nan,0.0,0.0,0.0,nan,224.102686249,269.471101629,269.971127003,269.733891117,nan,nan,nan,nan
1,42,1,1,1.0,1.0,0.190677415114,0,nan,nan,nan,nan,nan,nan,nan,nan,nan,4,0.879126049628,0.195014037372,-1.0,nan,nan,nan,nan,0.0,0.0,0.0,nan,224.102686249,270.471212247,270.971257008,270.661889663,nan,nan,nan,nan
1,43,1,1,1.0,1.0,0.230531809852,1,nan,nan,nan,nan,nan,nan,nan,nan,nan,174,1.0,-0.160790688716,0.281981279739,-36.5137117756,126.513711776,4.16996177555,180.0,1.0,-0.129278616986,0.331238955499,1.87545615667,224.102686249,271.471334269,271.971393284,271.701866079,275.188456218,276.196677584,273.296518556,275.180093728
1,44,1,1,1.0,1.0,0.376830612775,0,nan,nan,nan,nan,nan,nan,nan,nan,nan,427,0.163265173604,0.444863218481,-0.840208708629,nan,nan,nan,nan,0.0,0.0,0.0,nan,224.102686249,276.39694626,276.89699045,276.773776873,nan,nan,nan,nan
1,45,1,1,1.0,1.0,0.29664342897,0,nan,nan,nan,nan,nan,nan,nan,nan,nan,228,0.780729811514,0.1302769546,0.611433142569,nan,nan,nan,nan,0.0,0.0,0.0,nan,224.102686249,277.397098788,277.897141267,277.693742217,nan,nan,nan,nan
1,46,0,0,0.0,1.0,0.336496683769,0,nan,nan,nan,nan,nan,nan,nan,nan,nan,124,1.0,-0.311577186586,-0.198226518473,nan,nan,nan,nan,0.0,0.0,0.0,nan,224.102686249,278.397231643,278.897261293,278.733728327,nan,nan,nan,nan
1,47,1,1,1.0,1.0,0.240360842552,0,nan,nan,nan,nan,nan,nan,nan,nan,nan,376,-0.124962824795,0.478704673615,-0.132627625282,nan,nan,nan,nan,0.0,0.0,0.0,nan,224.102686249,279.397348818,279.897373337,279.637709661,nan,nan,nan,nan
1,48,1,1,1.0,1.0,0.248217568267,0,nan,nan,nan,nan,nan,nan,nan,nan,nan,5,0.88714030954,0.190659852496,-1.0,nan,nan,nan,nan,0.0,0.0,0.0,nan,224.102686249,280.39748538,280.897495073,280.645702948,nan,nan,nan,nan
1,49,1,1,1.0,1.0,0.304090469144,0,nan,nan,nan,nan,nan,nan,nan,nan,nan,450,0.335949728395,0.405598329481,-1.0,nan,nan,nan,nan,0.0,0.0,0.0,nan,224.102686249,281.397592862,281.897608257,281.701683331,nan,nan,nan,nan
1,50,1,1,1.0,1.0,0.319955023006,0,nan,nan,nan,nan,nan,nan,nan,nan,nan,142,1.0,-0.289568116499,-0.0146273521697,nan,nan,nan,nan,0.0,0.0,0.0,nan,224.102686249,282.397705761,282.897738832,282.717660784,nan,nan,nan,nan
1,51,1,1,1.0,1.0,0.503786669578,0,nan,nan,nan,nan,nan,nan,nan,nan,nan,88,1.0,-0.225257592204,-0.599932847766,nan,nan,nan,nan,0.0,0.0,0.0,nan,224.102686249,283.397843748,283.897910461,283.901630417,nan,nan,nan,nan
1,52,1,1,1.0,1.0,0.431639528833,0,nan,nan,nan,nan,nan,nan,nan,nan,nan,387,-0.0787219327085,0.477231755363,-0.256974454483,nan,nan,nan,nan,0.0,0.0,0.0,nan,224.102686249,284.397970902,284.89799599,284.829610431,nan,nan,nan,nan
1,53,1,1,1.0,1.0,0.447516342159,0,nan,nan,nan,nan,nan,nan,nan,nan,nan,113,1.0,-0.302191989669,-0.314576349441,nan,nan,nan,nan,0.0,0.0,0.0,nan,224.102686249,285.39808323,285.898122289,285.845599572,nan,nan,nan,nan
1,54,1,1,1.0,1.0,0.359351550695,0,nan,nan,nan,nan,nan,nan,nan,nan,nan,386,-0.0833946583454,0.477495592553,-0.245424736514,nan,nan,nan,nan,0.0,0.0,0.0,nan,224.102686249,286.398233762,286.898280233,286.757585313,nan,nan,nan,nan
1,55,1,1,1.0,1.0,0.391213512979,0,nan,nan,nan,nan,nan,nan,nan,nan,nan,288,0.150005133015,0.365331945294,0.586687239957,nan,nan,nan,nan,0.0,0.0,0.0,nan,224.102686249,287.398351222,287.898382013,287.789564735,nan,nan,nan,nan
1,56,1,1,1.0,1.0,0.311095037963,0,nan,nan,nan,nan,nan,nan,nan,nan,nan,12,0.942476689623,0.159273951266,-1.0,nan,nan,nan,nan,0.0,0.0,0.0,nan,224.102686249,288.398494056,288.898511162,288.709589094,nan,nan,nan,nan
1,57,1,1,1.0,1.0,0.28696863493,0,nan,nan,nan,nan,nan,nan,nan,nan,nan,436,0.228681708805,0.431413732101,-1.0,nan,nan,nan,nan,0.0,0.0,0.0,nan,224.102686249,289.398604389,289.898646869,289.685573024,nan,nan,nan,nan
1,58,1,1,1.0,1.0,0.246818593238,0,nan,nan,nan,nan,nan,nan,nan,nan,nan,86,1.0,-0.21659106269,-0.625617802914,nan,nan,nan,nan,0.0,0.0,0.0,nan,224.102686249,290.398742091,290.898762903,290.645560685,nan,nan,nan,nan
1,59,1,1,1.0,1.0,0.550625960808,1,nan,nan,nan,nan,nan,nan,nan,nan,nan,186,1.0,-0.0967386681424,0.377881386018,-47.489552922,137.489552922,6.708302922,196.0,1.0,-0.0413610816081,0.449130757868,1.47541658534,224.102686249,291.398865539,291.898933107,291.949491499,294.724239701,295.727503216,293.232391218,294.715905151
1,60,1,1,nan,nan,nan,0,nan,nan,nan,nan,nan,nan,nan,nan,nan,415,0.0813077335083,0.459153678902,-0.614968023274,nan,nan,nan,nan,0.0,0.0,0.0,nan,224.102686249,295.924423418,296.424508377,nan,nan,nan,nan,nan
1,61,1,1,1.0,1.0,0.408841966651,0,nan,nan,nan,nan,nan,nan,nan,nan,nan,336,-0.158211608236,0.456758111158,0.268135266647,nan,nan,nan,nan,0.0,0.0,0.0,nan,224.102686249,296.924568818,297.424623557,297.333410785,nan,nan,nan,nan
1,62,0,0,0.0,1.0,0.440719039645,0,nan,nan,nan,nan,nan,nan,nan,nan,nan,157,1.0,-0.240048375319,0.130425901556,nan,nan,nan,nan,0.0,0.0,0.0,nan,224.102686249,297.924674874,298.424746149,298.365393914,nan,nan,nan,nan
1,63,1,1,1.0,1.0,0.352550541982,0,nan,nan,nan,nan,nan,nan,nan,nan,nan,211,0.948675772315,0.0413606888024,0.538689155053,nan,nan,nan,nan,0.0,0.0,0.0,nan,224.102686249,298.924825976,299.424869596,299.277376518,nan,nan,nan,nan
1,64,1,1,1.0,1.0,0.336380648892,0,nan,nan,nan,nan,nan,nan,nan,nan,nan,96,1.0,-0.25681952169,-0.503302481145,nan,nan,nan,nan,0.0,0.0,0.0,nan,224.102686249,299.924974227,300.424997035,300.261354876,nan,nan,nan,nan
1,65,0,0,0.0,1.0,0.400265084114,0,nan,nan,nan,nan,nan,nan,nan,nan,nan,400,-0.0107874812989,0.471427301814,-0.412692688905,nan,nan,nan,nan,0.0,0.0,0.0,nan,224.102686249,300.92507116,301.42513046,301.325336244,nan,nan,nan,nan
1,66,1,1,1.0,1.0,0.264097802341,0,nan,nan,nan,nan,nan,nan,nan,nan,nan,172,1.0,-0.170984061773,0.265024678188,nan,nan,nan,nan,0.0,0.0,0.0,nan,224.102686249,301.925205156,302.425233666,302.189302959,nan,nan,nan,nan
1,67,1,1,1.0,1.0,0.311958884355,0,nan,nan,nan,nan,nan,nan,nan,nan,nan,354,-0.174470673547,0.472100788149,0.0988677247603,nan,nan,nan,nan,0.0,0.0,0.0,nan,224.102686249,302.925330314,303.425354547,303.237289199,nan,nan,nan,nan
1,68,1,1,1.0,1.0,0.343812008854,0,nan,nan,nan,nan,nan,nan,nan,nan,nan,61,1.0,-0.0921163965413,-1.0,nan,nan,nan,nan,0.0,0.0,0.0,nan,224.102686249,303.925451766,304.425477995,304.269263775,nan,nan,nan,nan
1,69,1,1,1.0,1.0,0.287665128708,0,nan,nan,nan,nan,nan,nan,nan,nan,nan,417,0.0945046041228,0.457053563907,-0.645720198395,nan,nan,nan,nan,0.0,0.0,0.0,nan,224.102686249,304.925577209,305.425643066,305.213242338,nan,nan,nan,nan
1,70,1,1,1.0,1.0,0.27954440238,0,nan,nan,nan,nan,nan,nan,nan,nan,nan,147,1.0,-0.275801134503,0.0346720467303,nan,nan,nan,nan,0.0,0.0,0.0,nan,224.102686249,305.925700371,306.42576908,306.205244774,nan,nan,nan,nan
1,71,0,0,1.0,0.0,0.239384097513,0,0.0,0.0,0.0,nan,nan,nan,nan,nan,nan,20,1.0,0.121558187834,-1.0,nan,nan,nan,nan,0.0,0.0,0.0,nan,224.102686249,306.925855749,307.425892242,307.165239847,nan,nan,nan,nan
1,72,1,1,1.0,1.0,0.0712311207317,0,nan,nan,nan,nan,nan,nan,nan,nan,nan,161,1.0,-0.223158351501,0.167490545043,nan,nan,nan,nan,0.0,0.0,0.0,nan,224.102686249,307.925964372,308.426000294,307.997195492,nan,nan,nan,nan
1,73,1,1,1.0,1.0,0.527089710347,0,nan,nan,nan,nan,nan,nan,nan,nan,nan,381,-0.105403061426,0.478425078289,-0.188431136224,nan,nan,nan,nan,0.0,0.0,0.0,nan,224.102686249,308.926088104,309.426167931,309.453177814,nan,nan,nan,nan
1,74,1,1,1.0,1.0,0.398969029076,0,nan,nan,nan,nan,nan,nan,nan,nan,nan,30,1.0,0.071945658744,-1.0,nan,nan,nan,nan,0.0,0.0,0.0,nan,224.102686249,309.926206135,310.426238636,310.325175164,nan,nan,nan,nan
1,75,1,1,1.0,1.0,0.318787262309,0,nan,nan,nan,nan,nan,nan,nan,nan,nan,350,-0.175756816429,0.469490941964,0.138247479403,nan,nan,nan,nan,0.0,0.0,0.0,nan,224.102686249,310.926356381,311.426400001,311.245143644,nan,nan,nan,nan
1,76,1,1,1.0,1.0,0.286653601564,0,nan,nan,nan,nan,nan,nan,nan,nan,nan,202,1.0,-0.00802826454356,0.487596984314,nan,nan,nan,nan,0.0,0.0,0.0,nan,224.102686249,311.926492943,312.426510619,312.213146545,nan,nan,nan,nan
1,77,1,1,1.0,1.0,0.230509287678,0,nan,nan,nan,nan,nan,nan,nan,nan,nan,10,0.926811495151,0.168400576072,-1.0,nan,nan,nan,nan,0.0,0.0,0.0,nan,224.102686249,312.926618671,313.426627224,313.157127959,nan,nan,nan,nan
1,78,1,1,1.0,1.0,0.190463021398,0,nan,nan,nan,nan,nan,nan,nan,nan,nan,55,1.0,-0.0599996532909,-1.0,nan,nan,nan,nan,0.0,0.0,0.0,nan,224.102686249,313.926717315,314.42677519,314.117180337,nan,nan,nan,nan
1,79,1,1,1.0,1.0,0.158276332542,0,nan,nan,nan,nan,nan,nan,nan,nan,nan,471,0.506014005179,0.354993781952,-1.0,nan,nan,nan,nan,0.0,0.0,0.0,nan,224.102686249,314.926863,315.426915458,315.085139333,nan,nan,nan,nan
1,80,1,1,1.0,1.0,0.21408309089,0,nan,nan,nan,nan,nan,nan,nan,nan,nan,386,-0.0833946583454,0.477495592553,-0.245424736514,nan,nan,nan,nan,0.0,0.0,0.0,nan,224.102686249,315.926988443,316.427010396,316.141071534,nan,nan,nan,nan
1,81,1,1,1.0,1.0,0.293935855385,0,0.0,0.0,0.0,0.298246083215,0.0815570002153,0.216689083,0.379803083431,0.0815570002153,0.222098426272,19,0.99625917486,0.126374530333,-1.0,nan,nan,nan,nan,0.0,0.0,0.0,nan,224.102686249,316.927108469,317.427142681,317.221044325,nan,nan,nan,nan
1,82,1,1,1.0,1.0,0.253825442865,0,0.0,0.0,0.0,0.298192205367,0.0810470807836,0.217145124584,0.379239286151,0.0810470807836,0.253948129714,190,1.0,-0.0746884387243,0.407399635172,nan,nan,nan,nan,0.0,0.0,0.0,nan,224.102686249,317.927222793,318.427270405,318.181048236,nan,nan,nan,nan
1,83,1,1,1.0,1.0,0.205692376941,0,0.0,0.0,0.0,0.297644467559,0.0806940917984,0.21695037576,0.378338559357,0.0806940917984,0.251151225064,84,1.0,-0.20765784414,-0.652191087791,nan,nan,nan,nan,0.0,0.0,0.0,nan,224.102686249,318.927375891,319.427419226,319.133068268,nan,nan,nan,nan
1,84,1,1,1.0,1.0,0.173494569492,0,1.0,0.0,0.0,0.2965231006,0.0808330504337,0.215690050166,0.377356151034,0.0808330504337,0.211004129766,312,-0.0464483572634,0.420925197877,0.455573212045,nan,nan,nan,nan,0.0,0.0,0.0,nan,224.102686249,319.927504185,320.427556073,320.100998755,nan,nan,nan,nan
1,85,1,1,1.0,1.0,0.149401237722,1,0.0,0.0,1.0,0.295040829141,0.0814581114368,0.213582717704,0.376498940578,0.0814581114368,0.176196061385,80,1.0,-0.189075709245,-0.708965549488,45.0,45.0,-11.25,64.0,1.0,-0.108036866323,-1.0,1.4171103742,224.102686249,320.927629913,321.427686648,321.077031151,324.19468532,325.195418877,322.761172983,324.186356187
1,86,1,1,1.0,1.0,0.290049402043,0,0.0,0.0,0.0,0.293307024481,0.0824980927089,0.210808931772,0.37580511719,0.0824980927089,0.204315069752,438,0.243622561222,0.428096439079,-1.0,nan,nan,nan,nan,0.0,0.0,0.0,nan,224.102686249,325.394842808,325.894898403,325.68489221,nan,nan,nan,nan
1,87,1,1,1.0,1.0,0.281873651315,0,0.0,0.0,0.0,0.293268699511,0.0820121262559,0.211256573255,0.375280825767,0.0820121262559,0.24044143036,235,0.707591924495,0.164537776567,0.631659631194,nan,nan,nan,nan,0.0,0.0,0.0,nan,224.102686249,326.394991344,326.895013867,326.676864996,nan,nan,nan,nan
1,88,1,1,1.0,1.0,0.289731517434,0,0.0,0.0,0.0,0.293136198951,0.0815430682166,0.211593130734,0.374679267167,0.0815430682166,0.287218190264,35,1.0,0.0462653595507,-1.0,nan,nan,nan,nan,0.0,0.0,0.0,nan,224.102686249,327.395099967,327.895137314,327.684831484,nan,nan,nan,nan
1,89,1,1,1.0,1.0,0.209623306058,0,0.0,0.0,0.0,0.29309706468,0.0810738877131,0.212023176967,0.374170952394,0.0810738877131,0.260409491602,320,-0.0946500390753,0.43494401576,0.398701238857,nan,nan,nan,nan,0.0,0.0,0.0,nan,224.102686249,328.395254774,328.895263042,328.604878081,nan,nan,nan,nan
1,90,1,1,1.0,1.0,0.233482572716,0,0.0,0.0,0.0,0.292148499242,0.0810960104705,0.211052488771,0.373244509712,0.0810960104705,0.244279132069,55,1.0,-0.0599996532909,-1.0,nan,nan,nan,nan,0.0,0.0,0.0,nan,224.102686249,329.395353133,329.895405876,329.628835706,nan,nan,nan,nan
1,91,1,1,1.0,1.0,0.217285309918,0,0.0,0.0,0.0,0.291489331528,0.0808758624775,0.21061346905,0.372365194005,0.0808758624775,0.220130396231,433,0.206536295144,0.436163724167,-1.0,nan,nan,nan,nan,0.0,0.0,0.0,nan,224.102686249,330.395516494,330.895523907,330.612801804,nan,nan,nan,nan
1,92,1,1,1.0,1.0,0.201181559358,0,0.0,0.0,0.0,0.290664842399,0.080800550955,0.209864291444,0.371465393354,0.080800550955,0.217316480664,373,-0.135407706169,0.478559568072,-0.0996974893599,nan,nan,nan,nan,0.0,0.0,0.0,nan,224.102686249,331.395612002,331.89566218,331.596793562,nan,nan,nan,nan
1,93,1,1,1.0,1.0,0.217019883916,0,0.0,0.0,0.0,0.289681509618,0.0808950533821,0.208786456236,0.370576563,0.0808950533821,0.211828917731,163,1.0,-0.214247802105,0.185723682048,nan,nan,nan,nan,0.0,0.0,0.0,nan,224.102686249,332.395760538,332.895778214,332.612780422,nan,nan,nan,nan
1,94,1,1,1.0,1.0,0.216855097096,0,0.0,0.0,0.0,0.288891709339,0.0808062095986,0.20808549974,0.369697918937,0.0808062095986,0.211685513457,40,1.0,0.0201165467467,-1.0,nan,nan,nan,nan,0.0,0.0,0.0,nan,224.102686249,333.395893394,333.895905368,333.612748491,nan,nan,nan,nan
1,95,1,1,1.0,1.0,0.216781542171,0,0.0,0.0,0.0,0.28811712211,0.0807132637403,0.20740385837,0.368830385851,0.0807132637403,0.216885507728,84,1.0,-0.20765784414,-0.652191087791,nan,nan,nan,nan,0.0,0.0,0.0,nan,224.102686249,334.396020832,334.896052478,334.612802375,nan,nan,nan,nan
1,96,0,0,1.0,0.0,0.192584149074,0,0.0,0.0,0.0,0.287358232962,0.0806156699647,0.206742562997,0.367973902927,0.0806156699647,0.20874026278,243,0.622151010882,0.20168048164,0.647463484622,nan,nan,nan,nan,0.0,0.0,0.0,nan,224.102686249,335.396151693,335.8961879,335.588735842,nan,nan,nan,nan
1,97,1,1,1.0,1.0,0.160439654719,0,0.0,0.0,0.0,0.286360611026,0.0807714700279,0.205589140998,0.367132081054,0.0807714700279,0.189935115321,129,1.0,-0.310070485259,-0.146368003411,nan,nan,nan,nan,0.0,0.0,0.0,nan,224.102686249,336.396265447,336.896312488,336.556705101,nan,nan,nan,nan
1,98,1,1,1.0,1.0,0.232315381989,0,0.0,0.0,0.0,0.285048934398,0.0813604252729,0.203688509125,0.366409359671,0.0813604252729,0.195113061927,253,0.513865899396,0.244839928328,0.655977188727,nan,nan,nan,nan,0.0,0.0,0.0,nan,224.102686249,337.396394881,337.896437645,337.628710263,nan,nan,nan,nan
1,99,1,1,1.0,1.0,0.200209660921,0,1.0,0.0,0.0,0.284505289528,0.0811150363018,0.203390253226,0.36562032583,0.0811150363018,0.19765489921,358,-0.170583909915,0.474268316859,0.0585874414746,nan,nan,nan,nan,0.0,0.0,0.0,nan,224.102686249,338.396501222,338.896572497,338.596710883,nan,nan,nan,nan
1,100,1,1,1.0,1.0,0.200003250036,1,0.0,0.0,1.0,0.283645130052,0.0811435619562,0.202501568096,0.364788692009,0.0811435619562,0.210842764316,471,0.506014005179,0.354993781952,-1.0,136.441099292,313.558900708,-17.6129742921,446.0,0.304696255059,0.41359904426,-1.0,1.30871874746,224.102686249,339.39665318,339.896701646,339.59665643,342.555352882,343.556328487,341.230173727,342.547021469
1,101,1,1,1.0,1.0,0.257062728517,0,0.0,0.0,0.0,0.282800262578,0.0811647848197,0.201635477758,0.363965047397,0.0811647848197,0.219091879825,150,1.0,-0.266152531622,0.0638227105866,nan,nan,nan,nan,0.0,0.0,0.0,nan,224.102686249,343.75552263,344.255571382,344.012585358,nan,nan,nan,nan
1,102,0,0,0.0,1.0,0.336862464435,0,0.0,0.0,0.0,0.282542887237,0.0807985336279,0.201744353609,0.363341420865,0.0807985336279,0.26464281433,37,1.0,0.0358565504353,-1.0,nan,nan,nan,nan,0.0,0.0,0.0,nan,224.102686249,344.755681144,345.255707088,345.092543609,nan,nan,nan,nan
1,103,1,1,1.0,1.0,0.392738216557,0,0.0,0.0,0.0,0.283080704833,0.0805772310225,0.20250347381,0.363657935855,0.0805772310225,0.32888780317,385,-0.0879796604702,0.477733444059,-0.233926720364,nan,nan,nan,nan,0.0,0.0,0.0,nan,224.102686249,345.755791192,346.255836808,346.148529408,nan,nan,nan,nan
1,104,1,1,1.0,1.0,0.328582082875,0,0.0,0.0,0.0,0.284155778477,0.0809059358241,0.203249842653,0.365061714301,0.0809059358241,0.352727587956,60,1.0,-0.0867837676833,-1.0,nan,nan,nan,nan,0.0,0.0,0.0,nan,224.102686249,346.755931745,347.255934881,347.084513828,nan,nan,nan,nan
1,105,0,0,0.0,1.0,0.432394183241,0,0.0,0.0,0.0,0.284587101821,0.0806299903539,0.203957111467,0.365217092175,0.0806299903539,0.384571494224,310,-0.032854544558,0.417080732083,0.468828018046,nan,nan,nan,nan,0.0,0.0,0.0,nan,224.102686249,347.756103659,348.256097387,348.188497842,nan,nan,nan,nan
1,106,1,1,1.0,1.0,0.248315071687,0,0.0,0.0,0.0,0.286008323758,0.0815274839886,0.204480839769,0.367535807746,0.0815274839886,0.336430445934,458,0.399688045963,0.388050214986,-1.0,nan,nan,nan,nan,0.0,0.0,0.0,nan,224.102686249,348.756173793,349.256215417,349.004488865,nan,nan,nan,nan
1,107,0,0,1.0,0.0,0.272156091873,0,0.0,0.0,0.0,0.285649340405,0.0812208768104,0.204428463594,0.366870217215,0.0812208768104,0.317621782267,218,0.881467392804,0.0788246127756,0.572559633417,nan,nan,nan,nan,0.0,0.0,0.0,nan,224.102686249,349.756318908,350.256351124,350.028475,nan,nan,nan,nan
1,108,1,1,1.0,1.0,0.144025718328,0,0.0,0.0,0.0,0.285522045607,0.0808473746829,0.204674670924,0.36636942029,0.0808473746829,0.221498960629,458,0.399688045963,0.388050214986,-1.0,nan,nan,nan,nan,0.0,0.0,0.0,nan,224.102686249,350.756425249,351.256481414,350.900450968,nan,nan,nan,nan
1,109,1,1,1.0,1.0,0.287871539593,0,0.0,0.0,0.0,0.284199650025,0.0816123549714,0.202587295054,0.365812004997,0.0816123549714,0.234684449931,412,0.0618891196837,0.462096609288,-0.571158935758,nan,nan,nan,nan,0.0,0.0,0.0,nan,224.102686249,351.756555824,352.256568084,352.044427364,nan,nan,nan,nan
1,110,1,1,1.0,1.0,0.359735007398,0,0.0,0.0,0.0,0.284233649003,0.0812344025894,0.202999246413,0.365468051592,0.0812344025894,0.263877421773,66,1.0,-0.118568705386,-1.0,nan,nan,nan,nan,0.0,0.0,0.0,nan,224.102686249,352.756685829,353.256738572,353.116420836,nan,nan,nan,nan
1,111,1,1,1.0,1.0,0.255561688449,0,0.0,0.0,0.0,0.284926322015,0.0811806909231,0.203745631092,0.366107012938,0.0811806909231,0.30105607848,111,1.0,-0.298677811705,-0.336106236365,nan,nan,nan,nan,0.0,0.0,0.0,nan,224.102686249,353.756820965,354.25684919,354.012382654,nan,nan,nan,nan
1,112,1,1,1.0,1.0,0.31945752725,0,0.0,0.0,0.0,0.284659370801,0.0808588917843,0.203800479017,0.365518262585,0.0808588917843,0.311584741032,203,1.0,-0.00249325098487,0.493674673203,nan,nan,nan,nan,0.0,0.0,0.0,nan,224.102686249,354.756932153,355.256954961,355.076389681,nan,nan,nan,nan
1,113,1,1,1.0,1.0,0.247292140964,0,0.0,0.0,0.0,0.284972867706,0.0805609636787,0.204411904027,0.365533831385,0.0805609636787,0.274103785555,97,1.0,-0.260369742894,-0.491718830742,nan,nan,nan,nan,0.0,0.0,0.0,nan,224.102686249,355.757089242,356.257104638,356.004381383,nan,nan,nan,nan
1,114,1,1,1.0,1.0,0.239152597729,0,0.0,0.0,0.0,0.284636432646,0.0802788001554,0.20435763249,0.364915232801,0.0802788001554,0.268634088648,484,0.614398947124,0.316112737715,-1.0,nan,nan,nan,nan,0.0,0.0,0.0,nan,224.102686249,356.757196724,357.25722894,356.996349322,nan,nan,nan,nan
1,115,1,1,1.0,1.0,0.231050403323,0,0.0,0.0,0.0,0.284233920832,0.0800362349328,0.2041976859,0.364270155765,0.0800362349328,0.239165047339,308,-0.0186828559465,0.413097475488,0.481682330771,nan,nan,nan,nan,0.0,0.0,0.0,nan,224.102686249,357.757323022,358.257348396,357.988373426,nan,nan,nan,nan
1,116,1,1,1.0,1.0,0.222861823626,0,0.0,0.0,0.0,0.283767398749,0.079838595468,0.203928803281,0.363605994217,0.079838595468,0.231021608226,55,1.0,-0.0599996532909,-1.0,nan,nan,nan,nan,0.0,0.0,0.0,nan,224.102686249,358.757442764,359.257466427,358.980304587,nan,nan,nan,nan
1,117,1,1,1.0,1.0,0.21472313581,0,0.0,0.0,0.0,0.283237785052,0.0796915894233,0.203546195629,0.362929374476,0.0796915894233,0.222878454253,402,0.000724920831492,0.470139955471,-0.437811562499,nan,nan,nan,nan,0.0,0.0,0.0,nan,224.102686249,359.75757904,360.257591585,359.972302176,nan,nan,nan,nan
1,118,1,1,1.0,1.0,0.0286098513752,0,1.0,0.0,0.0,0.282647141524,0.0795997516284,0.203047389896,0.362246893153,0.0795997516284,0.15539827027,359,-0.169222339917,0.474741883077,0.0483828026834,nan,nan,nan,nan,0.0,0.0,0.0,nan,224.102686249,360.807737441,361.307759108,360.836347292,nan,nan,nan,nan
1,119,0,0,1.0,0.0,0.21241412824,0,0.0,0.0,0.0,0.280475882634,0.0826367469295,0.197839135705,0.363112629564,0.0826367469295,0.151915705142,34,1.0,0.0514419701458,-1.0,nan,nan,nan,nan,0.0,0.0,0.0,nan,224.102686249,361.807848629,362.30788227,362.020262757,nan,nan,nan,nan
1,120,1,1,1.0,1.0,0.196346300188,0,0.0,0.0,0.0,0.279899088105,0.0825220300379,0.197377058068,0.362421118143,0.0825220300379,0.145790093268,271,0.320642857732,0.312811632898,0.639400143054,nan,nan,nan,nan,0.0,0.0,0.0,nan,224.102686249,362.807937865,363.308004292,363.004284165,nan,nan,nan,nan
1,121,1,1,1.0,1.0,0.244157490321,0,0.0,0.0,0.0,0.279196963837,0.0825277588153,0.196669205022,0.361724722653,0.0825277588153,0.21763930625,105,1.0,-0.285049837405,-0.401580786678,nan,nan,nan,nan,0.0,0.0,0.0,nan,224.102686249,363.808092958,364.308111204,364.052250448,nan,nan,nan,nan
1,122,0,0,1.0,0.0,0.228021238465,0,0.0,0.0,0.0,0.278904968225,0.0822448792411,0.196660088984,0.361149847466,0.0822448792411,0.222841676325,389,-0.0691208065164,0.476626077068,-0.280234315682,nan,nan,nan,nan,0.0,0.0,0.0,nan,224.102686249,364.808191602,365.308264017,365.03621284,nan,nan,nan,nan
1,123,1,1,1.0,1.0,0.131859738845,0,0.0,0.0,0.0,0.278484441532,0.082033765239,0.196450676293,0.360518206771,0.082033765239,0.201346155877,137,1.0,-0.300190217086,-0.0647316600203,nan,nan,nan,nan,0.0,0.0,0.0,nan,224.102686249,365.80833358,366.308398013,365.940193319,nan,nan,nan,nan
1,124,1,1,1.0,1.0,0.275682752021,0,0.0,0.0,0.0,0.277282599707,0.0827596143239,0.194522985383,0.360042214031,0.0827596143239,0.211854576444,68,1.0,-0.129018143495,-0.972903198114,nan,nan,nan,nan,0.0,0.0,0.0,nan,224.102686249,366.808469572,367.308490954,367.084152324,nan,nan,nan,nan
1,125,1,1,1.0,1.0,0.283558579627,0,0.0,0.0,0.0,0.277269592815,0.0824226317584,0.194846961057,0.359692224574,0.0824226317584,0.230367023498,181,1.0,-0.123914391386,0.3392011262,nan,nan,nan,nan,0.0,0.0,0.0,nan,224.102686249,367.808583041,368.308620674,368.09214162,nan,nan,nan,nan
1,126,1,1,1.0,1.0,0.283403771464,0,0.0,0.0,0.0,0.277320310451,0.0820915367424,0.195228773708,0.359411847193,0.0820915367424,0.280881701037,467,0.473005185182,0.365775667588,-1.0,nan,nan,nan,nan,0.0,0.0,0.0,nan,224.102686249,368.808730152,369.308744976,369.092133923,nan,nan,nan,nan
1,127,1,1,1.0,1.0,0.267258966807,0,0.0,0.0,0.0,0.277368978139,0.0817643072553,0.195604670884,0.359133285394,0.0817643072553,0.278073772633,217,0.891250405156,0.0735373331823,0.568048345461,nan,nan,nan,nan,0.0,0.0,0.0,nan,224.102686249,369.808853314,370.308873556,370.076112281,nan,nan,nan,nan
1,128,1,1,1.0,1.0,0.307112791575,0,0.0,0.0,0.0,0.277288739954,0.0814441401586,0.195844599795,0.358732880112,0.0814441401586,0.285925176616,272,0.310166696092,0.316214117232,0.637281430288,nan,nan,nan,nan,0.0,0.0,0.0,nan,224.102686249,370.808991871,371.309002705,371.116104663,nan,nan,nan,nan
1,129,1,1,1.0,1.0,0.290950310882,0,0.0,0.0,0.0,0.277523575006,0.0811656764885,0.196357898517,0.358689251495,0.0811656764885,0.288440689755,213,0.929785093221,0.0521668813814,0.548906519778,nan,nan,nan,nan,0.0,0.0,0.0,nan,224.102686249,371.809118169,372.309127293,372.10006848,nan,nan,nan,nan
1,130,1,1,1.0,1.0,0.258838032372,0,0.0,0.0,0.0,0.27762847138,0.0808566431485,0.196771828231,0.358485114529,0.0808566431485,0.28563371161,495,0.706485112283,0.278551693791,-1.0,nan,nan,nan,nan,0.0,0.0,0.0,nan,224.102686249,372.809219949,373.309260148,373.068057982,nan,nan,nan,nan
1,131,0,0,1.0,0.0,0.258656425402,0,0.0,0.0,0.0,0.277482809062,0.0805594934675,0.196923315595,0.35804230253,0.0805594934675,0.269481589552,326,-0.12383419111,0.444071765824,0.352223541474,nan,nan,nan,nan,0.0,0.0,0.0,nan,224.102686249,373.809387017,374.30941011,374.068043442,nan,nan,nan,nan
1,132,1,1,1.0,1.0,0.178533388302,0,0.0,0.0,0.0,0.277337990726,0.0802659058158,0.19707208491,0.357603896542,0.0802659058158,0.232009282025,94,1.0,-0.249439013202,-0.526745155233,nan,nan,nan,nan,0.0,0.0,0.0,nan,224.102686249,374.809485375,375.309504477,374.988018764,nan,nan,nan,nan
1,133,1,1,1.0,1.0,0.130409446079,0,0.0,0.0,0.0,0.27658375712,0.0804200736612,0.196163683459,0.357003830781,0.0804200736612,0.189199753261,167,1.0,-0.195605812978,0.221546716301,nan,nan,nan,nan,0.0,0.0,0.0,nan,224.102686249,375.809619942,376.309635622,375.940029388,nan,nan,nan,nan
1,134,1,1,1.0,1.0,0.144177960232,0,1.0,0.0,0.0,0.275476375976,0.0811112647231,0.194365111253,0.356587640699,0.0811112647231,0.151040264871,452,0.351738073422,0.401406211611,-1.0,nan,nan,nan,nan,0.0,0.0,0.0,nan,224.102686249,376.859789461,377.359790601,377.003967421,nan,nan,nan,nan
1,135,1,1,1.0,1.0,0.23211723892,1,0.0,0.0,1.0,0.274489169842,0.0815978850507,0.192891284792,0.356087054893,0.0815978850507,0.16890154841,31,1.0,0.0668515730764,-1.0,62.7648533007,27.2351466993,5.4382716993,39.0,1.0,0.0253789930673,-1.0,1.58385097608,224.102686249,377.859859595,378.359894092,378.091976834,381.285290834,382.290457947,379.685068401,381.276952008
1,136,1,1,1.0,1.0,0.286475700792,0,0.0,0.0,0.0,0.274172961403,0.0813745970722,0.19279836433,0.355547558475,0.0813745970722,0.220923633315,76,1.0,-0.169674511773,-0.773365826749,nan,nan,nan,nan,0.0,0.0,0.0,nan,224.102686249,382.485463717,382.985487951,382.771939418,nan,nan,nan,nan
1,137,1,1,1.0,1.0,0.29427113058,0,0.0,0.0,0.0,0.274264092805,0.0810795125399,0.193184580266,0.355343605345,0.0810795125399,0.270954690098,397,-0.0275613476434,0.473159987783,-0.37569455347,nan,nan,nan,nan,0.0,0.0,0.0,nan,224.102686249,383.485597428,383.985611113,383.779868559,nan,nan,nan,nan
1,138,1,1,1.0,1.0,0.262151154224,0,0.0,0.0,0.0,0.274411203377,0.0807989576167,0.193612245761,0.355210160994,0.0807989576167,0.280965995199,333,-0.149813480994,0.453275949072,0.294183738108,nan,nan,nan,nan,0.0,0.0,0.0,nan,224.102686249,384.485717169,384.985739407,384.747868323,nan,nan,nan,nan
1,139,1,1,1.0,1.0,0.245975274127,0,0.0,0.0,0.0,0.274321713967,0.080510295063,0.193811418904,0.35483200903,0.080510295063,0.267465852977,182,1.0,-0.118523835432,0.347089474713,nan,nan,nan,nan,0.0,0.0,0.0,nan,224.102686249,385.485840902,385.985868841,385.731816176,nan,nan,nan,nan
1,140,1,1,1.0,1.0,0.237862815615,0,0.0,0.0,0.0,0.274116304983,0.0802540820562,0.193862222927,0.354370387039,0.0802540820562,0.248663081322,420,0.1146601879,0.45369410126,-0.695047497311,nan,nan,nan,nan,0.0,0.0,0.0,nan,224.102686249,386.48595437,386.986004263,386.723817186,nan,nan,nan,nan
1,141,1,1,1.0,1.0,0.237680353224,0,0.0,0.0,0.0,0.273855488513,0.0800235532211,0.193831935292,0.353879041734,0.0800235532211,0.240506147655,197,1.0,-0.035797595552,0.455774741445,nan,nan,nan,nan,0.0,0.0,0.0,nan,224.102686249,387.486117446,387.986124004,387.7237978,nan,nan,nan,nan
1,142,1,1,1.0,1.0,0.221528991126,0,0.0,0.0,0.0,0.273597094689,0.0797954167019,0.193801677987,0.353392511391,0.0797954167019,0.232357386655,58,1.0,-0.0760896648475,-1.0,nan,nan,nan,nan,0.0,0.0,0.0,nan,224.102686249,388.486247451,388.986246311,388.707776442,nan,nan,nan,nan
1,143,0,0,0.0,1.0,0.349411044735,0,0.0,0.0,0.0,0.273227817359,0.0796319126649,0.193595904694,0.352859730024,0.0796319126649,0.269540129695,109,1.0,-0.294638327523,-0.357773695079,nan,nan,nan,nan,0.0,0.0,0.0,nan,224.102686249,389.486341819,389.986403115,389.835752863,nan,nan,nan,nan
1,144,1,1,1.0,1.0,0.229270536918,0,0.0,0.0,0.0,0.27376431896,0.0796063406632,0.194157978297,0.353370659624,0.0796063406632,0.266736857593,297,0.0686262056446,0.388646276542,0.544904663634,nan,nan,nan,nan,0.0,0.0,0.0,nan,224.102686249,390.48646156,390.98653768,390.715732097,nan,nan,nan,nan
1,145,1,1,1.0,1.0,0.21313229017,0,0.0,0.0,0.0,0.273453173631,0.079414109731,0.1940390639,0.352867283362,0.079414109731,0.263937957274,439,0.251144291643,0.426392204401,-1.0,nan,nan,nan,nan,0.0,0.0,0.0,nan,224.102686249,391.48661038,391.986628627,391.699742671,nan,nan,nan,nan
1,146,1,1,1.0,1.0,0.213018250652,0,0.0,0.0,0.0,0.273034278607,0.0792962649196,0.193738013688,0.352330543527,0.0792962649196,0.21847369258,373,-0.135407706169,0.478559568072,-0.0996974893599,nan,nan,nan,nan,0.0,0.0,0.0,nan,224.102686249,392.486719858,392.986776878,392.699738109,nan,nan,nan,nan
1,147,1,1,1.0,1.0,0.228823503945,0,0.0,0.0,0.0,0.272620374966,0.0791782947229,0.193442080243,0.351798669689,0.0791782947229,0.218324681589,314,-0.0594438881467,0.42463230952,0.441925406839,nan,nan,nan,nan,0.0,0.0,0.0,nan,224.102686249,393.486868109,393.986916291,393.715691613,nan,nan,nan,nan
1,148,1,1,1.0,1.0,0.228687227238,0,0.0,0.0,0.0,0.272320396398,0.0789893078119,0.193331088586,0.35130970421,0.0789893078119,0.223509660612,69,1.0,-0.134207199312,-0.939648005704,nan,nan,nan,nan,0.0,0.0,0.0,nan,224.102686249,394.487000109,394.987016075,394.715687336,nan,nan,nan,nan
1,149,1,1,1.0,1.0,0.220549394842,0,0.0,0.0,0.0,0.272023572118,0.0788018384124,0.193221733705,0.35082541053,0.0788018384124,0.226020042008,307,-0.0113868739462,0.411053355611,0.487957006857,nan,nan,nan,nan,0.0,0.0,0.0,nan,224.102686249,395.487122416,395.98714893,395.707671811,nan,nan,nan,nan
1,150,1,1,1.0,1.0,0.252396532334,0,0.0,0.0,0.0,0.271675773623,0.0786482916624,0.19302748196,0.350324065285,0.0786482916624,0.233877718138,364,-0.160194321586,0.476704516321,-0.00341124574885,nan,nan,nan,nan,0.0,0.0,0.0,nan,224.102686249,396.487243298,396.987275514,396.73963983,nan,nan,nan,nan
1,151,1,1,1.0,1.0,0.236246881075,0,0.0,0.0,0.0,0.271546382741,0.078399730954,0.193146651787,0.349946113695,0.078399730954,0.236397602751,454,0.367627362238,0.397084843583,-1.0,nan,nan,nan,nan,0.0,0.0,0.0,nan,224.102686249,397.48738157,397.98742462,397.723628451,nan,nan,nan,nan
1,152,1,1,1.0,1.0,0.252091763075,0,0.0,0.0,0.0,0.27131105273,0.0781907454891,0.193120307241,0.349501798219,0.0781907454891,0.246911725495,242,0.632911854383,0.197161183215,0.645921401967,nan,nan,nan,nan,0.0,0.0,0.0,nan,224.102686249,398.487509579,398.987548067,398.739601342,nan,nan,nan,nan
1,153,1,1,1.0,1.0,0.25995903695,0,0.0,0.0,0.0,0.271183772666,0.0779469949331,0.193236777733,0.349130767599,0.0779469949331,0.249432560367,326,-0.12383419111,0.444071765824,0.352223541474,nan,nan,nan,nan,0.0,0.0,0.0,nan,224.102686249,399.487637018,399.987651273,399.747596055,nan,nan,nan,nan
1,154,1,1,1.0,1.0,0.2438116665,0,0.0,0.0,0.0,0.271109925721,0.0776954666878,0.193414459033,0.348805392409,0.0776954666878,0.251954155508,482,0.597655625539,0.322480811492,-1.0,nan,nan,nan,nan,0.0,0.0,0.0,nan,224.102686249,400.487758755,400.987772439,400.731570421,nan,nan,nan,nan
1,155,1,1,1.0,1.0,0.211685133167,0,0.0,0.0,0.0,0.270931505726,0.0774723786774,0.193459127049,0.348403884403,0.0774723786774,0.238485278872,344,-0.172543464245,0.464730234515,0.195503824632,nan,nan,nan,nan,0.0,0.0,0.0,nan,224.102686249,401.487901874,401.98793409,401.699587007,nan,nan,nan,nan
1,156,1,1,1.0,1.0,0.163595973048,0,0.0,0.0,0.0,0.270546789021,0.0773669224706,0.19317986655,0.347913711492,0.0773669224706,0.206364257572,1,0.854939129564,0.207877072944,-1.0,nan,nan,nan,nan,0.0,0.0,0.0,nan,224.102686249,402.488015343,402.988062099,402.651611316,nan,nan,nan,nan
1,157,1,1,1.0,1.0,0.0994252995588,0,1.0,0.0,0.0,0.269856783757,0.0775908768776,0.192265906879,0.347447660634,0.0775908768776,0.158235468591,366,-0.155593376329,0.477302029306,-0.0244766492797,nan,nan,nan,nan,0.0,0.0,0.0,nan,224.102686249,403.488141356,403.988198661,403.587566656,nan,nan,nan,nan
1,158,1,1,1.0,1.0,0.219220269006,1,0.0,0.0,1.0,0.268764274243,0.078528699631,0.190235574612,0.347292973874,0.078528699631,0.160747180538,88,1.0,-0.225257592204,-0.599932847766,48.0504944941,41.9495055059,-19.9254944941,60.0,1.0,-0.0867837676833,-1.0,1.71723313723,224.102686249,404.488282479,404.988296164,404.707502748,408.047042281,409.04400656,406.313449946,408.038717424
1,159,1,1,1.0,1.0,0.292237242218,0,0.0,0.0,0.0,0.26844870733,0.0783773744594,0.190071332871,0.34682608179,0.0783773744594,0.203627603594,383,-0.0968787136249,0.478131214543,-0.211081409456,nan,nan,nan,nan,0.0,0.0,0.0,nan,224.102686249,409.247181808,409.747227138,409.53941905,nan,nan,nan,nan
1,160,1,1,1.0,1.0,0.23608437553,0,0.0,0.0,0.0,0.268599267678,0.0781517238504,0.190447543827,0.346750991528,0.0781517238504,0.249180628918,244,0.611372359265,0.206163547436,0.648880721676,nan,nan,nan,nan,0.0,0.0,0.0,nan,224.102686249,410.247312953,410.747361705,410.483397328,nan,nan,nan,nan
1,161,1,1,1.0,1.0,0.21989309974,0,0.0,0.0,0.0,0.268394771501,0.0779479707008,0.1904468008,0.346342742201,0.0779479707008,0.24940490583,462,0.432089675478,0.378486360879,-1.0,nan,nan,nan,nan,0.0,0.0,0.0,nan,224.102686249,411.247470327,411.747486577,411.467363426,nan,nan,nan,nan
1,162,1,1,1.0,1.0,0.203744874336,0,0.0,0.0,0.0,0.268091636052,0.0777979596966,0.190293676356,0.345889595749,0.0777979596966,0.219907449869,305,0.00361192545304,0.406859252708,0.500196907155,nan,nan,nan,nan,0.0,0.0,0.0,nan,224.102686249,412.247596055,412.747637394,412.451340929,nan,nan,nan,nan
1,163,1,1,1.0,1.0,0.211652632337,0,0.0,0.0,0.0,0.267691966725,0.0777205694568,0.189971397268,0.345412536182,0.0777205694568,0.211763535471,123,1.0,-0.311441137266,-0.208672863777,nan,nan,nan,nan,0.0,0.0,0.0,nan,224.102686249,413.247696409,413.747767969,413.459349042,nan,nan,nan,nan
1,164,1,1,1.0,1.0,0.203503111377,0,0.0,0.0,0.0,0.267346044907,0.0776045457876,0.18974149912,0.344950590695,0.0776045457876,0.206300206017,316,-0.0718215561597,0.428203514031,0.427892255365,nan,nan,nan,nan,0.0,0.0,0.0,nan,224.102686249,414.247822423,414.747895123,414.451325534,nan,nan,nan,nan
1,165,1,1,1.0,1.0,0.217967549339,0,0.0,0.0,0.0,0.266954370469,0.0775265768748,0.189427793594,0.344480947343,0.0775265768748,0.211041097684,177,1.0,-0.145192147526,0.306921212481,nan,nan,nan,nan,0.0,0.0,0.0,nan,224.102686249,415.281328259,415.781354773,415.499295808,nan,nan,nan,nan
1,166,1,1,1.0,1.0,0.225849933457,0,0.0,0.0,0.0,0.26665567034,0.0773838786288,0.189271791711,0.344039548969,0.0773838786288,0.215773531391,429,0.177531820842,0.442080780324,-0.901885199234,nan,nan,nan,nan,0.0,0.0,0.0,nan,224.102686249,416.28143232,416.781485063,416.507282253,nan,nan,nan,nan
1,167,1,1,1.0,1.0,0.217695280444,0,0.0,0.0,0.0,0.266408362844,0.0772140049609,0.189194357883,0.343622367804,0.0772140049609,0.220504254413,49,1.0,-0.027785429985,-1.0,nan,nan,nan,nan,0.0,0.0,0.0,nan,224.102686249,417.281557763,417.781616208,417.499253043,nan,nan,nan,nan
1,168,1,1,1.0,1.0,0.21755330218,0,0.0,0.0,0.0,0.26611491054,0.0770733140329,0.189041596507,0.343188224573,0.0770733140329,0.220366172027,317,-0.077772836126,0.429938605076,0.420733606481,nan,nan,nan,nan,0.0,0.0,0.0,nan,224.102686249,418.281682636,418.781719984,418.499235938,nan,nan,nan,nan
1,169,1,1,1.0,1.0,0.217408757657,0,0.0,0.0,0.0,0.265824122466,0.0769334886881,0.188890633778,0.342757611154,0.0769334886881,0.21755244676,3,0.871087178923,0.199335109687,-1.0,nan,nan,nan,nan,0.0,0.0,0.0,nan,224.102686249,419.281832882,419.78183944,419.49924164,nan,nan,nan,nan
1,170,1,1,1.0,1.0,0.225263772532,0,0.0,0.0,0.0,0.265535935771,0.0767945347654,0.188741401005,0.342330470536,0.0767945347654,0.220075277456,169,1.0,-0.185917379452,0.239118302078,nan,nan,nan,nan,0.0,0.0,0.0,nan,224.102686249,420.281946066,420.781958325,420.507209839,nan,nan,nan,nan
1,171,1,1,1.0,1.0,0.185150509235,0,0.0,0.0,0.0,0.265297638947,0.0766292675921,0.188668371355,0.341926906539,0.0766292675921,0.209274346475,482,0.597655625539,0.322480811492,-1.0,nan,nan,nan,nan,0.0,0.0,0.0,nan,224.102686249,421.282072364,421.782097738,421.467222874,nan,nan,nan,nan
1,172,1,1,1.0,1.0,0.232951150276,0,0.0,0.0,0.0,0.264826185243,0.0766489830667,0.188177202176,0.341475168309,0.0766489830667,0.214455144014,146,1.0,-0.278792578557,0.0248813210997,nan,nan,nan,nan,0.0,0.0,0.0,nan,224.102686249,422.282215483,422.782217764,422.515166634,nan,nan,nan,nan
1,173,1,1,1.0,1.0,0.240839236416,0,0.0,0.0,0.0,0.264639781529,0.0764631700169,0.188176611512,0.341102951546,0.0764631700169,0.219646965309,25,1.0,0.0970682892709,-1.0,nan,nan,nan,nan,0.0,0.0,0.0,nan,224.102686249,423.282308426,423.782343492,423.523147662,nan,nan,nan,nan
1,174,1,1,1.0,1.0,0.240683003329,0,0.0,0.0,0.0,0.264501406267,0.076262039524,0.188239366743,0.340763445791,0.076262039524,0.238157796673,69,1.0,-0.134207199312,-0.939648005704,nan,nan,nan,nan,0.0,0.0,0.0,nan,224.102686249,424.282458102,424.782500011,424.523141105,nan,nan,nan,nan
1,175,0,0,0.0,1.0,0.384532815777,0,0.0,0.0,0.0,0.264363727637,0.0760627444327,0.188300983205,0.34042647207,0.0760627444327,0.288685018507,6,0.895129075663,0.186272780825,-1.0,nan,nan,nan,nan,0.0,0.0,0.0,nan,224.102686249,425.28259723,425.782630301,425.667130046,nan,nan,nan,nan
1,176,1,1,1.0,1.0,0.304452258628,0,0.0,0.0,0.0,0.265054354581,0.076385901179,0.188668453402,0.34144025576,0.076385901179,0.309889359244,355,-0.173737462994,0.472683863687,0.0888799762457,nan,nan,nan,nan,0.0,0.0,0.0,nan,224.102686249,426.282709843,426.782754604,426.587162102,nan,nan,nan,nan
1,177,1,1,1.0,1.0,0.264256601688,0,0.0,0.0,0.0,0.265279485461,0.0762252133604,0.1890542721,0.341504698821,0.0762252133604,0.317747225364,163,1.0,-0.214247802105,0.185723682048,nan,nan,nan,nan,0.0,0.0,0.0,nan,224.102686249,427.282843269,427.782880902,427.547099871,nan,nan,nan,nan
1,178,1,1,1.0,1.0,0.224094586447,0,0.0,0.0,0.0,0.265273673621,0.0760083948683,0.189265278753,0.34128206849,0.0760083948683,0.264267815587,385,-0.0879796604702,0.477733444059,-0.233926720364,nan,nan,nan,nan,0.0,0.0,0.0,nan,224.102686249,428.282963865,428.783000073,428.507058452,nan,nan,nan,nan
1,179,0,0,1.0,0.0,0.207950352225,0,0.0,0.0,0.0,0.265041023411,0.0758561949329,0.189184828478,0.340897218344,0.0758561949329,0.232100513453,62,1.0,-0.0974372467467,-1.0,nan,nan,nan,nan,0.0,0.0,0.0,nan,224.102686249,429.283108695,429.783139771,429.491059047,nan,nan,nan,nan
1,180,1,1,1.0,1.0,0.159812439699,0,0.0,0.0,0.0,0.264720289303,0.0757630755069,0.188957213797,0.34048336481,0.0757630755069,0.19728579279,495,0.706485112283,0.278551693791,-1.0,nan,nan,nan,nan,0.0,0.0,0.0,nan,224.102686249,430.283231002,430.78326949,430.443043442,nan,nan,nan,nan
1,181,1,1,1.0,1.0,0.119687772356,0,0.0,0.0,0.0,0.264134211931,0.075954703328,0.188179508603,0.340088915259,0.075954703328,0.162483521427,260,0.438016636947,0.272781976488,0.654406567654,nan,nan,nan,nan,0.0,0.0,0.0,nan,224.102686249,431.283358441,431.783395789,431.403046213,nan,nan,nan,nan
1,182,1,1,1.0,1.0,0.327520378865,0,0.0,0.0,0.0,0.263331731712,0.0765005734879,0.186831158224,0.339832305199,0.0765005734879,0.202340196973,73,1.0,-0.1546788618,-0.830916872461,nan,nan,nan,nan,0.0,0.0,0.0,nan,224.102686249,432.28348873,432.783490441,432.611009109,nan,nan,nan,nan
1,183,1,1,1.0,1.0,0.335397631396,0,0.0,0.0,0.0,0.263686365121,0.0764371772125,0.187249187909,0.340123542334,0.0764371772125,0.260868594206,14,0.95801504718,0.150023555696,-1.0,nan,nan,nan,nan,0.0,0.0,0.0,nan,224.102686249,433.283612463,433.783620731,433.619010095,nan,nan,nan,nan
1,184,1,1,1.0,1.0,0.33523826208,0,0.0,0.0,0.0,0.264080383068,0.0764109933652,0.187669389703,0.340491376433,0.0764109933652,0.332718757447,456,0.383612429175,0.392633185378,-1.0,nan,nan,nan,nan,0.0,0.0,0.0,nan,224.102686249,434.283738761,434.783740472,434.618977023,nan,nan,nan,nan
1,185,1,1,1.0,1.0,0.319105431437,0,0.0,0.0,0.0,0.264469223937,0.0763822797855,0.188086944151,0.340851503722,0.0763822797855,0.329913774971,203,1.0,-0.00249325098487,0.493674673203,nan,nan,nan,nan,0.0,0.0,0.0,nan,224.102686249,435.283843677,435.783873043,435.602949109,nan,nan,nan,nan
1,186,1,1,1.0,1.0,0.294933127705,0,0.0,0.0,0.0,0.264766159847,0.076280273016,0.188485886831,0.341046432863,0.076280273016,0.316425607074,71,1.0,-0.144504067012,-0.877980773838,nan,nan,nan,nan,0.0,0.0,0.0,nan,224.102686249,436.283980524,436.784002192,436.578913652,nan,nan,nan,nan
1,187,1,1,1.0,1.0,0.310778579675,0,0.0,0.0,0.0,0.264929224538,0.0761059807373,0.188823243801,0.341035205275,0.0761059807373,0.308272379606,253,0.513865899396,0.244839928328,0.655977188727,nan,nan,nan,nan,0.0,0.0,0.0,nan,224.102686249,437.284120222,437.784145596,437.594898802,nan,nan,nan,nan
1,188,1,1,1.0,1.0,0.278661739547,0,0.0,0.0,0.0,0.265175726447,0.0759751345023,0.189200591945,0.34115086095,0.0759751345023,0.294791148975,25,1.0,0.0970682892709,-1.0,nan,nan,nan,nan,0.0,0.0,0.0,nan,224.102686249,438.284228274,438.784265052,438.562890014,nan,nan,nan,nan
1,189,1,1,1.0,1.0,0.310529973824,0,0.0,0.0,0.0,0.265247844165,0.0757781033666,0.189469740798,0.341025947531,0.0757781033666,0.299990097682,316,-0.0718215561597,0.428203514031,0.427892255365,nan,nan,nan,nan,0.0,0.0,0.0,nan,224.102686249,439.284365977,439.784407316,439.594895951,nan,nan,nan,nan
1,190,1,1,1.0,1.0,0.262370964512,0,0.0,0.0,0.0,0.265488706556,0.0756480365696,0.189840669987,0.341136743126,0.0756480365696,0.283854225961,229,0.770397026975,0.135265939772,0.614681466938,nan,nan,nan,nan,0.0,0.0,0.0,nan,224.102686249,440.284494271,440.784510521,440.546865235,nan,nan,nan,nan
1,191,1,1,1.0,1.0,0.238253969699,0,0.0,0.0,0.0,0.265472210567,0.0754479830976,0.190024227469,0.340920193664,0.0754479830976,0.270384969345,511,0.838703193994,0.216284169582,-1.0,nan,nan,nan,nan,0.0,0.0,0.0,nan,224.102686249,441.284622564,441.784665044,441.522876534,nan,nan,nan,nan
1,192,1,1,1.0,1.0,0.334064799361,0,0.0,0.0,0.0,0.265328956667,0.0752749411203,0.190054015547,0.340603897788,0.0752749411203,0.278229911191,81,1.0,-0.193804253699,-0.694219169772,nan,nan,nan,nan,0.0,0.0,0.0,nan,224.102686249,442.28475485,442.784792483,442.618819649,nan,nan,nan,nan
1,193,1,1,1.0,1.0,0.333933369257,0,0.0,0.0,0.0,0.265688830189,0.0752413242946,0.190447505895,0.340930154484,0.0752413242946,0.302084046106,270,0.331159066004,0.309369715406,0.641393874915,nan,nan,nan,nan,0.0,0.0,0.0,nan,224.102686249,443.284877727,443.784916215,443.618811097,nan,nan,nan,nan
1,194,1,1,1.0,1.0,0.277799603995,0,0.0,0.0,0.0,0.266044270497,0.0752057291091,0.190838541388,0.341249999606,0.0752057291091,0.315265924204,181,1.0,-0.123914391386,0.3392011262,nan,nan,nan,nan,0.0,0.0,0.0,nan,224.102686249,444.284999464,444.785042514,444.562799068,nan,nan,nan,nan
1,195,1,1,1.0,1.0,0.301653453615,0,0.0,0.0,0.0,0.266105178961,0.0750153903555,0.191089788605,0.341120569316,0.0750153903555,0.304462142289,267,0.362924526182,0.298807232282,0.646622522267,nan,nan,nan,nan,0.0,0.0,0.0,nan,224.102686249,445.285137736,445.785172518,445.58679119,nan,nan,nan,nan
1,196,1,1,1.0,1.0,0.285480994266,0,0.0,0.0,0.0,0.26628841749,0.0748650938759,0.191423323614,0.341153511366,0.0748650938759,0.288311350625,412,0.0618891196837,0.462096609288,-0.571158935758,nan,nan,nan,nan,0.0,0.0,0.0,nan,224.102686249,446.285261469,446.785300242,446.570742463,nan,nan,nan,nan
1,197,0,0,0.0,1.0,0.413328266237,0,0.0,0.0,0.0,0.266386840961,0.0746854679349,0.191701373026,0.341072308895,0.0746854679349,0.333487571372,55,1.0,-0.0599996532909,-1.0,nan,nan,nan,nan,0.0,0.0,0.0,nan,224.102686249,447.285401452,447.785429106,447.698729718,nan,nan,nan,nan
1,198,1,1,1.0,1.0,0.389203003608,0,0.0,0.0,0.0,0.26713654211,0.0752267269874,0.191909815123,0.342363269097,0.0752267269874,0.362670754703,491,0.673033477965,0.292707709811,-1.0,nan,nan,nan,nan,0.0,0.0,0.0,nan,224.102686249,448.28551321,448.785553979,448.674716214,nan,nan,nan,nan
1,199,1,1,1.0,1.0,0.277013588697,0,0.0,0.0,0.0,0.267756168818,0.0755353292208,0.192220839597,0.343291498039,0.0755353292208,0.35984828618,76,1.0,-0.169674511773,-0.773365826749,nan,nan,nan,nan,0.0,0.0,0.0,nan,224.102686249,449.285666308,449.78568826,449.562679897,nan,nan,nan,nan
1,200,1,1,1.0,1.0,0.268917095847,0,0.0,0.0,0.0,0.267802923464,0.0753471997567,0.192455723707,0.343150123221,0.0753471997567,0.311711229384,21,1.0,0.116713997928,-1.0,nan,nan,nan,nan,0.0,0.0,0.0,nan,224.102686249,450.28575982,450.785793461,450.554676916,nan,nan,nan,nan
1,201,1,1,1.0,1.0,0.244779288769,0,0.0,0.0,0.0,0.26780852232,0.0751576880441,0.192650834276,0.342966210364,0.0751576880441,0.263569991104,373,-0.135407706169,0.478559568072,-0.0996974893599,nan,nan,nan,nan,0.0,0.0,0.0,nan,224.102686249,451.285902654,451.785945704,451.530681943,nan,nan,nan,nan
1,202,1,1,1.0,1.0,0.244632463437,0,0.0,0.0,0.0,0.267693376152,0.0749871532406,0.192706222912,0.342680529393,0.0749871532406,0.252776282684,282,0.208142307666,0.34807905204,0.609295500931,nan,nan,nan,nan,0.0,0.0,0.0,nan,224.102686249,452.286018118,452.786046913,452.530650582,nan,nan,nan,nan
1,203,1,1,1.0,1.0,0.236450155731,0,0.0,0.0,0.0,0.267578645243,0.0748179811216,0.192760664122,0.342396626365,0.0748179811216,0.241953969312,221,0.851781464038,0.0945411604707,0.585422935822,nan,nan,nan,nan,0.0,0.0,0.0,nan,224.102686249,453.286160667,453.786165514,453.522610823,nan,nan,nan,nan
1,204,1,1,1.0,1.0,0.300315204076,0,0.0,0.0,0.0,0.26742454381,0.0746645294673,0.192760014343,0.342089073277,0.0746645294673,0.260465941081,291,0.122027637739,0.373441943191,0.573791926984,nan,nan,nan,nan,0.0,0.0,0.0,nan,224.102686249,454.286289817,454.78629951,454.586605021,nan,nan,nan,nan
1,205,1,1,1.0,1.0,0.292167393491,0,0.0,0.0,0.0,0.267586566767,0.0745159897056,0.193070577061,0.342102556473,0.0745159897056,0.276310917766,465,0.456588679398,0.37096152752,-1.0,nan,nan,nan,nan,0.0,0.0,0.0,nan,224.102686249,455.286412694,455.786426949,455.578580087,nan,nan,nan,nan
1,206,1,1,1.0,1.0,0.308059316594,0,0.0,0.0,0.0,0.267707061016,0.0743529506027,0.193354110413,0.342060011618,0.0743529506027,0.300180638054,280,0.228089347314,0.342018854333,0.61587222022,nan,nan,nan,nan,0.0,0.0,0.0,nan,224.102686249,456.286525022,456.786548971,456.594584339,nan,nan,nan,nan
1,207,1,1,1.0,1.0,0.426193020307,0,0.0,1.0,0.0,0.267903901287,0.0742246444939,0.193679256793,0.342128545781,0.0742246444939,0.34213991013,176,1.0,-0.150429669724,0.298675466069,nan,nan,nan,nan,0.0,0.0,0.0,nan,224.102686249,457.312366574,457.811668654,457.738559594,nan,nan,nan,nan
1,208,1,1,1.0,1.0,0.386775395367,1,0.0,0.0,1.0,0.268672295068,0.0748571414875,0.193815153581,0.343529436556,0.0748571414875,0.373675910756,86,1.0,-0.21659106269,-0.625617802914,48.160361626,41.839638374,-18.629111626,60.0,1.0,-0.0867837676833,-1.0,1.60891506588,224.102686249,458.311768154,458.811813484,458.698543549,461.762183085,462.769510955,460.136973538,461.753845114
1,209,1,1,1.0,1.0,0.255715926178,0,0.0,0.0,0.0,0.269242841447,0.0751237573187,0.194119084128,0.344366598765,0.0751237573187,0.356228113951,366,-0.155593376329,0.477302029306,-0.0244766492797,nan,nan,nan,nan,0.0,0.0,0.0,nan,224.102686249,462.970758087,463.470746682,463.226474013,nan,nan,nan,nan
1,210,0,0,0.0,1.0,0.391580719035,0,0.0,0.0,0.0,0.2691778082,0.0749487944708,0.194229013729,0.344126602671,0.0749487944708,0.344690680193,25,1.0,0.0970682892709,-1.0,nan,nan,nan,nan,0.0,0.0,0.0,nan,224.102686249,463.970859011,464.470886095,464.36243973,nan,nan,nan,nan
1,211,1,1,1.0,1.0,0.279466000386,0,0.0,0.0,0.0,0.269763468061,0.0752448545023,0.194518613558,0.345008322563,0.0752448545023,0.308920881866,84,1.0,-0.20765784414,-0.652191087791,nan,nan,nan,nan,0.0,0.0,0.0,nan,224.102686249,464.970960506,465.470983314,465.250426506,nan,nan,nan,nan
1,212,1,1,1.0,1.0,0.239320805762,0,0.0,0.0,0.0,0.269809670596,0.0750684579576,0.194741212638,0.344878128553,0.0750684579576,0.303455841728,494,0.698129958021,0.282143999684,-1.0,nan,nan,nan,nan,0.0,0.0,0.0,nan,224.102686249,465.971095357,466.471144679,466.210416163,nan,nan,nan,nan
1,213,1,1,1.0,1.0,0.215181002859,0,0.0,0.0,0.0,0.269665173606,0.0749196275563,0.19474554605,0.344584801162,0.0749196275563,0.244655936336,351,-0.175686286722,0.4701852659,0.128489978773,nan,nan,nan,nan,0.0,0.0,0.0,nan,224.102686249,466.971206545,467.471276109,467.186387548,nan,nan,nan,nan
1,214,1,1,1.0,1.0,0.190992733464,0,0.0,0.0,0.0,0.2694081728,0.0748358927085,0.194572280092,0.344244065509,0.0748358927085,0.215164847362,71,1.0,-0.144504067012,-0.877980773838,nan,nan,nan,nan,0.0,0.0,0.0,nan,224.102686249,467.971371902,468.471371047,468.162364636,nan,nan,nan,nan
1,215,1,1,1.0,1.0,0.164831587113,0,1.0,0.0,0.0,0.269040025198,0.0748521927012,0.194187832497,0.343892217899,0.0748521927012,0.190335107812,507,0.805995650865,0.232688349973,-1.0,nan,nan,nan,nan,0.0,0.0,0.0,nan,224.102686249,469.021522034,469.521536004,469.186353622,nan,nan,nan,nan
1,216,1,1,1.0,1.0,0.116782625206,1,0.0,0.0,1.0,0.26855306988,0.0750145114911,0.193538558389,0.343567581371,0.0750145114911,0.157535648594,20,1.0,0.121558187834,-1.0,87.4438499214,2.55615007858,-11.5063499214,4.0,0.879126049628,0.195014037372,-1.0,1.50881864596,224.102686249,470.021597871,470.521660592,470.138380496,473.37198509,474.375703336,471.84680183,473.363656242
1,217,0,0,0.0,1.0,0.422047127504,0,0.0,0.0,0.0,0.267847160835,0.0755489367255,0.192298224109,0.34339609756,0.0755489367255,0.234553779941,213,0.929785093221,0.0521668813814,0.548906519778,nan,nan,nan,nan,0.0,0.0,0.0,nan,224.102686249,474.572205015,475.07223609,474.994252142,nan,nan,nan,nan
1,218,1,1,1.0,1.0,0.277911362238,0,0.0,0.0,0.0,0.268561049569,0.0760972374961,0.192463812073,0.344658287065,0.0760972374961,0.272247038316,472,0.51429864939,0.352212277195,-1.0,nan,nan,nan,nan,0.0,0.0,0.0,nan,224.102686249,475.572333594,476.072336445,475.850244956,nan,nan,nan,nan
1,219,1,1,1.0,1.0,0.221779307351,0,0.0,0.0,0.0,0.268604138568,0.075924336858,0.19267980171,0.344528475426,0.075924336858,0.307245932364,176,1.0,-0.150429669724,0.298675466069,nan,nan,nan,nan,0.0,0.0,0.0,nan,224.102686249,476.572457041,477.072476428,476.794236348,nan,nan,nan,nan
1,220,1,1,1.0,1.0,0.189607158303,0,0.0,0.0,0.0,0.268389345764,0.0758160520273,0.192573293737,0.344205397791,0.0758160520273,0.229765942631,403,0.00657627305109,0.469456436931,-0.450524507496,nan,nan,nan,nan,0.0,0.0,0.0,nan,224.102686249,477.572584765,478.072631236,477.762191923,nan,nan,nan,nan
1,221,1,1,1.0,1.0,0.157522819471,0,1.0,0.0,0.0,0.268029609748,0.0758290064102,0.192200603338,0.343858616158,0.0758290064102,0.189636428375,2,0.863024578927,0.203622855609,-1.0,nan,nan,nan,nan,0.0,0.0,0.0,nan,224.102686249,478.572682268,479.072756109,478.730205088,nan,nan,nan,nan
1,222,1,1,1.0,1.0,0.181397195905,1,0.0,0.0,1.0,0.267527306156,0.0760207690348,0.191506537121,0.343548075191,0.0760207690348,0.17617572456,96,1.0,-0.25681952169,-0.503302481145,37.2267172824,52.7732827176,-14.7267172824,75.0,1.0,-0.164714458691,-0.791355921409,1.56723661488,224.102686249,479.572815124,480.07287699,479.75421232,482.981574698,483.985139846,481.398027066,482.973212494
1,223,1,1,1.0,1.0,0.268329794519,0,0.0,0.0,0.0,0.26713757715,0.0760685401794,0.191069036971,0.34320611733,0.0760685401794,0.202416603298,176,1.0,-0.150429669724,0.298675466069,nan,nan,nan,nan,0.0,0.0,0.0,nan,224.102686249,484.181748436,484.681793197,484.450078231,nan,nan,nan,nan
1,224,1,1,1.0,1.0,0.236175891478,0,0.0,0.0,0.0,0.267142947499,0.0758970632582,0.191245884241,0.343040010757,0.0758970632582,0.228634293967,3,0.871087178923,0.199335109687,-1.0,nan,nan,nan,nan,0.0,0.0,0.0,nan,224.102686249,485.18189013,485.681916359,485.418066022,nan,nan,nan,nan
1,225,1,1,1.0,1.0,0.228036634158,0,0.0,0.0,0.0,0.267004081777,0.0757549599728,0.191249121804,0.34275904175,0.0757549599728,0.244180773385,231,0.749609680972,0.145151270079,0.620821461523,nan,nan,nan,nan,0.0,0.0,0.0,nan,224.102686249,486.182009016,486.682024126,486.41004565,nan,nan,nan,nan
1,226,0,0,1.0,0.0,0.219890818931,0,0.0,0.0,0.0,0.266830119957,0.0756303037194,0.191199816238,0.342460423676,0.0756303037194,0.228034448189,319,-0.0891891826932,0.433308674125,0.406137099325,nan,nan,nan,nan,0.0,0.0,0.0,nan,224.102686249,487.182147288,487.68218207,487.402038107,nan,nan,nan,nan
1,227,1,1,1.0,1.0,0.19580375962,0,0.0,0.0,0.0,0.266621500841,0.075526616408,0.191094884433,0.342148117249,0.075526616408,0.214577070903,68,1.0,-0.129018143495,-0.972903198114,nan,nan,nan,nan,0.0,0.0,0.0,nan,224.102686249,488.182239375,488.682276438,488.378043134,nan,nan,nan,nan
1,228,1,1,1.0,1.0,0.211695967242,0,0.0,0.0,0.0,0.266308148004,0.0755057772914,0.190802370713,0.341813925296,0.0755057772914,0.209130181931,15,0.965734432428,0.145352784795,-1.0,nan,nan,nan,nan,0.0,0.0,0.0,nan,224.102686249,489.182365958,489.682425829,489.394061925,nan,nan,nan,nan
1,229,1,1,1.0,1.0,0.275444980711,0,0.0,0.0,0.0,0.26606756571,0.0754260443852,0.190641521325,0.341493610095,0.0754260443852,0.227648235857,150,1.0,-0.266152531622,0.0638227105866,nan,nan,nan,nan,0.0,0.0,0.0,nan,224.102686249,490.182516775,490.6825316,490.457961756,nan,nan,nan,nan
1,230,1,1,1.0,1.0,0.291306398343,0,0.0,0.0,0.0,0.266108694723,0.0752630056716,0.190845689052,0.341371700395,0.0752630056716,0.259482448765,427,0.163265173604,0.444863218481,-0.840208708629,nan,nan,nan,nan,0.0,0.0,0.0,nan,224.102686249,491.182646494,491.682684698,491.473952893,nan,nan,nan,nan
1,231,1,1,1.0,1.0,0.283198215999,0,0.0,0.0,0.0,0.266218728363,0.0751168730385,0.191101855325,0.341335601402,0.0751168730385,0.283316531684,357,-0.1717918326,0.473767524415,0.068739031695,nan,nan,nan,nan,0.0,0.0,0.0,nan,224.102686249,492.182746564,492.682789044,492.46594478,nan,nan,nan,nan
1,232,1,1,1.0,1.0,0.235052891541,0,0.0,0.0,0.0,0.266292552223,0.0749617225906,0.191330829632,0.341254274813,0.0749617225906,0.269852501961,42,1.0,0.00954878589686,-1.0,nan,nan,nan,nan,0.0,0.0,0.0,nan,224.102686249,493.182875143,493.682915057,493.417928034,nan,nan,nan,nan
1,233,1,1,1.0,1.0,0.2348909555,0,0.0,0.0,0.0,0.266157315596,0.074827404812,0.191329910784,0.340984720408,0.074827404812,0.251047354347,417,0.0945046041228,0.457053563907,-0.645720198395,nan,nan,nan,nan,0.0,0.0,0.0,nan,224.102686249,494.182998876,494.683074711,494.417889831,nan,nan,nan,nan
1,234,1,1,1.0,1.0,0.242740269285,0,0.0,0.0,0.0,0.266022546803,0.0746940549947,0.191328491808,0.340716601798,0.0746940549947,0.237561372109,76,1.0,-0.169674511773,-0.773365826749,nan,nan,nan,nan,0.0,0.0,0.0,nan,224.102686249,495.183128595,495.683196448,495.425868864,nan,nan,nan,nan
1,235,1,1,1.0,1.0,0.242605132982,0,0.0,0.0,0.0,0.265922622865,0.0745491331357,0.191373489729,0.340471756001,0.0745491331357,0.240078785922,460,0.415848916989,0.383334931935,-1.0,nan,nan,nan,nan,0.0,0.0,0.0,nan,224.102686249,496.183255748,496.683299654,496.425860881,nan,nan,nan,nan
1,236,1,1,1.0,1.0,0.322458466981,0,0.0,0.0,0.0,0.265822975472,0.074405218471,0.191417757001,0.340228193943,0.074405218471,0.269267956416,147,1.0,-0.275801134503,0.0346720467303,nan,nan,nan,nan,0.0,0.0,0.0,nan,224.102686249,497.183385183,497.683422531,497.50584365,nan,nan,nan,nan
1,237,0,0,1.0,0.0,0.394288293552,0,0.0,0.0,0.0,0.266063977564,0.0743382115591,0.191725766005,0.340402189123,0.0743382115591,0.319783964505,286,0.169078956243,0.359734776014,0.594698705761,nan,nan,nan,nan,0.0,0.0,0.0,nan,224.102686249,498.183552535,498.68358133,498.577840829,nan,nan,nan,nan
1,238,1,1,1.0,1.0,0.194157319143,0,0.0,0.0,0.0,0.266607300937,0.074646673014,0.191960627923,0.341253973951,0.074646673014,0.303634693225,25,1.0,0.0970682892709,-1.0,nan,nan,nan,nan,0.0,0.0,0.0,nan,224.102686249,499.183660302,499.68368197,499.377817621,nan,nan,nan,nan
1,239,0,0,0.0,1.0,0.409990340937,0,0.0,0.0,0.0,0.266301604811,0.0746369140667,0.191664690744,0.340938518878,0.0746369140667,0.332811984544,483,0.606025706087,0.319314454546,-1.0,nan,nan,nan,nan,0.0,0.0,0.0,nan,224.102686249,500.183808838,500.68382851,500.593799179,nan,nan,nan,nan
1,240,1,1,1.0,1.0,0.33777335193,0,0.0,0.0,0.0,0.266905338996,0.0750576317003,0.191847707296,0.341962970697,0.0750576317003,0.31397367067,164,1.0,-0.209685835145,0.194761549991,nan,nan,nan,nan,0.0,0.0,0.0,nan,224.102686249,501.184010117,501.683957089,501.521783469,nan,nan,nan,nan
1,241,1,1,1.0,1.0,0.337714621797,0,0.0,0.0,0.0,0.267201857879,0.0750400033832,0.192161854496,0.342241861262,0.0750400033832,0.361826104888,372,-0.138660017671,0.478458869494,-0.0888123791441,nan,nan,nan,nan,0.0,0.0,0.0,nan,224.102686249,502.184044044,502.684065997,502.521758666,nan,nan,nan,nan
1,242,0,0,0.0,1.0,0.441567205824,0,0.0,0.0,0.0,0.267495661062,0.0750211313773,0.192474529685,0.342516792439,0.0750211313773,0.372351726517,307,-0.0113868739462,0.411053355611,0.487957006857,nan,nan,nan,nan,0.0,0.0,0.0,nan,224.102686249,503.184185167,503.684215958,503.625752373,nan,nan,nan,nan
1,243,1,1,1.0,1.0,0.313447665423,0,0.0,0.0,0.0,0.26821794963,0.0756969281803,0.192521021449,0.34391487781,0.0756969281803,0.364243164348,129,1.0,-0.310070485259,-0.146368003411,nan,nan,nan,nan,0.0,0.0,0.0,nan,224.102686249,504.184272978,504.684313176,504.497720643,nan,nan,nan,nan
1,244,1,1,1.0,1.0,0.297259810846,0,0.0,0.0,0.0,0.268404849282,0.0755960689032,0.192808780378,0.344000918185,0.0755960689032,0.350758227364,70,1.0,-0.13936984996,-0.906436913284,nan,nan,nan,nan,0.0,0.0,0.0,nan,224.102686249,505.184438049,505.684442896,505.48169786,nan,nan,nan,nan
1,245,1,1,1.0,1.0,0.249183194712,0,0.0,0.0,0.0,0.268523593979,0.0754629733906,0.193060620589,0.34398656737,0.0754629733906,0.28663022366,325,-0.119404900653,0.442631039184,0.360186421743,nan,nan,nan,nan,0.0,0.0,0.0,nan,224.102686249,506.184527285,506.684568909,506.43371048,nan,nan,nan,nan
1,246,1,1,1.0,1.0,0.265008689836,0,0.0,0.0,0.0,0.268444330048,0.0753183131404,0.193126016907,0.343762643188,0.0753183131404,0.270483898465,283,0.19826868328,0.351050922538,0.605825948857,nan,nan,nan,nan,0.0,0.0,0.0,nan,224.102686249,507.18468808,507.684693497,507.44969677,nan,nan,nan,nan
1,247,1,1,1.0,1.0,0.28885199083,0,0.0,0.0,0.0,0.268430307027,0.0751647643042,0.193265542722,0.343595071331,0.0751647643042,0.267681291793,174,1.0,-0.160790688716,0.281981279739,nan,nan,nan,nan,0.0,0.0,0.0,nan,224.102686249,508.184820366,508.68483291,508.473672356,nan,nan,nan,nan
1,248,1,1,1.0,1.0,0.240688705351,0,0.0,0.0,0.0,0.268513322001,0.0750230882924,0.193490233709,0.343536410294,0.0750230882924,0.264849795339,54,1.0,-0.0546292063271,-1.0,nan,nan,nan,nan,0.0,0.0,0.0,nan,224.102686249,509.184946664,509.684983442,509.425635369,nan,nan,nan,nan
1,249,1,1,1.0,1.0,0.256572930142,0,0.0,0.0,0.0,0.268400671732,0.074891910342,0.19350876139,0.343292582074,0.074891910342,0.262037875441,480,0.580928072941,0.32870764083,-1.0,nan,nan,nan,nan,0.0,0.0,0.0,nan,224.102686249,510.18506612,510.685084651,510.44163905,nan,nan,nan,nan
1,250,1,1,1.0,1.0,0.280424499419,0,0.0,0.0,0.0,0.268352979225,0.0747445244338,0.193608454791,0.343097503659,0.0747445244338,0.259228711637,121,1.0,-0.310732805591,-0.229640808446,nan,nan,nan,nan,0.0,0.0,0.0,nan,224.102686249,511.185189852,511.685232047,511.465614351,nan,nan,nan,nan
1,251,1,1,1.0,1.0,0.304286616854,0,0.0,0.0,0.0,0.268401459226,0.0745981909111,0.193803268315,0.342999650137,0.0745981909111,0.280428015472,414,0.0747837862165,0.460162189034,-0.600089175003,nan,nan,nan,nan,0.0,0.0,0.0,nan,224.102686249,512.185320997,512.685345231,512.489607614,nan,nan,nan,nan
1,252,1,1,1.0,1.0,0.296131108422,0,0.0,0.0,0.0,0.268544999857,0.0744832927649,0.194061707092,0.343028292621,0.0744832927649,0.293614074898,78,1.0,-0.179467652321,-0.739907630878,nan,nan,nan,nan,0.0,0.0,0.0,nan,224.102686249,513.185435607,513.685467822,513.481566715,nan,nan,nan,nan
1,253,1,1,1.0,1.0,0.295978581067,0,0.0,0.0,0.0,0.268654904672,0.0743550807619,0.19429982391,0.343009985433,0.0743550807619,0.298798768781,230,0.760023132926,0.140224214653,0.61781109556,nan,nan,nan,nan,0.0,0.0,0.0,nan,224.102686249,514.185564471,514.685590985,514.481543052,nan,nan,nan,nan
1,254,1,1,1.0,1.0,0.303809077945,0,0.0,0.0,0.0,0.268763331959,0.0742272841494,0.194536047809,0.342990616108,0.0742272841494,0.298639589145,489,0.656284860842,0.299572439858,-1.0,nan,nan,nan,nan,0.0,0.0,0.0,nan,224.102686249,515.185712151,515.685725266,515.489521229,nan,nan,nan,nan
1,255,1,1,1.0,1.0,0.263669300359,0,0.0,0.0,0.0,0.268901852694,0.0741130734554,0.194788779239,0.343014926149,0.0741130734554,0.287818986457,34,1.0,0.0514419701458,-1.0,nan,nan,nan,nan,0.0,0.0,0.0,nan,224.102686249,516.185835884,516.685861543,516.449505184,nan,nan,nan,nan
1,256,1,1,1.0,1.0,0.287518017925,0,0.0,0.0,0.0,0.268881252094,0.073967763489,0.194913488605,0.342849015583,0.073967763489,0.284998798743,196,1.0,-0.0413610816081,0.449130757868,nan,nan,nan,nan,0.0,0.0,0.0,nan,224.102686249,517.18595648,517.685978718,517.473474498,nan,nan,nan,nan
1,257,1,1,1.0,1.0,0.287388013676,0,0.0,0.0,0.0,0.26895433745,0.0738317747633,0.195122562687,0.342786112214,0.0738317747633,0.279525110653,60,1.0,-0.0867837676833,-1.0,nan,nan,nan,nan,0.0,0.0,0.0,nan,224.102686249,518.186092187,518.686098174,518.4734802,nan,nan,nan,nan
1,258,1,1,1.0,1.0,0.303248290438,0,0.0,0.0,0.0,0.269026343998,0.0736964018444,0.195329942154,0.342722745843,0.0736964018444,0.292718107346,298,0.0600896634305,0.391050340636,0.53969689008,nan,nan,nan,nan,0.0,0.0,0.0,nan,224.102686249,519.186219911,519.686226468,519.489468201,nan,nan,nan,nan
1,259,1,1,1.0,1.0,0.300753969699,0,0.0,0.0,0.0,0.269159503323,0.0735837343968,0.195575768926,0.34274323772,0.0735837343968,0.297130091271,148,1.0,-0.272695592461,0.0444264621409,nan,nan,nan,nan,0.0,0.0,0.0,nan,224.102686249,520.244710295,520.744694329,520.545464265,nan,nan,nan,nan
1,260,1,1,1.0,1.0,0.276599911973,0,0.0,0.0,0.0,0.269281962495,0.0734672261211,0.195814736374,0.342749188616,0.0734672261211,0.29353405737,299,0.0516645560415,0.393417669654,0.534378752182,nan,nan,nan,nan,0.0,0.0,0.0,nan,224.102686249,521.244804947,521.744824904,521.521404859,nan,nan,nan,nan
1,261,1,1,1.0,1.0,0.276487868745,0,0.0,0.0,0.0,0.269310217126,0.0733266648001,0.195983552326,0.342636881926,0.0733266648001,0.284613916806,376,-0.124962824795,0.478704673615,-0.132627625282,nan,nan,nan,nan,0.0,0.0,0.0,nan,224.102686249,522.244925544,522.744952343,522.521413412,nan,nan,nan,nan
1,262,1,1,1.0,1.0,0.242990585044,0,0.0,0.0,0.0,0.269337823478,0.0731868646565,0.196150958822,0.342524688135,0.0731868646565,0.265359455254,22,1.0,0.111842423158,-1.0,nan,nan,nan,nan,0.0,0.0,0.0,nan,224.102686249,523.278412564,523.778413419,523.521403149,nan,nan,nan,nan
1,263,1,1,1.0,1.0,0.402827258222,0,0.0,0.0,0.0,0.269236876205,0.0730646587744,0.19617221743,0.342301534979,0.0730646587744,0.307435237337,149,1.0,-0.269478519393,0.0541436597792,nan,nan,nan,nan,0.0,0.0,0.0,nan,224.102686249,524.27853202,524.778542568,524.681359278,nan,nan,nan,nan
1,264,0,0,0.0,1.0,0.418691811617,0,0.0,0.0,0.0,0.269746763159,0.0733888590202,0.196357904139,0.343135622179,0.0733888590202,0.354836551628,209,0.967301840512,0.0304835193525,0.52804999659,nan,nan,nan,nan,0.0,0.0,0.0,nan,224.102686249,525.278666016,525.778698232,525.697357827,nan,nan,nan,nan
1,265,1,1,1.0,1.0,0.290581964422,0,0.0,0.0,0.0,0.270313094142,0.073820574993,0.196492519149,0.344133669135,0.073820574993,0.370700344754,395,-0.0383984177995,0.474183508328,-0.351427224487,nan,nan,nan,nan,0.0,0.0,0.0,nan,224.102686249,526.278763234,526.778802007,526.569345199,nan,nan,nan,nan
1,266,0,0,1.0,0.0,0.282365445513,0,0.0,0.0,0.0,0.270389870165,0.0736911500899,0.196698720076,0.344081020255,0.0736911500899,0.330546407184,312,-0.0464483572634,0.420925197877,0.455573212045,nan,nan,nan,nan,0.0,0.0,0.0,nan,224.102686249,527.278943131,527.778953394,527.561308576,nan,nan,nan,nan
1,267,1,1,1.0,1.0,0.234293106012,0,0.0,0.0,0.0,0.270435061016,0.0735556437308,0.196879417285,0.343990704747,0.0735556437308,0.269080171982,368,-0.150457169737,0.477793263397,-0.0457341785459,nan,nan,nan,nan,0.0,0.0,0.0,nan,224.102686249,528.279016116,528.779088246,528.513309222,nan,nan,nan,nan
1,268,1,1,1.0,1.0,0.282120260876,0,0.0,0.0,0.0,0.270299189005,0.0734505614064,0.196848627598,0.343749750411,0.0734505614064,0.266259604134,169,1.0,-0.185917379452,0.239118302078,nan,nan,nan,nan,0.0,0.0,0.0,nan,224.102686249,529.279146976,529.77917577,529.561267237,nan,nan,nan,nan
1,269,1,1,1.0,1.0,0.28199282242,0,0.0,0.0,0.0,0.270343462682,0.0733164404269,0.197027022255,0.343659903109,0.0733164404269,0.266135396436,413,0.0683106243366,0.461143133648,-0.585495598612,nan,nan,nan,nan,0.0,0.0,0.0,nan,224.102686249,530.279281827,530.779307201,530.56127465,nan,nan,nan,nan
1,270,1,1,1.0,1.0,0.289847552776,0,0.0,0.0,0.0,0.270386930442,0.0731829749861,0.197203955456,0.343569905428,0.0731829749861,0.284653545357,357,-0.1717918326,0.473767524415,0.068739031695,nan,nan,nan,nan,0.0,0.0,0.0,nan,224.102686249,531.279395296,531.779434639,531.569242849,nan,nan,nan,nan
1,271,1,1,1.0,1.0,0.321692408994,0,0.0,0.0,0.0,0.270459274763,0.0730564207746,0.197402853989,0.343515695538,0.0730564207746,0.297844261397,129,1.0,-0.310070485259,-0.146368003411,nan,nan,nan,nan,0.0,0.0,0.0,nan,224.102686249,532.279527296,532.779562933,532.601219705,nan,nan,nan,nan
1,272,1,1,1.0,1.0,0.305552165955,0,0.0,0.0,0.0,0.270649027112,0.0729873869937,0.197661640118,0.343636414106,0.0729873869937,0.305697375908,27,1.0,0.0870912575778,-1.0,nan,nan,nan,nan,0.0,0.0,0.0,nan,224.102686249,533.279684385,533.779722018,533.585236551,nan,nan,nan,nan
1,273,1,1,1.0,1.0,0.337412132882,0,0.0,0.0,0.0,0.270777820982,0.0728833312261,0.197894489756,0.343661152208,0.0728833312261,0.321552235944,140,1.0,-0.294209249228,-0.0345777392028,nan,nan,nan,nan,0.0,0.0,0.0,nan,224.102686249,534.279789301,534.779811824,534.617201434,nan,nan,nan,nan
1,274,1,1,1.0,1.0,0.297225028742,0,0.0,0.0,0.0,0.27102280007,0.0728609266389,0.198161873431,0.343883726709,0.0728609266389,0.313396442526,414,0.0747837862165,0.460162189034,-0.600089175003,nan,nan,nan,nan,0.0,0.0,0.0,nan,224.102686249,535.279940118,535.779940118,535.577165147,nan,nan,nan,nan
1,275,1,1,1.0,1.0,0.297104717698,0,0.0,0.0,0.0,0.27111877893,0.0727445835621,0.198374195368,0.343863362492,0.0727445835621,0.310580626441,324,-0.114799643766,0.441158325109,0.368064040095,nan,nan,nan,nan,0.0,0.0,0.0,nan,224.102686249,536.28003477,536.780074399,536.577139488,nan,nan,nan,nan
1,276,1,1,1.0,1.0,0.296965874732,0,0.0,0.0,0.0,0.271213618122,0.0726286230299,0.198584995093,0.343842241152,0.0726286230299,0.297098540391,248,0.568115903494,0.223728204869,0.653295769881,nan,nan,nan,nan,0.0,0.0,0.0,nan,224.102686249,537.280161069,537.780204974,537.577126944,nan,nan,nan,nan
1,277,1,1,1.0,1.0,0.280801113695,0,0.0,0.0,0.0,0.271307262692,0.0725130206029,0.198794242089,0.343820283295,0.0725130206029,0.291623902041,351,-0.175686286722,0.4701852659,0.128489978773,nan,nan,nan,nan,0.0,0.0,0.0,nan,224.102686249,538.280314166,538.780322719,538.56111528,nan,nan,nan,nan
1,278,1,1,1.0,1.0,0.296726392582,0,0.0,0.0,0.0,0.271341660703,0.0723837849115,0.198957875791,0.343725445614,0.0723837849115,0.29149779367,49,1.0,-0.027785429985,-1.0,nan,nan,nan,nan,0.0,0.0,0.0,nan,224.102686249,539.280409674,539.780454434,539.577136067,nan,nan,nan,nan
1,279,1,1,1.0,1.0,0.246488735545,0,0.0,0.0,0.0,0.271433302334,0.072269048508,0.199164253826,0.343702350842,0.072269048508,0.274672080607,278,0.248285521772,0.335802812283,0.621962573991,nan,nan,nan,nan,0.0,0.0,0.0,nan,224.102686249,540.330597439,540.830609414,540.577086175,nan,nan,nan,nan
1,280,0,0,1.0,0.0,0.246370704845,0,0.0,0.0,0.0,0.271343573677,0.0721544070577,0.199189166619,0.343497980734,0.0721544070577,0.263195277657,163,1.0,-0.214247802105,0.185723682048,nan,nan,nan,nan,0.0,0.0,0.0,nan,224.102686249,541.330707487,541.830741984,541.577078192,nan,nan,nan,nan
1,281,1,1,1.0,1.0,0.182219703216,0,0.0,0.0,0.0,0.271254065186,0.0720404421509,0.199213623035,0.343294507337,0.0720404421509,0.225026381202,357,-0.1717918326,0.473767524415,0.068739031695,nan,nan,nan,nan,0.0,0.0,0.0,nan,224.102686249,542.330830649,542.830880542,542.513050353,nan,nan,nan,nan
1,282,0,0,1.0,0.0,0.23805753747,0,0.0,0.0,0.0,0.270936085322,0.0721075602004,0.198828525122,0.343043645522,0.0721075602004,0.222215981844,444,0.289241202529,0.417409780569,-1.0,nan,nan,nan,nan,0.0,0.0,0.0,nan,224.102686249,543.330981181,543.831001138,543.569038718,nan,nan,nan,nan
1,283,1,1,1.0,1.0,0.197931729257,0,0.0,0.0,0.0,0.270819079814,0.0720057633763,0.198813316437,0.34282484319,0.0720057633763,0.206069656648,31,1.0,0.0668515730764,-1.0,nan,nan,nan,nan,0.0,0.0,0.0,nan,224.102686249,544.33108068,544.83112373,544.52901241,nan,nan,nan,nan
1,284,1,1,1.0,1.0,0.221800689586,0,0.0,0.0,0.0,0.270560614032,0.0720084447761,0.198552169255,0.342569058808,0.0720084447761,0.219263318771,362,-0.164239727892,0.476000155386,0.0174578511848,nan,nan,nan,nan,0.0,0.0,0.0,nan,224.102686249,545.331195004,545.831252024,545.552995694,nan,nan,nan,nan
1,285,1,1,1.0,1.0,0.229666538537,0,0.0,0.0,0.0,0.270388317479,0.0719393166594,0.198449000819,0.342327634138,0.0719393166594,0.216466319126,406,0.0244967455079,0.467245700284,-0.489366101921,nan,nan,nan,nan,0.0,0.0,0.0,nan,224.102686249,546.331307618,546.831381744,546.560974156,nan,nan,nan,nan
1,286,1,1,1.0,1.0,0.341528660152,0,0.0,0.0,0.0,0.270244930933,0.071853050818,0.198391880115,0.342097981751,0.071853050818,0.264331962758,91,1.0,-0.237709898716,-0.562722318432,nan,nan,nan,nan,0.0,0.0,0.0,nan,224.102686249,547.331431351,547.831477536,547.672960011,nan,nan,nan,nan
1,287,1,1,1.0,1.0,0.285341296345,0,0.0,0.0,0.0,0.270495049281,0.0718506257441,0.198644423537,0.342345675025,0.0718506257441,0.285512165011,290,0.131265381085,0.370776544741,0.578206616232,nan,nan,nan,nan,0.0,0.0,0.0,nan,224.102686249,548.331594427,548.831599558,548.616935723,nan,nan,nan,nan
1,288,1,1,1.0,1.0,0.309167491738,0,0.0,0.0,0.0,0.270546959236,0.0717302561718,0.198816703064,0.342277215408,0.0717302561718,0.312012482745,124,1.0,-0.311577186586,-0.198226518473,nan,nan,nan,nan,0.0,0.0,0.0,nan,224.102686249,549.331734695,549.831749235,549.640902186,nan,nan,nan,nan
1,289,1,1,1.0,1.0,0.277064906433,0,0.0,0.0,0.0,0.270681525551,0.0716413353846,0.199040190167,0.342322860936,0.0716413353846,0.290524564839,454,0.367627362238,0.397084843583,-1.0,nan,nan,nan,nan,0.0,0.0,0.0,nan,224.102686249,550.331838755,550.831865555,550.608903662,nan,nan,nan,nan
1,290,1,1,1.0,1.0,0.268910823856,0,0.0,0.0,0.0,0.270703690068,0.0715178356399,0.199185854428,0.342221525708,0.0715178356399,0.285047740676,382,-0.1011887567,0.478291136399,-0.199732273247,nan,nan,nan,nan,0.0,0.0,0.0,nan,224.102686249,551.331974177,551.831988147,551.600885001,nan,nan,nan,nan
1,291,1,1,1.0,1.0,0.236760627478,0,0.0,0.0,0.0,0.270697486379,0.0713940727638,0.199303413615,0.342091559143,0.0713940727638,0.260912119256,328,-0.132159558243,0.44685796506,0.336046158271,nan,nan,nan,nan,0.0,0.0,0.0,nan,224.102686249,552.332105322,552.832122428,552.568865949,nan,nan,nan,nan
1,292,1,1,1.0,1.0,0.260681760032,0,0.0,0.0,0.0,0.270580462728,0.0712986331743,0.199281829553,0.341879095902,0.0712986331743,0.255451070455,150,1.0,-0.266152531622,0.0638227105866,nan,nan,nan,nan,0.0,0.0,0.0,nan,224.102686249,553.332234471,553.832252147,553.592916231,nan,nan,nan,nan
1,293,1,1,1.0,1.0,0.26847718982,0,0.0,0.0,0.0,0.270546446567,0.0711783787114,0.199368067856,0.341724825279,0.0711783787114,0.255306525777,264,0.394966959701,0.287889713878,0.650717615019,nan,nan,nan,nan,0.0,0.0,0.0,nan,224.102686249,554.33236077,554.832370748,554.600837959,nan,nan,nan,nan
1,294,1,1,1.0,1.0,0.228351952508,0,0.0,0.0,0.0,0.270539360071,0.0710564962275,0.199482863844,0.341595856299,0.0710564962275,0.25250363412,3,0.871087178923,0.199335109687,-1.0,nan,nan,nan,nan,0.0,0.0,0.0,nan,224.102686249,555.332481366,555.832525841,555.560833318,nan,nan,nan,nan
1,295,1,1,1.0,1.0,0.24253328843,0,0.0,0.0,0.0,0.270395375745,0.0709777928695,0.199417582876,0.341373168615,0.0709777928695,0.246454143586,54,1.0,-0.0546292063271,-1.0,nan,nan,nan,nan,0.0,0.0,0.0,nan,224.102686249,556.374307212,556.874317761,556.6168405,nan,nan,nan,nan
1,296,1,1,1.0,1.0,0.250374618452,0,0.0,0.0,0.0,0.270300606741,0.0708755460469,0.199425060694,0.341176152788,0.0708755460469,0.24041995313,448,0.32026743599,0.409662251776,-1.0,nan,nan,nan,nan,0.0,0.0,0.0,nan,224.102686249,557.374407852,557.874424958,557.62478247,nan,nan,nan,nan
1,297,1,1,1.0,1.0,0.234239791986,0,0.0,0.0,0.0,0.270233061018,0.0707647942049,0.199468266813,0.340997855223,0.0707647942049,0.242382566289,374,-0.132039125116,0.478634076427,-0.110628443238,nan,nan,nan,nan,0.0,0.0,0.0,nan,224.102686249,558.374523317,558.874552111,558.608763108,nan,nan,nan,nan
1,298,1,1,1.0,1.0,0.218077311292,0,0.0,0.0,0.0,0.270111462136,0.0706760234928,0.199435438643,0.340787485629,0.0706760234928,0.23423057391,470,0.497741612616,0.357740777197,-1.0,nan,nan,nan,nan,0.0,0.0,0.0,nan,224.102686249,559.374651325,559.874677839,559.592728637,nan,nan,nan,nan
1,299,1,1,1.0,1.0,0.217987505719,0,0.0,0.0,0.0,0.269936262975,0.0706212958113,0.199314967164,0.340557558786,0.0706212958113,0.223434869666,229,0.770397026975,0.135265939772,0.614681466938,nan,nan,nan,nan,0.0,0.0,0.0,nan,224.102686249,560.374805563,560.874836639,560.592793069,nan,nan,nan,nan
1,300,1,1,1.0,1.0,0.329794033896,0,0.0,0.0,0.0,0.269761938286,0.0705666837227,0.199195254563,0.340328622009,0.0705666837227,0.255286283636,104,1.0,-0.282351481576,-0.412644567278,nan,nan,nan,nan,0.0,0.0,0.0,nan,224.102686249,561.374909054,561.874931576,561.704703087,nan,nan,nan,nan
1,301,1,1,1.0,1.0,0.273673953023,0,0.0,0.0,0.0,0.269962714526,0.0705337875644,0.199428926961,0.34049650209,0.0705337875644,0.273818497546,375,-0.128556699755,0.478682433309,-0.121605159467,nan,nan,nan,nan,0.0,0.0,0.0,nan,224.102686249,562.375028795,562.875061011,562.648702748,nan,nan,nan,nan
1,302,0,0,0.0,1.0,0.385494736023,0,0.0,0.0,0.0,0.269975085321,0.0704164580347,0.199558627286,0.340391543355,0.0704164580347,0.329654240981,473,0.522594813828,0.349396171415,-1.0,nan,nan,nan,nan,0.0,0.0,0.0,nan,224.102686249,563.375183888,563.875212398,563.760678624,nan,nan,nan,nan
1,303,1,1,1.0,1.0,0.313370118383,0,0.0,0.0,0.0,0.270358871536,0.0706129717008,0.199745899835,0.340971843236,0.0706129717008,0.324179602476,306,-0.00395437407881,0.408974006242,0.494128827808,nan,nan,nan,nan,0.0,0.0,0.0,nan,224.102686249,564.375289944,564.875340407,564.688660063,nan,nan,nan,nan
1,304,1,1,1.0,1.0,0.297202506103,0,0.0,0.0,0.0,0.270501292883,0.0705392560176,0.199962036865,0.3410405489,0.0705392560176,0.332022453503,422,0.128328379107,0.451313674078,-0.730894888444,nan,nan,nan,nan,0.0,0.0,0.0,nan,224.102686249,565.375420519,565.875443897,565.672623025,nan,nan,nan,nan
1,305,1,1,1.0,1.0,0.345027381089,0,0.0,0.0,0.0,0.270589415699,0.0704394074499,0.200150008249,0.341028823149,0.0704394074499,0.318533335192,127,1.0,-0.31111021432,-0.167036648065,nan,nan,nan,nan,0.0,0.0,0.0,nan,224.102686249,566.375585021,566.875586446,566.720612402,nan,nan,nan,nan
1,306,1,1,1.0,1.0,0.336937159766,0,0.0,0.0,0.0,0.270834277427,0.0704525071137,0.200381770313,0.341286784541,0.0704525071137,0.326389015652,331,-0.143297839787,0.450801753776,0.311166711333,nan,nan,nan,nan,0.0,0.0,0.0,nan,224.102686249,567.375659716,567.875697634,567.712596876,nan,nan,nan,nan
1,307,1,1,1.0,1.0,0.312745183706,0,0.0,0.0,0.0,0.271051008189,0.0704383514935,0.200612656695,0.341489359682,0.0704383514935,0.331569908187,414,0.0747837862165,0.460162189034,-0.600089175003,nan,nan,nan,nan,0.0,0.0,0.0,nan,224.102686249,568.375831916,568.875837332,568.688577099,nan,nan,nan,nan
1,308,1,1,1.0,1.0,0.336616994813,0,0.0,0.0,0.0,0.271187263664,0.0703634109638,0.2008238527,0.341550674628,0.0703634109638,0.328766446095,119,1.0,-0.309446327048,-0.250710895617,nan,nan,nan,nan,0.0,0.0,0.0,nan,224.102686249,569.375944814,569.875949376,569.712561809,nan,nan,nan,nan
1,309,1,1,1.0,1.0,0.320475326385,0,0.0,0.0,0.0,0.271400389824,0.0703475792046,0.20105281062,0.341747969029,0.0703475792046,0.323279168302,35,1.0,0.0462653595507,-1.0,nan,nan,nan,nan,0.0,0.0,0.0,nan,224.102686249,570.37606484,570.876089074,570.696540167,nan,nan,nan,nan
1,310,1,1,1.0,1.0,0.312322384212,0,0.0,0.0,0.0,0.271559724034,0.0702887498472,0.201270974187,0.341848473881,0.0702887498472,0.323138235137,230,0.760023132926,0.140224214653,0.61781109556,nan,nan,nan,nan,0.0,0.0,0.0,nan,224.102686249,571.37619399,571.876205109,571.688516374,nan,nan,nan,nan
1,311,1,1,1.0,1.0,0.42418022966,0,0.0,1.0,0.0,0.271691642028,0.0702131012057,0.201478540822,0.341904743234,0.0702131012057,0.352325980086,108,1.0,-0.292426609412,-0.368663285579,nan,nan,nan,nan,0.0,0.0,0.0,nan,224.102686249,572.37632542,572.876325705,572.800505649,nan,nan,nan,nan
1,312,1,1,1.0,1.0,0.304064810742,1,0.0,0.0,1.0,0.272183540698,0.0706310393005,0.201552501397,0.342814579998,0.0706310393005,0.346855808205,235,0.707591924495,0.164537776567,0.631659631194,-68.2922875348,158.292287535,-6.94208746519,225.0,0.81146624694,0.115131125244,0.600981946568,2.60898035346,224.102686249,573.37644345,573.876473956,573.680508261,577.818642718,578.815960802,575.193303451,577.810309593
1,313,1,1,1.0,1.0,0.349888583645,0,0.0,0.0,0.0,0.27228605282,0.0705404879769,0.201745564843,0.342826540797,0.0705404879769,0.359377874682,158,1.0,-0.235949227405,0.139764106,nan,nan,nan,nan,0.0,0.0,0.0,nan,224.102686249,579.010506425,579.510511557,579.360395009,nan,nan,nan,nan
1,314,1,1,1.0,1.0,0.269798332825,0,0.0,0.0,0.0,0.27253477888,0.0705638133888,0.201970965492,0.343098592269,0.0705638133888,0.307917242404,216,0.900975005756,0.0682271079607,0.563426584804,nan,nan,nan,nan,0.0,0.0,0.0,nan,224.102686249,580.010626166,580.510639566,580.280424499,nan,nan,nan,nan
1,315,1,1,1.0,1.0,0.211545720696,0,0.0,0.0,0.0,0.272526036241,0.0704511707121,0.202074865529,0.342977206953,0.0704511707121,0.277077545722,0,0.846831709088,0.212097570855,-1.0,nan,nan,nan,nan,0.0,0.0,0.0,nan,224.102686249,581.060797396,581.560806519,581.272343116,nan,nan,nan,nan
1,316,1,1,1.0,1.0,0.251503035426,0,0.0,0.0,0.0,0.272331831415,0.0704227627126,0.201909068702,0.342754594127,0.0704227627126,0.244282362983,298,0.0600896634305,0.391050340636,0.53969689008,nan,nan,nan,nan,0.0,0.0,0.0,nan,224.102686249,582.060878934,582.560916852,582.312381969,nan,nan,nan,nan
1,317,1,1,1.0,1.0,0.243320443202,0,0.0,0.0,0.0,0.272265708253,0.0703206540368,0.201945054216,0.34258636229,0.0703206540368,0.235456399775,123,1.0,-0.311441137266,-0.208672863777,nan,nan,nan,nan,0.0,0.0,0.0,nan,224.102686249,583.061012644,583.561031176,583.304333088,nan,nan,nan,nan
1,318,1,1,1.0,1.0,0.219225686044,0,0.0,0.0,0.0,0.272174109313,0.0702281185352,0.201945990778,0.342402227848,0.0702281185352,0.238016388224,39,1.0,0.0253789930673,-1.0,nan,nan,nan,nan,0.0,0.0,0.0,nan,224.102686249,584.061119271,584.561155763,584.280344957,nan,nan,nan,nan
1,319,1,1,1.0,1.0,0.243033349514,0,0.0,0.0,0.0,0.272007079586,0.0701800995365,0.20182698005,0.342187179123,0.0701800995365,0.235193159586,292,0.112881669716,0.376069582356,0.569261850688,nan,nan,nan,nan,0.0,0.0,0.0,nan,224.102686249,585.061259824,585.561283772,585.304293174,nan,nan,nan,nan
1,320,1,1,1.0,1.0,0.242972053587,0,0.0,0.0,0.0,0.271915967228,0.0700884422586,0.201827524969,0.342004409486,0.0700884422586,0.235077029715,481,0.589289488337,0.325611856148,-1.0,nan,nan,nan,nan,0.0,0.0,0.0,nan,224.102686249,586.061374719,586.561420335,586.304346772,nan,nan,nan,nan
1,321,0,0,0.0,1.0,0.386713529006,0,0.0,0.0,0.0,0.271825233956,0.0699972023785,0.201828031578,0.341822436335,0.0699972023785,0.290906310702,200,1.0,-0.0191209939188,0.47515178387,nan,nan,nan,nan,0.0,0.0,0.0,nan,224.102686249,587.061540076,587.561563169,587.448253605,nan,nan,nan,nan
1,322,1,1,1.0,1.0,0.33058717614,0,0.0,0.0,0.0,0.272184259878,0.0701813083463,0.202002951532,0.342365568224,0.0701813083463,0.320090919578,436,0.228681708805,0.431413732101,-1.0,nan,nan,nan,nan,0.0,0.0,0.0,nan,224.102686249,588.061652119,588.56168633,588.392239295,nan,nan,nan,nan
1,323,1,1,1.0,1.0,0.282475493383,0,0.0,0.0,0.0,0.272366200427,0.0701474505758,0.202218749851,0.342513651003,0.0701474505758,0.333258732843,39,1.0,0.0253789930673,-1.0,nan,nan,nan,nan,0.0,0.0,0.0,nan,224.102686249,589.061776706,589.561794098,589.3442522,nan,nan,nan,nan
1,324,1,1,1.0,1.0,0.274304018822,0,0.0,0.0,0.0,0.272397595747,0.0700406999775,0.202356895769,0.342438295724,0.0700406999775,0.295788896115,498,0.731507943485,0.267561876527,-1.0,nan,nan,nan,nan,0.0,0.0,0.0,nan,224.102686249,590.061903575,590.561952042,590.336207594,nan,nan,nan,nan
1,325,0,0,0.0,1.0,0.402149580419,0,0.0,0.0,0.0,0.272403497986,0.0699322739945,0.202471223991,0.34233577198,0.0699322739945,0.319643030874,337,-0.160643365934,0.457858386897,0.259303564052,nan,nan,nan,nan,0.0,0.0,0.0,nan,224.102686249,591.06203415,591.562072638,591.464183731,nan,nan,nan,nan
1,326,1,1,1.0,1.0,0.330023537856,0,0.0,0.0,0.0,0.272803948857,0.0701941971272,0.20260975173,0.342998145984,0.0701941971272,0.335492379032,136,1.0,-0.301914900238,-0.074841205769,nan,nan,nan,nan,0.0,0.0,0.0,nan,224.102686249,592.062157597,592.562200647,592.392181135,nan,nan,nan,nan
1,327,0,0,0.0,1.0,0.393859221134,0,0.0,0.0,0.0,0.272980009131,0.070157734544,0.202822274587,0.343137743675,0.070157734544,0.375344113136,15,0.965734432428,0.145352784795,-1.0,nan,nan,nan,nan,0.0,0.0,0.0,nan,224.102686249,593.062299861,593.562335499,593.456159082,nan,nan,nan,nan
1,328,1,1,1.0,1.0,0.35372628551,0,0.0,0.0,0.0,0.27335080426,0.0703682681355,0.202982536125,0.343719072395,0.0703682681355,0.359203014833,358,-0.170583909915,0.474268316859,0.0585874414746,nan,nan,nan,nan,0.0,0.0,0.0,nan,224.102686249,594.062417892,594.5624273,594.416144177,nan,nan,nan,nan
1,329,0,0,0.0,1.0,0.385559168179,0,0.0,0.0,0.0,0.273596600839,0.0704006105811,0.203195990258,0.34399721142,0.0704006105811,0.377714891608,270,0.331159066004,0.309369715406,0.641393874915,nan,nan,nan,nan,0.0,0.0,0.0,nan,224.102686249,595.062561581,595.562583534,595.448120749,nan,nan,nan,nan
1,330,1,1,1.0,1.0,0.281456553377,0,0.0,0.0,0.0,0.273937950129,0.070563710842,0.203374239287,0.344501660971,0.070563710842,0.340247335689,65,1.0,-0.113312155659,-1.0,nan,nan,nan,nan,0.0,0.0,0.0,nan,224.102686249,596.062648536,596.562684743,596.344105089,nan,nan,nan,nan
1,331,1,1,1.0,1.0,0.262266334146,0,0.0,0.0,0.0,0.273960803027,0.070457605179,0.203503197848,0.344418408206,0.070457605179,0.309760685234,214,0.920243657418,0.0575410437433,0.553854850604,nan,nan,nan,nan,0.0,0.0,0.0,nan,224.102686249,597.137807734,597.637843086,597.400074068,nan,nan,nan,nan
1,332,0,0,1.0,0.0,0.254127646331,0,0.0,0.0,0.0,0.273925365242,0.0703537066747,0.203571658568,0.344279071917,0.0703537066747,0.265950177951,418,0.101175887384,0.455961754156,-0.661679309199,nan,nan,nan,nan,0.0,0.0,0.0,nan,224.102686249,598.137944581,598.637979078,598.392072228,nan,nan,nan,nan
1,333,1,1,1.0,1.0,0.180024450179,0,0.0,0.0,0.0,0.273865553403,0.0702557541844,0.203609799218,0.344121307587,0.0702557541844,0.232139476885,343,-0.171388175652,0.463836419185,0.204822810802,nan,nan,nan,nan,0.0,0.0,0.0,nan,224.102686249,599.188074472,599.688084165,599.368098922,nan,nan,nan,nan
1,334,1,1,1.0,1.0,0.219815838151,0,0.0,0.0,0.0,0.273582899477,0.0703381018911,0.203244797586,0.343921001368,0.0703381018911,0.217989311554,17,0.981069150956,0.135921910835,-1.0,nan,nan,nan,nan,0.0,0.0,0.0,nan,224.102686249,600.188195924,600.688239544,600.408011762,nan,nan,nan,nan
1,335,1,1,1.0,1.0,0.243690500036,0,0.0,0.0,0.0,0.273421436831,0.070294001711,0.20312743512,0.343715438542,0.070294001711,0.214510262789,396,-0.0330153705648,0.473684876347,-0.363523780775,nan,nan,nan,nan,0.0,0.0,0.0,nan,224.102686249,601.188320796,601.68834503,601.432011297,nan,nan,nan,nan
1,336,1,1,1.0,1.0,0.291554433294,0,0.0,0.0,0.0,0.27333242205,0.0702074860255,0.203124936024,0.343539908075,0.0702074860255,0.251686923827,293,0.103830259013,0.378659598285,0.564617056734,nan,nan,nan,nan,0.0,0.0,0.0,nan,224.102686249,602.188429704,602.688469333,602.479984137,nan,nan,nan,nan
1,337,1,1,1.0,1.0,0.291397059336,0,0.0,0.0,0.0,0.273386816113,0.0701096683759,0.203277147737,0.343496484489,0.0701096683759,0.275547330889,239,0.665069831863,0.183388857662,0.640549267122,nan,nan,nan,nan,0.0,0.0,0.0,nan,224.102686249,603.18857881,603.688589074,603.479975869,nan,nan,nan,nan
1,338,1,1,1.0,1.0,0.291289577261,0,0.0,0.0,0.0,0.273440418028,0.0700121349899,0.203428283038,0.343452553018,0.0700121349899,0.291413689964,436,0.228681708805,0.431413732101,-1.0,nan,nan,nan,nan,0.0,0.0,0.0,nan,224.102686249,604.188682871,604.688715942,604.479972448,nan,nan,nan,nan
1,339,1,1,1.0,1.0,0.24314995436,0,0.0,0.0,0.0,0.273493382892,0.0699149234272,0.203578459465,0.343408306319,0.0699149234272,0.275278863652,297,0.0686262056446,0.388646276542,0.544904663634,nan,nan,nan,nan,0.0,0.0,0.0,nan,224.102686249,605.188813446,605.688876167,605.4319634,nan,nan,nan,nan
1,340,1,1,1.0,1.0,0.227016268764,0,0.0,0.0,0.0,0.273403609435,0.0698308718908,0.203572737544,0.343234481325,0.0698308718908,0.253818600128,80,1.0,-0.189075709245,-0.708965549488,nan,nan,nan,nan,0.0,0.0,0.0,nan,224.102686249,606.188948297,606.688978232,606.415964566,nan,nan,nan,nan
1,341,1,1,1.0,1.0,0.234807707369,0,0.0,0.0,0.0,0.273266773621,0.0697731673297,0.203493606292,0.343039940951,0.0697731673297,0.234991310164,252,0.524721685615,0.240693665738,0.655694012224,nan,nan,nan,nan,0.0,0.0,0.0,nan,224.102686249,607.189088565,607.68910453,607.423896272,nan,nan,nan,nan
1,342,1,1,1.0,1.0,0.234711914323,0,0.0,0.0,0.0,0.273153658721,0.0697016058879,0.203452052833,0.342855264609,0.0697016058879,0.232178630152,310,-0.032854544558,0.417080732083,0.468828018046,nan,nan,nan,nan,0.0,0.0,0.0,nan,224.102686249,608.189215148,608.689238241,608.423927063,nan,nan,nan,nan
1,343,1,1,1.0,1.0,0.218540025409,0,0.0,0.0,0.0,0.273040926332,0.0696303635613,0.203410562771,0.342671289894,0.0696303635613,0.229353215701,495,0.706485112283,0.278551693791,-1.0,nan,nan,nan,nan,0.0,0.0,0.0,nan,224.102686249,609.189318354,609.689356272,609.407858379,nan,nan,nan,nan
1,344,1,1,1.0,1.0,0.210391359404,0,0.0,0.0,0.0,0.272881566973,0.0695907378263,0.203290829147,0.342472304799,0.0695907378263,0.221214433045,209,0.967301840512,0.0304835193525,0.52804999659,nan,nan,nan,nan,0.0,0.0,0.0,nan,224.102686249,610.189480289,610.68949768,610.399871649,nan,nan,nan,nan
1,345,1,1,1.0,1.0,0.210241112858,0,0.0,0.0,0.0,0.272699379779,0.0695708513516,0.203128528427,0.342270231131,0.0695708513516,0.213057499224,321,-0.0999433513493,0.43654647086,0.391174984052,nan,nan,nan,nan,0.0,0.0,0.0,nan,224.102686249,611.189581499,611.689620272,611.399822612,nan,nan,nan,nan
1,346,0,0,1.0,0.0,0.162084099371,0,0.0,0.0,0.0,0.27251781505,0.0695509923903,0.202966822659,0.34206880744,0.0695509923903,0.194238857211,194,1.0,-0.0524864644427,0.435571704399,nan,nan,nan,nan,0.0,0.0,0.0,nan,224.102686249,612.189728895,612.689784489,612.351812994,nan,nan,nan,nan
1,347,1,1,1.0,1.0,0.0899654692039,0,0.0,0.0,0.0,0.272197717323,0.0697034173073,0.202494300016,0.34190113463,0.0697034173073,0.154096893811,364,-0.160194321586,0.476704516321,-0.00341124574885,nan,nan,nan,nan,0.0,0.0,0.0,nan,224.102686249,613.189842078,613.689908221,613.279807548,nan,nan,nan,nan
1,348,1,1,1.0,1.0,0.20981631754,0,0.0,0.0,0.0,0.271671034525,0.0702867375861,0.201384296939,0.341957772111,0.0702867375861,0.153955295372,287,0.159501648714,0.36255249221,0.590751920292,nan,nan,nan,nan,0.0,0.0,0.0,nan,224.102686249,614.189953837,614.689998312,614.399770154,nan,nan,nan,nan
1,349,1,1,1.0,1.0,0.231929359492,0,1.0,0.0,0.0,0.271492778856,0.0702636655627,0.201229113294,0.341756444419,0.0702636655627,0.177237048745,130,1.0,-0.309333154106,-0.136071487739,nan,nan,nan,nan,0.0,0.0,0.0,nan,224.102686249,615.231812184,615.731794508,615.463741544,nan,nan,nan,nan
1,350,1,1,1.0,1.0,0.24785349844,1,0.0,0.0,1.0,0.27137909087,0.0701945932885,0.201184497581,0.341573684158,0.0701945932885,0.229866391824,246,0.589768841079,0.215019897151,0.651339528662,-84.0938588862,174.093858886,1.12510888623,248.0,0.568115903494,0.223728204869,0.653295769881,1.77561689448,224.102686249,616.231876331,616.731920807,616.47972983,619.857314812,620.85722301,618.065415695,619.848985679
1,351,1,1,1.0,1.0,0.326174716931,0,0.0,0.0,0.0,0.271311682295,0.0701052346563,0.201206447639,0.341416916952,0.0701052346563,0.268652524954,144,1.0,-0.284423189345,0.00519445478499,nan,nan,nan,nan,0.0,0.0,0.0,nan,224.102686249,621.057494252,621.557542434,621.383668969,nan,nan,nan,nan
1,352,1,1,1.0,1.0,0.294009410311,0,0.0,0.0,0.0,0.271468433823,0.0700662336233,0.2014022002,0.341534667446,0.0700662336233,0.289345875227,226,0.801265930663,0.120208988367,0.60458276857,nan,nan,nan,nan,0.0,0.0,0.0,nan,224.102686249,622.057622546,622.557670728,622.351631957,nan,nan,nan,nan
1,353,1,1,1.0,1.0,0.2858596039,0,0.0,0.0,0.0,0.271532653129,0.0699766674791,0.20155598565,0.341509320608,0.0699766674791,0.302014577047,66,1.0,-0.118568705386,-1.0,nan,nan,nan,nan,0.0,0.0,0.0,nan,224.102686249,623.057761959,623.557792465,623.343621563,nan,nan,nan,nan
1,354,1,1,1.0,1.0,0.221689786296,0,0.0,0.0,0.0,0.271573354694,0.0698813586593,0.201691996035,0.341454713353,0.0698813586593,0.267186266836,3,0.871087178923,0.199335109687,-1.0,nan,nan,nan,nan,0.0,0.0,0.0,nan,224.102686249,624.057901657,624.557933018,624.279591443,nan,nan,nan,nan
1,355,1,1,1.0,1.0,0.253613899928,0,0.0,0.0,0.0,0.271432041469,0.0698326536806,0.201599387788,0.34126469515,0.0698326536806,0.253721096708,338,-0.162891363375,0.458928707883,0.250399161362,nan,nan,nan,nan,0.0,0.0,0.0,nan,224.102686249,625.058015696,625.558048198,625.311629596,nan,nan,nan,nan
1,356,1,1,1.0,1.0,0.221380169969,0,0.0,0.0,0.0,0.271381707736,0.0697403623113,0.201641345424,0.341122070047,0.0697403623113,0.232227952064,127,1.0,-0.31111021432,-0.167036648065,nan,nan,nan,nan,0.0,0.0,0.0,nan,224.102686249,626.058168794,626.558174211,626.279548964,nan,nan,nan,nan
1,357,1,1,1.0,1.0,0.245291609317,0,0.0,0.0,0.0,0.271240858334,0.0696924699591,0.201548388375,0.340933328293,0.0696924699591,0.240095226405,415,0.0813077335083,0.459153678902,-0.614968023274,nan,nan,nan,nan,0.0,0.0,0.0,nan,224.102686249,627.058265727,627.558313624,627.303557336,nan,nan,nan,nan
1,358,1,1,1.0,1.0,0.25313294027,0,0.0,0.0,0.0,0.271167967185,0.0696080681719,0.201559899013,0.340776035357,0.0696080681719,0.239934906519,240,0.654373017221,0.188015059697,0.642463954019,nan,nan,nan,nan,0.0,0.0,0.0,nan,224.102686249,628.058390315,628.558429658,628.311523255,nan,nan,nan,nan
1,359,1,1,1.0,1.0,0.195632700808,0,0.0,0.0,0.0,0.271117448902,0.0695170445243,0.201600404378,0.340634493426,0.0695170445243,0.231352416798,147,1.0,-0.275801134503,0.0346720467303,nan,nan,nan,nan,0.0,0.0,0.0,nan,224.102686249,629.091895296,629.591904704,629.287527997,nan,nan,nan,nan
1,360,1,1,1.0,1.0,0.195494142827,0,0.0,0.0,0.0,0.27090659765,0.069534107729,0.201372489921,0.340440705379,0.069534107729,0.214753261302,47,1.0,-0.0170755915744,-1.0,nan,nan,nan,nan,0.0,0.0,0.0,nan,224.102686249,630.091985387,630.592023305,630.28747953,nan,nan,nan,nan
1,361,1,1,1.0,1.0,0.211360977031,0,1.0,0.0,0.0,0.270696535102,0.0695508547694,0.201145680333,0.340247389871,0.0695508547694,0.200829273555,236,0.697004556276,0.169301754335,0.634065852989,nan,nan,nan,nan,0.0,0.0,0.0,nan,224.102686249,631.092108549,631.592147893,631.303469526,nan,nan,nan,nan
1,362,0,0,1.0,0.0,0.219164389651,0,0.0,0.0,0.0,0.270531714107,0.0695243624567,0.201007351651,0.340056076564,0.0695243624567,0.208673169836,77,1.0,-0.174593022316,-0.756267193339,nan,nan,nan,nan,0.0,0.0,0.0,nan,224.102686249,632.092304126,632.592306407,632.311468516,nan,nan,nan,nan
1,363,1,1,1.0,1.0,0.171034745406,0,0.0,0.0,0.0,0.27038942235,0.0694804742271,0.200908948123,0.339869896577,0.0694804742271,0.200520037363,483,0.606025706087,0.319314454546,-1.0,nan,nan,nan,nan,0.0,0.0,0.0,nan,224.102686249,633.092406191,633.592419876,633.263440937,nan,nan,nan,nan
