block,trial,time,setsize,freqtrials,trials_colorind,trials_colordeg,colorrgb0,colorrgb1,colorrgb2,correct_response,actual_response,acc,rts,probe_trials,rt_triggered_fast,rt_triggered_slow,rt_strailingavg,rts_runningavg,rts_runningstd,rts_runningslowthresh,rts_runningfastthresh,wm_respdeg,wm_respind,wm_resprgb0,wm_resprgb1,wm_resprgb2,wm_respcolorminusorigcolor,wm_rts,time_blockstart,time_encarray_onset,time_response,time_encarray_offest,time_memprobe_onset,time_memprobe_offset
0,0,4556,6,1,282,198,0.208142307666,0.34807905204,0.609295500931,1,1.0,1.0,0.331218952779,0,nan,nan,nan,nan,nan,nan,nan,nan,nan,0.0,0.0,0.0,nan,nan,224.102686249,225.115431262,225.446650214,225.615460627,nan,nan
0,1,4557,6,1,181,127,1.0,-0.123914391386,0.3392011262,1,1.0,1.0,0.303391124588,0,nan,nan,nan,nan,nan,nan,nan,nan,nan,0.0,0.0,0.0,nan,nan,224.102686249,226.207281512,226.510672637,226.707280372,nan,nan
0,2,4558,6,0,232,163,0.739158239773,0.150046616059,0.623712016981,0,0.0,1.0,0.35122170113,0,nan,nan,nan,nan,nan,nan,nan,nan,nan,0.0,0.0,0.0,nan,nan,224.102686249,227.207410662,227.558632363,227.707425202,nan,nan
0,3,4600,6,1,137,96,1.0,-0.300190217086,-0.0647316600203,1,1.0,1.0,0.311114139855,0,nan,nan,nan,nan,nan,nan,nan,nan,nan,0.0,0.0,0.0,nan,nan,224.102686249,228.207497616,228.518611756,228.707519569,nan,nan
0,4,4601,6,1,84,59,1.0,-0.20765784414,-0.652191087791,1,1.0,1.0,0.302917006891,0,nan,nan,nan,nan,nan,nan,nan,nan,nan,0.0,0.0,0.0,nan,nan,224.102686249,229.207669246,229.510586252,229.70768407,nan,nan
0,5,4606,6,1,441,310,0.266287261384,0.422891888867,-1.0,1,1.0,1.0,0.318833732978,1,nan,nan,nan,nan,nan,nan,nan,156.342003001,418.0,0.101175887384,0.455961754156,-0.661679309199,-16.4201280012,2.20886494592,224.102686249,230.207756485,230.526590218,230.707808088,232.032931079,234.249876553
0,6,4607,6,1,198,139,1.0,-0.0302354974571,0.462326941081,1,1.0,1.0,0.339743092656,0,nan,nan,nan,nan,nan,nan,nan,nan,nan,0.0,0.0,0.0,nan,nan,224.102686249,235.466726518,235.806469611,235.966765577,nan,nan
0,7,4608,6,1,436,306,0.228681708805,0.431413732101,-1.0,1,1.0,1.0,0.299550571945,0,nan,nan,nan,nan,nan,nan,nan,nan,nan,0.0,0.0,0.0,nan,nan,224.102686249,236.466909266,236.766459838,236.966931789,nan,nan
0,8,4609,6,1,358,251,-0.170583909915,0.474268316859,0.0585874414746,1,1.0,1.0,0.291427849326,0,nan,nan,nan,nan,nan,nan,nan,nan,nan,0.0,0.0,0.0,nan,nan,224.102686249,237.467009335,237.758437185,237.967021309,nan,nan
0,9,4610,6,1,199,139,1.0,-0.0246761787097,0.468786302982,1,1.0,1.0,0.307306658011,0,nan,nan,nan,nan,nan,nan,nan,nan,nan,0.0,0.0,0.0,nan,nan,224.102686249,238.467134208,238.774440866,238.967159582,nan,nan
0,10,4611,6,1,30,21,1.0,0.071945658744,-1.0,1,1.0,1.0,0.315125465859,0,nan,nan,nan,nan,nan,nan,nan,nan,nan,0.0,0.0,0.0,nan,nan,224.102686249,239.467273621,239.782399087,239.967276472,nan,nan
0,11,4612,6,0,278,195,0.248285521772,0.335802812283,0.621962573991,0,0.0,1.0,0.314998026937,0,nan,nan,nan,nan,nan,nan,nan,nan,nan,0.0,0.0,0.0,nan,nan,224.102686249,240.467400489,240.782398516,240.967436412,nan,nan
0,12,4613,6,1,469,329,0.489482198204,0.360453357602,-1.0,1,1.0,1.0,0.218853347935,0,nan,nan,nan,nan,nan,nan,nan,nan,nan,0.0,0.0,0.0,nan,nan,224.102686249,241.467519375,241.686372723,241.967539332,nan,nan
0,13,4614,6,1,419,294,0.107894673663,0.454841969249,-0.678098861371,1,1.0,1.0,0.234677987639,0,nan,nan,nan,nan,nan,nan,nan,nan,nan,0.0,0.0,0.0,nan,nan,224.102686249,242.467659643,242.702337631,242.967659073,nan,nan
0,14,4615,6,1,112,78,1.0,-0.300501516081,-0.325324861792,1,0.0,0.0,0.378605632111,0,0.0,0.0,nan,nan,nan,nan,nan,nan,nan,0.0,0.0,0.0,nan,nan,224.102686249,243.467748879,243.846354511,243.967789648,nan,nan
0,15,4616,6,1,393,276,-0.0489456633786,0.475102171109,-0.327443230616,1,1.0,1.0,0.274453980383,0,nan,nan,nan,nan,nan,nan,nan,nan,nan,0.0,0.0,0.0,nan,nan,224.102686249,244.467873467,244.742327447,244.967907963,nan,nan
0,16,4617,6,1,47,33,1.0,-0.0170755915744,-1.0,1,1.0,1.0,0.434275543783,0,nan,nan,nan,nan,nan,nan,nan,nan,nan,0.0,0.0,0.0,nan,nan,224.102686249,245.468023998,245.902299542,245.968053934,nan,nan
0,17,4618,6,1,478,336,0.56422249903,0.334793662244,-1.0,1,1.0,1.0,0.314135321416,0,nan,nan,nan,nan,nan,nan,nan,nan,nan,0.0,0.0,0.0,nan,nan,224.102686249,246.468155713,246.782291035,246.968208171,nan,nan
0,18,4619,6,1,393,276,-0.0489456633786,0.475102171109,-0.327443230616,1,1.0,1.0,0.249984889757,0,nan,nan,nan,nan,nan,nan,nan,nan,nan,0.0,0.0,0.0,nan,nan,224.102686249,247.468291705,247.718276595,247.968297407,nan,nan
0,19,4620,6,1,14,9,0.95801504718,0.150023555696,-1.0,1,1.0,1.0,0.257902626414,0,nan,nan,nan,nan,nan,nan,nan,nan,nan,0.0,0.0,0.0,nan,nan,224.102686249,248.468418289,248.726320915,248.968458202,nan,nan
0,20,4621,6,1,62,43,1.0,-0.0974372467467,-1.0,1,1.0,1.0,0.26573454868,0,nan,nan,nan,nan,nan,nan,nan,nan,nan,0.0,0.0,0.0,nan,nan,224.102686249,249.468535179,249.734269727,249.968549434,nan,nan
0,21,4622,6,1,326,229,-0.12383419111,0.444071765824,0.352223541474,1,1.0,1.0,0.273627767339,0,nan,nan,nan,nan,nan,nan,nan,nan,nan,0.0,0.0,0.0,nan,nan,224.102686249,250.468663473,250.74229124,250.96871308,nan,nan
0,22,4623,6,1,180,126,1.0,-0.129278616986,0.331238955499,1,1.0,1.0,0.289447559975,0,nan,nan,nan,nan,nan,nan,nan,nan,nan,0.0,0.0,0.0,nan,nan,224.102686249,251.468770099,251.758217659,251.96882997,nan,nan
0,23,4624,6,1,468,329,0.481236483515,0.363131620867,-1.0,1,1.0,1.0,0.273326418828,0,nan,nan,nan,nan,nan,nan,nan,nan,nan,0.0,0.0,0.0,nan,nan,224.102686249,252.46891664,252.742243059,252.968963966,nan,nan
0,24,4625,6,1,117,82,1.0,-0.307587969795,-0.271886539361,1,1.0,1.0,0.241130606737,0,nan,nan,nan,nan,nan,nan,nan,nan,nan,0.0,0.0,0.0,nan,nan,224.102686249,253.469057763,253.71018837,253.969084847,nan,nan
0,25,4626,6,0,223,156,0.83172397378,0.104890589731,0.593432239612,0,1.0,0.0,0.208989533596,0,0.0,0.0,nan,nan,nan,nan,nan,nan,nan,0.0,0.0,0.0,nan,nan,224.102686249,254.469169806,254.67815934,254.969220839,nan,nan
0,26,4627,6,1,408,286,0.036737934283,0.465637664749,-0.515938449969,1,1.0,1.0,0.152872303966,0,nan,nan,nan,nan,nan,nan,nan,nan,nan,0.0,0.0,0.0,nan,nan,224.102686249,255.469278999,255.622151303,255.969335163,nan,nan
0,27,4628,6,1,69,48,1.0,-0.134207199312,-0.939648005704,1,1.0,1.0,0.256675280631,0,nan,nan,nan,nan,nan,nan,nan,nan,nan,0.0,0.0,0.0,nan,nan,224.102686249,256.469445496,256.726120776,256.969473436,nan,nan
0,28,4629,6,1,325,228,-0.119404900653,0.442631039184,0.360186421743,1,1.0,1.0,0.248521768022,0,nan,nan,nan,nan,nan,nan,nan,nan,nan,0.0,0.0,0.0,nan,nan,224.102686249,257.469564097,257.718085865,257.969568943,nan,nan
0,29,4630,6,1,221,155,0.851781464038,0.0945411604707,0.585422935822,1,1.0,1.0,0.272382459603,0,nan,nan,nan,nan,nan,nan,nan,nan,nan,0.0,0.0,0.0,nan,nan,224.102686249,258.46968897,258.742071429,258.969695527,nan,nan
0,30,4631,6,1,142,99,1.0,-0.289568116499,-0.0146273521697,1,1.0,1.0,0.280232057907,0,nan,nan,nan,nan,nan,nan,nan,nan,nan,0.0,0.0,0.0,nan,nan,224.102686249,259.469819259,259.750051317,259.969854611,nan,nan
0,31,4632,6,1,56,39,1.0,-0.0653675053377,-1.0,1,1.0,1.0,0.2321500252,0,nan,nan,nan,nan,nan,nan,nan,nan,nan,0.0,0.0,0.0,nan,nan,224.102686249,260.469948409,260.702098434,260.969960383,nan,nan
0,32,4633,6,1,293,206,0.103830259013,0.378659598285,0.564617056734,1,1.0,1.0,0.287977025378,0,nan,nan,nan,nan,nan,nan,nan,nan,nan,0.0,0.0,0.0,nan,nan,224.102686249,261.470051614,261.758028639,261.970100936,nan,nan
0,33,4634,6,0,412,289,0.0618891196837,0.462096609288,-0.571158935758,0,0.0,1.0,0.327803765889,0,nan,nan,nan,nan,nan,nan,nan,nan,nan,0.0,0.0,0.0,nan,nan,224.102686249,262.470206992,262.798010758,262.970237498,nan,nan
0,34,4635,6,1,185,130,1.0,-0.102214474652,0.370299946716,1,1.0,1.0,0.199709028937,0,nan,nan,nan,nan,nan,nan,nan,nan,nan,0.0,0.0,0.0,nan,nan,224.102686249,263.470303926,263.670012955,263.97036066,nan,nan
0,35,4636,6,1,326,229,-0.12383419111,0.444071765824,0.352223541474,1,1.0,1.0,0.21553680487,0,nan,nan,nan,nan,nan,nan,nan,nan,nan,0.0,0.0,0.0,nan,nan,224.102686249,264.470449611,264.685986415,264.970514328,nan,nan
0,36,4637,6,1,43,30,1.0,0.00424534395127,-1.0,1,1.0,1.0,0.223393531051,0,nan,nan,nan,nan,nan,nan,nan,nan,nan,0.0,0.0,0.0,nan,nan,224.102686249,265.47057933,265.693972861,265.970615252,nan,nan
0,37,4638,6,1,441,310,0.266287261384,0.422891888867,-1.0,1,1.0,1.0,0.239241548348,0,nan,nan,nan,nan,nan,nan,nan,nan,nan,0.0,0.0,0.0,nan,nan,224.102686249,266.470701922,266.709943471,266.970741836,nan,nan
0,38,4639,6,1,268,188,0.35230222188,0.302367520405,0.645005310408,1,1.0,1.0,0.271104081534,0,nan,nan,nan,nan,nan,nan,nan,nan,nan,0.0,0.0,0.0,nan,nan,224.102686249,267.470825654,267.741929736,267.970873836,nan,nan
0,39,4640,6,1,33,23,1.0,0.0565990290419,-1.0,1,1.0,1.0,0.254955570213,0,nan,nan,nan,nan,nan,nan,nan,nan,nan,0.0,0.0,0.0,nan,nan,224.102686249,268.470954519,268.725910089,268.97097362,nan,nan
0,40,4641,6,0,143,100,1.0,-0.287057525782,-0.00469998909502,0,1.0,0.0,0.262789488304,0,0.0,0.0,nan,nan,nan,nan,nan,nan,nan,0.0,0.0,0.0,nan,nan,224.102686249,269.471101629,269.733891117,269.971127003,nan,nan
0,41,4642,6,1,4,2,0.879126049628,0.195014037372,-1.0,1,1.0,1.0,0.190677415114,0,nan,nan,nan,nan,nan,nan,nan,nan,nan,0.0,0.0,0.0,nan,nan,224.102686249,270.471212247,270.661889663,270.971257008,nan,nan
0,42,4647,6,1,174,122,1.0,-0.160790688716,0.281981279739,1,1.0,1.0,0.230531809852,1,nan,nan,nan,nan,nan,nan,nan,-36.5137117756,180.0,1.0,-0.129278616986,0.331238955499,4.16996177555,1.87545615667,224.102686249,271.471334269,271.701866079,271.971393284,273.296518556,275.180093728
0,43,4648,6,1,427,300,0.163265173604,0.444863218481,-0.840208708629,1,1.0,1.0,0.376830612775,0,nan,nan,nan,nan,nan,nan,nan,nan,nan,0.0,0.0,0.0,nan,nan,224.102686249,276.39694626,276.773776873,276.89699045,nan,nan
0,44,4649,6,1,228,160,0.780729811514,0.1302769546,0.611433142569,1,1.0,1.0,0.29664342897,0,nan,nan,nan,nan,nan,nan,nan,nan,nan,0.0,0.0,0.0,nan,nan,224.102686249,277.397098788,277.693742217,277.897141267,nan,nan
0,45,4650,6,0,124,87,1.0,-0.311577186586,-0.198226518473,0,0.0,1.0,0.336496683769,0,nan,nan,nan,nan,nan,nan,nan,nan,nan,0.0,0.0,0.0,nan,nan,224.102686249,278.397231643,278.733728327,278.897261293,nan,nan
0,46,4651,6,1,376,264,-0.124962824795,0.478704673615,-0.132627625282,1,1.0,1.0,0.240360842552,0,nan,nan,nan,nan,nan,nan,nan,nan,nan,0.0,0.0,0.0,nan,nan,224.102686249,279.397348818,279.637709661,279.897373337,nan,nan
0,47,4652,6,1,5,3,0.88714030954,0.190659852496,-1.0,1,1.0,1.0,0.248217568267,0,nan,nan,nan,nan,nan,nan,nan,nan,nan,0.0,0.0,0.0,nan,nan,224.102686249,280.39748538,280.645702948,280.897495073,nan,nan
0,48,4653,6,1,450,316,0.335949728395,0.405598329481,-1.0,1,1.0,1.0,0.304090469144,0,nan,nan,nan,nan,nan,nan,nan,nan,nan,0.0,0.0,0.0,nan,nan,224.102686249,281.397592862,281.701683331,281.897608257,nan,nan
0,49,4654,6,1,142,99,1.0,-0.289568116499,-0.0146273521697,1,1.0,1.0,0.319955023006,0,nan,nan,nan,nan,nan,nan,nan,nan,nan,0.0,0.0,0.0,nan,nan,224.102686249,282.397705761,282.717660784,282.897738832,nan,nan
0,50,4655,6,1,88,61,1.0,-0.225257592204,-0.599932847766,1,1.0,1.0,0.503786669578,0,nan,nan,nan,nan,nan,nan,nan,nan,nan,0.0,0.0,0.0,nan,nan,224.102686249,283.397843748,283.901630417,283.897910461,nan,nan
0,51,4656,6,1,387,272,-0.0787219327085,0.477231755363,-0.256974454483,1,1.0,1.0,0.431639528833,0,nan,nan,nan,nan,nan,nan,nan,nan,nan,0.0,0.0,0.0,nan,nan,224.102686249,284.397970902,284.829610431,284.89799599,nan,nan
0,52,4657,6,1,113,79,1.0,-0.302191989669,-0.314576349441,1,1.0,1.0,0.447516342159,0,nan,nan,nan,nan,nan,nan,nan,nan,nan,0.0,0.0,0.0,nan,nan,224.102686249,285.39808323,285.845599572,285.898122289,nan,nan
0,53,4658,6,1,386,271,-0.0833946583454,0.477495592553,-0.245424736514,1,1.0,1.0,0.359351550695,0,nan,nan,nan,nan,nan,nan,nan,nan,nan,0.0,0.0,0.0,nan,nan,224.102686249,286.398233762,286.757585313,286.898280233,nan,nan
0,54,4659,6,1,288,202,0.150005133015,0.365331945294,0.586687239957,1,1.0,1.0,0.391213512979,0,nan,nan,nan,nan,nan,nan,nan,nan,nan,0.0,0.0,0.0,nan,nan,224.102686249,287.398351222,287.789564735,287.898382013,nan,nan
0,55,4700,6,1,12,8,0.942476689623,0.159273951266,-1.0,1,1.0,1.0,0.311095037963,0,nan,nan,nan,nan,nan,nan,nan,nan,nan,0.0,0.0,0.0,nan,nan,224.102686249,288.398494056,288.709589094,288.898511162,nan,nan
0,56,4701,6,1,436,306,0.228681708805,0.431413732101,-1.0,1,1.0,1.0,0.28696863493,0,nan,nan,nan,nan,nan,nan,nan,nan,nan,0.0,0.0,0.0,nan,nan,224.102686249,289.398604389,289.685573024,289.898646869,nan,nan
0,57,4702,6,1,86,60,1.0,-0.21659106269,-0.625617802914,1,1.0,1.0,0.246818593238,0,nan,nan,nan,nan,nan,nan,nan,nan,nan,0.0,0.0,0.0,nan,nan,224.102686249,290.398742091,290.645560685,290.898762903,nan,nan
0,58,4706,6,1,186,130,1.0,-0.0967386681424,0.377881386018,1,1.0,1.0,0.550625960808,1,nan,nan,nan,nan,nan,nan,nan,-47.489552922,196.0,1.0,-0.0413610816081,0.449130757868,6.708302922,1.47541658534,224.102686249,291.398865539,291.949491499,291.898933107,293.232391218,294.715905151
0,59,4707,6,1,415,291,0.0813077335083,0.459153678902,-0.614968023274,1,nan,nan,nan,0,nan,nan,nan,nan,nan,nan,nan,nan,nan,0.0,0.0,0.0,nan,nan,224.102686249,295.924423418,nan,296.424508377,nan,nan
0,60,4708,6,1,336,236,-0.158211608236,0.456758111158,0.268135266647,1,1.0,1.0,0.408841966651,0,nan,nan,nan,nan,nan,nan,nan,nan,nan,0.0,0.0,0.0,nan,nan,224.102686249,296.924568818,297.333410785,297.424623557,nan,nan
0,61,4709,6,0,157,110,1.0,-0.240048375319,0.130425901556,0,0.0,1.0,0.440719039645,0,nan,nan,nan,nan,nan,nan,nan,nan,nan,0.0,0.0,0.0,nan,nan,224.102686249,297.924674874,298.365393914,298.424746149,nan,nan
0,62,4710,6,1,211,148,0.948675772315,0.0413606888024,0.538689155053,1,1.0,1.0,0.352550541982,0,nan,nan,nan,nan,nan,nan,nan,nan,nan,0.0,0.0,0.0,nan,nan,224.102686249,298.924825976,299.277376518,299.424869596,nan,nan
0,63,4711,6,1,96,67,1.0,-0.25681952169,-0.503302481145,1,1.0,1.0,0.336380648892,0,nan,nan,nan,nan,nan,nan,nan,nan,nan,0.0,0.0,0.0,nan,nan,224.102686249,299.924974227,300.261354876,300.424997035,nan,nan
0,64,4712,6,0,400,281,-0.0107874812989,0.471427301814,-0.412692688905,0,0.0,1.0,0.400265084114,0,nan,nan,nan,nan,nan,nan,nan,nan,nan,0.0,0.0,0.0,nan,nan,224.102686249,300.92507116,301.325336244,301.42513046,nan,nan
0,65,4713,6,1,172,120,1.0,-0.170984061773,0.265024678188,1,1.0,1.0,0.264097802341,0,nan,nan,nan,nan,nan,nan,nan,nan,nan,0.0,0.0,0.0,nan,nan,224.102686249,301.925205156,302.189302959,302.425233666,nan,nan
0,66,4714,6,1,354,248,-0.174470673547,0.472100788149,0.0988677247603,1,1.0,1.0,0.311958884355,0,nan,nan,nan,nan,nan,nan,nan,nan,nan,0.0,0.0,0.0,nan,nan,224.102686249,302.925330314,303.237289199,303.425354547,nan,nan
0,67,4715,6,1,61,42,1.0,-0.0921163965413,-1.0,1,1.0,1.0,0.343812008854,0,nan,nan,nan,nan,nan,nan,nan,nan,nan,0.0,0.0,0.0,nan,nan,224.102686249,303.925451766,304.269263775,304.425477995,nan,nan
0,68,4716,6,1,417,293,0.0945046041228,0.457053563907,-0.645720198395,1,1.0,1.0,0.287665128708,0,nan,nan,nan,nan,nan,nan,nan,nan,nan,0.0,0.0,0.0,nan,nan,224.102686249,304.925577209,305.213242338,305.425643066,nan,nan
0,69,4717,6,1,147,103,1.0,-0.275801134503,0.0346720467303,1,1.0,1.0,0.27954440238,0,nan,nan,nan,nan,nan,nan,nan,nan,nan,0.0,0.0,0.0,nan,nan,224.102686249,305.925700371,306.205244774,306.42576908,nan,nan
0,70,4718,6,0,20,14,1.0,0.121558187834,-1.0,0,1.0,0.0,0.239384097513,0,0.0,0.0,nan,nan,nan,nan,nan,nan,nan,0.0,0.0,0.0,nan,nan,224.102686249,306.925855749,307.165239847,307.425892242,nan,nan
0,71,4719,6,1,161,113,1.0,-0.223158351501,0.167490545043,1,1.0,1.0,0.0712311207317,0,nan,nan,nan,nan,nan,nan,nan,nan,nan,0.0,0.0,0.0,nan,nan,224.102686249,307.925964372,307.997195492,308.426000294,nan,nan
0,72,4720,6,1,381,267,-0.105403061426,0.478425078289,-0.188431136224,1,1.0,1.0,0.527089710347,0,nan,nan,nan,nan,nan,nan,nan,nan,nan,0.0,0.0,0.0,nan,nan,224.102686249,308.926088104,309.453177814,309.426167931,nan,nan
0,73,4721,6,1,30,21,1.0,0.071945658744,-1.0,1,1.0,1.0,0.398969029076,0,nan,nan,nan,nan,nan,nan,nan,nan,nan,0.0,0.0,0.0,nan,nan,224.102686249,309.926206135,310.325175164,310.426238636,nan,nan
0,74,4722,6,1,350,246,-0.175756816429,0.469490941964,0.138247479403,1,1.0,1.0,0.318787262309,0,nan,nan,nan,nan,nan,nan,nan,nan,nan,0.0,0.0,0.0,nan,nan,224.102686249,310.926356381,311.245143644,311.426400001,nan,nan
0,75,4723,6,1,202,142,1.0,-0.00802826454356,0.487596984314,1,1.0,1.0,0.286653601564,0,nan,nan,nan,nan,nan,nan,nan,nan,nan,0.0,0.0,0.0,nan,nan,224.102686249,311.926492943,312.213146545,312.426510619,nan,nan
0,76,4724,6,1,10,7,0.926811495151,0.168400576072,-1.0,1,1.0,1.0,0.230509287678,0,nan,nan,nan,nan,nan,nan,nan,nan,nan,0.0,0.0,0.0,nan,nan,224.102686249,312.926618671,313.157127959,313.426627224,nan,nan
0,77,4725,6,1,55,38,1.0,-0.0599996532909,-1.0,1,1.0,1.0,0.190463021398,0,nan,nan,nan,nan,nan,nan,nan,nan,nan,0.0,0.0,0.0,nan,nan,224.102686249,313.926717315,314.117180337,314.42677519,nan,nan
0,78,4726,6,1,471,331,0.506014005179,0.354993781952,-1.0,1,1.0,1.0,0.158276332542,0,nan,nan,nan,nan,nan,nan,nan,nan,nan,0.0,0.0,0.0,nan,nan,224.102686249,314.926863,315.085139333,315.426915458,nan,nan
0,79,4727,6,1,386,271,-0.0833946583454,0.477495592553,-0.245424736514,1,1.0,1.0,0.21408309089,0,nan,nan,nan,nan,nan,nan,nan,nan,nan,0.0,0.0,0.0,nan,nan,224.102686249,315.926988443,316.141071534,316.427010396,nan,nan
0,80,4728,6,1,19,13,0.99625917486,0.126374530333,-1.0,1,1.0,1.0,0.293935855385,0,0.0,0.0,0.222098426272,0.298246083215,0.0815570002153,0.379803083431,0.216689083,nan,nan,0.0,0.0,0.0,nan,nan,224.102686249,316.927108469,317.221044325,317.427142681,nan,nan
0,81,4729,6,1,190,133,1.0,-0.0746884387243,0.407399635172,1,1.0,1.0,0.253825442865,0,0.0,0.0,0.253948129714,0.298192205367,0.0810470807836,0.379239286151,0.217145124584,nan,nan,0.0,0.0,0.0,nan,nan,224.102686249,317.927222793,318.181048236,318.427270405,nan,nan
0,82,4730,6,1,84,59,1.0,-0.20765784414,-0.652191087791,1,1.0,1.0,0.205692376941,0,0.0,0.0,0.251151225064,0.297644467559,0.0806940917984,0.378338559357,0.21695037576,nan,nan,0.0,0.0,0.0,nan,nan,224.102686249,318.927375891,319.133068268,319.427419226,nan,nan
0,83,4731,6,1,312,219,-0.0464483572634,0.420925197877,0.455573212045,1,1.0,1.0,0.173494569492,0,1.0,0.0,0.211004129766,0.2965231006,0.0808330504337,0.377356151034,0.215690050166,nan,nan,0.0,0.0,0.0,nan,nan,224.102686249,319.927504185,320.100998755,320.427556073,nan,nan
0,84,4736,6,1,80,56,1.0,-0.189075709245,-0.708965549488,1,1.0,1.0,0.149401237722,1,0.0,0.0,0.176196061385,0.295040829141,0.0814581114368,0.376498940578,0.213582717704,45.0,64.0,1.0,-0.108036866323,-1.0,-11.25,1.4171103742,224.102686249,320.927629913,321.077031151,321.427686648,322.761172983,324.186356187
0,85,4737,6,1,438,307,0.243622561222,0.428096439079,-1.0,1,1.0,1.0,0.290049402043,0,0.0,0.0,0.204315069752,0.293307024481,0.0824980927089,0.37580511719,0.210808931772,nan,nan,0.0,0.0,0.0,nan,nan,224.102686249,325.394842808,325.68489221,325.894898403,nan,nan
0,86,4738,6,1,235,165,0.707591924495,0.164537776567,0.631659631194,1,1.0,1.0,0.281873651315,0,0.0,0.0,0.24044143036,0.293268699511,0.0820121262559,0.375280825767,0.211256573255,nan,nan,0.0,0.0,0.0,nan,nan,224.102686249,326.394991344,326.676864996,326.895013867,nan,nan
0,87,4739,6,1,35,24,1.0,0.0462653595507,-1.0,1,1.0,1.0,0.289731517434,0,0.0,0.0,0.287218190264,0.293136198951,0.0815430682166,0.374679267167,0.211593130734,nan,nan,0.0,0.0,0.0,nan,nan,224.102686249,327.395099967,327.684831484,327.895137314,nan,nan
0,88,4740,6,1,320,225,-0.0946500390753,0.43494401576,0.398701238857,1,1.0,1.0,0.209623306058,0,0.0,0.0,0.260409491602,0.29309706468,0.0810738877131,0.374170952394,0.212023176967,nan,nan,0.0,0.0,0.0,nan,nan,224.102686249,328.395254774,328.604878081,328.895263042,nan,nan
0,89,4741,6,1,55,38,1.0,-0.0599996532909,-1.0,1,1.0,1.0,0.233482572716,0,0.0,0.0,0.244279132069,0.292148499242,0.0810960104705,0.373244509712,0.211052488771,nan,nan,0.0,0.0,0.0,nan,nan,224.102686249,329.395353133,329.628835706,329.895405876,nan,nan
0,90,4742,6,1,433,304,0.206536295144,0.436163724167,-1.0,1,1.0,1.0,0.217285309918,0,0.0,0.0,0.220130396231,0.291489331528,0.0808758624775,0.372365194005,0.21061346905,nan,nan,0.0,0.0,0.0,nan,nan,224.102686249,330.395516494,330.612801804,330.895523907,nan,nan
0,91,4743,6,1,373,262,-0.135407706169,0.478559568072,-0.0996974893599,1,1.0,1.0,0.201181559358,0,0.0,0.0,0.217316480664,0.290664842399,0.080800550955,0.371465393354,0.209864291444,nan,nan,0.0,0.0,0.0,nan,nan,224.102686249,331.395612002,331.596793562,331.89566218,nan,nan
0,92,4744,6,1,163,114,1.0,-0.214247802105,0.185723682048,1,1.0,1.0,0.217019883916,0,0.0,0.0,0.211828917731,0.289681509618,0.0808950533821,0.370576563,0.208786456236,nan,nan,0.0,0.0,0.0,nan,nan,224.102686249,332.395760538,332.612780422,332.895778214,nan,nan
0,93,4745,6,1,40,28,1.0,0.0201165467467,-1.0,1,1.0,1.0,0.216855097096,0,0.0,0.0,0.211685513457,0.288891709339,0.0808062095986,0.369697918937,0.20808549974,nan,nan,0.0,0.0,0.0,nan,nan,224.102686249,333.395893394,333.612748491,333.895905368,nan,nan
0,94,4746,6,1,84,59,1.0,-0.20765784414,-0.652191087791,1,1.0,1.0,0.216781542171,0,0.0,0.0,0.216885507728,0.28811712211,0.0807132637403,0.368830385851,0.20740385837,nan,nan,0.0,0.0,0.0,nan,nan,224.102686249,334.396020832,334.612802375,334.896052478,nan,nan
0,95,4747,6,0,243,170,0.622151010882,0.20168048164,0.647463484622,0,1.0,0.0,0.192584149074,0,0.0,0.0,0.20874026278,0.287358232962,0.0806156699647,0.367973902927,0.206742562997,nan,nan,0.0,0.0,0.0,nan,nan,224.102686249,335.396151693,335.588735842,335.8961879,nan,nan
0,96,4748,6,1,129,90,1.0,-0.310070485259,-0.146368003411,1,1.0,1.0,0.160439654719,0,0.0,0.0,0.189935115321,0.286360611026,0.0807714700279,0.367132081054,0.205589140998,nan,nan,0.0,0.0,0.0,nan,nan,224.102686249,336.396265447,336.556705101,336.896312488,nan,nan
0,97,4749,6,1,253,177,0.513865899396,0.244839928328,0.655977188727,1,1.0,1.0,0.232315381989,0,0.0,0.0,0.195113061927,0.285048934398,0.0813604252729,0.366409359671,0.203688509125,nan,nan,0.0,0.0,0.0,nan,nan,224.102686249,337.396394881,337.628710263,337.896437645,nan,nan
0,98,4750,6,1,358,251,-0.170583909915,0.474268316859,0.0585874414746,1,1.0,1.0,0.200209660921,0,1.0,0.0,0.19765489921,0.284505289528,0.0811150363018,0.36562032583,0.203390253226,nan,nan,0.0,0.0,0.0,nan,nan,224.102686249,338.396501222,338.596710883,338.896572497,nan,nan
0,99,4754,6,1,471,331,0.506014005179,0.354993781952,-1.0,1,1.0,1.0,0.200003250036,1,0.0,0.0,0.210842764316,0.283645130052,0.0811435619562,0.364788692009,0.202501568096,136.441099292,446.0,0.304696255059,0.41359904426,-1.0,-17.6129742921,1.30871874746,224.102686249,339.39665318,339.59665643,339.896701646,341.230173727,342.547021469
0,100,4755,6,1,150,105,1.0,-0.266152531622,0.0638227105866,1,1.0,1.0,0.257062728517,0,0.0,0.0,0.219091879825,0.282800262578,0.0811647848197,0.363965047397,0.201635477758,nan,nan,0.0,0.0,0.0,nan,nan,224.102686249,343.75552263,344.012585358,344.255571382,nan,nan
0,101,4756,6,0,37,26,1.0,0.0358565504353,-1.0,0,0.0,1.0,0.336862464435,0,0.0,0.0,0.26464281433,0.282542887237,0.0807985336279,0.363341420865,0.201744353609,nan,nan,0.0,0.0,0.0,nan,nan,224.102686249,344.755681144,345.092543609,345.255707088,nan,nan
0,102,4757,6,1,385,270,-0.0879796604702,0.477733444059,-0.233926720364,1,1.0,1.0,0.392738216557,0,0.0,0.0,0.32888780317,0.283080704833,0.0805772310225,0.363657935855,0.20250347381,nan,nan,0.0,0.0,0.0,nan,nan,224.102686249,345.755791192,346.148529408,346.255836808,nan,nan
0,103,4758,6,1,60,42,1.0,-0.0867837676833,-1.0,1,1.0,1.0,0.328582082875,0,0.0,0.0,0.352727587956,0.284155778477,0.0809059358241,0.365061714301,0.203249842653,nan,nan,0.0,0.0,0.0,nan,nan,224.102686249,346.755931745,347.084513828,347.255934881,nan,nan
0,104,4759,6,0,310,217,-0.032854544558,0.417080732083,0.468828018046,0,0.0,1.0,0.432394183241,0,0.0,0.0,0.384571494224,0.284587101821,0.0806299903539,0.365217092175,0.203957111467,nan,nan,0.0,0.0,0.0,nan,nan,224.102686249,347.756103659,348.188497842,348.256097387,nan,nan
0,105,4800,6,1,458,322,0.399688045963,0.388050214986,-1.0,1,1.0,1.0,0.248315071687,0,0.0,0.0,0.336430445934,0.286008323758,0.0815274839886,0.367535807746,0.204480839769,nan,nan,0.0,0.0,0.0,nan,nan,224.102686249,348.756173793,349.004488865,349.256215417,nan,nan
0,106,4801,6,0,218,153,0.881467392804,0.0788246127756,0.572559633417,0,1.0,0.0,0.272156091873,0,0.0,0.0,0.317621782267,0.285649340405,0.0812208768104,0.366870217215,0.204428463594,nan,nan,0.0,0.0,0.0,nan,nan,224.102686249,349.756318908,350.028475,350.256351124,nan,nan
0,107,4802,6,1,458,322,0.399688045963,0.388050214986,-1.0,1,1.0,1.0,0.144025718328,0,0.0,0.0,0.221498960629,0.285522045607,0.0808473746829,0.36636942029,0.204674670924,nan,nan,0.0,0.0,0.0,nan,nan,224.102686249,350.756425249,350.900450968,351.256481414,nan,nan
0,108,4803,6,1,412,289,0.0618891196837,0.462096609288,-0.571158935758,1,1.0,1.0,0.287871539593,0,0.0,0.0,0.234684449931,0.284199650025,0.0816123549714,0.365812004997,0.202587295054,nan,nan,0.0,0.0,0.0,nan,nan,224.102686249,351.756555824,352.044427364,352.256568084,nan,nan
0,109,4804,6,1,66,46,1.0,-0.118568705386,-1.0,1,1.0,1.0,0.359735007398,0,0.0,0.0,0.263877421773,0.284233649003,0.0812344025894,0.365468051592,0.202999246413,nan,nan,0.0,0.0,0.0,nan,nan,224.102686249,352.756685829,353.116420836,353.256738572,nan,nan
0,110,4805,6,1,111,78,1.0,-0.298677811705,-0.336106236365,1,1.0,1.0,0.255561688449,0,0.0,0.0,0.30105607848,0.284926322015,0.0811806909231,0.366107012938,0.203745631092,nan,nan,0.0,0.0,0.0,nan,nan,224.102686249,353.756820965,354.012382654,354.25684919,nan,nan
0,111,4806,6,1,203,142,1.0,-0.00249325098487,0.493674673203,1,1.0,1.0,0.31945752725,0,0.0,0.0,0.311584741032,0.284659370801,0.0808588917843,0.365518262585,0.203800479017,nan,nan,0.0,0.0,0.0,nan,nan,224.102686249,354.756932153,355.076389681,355.256954961,nan,nan
0,112,4807,6,1,97,68,1.0,-0.260369742894,-0.491718830742,1,1.0,1.0,0.247292140964,0,0.0,0.0,0.274103785555,0.284972867706,0.0805609636787,0.365533831385,0.204411904027,nan,nan,0.0,0.0,0.0,nan,nan,224.102686249,355.757089242,356.004381383,356.257104638,nan,nan
0,113,4808,6,1,484,340,0.614398947124,0.316112737715,-1.0,1,1.0,1.0,0.239152597729,0,0.0,0.0,0.268634088648,0.284636432646,0.0802788001554,0.364915232801,0.20435763249,nan,nan,0.0,0.0,0.0,nan,nan,224.102686249,356.757196724,356.996349322,357.25722894,nan,nan
0,114,4809,6,1,308,216,-0.0186828559465,0.413097475488,0.481682330771,1,1.0,1.0,0.231050403323,0,0.0,0.0,0.239165047339,0.284233920832,0.0800362349328,0.364270155765,0.2041976859,nan,nan,0.0,0.0,0.0,nan,nan,224.102686249,357.757323022,357.988373426,358.257348396,nan,nan
0,115,4810,6,1,55,38,1.0,-0.0599996532909,-1.0,1,1.0,1.0,0.222861823626,0,0.0,0.0,0.231021608226,0.283767398749,0.079838595468,0.363605994217,0.203928803281,nan,nan,0.0,0.0,0.0,nan,nan,224.102686249,358.757442764,358.980304587,359.257466427,nan,nan
0,116,4811,6,1,402,282,0.000724920831492,0.470139955471,-0.437811562499,1,1.0,1.0,0.21472313581,0,0.0,0.0,0.222878454253,0.283237785052,0.0796915894233,0.362929374476,0.203546195629,nan,nan,0.0,0.0,0.0,nan,nan,224.102686249,359.75757904,359.972302176,360.257591585,nan,nan
0,117,4812,6,1,359,252,-0.169222339917,0.474741883077,0.0483828026834,1,1.0,1.0,0.0286098513752,0,1.0,0.0,0.15539827027,0.282647141524,0.0795997516284,0.362246893153,0.203047389896,nan,nan,0.0,0.0,0.0,nan,nan,224.102686249,360.807737441,360.836347292,361.307759108,nan,nan
0,118,4813,6,0,34,23,1.0,0.0514419701458,-1.0,0,1.0,0.0,0.21241412824,0,0.0,0.0,0.151915705142,0.280475882634,0.0826367469295,0.363112629564,0.197839135705,nan,nan,0.0,0.0,0.0,nan,nan,224.102686249,361.807848629,362.020262757,362.30788227,nan,nan
0,119,4814,6,1,271,190,0.320642857732,0.312811632898,0.639400143054,1,1.0,1.0,0.196346300188,0,0.0,0.0,0.145790093268,0.279899088105,0.0825220300379,0.362421118143,0.197377058068,nan,nan,0.0,0.0,0.0,nan,nan,224.102686249,362.807937865,363.004284165,363.308004292,nan,nan
0,120,4815,6,1,105,73,1.0,-0.285049837405,-0.401580786678,1,1.0,1.0,0.244157490321,0,0.0,0.0,0.21763930625,0.279196963837,0.0825277588153,0.361724722653,0.196669205022,nan,nan,0.0,0.0,0.0,nan,nan,224.102686249,363.808092958,364.052250448,364.308111204,nan,nan
0,121,4816,6,0,389,273,-0.0691208065164,0.476626077068,-0.280234315682,0,1.0,0.0,0.228021238465,0,0.0,0.0,0.222841676325,0.278904968225,0.0822448792411,0.361149847466,0.196660088984,nan,nan,0.0,0.0,0.0,nan,nan,224.102686249,364.808191602,365.03621284,365.308264017,nan,nan
0,122,4817,6,1,137,96,1.0,-0.300190217086,-0.0647316600203,1,1.0,1.0,0.131859738845,0,0.0,0.0,0.201346155877,0.278484441532,0.082033765239,0.360518206771,0.196450676293,nan,nan,0.0,0.0,0.0,nan,nan,224.102686249,365.80833358,365.940193319,366.308398013,nan,nan
0,123,4818,6,1,68,47,1.0,-0.129018143495,-0.972903198114,1,1.0,1.0,0.275682752021,0,0.0,0.0,0.211854576444,0.277282599707,0.0827596143239,0.360042214031,0.194522985383,nan,nan,0.0,0.0,0.0,nan,nan,224.102686249,366.808469572,367.084152324,367.308490954,nan,nan
0,124,4819,6,1,181,127,1.0,-0.123914391386,0.3392011262,1,1.0,1.0,0.283558579627,0,0.0,0.0,0.230367023498,0.277269592815,0.0824226317584,0.359692224574,0.194846961057,nan,nan,0.0,0.0,0.0,nan,nan,224.102686249,367.808583041,368.09214162,368.308620674,nan,nan
0,125,4820,6,1,467,328,0.473005185182,0.365775667588,-1.0,1,1.0,1.0,0.283403771464,0,0.0,0.0,0.280881701037,0.277320310451,0.0820915367424,0.359411847193,0.195228773708,nan,nan,0.0,0.0,0.0,nan,nan,224.102686249,368.808730152,369.092133923,369.308744976,nan,nan
0,126,4821,6,1,217,152,0.891250405156,0.0735373331823,0.568048345461,1,1.0,1.0,0.267258966807,0,0.0,0.0,0.278073772633,0.277368978139,0.0817643072553,0.359133285394,0.195604670884,nan,nan,0.0,0.0,0.0,nan,nan,224.102686249,369.808853314,370.076112281,370.308873556,nan,nan
0,127,4822,6,1,272,191,0.310166696092,0.316214117232,0.637281430288,1,1.0,1.0,0.307112791575,0,0.0,0.0,0.285925176616,0.277288739954,0.0814441401586,0.358732880112,0.195844599795,nan,nan,0.0,0.0,0.0,nan,nan,224.102686249,370.808991871,371.116104663,371.309002705,nan,nan
0,128,4823,6,1,213,149,0.929785093221,0.0521668813814,0.548906519778,1,1.0,1.0,0.290950310882,0,0.0,0.0,0.288440689755,0.277523575006,0.0811656764885,0.358689251495,0.196357898517,nan,nan,0.0,0.0,0.0,nan,nan,224.102686249,371.809118169,372.10006848,372.309127293,nan,nan
0,129,4824,6,1,495,348,0.706485112283,0.278551693791,-1.0,1,1.0,1.0,0.258838032372,0,0.0,0.0,0.28563371161,0.27762847138,0.0808566431485,0.358485114529,0.196771828231,nan,nan,0.0,0.0,0.0,nan,nan,224.102686249,372.809219949,373.068057982,373.309260148,nan,nan
0,130,4825,6,0,326,229,-0.12383419111,0.444071765824,0.352223541474,0,1.0,0.0,0.258656425402,0,0.0,0.0,0.269481589552,0.277482809062,0.0805594934675,0.35804230253,0.196923315595,nan,nan,0.0,0.0,0.0,nan,nan,224.102686249,373.809387017,374.068043442,374.30941011,nan,nan
0,131,4826,6,1,94,66,1.0,-0.249439013202,-0.526745155233,1,1.0,1.0,0.178533388302,0,0.0,0.0,0.232009282025,0.277337990726,0.0802659058158,0.357603896542,0.19707208491,nan,nan,0.0,0.0,0.0,nan,nan,224.102686249,374.809485375,374.988018764,375.309504477,nan,nan
0,132,4827,6,1,167,117,1.0,-0.195605812978,0.221546716301,1,1.0,1.0,0.130409446079,0,0.0,0.0,0.189199753261,0.27658375712,0.0804200736612,0.357003830781,0.196163683459,nan,nan,0.0,0.0,0.0,nan,nan,224.102686249,375.809619942,375.940029388,376.309635622,nan,nan
0,133,4828,6,1,452,317,0.351738073422,0.401406211611,-1.0,1,1.0,1.0,0.144177960232,0,1.0,0.0,0.151040264871,0.275476375976,0.0811112647231,0.356587640699,0.194365111253,nan,nan,0.0,0.0,0.0,nan,nan,224.102686249,376.859789461,377.003967421,377.359790601,nan,nan
0,134,4833,6,1,31,21,1.0,0.0668515730764,-1.0,1,1.0,1.0,0.23211723892,1,0.0,0.0,0.16890154841,0.274489169842,0.0815978850507,0.356087054893,0.192891284792,62.7648533007,39.0,1.0,0.0253789930673,-1.0,5.4382716993,1.58385097608,224.102686249,377.859859595,378.091976834,378.359894092,379.685068401,381.276952008
0,135,4834,6,1,76,53,1.0,-0.169674511773,-0.773365826749,1,1.0,1.0,0.286475700792,0,0.0,0.0,0.220923633315,0.274172961403,0.0813745970722,0.355547558475,0.19279836433,nan,nan,0.0,0.0,0.0,nan,nan,224.102686249,382.485463717,382.771939418,382.985487951,nan,nan
0,136,4835,6,1,397,279,-0.0275613476434,0.473159987783,-0.37569455347,1,1.0,1.0,0.29427113058,0,0.0,0.0,0.270954690098,0.274264092805,0.0810795125399,0.355343605345,0.193184580266,nan,nan,0.0,0.0,0.0,nan,nan,224.102686249,383.485597428,383.779868559,383.985611113,nan,nan
0,137,4836,6,1,333,234,-0.149813480994,0.453275949072,0.294183738108,1,1.0,1.0,0.262151154224,0,0.0,0.0,0.280965995199,0.274411203377,0.0807989576167,0.355210160994,0.193612245761,nan,nan,0.0,0.0,0.0,nan,nan,224.102686249,384.485717169,384.747868323,384.985739407,nan,nan
0,138,4837,6,1,182,127,1.0,-0.118523835432,0.347089474713,1,1.0,1.0,0.245975274127,0,0.0,0.0,0.267465852977,0.274321713967,0.080510295063,0.35483200903,0.193811418904,nan,nan,0.0,0.0,0.0,nan,nan,224.102686249,385.485840902,385.731816176,385.985868841,nan,nan
0,139,4838,6,1,420,295,0.1146601879,0.45369410126,-0.695047497311,1,1.0,1.0,0.237862815615,0,0.0,0.0,0.248663081322,0.274116304983,0.0802540820562,0.354370387039,0.193862222927,nan,nan,0.0,0.0,0.0,nan,nan,224.102686249,386.48595437,386.723817186,386.986004263,nan,nan
0,140,4839,6,1,197,138,1.0,-0.035797595552,0.455774741445,1,1.0,1.0,0.237680353224,0,0.0,0.0,0.240506147655,0.273855488513,0.0800235532211,0.353879041734,0.193831935292,nan,nan,0.0,0.0,0.0,nan,nan,224.102686249,387.486117446,387.7237978,387.986124004,nan,nan
0,141,4840,6,1,58,40,1.0,-0.0760896648475,-1.0,1,1.0,1.0,0.221528991126,0,0.0,0.0,0.232357386655,0.273597094689,0.0797954167019,0.353392511391,0.193801677987,nan,nan,0.0,0.0,0.0,nan,nan,224.102686249,388.486247451,388.707776442,388.986246311,nan,nan
0,142,4841,6,0,109,76,1.0,-0.294638327523,-0.357773695079,0,0.0,1.0,0.349411044735,0,0.0,0.0,0.269540129695,0.273227817359,0.0796319126649,0.352859730024,0.193595904694,nan,nan,0.0,0.0,0.0,nan,nan,224.102686249,389.486341819,389.835752863,389.986403115,nan,nan
0,143,4842,6,1,297,208,0.0686262056446,0.388646276542,0.544904663634,1,1.0,1.0,0.229270536918,0,0.0,0.0,0.266736857593,0.27376431896,0.0796063406632,0.353370659624,0.194157978297,nan,nan,0.0,0.0,0.0,nan,nan,224.102686249,390.48646156,390.715732097,390.98653768,nan,nan
0,144,4843,6,1,439,308,0.251144291643,0.426392204401,-1.0,1,1.0,1.0,0.21313229017,0,0.0,0.0,0.263937957274,0.273453173631,0.079414109731,0.352867283362,0.1940390639,nan,nan,0.0,0.0,0.0,nan,nan,224.102686249,391.48661038,391.699742671,391.986628627,nan,nan
0,145,4844,6,1,373,262,-0.135407706169,0.478559568072,-0.0996974893599,1,1.0,1.0,0.213018250652,0,0.0,0.0,0.21847369258,0.273034278607,0.0792962649196,0.352330543527,0.193738013688,nan,nan,0.0,0.0,0.0,nan,nan,224.102686249,392.486719858,392.699738109,392.986776878,nan,nan
0,146,4845,6,1,314,220,-0.0594438881467,0.42463230952,0.441925406839,1,1.0,1.0,0.228823503945,0,0.0,0.0,0.218324681589,0.272620374966,0.0791782947229,0.351798669689,0.193442080243,nan,nan,0.0,0.0,0.0,nan,nan,224.102686249,393.486868109,393.715691613,393.986916291,nan,nan
0,147,4846,6,1,69,48,1.0,-0.134207199312,-0.939648005704,1,1.0,1.0,0.228687227238,0,0.0,0.0,0.223509660612,0.272320396398,0.0789893078119,0.35130970421,0.193331088586,nan,nan,0.0,0.0,0.0,nan,nan,224.102686249,394.487000109,394.715687336,394.987016075,nan,nan
0,148,4847,6,1,307,215,-0.0113868739462,0.411053355611,0.487957006857,1,1.0,1.0,0.220549394842,0,0.0,0.0,0.226020042008,0.272023572118,0.0788018384124,0.35082541053,0.193221733705,nan,nan,0.0,0.0,0.0,nan,nan,224.102686249,395.487122416,395.707671811,395.98714893,nan,nan
0,149,4848,6,1,364,255,-0.160194321586,0.476704516321,-0.00341124574885,1,1.0,1.0,0.252396532334,0,0.0,0.0,0.233877718138,0.271675773623,0.0786482916624,0.350324065285,0.19302748196,nan,nan,0.0,0.0,0.0,nan,nan,224.102686249,396.487243298,396.73963983,396.987275514,nan,nan
0,150,4849,6,1,454,319,0.367627362238,0.397084843583,-1.0,1,1.0,1.0,0.236246881075,0,0.0,0.0,0.236397602751,0.271546382741,0.078399730954,0.349946113695,0.193146651787,nan,nan,0.0,0.0,0.0,nan,nan,224.102686249,397.48738157,397.723628451,397.98742462,nan,nan
0,151,4850,6,1,242,170,0.632911854383,0.197161183215,0.645921401967,1,1.0,1.0,0.252091763075,0,0.0,0.0,0.246911725495,0.27131105273,0.0781907454891,0.349501798219,0.193120307241,nan,nan,0.0,0.0,0.0,nan,nan,224.102686249,398.487509579,398.739601342,398.987548067,nan,nan
0,152,4851,6,1,326,229,-0.12383419111,0.444071765824,0.352223541474,1,1.0,1.0,0.25995903695,0,0.0,0.0,0.249432560367,0.271183772666,0.0779469949331,0.349130767599,0.193236777733,nan,nan,0.0,0.0,0.0,nan,nan,224.102686249,399.487637018,399.747596055,399.987651273,nan,nan
0,153,4852,6,1,482,338,0.597655625539,0.322480811492,-1.0,1,1.0,1.0,0.2438116665,0,0.0,0.0,0.251954155508,0.271109925721,0.0776954666878,0.348805392409,0.193414459033,nan,nan,0.0,0.0,0.0,nan,nan,224.102686249,400.487758755,400.731570421,400.987772439,nan,nan
0,154,4853,6,1,344,241,-0.172543464245,0.464730234515,0.195503824632,1,1.0,1.0,0.211685133167,0,0.0,0.0,0.238485278872,0.270931505726,0.0774723786774,0.348403884403,0.193459127049,nan,nan,0.0,0.0,0.0,nan,nan,224.102686249,401.487901874,401.699587007,401.98793409,nan,nan
0,155,4854,6,1,1,0,0.854939129564,0.207877072944,-1.0,1,1.0,1.0,0.163595973048,0,0.0,0.0,0.206364257572,0.270546789021,0.0773669224706,0.347913711492,0.19317986655,nan,nan,0.0,0.0,0.0,nan,nan,224.102686249,402.488015343,402.651611316,402.988062099,nan,nan
0,156,4855,6,1,366,257,-0.155593376329,0.477302029306,-0.0244766492797,1,1.0,1.0,0.0994252995588,0,1.0,0.0,0.158235468591,0.269856783757,0.0775908768776,0.347447660634,0.192265906879,nan,nan,0.0,0.0,0.0,nan,nan,224.102686249,403.488141356,403.587566656,403.988198661,nan,nan
0,157,4900,6,1,88,61,1.0,-0.225257592204,-0.599932847766,1,1.0,1.0,0.219220269006,1,0.0,0.0,0.160747180538,0.268764274243,0.078528699631,0.347292973874,0.190235574612,48.0504944941,60.0,1.0,-0.0867837676833,-1.0,-19.9254944941,1.71723313723,224.102686249,404.488282479,404.707502748,404.988296164,406.313449946,408.038717424
0,158,4901,6,1,383,269,-0.0968787136249,0.478131214543,-0.211081409456,1,1.0,1.0,0.292237242218,0,0.0,0.0,0.203627603594,0.26844870733,0.0783773744594,0.34682608179,0.190071332871,nan,nan,0.0,0.0,0.0,nan,nan,224.102686249,409.247181808,409.53941905,409.747227138,nan,nan
0,159,4902,6,1,244,171,0.611372359265,0.206163547436,0.648880721676,1,1.0,1.0,0.23608437553,0,0.0,0.0,0.249180628918,0.268599267678,0.0781517238504,0.346750991528,0.190447543827,nan,nan,0.0,0.0,0.0,nan,nan,224.102686249,410.247312953,410.483397328,410.747361705,nan,nan
0,160,4903,6,1,462,324,0.432089675478,0.378486360879,-1.0,1,1.0,1.0,0.21989309974,0,0.0,0.0,0.24940490583,0.268394771501,0.0779479707008,0.346342742201,0.1904468008,nan,nan,0.0,0.0,0.0,nan,nan,224.102686249,411.247470327,411.467363426,411.747486577,nan,nan
0,161,4904,6,1,305,214,0.00361192545304,0.406859252708,0.500196907155,1,1.0,1.0,0.203744874336,0,0.0,0.0,0.219907449869,0.268091636052,0.0777979596966,0.345889595749,0.190293676356,nan,nan,0.0,0.0,0.0,nan,nan,224.102686249,412.247596055,412.451340929,412.747637394,nan,nan
0,162,4905,6,1,123,86,1.0,-0.311441137266,-0.208672863777,1,1.0,1.0,0.211652632337,0,0.0,0.0,0.211763535471,0.267691966725,0.0777205694568,0.345412536182,0.189971397268,nan,nan,0.0,0.0,0.0,nan,nan,224.102686249,413.247696409,413.459349042,413.747767969,nan,nan
0,163,4906,6,1,316,222,-0.0718215561597,0.428203514031,0.427892255365,1,1.0,1.0,0.203503111377,0,0.0,0.0,0.206300206017,0.267346044907,0.0776045457876,0.344950590695,0.18974149912,nan,nan,0.0,0.0,0.0,nan,nan,224.102686249,414.247822423,414.451325534,414.747895123,nan,nan
0,164,4907,6,1,177,124,1.0,-0.145192147526,0.306921212481,1,1.0,1.0,0.217967549339,0,0.0,0.0,0.211041097684,0.266954370469,0.0775265768748,0.344480947343,0.189427793594,nan,nan,0.0,0.0,0.0,nan,nan,224.102686249,415.281328259,415.499295808,415.781354773,nan,nan
0,165,4908,6,1,429,301,0.177531820842,0.442080780324,-0.901885199234,1,1.0,1.0,0.225849933457,0,0.0,0.0,0.215773531391,0.26665567034,0.0773838786288,0.344039548969,0.189271791711,nan,nan,0.0,0.0,0.0,nan,nan,224.102686249,416.28143232,416.507282253,416.781485063,nan,nan
0,166,4909,6,1,49,34,1.0,-0.027785429985,-1.0,1,1.0,1.0,0.217695280444,0,0.0,0.0,0.220504254413,0.266408362844,0.0772140049609,0.343622367804,0.189194357883,nan,nan,0.0,0.0,0.0,nan,nan,224.102686249,417.281557763,417.499253043,417.781616208,nan,nan
0,167,4910,6,1,317,222,-0.077772836126,0.429938605076,0.420733606481,1,1.0,1.0,0.21755330218,0,0.0,0.0,0.220366172027,0.26611491054,0.0770733140329,0.343188224573,0.189041596507,nan,nan,0.0,0.0,0.0,nan,nan,224.102686249,418.281682636,418.499235938,418.781719984,nan,nan
0,168,4911,6,1,3,2,0.871087178923,0.199335109687,-1.0,1,1.0,1.0,0.217408757657,0,0.0,0.0,0.21755244676,0.265824122466,0.0769334886881,0.342757611154,0.188890633778,nan,nan,0.0,0.0,0.0,nan,nan,224.102686249,419.281832882,419.49924164,419.78183944,nan,nan
0,169,4912,6,1,169,118,1.0,-0.185917379452,0.239118302078,1,1.0,1.0,0.225263772532,0,0.0,0.0,0.220075277456,0.265535935771,0.0767945347654,0.342330470536,0.188741401005,nan,nan,0.0,0.0,0.0,nan,nan,224.102686249,420.281946066,420.507209839,420.781958325,nan,nan
0,170,4913,6,1,482,338,0.597655625539,0.322480811492,-1.0,1,1.0,1.0,0.185150509235,0,0.0,0.0,0.209274346475,0.265297638947,0.0766292675921,0.341926906539,0.188668371355,nan,nan,0.0,0.0,0.0,nan,nan,224.102686249,421.282072364,421.467222874,421.782097738,nan,nan
0,171,4914,6,1,146,102,1.0,-0.278792578557,0.0248813210997,1,1.0,1.0,0.232951150276,0,0.0,0.0,0.214455144014,0.264826185243,0.0766489830667,0.341475168309,0.188177202176,nan,nan,0.0,0.0,0.0,nan,nan,224.102686249,422.282215483,422.515166634,422.782217764,nan,nan
0,172,4915,6,1,25,17,1.0,0.0970682892709,-1.0,1,1.0,1.0,0.240839236416,0,0.0,0.0,0.219646965309,0.264639781529,0.0764631700169,0.341102951546,0.188176611512,nan,nan,0.0,0.0,0.0,nan,nan,224.102686249,423.282308426,423.523147662,423.782343492,nan,nan
0,173,4916,6,1,69,48,1.0,-0.134207199312,-0.939648005704,1,1.0,1.0,0.240683003329,0,0.0,0.0,0.238157796673,0.264501406267,0.076262039524,0.340763445791,0.188239366743,nan,nan,0.0,0.0,0.0,nan,nan,224.102686249,424.282458102,424.523141105,424.782500011,nan,nan
0,174,4917,6,0,6,4,0.895129075663,0.186272780825,-1.0,0,0.0,1.0,0.384532815777,0,0.0,0.0,0.288685018507,0.264363727637,0.0760627444327,0.34042647207,0.188300983205,nan,nan,0.0,0.0,0.0,nan,nan,224.102686249,425.28259723,425.667130046,425.782630301,nan,nan
0,175,4918,6,1,355,249,-0.173737462994,0.472683863687,0.0888799762457,1,1.0,1.0,0.304452258628,0,0.0,0.0,0.309889359244,0.265054354581,0.076385901179,0.34144025576,0.188668453402,nan,nan,0.0,0.0,0.0,nan,nan,224.102686249,426.282709843,426.587162102,426.782754604,nan,nan
0,176,4919,6,1,163,114,1.0,-0.214247802105,0.185723682048,1,1.0,1.0,0.264256601688,0,0.0,0.0,0.317747225364,0.265279485461,0.0762252133604,0.341504698821,0.1890542721,nan,nan,0.0,0.0,0.0,nan,nan,224.102686249,427.282843269,427.547099871,427.782880902,nan,nan
0,177,4920,6,1,385,270,-0.0879796604702,0.477733444059,-0.233926720364,1,1.0,1.0,0.224094586447,0,0.0,0.0,0.264267815587,0.265273673621,0.0760083948683,0.34128206849,0.189265278753,nan,nan,0.0,0.0,0.0,nan,nan,224.102686249,428.282963865,428.507058452,428.783000073,nan,nan
0,178,4921,6,0,62,43,1.0,-0.0974372467467,-1.0,0,1.0,0.0,0.207950352225,0,0.0,0.0,0.232100513453,0.265041023411,0.0758561949329,0.340897218344,0.189184828478,nan,nan,0.0,0.0,0.0,nan,nan,224.102686249,429.283108695,429.491059047,429.783139771,nan,nan
0,179,4922,6,1,495,348,0.706485112283,0.278551693791,-1.0,1,1.0,1.0,0.159812439699,0,0.0,0.0,0.19728579279,0.264720289303,0.0757630755069,0.34048336481,0.188957213797,nan,nan,0.0,0.0,0.0,nan,nan,224.102686249,430.283231002,430.443043442,430.78326949,nan,nan
0,180,4923,6,1,260,182,0.438016636947,0.272781976488,0.654406567654,1,1.0,1.0,0.119687772356,0,0.0,0.0,0.162483521427,0.264134211931,0.075954703328,0.340088915259,0.188179508603,nan,nan,0.0,0.0,0.0,nan,nan,224.102686249,431.283358441,431.403046213,431.783395789,nan,nan
0,181,4924,6,1,73,51,1.0,-0.1546788618,-0.830916872461,1,1.0,1.0,0.327520378865,0,0.0,0.0,0.202340196973,0.263331731712,0.0765005734879,0.339832305199,0.186831158224,nan,nan,0.0,0.0,0.0,nan,nan,224.102686249,432.28348873,432.611009109,432.783490441,nan,nan
0,182,4925,6,1,14,9,0.95801504718,0.150023555696,-1.0,1,1.0,1.0,0.335397631396,0,0.0,0.0,0.260868594206,0.263686365121,0.0764371772125,0.340123542334,0.187249187909,nan,nan,0.0,0.0,0.0,nan,nan,224.102686249,433.283612463,433.619010095,433.783620731,nan,nan
0,183,4926,6,1,456,320,0.383612429175,0.392633185378,-1.0,1,1.0,1.0,0.33523826208,0,0.0,0.0,0.332718757447,0.264080383068,0.0764109933652,0.340491376433,0.187669389703,nan,nan,0.0,0.0,0.0,nan,nan,224.102686249,434.283738761,434.618977023,434.783740472,nan,nan
0,184,4927,6,1,203,142,1.0,-0.00249325098487,0.493674673203,1,1.0,1.0,0.319105431437,0,0.0,0.0,0.329913774971,0.264469223937,0.0763822797855,0.340851503722,0.188086944151,nan,nan,0.0,0.0,0.0,nan,nan,224.102686249,435.283843677,435.602949109,435.783873043,nan,nan
0,185,4928,6,1,71,49,1.0,-0.144504067012,-0.877980773838,1,1.0,1.0,0.294933127705,0,0.0,0.0,0.316425607074,0.264766159847,0.076280273016,0.341046432863,0.188485886831,nan,nan,0.0,0.0,0.0,nan,nan,224.102686249,436.283980524,436.578913652,436.784002192,nan,nan
0,186,4929,6,1,253,177,0.513865899396,0.244839928328,0.655977188727,1,1.0,1.0,0.310778579675,0,0.0,0.0,0.308272379606,0.264929224538,0.0761059807373,0.341035205275,0.188823243801,nan,nan,0.0,0.0,0.0,nan,nan,224.102686249,437.284120222,437.594898802,437.784145596,nan,nan
0,187,4930,6,1,25,17,1.0,0.0970682892709,-1.0,1,1.0,1.0,0.278661739547,0,0.0,0.0,0.294791148975,0.265175726447,0.0759751345023,0.34115086095,0.189200591945,nan,nan,0.0,0.0,0.0,nan,nan,224.102686249,438.284228274,438.562890014,438.784265052,nan,nan
0,188,4931,6,1,316,222,-0.0718215561597,0.428203514031,0.427892255365,1,1.0,1.0,0.310529973824,0,0.0,0.0,0.299990097682,0.265247844165,0.0757781033666,0.341025947531,0.189469740798,nan,nan,0.0,0.0,0.0,nan,nan,224.102686249,439.284365977,439.594895951,439.784407316,nan,nan
0,189,4932,6,1,229,161,0.770397026975,0.135265939772,0.614681466938,1,1.0,1.0,0.262370964512,0,0.0,0.0,0.283854225961,0.265488706556,0.0756480365696,0.341136743126,0.189840669987,nan,nan,0.0,0.0,0.0,nan,nan,224.102686249,440.284494271,440.546865235,440.784510521,nan,nan
0,190,4933,6,1,511,359,0.838703193994,0.216284169582,-1.0,1,1.0,1.0,0.238253969699,0,0.0,0.0,0.270384969345,0.265472210567,0.0754479830976,0.340920193664,0.190024227469,nan,nan,0.0,0.0,0.0,nan,nan,224.102686249,441.284622564,441.522876534,441.784665044,nan,nan
0,191,4934,6,1,81,56,1.0,-0.193804253699,-0.694219169772,1,1.0,1.0,0.334064799361,0,0.0,0.0,0.278229911191,0.265328956667,0.0752749411203,0.340603897788,0.190054015547,nan,nan,0.0,0.0,0.0,nan,nan,224.102686249,442.28475485,442.618819649,442.784792483,nan,nan
0,192,4935,6,1,270,189,0.331159066004,0.309369715406,0.641393874915,1,1.0,1.0,0.333933369257,0,0.0,0.0,0.302084046106,0.265688830189,0.0752413242946,0.340930154484,0.190447505895,nan,nan,0.0,0.0,0.0,nan,nan,224.102686249,443.284877727,443.618811097,443.784916215,nan,nan
0,193,4936,6,1,181,127,1.0,-0.123914391386,0.3392011262,1,1.0,1.0,0.277799603995,0,0.0,0.0,0.315265924204,0.266044270497,0.0752057291091,0.341249999606,0.190838541388,nan,nan,0.0,0.0,0.0,nan,nan,224.102686249,444.284999464,444.562799068,444.785042514,nan,nan
0,194,4937,6,1,267,187,0.362924526182,0.298807232282,0.646622522267,1,1.0,1.0,0.301653453615,0,0.0,0.0,0.304462142289,0.266105178961,0.0750153903555,0.341120569316,0.191089788605,nan,nan,0.0,0.0,0.0,nan,nan,224.102686249,445.285137736,445.58679119,445.785172518,nan,nan
0,195,4938,6,1,412,289,0.0618891196837,0.462096609288,-0.571158935758,1,1.0,1.0,0.285480994266,0,0.0,0.0,0.288311350625,0.26628841749,0.0748650938759,0.341153511366,0.191423323614,nan,nan,0.0,0.0,0.0,nan,nan,224.102686249,446.285261469,446.570742463,446.785300242,nan,nan
0,196,4939,6,0,55,38,1.0,-0.0599996532909,-1.0,0,0.0,1.0,0.413328266237,0,0.0,0.0,0.333487571372,0.266386840961,0.0746854679349,0.341072308895,0.191701373026,nan,nan,0.0,0.0,0.0,nan,nan,224.102686249,447.285401452,447.698729718,447.785429106,nan,nan
0,197,4940,6,1,491,345,0.673033477965,0.292707709811,-1.0,1,1.0,1.0,0.389203003608,0,0.0,0.0,0.362670754703,0.26713654211,0.0752267269874,0.342363269097,0.191909815123,nan,nan,0.0,0.0,0.0,nan,nan,224.102686249,448.28551321,448.674716214,448.785553979,nan,nan
0,198,4941,6,1,76,53,1.0,-0.169674511773,-0.773365826749,1,1.0,1.0,0.277013588697,0,0.0,0.0,0.35984828618,0.267756168818,0.0755353292208,0.343291498039,0.192220839597,nan,nan,0.0,0.0,0.0,nan,nan,224.102686249,449.285666308,449.562679897,449.78568826,nan,nan
0,199,4942,6,1,21,14,1.0,0.116713997928,-1.0,1,1.0,1.0,0.268917095847,0,0.0,0.0,0.311711229384,0.267802923464,0.0753471997567,0.343150123221,0.192455723707,nan,nan,0.0,0.0,0.0,nan,nan,224.102686249,450.28575982,450.554676916,450.785793461,nan,nan
0,200,4943,6,1,373,262,-0.135407706169,0.478559568072,-0.0996974893599,1,1.0,1.0,0.244779288769,0,0.0,0.0,0.263569991104,0.26780852232,0.0751576880441,0.342966210364,0.192650834276,nan,nan,0.0,0.0,0.0,nan,nan,224.102686249,451.285902654,451.530681943,451.785945704,nan,nan
0,201,4944,6,1,282,198,0.208142307666,0.34807905204,0.609295500931,1,1.0,1.0,0.244632463437,0,0.0,0.0,0.252776282684,0.267693376152,0.0749871532406,0.342680529393,0.192706222912,nan,nan,0.0,0.0,0.0,nan,nan,224.102686249,452.286018118,452.530650582,452.786046913,nan,nan
0,202,4945,6,1,221,155,0.851781464038,0.0945411604707,0.585422935822,1,1.0,1.0,0.236450155731,0,0.0,0.0,0.241953969312,0.267578645243,0.0748179811216,0.342396626365,0.192760664122,nan,nan,0.0,0.0,0.0,nan,nan,224.102686249,453.286160667,453.522610823,453.786165514,nan,nan
0,203,4946,6,1,291,204,0.122027637739,0.373441943191,0.573791926984,1,1.0,1.0,0.300315204076,0,0.0,0.0,0.260465941081,0.26742454381,0.0746645294673,0.342089073277,0.192760014343,nan,nan,0.0,0.0,0.0,nan,nan,224.102686249,454.286289817,454.586605021,454.78629951,nan,nan
0,204,4947,6,1,465,326,0.456588679398,0.37096152752,-1.0,1,1.0,1.0,0.292167393491,0,0.0,0.0,0.276310917766,0.267586566767,0.0745159897056,0.342102556473,0.193070577061,nan,nan,0.0,0.0,0.0,nan,nan,224.102686249,455.286412694,455.578580087,455.786426949,nan,nan
0,205,4948,6,1,280,196,0.228089347314,0.342018854333,0.61587222022,1,1.0,1.0,0.308059316594,0,0.0,0.0,0.300180638054,0.267707061016,0.0743529506027,0.342060011618,0.193354110413,nan,nan,0.0,0.0,0.0,nan,nan,224.102686249,456.286525022,456.594584339,456.786548971,nan,nan
0,206,4949,6,1,176,123,1.0,-0.150429669724,0.298675466069,1,1.0,1.0,0.426193020307,0,0.0,1.0,0.34213991013,0.267903901287,0.0742246444939,0.342128545781,0.193679256793,nan,nan,0.0,0.0,0.0,nan,nan,224.102686249,457.312366574,457.738559594,457.811668654,nan,nan
0,207,4953,6,1,86,60,1.0,-0.21659106269,-0.625617802914,1,1.0,1.0,0.386775395367,1,0.0,0.0,0.373675910756,0.268672295068,0.0748571414875,0.343529436556,0.193815153581,48.160361626,60.0,1.0,-0.0867837676833,-1.0,-18.629111626,1.60891506588,224.102686249,458.311768154,458.698543549,458.811813484,460.136973538,461.753845114
0,208,4954,6,1,366,257,-0.155593376329,0.477302029306,-0.0244766492797,1,1.0,1.0,0.255715926178,0,0.0,0.0,0.356228113951,0.269242841447,0.0751237573187,0.344366598765,0.194119084128,nan,nan,0.0,0.0,0.0,nan,nan,224.102686249,462.970758087,463.226474013,463.470746682,nan,nan
0,209,4955,6,0,25,17,1.0,0.0970682892709,-1.0,0,0.0,1.0,0.391580719035,0,0.0,0.0,0.344690680193,0.2691778082,0.0749487944708,0.344126602671,0.194229013729,nan,nan,0.0,0.0,0.0,nan,nan,224.102686249,463.970859011,464.36243973,464.470886095,nan,nan
0,210,4956,6,1,84,59,1.0,-0.20765784414,-0.652191087791,1,1.0,1.0,0.279466000386,0,0.0,0.0,0.308920881866,0.269763468061,0.0752448545023,0.345008322563,0.194518613558,nan,nan,0.0,0.0,0.0,nan,nan,224.102686249,464.970960506,465.250426506,465.470983314,nan,nan
0,211,4957,6,1,494,347,0.698129958021,0.282143999684,-1.0,1,1.0,1.0,0.239320805762,0,0.0,0.0,0.303455841728,0.269809670596,0.0750684579576,0.344878128553,0.194741212638,nan,nan,0.0,0.0,0.0,nan,nan,224.102686249,465.971095357,466.210416163,466.471144679,nan,nan
0,212,4958,6,1,351,246,-0.175686286722,0.4701852659,0.128489978773,1,1.0,1.0,0.215181002859,0,0.0,0.0,0.244655936336,0.269665173606,0.0749196275563,0.344584801162,0.19474554605,nan,nan,0.0,0.0,0.0,nan,nan,224.102686249,466.971206545,467.186387548,467.471276109,nan,nan
0,213,4959,6,1,71,49,1.0,-0.144504067012,-0.877980773838,1,1.0,1.0,0.190992733464,0,0.0,0.0,0.215164847362,0.2694081728,0.0748358927085,0.344244065509,0.194572280092,nan,nan,0.0,0.0,0.0,nan,nan,224.102686249,467.971371902,468.162364636,468.471371047,nan,nan
0,214,5000,6,1,507,356,0.805995650865,0.232688349973,-1.0,1,1.0,1.0,0.164831587113,0,1.0,0.0,0.190335107812,0.269040025198,0.0748521927012,0.343892217899,0.194187832497,nan,nan,0.0,0.0,0.0,nan,nan,224.102686249,469.021522034,469.186353622,469.521536004,nan,nan
0,215,5005,6,1,20,14,1.0,0.121558187834,-1.0,1,1.0,1.0,0.116782625206,1,0.0,0.0,0.157535648594,0.26855306988,0.0750145114911,0.343567581371,0.193538558389,87.4438499214,4.0,0.879126049628,0.195014037372,-1.0,-11.5063499214,1.50881864596,224.102686249,470.021597871,470.138380496,470.521660592,471.84680183,473.363656242
0,216,5006,6,0,213,149,0.929785093221,0.0521668813814,0.548906519778,0,0.0,1.0,0.422047127504,0,0.0,0.0,0.234553779941,0.267847160835,0.0755489367255,0.34339609756,0.192298224109,nan,nan,0.0,0.0,0.0,nan,nan,224.102686249,474.572205015,474.994252142,475.07223609,nan,nan
0,217,5007,6,1,472,331,0.51429864939,0.352212277195,-1.0,1,1.0,1.0,0.277911362238,0,0.0,0.0,0.272247038316,0.268561049569,0.0760972374961,0.344658287065,0.192463812073,nan,nan,0.0,0.0,0.0,nan,nan,224.102686249,475.572333594,475.850244956,476.072336445,nan,nan
0,218,5008,6,1,176,123,1.0,-0.150429669724,0.298675466069,1,1.0,1.0,0.221779307351,0,0.0,0.0,0.307245932364,0.268604138568,0.075924336858,0.344528475426,0.19267980171,nan,nan,0.0,0.0,0.0,nan,nan,224.102686249,476.572457041,476.794236348,477.072476428,nan,nan
0,219,5009,6,1,403,283,0.00657627305109,0.469456436931,-0.450524507496,1,1.0,1.0,0.189607158303,0,0.0,0.0,0.229765942631,0.268389345764,0.0758160520273,0.344205397791,0.192573293737,nan,nan,0.0,0.0,0.0,nan,nan,224.102686249,477.572584765,477.762191923,478.072631236,nan,nan
0,220,5010,6,1,2,1,0.863024578927,0.203622855609,-1.0,1,1.0,1.0,0.157522819471,0,1.0,0.0,0.189636428375,0.268029609748,0.0758290064102,0.343858616158,0.192200603338,nan,nan,0.0,0.0,0.0,nan,nan,224.102686249,478.572682268,478.730205088,479.072756109,nan,nan
0,221,5014,6,1,96,67,1.0,-0.25681952169,-0.503302481145,1,1.0,1.0,0.181397195905,1,0.0,0.0,0.17617572456,0.267527306156,0.0760207690348,0.343548075191,0.191506537121,37.2267172824,75.0,1.0,-0.164714458691,-0.791355921409,-14.7267172824,1.56723661488,224.102686249,479.572815124,479.75421232,480.07287699,481.398027066,482.973212494
0,222,5015,6,1,176,123,1.0,-0.150429669724,0.298675466069,1,1.0,1.0,0.268329794519,0,0.0,0.0,0.202416603298,0.26713757715,0.0760685401794,0.34320611733,0.191069036971,nan,nan,0.0,0.0,0.0,nan,nan,224.102686249,484.181748436,484.450078231,484.681793197,nan,nan
0,223,5016,6,1,3,2,0.871087178923,0.199335109687,-1.0,1,1.0,1.0,0.236175891478,0,0.0,0.0,0.228634293967,0.267142947499,0.0758970632582,0.343040010757,0.191245884241,nan,nan,0.0,0.0,0.0,nan,nan,224.102686249,485.18189013,485.418066022,485.681916359,nan,nan
0,224,5017,6,1,231,162,0.749609680972,0.145151270079,0.620821461523,1,1.0,1.0,0.228036634158,0,0.0,0.0,0.244180773385,0.267004081777,0.0757549599728,0.34275904175,0.191249121804,nan,nan,0.0,0.0,0.0,nan,nan,224.102686249,486.182009016,486.41004565,486.682024126,nan,nan
0,225,5018,6,0,319,224,-0.0891891826932,0.433308674125,0.406137099325,0,1.0,0.0,0.219890818931,0,0.0,0.0,0.228034448189,0.266830119957,0.0756303037194,0.342460423676,0.191199816238,nan,nan,0.0,0.0,0.0,nan,nan,224.102686249,487.182147288,487.402038107,487.68218207,nan,nan
0,226,5019,6,1,68,47,1.0,-0.129018143495,-0.972903198114,1,1.0,1.0,0.19580375962,0,0.0,0.0,0.214577070903,0.266621500841,0.075526616408,0.342148117249,0.191094884433,nan,nan,0.0,0.0,0.0,nan,nan,224.102686249,488.182239375,488.378043134,488.682276438,nan,nan
0,227,5020,6,1,15,10,0.965734432428,0.145352784795,-1.0,1,1.0,1.0,0.211695967242,0,0.0,0.0,0.209130181931,0.266308148004,0.0755057772914,0.341813925296,0.190802370713,nan,nan,0.0,0.0,0.0,nan,nan,224.102686249,489.182365958,489.394061925,489.682425829,nan,nan
0,228,5021,6,1,150,105,1.0,-0.266152531622,0.0638227105866,1,1.0,1.0,0.275444980711,0,0.0,0.0,0.227648235857,0.26606756571,0.0754260443852,0.341493610095,0.190641521325,nan,nan,0.0,0.0,0.0,nan,nan,224.102686249,490.182516775,490.457961756,490.6825316,nan,nan
0,229,5022,6,1,427,300,0.163265173604,0.444863218481,-0.840208708629,1,1.0,1.0,0.291306398343,0,0.0,0.0,0.259482448765,0.266108694723,0.0752630056716,0.341371700395,0.190845689052,nan,nan,0.0,0.0,0.0,nan,nan,224.102686249,491.182646494,491.473952893,491.682684698,nan,nan
0,230,5023,6,1,357,251,-0.1717918326,0.473767524415,0.068739031695,1,1.0,1.0,0.283198215999,0,0.0,0.0,0.283316531684,0.266218728363,0.0751168730385,0.341335601402,0.191101855325,nan,nan,0.0,0.0,0.0,nan,nan,224.102686249,492.182746564,492.46594478,492.682789044,nan,nan
0,231,5024,6,1,42,29,1.0,0.00954878589686,-1.0,1,1.0,1.0,0.235052891541,0,0.0,0.0,0.269852501961,0.266292552223,0.0749617225906,0.341254274813,0.191330829632,nan,nan,0.0,0.0,0.0,nan,nan,224.102686249,493.182875143,493.417928034,493.682915057,nan,nan
0,232,5025,6,1,417,293,0.0945046041228,0.457053563907,-0.645720198395,1,1.0,1.0,0.2348909555,0,0.0,0.0,0.251047354347,0.266157315596,0.074827404812,0.340984720408,0.191329910784,nan,nan,0.0,0.0,0.0,nan,nan,224.102686249,494.182998876,494.417889831,494.683074711,nan,nan
0,233,5026,6,1,76,53,1.0,-0.169674511773,-0.773365826749,1,1.0,1.0,0.242740269285,0,0.0,0.0,0.237561372109,0.266022546803,0.0746940549947,0.340716601798,0.191328491808,nan,nan,0.0,0.0,0.0,nan,nan,224.102686249,495.183128595,495.425868864,495.683196448,nan,nan
0,234,5027,6,1,460,323,0.415848916989,0.383334931935,-1.0,1,1.0,1.0,0.242605132982,0,0.0,0.0,0.240078785922,0.265922622865,0.0745491331357,0.340471756001,0.191373489729,nan,nan,0.0,0.0,0.0,nan,nan,224.102686249,496.183255748,496.425860881,496.683299654,nan,nan
0,235,5028,6,1,147,103,1.0,-0.275801134503,0.0346720467303,1,1.0,1.0,0.322458466981,0,0.0,0.0,0.269267956416,0.265822975472,0.074405218471,0.340228193943,0.191417757001,nan,nan,0.0,0.0,0.0,nan,nan,224.102686249,497.183385183,497.50584365,497.683422531,nan,nan
0,236,5029,6,0,286,201,0.169078956243,0.359734776014,0.594698705761,0,1.0,0.0,0.394288293552,0,0.0,0.0,0.319783964505,0.266063977564,0.0743382115591,0.340402189123,0.191725766005,nan,nan,0.0,0.0,0.0,nan,nan,224.102686249,498.183552535,498.577840829,498.68358133,nan,nan
0,237,5030,6,1,25,17,1.0,0.0970682892709,-1.0,1,1.0,1.0,0.194157319143,0,0.0,0.0,0.303634693225,0.266607300937,0.074646673014,0.341253973951,0.191960627923,nan,nan,0.0,0.0,0.0,nan,nan,224.102686249,499.183660302,499.377817621,499.68368197,nan,nan
0,238,5031,6,0,483,339,0.606025706087,0.319314454546,-1.0,0,0.0,1.0,0.409990340937,0,0.0,0.0,0.332811984544,0.266301604811,0.0746369140667,0.340938518878,0.191664690744,nan,nan,0.0,0.0,0.0,nan,nan,224.102686249,500.183808838,500.593799179,500.68382851,nan,nan
0,239,5032,6,1,164,115,1.0,-0.209685835145,0.194761549991,1,1.0,1.0,0.33777335193,0,0.0,0.0,0.31397367067,0.266905338996,0.0750576317003,0.341962970697,0.191847707296,nan,nan,0.0,0.0,0.0,nan,nan,224.102686249,501.184010117,501.521783469,501.683957089,nan,nan
0,240,5033,6,1,372,261,-0.138660017671,0.478458869494,-0.0888123791441,1,1.0,1.0,0.337714621797,0,0.0,0.0,0.361826104888,0.267201857879,0.0750400033832,0.342241861262,0.192161854496,nan,nan,0.0,0.0,0.0,nan,nan,224.102686249,502.184044044,502.521758666,502.684065997,nan,nan
0,241,5034,6,0,307,215,-0.0113868739462,0.411053355611,0.487957006857,0,0.0,1.0,0.441567205824,0,0.0,0.0,0.372351726517,0.267495661062,0.0750211313773,0.342516792439,0.192474529685,nan,nan,0.0,0.0,0.0,nan,nan,224.102686249,503.184185167,503.625752373,503.684215958,nan,nan
0,242,5035,6,1,129,90,1.0,-0.310070485259,-0.146368003411,1,1.0,1.0,0.313447665423,0,0.0,0.0,0.364243164348,0.26821794963,0.0756969281803,0.34391487781,0.192521021449,nan,nan,0.0,0.0,0.0,nan,nan,224.102686249,504.184272978,504.497720643,504.684313176,nan,nan
0,243,5036,6,1,70,49,1.0,-0.13936984996,-0.906436913284,1,1.0,1.0,0.297259810846,0,0.0,0.0,0.350758227364,0.268404849282,0.0755960689032,0.344000918185,0.192808780378,nan,nan,0.0,0.0,0.0,nan,nan,224.102686249,505.184438049,505.48169786,505.684442896,nan,nan
0,244,5037,6,1,325,228,-0.119404900653,0.442631039184,0.360186421743,1,1.0,1.0,0.249183194712,0,0.0,0.0,0.28663022366,0.268523593979,0.0754629733906,0.34398656737,0.193060620589,nan,nan,0.0,0.0,0.0,nan,nan,224.102686249,506.184527285,506.43371048,506.684568909,nan,nan
0,245,5038,6,1,283,198,0.19826868328,0.351050922538,0.605825948857,1,1.0,1.0,0.265008689836,0,0.0,0.0,0.270483898465,0.268444330048,0.0753183131404,0.343762643188,0.193126016907,nan,nan,0.0,0.0,0.0,nan,nan,224.102686249,507.18468808,507.44969677,507.684693497,nan,nan
0,246,5039,6,1,174,122,1.0,-0.160790688716,0.281981279739,1,1.0,1.0,0.28885199083,0,0.0,0.0,0.267681291793,0.268430307027,0.0751647643042,0.343595071331,0.193265542722,nan,nan,0.0,0.0,0.0,nan,nan,224.102686249,508.184820366,508.473672356,508.68483291,nan,nan
0,247,5040,6,1,54,37,1.0,-0.0546292063271,-1.0,1,1.0,1.0,0.240688705351,0,0.0,0.0,0.264849795339,0.268513322001,0.0750230882924,0.343536410294,0.193490233709,nan,nan,0.0,0.0,0.0,nan,nan,224.102686249,509.184946664,509.425635369,509.684983442,nan,nan
0,248,5041,6,1,480,337,0.580928072941,0.32870764083,-1.0,1,1.0,1.0,0.256572930142,0,0.0,0.0,0.262037875441,0.268400671732,0.074891910342,0.343292582074,0.19350876139,nan,nan,0.0,0.0,0.0,nan,nan,224.102686249,510.18506612,510.44163905,510.685084651,nan,nan
0,249,5042,6,1,121,85,1.0,-0.310732805591,-0.229640808446,1,1.0,1.0,0.280424499419,0,0.0,0.0,0.259228711637,0.268352979225,0.0747445244338,0.343097503659,0.193608454791,nan,nan,0.0,0.0,0.0,nan,nan,224.102686249,511.185189852,511.465614351,511.685232047,nan,nan
0,250,5043,6,1,414,291,0.0747837862165,0.460162189034,-0.600089175003,1,1.0,1.0,0.304286616854,0,0.0,0.0,0.280428015472,0.268401459226,0.0745981909111,0.342999650137,0.193803268315,nan,nan,0.0,0.0,0.0,nan,nan,224.102686249,512.185320997,512.489607614,512.685345231,nan,nan
0,251,5044,6,1,78,54,1.0,-0.179467652321,-0.739907630878,1,1.0,1.0,0.296131108422,0,0.0,0.0,0.293614074898,0.268544999857,0.0744832927649,0.343028292621,0.194061707092,nan,nan,0.0,0.0,0.0,nan,nan,224.102686249,513.185435607,513.481566715,513.685467822,nan,nan
0,252,5045,6,1,230,161,0.760023132926,0.140224214653,0.61781109556,1,1.0,1.0,0.295978581067,0,0.0,0.0,0.298798768781,0.268654904672,0.0743550807619,0.343009985433,0.19429982391,nan,nan,0.0,0.0,0.0,nan,nan,224.102686249,514.185564471,514.481543052,514.685590985,nan,nan
0,253,5046,6,1,489,343,0.656284860842,0.299572439858,-1.0,1,1.0,1.0,0.303809077945,0,0.0,0.0,0.298639589145,0.268763331959,0.0742272841494,0.342990616108,0.194536047809,nan,nan,0.0,0.0,0.0,nan,nan,224.102686249,515.185712151,515.489521229,515.685725266,nan,nan
0,254,5047,6,1,34,23,1.0,0.0514419701458,-1.0,1,1.0,1.0,0.263669300359,0,0.0,0.0,0.287818986457,0.268901852694,0.0741130734554,0.343014926149,0.194788779239,nan,nan,0.0,0.0,0.0,nan,nan,224.102686249,516.185835884,516.449505184,516.685861543,nan,nan
0,255,5048,6,1,196,137,1.0,-0.0413610816081,0.449130757868,1,1.0,1.0,0.287518017925,0,0.0,0.0,0.284998798743,0.268881252094,0.073967763489,0.342849015583,0.194913488605,nan,nan,0.0,0.0,0.0,nan,nan,224.102686249,517.18595648,517.473474498,517.685978718,nan,nan
0,256,5049,6,1,60,42,1.0,-0.0867837676833,-1.0,1,1.0,1.0,0.287388013676,0,0.0,0.0,0.279525110653,0.26895433745,0.0738317747633,0.342786112214,0.195122562687,nan,nan,0.0,0.0,0.0,nan,nan,224.102686249,518.186092187,518.4734802,518.686098174,nan,nan
0,257,5050,6,1,298,209,0.0600896634305,0.391050340636,0.53969689008,1,1.0,1.0,0.303248290438,0,0.0,0.0,0.292718107346,0.269026343998,0.0736964018444,0.342722745843,0.195329942154,nan,nan,0.0,0.0,0.0,nan,nan,224.102686249,519.186219911,519.489468201,519.686226468,nan,nan
0,258,5052,6,1,148,104,1.0,-0.272695592461,0.0444264621409,1,1.0,1.0,0.300753969699,0,0.0,0.0,0.297130091271,0.269159503323,0.0735837343968,0.34274323772,0.195575768926,nan,nan,0.0,0.0,0.0,nan,nan,224.102686249,520.244710295,520.545464265,520.744694329,nan,nan
0,259,5053,6,1,299,210,0.0516645560415,0.393417669654,0.534378752182,1,1.0,1.0,0.276599911973,0,0.0,0.0,0.29353405737,0.269281962495,0.0734672261211,0.342749188616,0.195814736374,nan,nan,0.0,0.0,0.0,nan,nan,224.102686249,521.244804947,521.521404859,521.744824904,nan,nan
0,260,5054,6,1,376,264,-0.124962824795,0.478704673615,-0.132627625282,1,1.0,1.0,0.276487868745,0,0.0,0.0,0.284613916806,0.269310217126,0.0733266648001,0.342636881926,0.195983552326,nan,nan,0.0,0.0,0.0,nan,nan,224.102686249,522.244925544,522.521413412,522.744952343,nan,nan
0,261,5055,6,1,22,15,1.0,0.111842423158,-1.0,1,1.0,1.0,0.242990585044,0,0.0,0.0,0.265359455254,0.269337823478,0.0731868646565,0.342524688135,0.196150958822,nan,nan,0.0,0.0,0.0,nan,nan,224.102686249,523.278412564,523.521403149,523.778413419,nan,nan
0,262,5056,6,1,149,104,1.0,-0.269478519393,0.0541436597792,1,1.0,1.0,0.402827258222,0,0.0,0.0,0.307435237337,0.269236876205,0.0730646587744,0.342301534979,0.19617221743,nan,nan,0.0,0.0,0.0,nan,nan,224.102686249,524.27853202,524.681359278,524.778542568,nan,nan
0,263,5057,6,0,209,146,0.967301840512,0.0304835193525,0.52804999659,0,0.0,1.0,0.418691811617,0,0.0,0.0,0.354836551628,0.269746763159,0.0733888590202,0.343135622179,0.196357904139,nan,nan,0.0,0.0,0.0,nan,nan,224.102686249,525.278666016,525.697357827,525.778698232,nan,nan
0,264,5058,6,1,395,277,-0.0383984177995,0.474183508328,-0.351427224487,1,1.0,1.0,0.290581964422,0,0.0,0.0,0.370700344754,0.270313094142,0.073820574993,0.344133669135,0.196492519149,nan,nan,0.0,0.0,0.0,nan,nan,224.102686249,526.278763234,526.569345199,526.778802007,nan,nan
0,265,5059,6,0,312,219,-0.0464483572634,0.420925197877,0.455573212045,0,1.0,0.0,0.282365445513,0,0.0,0.0,0.330546407184,0.270389870165,0.0736911500899,0.344081020255,0.196698720076,nan,nan,0.0,0.0,0.0,nan,nan,224.102686249,527.278943131,527.561308576,527.778953394,nan,nan
0,266,5100,6,1,368,258,-0.150457169737,0.477793263397,-0.0457341785459,1,1.0,1.0,0.234293106012,0,0.0,0.0,0.269080171982,0.270435061016,0.0735556437308,0.343990704747,0.196879417285,nan,nan,0.0,0.0,0.0,nan,nan,224.102686249,528.279016116,528.513309222,528.779088246,nan,nan
0,267,5101,6,1,169,118,1.0,-0.185917379452,0.239118302078,1,1.0,1.0,0.282120260876,0,0.0,0.0,0.266259604134,0.270299189005,0.0734505614064,0.343749750411,0.196848627598,nan,nan,0.0,0.0,0.0,nan,nan,224.102686249,529.279146976,529.561267237,529.77917577,nan,nan
0,268,5102,6,1,413,290,0.0683106243366,0.461143133648,-0.585495598612,1,1.0,1.0,0.28199282242,0,0.0,0.0,0.266135396436,0.270343462682,0.0733164404269,0.343659903109,0.197027022255,nan,nan,0.0,0.0,0.0,nan,nan,224.102686249,530.279281827,530.56127465,530.779307201,nan,nan
0,269,5103,6,1,357,251,-0.1717918326,0.473767524415,0.068739031695,1,1.0,1.0,0.289847552776,0,0.0,0.0,0.284653545357,0.270386930442,0.0731829749861,0.343569905428,0.197203955456,nan,nan,0.0,0.0,0.0,nan,nan,224.102686249,531.279395296,531.569242849,531.779434639,nan,nan
0,270,5104,6,1,129,90,1.0,-0.310070485259,-0.146368003411,1,1.0,1.0,0.321692408994,0,0.0,0.0,0.297844261397,0.270459274763,0.0730564207746,0.343515695538,0.197402853989,nan,nan,0.0,0.0,0.0,nan,nan,224.102686249,532.279527296,532.601219705,532.779562933,nan,nan
0,271,5105,6,1,27,18,1.0,0.0870912575778,-1.0,1,1.0,1.0,0.305552165955,0,0.0,0.0,0.305697375908,0.270649027112,0.0729873869937,0.343636414106,0.197661640118,nan,nan,0.0,0.0,0.0,nan,nan,224.102686249,533.279684385,533.585236551,533.779722018,nan,nan
0,272,5106,6,1,140,98,1.0,-0.294209249228,-0.0345777392028,1,1.0,1.0,0.337412132882,0,0.0,0.0,0.321552235944,0.270777820982,0.0728833312261,0.343661152208,0.197894489756,nan,nan,0.0,0.0,0.0,nan,nan,224.102686249,534.279789301,534.617201434,534.779811824,nan,nan
0,273,5107,6,1,414,291,0.0747837862165,0.460162189034,-0.600089175003,1,1.0,1.0,0.297225028742,0,0.0,0.0,0.313396442526,0.27102280007,0.0728609266389,0.343883726709,0.198161873431,nan,nan,0.0,0.0,0.0,nan,nan,224.102686249,535.279940118,535.577165147,535.779940118,nan,nan
0,274,5108,6,1,324,227,-0.114799643766,0.441158325109,0.368064040095,1,1.0,1.0,0.297104717698,0,0.0,0.0,0.310580626441,0.27111877893,0.0727445835621,0.343863362492,0.198374195368,nan,nan,0.0,0.0,0.0,nan,nan,224.102686249,536.28003477,536.577139488,536.780074399,nan,nan
0,275,5109,6,1,248,174,0.568115903494,0.223728204869,0.653295769881,1,1.0,1.0,0.296965874732,0,0.0,0.0,0.297098540391,0.271213618122,0.0726286230299,0.343842241152,0.198584995093,nan,nan,0.0,0.0,0.0,nan,nan,224.102686249,537.280161069,537.577126944,537.780204974,nan,nan
0,276,5110,6,1,351,246,-0.175686286722,0.4701852659,0.128489978773,1,1.0,1.0,0.280801113695,0,0.0,0.0,0.291623902041,0.271307262692,0.0725130206029,0.343820283295,0.198794242089,nan,nan,0.0,0.0,0.0,nan,nan,224.102686249,538.280314166,538.56111528,538.780322719,nan,nan
0,277,5111,6,1,49,34,1.0,-0.027785429985,-1.0,1,1.0,1.0,0.296726392582,0,0.0,0.0,0.29149779367,0.271341660703,0.0723837849115,0.343725445614,0.198957875791,nan,nan,0.0,0.0,0.0,nan,nan,224.102686249,539.280409674,539.577136067,539.780454434,nan,nan
0,278,5112,6,1,278,195,0.248285521772,0.335802812283,0.621962573991,1,1.0,1.0,0.246488735545,0,0.0,0.0,0.274672080607,0.271433302334,0.072269048508,0.343702350842,0.199164253826,nan,nan,0.0,0.0,0.0,nan,nan,224.102686249,540.330597439,540.577086175,540.830609414,nan,nan
0,279,5113,6,0,163,114,1.0,-0.214247802105,0.185723682048,0,1.0,0.0,0.246370704845,0,0.0,0.0,0.263195277657,0.271343573677,0.0721544070577,0.343497980734,0.199189166619,nan,nan,0.0,0.0,0.0,nan,nan,224.102686249,541.330707487,541.577078192,541.830741984,nan,nan
0,280,5114,6,1,357,251,-0.1717918326,0.473767524415,0.068739031695,1,1.0,1.0,0.182219703216,0,0.0,0.0,0.225026381202,0.271254065186,0.0720404421509,0.343294507337,0.199213623035,nan,nan,0.0,0.0,0.0,nan,nan,224.102686249,542.330830649,542.513050353,542.830880542,nan,nan
0,281,5115,6,0,444,312,0.289241202529,0.417409780569,-1.0,0,1.0,0.0,0.23805753747,0,0.0,0.0,0.222215981844,0.270936085322,0.0721075602004,0.343043645522,0.198828525122,nan,nan,0.0,0.0,0.0,nan,nan,224.102686249,543.330981181,543.569038718,543.831001138,nan,nan
0,282,5116,6,1,31,21,1.0,0.0668515730764,-1.0,1,1.0,1.0,0.197931729257,0,0.0,0.0,0.206069656648,0.270819079814,0.0720057633763,0.34282484319,0.198813316437,nan,nan,0.0,0.0,0.0,nan,nan,224.102686249,544.33108068,544.52901241,544.83112373,nan,nan
0,283,5117,6,1,362,254,-0.164239727892,0.476000155386,0.0174578511848,1,1.0,1.0,0.221800689586,0,0.0,0.0,0.219263318771,0.270560614032,0.0720084447761,0.342569058808,0.198552169255,nan,nan,0.0,0.0,0.0,nan,nan,224.102686249,545.331195004,545.552995694,545.831252024,nan,nan
0,284,5118,6,1,406,285,0.0244967455079,0.467245700284,-0.489366101921,1,1.0,1.0,0.229666538537,0,0.0,0.0,0.216466319126,0.270388317479,0.0719393166594,0.342327634138,0.198449000819,nan,nan,0.0,0.0,0.0,nan,nan,224.102686249,546.331307618,546.560974156,546.831381744,nan,nan
0,285,5119,6,1,91,63,1.0,-0.237709898716,-0.562722318432,1,1.0,1.0,0.341528660152,0,0.0,0.0,0.264331962758,0.270244930933,0.071853050818,0.342097981751,0.198391880115,nan,nan,0.0,0.0,0.0,nan,nan,224.102686249,547.331431351,547.672960011,547.831477536,nan,nan
0,286,5120,6,1,290,203,0.131265381085,0.370776544741,0.578206616232,1,1.0,1.0,0.285341296345,0,0.0,0.0,0.285512165011,0.270495049281,0.0718506257441,0.342345675025,0.198644423537,nan,nan,0.0,0.0,0.0,nan,nan,224.102686249,548.331594427,548.616935723,548.831599558,nan,nan
0,287,5121,6,1,124,87,1.0,-0.311577186586,-0.198226518473,1,1.0,1.0,0.309167491738,0,0.0,0.0,0.312012482745,0.270546959236,0.0717302561718,0.342277215408,0.198816703064,nan,nan,0.0,0.0,0.0,nan,nan,224.102686249,549.331734695,549.640902186,549.831749235,nan,nan
0,288,5122,6,1,454,319,0.367627362238,0.397084843583,-1.0,1,1.0,1.0,0.277064906433,0,0.0,0.0,0.290524564839,0.270681525551,0.0716413353846,0.342322860936,0.199040190167,nan,nan,0.0,0.0,0.0,nan,nan,224.102686249,550.331838755,550.608903662,550.831865555,nan,nan
0,289,5123,6,1,382,268,-0.1011887567,0.478291136399,-0.199732273247,1,1.0,1.0,0.268910823856,0,0.0,0.0,0.285047740676,0.270703690068,0.0715178356399,0.342221525708,0.199185854428,nan,nan,0.0,0.0,0.0,nan,nan,224.102686249,551.331974177,551.600885001,551.831988147,nan,nan
0,290,5124,6,1,328,230,-0.132159558243,0.44685796506,0.336046158271,1,1.0,1.0,0.236760627478,0,0.0,0.0,0.260912119256,0.270697486379,0.0713940727638,0.342091559143,0.199303413615,nan,nan,0.0,0.0,0.0,nan,nan,224.102686249,552.332105322,552.568865949,552.832122428,nan,nan
0,291,5125,6,1,150,105,1.0,-0.266152531622,0.0638227105866,1,1.0,1.0,0.260681760032,0,0.0,0.0,0.255451070455,0.270580462728,0.0712986331743,0.341879095902,0.199281829553,nan,nan,0.0,0.0,0.0,nan,nan,224.102686249,553.332234471,553.592916231,553.832252147,nan,nan
0,292,5126,6,1,264,185,0.394966959701,0.287889713878,0.650717615019,1,1.0,1.0,0.26847718982,0,0.0,0.0,0.255306525777,0.270546446567,0.0711783787114,0.341724825279,0.199368067856,nan,nan,0.0,0.0,0.0,nan,nan,224.102686249,554.33236077,554.600837959,554.832370748,nan,nan
0,293,5127,6,1,3,2,0.871087178923,0.199335109687,-1.0,1,1.0,1.0,0.228351952508,0,0.0,0.0,0.25250363412,0.270539360071,0.0710564962275,0.341595856299,0.199482863844,nan,nan,0.0,0.0,0.0,nan,nan,224.102686249,555.332481366,555.560833318,555.832525841,nan,nan
0,294,5128,6,1,54,37,1.0,-0.0546292063271,-1.0,1,1.0,1.0,0.24253328843,0,0.0,0.0,0.246454143586,0.270395375745,0.0709777928695,0.341373168615,0.199417582876,nan,nan,0.0,0.0,0.0,nan,nan,224.102686249,556.374307212,556.6168405,556.874317761,nan,nan
0,295,5129,6,1,448,315,0.32026743599,0.409662251776,-1.0,1,1.0,1.0,0.250374618452,0,0.0,0.0,0.24041995313,0.270300606741,0.0708755460469,0.341176152788,0.199425060694,nan,nan,0.0,0.0,0.0,nan,nan,224.102686249,557.374407852,557.62478247,557.874424958,nan,nan
0,296,5130,6,1,374,262,-0.132039125116,0.478634076427,-0.110628443238,1,1.0,1.0,0.234239791986,0,0.0,0.0,0.242382566289,0.270233061018,0.0707647942049,0.340997855223,0.199468266813,nan,nan,0.0,0.0,0.0,nan,nan,224.102686249,558.374523317,558.608763108,558.874552111,nan,nan
0,297,5131,6,1,470,330,0.497741612616,0.357740777197,-1.0,1,1.0,1.0,0.218077311292,0,0.0,0.0,0.23423057391,0.270111462136,0.0706760234928,0.340787485629,0.199435438643,nan,nan,0.0,0.0,0.0,nan,nan,224.102686249,559.374651325,559.592728637,559.874677839,nan,nan
0,298,5132,6,1,229,161,0.770397026975,0.135265939772,0.614681466938,1,1.0,1.0,0.217987505719,0,0.0,0.0,0.223434869666,0.269936262975,0.0706212958113,0.340557558786,0.199314967164,nan,nan,0.0,0.0,0.0,nan,nan,224.102686249,560.374805563,560.592793069,560.874836639,nan,nan
0,299,5133,6,1,104,73,1.0,-0.282351481576,-0.412644567278,1,1.0,1.0,0.329794033896,0,0.0,0.0,0.255286283636,0.269761938286,0.0705666837227,0.340328622009,0.199195254563,nan,nan,0.0,0.0,0.0,nan,nan,224.102686249,561.374909054,561.704703087,561.874931576,nan,nan
0,300,5134,6,1,375,263,-0.128556699755,0.478682433309,-0.121605159467,1,1.0,1.0,0.273673953023,0,0.0,0.0,0.273818497546,0.269962714526,0.0705337875644,0.34049650209,0.199428926961,nan,nan,0.0,0.0,0.0,nan,nan,224.102686249,562.375028795,562.648702748,562.875061011,nan,nan
0,301,5135,6,0,473,332,0.522594813828,0.349396171415,-1.0,0,0.0,1.0,0.385494736023,0,0.0,0.0,0.329654240981,0.269975085321,0.0704164580347,0.340391543355,0.199558627286,nan,nan,0.0,0.0,0.0,nan,nan,224.102686249,563.375183888,563.760678624,563.875212398,nan,nan
0,302,5136,6,1,306,215,-0.00395437407881,0.408974006242,0.494128827808,1,1.0,1.0,0.313370118383,0,0.0,0.0,0.324179602476,0.270358871536,0.0706129717008,0.340971843236,0.199745899835,nan,nan,0.0,0.0,0.0,nan,nan,224.102686249,564.375289944,564.688660063,564.875340407,nan,nan
0,303,5137,6,1,422,296,0.128328379107,0.451313674078,-0.730894888444,1,1.0,1.0,0.297202506103,0,0.0,0.0,0.332022453503,0.270501292883,0.0705392560176,0.3410405489,0.199962036865,nan,nan,0.0,0.0,0.0,nan,nan,224.102686249,565.375420519,565.672623025,565.875443897,nan,nan
0,304,5138,6,1,127,89,1.0,-0.31111021432,-0.167036648065,1,1.0,1.0,0.345027381089,0,0.0,0.0,0.318533335192,0.270589415699,0.0704394074499,0.341028823149,0.200150008249,nan,nan,0.0,0.0,0.0,nan,nan,224.102686249,566.375585021,566.720612402,566.875586446,nan,nan
0,305,5139,6,1,331,232,-0.143297839787,0.450801753776,0.311166711333,1,1.0,1.0,0.336937159766,0,0.0,0.0,0.326389015652,0.270834277427,0.0704525071137,0.341286784541,0.200381770313,nan,nan,0.0,0.0,0.0,nan,nan,224.102686249,567.375659716,567.712596876,567.875697634,nan,nan
0,306,5140,6,1,414,291,0.0747837862165,0.460162189034,-0.600089175003,1,1.0,1.0,0.312745183706,0,0.0,0.0,0.331569908187,0.271051008189,0.0704383514935,0.341489359682,0.200612656695,nan,nan,0.0,0.0,0.0,nan,nan,224.102686249,568.375831916,568.688577099,568.875837332,nan,nan
0,307,5141,6,1,119,83,1.0,-0.309446327048,-0.250710895617,1,1.0,1.0,0.336616994813,0,0.0,0.0,0.328766446095,0.271187263664,0.0703634109638,0.341550674628,0.2008238527,nan,nan,0.0,0.0,0.0,nan,nan,224.102686249,569.375944814,569.712561809,569.875949376,nan,nan
0,308,5142,6,1,35,24,1.0,0.0462653595507,-1.0,1,1.0,1.0,0.320475326385,0,0.0,0.0,0.323279168302,0.271400389824,0.0703475792046,0.341747969029,0.20105281062,nan,nan,0.0,0.0,0.0,nan,nan,224.102686249,570.37606484,570.696540167,570.876089074,nan,nan
0,309,5143,6,1,230,161,0.760023132926,0.140224214653,0.61781109556,1,1.0,1.0,0.312322384212,0,0.0,0.0,0.323138235137,0.271559724034,0.0702887498472,0.341848473881,0.201270974187,nan,nan,0.0,0.0,0.0,nan,nan,224.102686249,571.37619399,571.688516374,571.876205109,nan,nan
0,310,5144,6,1,108,75,1.0,-0.292426609412,-0.368663285579,1,1.0,1.0,0.42418022966,0,0.0,1.0,0.352325980086,0.271691642028,0.0702131012057,0.341904743234,0.201478540822,nan,nan,0.0,0.0,0.0,nan,nan,224.102686249,572.37632542,572.800505649,572.876325705,nan,nan
0,311,5149,6,1,235,165,0.707591924495,0.164537776567,0.631659631194,1,1.0,1.0,0.304064810742,1,0.0,0.0,0.346855808205,0.272183540698,0.0706310393005,0.342814579998,0.201552501397,-68.2922875348,225.0,0.81146624694,0.115131125244,0.600981946568,-6.94208746519,2.60898035346,224.102686249,573.37644345,573.680508261,573.876473956,575.193303451,577.810309593
0,312,5150,6,1,158,111,1.0,-0.235949227405,0.139764106,1,1.0,1.0,0.349888583645,0,0.0,0.0,0.359377874682,0.27228605282,0.0705404879769,0.342826540797,0.201745564843,nan,nan,0.0,0.0,0.0,nan,nan,224.102686249,579.010506425,579.360395009,579.510511557,nan,nan
0,313,5151,6,1,216,151,0.900975005756,0.0682271079607,0.563426584804,1,1.0,1.0,0.269798332825,0,0.0,0.0,0.307917242404,0.27253477888,0.0705638133888,0.343098592269,0.201970965492,nan,nan,0.0,0.0,0.0,nan,nan,224.102686249,580.010626166,580.280424499,580.510639566,nan,nan
0,314,5152,6,1,0,0,0.846831709088,0.212097570855,-1.0,1,1.0,1.0,0.211545720696,0,0.0,0.0,0.277077545722,0.272526036241,0.0704511707121,0.342977206953,0.202074865529,nan,nan,0.0,0.0,0.0,nan,nan,224.102686249,581.060797396,581.272343116,581.560806519,nan,nan
0,315,5153,6,1,298,209,0.0600896634305,0.391050340636,0.53969689008,1,1.0,1.0,0.251503035426,0,0.0,0.0,0.244282362983,0.272331831415,0.0704227627126,0.342754594127,0.201909068702,nan,nan,0.0,0.0,0.0,nan,nan,224.102686249,582.060878934,582.312381969,582.560916852,nan,nan
0,316,5154,6,1,123,86,1.0,-0.311441137266,-0.208672863777,1,1.0,1.0,0.243320443202,0,0.0,0.0,0.235456399775,0.272265708253,0.0703206540368,0.34258636229,0.201945054216,nan,nan,0.0,0.0,0.0,nan,nan,224.102686249,583.061012644,583.304333088,583.561031176,nan,nan
0,317,5155,6,1,39,27,1.0,0.0253789930673,-1.0,1,1.0,1.0,0.219225686044,0,0.0,0.0,0.238016388224,0.272174109313,0.0702281185352,0.342402227848,0.201945990778,nan,nan,0.0,0.0,0.0,nan,nan,224.102686249,584.061119271,584.280344957,584.561155763,nan,nan
0,318,5156,6,1,292,205,0.112881669716,0.376069582356,0.569261850688,1,1.0,1.0,0.243033349514,0,0.0,0.0,0.235193159586,0.272007079586,0.0701800995365,0.342187179123,0.20182698005,nan,nan,0.0,0.0,0.0,nan,nan,224.102686249,585.061259824,585.304293174,585.561283772,nan,nan
0,319,5157,6,1,481,338,0.589289488337,0.325611856148,-1.0,1,1.0,1.0,0.242972053587,0,0.0,0.0,0.235077029715,0.271915967228,0.0700884422586,0.342004409486,0.201827524969,nan,nan,0.0,0.0,0.0,nan,nan,224.102686249,586.061374719,586.304346772,586.561420335,nan,nan
0,320,5158,6,0,200,140,1.0,-0.0191209939188,0.47515178387,0,0.0,1.0,0.386713529006,0,0.0,0.0,0.290906310702,0.271825233956,0.0699972023785,0.341822436335,0.201828031578,nan,nan,0.0,0.0,0.0,nan,nan,224.102686249,587.061540076,587.448253605,587.561563169,nan,nan
0,321,5159,6,1,436,306,0.228681708805,0.431413732101,-1.0,1,1.0,1.0,0.33058717614,0,0.0,0.0,0.320090919578,0.272184259878,0.0701813083463,0.342365568224,0.202002951532,nan,nan,0.0,0.0,0.0,nan,nan,224.102686249,588.061652119,588.392239295,588.56168633,nan,nan
0,322,5200,6,1,39,27,1.0,0.0253789930673,-1.0,1,1.0,1.0,0.282475493383,0,0.0,0.0,0.333258732843,0.272366200427,0.0701474505758,0.342513651003,0.202218749851,nan,nan,0.0,0.0,0.0,nan,nan,224.102686249,589.061776706,589.3442522,589.561794098,nan,nan
0,323,5201,6,1,498,350,0.731507943485,0.267561876527,-1.0,1,1.0,1.0,0.274304018822,0,0.0,0.0,0.295788896115,0.272397595747,0.0700406999775,0.342438295724,0.202356895769,nan,nan,0.0,0.0,0.0,nan,nan,224.102686249,590.061903575,590.336207594,590.561952042,nan,nan
0,324,5202,6,0,337,236,-0.160643365934,0.457858386897,0.259303564052,0,0.0,1.0,0.402149580419,0,0.0,0.0,0.319643030874,0.272403497986,0.0699322739945,0.34233577198,0.202471223991,nan,nan,0.0,0.0,0.0,nan,nan,224.102686249,591.06203415,591.464183731,591.562072638,nan,nan
0,325,5203,6,1,136,95,1.0,-0.301914900238,-0.074841205769,1,1.0,1.0,0.330023537856,0,0.0,0.0,0.335492379032,0.272803948857,0.0701941971272,0.342998145984,0.20260975173,nan,nan,0.0,0.0,0.0,nan,nan,224.102686249,592.062157597,592.392181135,592.562200647,nan,nan
0,326,5204,6,0,15,10,0.965734432428,0.145352784795,-1.0,0,0.0,1.0,0.393859221134,0,0.0,0.0,0.375344113136,0.272980009131,0.070157734544,0.343137743675,0.202822274587,nan,nan,0.0,0.0,0.0,nan,nan,224.102686249,593.062299861,593.456159082,593.562335499,nan,nan
0,327,5205,6,1,358,251,-0.170583909915,0.474268316859,0.0585874414746,1,1.0,1.0,0.35372628551,0,0.0,0.0,0.359203014833,0.27335080426,0.0703682681355,0.343719072395,0.202982536125,nan,nan,0.0,0.0,0.0,nan,nan,224.102686249,594.062417892,594.416144177,594.5624273,nan,nan
0,328,5206,6,0,270,189,0.331159066004,0.309369715406,0.641393874915,0,0.0,1.0,0.385559168179,0,0.0,0.0,0.377714891608,0.273596600839,0.0704006105811,0.34399721142,0.203195990258,nan,nan,0.0,0.0,0.0,nan,nan,224.102686249,595.062561581,595.448120749,595.562583534,nan,nan
0,329,5207,6,1,65,45,1.0,-0.113312155659,-1.0,1,1.0,1.0,0.281456553377,0,0.0,0.0,0.340247335689,0.273937950129,0.070563710842,0.344501660971,0.203374239287,nan,nan,0.0,0.0,0.0,nan,nan,224.102686249,596.062648536,596.344105089,596.562684743,nan,nan
0,330,5208,6,1,214,150,0.920243657418,0.0575410437433,0.553854850604,1,1.0,1.0,0.262266334146,0,0.0,0.0,0.309760685234,0.273960803027,0.070457605179,0.344418408206,0.203503197848,nan,nan,0.0,0.0,0.0,nan,nan,224.102686249,597.137807734,597.400074068,597.637843086,nan,nan
0,331,5209,6,0,418,293,0.101175887384,0.455961754156,-0.661679309199,0,1.0,0.0,0.254127646331,0,0.0,0.0,0.265950177951,0.273925365242,0.0703537066747,0.344279071917,0.203571658568,nan,nan,0.0,0.0,0.0,nan,nan,224.102686249,598.137944581,598.392072228,598.637979078,nan,nan
0,332,5210,6,1,343,241,-0.171388175652,0.463836419185,0.204822810802,1,1.0,1.0,0.180024450179,0,0.0,0.0,0.232139476885,0.273865553403,0.0702557541844,0.344121307587,0.203609799218,nan,nan,0.0,0.0,0.0,nan,nan,224.102686249,599.188074472,599.368098922,599.688084165,nan,nan
0,333,5211,6,1,17,11,0.981069150956,0.135921910835,-1.0,1,1.0,1.0,0.219815838151,0,0.0,0.0,0.217989311554,0.273582899477,0.0703381018911,0.343921001368,0.203244797586,nan,nan,0.0,0.0,0.0,nan,nan,224.102686249,600.188195924,600.408011762,600.688239544,nan,nan
0,334,5212,6,1,396,278,-0.0330153705648,0.473684876347,-0.363523780775,1,1.0,1.0,0.243690500036,0,0.0,0.0,0.214510262789,0.273421436831,0.070294001711,0.343715438542,0.20312743512,nan,nan,0.0,0.0,0.0,nan,nan,224.102686249,601.188320796,601.432011297,601.68834503,nan,nan
0,335,5213,6,1,293,206,0.103830259013,0.378659598285,0.564617056734,1,1.0,1.0,0.291554433294,0,0.0,0.0,0.251686923827,0.27333242205,0.0702074860255,0.343539908075,0.203124936024,nan,nan,0.0,0.0,0.0,nan,nan,224.102686249,602.188429704,602.479984137,602.688469333,nan,nan
0,336,5214,6,1,239,168,0.665069831863,0.183388857662,0.640549267122,1,1.0,1.0,0.291397059336,0,0.0,0.0,0.275547330889,0.273386816113,0.0701096683759,0.343496484489,0.203277147737,nan,nan,0.0,0.0,0.0,nan,nan,224.102686249,603.18857881,603.479975869,603.688589074,nan,nan
0,337,5215,6,1,436,306,0.228681708805,0.431413732101,-1.0,1,1.0,1.0,0.291289577261,0,0.0,0.0,0.291413689964,0.273440418028,0.0700121349899,0.343452553018,0.203428283038,nan,nan,0.0,0.0,0.0,nan,nan,224.102686249,604.188682871,604.479972448,604.688715942,nan,nan
0,338,5216,6,1,297,208,0.0686262056446,0.388646276542,0.544904663634,1,1.0,1.0,0.24314995436,0,0.0,0.0,0.275278863652,0.273493382892,0.0699149234272,0.343408306319,0.203578459465,nan,nan,0.0,0.0,0.0,nan,nan,224.102686249,605.188813446,605.4319634,605.688876167,nan,nan
0,339,5217,6,1,80,56,1.0,-0.189075709245,-0.708965549488,1,1.0,1.0,0.227016268764,0,0.0,0.0,0.253818600128,0.273403609435,0.0698308718908,0.343234481325,0.203572737544,nan,nan,0.0,0.0,0.0,nan,nan,224.102686249,606.188948297,606.415964566,606.688978232,nan,nan
0,340,5218,6,1,252,177,0.524721685615,0.240693665738,0.655694012224,1,1.0,1.0,0.234807707369,0,0.0,0.0,0.234991310164,0.273266773621,0.0697731673297,0.343039940951,0.203493606292,nan,nan,0.0,0.0,0.0,nan,nan,224.102686249,607.189088565,607.423896272,607.68910453,nan,nan
0,341,5219,6,1,310,217,-0.032854544558,0.417080732083,0.468828018046,1,1.0,1.0,0.234711914323,0,0.0,0.0,0.232178630152,0.273153658721,0.0697016058879,0.342855264609,0.203452052833,nan,nan,0.0,0.0,0.0,nan,nan,224.102686249,608.189215148,608.423927063,608.689238241,nan,nan
0,342,5220,6,1,495,348,0.706485112283,0.278551693791,-1.0,1,1.0,1.0,0.218540025409,0,0.0,0.0,0.229353215701,0.273040926332,0.0696303635613,0.342671289894,0.203410562771,nan,nan,0.0,0.0,0.0,nan,nan,224.102686249,609.189318354,609.407858379,609.689356272,nan,nan
0,343,5221,6,1,209,146,0.967301840512,0.0304835193525,0.52804999659,1,1.0,1.0,0.210391359404,0,0.0,0.0,0.221214433045,0.272881566973,0.0695907378263,0.342472304799,0.203290829147,nan,nan,0.0,0.0,0.0,nan,nan,224.102686249,610.189480289,610.399871649,610.68949768,nan,nan
0,344,5222,6,1,321,225,-0.0999433513493,0.43654647086,0.391174984052,1,1.0,1.0,0.210241112858,0,0.0,0.0,0.213057499224,0.272699379779,0.0695708513516,0.342270231131,0.203128528427,nan,nan,0.0,0.0,0.0,nan,nan,224.102686249,611.189581499,611.399822612,611.689620272,nan,nan
0,345,5223,6,0,194,136,1.0,-0.0524864644427,0.435571704399,0,1.0,0.0,0.162084099371,0,0.0,0.0,0.194238857211,0.27251781505,0.0695509923903,0.34206880744,0.202966822659,nan,nan,0.0,0.0,0.0,nan,nan,224.102686249,612.189728895,612.351812994,612.689784489,nan,nan
0,346,5224,6,1,364,255,-0.160194321586,0.476704516321,-0.00341124574885,1,1.0,1.0,0.0899654692039,0,0.0,0.0,0.154096893811,0.272197717323,0.0697034173073,0.34190113463,0.202494300016,nan,nan,0.0,0.0,0.0,nan,nan,224.102686249,613.189842078,613.279807548,613.689908221,nan,nan
0,347,5225,6,1,287,201,0.159501648714,0.36255249221,0.590751920292,1,1.0,1.0,0.20981631754,0,0.0,0.0,0.153955295372,0.271671034525,0.0702867375861,0.341957772111,0.201384296939,nan,nan,0.0,0.0,0.0,nan,nan,224.102686249,614.189953837,614.399770154,614.689998312,nan,nan
0,348,5227,6,1,130,91,1.0,-0.309333154106,-0.136071487739,1,1.0,1.0,0.231929359492,0,1.0,0.0,0.177237048745,0.271492778856,0.0702636655627,0.341756444419,0.201229113294,nan,nan,0.0,0.0,0.0,nan,nan,224.102686249,615.231812184,615.463741544,615.731794508,nan,nan
0,349,5231,6,1,246,172,0.589768841079,0.215019897151,0.651339528662,1,1.0,1.0,0.24785349844,1,0.0,0.0,0.229866391824,0.27137909087,0.0701945932885,0.341573684158,0.201184497581,-84.0938588862,248.0,0.568115903494,0.223728204869,0.653295769881,1.12510888623,1.77561689448,224.102686249,616.231876331,616.47972983,616.731920807,618.065415695,619.848985679
0,350,5232,6,1,144,101,1.0,-0.284423189345,0.00519445478499,1,1.0,1.0,0.326174716931,0,0.0,0.0,0.268652524954,0.271311682295,0.0701052346563,0.341416916952,0.201206447639,nan,nan,0.0,0.0,0.0,nan,nan,224.102686249,621.057494252,621.383668969,621.557542434,nan,nan
0,351,5233,6,1,226,158,0.801265930663,0.120208988367,0.60458276857,1,1.0,1.0,0.294009410311,0,0.0,0.0,0.289345875227,0.271468433823,0.0700662336233,0.341534667446,0.2014022002,nan,nan,0.0,0.0,0.0,nan,nan,224.102686249,622.057622546,622.351631957,622.557670728,nan,nan
0,352,5234,6,1,66,46,1.0,-0.118568705386,-1.0,1,1.0,1.0,0.2858596039,0,0.0,0.0,0.302014577047,0.271532653129,0.0699766674791,0.341509320608,0.20155598565,nan,nan,0.0,0.0,0.0,nan,nan,224.102686249,623.057761959,623.343621563,623.557792465,nan,nan
0,353,5235,6,1,3,2,0.871087178923,0.199335109687,-1.0,1,1.0,1.0,0.221689786296,0,0.0,0.0,0.267186266836,0.271573354694,0.0698813586593,0.341454713353,0.201691996035,nan,nan,0.0,0.0,0.0,nan,nan,224.102686249,624.057901657,624.279591443,624.557933018,nan,nan
0,354,5236,6,1,338,237,-0.162891363375,0.458928707883,0.250399161362,1,1.0,1.0,0.253613899928,0,0.0,0.0,0.253721096708,0.271432041469,0.0698326536806,0.34126469515,0.201599387788,nan,nan,0.0,0.0,0.0,nan,nan,224.102686249,625.058015696,625.311629596,625.558048198,nan,nan
0,355,5237,6,1,127,89,1.0,-0.31111021432,-0.167036648065,1,1.0,1.0,0.221380169969,0,0.0,0.0,0.232227952064,0.271381707736,0.0697403623113,0.341122070047,0.201641345424,nan,nan,0.0,0.0,0.0,nan,nan,224.102686249,626.058168794,626.279548964,626.558174211,nan,nan
0,356,5238,6,1,415,291,0.0813077335083,0.459153678902,-0.614968023274,1,1.0,1.0,0.245291609317,0,0.0,0.0,0.240095226405,0.271240858334,0.0696924699591,0.340933328293,0.201548388375,nan,nan,0.0,0.0,0.0,nan,nan,224.102686249,627.058265727,627.303557336,627.558313624,nan,nan
0,357,5239,6,1,240,168,0.654373017221,0.188015059697,0.642463954019,1,1.0,1.0,0.25313294027,0,0.0,0.0,0.239934906519,0.271167967185,0.0696080681719,0.340776035357,0.201559899013,nan,nan,0.0,0.0,0.0,nan,nan,224.102686249,628.058390315,628.311523255,628.558429658,nan,nan
0,358,5240,6,1,147,103,1.0,-0.275801134503,0.0346720467303,1,1.0,1.0,0.195632700808,0,0.0,0.0,0.231352416798,0.271117448902,0.0695170445243,0.340634493426,0.201600404378,nan,nan,0.0,0.0,0.0,nan,nan,224.102686249,629.091895296,629.287527997,629.591904704,nan,nan
0,359,5241,6,1,47,33,1.0,-0.0170755915744,-1.0,1,1.0,1.0,0.195494142827,0,0.0,0.0,0.214753261302,0.27090659765,0.069534107729,0.340440705379,0.201372489921,nan,nan,0.0,0.0,0.0,nan,nan,224.102686249,630.091985387,630.28747953,630.592023305,nan,nan
0,360,5242,6,1,236,165,0.697004556276,0.169301754335,0.634065852989,1,1.0,1.0,0.211360977031,0,1.0,0.0,0.200829273555,0.270696535102,0.0695508547694,0.340247389871,0.201145680333,nan,nan,0.0,0.0,0.0,nan,nan,224.102686249,631.092108549,631.303469526,631.592147893,nan,nan
0,361,5243,6,0,77,54,1.0,-0.174593022316,-0.756267193339,0,1.0,0.0,0.219164389651,0,0.0,0.0,0.208673169836,0.270531714107,0.0695243624567,0.340056076564,0.201007351651,nan,nan,0.0,0.0,0.0,nan,nan,224.102686249,632.092304126,632.311468516,632.592306407,nan,nan
0,362,5244,6,1,483,339,0.606025706087,0.319314454546,-1.0,1,1.0,1.0,0.171034745406,0,0.0,0.0,0.200520037363,0.27038942235,0.0694804742271,0.339869896577,0.200908948123,nan,nan,0.0,0.0,0.0,nan,nan,224.102686249,633.092406191,633.263440937,633.592419876,nan,nan
0,363,5245,6,0,144,101,1.0,-0.284423189345,0.00519445478499,0,1.0,0.0,0.210889710579,0,0.0,0.0,0.200362948546,0.270114961916,0.0695801276398,0.339695089556,0.200534834277,nan,nan,0.0,0.0,0.0,nan,nan,224.102686249,634.092543609,634.303433319,634.592566416,nan,nan
0,364,5246,6,1,360,253,-0.167709501072,0.475188317955,0.0381258551808,1,1.0,1.0,0.178814779967,0,0.0,0.0,0.186913078651,0.269951806954,0.0695535280376,0.339505334992,0.200398278916,nan,nan,0.0,0.0,0.0,nan,nan,224.102686249,635.092648809,635.271463589,635.592690719,nan,nan
0,365,5247,6,1,55,38,1.0,-0.0599996532909,-1.0,1,1.0,1.0,0.218662902713,0,0.0,0.0,0.202789131086,0.269701430506,0.0696215395771,0.339322970083,0.200079890929,nan,nan,0.0,0.0,0.0,nan,nan,224.102686249,636.092744602,636.311407505,636.592785086,nan,nan
0,366,5248,6,1,136,95,1.0,-0.301914900238,-0.074841205769,1,1.0,1.0,0.234455326106,0,0.0,0.0,0.210644336262,0.269561598923,0.0695772673458,0.339138866269,0.199984331578,nan,nan,0.0,0.0,0.0,nan,nan,224.102686249,637.092907678,637.327363004,637.592914521,nan,nan
0,367,5249,6,1,77,54,1.0,-0.174593022316,-0.756267193339,1,1.0,1.0,0.250305339694,0,0.0,0.0,0.234474522838,0.269465680145,0.0695063127802,0.338971992925,0.199959367365,nan,nan,0.0,0.0,0.0,nan,nan,224.102686249,638.093030841,638.34333618,638.593035687,nan,nan
0,368,5250,6,1,18,12,0.988682696815,0.131162580546,-1.0,1,1.0,1.0,0.282177280635,0,0.0,0.0,0.255645982145,0.269413472133,0.0694187386713,0.338832210804,0.199994733462,nan,nan,0.0,0.0,0.0,nan,nan,224.102686249,639.093151722,639.375329003,639.593170254,nan,nan
0,369,5251,6,1,121,85,1.0,-0.310732805591,-0.229640808446,1,1.0,1.0,0.322048211005,0,0.0,0.0,0.284843610444,0.269448156395,0.0693275398058,0.338775696201,0.200120616589,nan,nan,0.0,0.0,0.0,nan,nan,224.102686249,640.093257208,640.415305419,640.59329256,nan,nan
0,370,5252,6,1,269,189,0.34171296506,0.305888347675,0.643262349404,1,1.0,1.0,0.337905922439,0,0.0,0.0,0.314043804693,0.269590703969,0.0692875186562,0.338878222625,0.200303185312,nan,nan,0.0,0.0,0.0,nan,nan,224.102686249,641.09339263,641.431298552,641.593449934,nan,nan
0,371,5253,6,1,356,250,-0.17284377641,0.473239407326,0.0788368070227,1,1.0,1.0,0.329748418182,0,0.0,0.0,0.329900850542,0.269775339694,0.0692846631906,0.339060002885,0.200490676504,nan,nan,0.0,0.0,0.0,nan,nan,224.102686249,642.0935386,642.423287018,642.59356939,nan,nan
0,372,5254,6,1,191,134,1.0,-0.0691479807067,0.414571651978,1,1.0,1.0,0.377592109609,0,0.0,1.0,0.34841548341,0.269936992197,0.0692610585547,0.339198050752,0.200675933642,nan,nan,0.0,0.0,0.0,nan,nan,224.102686249,643.09366946,643.471261569,643.59367003,nan,nan
0,373,5259,6,1,24,16,1.0,0.102019060141,-1.0,1,1.0,1.0,0.297458808869,1,0.0,0.0,0.33493311222,0.270226387674,0.0693921463267,0.339618534001,0.200834241347,74.9221298561,21.0,1.0,0.116713997928,-1.0,-1.79712985606,1.51717429282,224.102686249,644.093783214,644.391242023,644.593797754,645.927306612,647.452513821
0,374,5300,6,1,302,212,0.027086081288,0.400300843718,0.517770016443,1,1.0,1.0,0.249821243808,0,0.0,0.0,0.308290720762,0.270299396846,0.0693133701896,0.339612767036,0.200986026656,nan,nan,0.0,0.0,0.0,nan,nan,224.102686249,648.669347536,648.91916878,649.16938574,nan,nan
0,375,5301,6,1,129,90,1.0,-0.310070485259,-0.146368003411,1,1.0,1.0,0.257654021028,0,0.0,0.0,0.268311357902,0.270244642426,0.0692287203458,0.339473362772,0.20101592208,nan,nan,0.0,0.0,0.0,nan,nan,224.102686249,649.669506621,649.927160642,650.169509757,nan,nan
0,376,5302,6,1,371,260,-0.14179360683,0.478331938097,-0.0779732583494,1,1.0,1.0,0.209535210859,0,0.0,0.0,0.239003491898,0.270211067436,0.069139402766,0.339350470202,0.20107166467,nan,nan,0.0,0.0,0.0,nan,nan,224.102686249,650.66963634,650.879171551,651.169670552,nan,nan
0,377,5303,6,1,221,155,0.851781464038,0.0945411604707,0.585422935822,1,1.0,1.0,0.169401419815,0,0.0,0.0,0.212196883901,0.270049695477,0.0691180794457,0.339167774922,0.200931616031,nan,nan,0.0,0.0,0.0,nan,nan,224.102686249,651.669746959,651.839148378,652.169807114,nan,nan
0,378,5304,6,1,422,296,0.128328379107,0.451313674078,-0.730894888444,1,1.0,1.0,0.185256565455,0,1.0,0.0,0.18806439871,0.269782723923,0.0692201990177,0.339002922941,0.200562524905,nan,nan,0.0,0.0,0.0,nan,nan,224.102686249,652.66986841,652.855124976,653.169934838,nan,nan
0,379,5308,6,1,187,131,1.0,-0.0912463489427,0.385383214542,1,1.0,1.0,0.209120963234,1,0.0,0.0,0.187926316168,0.269559109747,0.0692647922073,0.338823901955,0.20029431754,-62.1944860301,216.0,0.900975005756,0.0682271079607,0.563426584804,20.7101110301,1.22545763897,224.102686249,653.670012385,653.879133348,654.170048307,655.503522099,656.737017785
0,380,5309,6,0,436,306,0.228681708805,0.431413732101,-1.0,0,0.0,1.0,0.421431316528,0,0.0,0.0,0.271936281739,0.269399642342,0.0692427997606,0.338642442103,0.200156842582,nan,nan,0.0,0.0,0.0,nan,nan,224.102686249,657.945563992,658.366995308,658.445594782,nan,nan
0,381,5310,6,1,147,103,1.0,-0.275801134503,0.0346720467303,1,1.0,1.0,0.301326160785,0,0.0,0.0,0.310626146849,0.269799725695,0.0695888878832,0.339388613579,0.200210837812,nan,nan,0.0,0.0,0.0,nan,nan,224.102686249,658.945656078,659.246982239,659.445691715,nan,nan
0,382,5311,6,1,214,150,0.920243657418,0.0575410437433,0.553854850604,1,1.0,1.0,0.237132395152,0,0.0,0.0,0.319963290822,0.269882472244,0.0695162204263,0.339398692671,0.200366251818,nan,nan,0.0,0.0,0.0,nan,nan,224.102686249,659.945833694,660.182966089,660.445829133,nan,nan
0,383,5312,6,1,401,281,-0.00506340639596,0.470796889516,-0.425203102762,1,1.0,1.0,0.229023642838,0,0.0,0.0,0.255827399592,0.269796739058,0.069445336663,0.339242075721,0.200351402395,nan,nan,0.0,0.0,0.0,nan,nan,224.102686249,660.94595201,661.174975653,661.44595315,nan,nan
0,384,5313,6,1,165,116,1.0,-0.205056383665,0.203745440608,1,1.0,1.0,0.244903876446,0,0.0,0.0,0.237019971479,0.269690281888,0.0693858216901,0.339076103578,0.200304460198,nan,nan,0.0,0.0,0.0,nan,nan,224.102686249,661.946060062,662.190963938,662.446086291,nan,nan
0,385,5314,6,1,20,14,1.0,0.121558187834,-1.0,1,1.0,1.0,0.164772286545,0,0.0,0.0,0.212899935277,0.269625733957,0.0693069297873,0.338932663744,0.20031880417,nan,nan,0.0,0.0,0.0,nan,nan,224.102686249,662.946168684,663.110940971,663.44623055,nan,nan
0,386,5315,6,1,410,288,0.0492046846968,0.463921527344,-0.54316189137,1,1.0,1.0,0.124640206806,0,1.0,0.0,0.178105456599,0.26935338734,0.0694223042736,0.338775691614,0.199931083067,nan,nan,0.0,0.0,0.0,nan,nan,224.102686249,663.94631608,664.070956287,664.446369108,nan,nan
0,387,5320,6,1,278,195,0.248285521772,0.335802812283,0.621962573991,1,1.0,1.0,0.10848342767,1,0.0,0.0,0.132631973674,0.268978482728,0.0697214728612,0.338699955589,0.199257009866,-105.45599907,278.0,0.248285521772,0.335802812283,0.621962573991,-0.0127509296879,1.61714042304,224.102686249,664.946444374,665.054927802,665.446496262,666.771628091,668.396868999
0,388,5321,6,1,473,332,0.522594813828,0.349396171415,-1.0,1,1.0,1.0,0.225445949938,0,0.0,0.0,0.152856528138,0.268563766823,0.0701064241036,0.338670190927,0.198457342719,nan,nan,0.0,0.0,0.0,nan,nan,224.102686249,669.605346496,669.830792446,670.105387836,nan,nan
