block,trial,time,setsize,freqtrials,colorind,colordeg,colorrgb,correctresp,actualresp,acc,rts,probe_trials,fast_rt_trigger,slow_rt_trigger,rt_trailingavg,rt_runningavg,rt_runningstd,rt_runningslowthresh,rt_runningfastthresh,wm_mousepos,wm_respdeg,wm_colorind,wm_colorrgb,wm_colorhsv,wm_degdiff,wm_rts,timeBlockStart,timeEncArrayOnset,timeResponse,timeProbeOnset,timeProbeOffset
0,0,15:42:34:597000,6,1,103,72.421875,[ 1.         -0.27953747 -0.42375884],1,1,1,0.338263883,0,nan,nan,nan,nan,nan,nan,nan,nan,nan,nan,[ nan  nan  nan],nan,nan,nan,1041.760629,1042.774343,1043.112607,nan,nan
0,1,15:42:35:533000,6,1,374,262.96875,[-0.13203913  0.47863408 -0.11062844],1,1,1,0.204388943,0,nan,nan,nan,nan,nan,nan,nan,nan,nan,nan,[ nan  nan  nan],nan,nan,nan,1041.760629,1043.716226,1043.920615,nan,nan
0,2,15:42:36:469000,6,1,242,170.15625,[ 0.63291185  0.19716118  0.6459214 ],1,1,1,0.262623849,0,nan,nan,nan,nan,nan,nan,nan,nan,nan,nan,[ nan  nan  nan],nan,nan,nan,1041.760629,1044.657941,1044.920564,nan,nan
0,3,15:42:37:421000,6,1,409,287.578125,[ 0.04294362  0.46479315 -0.52946185],1,1,1,0.208826467,0,nan,nan,nan,nan,nan,nan,nan,nan,nan,nan,[ nan  nan  nan],nan,nan,nan,1041.760629,1045.599731,1045.808557,nan,nan
0,4,15:42:38:357000,6,1,499,350.859375,[ 0.73983189  0.26382776 -1.        ],1,1,1,0.219007825,0,nan,nan,nan,nan,nan,nan,nan,nan,nan,nan,[ nan  nan  nan],nan,nan,nan,1041.760629,1046.541522,1046.76053,nan,nan
0,5,15:42:39:293000,6,1,180,126.5625,[ 1.         -0.12927862  0.33123896],1,1,1,0.213183878,0,nan,nan,nan,nan,nan,nan,nan,nan,nan,nan,[ nan  nan  nan],nan,nan,nan,1041.760629,1047.483326,1047.69651,nan,nan
0,6,15:42:40:245000,6,1,419,294.609375,[ 0.10789467  0.45484197 -0.67809886],1,1,1,0.495339389,0,nan,nan,nan,nan,nan,nan,nan,nan,nan,nan,[ nan  nan  nan],nan,nan,nan,1041.760629,1048.425116,1048.920455,nan,nan
0,7,15:42:41:181000,6,1,189,132.890625,[ 1.         -0.08021946  0.40014347],1,1,1,0.377548725,0,nan,nan,nan,nan,nan,nan,nan,nan,nan,nan,[ nan  nan  nan],nan,nan,nan,1041.760629,1049.366907,1049.744456,nan,nan
0,8,15:42:42:132000,6,1,78,54.84375,[ 1.         -0.17946765 -0.73990763],1,1,1,0.259718433,0,nan,nan,nan,nan,nan,nan,nan,nan,nan,nan,[ nan  nan  nan],nan,nan,nan,1041.760629,1050.308711,1050.56843,nan,nan
0,9,15:42:43:068000,6,1,498,350.15625,[ 0.73150794  0.26756188 -1.        ],1,1,1,0.21391515,0,nan,nan,nan,nan,nan,nan,nan,nan,nan,nan,[ nan  nan  nan],nan,nan,nan,1041.760629,1051.250503,1051.464418,nan,nan
0,10,15:42:44:004000,6,1,366,257.34375,[-0.15559338  0.47730203 -0.02447665],1,1,1,0.264101788,0,nan,nan,nan,nan,nan,nan,nan,nan,nan,nan,[ nan  nan  nan],nan,nan,nan,1041.760629,1052.192297,1052.456399,nan,nan
0,11,15:42:44:956000,6,1,212,149.0625,[ 0.93926289  0.04677313  0.543851  ],1,1,1,0.26628135,0,nan,nan,nan,nan,nan,nan,nan,nan,nan,nan,[ nan  nan  nan],nan,nan,nan,1041.760629,1053.134084,1053.400366,nan,nan
0,12,15:42:45:892000,6,1,420,295.3125,[ 0.11466019  0.4536941  -0.6950475 ],1,1,1,0.23646313,0,nan,nan,nan,nan,nan,nan,nan,nan,nan,nan,[ nan  nan  nan],nan,nan,nan,1041.760629,1054.075888,1054.312351,nan,nan
0,13,15:42:46:828000,6,1,242,170.15625,[ 0.63291185  0.19716118  0.6459214 ],1,1,1,0.326614849,0,nan,nan,nan,nan,nan,nan,nan,nan,nan,nan,[ nan  nan  nan],nan,nan,nan,1041.760629,1055.017679,1055.344294,nan,nan
0,14,15:42:47:779000,6,1,380,267.1875,[-0.10951951  0.47853303 -0.17717739],1,1,1,0.312838142,0,nan,nan,nan,nan,nan,nan,nan,nan,nan,nan,[ nan  nan  nan],nan,nan,nan,1041.760629,1055.959472,1056.27231,nan,nan
0,15,15:42:48:715000,6,1,224,157.5,[ 0.82161942  0.11002479  0.59726488],1,1,1,0.24302291,0,nan,nan,nan,nan,nan,nan,nan,nan,nan,nan,[ nan  nan  nan],nan,nan,nan,1041.760629,1056.901266,1057.144289,nan,nan
0,16,15:42:49:667000,6,0,410,288.28125,[ 0.04920468  0.46392153 -0.54316189],0,1,0,0.253215672,0,0,0,nan,nan,nan,nan,nan,nan,nan,nan,[ nan  nan  nan],nan,nan,nan,1041.760629,1057.843055,1058.096271,nan,nan
0,17,15:42:50:603000,6,1,493,346.640625,[ 0.68976908  0.28570078 -1.        ],1,1,1,0.159428975,0,nan,nan,nan,nan,nan,nan,nan,nan,nan,nan,[ nan  nan  nan],nan,nan,nan,1041.760629,1058.784836,1058.944265,nan,nan
0,18,15:42:51:539000,6,1,203,142.734375,[ 1.         -0.00249325  0.49367467],1,1,1,0.08960462,0,nan,nan,nan,nan,nan,nan,nan,nan,nan,nan,[ nan  nan  nan],nan,nan,nan,1041.760629,1059.726631,1059.816236,nan,nan
0,19,15:42:52:491000,6,1,462,324.84375,[ 0.43208968  0.37848636 -1.        ],1,1,1,0.203779407,0,nan,nan,nan,nan,nan,nan,nan,nan,nan,nan,[ nan  nan  nan],nan,nan,nan,1041.760629,1060.668424,1060.872204,nan,nan
0,20,15:42:53:427000,6,0,73,51.328125,[ 1.         -0.15467886 -0.83091687],0,0,1,0.44593705,0,nan,nan,nan,nan,nan,nan,nan,nan,nan,nan,[ nan  nan  nan],nan,nan,nan,1041.760629,1061.610229,1062.056166,nan,nan
0,21,15:42:54:363000,6,1,19,13.359375,[ 0.99625917  0.12637453 -1.        ],1,1,1,0.304151829,0,nan,nan,nan,nan,nan,nan,nan,nan,nan,nan,[ nan  nan  nan],nan,nan,nan,1041.760629,1062.552011,1062.856163,nan,nan
0,22,15:42:55:314000,6,0,262,184.21875,[ 0.41645248  0.28041442  0.65281554],0,0,1,0.442326306,0,nan,nan,nan,nan,nan,nan,nan,nan,nan,nan,[ nan  nan  nan],nan,nan,nan,1041.760629,1063.493809,1063.936135,nan,nan
0,23,15:42:56:250000,6,1,460,323.4375,[ 0.41584892  0.38333493 -1.        ],1,1,1,0.26851793,0,nan,nan,nan,nan,nan,nan,nan,nan,nan,nan,[ nan  nan  nan],nan,nan,nan,1041.760629,1064.435604,1064.704122,nan,nan
0,24,15:42:57:186000,6,1,25,17.578125,[ 1.          0.09706829 -1.        ],1,1,1,0.326699808,0,nan,nan,nan,nan,nan,nan,nan,nan,nan,nan,[ nan  nan  nan],nan,nan,nan,1041.760629,1065.377392,1065.704092,nan,nan
0,25,15:42:58:138000,6,1,475,333.984375,[ 0.53921875  0.34365981 -1.        ],1,1,1,0.304885096,0,nan,nan,nan,nan,nan,nan,nan,nan,nan,nan,[ nan  nan  nan],nan,nan,nan,1041.760629,1066.319195,1066.62408,nan,nan
0,26,15:42:59:074000,6,1,413,290.390625,[ 0.06831062  0.46114313 -0.5854956 ],1,1,1,0.315051915,0,nan,nan,nan,nan,nan,nan,nan,nan,nan,nan,[ nan  nan  nan],nan,nan,nan,1041.760629,1067.260986,1067.576038,nan,nan
0,27,15:43:00:025000,6,1,61,42.890625,[ 1.        -0.0921164 -1.       ],1,1,1,0.261246264,0,nan,nan,nan,nan,nan,nan,nan,nan,nan,nan,[ nan  nan  nan],nan,nan,nan,1041.760629,1068.20278,1068.464026,nan,nan
0,28,15:43:00:961000,6,1,312,219.375,[-0.04644836  0.4209252   0.45557321],1,1,1,0.239424425,0,nan,nan,nan,nan,nan,nan,nan,nan,nan,nan,[ nan  nan  nan],nan,nan,nan,1041.760629,1069.144568,1069.383993,nan,nan
0,29,15:43:01:897000,6,1,449,315.703125,[ 0.32809501  0.40764625 -1.        ],1,1,1,0.225616357,0,nan,nan,nan,nan,nan,nan,nan,nan,nan,nan,[ nan  nan  nan],nan,nan,nan,1041.760629,1070.086367,1070.311983,nan,nan
0,30,15:43:02:849000,6,1,500,351.5625,[ 0.74814593  0.26005829 -1.        ],1,1,1,0.219793265,0,nan,nan,nan,nan,nan,nan,nan,nan,nan,nan,[ nan  nan  nan],nan,nan,nan,1041.760629,1071.028162,1071.247955,nan,nan
0,31,15:43:03:785000,6,1,203,142.734375,[ 1.         -0.00249325  0.49367467],1,1,1,0.181992065,0,nan,nan,nan,nan,nan,nan,nan,nan,nan,nan,[ nan  nan  nan],nan,nan,nan,1041.760629,1071.969953,1072.151945,nan,nan
0,32,15:43:08:543000,6,1,294,206.71875,[ 0.0948762   0.38121213  0.55985823],1,1,1,0.192194805,1,nan,nan,nan,nan,nan,nan,nan,nan,-114.4891407,291,[ 0.12202764  0.37344194  0.57379193],nan,-2.229609283,1.775533722,1041.760629,1072.91171,1073.103904,1074.72858,1076.512149
0,33,15:43:09:479000,6,1,501,352.265625,[ 0.75644923  0.25625354 -1.        ],1,1,1,0.393440562,0,nan,nan,nan,nan,nan,nan,nan,nan,nan,nan,[ nan  nan  nan],nan,nan,nan,1041.760629,1077.662374,1078.055815,nan,nan
0,34,15:43:10:415000,6,1,170,119.53125,[ 1.         -0.18099048  0.24781506],1,1,1,0.2996245,0,nan,nan,nan,nan,nan,nan,nan,nan,nan,nan,[ nan  nan  nan],nan,nan,nan,1041.760629,1078.60416,1078.903785,nan,nan
0,35,15:43:11:367000,6,1,98,68.90625,[ 1.         -0.26382291 -0.48021779],1,1,1,0.26181047,0,nan,nan,nan,nan,nan,nan,nan,nan,nan,nan,[ nan  nan  nan],nan,nan,nan,1041.760629,1079.54595,1079.807761,nan,nan
0,36,15:43:12:303000,6,0,11,7.734375,[ 0.9346595  0.1638529 -1.       ],0,0,1,0.423991479,0,nan,nan,nan,nan,nan,nan,nan,nan,nan,nan,[ nan  nan  nan],nan,nan,nan,1041.760629,1080.487754,1080.911745,nan,nan
0,37,15:43:13:254000,6,1,56,39.375,[ 1.         -0.06536751 -1.        ],1,1,1,0.218190739,0,nan,nan,nan,nan,nan,nan,nan,nan,nan,nan,[ nan  nan  nan],nan,nan,nan,1041.760629,1081.429541,1081.647732,nan,nan
0,38,15:43:14:190000,6,1,276,194.0625,[ 0.26871044  0.32943033  0.62756301],1,1,1,0.26035933,0,nan,nan,nan,nan,nan,nan,nan,nan,nan,nan,[ nan  nan  nan],nan,nan,nan,1041.760629,1082.371333,1082.631692,nan,nan
0,39,15:43:15:126000,6,1,115,80.859375,[ 1.         -0.30516629 -0.29317275],1,1,1,0.382548459,0,nan,nan,nan,nan,nan,nan,nan,nan,nan,nan,[ nan  nan  nan],nan,nan,nan,1041.760629,1083.313127,1083.695676,nan,nan
0,40,15:43:16:078000,6,1,420,295.3125,[ 0.11466019  0.4536941  -0.6950475 ],1,1,1,0.296727636,0,nan,nan,nan,nan,nan,nan,nan,nan,nan,nan,[ nan  nan  nan],nan,nan,nan,1041.760629,1084.25493,1084.551657,nan,nan
0,41,15:43:17:014000,6,1,271,190.546875,[ 0.32064286  0.31281163  0.63940014],1,1,1,0.290910247,0,nan,nan,nan,nan,nan,nan,nan,nan,nan,nan,[ nan  nan  nan],nan,nan,nan,1041.760629,1085.196712,1085.487622,nan,nan
0,42,15:43:23:098000,6,1,325,228.515625,[-0.1194049   0.44263104  0.36018642],1,1,1,0.27713525,1,nan,nan,nan,nan,nan,nan,nan,nan,-110.1706534,285,[ 0.17873435  0.35687868  0.59852701],nan,-28.34497159,3.100700852,1041.760629,1086.138475,1086.41561,1087.963691,1091.072442
0,43,15:43:24:034000,6,0,38,26.71875,[ 1.          0.03062595 -1.        ],0,0,1,0.448768056,0,nan,nan,nan,nan,nan,nan,nan,nan,nan,nan,[ nan  nan  nan],nan,nan,nan,1041.760629,1092.222659,1092.671427,nan,nan
0,44,15:43:31:085000,6,1,161,113.203125,[ 1.         -0.22315835  0.16749055],1,1,1,0.307005927,1,nan,nan,nan,nan,nan,nan,nan,nan,4.441241189,122,[ 1.         -0.31115954 -0.21914422],nan,-27.64436619,4.042485047,1041.760629,1093.164445,1093.471451,1094.997998,1099.048518
0,45,15:43:32:021000,6,1,502,352.96875,[ 0.76474094  0.25241358 -1.        ],1,1,1,0.37623158,0,nan,nan,nan,nan,nan,nan,nan,nan,nan,nan,[ nan  nan  nan],nan,nan,nan,1041.760629,1100.207064,1100.583295,nan,nan
0,46,15:43:32:973000,6,1,427,300.234375,[ 0.16326517  0.44486322 -0.84020871],1,1,1,0.354353292,0,nan,nan,nan,nan,nan,nan,nan,nan,nan,nan,[ nan  nan  nan],nan,nan,nan,1041.760629,1101.148905,1101.503258,nan,nan
0,47,15:43:33:909000,6,1,91,63.984375,[ 1.         -0.2377099  -0.56272232],1,1,1,0.268588349,0,nan,nan,nan,nan,nan,nan,nan,nan,nan,nan,[ nan  nan  nan],nan,nan,nan,1041.760629,1102.090646,1102.359234,nan,nan
0,48,15:43:34:845000,6,0,193,135.703125,[ 1.         -0.05804539  0.42865879],0,0,1,0.438778568,0,nan,nan,nan,nan,nan,nan,nan,nan,nan,nan,[ nan  nan  nan],nan,nan,nan,1041.760629,1103.032443,1103.471221,nan,nan
0,49,15:43:35:796000,6,1,498,350.15625,[ 0.73150794  0.26756188 -1.        ],1,1,1,0.312958168,0,nan,nan,nan,nan,nan,nan,nan,nan,nan,nan,[ nan  nan  nan],nan,nan,nan,1041.760629,1103.974233,1104.287191,nan,nan
0,50,15:43:36:732000,6,1,391,274.921875,[-0.0591908   0.47591628 -0.30371871],1,1,1,0.283143084,0,nan,nan,nan,nan,nan,nan,nan,nan,nan,nan,[ nan  nan  nan],nan,nan,nan,1041.760629,1104.916023,1105.199166,nan,nan
0,51,15:43:37:668000,6,1,130,91.40625,[ 1.         -0.30933315 -0.13607149],1,1,1,0.421326969,0,nan,nan,nan,nan,nan,nan,nan,nan,nan,nan,[ nan  nan  nan],nan,nan,nan,1041.760629,1105.85782,1106.279147,nan,nan
0,52,15:43:38:620000,6,0,84,59.0625,[ 1.         -0.20765784 -0.65219109],0,0,1,0.495506455,0,nan,nan,nan,nan,nan,nan,nan,nan,nan,nan,[ nan  nan  nan],nan,nan,nan,1041.760629,1106.79961,1107.295117,nan,nan
0,53,15:43:39:556000,6,1,357,251.015625,[-0.17179183  0.47376752  0.06873903],1,1,1,0.26567438,0,nan,nan,nan,nan,nan,nan,nan,nan,nan,nan,[ nan  nan  nan],nan,nan,nan,1041.760629,1107.741443,1108.007118,nan,nan
0,54,15:43:40:507000,6,1,102,71.71875,[ 1.         -0.27661034 -0.43492695],1,1,1,0.259831902,0,nan,nan,nan,nan,nan,nan,nan,nan,nan,nan,[ nan  nan  nan],nan,nan,nan,1041.760629,1108.683254,1108.943086,nan,nan
0,55,15:43:41:443000,6,1,180,126.5625,[ 1.         -0.12927862  0.33123896],1,1,1,0.246070589,0,nan,nan,nan,nan,nan,nan,nan,nan,nan,nan,[ nan  nan  nan],nan,nan,nan,1041.760629,1109.624993,1109.871064,nan,nan
0,56,15:43:42:379000,6,1,73,51.328125,[ 1.         -0.15467886 -0.83091687],1,1,1,0.232272785,0,nan,nan,nan,nan,nan,nan,nan,nan,nan,nan,[ nan  nan  nan],nan,nan,nan,1041.760629,1110.566782,1110.799055,nan,nan
0,57,15:43:43:331000,6,1,327,229.921875,[-0.12808616  0.44548068  0.34417644],1,1,1,0.242453288,0,nan,nan,nan,nan,nan,nan,nan,nan,nan,nan,[ nan  nan  nan],nan,nan,nan,1041.760629,1111.50858,1111.751033,nan,nan
0,58,15:43:44:267000,6,1,468,329.0625,[ 0.48123648  0.36313162 -1.        ],1,1,1,0.300643434,0,nan,nan,nan,nan,nan,nan,nan,nan,nan,nan,[ nan  nan  nan],nan,nan,nan,1041.760629,1112.450377,1112.751021,nan,nan
0,59,15:43:45:203000,6,1,195,137.109375,[ 1.         -0.04692453  0.44239605],1,1,1,0.270814095,0,nan,nan,nan,nan,nan,nan,nan,nan,nan,nan,[ nan  nan  nan],nan,nan,nan,1041.760629,1113.392166,1113.66298,nan,nan
0,60,15:43:46:155000,6,1,21,14.765625,[ 1.        0.116714 -1.      ],1,1,1,0.26499585,0,nan,nan,nan,nan,nan,nan,nan,nan,nan,nan,[ nan  nan  nan],nan,nan,nan,1041.760629,1114.333961,1114.598957,nan,nan
0,61,15:43:47:091000,6,0,474,333.28125,[ 0.53090176  0.34654538 -1.        ],0,1,0,0.219196274,0,0,0,nan,nan,nan,nan,nan,nan,nan,nan,[ nan  nan  nan],nan,nan,nan,1041.760629,1115.275751,1115.494947,nan,nan
0,62,15:43:48:042000,6,1,399,280.546875,[-0.01644604  0.47203125 -0.40027452],1,1,1,0.149334001,0,nan,nan,nan,nan,nan,nan,nan,nan,nan,nan,[ nan  nan  nan],nan,nan,nan,1041.760629,1116.217582,1116.366916,nan,nan
0,63,15:43:48:978000,6,1,453,318.515625,[ 0.35967042  0.39926175 -1.        ],1,1,1,0.271550784,0,nan,nan,nan,nan,nan,nan,nan,nan,nan,nan,[ nan  nan  nan],nan,nan,nan,1041.760629,1117.159332,1117.430883,nan,nan
0,64,15:43:49:914000,6,1,78,54.84375,[ 1.         -0.17946765 -0.73990763],1,1,1,0.313730208,0,nan,nan,nan,nan,nan,nan,nan,nan,nan,nan,[ nan  nan  nan],nan,nan,nan,1041.760629,1118.101132,1118.414862,nan,nan
0,65,15:43:50:866000,6,1,473,332.578125,[ 0.52259481  0.34939617 -1.        ],1,1,1,0.291923764,0,nan,nan,nan,nan,nan,nan,nan,nan,nan,nan,[ nan  nan  nan],nan,nan,nan,1041.760629,1119.042922,1119.334846,nan,nan
0,66,15:43:51:802000,6,0,371,260.859375,[-0.14179361  0.47833194 -0.07797326],0,0,1,0.438107166,0,nan,nan,nan,nan,nan,nan,nan,nan,nan,nan,[ nan  nan  nan],nan,nan,nan,1041.760629,1119.984713,1120.42282,nan,nan
0,67,15:43:52:738000,6,1,96,67.5,[ 1.         -0.25681952 -0.50330248],1,1,1,0.280288985,0,nan,nan,nan,nan,nan,nan,nan,nan,nan,nan,[ nan  nan  nan],nan,nan,nan,1041.760629,1120.926528,1121.206817,nan,nan
0,68,15:43:53:689000,6,1,448,315,[ 0.32026744  0.40966225 -1.        ],1,1,1,0.314483433,0,nan,nan,nan,nan,nan,nan,nan,nan,nan,nan,[ nan  nan  nan],nan,nan,nan,1041.760629,1121.868303,1122.182787,nan,nan
0,69,15:43:54:625000,6,1,504,354.375,[ 0.78128615  0.24462829 -1.        ],1,1,1,0.364672637,0,nan,nan,nan,nan,nan,nan,nan,nan,nan,nan,[ nan  nan  nan],nan,nan,nan,1041.760629,1122.810095,1123.174767,nan,nan
0,70,15:43:55:577000,6,1,443,311.484375,[ 0.28155878  0.41926821 -1.        ],1,1,1,0.4628444,0,nan,nan,nan,nan,nan,nan,nan,nan,nan,nan,[ nan  nan  nan],nan,nan,nan,1041.760629,1123.751889,1124.214733,nan,nan
0,71,15:44:00:148000,6,1,403,283.359375,[ 0.00657627  0.46945644 -0.45052451],1,1,1,0.345038911,1,nan,nan,nan,nan,nan,nan,nan,nan,-171.1016869,371,[-0.14179361  0.47833194 -0.07797326],nan,-22.25768806,1.592180607,1041.760629,1124.693685,1125.038724,1126.518867,1128.119164
0,72,15:44:01:084000,6,1,140,98.4375,[ 1.         -0.29420925 -0.03457774],1,1,1,0.273314675,0,nan,nan,nan,nan,nan,nan,nan,nan,nan,nan,[ nan  nan  nan],nan,nan,nan,1041.760629,1129.269293,1129.542608,nan,nan
0,73,15:44:02:035000,6,1,8,5.625,[ 0.91102659  0.17740094 -1.        ],1,1,1,0.235508913,0,nan,nan,nan,nan,nan,nan,nan,nan,nan,nan,[ nan  nan  nan],nan,nan,nan,1041.760629,1130.211084,1130.446593,nan,nan
0,74,15:44:02:971000,6,1,177,124.453125,[ 1.         -0.14519215  0.30692121],1,1,1,0.237680776,0,nan,nan,nan,nan,nan,nan,nan,nan,nan,nan,[ nan  nan  nan],nan,nan,nan,1041.760629,1131.152882,1131.390563,nan,nan
0,75,15:44:03:907000,6,1,478,336.09375,[ 0.5642225   0.33479366 -1.        ],1,1,1,0.27186496,0,nan,nan,nan,nan,nan,nan,nan,nan,nan,nan,[ nan  nan  nan],nan,nan,nan,1041.760629,1132.094675,1132.36654,nan,nan
0,76,15:44:04:859000,6,1,145,101.953125,[ 1.         -0.28166741  0.01505517],1,1,1,0.265987415,0,nan,nan,nan,nan,nan,nan,nan,nan,nan,nan,[ nan  nan  nan],nan,nan,nan,1041.760629,1133.036545,1133.302532,nan,nan
0,77,15:44:05:795000,6,1,454,319.21875,[ 0.36762736  0.39708484 -1.        ],1,1,1,0.260244721,0,nan,nan,nan,nan,nan,nan,nan,nan,nan,nan,[ nan  nan  nan],nan,nan,nan,1041.760629,1133.978261,1134.238506,nan,nan
0,78,15:44:06:731000,6,1,214,150.46875,[ 0.92024366  0.05754104  0.55385485],1,1,1,0.302438115,0,nan,nan,nan,nan,nan,nan,nan,nan,nan,nan,[ nan  nan  nan],nan,nan,nan,1041.760629,1134.920055,1135.222493,nan,nan
0,79,15:44:07:683000,6,1,482,338.90625,[ 0.59765563  0.32248081 -1.        ],1,1,1,0.296602194,0,nan,nan,nan,nan,nan,nan,nan,nan,nan,nan,[ nan  nan  nan],nan,nan,nan,1041.760629,1135.861849,1136.158452,nan,nan
0,80,15:44:08:619000,6,1,331,232.734375,[-0.14329784  0.45080175  0.31116671],1,1,1,0.258807265,0,0,0,0.285949191,0.292062153,0.079949976,0.37201213,0.212112177,nan,nan,nan,[ nan  nan  nan],nan,nan,nan,1041.760629,1136.803639,1137.062447,nan,nan
0,81,15:44:09:570000,6,1,270,189.84375,[ 0.33115907  0.30936972  0.64139387],1,1,1,0.244987223,0,0,0,0.266798894,0.291651599,0.079539736,0.371191335,0.212111864,nan,nan,nan,[ nan  nan  nan],nan,nan,nan,1041.760629,1137.745438,1137.990425,nan,nan
0,82,15:44:10:506000,6,1,184,129.375,[ 1.         -0.10767189  0.36264005],1,1,1,0.2471531,0,0,0,0.250315863,0.291082521,0.079218988,0.370301509,0.211863534,nan,nan,nan,[ nan  nan  nan],nan,nan,nan,1041.760629,1138.687233,1138.934387,nan,nan
0,83,15:44:11:442000,6,1,472,331.875,[ 0.51429865  0.35221228 -1.        ],1,1,1,0.209328236,0,0,0,0.233822853,0.290553251,0.078886046,0.369439297,0.211667205,nan,nan,nan,[ nan  nan  nan],nan,nan,nan,1041.760629,1139.62905,1139.838378,nan,nan
0,84,15:44:12:394000,6,1,132,92.8125,[ 1.         -0.30742683 -0.11555536],1,1,1,0.187472185,0,0,0,0.214651174,0.289586287,0.078908374,0.368494661,0.210677913,nan,nan,nan,[ nan  nan  nan],nan,nan,nan,1041.760629,1140.570883,1140.758356,nan,nan
0,85,15:44:13:330000,6,1,38,26.71875,[ 1.          0.03062595 -1.        ],1,1,1,0.477721864,0,0,0,0.291507429,0.288384945,0.079211798,0.367596743,0.209173146,nan,nan,nan,[ nan  nan  nan],nan,nan,nan,1041.760629,1141.512609,1141.990331,nan,nan
0,86,15:44:14:266000,6,1,500,351.5625,[ 0.74814593  0.26005829 -1.        ],1,1,1,0.327895217,0,0,0,0.331029755,0.290586537,0.081323706,0.371910243,0.20926283,nan,nan,nan,[ nan  nan  nan],nan,nan,nan,1041.760629,1142.454406,1142.782301,nan,nan
0,87,15:44:15:217000,6,1,398,279.84375,[-0.02203778  0.4726088  -0.38794338],1,1,1,0.330103573,0,0,1,0.378573551,0.291015372,0.08095272,0.371968092,0.210062652,nan,nan,nan,[ nan  nan  nan],nan,nan,nan,1041.760629,1143.396187,1143.72629,nan,nan
0,88,15:44:21:099000,6,1,217,152.578125,[ 0.89125041  0.07353733  0.56804835],1,1,1,0.308285725,1,0,0,0.322094838,0.291459556,0.080598003,0.372057559,0.210861553,nan,-99.18883608,269,[ 0.34171297  0.30588835  0.64326235],nan,36.61071108,2.900688422,1041.760629,1144.337974,1144.646259,1146.163192,1149.071912
0,89,15:44:22:035000,6,1,143,100.546875,[ 1.         -0.28705753 -0.00469999],1,1,1,0.272028035,0,0,0,0.303472444,0.291648614,0.080163547,0.371812161,0.211485067,nan,nan,nan,[ nan  nan  nan],nan,nan,nan,1041.760629,1150.222107,1150.494135,nan,nan
0,90,15:44:22:986000,6,1,206,144.84375,[ 0.99472346  0.01405192  0.51131616],1,1,1,0.24214795,0,0,0,0.274153903,0.291430608,0.079743476,0.371174084,0.211687132,nan,nan,nan,[ nan  nan  nan],nan,nan,nan,1041.760629,1151.163956,1151.406104,nan,nan
0,91,15:44:23:922000,6,1,371,260.859375,[-0.14179361  0.47833194 -0.07797326],1,1,1,0.116397683,0,1,0,0.210191223,0.29088904,0.079470367,0.370359407,0.211418673,nan,nan,nan,[ nan  nan  nan],nan,nan,nan,1041.760629,1152.105691,1152.222089,nan,nan
0,92,15:44:30:334000,6,1,284,199.6875,[ 0.18846515  0.3539841   0.60223628],1,1,1,0.038549578,1,0,0,0.13236507,0.288992395,0.081081706,0.370074101,0.207910689,nan,-121.6805137,301,[ 0.03515994  0.39804276  0.52341451],nan,11.99301371,3.417381522,1041.760629,1153.047483,1153.086033,1154.881031,1158.306472
0,93,15:44:31:270000,6,1,507,356.484375,[ 0.80599565  0.23268835 -1.        ],1,1,1,0.325244107,0,0,0,0.160063789,0.286299461,0.08468014,0.370979602,0.201619321,nan,nan,nan,[ nan  nan  nan],nan,nan,nan,1041.760629,1159.456675,1159.781919,nan,nan
0,94,15:44:32:222000,6,1,78,54.84375,[ 1.         -0.17946765 -0.73990763],1,1,1,0.343413863,0,0,0,0.235735849,0.286713766,0.084323218,0.371036984,0.202390548,nan,nan,nan,[ nan  nan  nan],nan,nan,nan,1041.760629,1160.398472,1160.741886,nan,nan
0,95,15:44:33:158000,6,1,23,16.171875,[ 1.          0.10694394 -1.        ],1,1,1,0.233689713,0,0,0,0.300782561,0.287310609,0.084077605,0.371388214,0.203233004,nan,nan,nan,[ nan  nan  nan],nan,nan,nan,1041.760629,1161.340225,1161.573914,nan,nan
0,96,15:44:34:094000,6,1,209,146.953125,[ 0.96730184  0.03048352  0.52805   ],1,1,1,0.203793092,0,0,0,0.260298889,0.286752058,0.083815546,0.370567604,0.202936512,nan,nan,nan,[ nan  nan  nan],nan,nan,nan,1041.760629,1162.282056,1162.485849,nan,nan
0,97,15:44:35:045000,6,0,445,312.890625,[ 0.2969539  0.4155201 -1.       ],0,1,0,0.245963678,0,0,0,0.227815494,0.285896811,0.083802396,0.369699207,0.202094415,nan,nan,nan,[ nan  nan  nan],nan,nan,nan,1041.760629,1163.223849,1163.469812,nan,nan
0,98,15:44:35:981000,6,1,186,130.78125,[ 1.         -0.09673867  0.37788139],1,1,1,0.088134093,0,0,0,0.179296954,0.28548933,0.08347027,0.3689596,0.202019061,nan,nan,nan,[ nan  nan  nan],nan,nan,nan,1041.760629,1164.165632,1164.253766,nan,nan
0,99,15:44:36:933000,6,1,462,324.84375,[ 0.43208968  0.37848636 -1.        ],1,1,1,0.306352202,0,0,0,0.213483324,0.283495843,0.085360181,0.368856024,0.198135662,nan,nan,nan,[ nan  nan  nan],nan,nan,nan,1041.760629,1165.107433,1165.413785,nan,nan
0,100,15:44:37:869000,6,1,27,18.984375,[ 1.          0.08709126 -1.        ],1,1,1,0.316538692,0,0,0,0.237008329,0.283724407,0.084962749,0.368687155,0.198761658,nan,nan,nan,[ nan  nan  nan],nan,nan,nan,1041.760629,1166.049226,1166.365765,nan,nan
0,101,15:44:38:805000,6,1,415,291.796875,[ 0.08130773  0.45915368 -0.61496802],1,1,1,0.318683471,0,0,0,0.313858121,0.2840493,0.084603501,0.368652801,0.1994458,nan,nan,nan,[ nan  nan  nan],nan,nan,nan,1041.760629,1166.991054,1167.309737,nan,nan
0,102,15:44:39:756000,6,0,191,134.296875,[ 1.         -0.06914798  0.41457165],0,0,1,0.43289361,0,0,0,0.356038591,0.284388851,0.084256887,0.368645738,0.200131964,nan,nan,nan,[ nan  nan  nan],nan,nan,nan,1041.760629,1167.932817,1168.365711,nan,nan
0,103,15:44:40:692000,6,1,492,345.9375,[ 0.68140332  0.28922202 -1.        ],1,1,1,0.355092261,0,0,0,0.368889781,0.285830645,0.085101898,0.370932543,0.200728747,nan,nan,nan,[ nan  nan  nan],nan,nan,nan,1041.760629,1168.874607,1169.229699,nan,nan
0,104,15:44:41:628000,6,1,430,302.34375,[ 0.18472502  0.44064573 -0.94190417],1,1,1,0.477268561,0,0,0,0.421751478,0.286496622,0.08496104,0.371457662,0.201535582,nan,nan,nan,[ nan  nan  nan],nan,nan,nan,1041.760629,1169.816403,1170.293672,nan,nan
0,105,15:44:42:580000,6,1,285,200.390625,[ 0.17873435  0.35687868  0.59852701],1,1,1,0.31946435,0,0,1,0.383941724,0.288313498,0.086561768,0.374875266,0.201751729,nan,nan,nan,[ nan  nan  nan],nan,nan,nan,1041.760629,1170.75819,1171.077655,nan,nan
0,106,15:44:48:383000,6,1,214,150.46875,[ 0.92024366  0.05754104  0.55385485],1,1,1,0.30565115,1,0,0,0.367461354,0.288607374,0.086205103,0.374812476,0.202402271,nan,-62.57434733,217,[ 0.89125041  0.07353733  0.56804835],nan,2.105597333,2.817359912,1041.760629,1171.699988,1172.005639,1173.525168,1176.350551
0,107,15:44:49:319000,6,1,45,31.640625,[ 1.         -0.00639576 -1.        ],1,1,1,0.272727661,0,0,0,0.299281054,0.288766661,0.085817001,0.374583662,0.20294966,nan,nan,nan,[ nan  nan  nan],nan,nan,nan,1041.760629,1177.500772,1177.773499,nan,nan
0,108,15:44:50:255000,6,1,293,206.015625,[ 0.10383026  0.3786596   0.56461706],1,1,1,0.24291828,0,0,0,0.273765697,0.288618152,0.085432589,0.37405074,0.203185563,nan,nan,nan,[ nan  nan  nan],nan,nan,nan,1041.760629,1178.44256,1178.685478,nan,nan
0,109,15:44:51:207000,6,1,338,237.65625,[-0.16289136  0.45892871  0.25039916],1,1,1,0.253112752,0,0,0,0.256252898,0.288198887,0.085151341,0.373350229,0.203047546,nan,nan,nan,[ nan  nan  nan],nan,nan,nan,1041.760629,1179.384346,1179.637458,nan,nan
0,110,15:44:52:143000,6,1,502,352.96875,[ 0.76474094  0.25241358 -1.        ],1,1,1,0.263298102,0,0,0,0.253109711,0.287879922,0.084828795,0.372708718,0.203051127,nan,nan,nan,[ nan  nan  nan],nan,nan,nan,1041.760629,1180.326139,1180.589437,nan,nan
0,111,15:44:53:079000,6,1,117,82.265625,[ 1.         -0.30758797 -0.27188654],1,1,1,0.273469767,0,0,0,0.263293541,0.287658464,0.084477756,0.37213622,0.203180709,nan,nan,nan,[ nan  nan  nan],nan,nan,nan,1041.760629,1181.267934,1181.541404,nan,nan
0,112,15:44:54:030000,6,0,324,227.8125,[-0.11479964  0.44115833  0.36806404],0,1,0,0.107654065,0,0,0,0.214807312,0.28753178,0.084110368,0.371642147,0.203421412,nan,nan,nan,[ nan  nan  nan],nan,nan,nan,1041.760629,1182.209729,1182.317383,nan,nan
0,113,15:44:54:966000,6,1,214,150.46875,[ 0.92024366  0.05754104  0.55385485],1,1,1,0.357836883,0,0,0,0.246320239,0.285939941,0.08541516,0.371355101,0.200524781,nan,nan,nan,[ nan  nan  nan],nan,nan,nan,1041.760629,1183.151515,1183.509352,nan,nan
0,114,15:44:55:918000,6,1,409,287.578125,[ 0.04294362  0.46479315 -0.52946185],1,1,1,0.256016743,0,0,0,0.240502564,0.286570616,0.085303561,0.371874178,0.201267055,nan,nan,nan,[ nan  nan  nan],nan,nan,nan,1041.760629,1184.093315,1184.349332,nan,nan
0,115,15:44:56:854000,6,1,286,201.09375,[ 0.16907896  0.35973478  0.59469871],1,1,1,0.314225135,0,0,0,0.309359587,0.28630493,0.084979227,0.371284158,0.201325703,nan,nan,nan,[ nan  nan  nan],nan,nan,nan,1041.760629,1185.035104,1185.34933,nan,nan
0,116,15:44:57:790000,6,1,61,42.890625,[ 1.        -0.0921164 -1.       ],1,1,1,0.292415555,0,0,0,0.287552478,0.286545622,0.084651505,0.371197127,0.201894117,nan,nan,nan,[ nan  nan  nan],nan,nan,nan,1041.760629,1185.976898,1186.269313,nan,nan
0,117,15:44:58:742000,6,0,363,255.234375,[-0.16228773  0.47636573  0.00704813],0,1,0,0.302585225,0,0,0,0.303075305,0.286595792,0.084290702,0.370886494,0.20230509,nan,nan,nan,[ nan  nan  nan],nan,nan,nan,1041.760629,1186.918694,1187.221279,nan,nan
0,118,15:44:59:678000,6,1,261,183.515625,[ 0.42722581  0.27661781  0.65367446],1,1,1,0.240773786,0,0,0,0.278591522,0.286731296,0.083945575,0.370676871,0.202785721,nan,nan,nan,[ nan  nan  nan],nan,nan,nan,1041.760629,1187.860479,1188.101253,nan,nan
0,119,15:45:00:629000,6,0,108,75.9375,[ 1.         -0.29242661 -0.36866329],0,1,0,0.242955342,0,0,0,0.262104784,0.286345098,0.083697322,0.37004242,0.202647776,nan,nan,nan,[ nan  nan  nan],nan,nan,nan,1041.760629,1188.80228,1189.045236,nan,nan
0,120,15:45:01:565000,6,1,157,110.390625,[ 1.         -0.24004838  0.1304259 ],1,1,1,0.253144398,0,0,0,0.245624509,0.285983517,0.083441134,0.369424651,0.202542383,nan,nan,nan,[ nan  nan  nan],nan,nan,nan,1041.760629,1189.744075,1189.997219,nan,nan
0,121,15:45:02:501000,6,1,416,292.5,[ 0.08788162  0.4581175  -0.63016532],1,1,1,0.295314414,0,0,0,0.263804718,0.285712119,0.083148788,0.368860908,0.202563331,nan,nan,nan,[ nan  nan  nan],nan,nan,nan,1041.760629,1190.685868,1190.981183,nan,nan
0,122,15:45:03:453000,6,0,297,208.828125,[ 0.06862621  0.38864628  0.54490466],0,0,1,0.457509108,0,0,0,0.33532264,0.285790827,0.082811839,0.368602666,0.202978987,nan,nan,nan,[ nan  nan  nan],nan,nan,nan,1041.760629,1191.627655,1192.085164,nan,nan
0,123,15:45:04:389000,6,1,427,300.234375,[ 0.16326517  0.44486322 -0.84020871],1,1,1,0.283709855,0,0,0,0.345511126,0.28718691,0.083903697,0.371090607,0.203283214,nan,nan,nan,[ nan  nan  nan],nan,nan,nan,1041.760629,1192.569447,1192.853157,nan,nan
0,124,15:45:05:325000,6,1,143,100.546875,[ 1.         -0.28705753 -0.00469999],1,1,1,0.341881755,0,0,0,0.361033573,0.28715887,0.083565269,0.370724139,0.203593601,nan,nan,nan,[ nan  nan  nan],nan,nan,nan,1041.760629,1193.511244,1193.853126,nan,nan
0,125,15:45:06:276000,6,1,318,223.59375,[-0.08356276  0.43164026  0.41348156],1,1,1,0.392104031,0,0,0,0.33923188,0.287596653,0.083372982,0.370969634,0.204223671,nan,nan,nan,[ nan  nan  nan],nan,nan,nan,1041.760629,1194.453001,1194.845105,nan,nan
0,126,15:45:07:212000,6,1,267,187.734375,[ 0.36292453  0.29880723  0.64662252],1,1,1,0.354252938,0,0,0,0.362746241,0.288426076,0.083557644,0.37198372,0.204868432,nan,nan,nan,[ nan  nan  nan],nan,nan,nan,1041.760629,1195.394827,1195.74908,nan,nan
0,127,15:45:08:148000,6,1,361,253.828125,[-0.16604781  0.47560771  0.02781731],1,1,1,0.332443928,0,0,0,0.359600299,0.288944398,0.083431141,0.372375539,0.205513257,nan,nan,nan,[ nan  nan  nan],nan,nan,nan,1041.760629,1196.33662,1196.669064,nan,nan
0,128,15:45:09:100000,6,1,477,335.390625,[ 0.55587987  0.33778403 -1.        ],1,1,1,0.302632551,0,0,0,0.329776472,0.289284238,0.083192799,0.372477037,0.206091439,nan,nan,nan,[ nan  nan  nan],nan,nan,nan,1041.760629,1197.278417,1197.581049,nan,nan
0,129,15:45:10:036000,6,1,399,280.546875,[-0.01644604  0.47203125 -0.40027452],1,1,1,0.312817615,0,0,0,0.315964698,0.289387713,0.082877988,0.372265701,0.206509726,nan,nan,nan,[ nan  nan  nan],nan,nan,nan,1041.760629,1198.220205,1198.533022,nan,nan
0,130,15:45:10:988000,6,1,146,102.65625,[ 1.         -0.27879258  0.02488132],1,1,1,0.258981744,0,0,0,0.291477303,0.289567943,0.082583984,0.372151928,0.206983959,nan,nan,nan,[ nan  nan  nan],nan,nan,nan,1041.760629,1199.162003,1199.420985,nan,nan
0,131,15:45:11:924000,6,1,344,241.875,[-0.17254346  0.46473023  0.19550382],1,1,1,0.245175672,0,0,0,0.272325011,0.289334461,0.082311235,0.371645696,0.207023226,nan,nan,nan,[ nan  nan  nan],nan,nan,nan,1041.760629,1200.103795,1200.348971,nan,nan
0,132,15:45:12:860000,6,1,259,182.109375,[ 0.44882283  0.26890698  0.65501178],1,1,1,0.303376652,0,0,0,0.269178023,0.288999925,0.082088205,0.371088129,0.20691172,nan,nan,nan,[ nan  nan  nan],nan,nan,nan,1041.760629,1201.045584,1201.34896,nan,nan
0,133,15:45:13:811000,6,1,303,213.046875,[ 0.01913493  0.40252284  0.51201836],1,1,1,0.321556956,0,0,0,0.290036427,0.28910802,0.08178845,0.37089647,0.207319571,nan,nan,nan,[ nan  nan  nan],nan,nan,nan,1041.760629,1201.987376,1202.308933,nan,nan
0,134,15:45:14:747000,6,1,95,66.796875,[ 1.         -0.25317502 -0.51497544],1,0,0,0.475772661,0,0,0,0.36690209,0.289350177,0.081530541,0.370880717,0.207819636,nan,nan,nan,[ nan  nan  nan],nan,nan,nan,1041.760629,1202.929134,1203.404907,nan,nan
0,135,15:45:15:683000,6,1,344,241.875,[-0.17254346  0.46473023  0.19550382],1,1,1,0.413917032,0,0,1,0.403748883,0.290731084,0.082785963,0.373517046,0.207945121,nan,nan,nan,[ nan  nan  nan],nan,nan,nan,1041.760629,1203.870961,1204.284878,nan,nan
0,136,15:45:20:316000,6,1,13,9.140625,[ 0.95026217  0.15466406 -1.        ],1,1,1,0.328072547,1,0,0,0.405920746,0.291636863,0.08314975,0.374786613,0.208487113,nan,67.13866002,33,[ 1.          0.05659903 -1.        ],nan,13.72071498,1.633908154,1041.760629,1204.812754,1205.140827,1206.646299,1208.28817
0,137,15:45:21:252000,6,1,456,320.625,[ 0.38361243  0.39263319 -1.        ],1,1,1,0.278377129,0,0,0,0.340122236,0.291902817,0.082903764,0.374806581,0.208999053,nan,nan,nan,[ nan  nan  nan],nan,nan,nan,1041.760629,1209.438371,1209.716748,nan,nan
0,138,15:45:22:204000,6,1,208,146.25,[ 0.97651258  0.02502074  0.52257448],1,1,1,0.264572197,0,0,0,0.290340624,0.291804805,0.082610808,0.374415613,0.209193997,nan,nan,nan,[ nan  nan  nan],nan,nan,nan,1041.760629,1210.380165,1210.644738,nan,nan
0,139,15:45:23:140000,6,1,65,45.703125,[ 1.         -0.11331216 -1.        ],1,1,1,0.234750842,0,0,0,0.259233389,0.291608887,0.08234528,0.373954166,0.209263607,nan,nan,nan,[ nan  nan  nan],nan,nan,nan,1041.760629,1211.321961,1211.556712,nan,nan
0,140,15:45:24:076000,6,1,404,284.0625,[ 0.01248946  0.46874627 -0.4633491 ],1,1,1,0.252941695,0,0,0,0.250754911,0.291202758,0.082190255,0.373393012,0.209012503,nan,nan,nan,[ nan  nan  nan],nan,nan,nan,1041.760629,1212.263754,1212.516695,nan,nan
0,141,15:45:25:028000,6,1,110,77.34375,[ 1.         -0.29672275 -0.34692196],1,1,1,0.207126723,0,0,0,0.23160642,0.290931403,0.081961193,0.372892596,0.208970209,nan,nan,nan,[ nan  nan  nan],nan,nan,nan,1041.760629,1213.205548,1213.412674,nan,nan
0,142,15:45:25:964000,6,0,483,339.609375,[ 0.60602571  0.31931445 -1.        ],0,1,0,0.217309792,0,0,0,0.225792736,0.290341229,0.081972196,0.372313425,0.208369033,nan,nan,nan,[ nan  nan  nan],nan,nan,nan,1041.760629,1214.147338,1214.364648,nan,nan
0,143,15:45:26:915000,6,1,18,12.65625,[ 0.9886827   0.13116258 -1.        ],1,1,1,0.227494571,0,0,0,0.217310362,0.289830519,0.081911469,0.371741989,0.20791905,nan,nan,nan,[ nan  nan  nan],nan,nan,nan,1041.760629,1215.089135,1215.316629,nan,nan
0,144,15:45:27:851000,6,1,243,170.859375,[ 0.62215101  0.20168048  0.64746348],1,1,1,0.293665417,0,0,0,0.246156593,0.289397631,0.081790539,0.37118817,0.207607092,nan,nan,nan,[ nan  nan  nan],nan,nan,nan,1041.760629,1216.030932,1216.324598,nan,nan
0,145,15:45:28:787000,6,1,363,255.234375,[-0.16228773  0.47636573  0.00704813],1,1,1,0.319860348,0,0,0,0.280340112,0.289427064,0.08150878,0.370935844,0.207918284,nan,nan,nan,[ nan  nan  nan],nan,nan,nan,1041.760629,1216.972713,1217.292574,nan,nan
0,146,15:45:29:739000,6,1,10,7.03125,[ 0.9268115   0.16840058 -1.        ],1,1,1,0.338043504,0,0,0,0.317189757,0.289635511,0.081267932,0.370903443,0.208367579,nan,nan,nan,[ nan  nan  nan],nan,nan,nan,1041.760629,1217.914519,1218.252562,nan,nan
0,147,15:45:30:675000,6,1,452,317.8125,[ 0.35173807  0.40140621 -1.        ],1,1,1,0.332237518,0,0,0,0.330047124,0.289964817,0.081088723,0.37105354,0.208876094,nan,nan,nan,[ nan  nan  nan],nan,nan,nan,1041.760629,1218.856303,1219.18854,nan,nan
0,148,15:45:31:611000,6,1,370,260.15625,[-0.144806    0.47817873 -0.06718033],1,1,1,0.550408871,0,0,1,0.406896631,0.290250444,0.080888475,0.371138918,0.209361969,nan,nan,nan,[ nan  nan  nan],nan,nan,nan,1041.760629,1219.798099,1220.348508,nan,nan
0,149,15:45:35:729000,6,1,122,85.78125,[ 1.         -0.31115954 -0.21914422],1,1,1,0.088642705,1,0,0,0.323763031,0.291996473,0.083368032,0.375364505,0.208628441,nan,6.432653924,119,[ 1.         -0.30944633 -0.2507109 ],nan,-2.213903924,1.108739712,1041.760629,1220.739877,1220.82852,1222.573429,1223.690217
0,150,15:45:36:665000,6,1,197,138.515625,[ 1.         -0.0357976   0.45577474],1,1,1,0.235637206,0,0,0,0.291562927,0.290640781,0.08472155,0.375362331,0.205919232,nan,nan,nan,[ nan  nan  nan],nan,nan,nan,1041.760629,1224.84877,1225.084408,nan,nan
0,151,15:45:37:617000,6,1,323,227.109375,[-0.11001989  0.43965345  0.37585536],1,1,1,0.237806503,0,0,0,0.187362138,0.290276519,0.084558319,0.374834838,0.2057182,nan,nan,nan,[ nan  nan  nan],nan,nan,nan,1041.760629,1225.790565,1226.028372,nan,nan
0,152,15:45:38:553000,6,1,202,142.03125,[ 1.         -0.00802826  0.48759698],1,1,1,0.255997927,0,0,0,0.243147212,0.289931322,0.084386388,0.37431771,0.205544934,nan,nan,nan,[ nan  nan  nan],nan,nan,nan,1041.760629,1226.732361,1226.988359,nan,nan
0,153,15:45:39:489000,6,1,456,320.625,[ 0.38361243  0.39263319 -1.        ],1,1,1,0.202235611,0,0,0,0.232013347,0.289709535,0.084154598,0.373864133,0.205554937,nan,nan,nan,[ nan  nan  nan],nan,nan,nan,1041.760629,1227.674156,1227.876392,nan,nan
0,154,15:45:40:440000,6,1,17,11.953125,[ 0.98106915  0.13592191 -1.        ],1,1,1,0.22838008,0,0,0,0.228871206,0.289141522,0.084174658,0.37331618,0.204966865,nan,nan,nan,[ nan  nan  nan],nan,nan,nan,1041.760629,1228.615941,1228.844321,nan,nan
0,155,15:45:41:376000,6,1,409,287.578125,[ 0.04294362  0.46479315 -0.52946185],1,1,1,0.222558129,0,0,0,0.217724607,0.288749513,0.084043598,0.372793111,0.204705915,nan,nan,nan,[ nan  nan  nan],nan,nan,nan,1041.760629,1229.557731,1229.780289,nan,nan
0,156,15:45:42:312000,6,1,244,171.5625,[ 0.61137236  0.20616355  0.64888072],1,1,1,0.208760039,0,0,0,0.219899416,0.288325209,0.08394018,0.372265389,0.204385029,nan,nan,nan,[ nan  nan  nan],nan,nan,nan,1041.760629,1230.499526,1230.708286,nan,nan
0,157,15:45:43:264000,6,1,100,70.3125,[ 1.         -0.27042709 -0.4574399 ],1,1,1,0.194941138,0,0,0,0.208753102,0.287818425,0.083911505,0.37172993,0.20390692,nan,nan,nan,[ nan  nan  nan],nan,nan,nan,1041.760629,1231.441321,1231.636262,nan,nan
0,158,15:45:44:200000,6,1,262,184.21875,[ 0.41645248  0.28041442  0.65281554],1,1,1,0.269113496,0,0,0,0.224271558,0.287230594,0.083969203,0.371199797,0.203261391,nan,nan,nan,[ nan  nan  nan],nan,nan,nan,1041.760629,1232.38311,1232.652223,nan,nan
0,159,15:45:45:152000,6,1,338,237.65625,[-0.16289136  0.45892871  0.25039916],1,1,1,0.287312332,0,0,0,0.250455655,0.28711665,0.083716985,0.370833635,0.203399665,nan,nan,nan,[ nan  nan  nan],nan,nan,nan,1041.760629,1233.324903,1233.612216,nan,nan
0,160,15:45:46:088000,6,1,454,319.21875,[ 0.36762736  0.39708484 -1.        ],1,1,1,0.297491124,0,0,0,0.284638984,0.287117873,0.083454961,0.370572834,0.203662912,nan,nan,nan,[ nan  nan  nan],nan,nan,nan,1041.760629,1234.266699,1234.56419,nan,nan
0,161,15:45:47:024000,6,1,219,153.984375,[ 0.87162732  0.08408817  0.57695967],1,1,1,0.267650382,0,0,0,0.284151279,0.287182303,0.083199372,0.370381675,0.203982931,nan,nan,nan,[ nan  nan  nan],nan,nan,nan,1041.760629,1235.208487,1235.476137,nan,nan
0,162,15:45:47:975000,6,0,383,269.296875,[-0.09687871  0.47813121 -0.21108141],0,1,0,0.301855093,0,0,0,0.288998866,0.287061736,0.082956294,0.37001803,0.204105442,nan,nan,nan,[ nan  nan  nan],nan,nan,nan,1041.760629,1236.150287,1236.452142,nan,nan
0,163,15:45:48:911000,6,1,447,314.296875,[ 0.31246764  0.41164647 -1.        ],1,1,1,0.280030688,0,0,0,0.283178721,0.287152492,0.082709502,0.369861995,0.20444299,nan,nan,nan,[ nan  nan  nan],nan,nan,nan,1041.760629,1237.092082,1237.372113,nan,nan
0,164,15:45:49:847000,6,1,491,345.234375,[ 0.67303348  0.29270771 -1.        ],1,1,1,0.314217153,0,0,0,0.298700978,0.287109067,0.082458817,0.369567884,0.204650249,nan,nan,nan,[ nan  nan  nan],nan,nan,nan,1041.760629,1238.033869,1238.348086,nan,nan
0,165,15:45:50:799000,6,1,117,82.265625,[ 1.         -0.30758797 -0.27188654],1,1,1,0.444451128,0,0,0,0.34623299,0.287273358,0.082235481,0.369508839,0.205037877,nan,nan,nan,[ nan  nan  nan],nan,nan,nan,1041.760629,1238.975656,1239.420108,nan,nan
0,166,15:45:51:735000,6,1,175,123.046875,[ 1.         -0.15562995  0.29036176],1,1,1,0.318601363,0,0,0,0.359089881,0.288220212,0.082884638,0.37110485,0.205335574,nan,nan,nan,[ nan  nan  nan],nan,nan,nan,1041.760629,1239.917453,1240.236055,nan,nan
0,167,15:45:52:686000,6,1,300,210.9375,[ 0.04335371  0.39574842  0.52895103],1,1,1,0.264785734,0,0,0,0.342612742,0.288402135,0.082669343,0.371071478,0.205732792,nan,nan,nan,[ nan  nan  nan],nan,nan,nan,1041.760629,1240.859249,1241.124035,nan,nan
0,168,15:45:53:622000,6,1,392,275.625,[-0.05410679  0.47552228 -0.31554984],1,1,1,0.314960684,0,0,0,0.299449261,0.288261562,0.082442953,0.370704514,0.205818609,nan,nan,nan,[ nan  nan  nan],nan,nan,nan,1041.760629,1241.801041,1242.116001,nan,nan
0,169,15:45:54:558000,6,1,240,168.75,[ 0.65437302  0.18801506  0.64246395],1,1,1,0.325149455,0,0,0,0.301631958,0.288419545,0.082224178,0.370643723,0.206195366,nan,nan,nan,[ nan  nan  nan],nan,nan,nan,1041.760629,1242.742832,1243.067981,nan,nan
0,170,15:45:55:510000,6,1,287,201.796875,[ 0.15950165  0.36255249  0.59075192],1,1,1,0.367340283,0,0,0,0.335816807,0.288635603,0.082030087,0.37066569,0.206605516,nan,nan,nan,[ nan  nan  nan],nan,nan,nan,1041.760629,1243.684624,1244.051964,nan,nan
0,171,15:45:56:446000,6,1,482,338.90625,[ 0.59765563  0.32248081 -1.        ],1,1,1,0.305485224,0,0,0,0.33265832,0.289095864,0.08200974,0.371105605,0.207086124,nan,nan,nan,[ nan  nan  nan],nan,nan,nan,1041.760629,1244.626418,1244.931903,nan,nan
0,172,15:45:57:382000,6,1,96,67.5,[ 1.         -0.25681952 -0.50330248],1,1,1,0.26770284,0,0,0,0.313509449,0.289191151,0.081780486,0.370971637,0.207410665,nan,nan,nan,[ nan  nan  nan],nan,nan,nan,1041.760629,1245.568215,1245.835918,nan,nan
0,173,15:45:58:334000,6,1,173,121.640625,[ 1.         -0.16590952  0.27353519],1,1,1,0.325898117,0,0,0,0.299695394,0.289066941,0.081560053,0.370626994,0.207506888,nan,nan,nan,[ nan  nan  nan],nan,nan,nan,1041.760629,1246.510004,1246.835902,nan,nan
0,174,15:45:59:270000,6,1,2,1.40625,[ 0.86302458  0.20362286 -1.        ],1,1,1,0.27208591,0,0,0,0.288562289,0.289278615,0.08137299,0.370651604,0.207905625,nan,nan,nan,[ nan  nan  nan],nan,nan,nan,1041.760629,1247.451792,1247.723878,nan,nan
0,175,15:46:00:221000,6,1,49,34.453125,[ 1.         -0.02778543 -1.        ],1,1,1,0.202267542,0,0,0,0.266750523,0.289180371,0.081150511,0.370330881,0.20802986,nan,nan,nan,[ nan  nan  nan],nan,nan,nan,1041.760629,1248.393593,1248.59586,nan,nan
0,176,15:46:01:157000,6,0,179,125.859375,[ 1.         -0.13461442  0.32320413],0,1,0,0.300447573,0,0,0,0.258267008,0.288686548,0.081182905,0.369869452,0.207503643,nan,nan,nan,[ nan  nan  nan],nan,nan,nan,1041.760629,1249.335385,1249.635833,nan,nan
0,177,15:46:02:093000,6,1,44,30.9375,[ 1.         -0.00106984 -1.        ],1,1,1,0.00660397,0,0,0,0.169773028,0.288752994,0.080958049,0.369711043,0.207794945,nan,nan,nan,[ nan  nan  nan],nan,nan,nan,1041.760629,1250.277172,1250.283776,nan,nan
0,178,15:46:03:045000,6,1,343,241.171875,[-0.17138818  0.46383642  0.20482281],1,1,1,0.216835677,0,0,0,0.174629073,0.287167887,0.083439248,0.370607135,0.203728639,nan,nan,nan,[ nan  nan  nan],nan,nan,nan,1041.760629,1251.218961,1251.435796,nan,nan
0,179,15:46:03:981000,6,1,165,116.015625,[ 1.         -0.20505638  0.20374544],1,1,1,0.25901168,0,1,0,0.160817109,0.28677497,0.083370822,0.370145792,0.203404148,nan,nan,nan,[ nan  nan  nan],nan,nan,nan,1041.760629,1252.160761,1252.419772,nan,nan
0,180,15:46:09:051000,6,1,35,24.609375,[ 1.          0.04626536 -1.        ],1,1,1,0.317199545,1,0,0,0.264348967,0.286620729,0.08316452,0.36978525,0.203456209,nan,77.5645585,18,[ 0.9886827   0.13116258 -1.        ],nan,-12.1739335,2.083913243,1041.760629,1253.102553,1253.419753,1254.927733,1257.019678
0,181,15:46:09:987000,6,1,223,156.796875,[ 0.83172397  0.10489059  0.59343224],1,1,1,0.265724556,0,0,0,0.28064526,0.286789673,0.082965434,0.369755107,0.203824239,nan,nan,nan,[ nan  nan  nan],nan,nan,nan,1041.760629,1258.169896,1258.43562,nan,nan
0,182,15:46:10:939000,6,1,330,232.03125,[-0.13976633  0.44951833  0.31954025],1,1,1,0.227916799,0,0,0,0.2702803,0.286673931,0.082751845,0.369425776,0.203922086,nan,nan,nan,[ nan  nan  nan],nan,nan,nan,1041.760629,1259.111687,1259.339604,nan,nan
0,183,15:46:11:875000,6,0,52,36.5625,[ 1.         -0.04388606 -1.        ],0,1,0,0.166109921,0,0,0,0.219917092,0.286352854,0.082639036,0.368991889,0.203713818,nan,nan,nan,[ nan  nan  nan],nan,nan,nan,1041.760629,1260.053486,1260.219596,nan,nan
0,184,15:46:12:811000,6,1,307,215.859375,[-0.01138687  0.41105336  0.48795701],1,1,1,0.232292171,0,0,0,0.208772964,0.285699359,0.082886947,0.368586306,0.202812412,nan,nan,nan,[ nan  nan  nan],nan,nan,nan,1041.760629,1260.995272,1261.227564,nan,nan
0,185,15:46:13:762000,6,1,356,250.3125,[-0.17284378  0.47323941  0.07883681],1,1,1,0.290451812,0,0,0,0.229617968,0.285410672,0.082755327,0.368165999,0.202655345,nan,nan,nan,[ nan  nan  nan],nan,nan,nan,1041.760629,1261.937064,1262.227516,nan,nan
0,186,15:46:14:698000,6,1,42,29.53125,[ 1.          0.00954879 -1.        ],1,1,1,0.300640868,0,0,0,0.274461617,0.285437775,0.08253339,0.367971165,0.202904385,nan,nan,nan,[ nan  nan  nan],nan,nan,nan,1041.760629,1262.878853,1263.179494,nan,nan
0,187,15:46:15:634000,6,1,164,115.3125,[ 1.         -0.20968584  0.19476155],1,1,1,0.310809397,0,0,0,0.300634026,0.285519075,0.082319884,0.367838959,0.20319919,nan,nan,nan,[ nan  nan  nan],nan,nan,nan,1041.760629,1263.820652,1264.131462,nan,nan
0,188,15:46:16:586000,6,1,479,336.796875,[ 0.57257215  0.33176822 -1.        ],1,1,1,0.312994375,0,0,0,0.308148213,0.285653598,0.082121263,0.367774861,0.203532335,nan,nan,nan,[ nan  nan  nan],nan,nan,nan,1041.760629,1264.762447,1265.075442,nan,nan
0,189,15:46:17:522000,6,1,215,151.171875,[ 0.91063986  0.06289474  0.55869515],1,1,1,0.339179328,0,0,0,0.320994366,0.285798258,0.081927736,0.367725994,0.203870521,nan,nan,nan,[ nan  nan  nan],nan,nan,nan,1041.760629,1265.704241,1266.04342,nan,nan
0,190,15:46:18:473000,6,1,54,37.96875,[ 1.         -0.05462921 -1.        ],1,1,1,0.301366723,0,0,0,0.317846808,0.286079211,0.08180309,0.367882301,0.204276121,nan,nan,nan,[ nan  nan  nan],nan,nan,nan,1041.760629,1266.646031,1266.947398,nan,nan
0,191,15:46:19:409000,6,1,316,222.1875,[-0.07182156  0.42820351  0.42789226],1,1,1,0.247591293,0,0,0,0.296045781,0.28615925,0.081596124,0.367755374,0.204563127,nan,nan,nan,[ nan  nan  nan],nan,nan,nan,1041.760629,1267.587821,1267.835412,nan,nan
0,192,15:46:20:345000,6,1,375,263.671875,[-0.1285567   0.47868243 -0.12160516],1,1,1,0.233746162,0,0,0,0.260901393,0.285958375,0.081430692,0.367389068,0.204527683,nan,nan,nan,[ nan  nan  nan],nan,nan,nan,1041.760629,1268.529614,1268.76336,nan,nan
0,193,15:46:21:297000,6,1,450,316.40625,[ 0.33594973  0.40559833 -1.        ],1,1,1,0.227956142,0,0,0,0.236431199,0.285687846,0.081305917,0.366993763,0.204381929,nan,nan,nan,[ nan  nan  nan],nan,nan,nan,1041.760629,1269.471408,1269.699365,nan,nan
0,194,15:46:22:233000,6,1,341,239.765625,[-0.16853588  0.4619615   0.22326011],1,1,1,0.270153812,0,0,0,0.243952039,0.28539026,0.081201405,0.366591665,0.204188855,nan,nan,nan,[ nan  nan  nan],nan,nan,nan,1041.760629,1270.413199,1270.683352,nan,nan
0,195,15:46:23:169000,6,1,454,319.21875,[ 0.36762736  0.39708484 -1.        ],1,1,1,0.224302633,0,0,0,0.240804196,0.285312124,0.08100024,0.366312364,0.204311884,nan,nan,nan,[ nan  nan  nan],nan,nan,nan,1041.760629,1271.354991,1271.579293,nan,nan
0,196,15:46:24:121000,6,1,336,236.25,[-0.15821161  0.45675811  0.26813527],1,1,1,0.138520014,0,0,0,0.210992153,0.285000851,0.080910184,0.365911036,0.204090667,nan,nan,nan,[ nan  nan  nan],nan,nan,nan,1041.760629,1272.296785,1272.435305,nan,nan
0,197,15:46:25:057000,6,1,430,302.34375,[ 0.18472502  0.44064573 -0.94190417],1,1,1,0.172698781,0,1,0,0.178507143,0.284257294,0.081373161,0.365630454,0.202884133,nan,nan,nan,[ nan  nan  nan],nan,nan,nan,1041.760629,1273.238571,1273.41127,nan,nan
0,198,15:46:26:008000,6,0,132,92.8125,[ 1.         -0.30742683 -0.11555536],0,1,0,0.166880536,0,0,0,0.159366444,0.283693867,0.081551741,0.365245608,0.202142126,nan,nan,nan,[ nan  nan  nan],nan,nan,nan,1041.760629,1274.180368,1274.347248,nan,nan
0,199,15:46:26:944000,6,1,44,30.9375,[ 1.         -0.00106984 -1.        ],1,1,1,0.11308743,0,0,0,0.150888916,0.283106865,0.081764852,0.364871717,0.201342013,nan,nan,nan,[ nan  nan  nan],nan,nan,nan,1041.760629,1275.122163,1275.23525,nan,nan
0,200,15:46:27:880000,6,1,465,326.953125,[ 0.45658868  0.37096153 -1.        ],1,1,1,0.155262578,0,0,0,0.145076848,0.282256768,0.082437091,0.364693859,0.199819677,nan,nan,nan,[ nan  nan  nan],nan,nan,nan,1041.760629,1276.063956,1276.219219,nan,nan
0,201,15:46:28:832000,6,1,153,107.578125,[ 1.         -0.25554786  0.09262139],1,1,1,0.221433994,0,1,0,0.163261334,0.281624956,0.082715784,0.36434074,0.198909172,nan,nan,nan,[ nan  nan  nan],nan,nan,nan,1041.760629,1277.005748,1277.227182,nan,nan
0,202,15:46:34:463000,6,1,80,56.25,[ 1.         -0.18907571 -0.70896555],1,1,1,0.223637504,1,0,0,0.200111359,0.281326981,0.082618864,0.363945845,0.198708117,nan,5.654420823,120,[ 1.         -0.3101615  -0.24016291],nan,28.09557918,2.642319064,1041.760629,1277.947532,1278.17117,1279.772724,1282.423074
0,203,15:46:35:399000,6,1,18,12.65625,[ 0.9886827   0.13116258 -1.        ],1,1,1,0.269414558,0,0,0,0.238162018,0.281042796,0.082514031,0.363556828,0.198528765,nan,nan,nan,[ nan  nan  nan],nan,nan,nan,1041.760629,1283.581621,1283.851035,nan,nan
0,204,15:46:36:351000,6,1,309,217.265625,[-0.02583963  0.41510654  0.4753057 ],1,1,1,0.311598258,0,0,0,0.268216773,0.280985795,0.082315549,0.363301344,0.198670246,nan,nan,nan,[ nan  nan  nan],nan,nan,nan,1041.760629,1284.523421,1284.83502,nan,nan
0,205,15:46:37:287000,6,1,409,287.578125,[ 0.04294362  0.46479315 -0.52946185],1,1,1,0.321800429,0,0,0,0.300937748,0.281135124,0.082142229,0.363277353,0.198992896,nan,nan,nan,[ nan  nan  nan],nan,nan,nan,1041.760629,1285.465203,1285.787003,nan,nan
0,206,15:46:38:223000,6,1,75,52.734375,[ 1.         -0.16471446 -0.79135592],1,1,1,0.291987626,0,0,0,0.308462104,0.281332529,0.081991342,0.363323871,0.199341187,nan,nan,nan,[ nan  nan  nan],nan,nan,nan,1041.760629,1286.406994,1286.698981,nan,nan
0,207,15:46:39:175000,6,1,331,232.734375,[-0.14329784  0.45080175  0.31116671],1,1,1,0.302162142,0,0,0,0.305316732,0.281384003,0.081796392,0.363180395,0.199587611,nan,nan,nan,[ nan  nan  nan],nan,nan,nan,1041.760629,1287.3488,1287.650962,nan,nan
0,208,15:46:40:111000,6,1,450,316.40625,[ 0.33594973  0.40559833 -1.        ],1,1,1,0.30433486,0,0,0,0.299494876,0.281483898,0.081612185,0.363096083,0.199871712,nan,nan,nan,[ nan  nan  nan],nan,nan,nan,1041.760629,1288.290595,1288.59493,nan,nan
0,209,15:46:41:047000,6,0,317,222.890625,[-0.07777284  0.42993861  0.42073361],0,0,1,0.426517717,0,0,0,0.34433824,0.281593232,0.081431975,0.363025208,0.200161257,nan,nan,nan,[ nan  nan  nan],nan,nan,nan,1041.760629,1289.232385,1289.658903,nan,nan
0,210,15:46:41:998000,6,1,50,35.15625,[ 1.         -0.03314873 -1.        ],1,1,1,0.244640831,0,0,0,0.32516447,0.282283349,0.081848202,0.364131551,0.200435147,nan,nan,nan,[ nan  nan  nan],nan,nan,nan,1041.760629,1290.174237,1290.418877,nan,nan
0,211,15:46:42:934000,6,1,406,285.46875,[ 0.02449675  0.4672457  -0.4893661 ],1,1,1,0.254906578,0,0,0,0.308688376,0.282104948,0.081694935,0.363799883,0.200410014,nan,nan,nan,[ nan  nan  nan],nan,nan,nan,1041.760629,1291.115968,1291.370875,nan,nan
0,212,15:46:43:886000,6,1,181,127.265625,[ 1.         -0.12391439  0.33920113],1,1,1,0.265109604,0,0,0,0.254885671,0.281976654,0.081523333,0.363499987,0.200453321,nan,nan,nan,[ nan  nan  nan],nan,nan,nan,1041.760629,1292.057762,1292.322872,nan,nan
0,213,15:46:44:822000,6,1,507,356.484375,[ 0.80599565  0.23268835 -1.        ],1,1,1,0.27526958,0,0,0,0.265095254,0.281897466,0.081339911,0.363237377,0.200557555,nan,nan,nan,[ nan  nan  nan],nan,nan,nan,1041.760629,1292.999555,1293.274824,nan,nan
0,214,15:46:45:758000,6,1,464,326.25,[ 0.44840488  0.37350356 -1.        ],1,1,1,0.261461797,0,0,0,0.267280327,0.281866495,0.081150901,0.363017395,0.200715594,nan,nan,nan,[ nan  nan  nan],nan,nan,nan,1041.760629,1293.941344,1294.202806,nan,nan
0,215,15:46:46:709000,6,1,407,286.171875,[ 0.03058863  0.46645515 -0.50257741],1,1,1,0.239644519,0,0,0,0.258791965,0.281771589,0.080973861,0.36274545,0.200797728,nan,nan,nan,[ nan  nan  nan],nan,nan,nan,1041.760629,1294.88314,1295.122784,nan,nan
0,216,15:46:47:645000,6,1,322,226.40625,[-0.10506723  0.43811622  0.38355935],1,1,1,0.273826423,0,0,0,0.258310913,0.281576556,0.080836804,0.36241336,0.200739753,nan,nan,nan,[ nan  nan  nan],nan,nan,nan,1041.760629,1295.824922,1296.098748,nan,nan
0,217,15:46:48:581000,6,1,38,26.71875,[ 1.          0.03062595 -1.        ],1,1,1,0.49202657,0,0,0,0.335165837,0.281540841,0.080652037,0.362192878,0.200888805,nan,nan,nan,[ nan  nan  nan],nan,nan,nan,1041.760629,1296.766711,1297.258738,nan,nan
0,218,15:46:49:533000,6,1,292,205.3125,[ 0.11288167  0.37606958  0.56926185],1,1,1,0.310140561,0,0,0,0.358664518,0.282506372,0.081714203,0.364220575,0.200792169,nan,nan,nan,[ nan  nan  nan],nan,nan,nan,1041.760629,1297.708561,1298.018702,nan,nan
0,219,15:46:50:469000,6,1,419,294.609375,[ 0.10789467  0.45484197 -0.67809886],1,1,1,0.328390714,0,0,1,0.376852615,0.282632556,0.081548712,0.364181268,0.201083844,nan,nan,nan,[ nan  nan  nan],nan,nan,nan,1041.760629,1298.650309,1298.9787,nan,nan
0,220,15:46:56:038000,6,1,118,82.96875,[ 1.         -0.30858815 -0.26128525],1,1,1,0.274569098,1,0,0,0.304366791,0.282840547,0.081421363,0.364261911,0.201419184,nan,-12.68038349,146,[ 1.         -0.27879258  0.02488132],nan,19.71163349,2.567407166,1041.760629,1299.592101,1299.86667,1301.425648,1304.000996
0,221,15:46:56:974000,6,1,37,26.015625,[ 1.          0.03585655 -1.        ],1,1,1,0.299031499,0,0,0,0.300663771,0.28280312,0.08123884,0.36404196,0.20156428,nan,nan,nan,[ nan  nan  nan],nan,nan,nan,1041.760629,1305.159513,1305.458544,nan,nan
0,222,15:46:57:926000,6,1,457,321.328125,[ 0.39163925  0.39035818 -1.        ],1,1,1,0.261214904,0,0,0,0.278271834,0.282876221,0.081062948,0.363939168,0.201813273,nan,nan,nan,[ nan  nan  nan],nan,nan,nan,1041.760629,1306.101309,1306.362524,nan,nan
0,223,15:46:58:862000,6,0,315,221.484375,[-0.06571114  0.42643481  0.43495652],0,1,0,0.223410852,0,0,0,0.261219085,0.282779085,0.080893936,0.363673021,0.201885149,nan,nan,nan,[ nan  nan  nan],nan,nan,nan,1041.760629,1307.043093,1307.266504,nan,nan
0,224,15:46:59:813000,6,1,384,270,[-0.09247501  0.47794532 -0.22247927],1,1,1,0.241599709,0,0,0,0.242075155,0.282514048,0.080810147,0.363324195,0.201703901,nan,nan,nan,[ nan  nan  nan],nan,nan,nan,1041.760629,1307.98489,1308.22649,nan,nan
0,225,15:47:00:749000,6,0,302,212.34375,[ 0.02708608  0.40030084  0.51777002],0,1,0,0.27572773,0,0,0,0.246912764,0.282332207,0.080676287,0.363008493,0.20165592,nan,nan,nan,[ nan  nan  nan],nan,nan,nan,1041.760629,1308.926689,1309.202417,nan,nan
0,226,15:47:01:685000,6,1,184,129.375,[ 1.         -0.10767189  0.36264005],1,1,1,0.245930892,0,0,0,0.254419444,0.282302983,0.080498795,0.362801778,0.201804188,nan,nan,nan,[ nan  nan  nan],nan,nan,nan,1041.760629,1309.868473,1310.114404,nan,nan
0,227,15:47:02:637000,6,1,479,336.796875,[ 0.57257215  0.33176822 -1.        ],1,1,1,0.360066621,0,0,0,0.293908414,0.282142754,0.0803574,0.362500154,0.201785354,nan,nan,nan,[ nan  nan  nan],nan,nan,nan,1041.760629,1310.810331,1311.170398,nan,nan
0,228,15:47:03:573000,6,1,338,237.65625,[-0.16289136  0.45892871  0.25039916],1,1,1,0.314301256,0,0,0,0.306766256,0.282484525,0.08034616,0.362830686,0.202138365,nan,nan,nan,[ nan  nan  nan],nan,nan,nan,1041.760629,1311.752059,1312.066361,nan,nan
0,229,15:47:04:509000,6,1,394,277.03125,[-0.04370902  0.47465593 -0.33940142],1,1,1,0.308515512,0,0,0,0.327627797,0.282623463,0.080197985,0.362821448,0.202425478,nan,nan,nan,[ nan  nan  nan],nan,nan,nan,1041.760629,1312.693852,1313.002367,nan,nan
0,230,15:47:05:461000,6,0,143,100.546875,[ 1.         -0.28705753 -0.00469999],0,0,1,0.398703724,0,0,0,0.340506831,0.282736037,0.080041582,0.362777619,0.202694455,nan,nan,nan,[ nan  nan  nan],nan,nan,nan,1041.760629,1313.635638,1314.034342,nan,nan
0,231,15:47:06:397000,6,1,10,7.03125,[ 0.9268115   0.16840058 -1.        ],1,1,1,0.240899228,0,0,0,0.316039488,0.283238062,0.080230213,0.363468274,0.203007849,nan,nan,nan,[ nan  nan  nan],nan,nan,nan,1041.760629,1314.577432,1314.818331,nan,nan
0,232,15:47:07:348000,6,1,203,142.734375,[ 1.         -0.00249325  0.49367467],1,1,1,0.259067843,0,0,0,0.299556932,0.283055567,0.080105151,0.363160717,0.202950416,nan,nan,nan,[ nan  nan  nan],nan,nan,nan,1041.760629,1315.519241,1315.778309,nan,nan
0,233,15:47:08:284000,6,1,416,292.5,[ 0.08788162  0.4581175  -0.63016532],1,1,1,0.349249498,0,0,0,0.28307219,0.282952615,0.079948446,0.362901061,0.203004169,nan,nan,nan,[ nan  nan  nan],nan,nan,nan,1041.760629,1316.461025,1316.810275,nan,nan
0,234,15:47:09:220000,6,1,174,122.34375,[ 1.         -0.16079069  0.28198128],1,1,1,0.287435779,0,0,0,0.298584373,0.283235935,0.079894567,0.363130502,0.203341368,nan,nan,nan,[ nan  nan  nan],nan,nan,nan,1041.760629,1317.402817,1317.690252,nan,nan
0,235,15:47:10:172000,6,1,465,326.953125,[ 0.45658868  0.37096153 -1.        ],1,1,1,0.313521518,0,0,0,0.316735598,0.283253807,0.079724866,0.362978673,0.203528941,nan,nan,nan,[ nan  nan  nan],nan,nan,nan,1041.760629,1318.344689,1318.65821,nan,nan
0,236,15:47:11:108000,6,1,71,49.921875,[ 1.         -0.14450407 -0.87798077],1,1,1,0.427802931,0,0,0,0.342920076,0.28338206,0.079580069,0.362962128,0.203801991,nan,nan,nan,[ nan  nan  nan],nan,nan,nan,1041.760629,1319.286402,1319.714205,nan,nan
0,237,15:47:12:044000,6,1,274,192.65625,[ 0.28934405  0.32290089  0.63267027],1,1,1,0.30200876,0,0,0,0.347777736,0.283991431,0.079961868,0.363953299,0.204029562,nan,nan,nan,[ nan  nan  nan],nan,nan,nan,1041.760629,1320.228192,1320.530201,nan,nan
0,238,15:47:12:995000,6,1,488,343.125,[ 0.64790771  0.30295149 -1.        ],1,1,1,0.336175838,0,0,0,0.355329176,0.284067134,0.079802215,0.363869348,0.204264919,nan,nan,nan,[ nan  nan  nan],nan,nan,nan,1041.760629,1321.169986,1321.506162,nan,nan
0,239,15:47:13:931000,6,1,408,286.875,[ 0.03673793  0.46563766 -0.51593845],1,1,1,0.314359986,0,0,0,0.317514861,0.284285162,0.079706092,0.363991254,0.20457907,nan,nan,nan,[ nan  nan  nan],nan,nan,nan,1041.760629,1322.111781,1322.426141,nan,nan
0,240,15:47:14:883000,6,1,342,240.46875,[-0.17005262  0.46291356  0.21407524],1,1,1,0.340559479,0,0,0,0.330365101,0.284410473,0.079563453,0.363973926,0.20484702,nan,nan,nan,[ nan  nan  nan],nan,nan,nan,1041.760629,1323.05356,1323.39412,nan,nan
0,241,15:47:15:819000,6,1,187,131.484375,[ 1.         -0.09124635  0.38538321],1,1,1,0.382729495,0,0,0,0.345882986,0.284643457,0.079480209,0.364123666,0.205163248,nan,nan,nan,[ nan  nan  nan],nan,nan,nan,1041.760629,1323.995362,1324.378092,nan,nan
0,242,15:47:16:755000,6,0,58,40.78125,[ 1.         -0.07608966 -1.        ],0,0,1,0.480918649,0,0,0,0.401402541,0.285048771,0.079565013,0.364613784,0.205483758,nan,nan,nan,[ nan  nan  nan],nan,nan,nan,1041.760629,1324.937153,1325.418072,nan,nan
0,243,15:47:17:707000,6,1,288,202.5,[ 0.15000513  0.36533195  0.58668724],1,1,1,0.28304273,0,0,0,0.382230291,0.28585482,0.080385138,0.366239958,0.205469682,nan,nan,nan,[ nan  nan  nan],nan,nan,nan,1041.760629,1325.87902,1326.162063,nan,nan
0,244,15:47:18:643000,6,0,156,109.6875,[ 1.         -0.24406061  0.12104147],0,1,0,0.253320873,0,0,0,0.339094084,0.285843295,0.080220446,0.366063741,0.205622849,nan,nan,nan,[ nan  nan  nan],nan,nan,nan,1041.760629,1326.820731,1327.074052,nan,nan
0,245,15:47:19:579000,6,1,353,248.203125,[-0.17504126  0.47149007  0.10879922],1,1,1,0.231499318,0,0,0,0.255954307,0.28571055,0.080083412,0.365793963,0.205627138,nan,nan,nan,[ nan  nan  nan],nan,nan,nan,1041.760629,1327.762531,1327.99403,nan,nan
0,246,15:47:20:530000,6,1,221,155.390625,[ 0.85178146  0.09454116  0.58542294],1,1,1,0.321632507,0,0,0,0.268817566,0.28549018,0.079994877,0.365485057,0.205495302,nan,nan,nan,[ nan  nan  nan],nan,nan,nan,1041.760629,1328.704328,1329.025961,nan,nan
0,247,15:47:21:466000,6,1,62,43.59375,[ 1.         -0.09743725 -1.        ],1,1,1,0.371829409,0,0,0,0.308320411,0.285636505,0.079865762,0.365502267,0.205770743,nan,nan,nan,[ nan  nan  nan],nan,nan,nan,1041.760629,1329.646113,1330.017943,nan,nan
0,248,15:47:22:402000,6,1,241,169.453125,[ 0.64365311  0.19260594  0.64425478],1,1,1,0.326041236,0,0,0,0.339834384,0.285984057,0.079891525,0.365875582,0.206092532,nan,nan,nan,[ nan  nan  nan],nan,nan,nan,1041.760629,1330.587905,1330.913947,nan,nan
0,249,15:47:23:354000,6,1,153,107.578125,[ 1.         -0.25554786  0.09262139],1,1,1,0.432216507,0,0,1,0.376695717,0.286144929,0.079771178,0.365916107,0.206373751,nan,nan,nan,[ nan  nan  nan],nan,nan,nan,1041.760629,1331.529702,1331.961919,nan,nan
0,250,15:47:31:528000,6,1,419,294.609375,[ 0.10789467  0.45484197 -0.67809886],1,1,1,0.362408972,1,0,0,0.373555572,0.286729215,0.080143579,0.366872794,0.206585636,nan,-171.5110561,372,[-0.13866002  0.47845887 -0.08881238],nan,-33.09831888,5.184455582,1041.760629,1332.471495,1332.833904,1334.296674,1339.489068
0,251,15:47:32:464000,6,1,342,240.46875,[-0.17005262  0.46291356  0.21407524],1,1,1,0.306113861,0,0,0,0.366913113,0.287030728,0.080125721,0.367156449,0.206905007,nan,nan,nan,[ nan  nan  nan],nan,nan,nan,1041.760629,1340.647586,1340.9537,nan,nan
0,252,15:47:33:416000,6,1,494,347.34375,[ 0.69812996  0.282144   -1.        ],1,1,1,0.26031628,0,0,0,0.309613038,0.287106455,0.079975583,0.367082038,0.207130872,nan,nan,nan,[ nan  nan  nan],nan,nan,nan,1041.760629,1341.589374,1341.849691,nan,nan
0,253,15:47:34:352000,6,1,440,309.375,[ 0.2586994  0.4246574 -1.       ],1,1,1,0.294508447,0,0,0,0.286979529,0.287000565,0.07983507,0.366835635,0.207165495,nan,nan,nan,[ nan  nan  nan],nan,nan,nan,1041.760629,1342.531168,1342.825677,nan,nan
0,254,15:47:35:303000,6,1,202,142.03125,[ 1.         -0.00802826  0.48759698],1,1,1,0.312696734,0,0,0,0.28917382,0.287030124,0.079679147,0.36670927,0.207350977,nan,nan,nan,[ nan  nan  nan],nan,nan,nan,1041.760629,1343.47296,1343.785657,nan,nan
0,255,15:47:36:239000,6,1,425,298.828125,[ 0.14916262  0.4475296  -0.79171567],1,1,1,0.242872664,0,0,0,0.283359282,0.287130777,0.079538937,0.366669714,0.207591839,nan,nan,nan,[ nan  nan  nan],nan,nan,nan,1041.760629,1344.414754,1344.657627,nan,nan
0,256,15:47:37:175000,6,1,99,69.609375,[ 1.         -0.26717627 -0.4687933 ],1,1,1,0.245060778,0,0,0,0.266876726,0.286957894,0.079431426,0.36638932,0.207526467,nan,nan,nan,[ nan  nan  nan],nan,nan,nan,1041.760629,1345.356548,1345.601608,nan,nan
0,257,15:47:38:127000,6,1,484,340.3125,[ 0.61439895  0.31611274 -1.        ],1,1,1,0.215189531,0,0,0,0.234374324,0.28679487,0.079319639,0.366114509,0.207475231,nan,nan,nan,[ nan  nan  nan],nan,nan,nan,1041.760629,1346.2984,1346.513589,nan,nan
0,258,15:47:39:063000,6,1,113,79.453125,[ 1.         -0.30219199 -0.31457635],1,1,1,0.201433065,0,0,0,0.220561125,0.28651733,0.079290702,0.365808032,0.207226628,nan,nan,nan,[ nan  nan  nan],nan,nan,nan,1041.760629,1347.240131,1347.441564,nan,nan
0,259,15:47:39:999000,6,1,208,146.25,[ 0.97651258  0.02502074  0.52257448],1,1,1,0.25162398,0,0,0,0.222748858,0.286188819,0.079313204,0.365502023,0.206875615,nan,nan,nan,[ nan  nan  nan],nan,nan,nan,1041.760629,1348.181916,1348.43354,nan,nan
0,260,15:47:40:951000,6,1,461,324.140625,[ 0.42395965  0.38092737 -1.        ],1,1,1,0.253795843,0,0,0,0.235617629,0.286055877,0.079189439,0.365245316,0.206866438,nan,nan,nan,[ nan  nan  nan],nan,nan,nan,1041.760629,1349.123717,1349.377513,nan,nan
0,261,15:47:41:887000,6,0,274,192.65625,[ 0.28934405  0.32290089  0.63267027],0,1,0,0.215941329,0,0,0,0.240453717,0.285932276,0.079062714,0.364994989,0.206869562,nan,nan,nan,[ nan  nan  nan],nan,nan,nan,1041.760629,1350.06556,1350.281501,nan,nan
0,262,15:47:42:823000,6,1,455,319.921875,[ 0.37560825  0.39487537 -1.        ],1,1,1,0.202185149,0,0,0,0.223974107,0.285665135,0.079029617,0.364694752,0.206635518,nan,nan,nan,[ nan  nan  nan],nan,nan,nan,1041.760629,1351.007305,1351.20949,nan,nan
0,263,15:47:43:774000,6,1,100,70.3125,[ 1.         -0.27042709 -0.4574399 ],1,1,1,0.324337215,0,0,0,0.247487898,0.28534772,0.079046376,0.364394096,0.206301345,nan,nan,nan,[ nan  nan  nan],nan,nan,nan,1041.760629,1351.949082,1352.27342,nan,nan
0,264,15:47:44:710000,6,1,395,277.734375,[-0.03839842  0.47418351 -0.35142722],1,1,1,0.278552178,0,0,0,0.268358181,0.285495408,0.07893287,0.364428278,0.206562537,nan,nan,nan,[ nan  nan  nan],nan,nan,nan,1041.760629,1352.890891,1353.169443,nan,nan
0,265,15:47:45:662000,6,1,259,182.109375,[ 0.44882283  0.26890698  0.65501178],1,1,1,0.296641537,0,0,0,0.299843644,0.285469207,0.07878495,0.364254157,0.206684257,nan,nan,nan,[ nan  nan  nan],nan,nan,nan,1041.760629,1353.83276,1354.129402,nan,nan
0,266,15:47:46:598000,6,1,129,90.703125,[ 1.         -0.31007049 -0.146368  ],1,1,1,0.242913148,0,0,0,0.272702288,0.285511208,0.078639691,0.364150899,0.206871517,nan,nan,nan,[ nan  nan  nan],nan,nan,nan,1041.760629,1354.774474,1355.017387,nan,nan
0,267,15:47:47:534000,6,1,382,268.59375,[-0.10118876  0.47829114 -0.19973227],1,1,1,0.269089833,0,0,0,0.269548173,0.285351665,0.078535406,0.363887071,0.206816259,nan,nan,nan,[ nan  nan  nan],nan,nan,nan,1041.760629,1355.716272,1355.985362,nan,nan
0,268,15:47:48:485000,6,1,71,49.921875,[ 1.         -0.14450407 -0.87798077],1,1,1,0.271283934,0,0,0,0.261095638,0.285290986,0.078395018,0.363686004,0.206895969,nan,nan,nan,[ nan  nan  nan],nan,nan,nan,1041.760629,1356.658057,1356.929341,nan,nan
0,269,15:47:49:421000,6,1,239,168.046875,[ 0.66506983  0.18338886  0.64054927],1,1,1,0.313472196,0,0,0,0.284615321,0.285238916,0.078253809,0.363492725,0.206985106,nan,nan,nan,[ nan  nan  nan],nan,nan,nan,1041.760629,1357.599848,1357.91332,nan,nan
0,270,15:47:50:357000,6,1,460,323.4375,[ 0.41584892  0.38333493 -1.        ],1,1,1,0.283659108,0,0,0,0.289471746,0.285343483,0.078127587,0.36347107,0.207215897,nan,nan,nan,[ nan  nan  nan],nan,nan,nan,1041.760629,1358.54164,1358.825299,nan,nan
0,271,15:47:51:309000,6,0,198,139.21875,[ 1.         -0.0302355   0.46232694],0,1,0,0.261858936,0,0,0,0.28633008,0.285337268,0.077983374,0.363320641,0.207353894,nan,nan,nan,[ nan  nan  nan],nan,nan,nan,1041.760629,1359.483432,1359.745291,nan,nan
0,272,15:47:52:245000,6,1,16,11.25,[ 0.97341943  0.14065211 -1.        ],1,1,1,0.136039676,0,0,0,0.227185907,0.285250951,0.077852859,0.363103809,0.207398092,nan,nan,nan,[ nan  nan  nan],nan,nan,nan,1041.760629,1360.425224,1360.561263,nan,nan
0,273,15:47:53:197000,6,1,376,264.375,[-0.12496282  0.47870467 -0.13262763],1,1,1,0.20216006,0,0,0,0.200019558,0.284704389,0.078231198,0.362935587,0.206473192,nan,nan,nan,[ nan  nan  nan],nan,nan,nan,1041.760629,1361.367084,1361.569244,nan,nan
0,274,15:47:54:133000,6,1,100,70.3125,[ 1.         -0.27042709 -0.4574399 ],1,1,1,0.164430134,0,1,0,0.16754329,0.284403132,0.078246791,0.362649924,0.206156341,nan,nan,nan,[ nan  nan  nan],nan,nan,nan,1041.760629,1362.308801,1362.473231,nan,nan
0,275,15:47:59:530000,6,1,184,129.375,[ 1.         -0.10767189  0.36264005],1,1,1,0.00658772,1,0,0,0.124392638,0.283966867,0.078437531,0.362404398,0.205529336,nan,0,128,[ 1.         -0.31066301 -0.15668979],nan,-39.375,2.408930413,1041.760629,1363.250605,1363.257193,1365.075811,1367.492774
0,276,15:48:00:466000,6,1,420,295.3125,[ 0.11466019  0.4536941  -0.6950475 ],1,1,1,0.374076823,0,0,0,0.181698225,0.28296187,0.080049422,0.363011292,0.202912448,nan,nan,nan,[ nan  nan  nan],nan,nan,nan,1041.760629,1368.642994,1369.01707,nan,nan
0,277,15:48:01:402000,6,1,155,108.984375,[ 1.         -0.24798314  0.11161188],1,1,1,0.216265484,0,0,0,0.198976675,0.283290805,0.080091444,0.363382249,0.203199361,nan,nan,nan,[ nan  nan  nan],nan,nan,nan,1041.760629,1369.584784,1369.80105,nan,nan
0,278,15:48:02:354000,6,1,383,269.296875,[-0.09687871  0.47813121 -0.21108141],1,1,1,0.234439231,0,0,0,0.274927179,0.283049707,0.080047902,0.363097609,0.203001804,nan,nan,nan,[ nan  nan  nan],nan,nan,nan,1041.760629,1370.526578,1370.761017,nan,nan
0,279,15:48:03:290000,6,1,129,90.703125,[ 1.         -0.31007049 -0.146368  ],1,1,1,0.228643224,0,0,0,0.226449313,0.282875476,0.079957109,0.362832584,0.202918367,nan,nan,nan,[ nan  nan  nan],nan,nan,nan,1041.760629,1371.46837,1371.697013,nan,nan
0,280,15:48:04:226000,6,1,76,53.4375,[ 1.         -0.16967451 -0.77336583],1,1,1,0.166823802,0,0,0,0.209968753,0.282681789,0.079879742,0.362561531,0.202802047,nan,nan,nan,[ nan  nan  nan],nan,nan,nan,1041.760629,1372.410163,1372.576987,nan,nan
0,281,15:48:05:178000,6,0,11,7.734375,[ 0.9346595  0.1638529 -1.       ],0,1,0,0.121019949,0,0,0,0.172162325,0.282269483,0.080035397,0.362304879,0.202234086,nan,nan,nan,[ nan  nan  nan],nan,nan,nan,1041.760629,1373.351954,1373.472974,nan,nan
0,282,15:48:06:114000,6,1,177,124.453125,[ 1.         -0.14519215  0.30692121],1,1,1,0.131196176,0,0,0,0.139679976,0.281697676,0.080466305,0.362163981,0.201231371,nan,nan,nan,[ nan  nan  nan],nan,nan,nan,1041.760629,1374.29375,1374.424946,nan,nan
0,283,15:48:07:065000,6,1,380,267.1875,[-0.10951951  0.47853303 -0.17717739],1,1,1,0.293323587,0,0,0,0.18184657,0.281165869,0.080818946,0.361984814,0.200346923,nan,nan,nan,[ nan  nan  nan],nan,nan,nan,1041.760629,1375.235586,1375.52891,nan,nan
0,284,15:48:08:001000,6,1,422,296.71875,[ 0.12832838  0.45131367 -0.73089489],1,1,1,0.271558767,0,0,0,0.232026176,0.281208677,0.080679747,0.361888425,0.20052893,nan,nan,nan,[ nan  nan  nan],nan,nan,nan,1041.760629,1376.177329,1376.448888,nan,nan
0,285,15:48:08:937000,6,1,48,33.75,[ 1.         -0.02242733 -1.        ],1,1,1,0.241741402,0,0,0,0.268874585,0.281174818,0.080540101,0.361714919,0.200634717,nan,nan,nan,[ nan  nan  nan],nan,nan,nan,1041.760629,1377.119127,1377.360868,nan,nan
0,286,15:48:09:889000,6,1,166,116.71875,[ 1.         -0.20036215  0.21267421],1,1,1,0.267928351,0,0,0,0.260409507,0.281036939,0.080432861,0.3614698,0.200604078,nan,nan,nan,[ nan  nan  nan],nan,nan,nan,1041.760629,1378.060915,1378.328843,nan,nan
0,287,15:48:10:825000,6,1,74,52.03125,[ 1.         -0.15971516 -0.81044328],1,1,1,0.222129344,0,0,0,0.243933032,0.280991265,0.080296327,0.361287591,0.200694938,nan,nan,nan,[ nan  nan  nan],nan,nan,nan,1041.760629,1379.002705,1379.224834,nan,nan
0,288,15:48:11:761000,6,1,208,146.25,[ 0.97651258  0.02502074  0.52257448],1,1,1,0.248318003,0,0,0,0.246125233,0.280786883,0.080231549,0.361018432,0.200555334,nan,nan,nan,[ nan  nan  nan],nan,nan,nan,1041.760629,1379.944499,1380.192817,nan,nan
0,289,15:48:12:712000,6,1,136,95.625,[ 1.         -0.3019149  -0.07484121],1,1,1,0.322492072,0,0,0,0.26431314,0.280674534,0.080115311,0.360789844,0.200559223,nan,nan,nan,[ nan  nan  nan],nan,nan,nan,1041.760629,1380.886292,1381.208784,nan,nan
0,290,15:48:13:648000,6,1,32,22.5,[ 1.         0.0617358 -1.       ],1,1,1,0.260680063,0,0,0,0.277163379,0.280818732,0.080014621,0.360833353,0.200804111,nan,nan,nan,[ nan  nan  nan],nan,nan,nan,1041.760629,1381.828082,1382.088762,nan,nan
0,291,15:48:14:600000,6,1,475,333.984375,[ 0.53921875  0.34365981 -1.        ],1,1,1,0.230801118,0,0,0,0.271324418,0.280749527,0.079885714,0.360635241,0.200863813,nan,nan,nan,[ nan  nan  nan],nan,nan,nan,1041.760629,1382.769935,1383.000736,nan,nan
0,292,15:48:15:536000,6,1,6,4.21875,[ 0.89512908  0.18627278 -1.        ],1,1,1,0.233049387,0,0,0,0.241510189,0.280578471,0.079802173,0.360380644,0.200776298,nan,nan,nan,[ nan  nan  nan],nan,nan,nan,1041.760629,1383.711672,1383.944721,nan,nan
0,293,15:48:16:472000,6,0,400,281.25,[-0.01078748  0.4714273  -0.41269269],0,1,0,0.147253653,0,0,0,0.203701386,0.280416256,0.079714085,0.360130341,0.200702171,nan,nan,nan,[ nan  nan  nan],nan,nan,nan,1041.760629,1384.653459,1384.800713,nan,nan
0,294,15:48:17:424000,6,1,104,73.125,[ 1.         -0.28235148 -0.41264457],1,1,1,0.09342548,0,0,0,0.157909507,0.279963322,0.079955179,0.359918501,0.200008142,nan,nan,nan,[ nan  nan  nan],nan,nan,nan,1041.760629,1385.595252,1385.688677,nan,nan
0,295,15:48:18:360000,6,1,32,22.5,[ 1.         0.0617358 -1.       ],1,1,1,0.223618402,0,0,0,0.154765845,0.27933099,0.080552554,0.359883544,0.198778436,nan,nan,nan,[ nan  nan  nan],nan,nan,nan,1041.760629,1386.537045,1386.760663,nan,nan
0,296,15:48:19:296000,6,1,270,189.84375,[ 0.33115907  0.30936972  0.64139387],1,1,1,0.305798545,0,0,0,0.207614142,0.279142772,0.080481323,0.359624095,0.198661449,nan,nan,nan,[ nan  nan  nan],nan,nan,nan,1041.760629,1387.47884,1387.784639,nan,nan
0,297,15:48:20:247000,6,1,506,355.78125,[ 0.79777474  0.23670313 -1.        ],1,1,1,0.251982631,0,0,0,0.260466526,0.279232522,0.080360555,0.359593077,0.198871967,nan,nan,nan,[ nan  nan  nan],nan,nan,nan,1041.760629,1388.42063,1388.672613,nan,nan
0,298,15:48:21:183000,6,1,2,1.40625,[ 0.86302458  0.20362286 -1.        ],1,1,1,0.238170001,0,0,0,0.265317059,0.279141079,0.080241085,0.359382164,0.198899994,nan,nan,nan,[ nan  nan  nan],nan,nan,nan,1041.760629,1389.362424,1389.600594,nan,nan
0,299,15:48:22:135000,6,1,64,45,[ 1.         -0.10803687 -1.        ],1,1,1,0.232306711,0,0,0,0.240819781,0.279004052,0.080141707,0.359145759,0.198862345,nan,nan,nan,[ nan  nan  nan],nan,nan,nan,1041.760629,1390.304256,1390.536563,nan,nan
0,300,15:48:23:071000,6,1,280,196.875,[ 0.22808935  0.34201885  0.61587222],1,1,1,0.218526297,0,0,0,0.22966767,0.278848394,0.080053287,0.358901682,0.198795107,nan,nan,nan,[ nan  nan  nan],nan,nan,nan,1041.760629,1391.246015,1391.464541,nan,nan
0,301,15:48:24:007000,6,1,384,270,[-0.09247501  0.47794532 -0.22247927],1,1,1,0.236719716,0,0,0,0.229184242,0.278647989,0.079995542,0.358643531,0.198652447,nan,nan,nan,[ nan  nan  nan],nan,nan,nan,1041.760629,1392.187805,1392.424525,nan,nan
0,302,15:48:24:958000,6,1,121,85.078125,[ 1.         -0.31073281 -0.22964081],1,1,1,0.086914737,0,1,0,0.18072025,0.278509153,0.079899305,0.358408458,0.198609849,nan,nan,nan,[ nan  nan  nan],nan,nan,nan,1041.760629,1393.129596,1393.216511,nan,nan
0,303,15:48:31:339000,6,1,434,305.15625,[ 0.21388182  0.43461034 -1.        ],1,1,1,0.657077073,1,0,0,0.326903842,0.277876829,0.08052068,0.358397509,0.197356148,nan,-157.1803443,352,[-0.17544713  0.4708516   0.11867359],nan,-57.9759057,3.400751571,1041.760629,1394.071386,1394.728463,1395.896573,1399.305354
0,304,15:48:32:275000,6,1,74,52.03125,[ 1.         -0.15971516 -0.81044328],1,1,1,0.280770228,0,0,0,0.341587346,0.279124198,0.083268837,0.362393035,0.195855361,nan,nan,nan,[ nan  nan  nan],nan,nan,nan,1041.760629,1400.455572,1400.736343,nan,nan
0,305,15:48:33:226000,6,1,134,94.21875,[ 1.         -0.304951   -0.09514411],1,1,1,0.274964527,0,0,0,0.404270609,0.279129595,0.083132272,0.362261866,0.195997323,nan,nan,nan,[ nan  nan  nan],nan,nan,nan,1041.760629,1401.397353,1401.672317,nan,nan
0,306,15:48:34:162000,6,1,55,38.671875,[ 1.         -0.05999965 -1.        ],1,1,1,0.229132734,0,0,0,0.261622496,0.279115983,0.082996664,0.362112647,0.196119319,nan,nan,nan,[ nan  nan  nan],nan,nan,nan,1041.760629,1402.339155,1402.568288,nan,nan
0,307,15:48:35:098000,6,1,357,251.015625,[-0.17179183  0.47376752  0.06873903],1,1,1,0.223310783,0,0,0,0.242469348,0.278953171,0.082910311,0.361863482,0.196042861,nan,nan,nan,[ nan  nan  nan],nan,nan,nan,1041.760629,1403.280954,1403.504264,nan,nan
0,308,15:48:36:050000,6,1,37,26.015625,[ 1.          0.03585655 -1.        ],1,1,1,0.209513264,0,0,0,0.22065226,0.278772514,0.082836107,0.361608621,0.195936407,nan,nan,nan,[ nan  nan  nan],nan,nan,nan,1041.760629,1404.222734,1404.432247,nan,nan
0,309,15:48:36:986000,6,0,115,80.859375,[ 1.         -0.30516629 -0.29317275],0,1,0,0.243692886,0,0,0,0.225505644,0.278548374,0.082795457,0.361343831,0.195752918,nan,nan,nan,[ nan  nan  nan],nan,nan,nan,1041.760629,1405.164531,1405.408224,nan,nan
0,310,15:48:37:938000,6,1,411,288.984375,[ 0.05552017  0.46302271 -0.55705476],1,1,1,0.189878398,0,0,0,0.214361516,0.278435937,0.082685433,0.36112137,0.195750504,nan,nan,nan,[ nan  nan  nan],nan,nan,nan,1041.760629,1406.106329,1406.296208,nan,nan
0,311,15:48:38:874000,6,1,1,0.703125,[ 0.85493913  0.20787707 -1.        ],1,1,1,0.280087707,0,0,0,0.23788633,0.278151186,0.082704492,0.360855679,0.195446694,nan,nan,nan,[ nan  nan  nan],nan,nan,nan,1041.760629,1407.048101,1407.328189,nan,nan
0,312,15:48:39:810000,6,0,179,125.859375,[ 1.         -0.13461442  0.32320413],0,1,0,0.250221591,0,0,0,0.240062565,0.278157393,0.082571919,0.360729313,0.195585474,nan,nan,nan,[ nan  nan  nan],nan,nan,nan,1041.760629,1407.98994,1408.240162,nan,nan
0,313,15:48:40:761000,6,1,72,50.625,[ 1.         -0.14960778 -0.85320374],1,1,1,0.188439517,0,0,0,0.239582938,0.278068141,0.082454982,0.360523124,0.195613159,nan,nan,nan,[ nan  nan  nan],nan,nan,nan,1041.760629,1408.931694,1409.120133,nan,nan
0,314,15:48:41:697000,6,1,434,305.15625,[ 0.21388182  0.43461034 -1.        ],1,1,1,0.254627754,0,0,0,0.231096287,0.2777827,0.082478325,0.360261025,0.195304375,nan,nan,nan,[ nan  nan  nan],nan,nan,nan,1041.760629,1409.873495,1410.128123,nan,nan
0,315,15:48:42:633000,6,0,275,193.359375,[ 0.27900239  0.32618525  0.63017847],0,0,1,0.424782336,0,0,0,0.289283202,0.277709192,0.082357604,0.360066796,0.195351588,nan,nan,nan,[ nan  nan  nan],nan,nan,nan,1041.760629,1410.815296,1411.240078,nan,nan
0,316,15:48:43:585000,6,1,346,243.28125,[-0.17431756  0.46643129  0.17667017],1,1,1,0.322941384,0,0,0,0.334117158,0.278174614,0.08264106,0.360815673,0.195533554,nan,nan,nan,[ nan  nan  nan],nan,nan,nan,1041.760629,1411.757137,1412.080078,nan,nan
0,317,15:48:44:521000,6,1,200,140.625,[ 1.         -0.01912099  0.47515178],1,1,1,0.317188711,0,0,0,0.35497081,0.278315834,0.082548789,0.360864622,0.195767045,nan,nan,nan,[ nan  nan  nan],nan,nan,nan,1041.760629,1412.698879,1413.016067,nan,nan
0,318,15:48:45:472000,6,1,458,322.03125,[ 0.39968805  0.38805021 -1.        ],1,1,1,0.311370181,0,0,0,0.317166759,0.278438075,0.082447625,0.3608857,0.195990451,nan,nan,nan,[ nan  nan  nan],nan,nan,nan,1041.760629,1413.640668,1413.952038,nan,nan
0,319,15:48:46:408000,6,1,272,191.25,[ 0.3101667   0.31621412  0.63728143],1,1,1,0.297541301,0,0,0,0.308700065,0.278541311,0.082338878,0.360880189,0.196202433,nan,nan,nan,[ nan  nan  nan],nan,nan,nan,1041.760629,1414.582455,1414.879997,nan,nan
0,320,15:48:47:344000,6,1,128,90,[ 1.         -0.31066301 -0.15668979],1,1,1,0.299739394,0,0,0,0.302883625,0.278600686,0.082216962,0.360817648,0.196383724,nan,nan,nan,[ nan  nan  nan],nan,nan,nan,1041.760629,1415.524254,1415.823994,nan,nan
0,321,15:48:48:296000,6,1,354,248.90625,[-0.17447067  0.47210079  0.09886772],1,1,1,0.301926937,0,0,0,0.299735877,0.278666538,0.08209725,0.360763789,0.196569288,nan,nan,nan,[ nan  nan  nan],nan,nan,nan,1041.760629,1416.466042,1416.767969,nan,nan
0,322,15:48:49:232000,6,1,281,197.578125,[ 0.2180834   0.34506839  0.61264442],1,1,1,0.368109758,0,0,0,0.323258696,0.278738776,0.081979888,0.360718664,0.196758888,nan,nan,nan,[ nan  nan  nan],nan,nan,nan,1041.760629,1417.407834,1417.775943,nan,nan
0,323,15:48:50:168000,6,0,232,163.125,[ 0.73915824  0.15004662  0.62371202],0,1,0,0.282304616,0,0,0,0.317447103,0.279015466,0.082003332,0.361018798,0.197012134,nan,nan,nan,[ nan  nan  nan],nan,nan,nan,1041.760629,1418.349626,1418.631931,nan,nan
0,324,15:48:51:120000,6,1,186,130.78125,[ 1.         -0.09673867  0.37788139],1,1,1,0.196479232,0,0,0,0.282297868,0.279025618,0.081876889,0.360902507,0.197148729,nan,nan,nan,[ nan  nan  nan],nan,nan,nan,1041.760629,1419.291427,1419.487906,nan,nan
0,325,15:48:52:056000,6,1,91,63.984375,[ 1.         -0.2377099  -0.56272232],1,1,1,0.398679776,0,0,0,0.292487875,0.278771629,0.081878563,0.360650192,0.196893065,nan,nan,nan,[ nan  nan  nan],nan,nan,nan,1041.760629,1420.233215,1420.631895,nan,nan
0,326,15:48:52:992000,6,1,307,215.859375,[-0.01138687  0.41105336  0.48795701],1,1,1,0.320844501,0,0,0,0.305334503,0.279139445,0.082021359,0.361160804,0.197118086,nan,nan,nan,[ nan  nan  nan],nan,nan,nan,1041.760629,1421.175008,1421.495852,nan,nan
0,327,15:48:53:943000,6,1,460,323.4375,[ 0.41584892  0.38333493 -1.        ],1,1,1,0.259037053,0,0,0,0.32618711,0.279266984,0.081928216,0.3611952,0.197338767,nan,nan,nan,[ nan  nan  nan],nan,nan,nan,1041.760629,1422.116796,1422.375833,nan,nan
0,328,15:48:54:879000,6,0,182,127.96875,[ 1.         -0.11852384  0.34708947],0,0,1,0.461247576,0,0,0,0.347043043,0.279205307,0.081810833,0.36101614,0.197394474,nan,nan,nan,[ nan  nan  nan],nan,nan,nan,1041.760629,1423.058557,1423.519804,nan,nan
0,329,15:48:55:831000,6,1,352,247.5,[-0.17544713  0.4708516   0.11867359],1,1,1,0.247415388,0,0,0,0.322566672,0.279758627,0.082298787,0.362057414,0.19745984,nan,nan,nan,[ nan  nan  nan],nan,nan,nan,1041.760629,1424.000377,1424.247792,nan,nan
0,330,15:48:56:767000,6,1,453,318.515625,[ 0.35967042  0.39926175 -1.        ],1,1,1,0.241594863,0,0,0,0.316752609,0.279660617,0.082193225,0.361853842,0.197467392,nan,nan,nan,[ nan  nan  nan],nan,nan,nan,1041.760629,1424.942175,1425.18377,nan,nan
0,331,15:48:57:703000,6,1,37,26.015625,[ 1.          0.03585655 -1.        ],1,1,1,0.315782331,0,0,0,0.268264194,0.279545615,0.082095558,0.361641173,0.197450057,nan,nan,nan,[ nan  nan  nan],nan,nan,nan,1041.760629,1425.883968,1426.199751,nan,nan
0,332,15:48:58:654000,6,1,295,207.421875,[ 0.08602229  0.38372732  0.55498608],1,1,1,0.245975082,0,0,0,0.267784092,0.279654762,0.081995875,0.361650637,0.197658886,nan,nan,nan,[ nan  nan  nan],nan,nan,nan,1041.760629,1426.825763,1427.071738,nan,nan
0,333,15:48:59:590000,6,1,187,131.484375,[ 1.         -0.09124635  0.38538321],1,1,1,0.216161994,0,0,0,0.259306469,0.279553622,0.081893404,0.361447025,0.197660218,nan,nan,nan,[ nan  nan  nan],nan,nan,nan,1041.760629,1427.767552,1427.983714,nan,nan
0,334,15:49:00:526000,6,0,436,306.5625,[ 0.22868171  0.43141373 -1.        ],0,1,0,0.258334006,0,0,0,0.240157027,0.279363826,0.081844032,0.361207858,0.197519795,nan,nan,nan,[ nan  nan  nan],nan,nan,nan,1041.760629,1428.709348,1428.967682,nan,nan
0,335,15:49:01:478000,6,1,17,11.953125,[ 0.98106915  0.13592191 -1.        ],1,1,1,0.188530463,0,0,0,0.221008821,0.279301051,0.081729838,0.361030888,0.197571213,nan,nan,nan,[ nan  nan  nan],nan,nan,nan,1041.760629,1429.651136,1429.839667,nan,nan
0,336,15:49:02:414000,6,1,137,96.328125,[ 1.         -0.30019022 -0.06473166],1,1,1,0.334683359,0,0,0,0.260515943,0.2790309,0.081757782,0.360788682,0.197273118,nan,nan,nan,[ nan  nan  nan],nan,nan,nan,1041.760629,1430.592936,1430.927619,nan,nan
0,337,15:49:03:366000,6,1,89,62.578125,[ 1.         -0.2294841  -0.58737049],1,1,1,0.296918081,0,0,0,0.273377301,0.279196041,0.081692492,0.360888533,0.197503549,nan,nan,nan,[ nan  nan  nan],nan,nan,nan,1041.760629,1431.534719,1431.831637,nan,nan
0,338,15:49:04:302000,6,1,258,181.40625,[ 0.45964229  0.26499291  0.65549006],1,1,1,0.283074091,0,0,0,0.304891844,0.279248473,0.081577234,0.360825707,0.197671239,nan,nan,nan,[ nan  nan  nan],nan,nan,nan,1041.760629,1432.476514,1432.759588,nan,nan
0,339,15:49:05:238000,6,1,358,251.71875,[-0.17058391  0.47426832  0.05858744],1,1,1,0.30125354,0,0,0,0.29374857,0.279259758,0.081457089,0.360716847,0.197802669,nan,nan,nan,[ nan  nan  nan],nan,nan,nan,1041.760629,1433.418308,1433.719561,nan,nan
0,340,15:49:06:189000,6,1,284,199.6875,[ 0.18846515  0.3539841   0.60223628],1,1,1,0.311455425,0,0,0,0.298594352,0.279324446,0.081345931,0.360670376,0.197978515,nan,nan,nan,[ nan  nan  nan],nan,nan,nan,1041.760629,1434.360095,1434.67155,nan,nan
0,341,15:49:07:125000,6,1,131,92.109375,[ 1.         -0.30845167 -0.1258005 ],1,1,1,0.273637689,0,0,0,0.295448885,0.279418671,0.081245147,0.360663819,0.198173524,nan,nan,nan,[ nan  nan  nan],nan,nan,nan,1041.760629,1435.301888,1435.575526,nan,nan
0,342,15:49:08:061000,6,1,510,358.59375,[ 0.83055446  0.2204367  -1.        ],1,1,1,0.323818055,0,0,0,0.30297039,0.279401768,0.081126882,0.360528649,0.198274886,nan,nan,nan,[ nan  nan  nan],nan,nan,nan,1041.760629,1436.243683,1436.567501,nan,nan
0,343,15:49:09:013000,6,1,293,206.015625,[ 0.10383026  0.3786596   0.56461706],1,1,1,0.326003033,0,0,0,0.307819592,0.279531261,0.081043923,0.360575185,0.198487338,nan,nan,nan,[ nan  nan  nan],nan,nan,nan,1041.760629,1437.185478,1437.511481,nan,nan
0,344,15:49:09:949000,6,1,222,156.09375,[ 0.84177847  0.09972916  0.58948469],1,1,1,0.352213644,0,0,0,0.334011577,0.279666354,0.080964708,0.360631061,0.198701646,nan,nan,nan,[ nan  nan  nan],nan,nan,nan,1041.760629,1438.127246,1438.47946,nan,nan
0,345,15:49:10:900000,6,1,352,247.5,[-0.17544713  0.4708516   0.11867359],1,1,1,0.354370398,0,0,0,0.344195692,0.279876636,0.080941301,0.360817937,0.198935335,nan,nan,nan,[ nan  nan  nan],nan,nan,nan,1041.760629,1439.069059,1439.423429,nan,nan
0,346,15:49:11:836000,6,1,284,199.6875,[ 0.18846515  0.3539841   0.60223628],1,1,1,0.372565812,0,0,0,0.359716618,0.280091936,0.08092312,0.361015056,0.199168815,nan,nan,nan,[ nan  nan  nan],nan,nan,nan,1041.760629,1440.01085,1440.383416,nan,nan
0,347,15:49:12:772000,6,1,443,311.484375,[ 0.28155878  0.41926821 -1.        ],1,1,1,0.342752724,0,0,0,0.356562978,0.280358431,0.080958337,0.361316768,0.199400094,nan,nan,nan,[ nan  nan  nan],nan,nan,nan,1041.760629,1440.952644,1441.295397,nan,nan
0,348,15:49:13:724000,6,1,364,255.9375,[-0.16019432  0.47670452 -0.00341125],1,1,1,0.264927997,0,0,0,0.326748845,0.280537725,0.080910896,0.361448621,0.199626829,nan,nan,nan,[ nan  nan  nan],nan,nan,nan,1041.760629,1441.894435,1442.159363,nan,nan
0,349,15:49:14:660000,6,1,302,212.34375,[ 0.02708608  0.40030084  0.51777002],1,1,1,0.259135411,0,0,0,0.288938711,0.280492998,0.080799203,0.361292201,0.199693795,nan,nan,nan,[ nan  nan  nan],nan,nan,nan,1041.760629,1442.836226,1443.095361,nan,nan
0,350,15:49:15:596000,6,1,418,293.90625,[ 0.10117589  0.45596175 -0.66167931],1,1,1,0.261300718,0,0,0,0.261788042,0.280431976,0.080691746,0.361123722,0.199740231,nan,nan,nan,[ nan  nan  nan],nan,nan,nan,1041.760629,1443.778024,1444.039325,nan,nan
0,351,15:49:16:548000,6,1,122,85.78125,[ 1.         -0.31115954 -0.21914422],1,1,1,0.311487071,0,0,0,0.277307733,0.280377471,0.08058317,0.360960641,0.199794301,nan,nan,nan,[ nan  nan  nan],nan,nan,nan,1041.760629,1444.719815,1445.031302,nan,nan
0,352,15:49:17:484000,6,1,471,331.171875,[ 0.50601401  0.35499378 -1.        ],1,1,1,0.305678519,0,0,0,0.292822102,0.280465851,0.080485658,0.360951508,0.199980193,nan,nan,nan,[ nan  nan  nan],nan,nan,nan,1041.760629,1445.661609,1445.967288,nan,nan
0,353,15:49:18:435000,6,1,167,117.421875,[ 1.         -0.19560581  0.22154672],1,1,1,0.275863721,0,0,0,0.297676437,0.280537275,0.080382745,0.360920019,0.20015453,nan,nan,nan,[ nan  nan  nan],nan,nan,nan,1041.760629,1446.603398,1446.879262,nan,nan
0,354,15:49:19:371000,6,1,428,300.9375,[ 0.17037832  0.44348657 -0.8686614 ],1,1,1,0.270057735,0,0,0,0.283866658,0.280524073,0.080269513,0.360793585,0.20025456,nan,nan,nan,[ nan  nan  nan],nan,nan,nan,1041.760629,1447.545192,1447.81525,nan,nan
0,355,15:49:20:307000,6,0,322,226.40625,[-0.10506723  0.43811622  0.38355935],0,0,1,0.464225406,0,0,0,0.336715621,0.28049459,0.080158297,0.360652887,0.200336293,nan,nan,nan,[ nan  nan  nan],nan,nan,nan,1041.760629,1448.486988,1448.951213,nan,nan
0,356,15:49:21:259000,6,1,424,298.125,[ 0.14217456  0.44881957 -0.77022942],1,1,1,0.258437211,0,0,0,0.330906784,0.281010688,0.080634115,0.361644803,0.200376573,nan,nan,nan,[ nan  nan  nan],nan,nan,nan,1041.760629,1449.428774,1449.687211,nan,nan
0,357,15:49:22:195000,6,1,32,22.5,[ 1.         0.0617358 -1.       ],1,1,1,0.284621593,0,0,0,0.335761403,0.280947457,0.080529941,0.361477397,0.200417516,nan,nan,nan,[ nan  nan  nan],nan,nan,nan,1041.760629,1450.370571,1450.655193,nan,nan
0,358,15:49:23:131000,6,1,502,352.96875,[ 0.76474094  0.25241358 -1.        ],1,1,1,0.302774814,0,0,0,0.281944539,0.28095772,0.080417624,0.361375344,0.200540096,nan,nan,nan,[ nan  nan  nan],nan,nan,nan,1041.760629,1451.312386,1451.615161,nan,nan
0,359,15:49:24:082000,6,0,353,248.203125,[-0.17504126  0.47149007  0.10879922],0,0,1,0.560974824,0,0,0,0.38279041,0.281018492,0.080313775,0.361332267,0.200704716,nan,nan,nan,[ nan  nan  nan],nan,nan,nan,1041.760629,1452.254149,1452.815123,nan,nan
0,360,15:49:25:018000,6,1,113,79.453125,[ 1.         -0.30219199 -0.31457635],1,1,1,0.259168768,0,0,0,0.374306135,0.281796148,0.081544406,0.363340554,0.200251742,nan,nan,nan,[ nan  nan  nan],nan,nan,nan,1041.760629,1453.195949,1453.455118,nan,nan
0,361,15:49:25:970000,6,1,370,260.15625,[-0.144806    0.47817873 -0.06718033],1,1,1,0.373336713,0,0,0,0.397826768,0.281733468,0.081440069,0.363173537,0.2002934,nan,nan,nan,[ nan  nan  nan],nan,nan,nan,1041.760629,1454.13774,1454.511076,nan,nan
0,362,15:49:26:906000,6,1,196,137.8125,[ 1.         -0.04136108  0.44913076],1,1,1,0.207537261,0,0,0,0.280014247,0.281986516,0.081469497,0.363456013,0.200517019,nan,nan,nan,[ nan  nan  nan],nan,nan,nan,1041.760629,1455.079531,1455.287068,nan,nan
0,363,15:49:27:842000,6,1,469,329.765625,[ 0.4894822   0.36045336 -1.        ],1,1,1,0.305710165,0,0,0,0.295528046,0.281781422,0.081450731,0.363232152,0.200330691,nan,nan,nan,[ nan  nan  nan],nan,nan,nan,1041.760629,1456.021323,1456.327033,nan,nan
0,364,15:49:28:794000,6,1,138,97.03125,[ 1.         -0.29832988 -0.05465081],1,1,1,0.299926132,0,0,0,0.271057853,0.28184716,0.081348413,0.363195573,0.200498747,nan,nan,nan,[ nan  nan  nan],nan,nan,nan,1041.760629,1456.963117,1457.263043,nan,nan
0,365,15:49:29:730000,6,1,431,303.046875,[ 0.19195726  0.43918129 -0.98229877],1,1,1,0.270099929,0,0,0,0.291912075,0.281896691,0.081242397,0.363139088,0.200654294,nan,nan,nan,[ nan  nan  nan],nan,nan,nan,1041.760629,1457.90491,1458.175009,nan,nan
0,366,15:49:30:666000,6,1,267,187.734375,[ 0.36292453  0.29880723  0.64662252],1,1,1,0.328279242,0,0,0,0.299435101,0.28186446,0.081133671,0.362998131,0.200730789,nan,nan,nan,[ nan  nan  nan],nan,nan,nan,1041.760629,1458.846701,1459.174981,nan,nan
0,367,15:49:31:617000,6,1,14,9.84375,[ 0.95801505  0.15002356 -1.        ],1,1,1,0.242470679,0,0,0,0.280283283,0.281990931,0.081059177,0.363050108,0.200931753,nan,nan,nan,[ nan  nan  nan],nan,nan,nan,1041.760629,1459.78849,1460.03096,nan,nan
0,368,15:49:32:553000,6,0,113,79.453125,[ 1.         -0.30219199 -0.31457635],0,1,0,0.196660553,0,0,0,0.255803491,0.281883539,0.080975107,0.362858646,0.200908431,nan,nan,nan,[ nan  nan  nan],nan,nan,nan,1041.760629,1460.730286,1460.926946,nan,nan
0,369,15:49:33:505000,6,1,40,28.125,[ 1.          0.02011655 -1.        ],1,1,1,0.134851395,0,0,0,0.191327542,0.281652582,0.080986591,0.362639173,0.200665991,nan,nan,nan,[ nan  nan  nan],nan,nan,nan,1041.760629,1461.672075,1461.806927,nan,nan
0,370,15:49:34:441000,6,1,334,234.84375,[-0.15279655  0.45446705  0.2855764 ],1,1,1,0.089057805,0,0,0,0.140189918,0.281255822,0.081235391,0.362491213,0.200020431,nan,nan,nan,[ nan  nan  nan],nan,nan,nan,1041.760629,1462.613869,1462.702927,nan,nan
0,371,15:49:35:377000,6,1,201,141.328125,[ 1.         -0.01357126  0.48142235],1,1,1,0.171221412,0,1,0,0.131710204,0.280737768,0.08173556,0.362473328,0.199002208,nan,nan,nan,[ nan  nan  nan],nan,nan,nan,1041.760629,1463.55566,1463.726882,nan,nan
0,372,15:49:39:823000,6,1,411,288.984375,[ 0.05552017  0.46302271 -0.55705476],1,1,1,0.237406228,1,0,0,0.165895149,0.280443369,0.081822355,0.362265724,0.198621015,nan,-163.8196261,361,[-0.16604781  0.47560771  0.02781731],nan,-35.16474886,1.442149546,1041.760629,1464.497462,1464.734868,1466.330971,1467.781166
0,373,15:49:40:759000,6,1,26,18.28125,[ 1.          0.09209217 -1.        ],1,1,1,0.227045544,0,0,0,0.211891062,0.280327988,0.081742897,0.362070886,0.198585091,nan,nan,nan,[ nan  nan  nan],nan,nan,nan,1041.760629,1468.939706,1469.166752,nan,nan
0,374,15:49:41:710000,6,1,72,50.625,[ 1.         -0.14960778 -0.85320374],1,1,1,0.189214409,0,0,0,0.217888727,0.280185522,0.081679899,0.361865421,0.198505623,nan,nan,nan,[ nan  nan  nan],nan,nan,nan,1041.760629,1469.881507,1470.070721,nan,nan
0,375,15:49:42:646000,6,1,320,225,[-0.09465004  0.43494402  0.39870124],1,1,1,0.263413566,0,0,0,0.22655784,0.279942932,0.08170572,0.361648652,0.198237212,nan,nan,nan,[ nan  nan  nan],nan,nan,nan,1041.760629,1470.823284,1471.086698,nan,nan
0,376,15:49:43:598000,6,1,66,46.40625,[ 1.         -0.11856871 -1.        ],1,1,1,0.20954662,0,0,0,0.220724865,0.279898971,0.081601437,0.361500408,0.198297534,nan,nan,nan,[ nan  nan  nan],nan,nan,nan,1041.760629,1471.765131,1471.974678,nan,nan
0,377,15:49:44:534000,6,1,507,356.484375,[ 0.80599565  0.23268835 -1.        ],1,1,1,0.195786163,0,0,0,0.22291545,0.27971236,0.081573438,0.361285798,0.198138922,nan,nan,nan,[ nan  nan  nan],nan,nan,nan,1041.760629,1472.706882,1472.902668,nan,nan
0,378,15:49:45:470000,6,1,385,270.703125,[-0.08797966  0.47773344 -0.23392672],1,1,1,0.213976731,0,0,0,0.206436505,0.279490333,0.081579449,0.361069782,0.197910884,nan,nan,nan,[ nan  nan  nan],nan,nan,nan,1041.760629,1473.648672,1473.862649,nan,nan
0,379,15:49:46:422000,6,1,195,137.109375,[ 1.         -0.04692453  0.44239605],1,1,1,0.224141554,0,0,0,0.211301483,0.279317474,0.081541041,0.360858515,0.197776433,nan,nan,nan,[ nan  nan  nan],nan,nan,nan,1041.760629,1474.590468,1474.814609,nan,nan
0,380,15:49:47:358000,6,1,288,202.5,[ 0.15000513  0.36533195  0.58668724],1,1,1,0.170338469,0,0,0,0.202818918,0.279172274,0.081482726,0.360655,0.197689548,nan,nan,nan,[ nan  nan  nan],nan,nan,nan,1041.760629,1475.532261,1475.7026,nan,nan
0,381,15:49:48:294000,6,1,419,294.609375,[ 0.10789467  0.45484197 -0.67809886],1,1,1,0.212533859,0,0,0,0.202337961,0.278886621,0.081566018,0.36045264,0.197320603,nan,nan,nan,[ nan  nan  nan],nan,nan,nan,1041.760629,1476.47405,1476.686583,nan,nan
0,382,15:49:49:245000,6,1,353,248.203125,[-0.17504126  0.47149007  0.10879922],1,1,1,0.262703676,0,0,0,0.215192001,0.278712923,0.081529714,0.360242637,0.197183209,nan,nan,nan,[ nan  nan  nan],nan,nan,nan,1041.760629,1477.415841,1477.678545,nan,nan
0,383,15:49:50:181000,6,1,101,71.015625,[ 1.         -0.27357267 -0.44615261],1,1,1,0.216904385,0,0,0,0.230713973,0.278671123,0.081427307,0.36009843,0.197243816,nan,nan,nan,[ nan  nan  nan],nan,nan,nan,1041.760629,1478.357632,1478.574537,nan,nan
0,384,15:49:51:117000,6,1,236,165.9375,[ 0.69700456  0.16930175  0.63406585],1,1,1,0.243034884,0,0,0,0.240880982,0.278510272,0.081382118,0.35989239,0.197128155,nan,nan,nan,[ nan  nan  nan],nan,nan,nan,1041.760629,1479.299469,1479.542503,nan,nan
0,385,15:49:52:069000,6,1,404,284.0625,[ 0.01248946  0.46874627 -0.4633491 ],1,1,1,0.221264932,0,0,0,0.227068067,0.278418128,0.081296412,0.359714541,0.197121716,nan,nan,nan,[ nan  nan  nan],nan,nan,nan,1041.760629,1480.241222,1480.462487,nan,nan
0,386,15:49:53:005000,6,1,168,118.125,[ 1.         -0.19079002  0.2303618 ],1,1,1,0.255453678,0,0,0,0.239917831,0.278270063,0.081243,0.359513064,0.197027063,nan,nan,nan,[ nan  nan  nan],nan,nan,nan,1041.760629,1481.183013,1481.438467,nan,nan
0,387,15:49:53:956000,6,1,316,222.1875,[-0.07182156  0.42820351  0.42789226],1,1,1,0.241627649,0,0,0,0.239448753,0.278211106,0.081146235,0.359357341,0.197064871,nan,nan,nan,[ nan  nan  nan],nan,nan,nan,1041.760629,1482.124805,1482.366433,nan,nan
0,388,15:49:54:892000,6,1,160,112.5,[ 1.         -0.22750142  0.15829752],1,1,1,0.243811201,0,0,0,0.246964176,0.278116819,0.081062822,0.35917964,0.197053997,nan,nan,nan,[ nan  nan  nan],nan,nan,nan,1041.760629,1483.066601,1483.310412,nan,nan
0,389,15:49:55:828000,6,1,479,336.796875,[ 0.57257215  0.33176822 -1.        ],1,1,1,0.254019644,0,0,0,0.246486165,0.27802863,0.080977195,0.359005825,0.197051434,nan,nan,nan,[ nan  nan  nan],nan,nan,nan,1041.760629,1484.008384,1484.262404,nan,nan
0,390,15:49:56:780000,6,1,237,166.640625,[ 0.6863873   0.17403185  0.63634982],1,1,1,0.216199627,0,0,0,0.238010157,0.277967068,0.080882426,0.358849494,0.197084642,nan,nan,nan,[ nan  nan  nan],nan,nan,nan,1041.760629,1484.950181,1485.16638,nan,nan
0,391,15:49:57:716000,6,1,192,135,[ 1.         -0.06359976  0.42165841],1,1,1,0.202379585,0,0,0,0.224199618,0.277809095,0.080839149,0.358648244,0.196969946,nan,nan,nan,[ nan  nan  nan],nan,nan,nan,1041.760629,1485.891974,1486.094354,nan,nan
0,392,15:49:58:668000,6,1,487,342.421875,[ 0.63952974  0.30629503 -1.        ],1,1,1,0.188594894,0,0,0,0.202391369,0.277616673,0.080825581,0.358442254,0.196791092,nan,nan,nan,[ nan  nan  nan],nan,nan,nan,1041.760629,1486.833739,1487.022334,nan,nan
0,393,15:49:59:604000,6,0,412,289.6875,[ 0.06188912  0.46209661 -0.57115894],0,1,0,0.198763994,0,0,0,0.196579491,0.277390154,0.080847173,0.358237328,0.196542981,nan,nan,nan,[ nan  nan  nan],nan,nan,nan,1041.760629,1487.775557,1487.974321,nan,nan
0,394,15:50:00:540000,6,1,291,204.609375,[ 0.12202764  0.37344194  0.57379193],1,1,1,0.176933316,0,0,0,0.188097401,0.277190596,0.080841367,0.358031963,0.196349228,nan,nan,nan,[ nan  nan  nan],nan,nan,nan,1041.760629,1488.717357,1488.89429,nan,nan
0,395,15:50:01:491000,6,1,127,89.296875,[ 1.         -0.31111021 -0.16703665],1,1,1,0.251127342,0,0,0,0.208941551,0.27693678,0.080896007,0.357832787,0.196040772,nan,nan,nan,[ nan  nan  nan],nan,nan,nan,1041.760629,1489.659145,1489.910273,nan,nan
0,396,15:50:02:427000,6,1,437,307.265625,[ 0.23613483  0.42977024 -1.        ],1,1,1,0.293316459,0,0,0,0.240459039,0.276871604,0.080804184,0.357675789,0.19606742,nan,nan,nan,[ nan  nan  nan],nan,nan,nan,1041.760629,1490.600938,1490.894254,nan,nan
0,397,15:50:03:363000,6,1,249,175.078125,[ 0.55727555  0.22802627  0.65408488],1,1,1,0.263503086,0,0,0,0.269315629,0.276913027,0.080706561,0.357619588,0.196206466,nan,nan,nan,[ nan  nan  nan],nan,nan,nan,1041.760629,1491.542729,1491.806232,nan,nan
0,398,15:50:04:315000,6,1,375,263.671875,[-0.1285567   0.47868243 -0.12160516],1,1,1,0.25768142,0,0,0,0.271500322,0.276879334,0.080607903,0.357487237,0.196271431,nan,nan,nan,[ nan  nan  nan],nan,nan,nan,1041.760629,1492.484524,1492.742205,nan,nan
0,399,15:50:05:251000,6,1,492,345.9375,[ 0.68140332  0.28922202 -1.        ],1,1,1,0.211866448,0,0,0,0.244350318,0.276831219,0.080512549,0.357343768,0.196318669,nan,nan,nan,[ nan  nan  nan],nan,nan,nan,1041.760629,1493.426316,1493.638182,nan,nan
0,400,15:50:06:187000,6,1,36,25.3125,[ 1.          0.04106996 -1.        ],1,1,1,0.246017561,0,0,0,0.23852181,0.276668807,0.080477262,0.357146068,0.196191545,nan,nan,nan,[ nan  nan  nan],nan,nan,nan,1041.760629,1494.368151,1494.614168,nan,nan
0,401,15:50:07:139000,6,1,214,150.46875,[ 0.92024366  0.05754104  0.55385485],1,1,1,0.240252344,0,0,0,0.232712118,0.27659237,0.08039139,0.35698376,0.19620098,nan,nan,nan,[ nan  nan  nan],nan,nan,nan,1041.760629,1495.309901,1495.550153,nan,nan
0,402,15:50:08:075000,6,1,120,84.375,[ 1.         -0.3101615  -0.24016291],1,1,1,0.1944311,0,0,0,0.226900335,0.276501972,0.080311742,0.356813714,0.19619023,nan,nan,nan,[ nan  nan  nan],nan,nan,nan,1041.760629,1496.251694,1496.446125,nan,nan
0,403,15:50:09:026000,6,1,165,116.015625,[ 1.         -0.20505638  0.20374544],1,1,1,0.076607366,0,1,0,0.17043027,0.276298322,0.080315897,0.356614219,0.195982425,nan,nan,nan,[ nan  nan  nan],nan,nan,nan,1041.760629,1497.193484,1497.270091,nan,nan
0,404,15:50:15:001000,6,1,218,153.28125,[ 0.88146739  0.07882461  0.57255963],1,1,1,0.278789379,1,0,0,0.183275948,0.275804037,0.080827818,0.356631855,0.194976219,nan,-78.58155292,240,[ 0.65437302  0.18801506  0.64246395],nan,15.30030292,2.984004958,1041.760629,1498.135268,1498.414058,1499.960483,1502.952525
0,405,15:50:15:937000,6,1,328,230.625,[-0.13215956  0.44685797  0.33604616],1,1,1,0.35085231,0,0,0,0.235416351,0.275811409,0.080728105,0.356539513,0.195083304,nan,nan,nan,[ nan  nan  nan],nan,nan,nan,1041.760629,1504.111076,1504.461929,nan,nan
0,406,15:50:16:873000,6,1,200,140.625,[ 1.         -0.01912099  0.47515178],1,1,1,0.297045804,0,0,0,0.308895831,0.275996238,0.080714378,0.356710616,0.195281861,nan,nan,nan,[ nan  nan  nan],nan,nan,nan,1041.760629,1505.052865,1505.349911,nan,nan
0,407,15:50:17:825000,6,1,327,229.921875,[-0.12808616  0.44548068  0.34417644],1,1,1,0.267218746,0,0,0,0.305038953,0.276047957,0.080621894,0.356669851,0.195426063,nan,nan,nan,[ nan  nan  nan],nan,nan,nan,1041.760629,1505.994676,1506.261894,nan,nan
0,408,15:50:18:761000,6,1,133,93.515625,[ 1.         -0.30625957 -0.10533643],1,1,1,0.253424648,0,0,0,0.272563066,0.276026317,0.080524216,0.356550533,0.195502101,nan,nan,nan,[ nan  nan  nan],nan,nan,nan,1041.760629,1506.936447,1507.189872,nan,nan
0,409,15:50:19:712000,6,1,392,275.625,[-0.05410679  0.47552228 -0.31554984],1,1,1,0.175614176,0,0,0,0.232085857,0.275971056,0.080433461,0.356404517,0.195537596,nan,nan,nan,[ nan  nan  nan],nan,nan,nan,1041.760629,1507.878244,1508.053858,nan,nan
0,410,15:50:20:648000,6,1,474,333.28125,[ 0.53090176  0.34654538 -1.        ],1,1,1,0.153799464,0,1,0,0.194279429,0.275726283,0.080487682,0.356213965,0.195238601,nan,nan,nan,[ nan  nan  nan],nan,nan,nan,1041.760629,1508.820035,1508.973834,nan,nan
0,411,15:50:25:515000,6,1,299,210.234375,[ 0.05166456  0.39341767  0.53437875],1,1,1,0.251991469,1,0,0,0.193801703,0.275429624,0.080613816,0.356043441,0.194815808,nan,-117.5635693,295,[ 0.08602229  0.38372732  0.55498608],nan,-2.670805673,1.883865176,1041.760629,1509.761822,1510.013813,1511.587039,1513.479041
0,412,15:50:26:451000,6,1,431,303.046875,[ 0.19195726  0.43918129 -0.98229877],1,1,1,0.248557484,0,0,0,0.218116139,0.275372736,0.080524184,0.35589692,0.194848551,nan,nan,nan,[ nan  nan  nan],nan,nan,nan,1041.760629,1514.629143,1514.877701,nan,nan
