block,trial,freq_trials,correct_response,actual_response,acc,rts,probe_trials,fast_rt_trigger,slow_rt_trigger,rt_triggered,rts_runningavg,rts_runningstd,rts_runningfastthresh,rts_runningslowthresh,rts_runningstd,rts_trailingavg,trials_colorind,trials_colorrgb0,trials_colorrgb1,trials_colorrgb2,wm_respdeg,wm_respdeg_in_colorspace,wm_respcolorminusorigcolor,wm_resptexind,wm_resptexrgb0,wm_resptexrgb1,wm_resptexrgb2,wm_rts,time_blockstart,time_encarray_offset,time_encarray_onset,time_response,time_iti_offset,time_iti_onset,time_memprobe_offset,time_memprobe_onset
1,1,1,1,1.0,1.0,0.338263883372,0,nan,nan,nan,nan,nan,nan,nan,nan,nan,103,1.0,-0.279537473278,-0.423758835275,nan,nan,nan,nan,nan,nan,nan,nan,1041.76062889,1042.77434316,nan,1043.11260704,nan,nan,nan,nan
1,2,1,1,1.0,1.0,0.204388943152,0,nan,nan,nan,nan,nan,nan,nan,nan,nan,374,-0.132039125116,0.478634076427,-0.110628443238,nan,nan,nan,nan,nan,nan,nan,nan,1041.76062889,1043.71622571,nan,1043.92061466,nan,nan,nan,nan
1,3,1,1,1.0,1.0,0.262623849383,0,nan,nan,nan,nan,nan,nan,nan,nan,nan,242,0.632911854383,0.197161183215,0.645921401967,nan,nan,nan,nan,nan,nan,nan,nan,1041.76062889,1044.65794063,nan,1044.92056448,nan,nan,nan,nan
1,4,1,1,1.0,1.0,0.208826466696,0,nan,nan,nan,nan,nan,nan,nan,nan,nan,409,0.0429436170054,0.464793150178,-0.529461854507,nan,nan,nan,nan,nan,nan,nan,nan,1041.76062889,1045.59973081,nan,1045.80855728,nan,nan,nan,nan
1,5,1,1,1.0,1.0,0.219007825071,0,nan,nan,nan,nan,nan,nan,nan,nan,nan,499,0.739831889234,0.263827757734,-1.0,nan,nan,nan,nan,nan,nan,nan,nan,1041.76062889,1046.54152185,nan,1046.76052967,nan,nan,nan,nan
1,6,1,1,1.0,1.0,0.213183878281,0,nan,nan,nan,nan,nan,nan,nan,nan,nan,180,1.0,-0.129278616986,0.331238955499,nan,nan,nan,nan,nan,nan,nan,nan,1041.76062889,1047.48332572,nan,1047.69650959,nan,nan,nan,nan
1,7,1,1,1.0,1.0,0.49533938861,0,nan,nan,nan,nan,nan,nan,nan,nan,nan,419,0.107894673663,0.454841969249,-0.678098861371,nan,nan,nan,nan,nan,nan,nan,nan,1041.76062889,1048.4251159,nan,1048.92045529,nan,nan,nan,nan
1,8,1,1,1.0,1.0,0.377548725053,0,nan,nan,nan,nan,nan,nan,nan,nan,nan,189,1.0,-0.0802194643608,0.400143472992,nan,nan,nan,nan,nan,nan,nan,nan,1041.76062889,1049.36690722,nan,1049.74445595,nan,nan,nan,nan
1,9,1,1,1.0,1.0,0.259718433255,0,nan,nan,nan,nan,nan,nan,nan,nan,nan,78,1.0,-0.179467652321,-0.739907630878,nan,nan,nan,nan,nan,nan,nan,nan,1041.76062889,1050.30871137,nan,1050.56842981,nan,nan,nan,nan
1,10,1,1,1.0,1.0,0.213915150205,0,nan,nan,nan,nan,nan,nan,nan,nan,nan,498,0.731507943485,0.267561876527,-1.0,nan,nan,nan,nan,nan,nan,nan,nan,1041.76062889,1051.25050298,nan,1051.46441813,nan,nan,nan,nan
1,11,1,1,1.0,1.0,0.26410178846,0,nan,nan,nan,nan,nan,nan,nan,nan,nan,366,-0.155593376329,0.477302029306,-0.0244766492797,nan,nan,nan,nan,nan,nan,nan,nan,1041.76062889,1052.19229687,nan,1052.45639866,nan,nan,nan,nan
1,12,1,1,1.0,1.0,0.266281349584,0,nan,nan,nan,nan,nan,nan,nan,nan,nan,212,0.93926288676,0.0467731277665,0.543851001166,nan,nan,nan,nan,nan,nan,nan,nan,1041.76062889,1053.13408449,nan,1053.40036584,nan,nan,nan,nan
1,13,1,1,1.0,1.0,0.236463129811,0,nan,nan,nan,nan,nan,nan,nan,nan,nan,420,0.1146601879,0.45369410126,-0.695047497311,nan,nan,nan,nan,nan,nan,nan,nan,1041.76062889,1054.0758875,nan,1054.31235063,nan,nan,nan,nan
1,14,1,1,1.0,1.0,0.326614849444,0,nan,nan,nan,nan,nan,nan,nan,nan,nan,242,0.632911854383,0.197161183215,0.645921401967,nan,nan,nan,nan,nan,nan,nan,nan,1041.76062889,1055.01767882,nan,1055.34429367,nan,nan,nan,nan
1,15,1,1,1.0,1.0,0.312838141981,0,nan,nan,nan,nan,nan,nan,nan,nan,nan,380,-0.109519508899,0.478533032186,-0.177177385375,nan,nan,nan,nan,nan,nan,nan,nan,1041.76062889,1055.95947214,nan,1056.27231028,nan,nan,nan,nan
1,16,1,1,1.0,1.0,0.243022910028,0,nan,nan,nan,nan,nan,nan,nan,nan,nan,224,0.821619416966,0.11002478857,0.597264883709,nan,nan,nan,nan,nan,nan,nan,nan,1041.76062889,1056.90126631,nan,1057.14428922,nan,nan,nan,nan
1,17,0,0,1.0,0.0,0.253215672215,0,0.0,0.0,0.0,nan,nan,nan,nan,nan,nan,410,0.0492046846968,0.463921527344,-0.54316189137,nan,nan,nan,nan,nan,nan,nan,nan,1041.76062889,1057.84305507,nan,1058.09627074,nan,nan,nan,nan
1,18,1,1,1.0,1.0,0.159428974963,0,nan,nan,nan,nan,nan,nan,nan,nan,nan,493,0.689769084006,0.285700779988,-1.0,nan,nan,nan,nan,nan,nan,nan,nan,1041.76062889,1058.78483641,nan,1058.94426539,nan,nan,nan,nan
1,19,1,1,1.0,1.0,0.0896046199487,0,nan,nan,nan,nan,nan,nan,nan,nan,nan,203,1.0,-0.00249325098487,0.493674673203,nan,nan,nan,nan,nan,nan,nan,nan,1041.76062889,1059.72663144,nan,1059.81623606,nan,nan,nan,nan
1,20,1,1,1.0,1.0,0.203779407311,0,nan,nan,nan,nan,nan,nan,nan,nan,nan,462,0.432089675478,0.378486360879,-1.0,nan,nan,nan,nan,nan,nan,nan,nan,1041.76062889,1060.66842448,nan,1060.87220388,nan,nan,nan,nan
1,21,0,0,0.0,1.0,0.445937050157,0,nan,nan,nan,nan,nan,nan,nan,nan,nan,73,1.0,-0.1546788618,-0.830916872461,nan,nan,nan,nan,nan,nan,nan,nan,1041.76062889,1061.61022863,nan,1062.05616568,nan,nan,nan,nan
1,22,1,1,1.0,1.0,0.304151828575,0,nan,nan,nan,nan,nan,nan,nan,nan,nan,19,0.99625917486,0.126374530333,-1.0,nan,nan,nan,nan,nan,nan,nan,nan,1041.76062889,1062.5520114,nan,1062.85616323,nan,nan,nan,nan
1,23,0,0,0.0,1.0,0.442326305783,0,nan,nan,nan,nan,nan,nan,nan,nan,nan,262,0.416452475899,0.2804144186,0.652815538838,nan,nan,nan,nan,nan,nan,nan,nan,1041.76062889,1063.49380899,nan,1063.9361353,nan,nan,nan,nan
1,24,1,1,1.0,1.0,0.268517929886,0,nan,nan,nan,nan,nan,nan,nan,nan,nan,460,0.415848916989,0.383334931935,-1.0,nan,nan,nan,nan,nan,nan,nan,nan,1041.76062889,1064.43560374,nan,1064.70412167,nan,nan,nan,nan
1,25,1,1,1.0,1.0,0.326699808182,0,nan,nan,nan,nan,nan,nan,nan,nan,nan,25,1.0,0.0970682892709,-1.0,nan,nan,nan,nan,nan,nan,nan,nan,1041.76062889,1065.37739249,nan,1065.7040923,nan,nan,nan,nan
1,26,1,1,1.0,1.0,0.304885096208,0,nan,nan,nan,nan,nan,nan,nan,nan,nan,475,0.539218753276,0.343659807328,-1.0,nan,nan,nan,nan,nan,nan,nan,nan,1041.76062889,1066.31919465,nan,1066.62407974,nan,nan,nan,nan
1,27,1,1,1.0,1.0,0.3150519146,0,nan,nan,nan,nan,nan,nan,nan,nan,nan,413,0.0683106243366,0.461143133648,-0.585495598612,nan,nan,nan,nan,nan,nan,nan,nan,1041.76062889,1067.26098626,nan,1067.57603817,nan,nan,nan,nan
1,28,1,1,1.0,1.0,0.261246264155,0,nan,nan,nan,nan,nan,nan,nan,nan,nan,61,1.0,-0.0921163965413,-1.0,nan,nan,nan,nan,nan,nan,nan,nan,1041.76062889,1068.20278014,nan,1068.46402641,nan,nan,nan,nan
1,29,1,1,1.0,1.0,0.239424424828,0,nan,nan,nan,nan,nan,nan,nan,nan,nan,312,-0.0464483572634,0.420925197877,0.455573212045,nan,nan,nan,nan,nan,nan,nan,nan,1041.76062889,1069.14456833,nan,1069.38399276,nan,nan,nan,nan
1,30,1,1,1.0,1.0,0.225616356765,0,nan,nan,nan,nan,nan,nan,nan,nan,nan,449,0.328095008353,0.407646248688,-1.0,nan,nan,nan,nan,nan,nan,nan,nan,1041.76062889,1070.08636707,nan,1070.31198342,nan,nan,nan,nan
1,31,1,1,1.0,1.0,0.219793265278,0,nan,nan,nan,nan,nan,nan,nan,nan,nan,500,0.748145934353,0.260058294274,-1.0,nan,nan,nan,nan,nan,nan,nan,nan,1041.76062889,1071.02816181,nan,1071.24795508,nan,nan,nan,nan
1,32,1,1,1.0,1.0,0.181992064638,0,nan,nan,nan,nan,nan,nan,nan,nan,nan,203,1.0,-0.00249325098487,0.493674673203,nan,nan,nan,nan,nan,nan,nan,nan,1041.76062889,1071.96995256,nan,1072.15194463,nan,nan,nan,nan
1,33,1,1,1.0,1.0,0.192194805131,1,nan,nan,nan,nan,nan,nan,nan,nan,nan,294,0.0948761993654,0.381212130724,0.559858230992,-114.489140717,204.489140717,-2.22960928296,291.0,0.122027637739,0.373441943191,0.573791926984,1.77553372161,1041.76062889,1072.91170967,1073.72015605,1073.10390448,1076.52048545,1077.52409677,1074.72858008,1076.51214895
1,34,1,1,1.0,1.0,0.393440561893,0,nan,nan,nan,nan,nan,nan,nan,nan,nan,501,0.7564492333,0.256253544744,-1.0,nan,nan,nan,nan,nan,nan,nan,nan,1041.76062889,1077.66237416,nan,1078.05581472,nan,nan,nan,nan
1,35,1,1,1.0,1.0,0.29962449969,0,nan,nan,nan,nan,nan,nan,nan,nan,nan,170,1.0,-0.180990482069,0.247815061387,nan,nan,nan,nan,nan,nan,nan,nan,1041.76062889,1078.60416007,nan,1078.90378457,nan,nan,nan,nan
1,36,1,1,1.0,1.0,0.261810469732,0,nan,nan,nan,nan,nan,nan,nan,nan,nan,98,1.0,-0.263822910468,-0.480217789416,nan,nan,nan,nan,nan,nan,nan,nan,1041.76062889,1079.54595025,nan,1079.80776072,nan,nan,nan,nan
1,37,0,0,0.0,1.0,0.423991479038,0,nan,nan,nan,nan,nan,nan,nan,nan,nan,11,0.934659501434,0.163852895862,-1.0,nan,nan,nan,nan,nan,nan,nan,nan,1041.76062889,1080.48775383,nan,1080.91174531,nan,nan,nan,nan
1,38,1,1,1.0,1.0,0.218190739106,0,nan,nan,nan,nan,nan,nan,nan,nan,nan,56,1.0,-0.0653675053377,-1.0,nan,nan,nan,nan,nan,nan,nan,nan,1041.76062889,1081.42954088,nan,1081.64773162,nan,nan,nan,nan
1,39,1,1,1.0,1.0,0.260359329637,0,nan,nan,nan,nan,nan,nan,nan,nan,nan,276,0.268710435127,0.329430325417,0.627563005949,nan,nan,nan,nan,nan,nan,nan,nan,1041.76062889,1082.37133277,nan,1082.6316921,nan,nan,nan,nan
1,40,1,1,1.0,1.0,0.382548458525,0,nan,nan,nan,nan,nan,nan,nan,nan,nan,115,1.0,-0.305166285737,-0.293172749504,nan,nan,nan,nan,nan,nan,nan,nan,1041.76062889,1083.31312723,nan,1083.69567569,nan,nan,nan,nan
1,41,1,1,1.0,1.0,0.296727636363,0,nan,nan,nan,nan,nan,nan,nan,nan,nan,420,0.1146601879,0.45369410126,-0.695047497311,nan,nan,nan,nan,nan,nan,nan,nan,1041.76062889,1084.25492967,nan,1084.55165731,nan,nan,nan,nan
1,42,1,1,1.0,1.0,0.29091024684,0,nan,nan,nan,nan,nan,nan,nan,nan,nan,271,0.320642857732,0.312811632898,0.639400143054,nan,nan,nan,nan,nan,nan,nan,nan,1041.76062889,1085.19671216,nan,1085.4876224,nan,nan,nan,nan
1,43,1,1,1.0,1.0,0.277135249926,1,nan,nan,nan,nan,nan,nan,nan,nan,nan,325,-0.119404900653,0.442631039184,0.360186421743,-110.170653412,200.170653412,-28.3449715881,285.0,0.178734351563,0.356878681702,0.598527012995,3.10070085223,1041.76062889,1086.13847497,1086.94693104,1086.41561022,1091.0807712,1092.07856341,1087.96369099,1091.07244182
1,44,0,0,0.0,1.0,0.448768056231,0,nan,nan,nan,nan,nan,nan,nan,nan,nan,38,1.0,0.0306259494545,-1.0,nan,nan,nan,nan,nan,nan,nan,nan,1041.76062889,1092.22265877,nan,1092.67142682,nan,nan,nan,nan
1,45,1,1,1.0,1.0,0.307005927432,1,nan,nan,nan,nan,nan,nan,nan,nan,nan,161,1.0,-0.223158351501,0.167490545043,4.44124118943,85.5587588106,-27.6443661894,122.0,1.0,-0.311159539646,-0.219144224573,4.04248504736,1041.76062889,1093.16444467,1093.97286739,1093.4714506,1099.0568519,1100.06560921,1094.99799805,1099.04851797
1,46,1,1,1.0,1.0,0.376231580274,0,nan,nan,nan,nan,nan,nan,nan,nan,nan,502,0.764740937618,0.25241357569,-1.0,nan,nan,nan,nan,nan,nan,nan,nan,1041.76062889,1100.20706372,nan,1100.5832953,nan,nan,nan,nan
1,47,1,1,1.0,1.0,0.354353291856,0,nan,nan,nan,nan,nan,nan,nan,nan,nan,427,0.163265173604,0.444863218481,-0.840208708629,nan,nan,nan,nan,nan,nan,nan,nan,1041.76062889,1101.14890465,nan,1101.50325794,nan,nan,nan,nan
1,48,1,1,1.0,1.0,0.268588348641,0,nan,nan,nan,nan,nan,nan,nan,nan,nan,91,1.0,-0.237709898716,-0.562722318432,nan,nan,nan,nan,nan,nan,nan,nan,1041.76062889,1102.09064608,nan,1102.35923443,nan,nan,nan,nan
1,49,0,0,0.0,1.0,0.43877856771,0,nan,nan,nan,nan,nan,nan,nan,nan,nan,193,1.0,-0.0580453890011,0.428658791268,nan,nan,nan,nan,nan,nan,nan,nan,1041.76062889,1103.03244253,nan,1103.4712211,nan,nan,nan,nan
1,50,1,1,1.0,1.0,0.312958167517,0,nan,nan,nan,nan,nan,nan,nan,nan,nan,498,0.731507943485,0.267561876527,-1.0,nan,nan,nan,nan,nan,nan,nan,nan,1041.76062889,1103.97423328,nan,1104.28719145,nan,nan,nan,nan
1,51,1,1,1.0,1.0,0.283143083798,0,nan,nan,nan,nan,nan,nan,nan,nan,nan,391,-0.0591907973189,0.475916278612,-0.303718712187,nan,nan,nan,nan,nan,nan,nan,nan,1041.76062889,1104.91602261,nan,1105.19916569,nan,nan,nan,nan
1,52,1,1,1.0,1.0,0.421326969226,0,nan,nan,nan,nan,nan,nan,nan,nan,nan,130,1.0,-0.309333154106,-0.136071487739,nan,nan,nan,nan,nan,nan,nan,nan,1041.76062889,1105.85781964,nan,1106.2791466,nan,nan,nan,nan
1,53,0,0,0.0,1.0,0.495506455016,0,nan,nan,nan,nan,nan,nan,nan,nan,nan,84,1.0,-0.20765784414,-0.652191087791,nan,nan,nan,nan,nan,nan,nan,nan,1041.76062889,1106.79961039,nan,1107.29511684,nan,nan,nan,nan
1,54,1,1,1.0,1.0,0.265674379538,0,nan,nan,nan,nan,nan,nan,nan,nan,nan,357,-0.1717918326,0.473767524415,0.068739031695,nan,nan,nan,nan,nan,nan,nan,nan,1041.76062889,1107.74144333,nan,1108.00711771,nan,nan,nan,nan
1,55,1,1,1.0,1.0,0.259831901523,0,nan,nan,nan,nan,nan,nan,nan,nan,nan,102,1.0,-0.276610342793,-0.434926949461,nan,nan,nan,nan,nan,nan,nan,nan,1041.76062889,1108.68325433,nan,1108.94308623,nan,nan,nan,nan
1,56,1,1,1.0,1.0,0.246070589288,0,nan,nan,nan,nan,nan,nan,nan,nan,nan,180,1.0,-0.129278616986,0.331238955499,nan,nan,nan,nan,nan,nan,nan,nan,1041.76062889,1109.62499348,nan,1109.87106407,nan,nan,nan,nan
1,57,1,1,1.0,1.0,0.232272784691,0,nan,nan,nan,nan,nan,nan,nan,nan,nan,73,1.0,-0.1546788618,-0.830916872461,nan,nan,nan,nan,nan,nan,nan,nan,1041.76062889,1110.56678195,nan,1110.79905473,nan,nan,nan,nan
1,58,1,1,1.0,1.0,0.242453287705,0,nan,nan,nan,nan,nan,nan,nan,nan,nan,327,-0.128086156831,0.445480682368,0.344176439252,nan,nan,nan,nan,nan,nan,nan,nan,1041.76062889,1111.50857983,nan,1111.75103312,nan,nan,nan,nan
1,59,1,1,1.0,1.0,0.300643433817,0,nan,nan,nan,nan,nan,nan,nan,nan,nan,468,0.481236483515,0.363131620867,-1.0,nan,nan,nan,nan,nan,nan,nan,nan,1041.76062889,1112.45037714,nan,1112.75102057,nan,nan,nan,nan
1,60,1,1,1.0,1.0,0.270814095275,0,nan,nan,nan,nan,nan,nan,nan,nan,nan,195,1.0,-0.0469245268387,0.442396054288,nan,nan,nan,nan,nan,nan,nan,nan,1041.76062889,1113.39216618,nan,1113.66298028,nan,nan,nan,nan
1,61,1,1,1.0,1.0,0.26499585039,0,nan,nan,nan,nan,nan,nan,nan,nan,nan,21,1.0,0.116713997928,-1.0,nan,nan,nan,nan,nan,nan,nan,nan,1041.76062889,1114.33396121,nan,1114.59895706,nan,nan,nan,nan
1,62,0,0,1.0,0.0,0.219196273654,0,0.0,0.0,0.0,nan,nan,nan,nan,nan,nan,474,0.530901762182,0.346545376391,-1.0,nan,nan,nan,nan,nan,nan,nan,nan,1041.76062889,1115.27575082,nan,1115.4949471,nan,nan,nan,nan
1,63,1,1,1.0,1.0,0.149334000831,0,nan,nan,nan,nan,nan,nan,nan,nan,nan,399,-0.0164460389312,0.472031251936,-0.400274523968,nan,nan,nan,nan,nan,nan,nan,nan,1041.76062889,1116.21758234,nan,1116.36691634,nan,nan,nan,nan
1,64,1,1,1.0,1.0,0.271550784062,0,nan,nan,nan,nan,nan,nan,nan,nan,nan,453,0.359670421306,0.39926174925,-1.0,nan,nan,nan,nan,nan,nan,nan,nan,1041.76062889,1117.15933204,nan,1117.43088283,nan,nan,nan,nan
1,65,1,1,1.0,1.0,0.313730208261,0,nan,nan,nan,nan,nan,nan,nan,nan,nan,78,1.0,-0.179467652321,-0.739907630878,nan,nan,nan,nan,nan,nan,nan,nan,1041.76062889,1118.10113192,nan,1118.41486213,nan,nan,nan,nan
1,66,1,1,1.0,1.0,0.291923764104,0,nan,nan,nan,nan,nan,nan,nan,nan,nan,473,0.522594813828,0.349396171415,-1.0,nan,nan,nan,nan,nan,nan,nan,nan,1041.76062889,1119.04292181,nan,1119.33484558,nan,nan,nan,nan
1,67,0,0,0.0,1.0,0.438107165974,0,nan,nan,nan,nan,nan,nan,nan,nan,nan,371,-0.14179360683,0.478331938097,-0.0779732583494,nan,nan,nan,nan,nan,nan,nan,nan,1041.76062889,1119.98471314,nan,1120.4228203,nan,nan,nan,nan
1,68,1,1,1.0,1.0,0.280288984999,0,nan,nan,nan,nan,nan,nan,nan,nan,nan,96,1.0,-0.25681952169,-0.503302481145,nan,nan,nan,nan,nan,nan,nan,nan,1041.76062889,1120.92652812,nan,1121.20681711,nan,nan,nan,nan
1,69,1,1,1.0,1.0,0.314483432623,0,nan,nan,nan,nan,nan,nan,nan,nan,nan,448,0.32026743599,0.409662251776,-1.0,nan,nan,nan,nan,nan,nan,nan,nan,1041.76062889,1121.8683032,nan,1122.18278663,nan,nan,nan,nan
1,70,1,1,1.0,1.0,0.36467263673,0,nan,nan,nan,nan,nan,nan,nan,nan,nan,504,0.78128615449,0.244628286196,-1.0,nan,nan,nan,nan,nan,nan,nan,nan,1041.76062889,1122.81009452,nan,1123.17476715,nan,nan,nan,nan
1,71,1,1,1.0,1.0,0.46284439991,0,nan,nan,nan,nan,nan,nan,nan,nan,nan,443,0.281558783006,0.419268214519,-1.0,nan,nan,nan,nan,nan,nan,nan,nan,1041.76062889,1123.75188869,nan,1124.21473309,nan,nan,nan,nan
1,72,1,1,1.0,1.0,0.345038911386,1,nan,nan,nan,nan,nan,nan,nan,nan,nan,403,0.00657627305109,0.469456436931,-0.450524507496,-171.101686936,261.101686936,-22.2576880645,371.0,-0.14179360683,0.478331938097,-0.0779732583494,1.59218060737,1041.76062889,1124.69368515,1125.50209731,1125.03872406,1128.12750076,1129.12775335,1126.51886724,1128.11916397
1,73,1,1,1.0,1.0,0.273314674734,0,nan,nan,nan,nan,nan,nan,nan,nan,nan,140,1.0,-0.294209249228,-0.0345777392028,nan,nan,nan,nan,nan,nan,nan,nan,1041.76062889,1129.26929339,nan,1129.54260807,nan,nan,nan,nan
1,74,1,1,1.0,1.0,0.235508912534,0,nan,nan,nan,nan,nan,nan,nan,nan,nan,8,0.91102658764,0.177400941622,-1.0,nan,nan,nan,nan,nan,nan,nan,nan,1041.76062889,1130.21108386,nan,1130.44659277,nan,nan,nan,nan
1,75,1,1,1.0,1.0,0.237680775987,0,nan,nan,nan,nan,nan,nan,nan,nan,nan,177,1.0,-0.145192147526,0.306921212481,nan,nan,nan,nan,nan,nan,nan,nan,1041.76062889,1131.15288202,nan,1131.3905628,nan,nan,nan,nan
1,76,1,1,1.0,1.0,0.271864960145,0,nan,nan,nan,nan,nan,nan,nan,nan,nan,478,0.56422249903,0.334793662244,-1.0,nan,nan,nan,nan,nan,nan,nan,nan,1041.76062889,1132.09467506,nan,1132.36654002,nan,nan,nan,nan
1,77,1,1,1.0,1.0,0.265987415274,0,nan,nan,nan,nan,nan,nan,nan,nan,nan,145,1.0,-0.281667413287,0.0150551701241,nan,nan,nan,nan,nan,nan,nan,nan,1041.76062889,1133.03654478,nan,1133.3025322,nan,nan,nan,nan
1,78,1,1,1.0,1.0,0.260244720906,0,nan,nan,nan,nan,nan,nan,nan,nan,nan,454,0.367627362238,0.397084843583,-1.0,nan,nan,nan,nan,nan,nan,nan,nan,1041.76062889,1133.97826141,nan,1134.23850613,nan,nan,nan,nan
1,79,1,1,1.0,1.0,0.302438114828,0,nan,nan,nan,nan,nan,nan,nan,nan,nan,214,0.920243657418,0.0575410437433,0.553854850604,nan,nan,nan,nan,nan,nan,nan,nan,1041.76062889,1134.92005473,nan,1135.22249284,nan,nan,nan,nan
1,80,1,1,1.0,1.0,0.296602194081,0,nan,nan,nan,nan,nan,nan,nan,nan,nan,482,0.597655625539,0.322480811492,-1.0,nan,nan,nan,nan,nan,nan,nan,nan,1041.76062889,1135.86184947,nan,1136.15845166,nan,nan,nan,nan
1,81,1,1,1.0,1.0,0.258807265491,0,0.0,0.0,0.0,0.292062153409,0.0799499763427,0.212112177066,0.372012129752,0.0799499763427,0.285949191467,331,-0.143297839787,0.450801753776,0.311166711333,nan,nan,nan,nan,nan,nan,nan,nan,1041.76062889,1136.80363937,nan,1137.06244663,nan,nan,nan,nan
1,82,1,1,1.0,1.0,0.244987223414,0,0.0,0.0,0.0,0.291651599237,0.0795397355479,0.212111863689,0.371191334785,0.0795397355479,0.266798894329,270,0.331159066004,0.309369715406,0.641393874915,nan,nan,nan,nan,nan,nan,nan,nan,1041.76062889,1137.74543753,nan,1137.99042476,nan,nan,nan,nan
1,83,1,1,1.0,1.0,0.247153099859,0,0.0,0.0,0.0,0.291082521483,0.0792189879559,0.211863533527,0.370301509439,0.0792189879559,0.250315862921,184,1.0,-0.107671891867,0.362640045218,nan,nan,nan,nan,nan,nan,nan,nan,1041.76062889,1138.68723342,nan,1138.93438652,nan,nan,nan,nan
1,84,1,1,1.0,1.0,0.209328236233,0,0.0,0.0,0.0,0.290553251343,0.0788860459112,0.211667205432,0.369439297254,0.0788860459112,0.233822853169,472,0.51429864939,0.352212277195,-1.0,nan,nan,nan,nan,nan,nan,nan,nan,1041.76062889,1139.62904954,nan,1139.83837778,nan,nan,nan,nan
1,85,1,1,1.0,1.0,0.187472185295,0,0.0,0.0,0.0,0.289586286877,0.0789083740242,0.210677912853,0.368494660902,0.0789083740242,0.214651173796,132,1.0,-0.307426825298,-0.115555361894,nan,nan,nan,nan,nan,nan,nan,nan,1041.76062889,1140.57088335,nan,1140.75835553,nan,nan,nan,nan
1,86,1,1,1.0,1.0,0.477721864067,0,0.0,0.0,0.0,0.288384944506,0.0792117980666,0.209173146439,0.367596742573,0.0792117980666,0.291507428531,38,1.0,0.0306259494545,-1.0,nan,nan,nan,nan,nan,nan,nan,nan,1041.76062889,1141.5126091,nan,1141.99033096,nan,nan,nan,nan
1,87,1,1,1.0,1.0,0.327895216877,0,0.0,0.0,0.0,0.290586536594,0.0813237062784,0.209262830315,0.371910242872,0.0813237062784,0.331029755413,500,0.748145934353,0.260058294274,-1.0,nan,nan,nan,nan,nan,nan,nan,nan,1041.76062889,1142.45440584,nan,1142.78230105,nan,nan,nan,nan
1,88,1,1,1.0,1.0,0.330103572633,0,0.0,1.0,0.0,0.291015371999,0.0809527196895,0.21006265231,0.371968091689,0.0809527196895,0.378573551192,398,-0.0220377755791,0.472608796233,-0.387943383198,nan,nan,nan,nan,nan,nan,nan,nan,1041.76062889,1143.39618689,nan,1143.72629047,nan,nan,nan,nan
1,89,1,1,1.0,1.0,0.308285724663,1,0.0,0.0,1.0,0.291459556098,0.0805980029401,0.210861553157,0.372057559038,0.0805980029401,0.322094838057,217,0.891250405156,0.0735373331823,0.568048345461,-99.1888360774,189.188836077,36.6107110774,269.0,0.34171296506,0.305888347675,0.643262349404,2.90068842197,1041.76062889,1144.33797366,1145.14640008,1144.64625938,1149.08024092,1150.07808017,1146.16319196,1149.07191183
1,90,1,1,1.0,1.0,0.272028035193,0,0.0,0.0,0.0,0.291648614171,0.0801635469906,0.211485067181,0.371812161162,0.0801635469906,0.303472444163,143,1.0,-0.287057525782,-0.00469998909502,nan,nan,nan,nan,nan,nan,nan,nan,1041.76062889,1150.22210739,nan,1150.49413543,nan,nan,nan,nan
1,91,1,1,1.0,1.0,0.242147949524,0,0.0,0.0,0.0,0.291430607738,0.0797434761797,0.211687131558,0.371174083918,0.0797434761797,0.274153903127,206,0.994723455659,0.014051917983,0.511316161583,nan,nan,nan,nan,nan,nan,nan,nan,1041.76062889,1151.16395602,nan,1151.40610397,nan,nan,nan,nan
1,92,1,1,1.0,1.0,0.116397683101,0,1.0,0.0,0.0,0.290889040065,0.0794703669907,0.211418673075,0.370359407056,0.0794703669907,0.210191222606,371,-0.14179360683,0.478331938097,-0.0779732583494,nan,nan,nan,nan,nan,nan,nan,nan,1041.76062889,1152.10569146,nan,1152.22208915,nan,nan,nan,nan
1,93,1,1,1.0,1.0,0.0385495783994,1,0.0,0.0,1.0,0.288992394881,0.0810817056619,0.207910689219,0.370074100543,0.0810817056619,0.132365070342,284,0.188465149253,0.353984098999,0.602236276499,-121.680513713,211.680513713,11.993013713,301.0,0.0351599448551,0.39804275895,0.523414514543,3.41738152184,1041.76062889,1153.04748307,1153.85591605,1153.08603265,1158.31479903,1159.31308504,1154.88103075,1158.30647166
1,94,1,1,1.0,1.0,0.325244106527,0,0.0,0.0,0.0,0.286299461371,0.0846801403534,0.201619321017,0.370979601724,0.0846801403534,0.160063789343,507,0.805995650865,0.232688349973,-1.0,nan,nan,nan,nan,nan,nan,nan,nan,1041.76062889,1159.45667463,nan,1159.78191874,nan,nan,nan,nan
1,95,1,1,1.0,1.0,0.343413862574,0,0.0,0.0,0.0,0.286713766106,0.0843232183435,0.202390547763,0.37103698445,0.0843232183435,0.235735849167,78,1.0,-0.179467652321,-0.739907630878,nan,nan,nan,nan,nan,nan,nan,nan,1041.76062889,1160.39847223,nan,1160.74188609,nan,nan,nan,nan
1,96,1,1,1.0,1.0,0.233689713175,0,0.0,0.0,0.0,0.287310609227,0.0840776047625,0.203233004464,0.371388213989,0.0840776047625,0.300782560759,23,1.0,0.106943944166,-1.0,nan,nan,nan,nan,nan,nan,nan,nan,1041.76062889,1161.34022478,nan,1161.57391449,nan,nan,nan,nan
1,97,1,1,1.0,1.0,0.203793091932,0,0.0,0.0,0.0,0.286752058226,0.0838155461561,0.20293651207,0.370567604383,0.0838155461561,0.260298889227,209,0.967301840512,0.0304835193525,0.52804999659,nan,nan,nan,nan,nan,nan,nan,nan,1041.76062889,1162.28205601,nan,1162.4858491,nan,nan,nan,nan
1,98,0,0,1.0,0.0,0.245963678171,0,0.0,0.0,0.0,0.285896811151,0.0838023960924,0.202094415059,0.369699207244,0.0838023960924,0.227815494426,445,0.296953900578,0.415520102116,-1.0,nan,nan,nan,nan,nan,nan,nan,nan,1041.76062889,1163.22384876,nan,1163.46981244,nan,nan,nan,nan
1,99,1,1,1.0,1.0,0.0881340933265,0,0.0,0.0,0.0,0.285489330202,0.0834702695104,0.202019060692,0.368959599713,0.0834702695104,0.179296954477,186,1.0,-0.0967386681424,0.377881386018,nan,nan,nan,nan,nan,nan,nan,nan,1041.76062889,1164.1656321,nan,1164.25376619,nan,nan,nan,nan
1,100,1,1,1.0,1.0,0.306352201675,0,0.0,0.0,0.0,0.283495842961,0.0853601805426,0.198135662419,0.368856023504,0.0853601805426,0.213483324391,462,0.432089675478,0.378486360879,-1.0,nan,nan,nan,nan,nan,nan,nan,nan,1041.76062889,1165.10743255,nan,1165.41378475,nan,nan,nan,nan
1,101,1,1,1.0,1.0,0.316538691695,0,0.0,0.0,0.0,0.283724406548,0.0849627489437,0.198761657605,0.368687155492,0.0849627489437,0.237008328899,27,1.0,0.0870912575778,-1.0,nan,nan,nan,nan,nan,nan,nan,nan,1041.76062889,1166.04922643,nan,1166.36576513,nan,nan,nan,nan
1,102,1,1,1.0,1.0,0.318683471007,0,0.0,0.0,0.0,0.284049300461,0.084603500791,0.19944579967,0.368652801252,0.084603500791,0.313858121459,415,0.0813077335083,0.459153678902,-0.614968023274,nan,nan,nan,nan,nan,nan,nan,nan,1041.76062889,1166.99105396,nan,1167.30973743,nan,nan,nan,nan
1,103,0,0,0.0,1.0,0.432893610327,0,0.0,0.0,0.0,0.284388851152,0.0842568873468,0.200131963806,0.368645738499,0.0842568873468,0.35603859101,191,1.0,-0.0691479807067,0.414571651978,nan,nan,nan,nan,nan,nan,nan,nan,1041.76062889,1167.93281706,nan,1168.36571067,nan,nan,nan,nan
1,104,1,1,1.0,1.0,0.355092261394,0,0.0,0.0,0.0,0.285830644931,0.0851018979702,0.200728746961,0.370932542901,0.0851018979702,0.368889780909,492,0.681403316433,0.289222019555,-1.0,nan,nan,nan,nan,nan,nan,nan,nan,1041.76062889,1168.87460667,nan,1169.22969894,nan,nan,nan,nan
1,105,1,1,1.0,1.0,0.477268560964,0,0.0,0.0,0.0,0.286496622012,0.0849610401547,0.201535581857,0.371457662167,0.0849610401547,0.421751477562,430,0.184725017221,0.440645728776,-0.941904167281,nan,nan,nan,nan,nan,nan,nan,nan,1041.76062889,1169.81640313,nan,1170.29367169,nan,nan,nan,nan
1,106,1,1,1.0,1.0,0.319464349654,0,0.0,1.0,0.0,0.288313497621,0.0865617682903,0.201751729331,0.374875265912,0.0865617682903,0.383941724004,285,0.178734351563,0.356878681702,0.598527012995,nan,nan,nan,nan,nan,nan,nan,nan,1041.76062889,1170.75819046,nan,1171.07765481,nan,nan,nan,nan
1,107,1,1,1.0,1.0,0.305651149945,1,0.0,0.0,1.0,0.288607373584,0.0862051027633,0.20240227082,0.374812476347,0.0862051027633,0.367461353521,214,0.920243657418,0.0575410437433,0.553854850604,-62.5743473331,152.574347333,2.10559733309,217.0,0.891250405156,0.0735373331823,0.568048345461,2.81735991151,1041.76062889,1171.69998777,1172.50841219,1172.00563892,1176.3588829,1177.36188867,1173.52516787,1176.35055096
1,108,1,1,1.0,1.0,0.272727661475,0,0.0,0.0,0.0,0.288766661213,0.0858170009162,0.202949660297,0.37458366213,0.0858170009162,0.299281053691,45,1.0,-0.0063957592436,-1.0,nan,nan,nan,nan,nan,nan,nan,nan,1041.76062889,1177.50077161,nan,1177.77349927,nan,nan,nan,nan
1,109,1,1,1.0,1.0,0.24291827972,0,0.0,0.0,0.0,0.288618151957,0.085432588528,0.203185563428,0.374050740485,0.085432588528,0.273765697047,293,0.103830259013,0.378659598285,0.564617056734,nan,nan,nan,nan,nan,nan,nan,nan,1041.76062889,1178.4425598,nan,1178.68547808,nan,nan,nan,nan
1,110,1,1,1.0,1.0,0.253112752398,0,0.0,0.0,0.0,0.288198887074,0.0851513414533,0.20304754562,0.373350228527,0.0851513414533,0.256252897865,338,-0.162891363375,0.458928707883,0.250399161362,nan,nan,nan,nan,nan,nan,nan,nan,1041.76062889,1179.38434571,nan,1179.63745846,nan,nan,nan,nan
1,111,1,1,1.0,1.0,0.263298102072,0,0.0,0.0,0.0,0.287879922213,0.0848287954591,0.203051126754,0.372708717672,0.0848287954591,0.253109711397,502,0.764740937618,0.25241357569,-1.0,nan,nan,nan,nan,nan,nan,nan,nan,1041.76062889,1180.32613902,nan,1180.58943713,nan,nan,nan,nan
1,112,1,1,1.0,1.0,0.273469767126,0,0.0,0.0,0.0,0.287658464374,0.0844777555527,0.203180708821,0.372136219927,0.0844777555527,0.263293540532,117,1.0,-0.307587969795,-0.271886539361,nan,nan,nan,nan,nan,nan,nan,nan,1041.76062889,1181.26793434,nan,1181.5414041,nan,nan,nan,nan
1,113,0,0,1.0,0.0,0.107654065301,0,0.0,0.0,0.0,0.287531779577,0.084110367703,0.203421411874,0.37164214728,0.084110367703,0.2148073115,324,-0.114799643766,0.441158325109,0.368064040095,nan,nan,nan,nan,nan,nan,nan,nan,1041.76062889,1182.20972851,nan,1182.31738258,nan,nan,nan,nan
1,114,1,1,1.0,1.0,0.357836883282,0,0.0,0.0,0.0,0.285939941398,0.0854151599389,0.200524781459,0.371355101336,0.0854151599389,0.24632023857,214,0.920243657418,0.0575410437433,0.553854850604,nan,nan,nan,nan,nan,nan,nan,nan,1041.76062889,1183.15151499,nan,1183.50935187,nan,nan,nan,nan
1,115,1,1,1.0,1.0,0.256016743137,0,0.0,0.0,0.0,0.286570616326,0.0853035614273,0.201267054899,0.371874177754,0.0853035614273,0.240502563907,409,0.0429436170054,0.464793150178,-0.529461854507,nan,nan,nan,nan,nan,nan,nan,nan,1041.76062889,1184.09331515,nan,1184.34933189,nan,nan,nan,nan
1,116,1,1,1.0,1.0,0.314225135371,0,0.0,0.0,0.0,0.286304930473,0.0849792274845,0.201325702988,0.371284157957,0.0849792274845,0.309359587263,286,0.169078956243,0.359734776014,0.594698705761,nan,nan,nan,nan,nan,nan,nan,nan,1041.76062889,1185.03510447,nan,1185.34932961,nan,nan,nan,nan
1,117,1,1,1.0,1.0,0.292415555159,0,0.0,0.0,0.0,0.286545621894,0.0846515048969,0.201894116997,0.371197126791,0.0846515048969,0.287552477889,61,1.0,-0.0921163965413,-1.0,nan,nan,nan,nan,nan,nan,nan,nan,1041.76062889,1185.97689751,nan,1186.26931306,nan,nan,nan,nan
1,118,0,0,1.0,0.0,0.302585224505,0,0.0,0.0,0.0,0.286595792264,0.0842907020175,0.202305090246,0.370886494281,0.0842907020175,0.303075305012,363,-0.162287729338,0.476365729747,0.00704812682028,nan,nan,nan,nan,nan,nan,nan,nan,1041.76062889,1186.91869425,nan,1187.22127947,nan,nan,nan,nan
1,119,1,1,1.0,1.0,0.24077378551,0,0.0,0.0,0.0,0.286731295927,0.0839455746589,0.202785721268,0.370676870586,0.0839455746589,0.278591521725,261,0.427225806086,0.276617811781,0.653674462902,nan,nan,nan,nan,nan,nan,nan,nan,1041.76062889,1187.8604793,nan,1188.10125308,nan,nan,nan,nan
1,120,0,0,1.0,0.0,0.242955342226,0,0.0,0.0,0.0,0.28634509836,0.0836973221088,0.202647776252,0.370042420469,0.0836973221088,0.26210478408,108,1.0,-0.292426609412,-0.368663285579,nan,nan,nan,nan,nan,nan,nan,nan,1041.76062889,1188.80228031,nan,1189.04523566,nan,nan,nan,nan
1,121,1,1,1.0,1.0,0.253144398157,0,0.0,0.0,0.0,0.285983517059,0.0834411343237,0.202542382736,0.369424651383,0.0834411343237,0.245624508631,157,1.0,-0.240048375319,0.130425901556,nan,nan,nan,nan,nan,nan,nan,nan,1041.76062889,1189.74407506,nan,1189.99721946,nan,nan,nan,nan
1,122,1,1,1.0,1.0,0.295314414194,0,0.0,0.0,0.0,0.285712119382,0.0831487884217,0.202563330961,0.368860907804,0.0831487884217,0.263804718192,416,0.087881616042,0.458117504295,-0.630165317015,nan,nan,nan,nan,nan,nan,nan,nan,1041.76062889,1190.68586838,nan,1190.98118279,nan,nan,nan,nan
1,123,0,0,0.0,1.0,0.457509108121,0,0.0,0.0,0.0,0.285790826717,0.082811839418,0.202978987299,0.368602666135,0.082811839418,0.335322640157,297,0.0686262056446,0.388646276542,0.544904663634,nan,nan,nan,nan,nan,nan,nan,nan,1041.76062889,1191.62765514,nan,1192.08516425,nan,nan,nan,nan
1,124,1,1,1.0,1.0,0.283709855226,0,0.0,0.0,0.0,0.287186910306,0.0839036965534,0.203283213752,0.371090606859,0.0839036965534,0.345511125847,427,0.163265173604,0.444863218481,-0.840208708629,nan,nan,nan,nan,nan,nan,nan,nan,1041.76062889,1192.56944703,nan,1192.85315689,nan,nan,nan,nan
1,125,1,1,1.0,1.0,0.341881755157,0,0.0,0.0,0.0,0.287158869539,0.0835652690019,0.203593600537,0.370724138541,0.0835652690019,0.361033572835,143,1.0,-0.287057525782,-0.00469998909502,nan,nan,nan,nan,nan,nan,nan,nan,1041.76062889,1193.51124405,nan,1193.85312581,nan,nan,nan,nan
1,126,1,1,1.0,1.0,0.392104030529,0,0.0,0.0,0.0,0.287596652624,0.0833729815321,0.204223671092,0.370969634156,0.0833729815321,0.339231880304,318,-0.0835627602325,0.431640264478,0.413481556053,nan,nan,nan,nan,nan,nan,nan,nan,1041.76062889,1194.45300088,nan,1194.84510491,nan,nan,nan,nan
1,127,1,1,1.0,1.0,0.354252937948,0,0.0,0.0,0.0,0.288426076258,0.0835576441718,0.204868432086,0.37198372043,0.0835576441718,0.362746241211,267,0.362924526182,0.298807232282,0.646622522267,nan,nan,nan,nan,nan,nan,nan,nan,1041.76062889,1195.39482727,nan,1195.74908021,nan,nan,nan,nan
1,128,1,1,1.0,1.0,0.332443927939,0,0.0,0.0,0.0,0.288944398003,0.0834311410906,0.205513256913,0.372375539094,0.0834311410906,0.359600298805,361,-0.166047812515,0.475607712818,0.0278173107143,nan,nan,nan,nan,nan,nan,nan,nan,1041.76062889,1196.33661973,nan,1196.66906366,nan,nan,nan,nan
1,129,1,1,1.0,1.0,0.302632550534,0,0.0,0.0,0.0,0.289284238081,0.0831927989385,0.206091439143,0.37247703702,0.0831927989385,0.32977647214,477,0.555879874869,0.337784025865,-1.0,nan,nan,nan,nan,nan,nan,nan,nan,1041.76062889,1197.27841676,nan,1197.58104931,nan,nan,nan,nan
1,130,1,1,1.0,1.0,0.312817615108,0,0.0,0.0,0.0,0.289387713371,0.0828779875589,0.206509725813,0.37226570093,0.0828779875589,0.31596469786,399,-0.0164460389312,0.472031251936,-0.400274523968,nan,nan,nan,nan,nan,nan,nan,nan,1041.76062889,1198.22020466,nan,1198.53302227,nan,nan,nan,nan
1,131,1,1,1.0,1.0,0.25898174441,0,0.0,0.0,0.0,0.289567943385,0.0825839844567,0.206983958928,0.372151927842,0.0825839844567,0.29147730335,146,1.0,-0.278792578557,0.0248813210997,nan,nan,nan,nan,nan,nan,nan,nan,1041.76062889,1199.16200311,nan,1199.42098485,nan,nan,nan,nan
1,132,1,1,1.0,1.0,0.245175672055,0,0.0,0.0,0.0,0.28933446095,0.0823112347875,0.207023226162,0.371645695737,0.0823112347875,0.272325010524,344,-0.172543464245,0.464730234515,0.195503824632,nan,nan,nan,nan,nan,nan,nan,nan,1041.76062889,1200.103795,nan,1200.34897067,nan,nan,nan,nan
1,133,1,1,1.0,1.0,0.303376651835,0,0.0,0.0,0.0,0.28899992467,0.0820882047632,0.206911719907,0.371088129434,0.0820882047632,0.269178022766,259,0.44882283482,0.268906983076,0.655011783756,nan,nan,nan,nan,nan,nan,nan,nan,1041.76062889,1201.04558376,nan,1201.34896041,nan,nan,nan,nan
1,134,1,1,1.0,1.0,0.321556956391,0,0.0,0.0,0.0,0.289108020363,0.0817884498301,0.207319570533,0.370896470193,0.0817884498301,0.29003642676,303,0.0191349273956,0.402522842081,0.512018356663,nan,nan,nan,nan,nan,nan,nan,nan,1041.76062889,1201.98737565,nan,1202.30893261,nan,nan,nan,nan
1,135,1,1,0.0,0.0,0.475772660808,0,0.0,0.0,0.0,0.289350176602,0.0815305407315,0.207819635871,0.370880717334,0.0815305407315,0.366902089678,95,1.0,-0.253175017597,-0.514975443931,nan,nan,nan,nan,nan,nan,nan,nan,1041.76062889,1202.92913447,nan,1203.40490713,nan,nan,nan,nan
1,136,1,1,1.0,1.0,0.413917031838,0,0.0,1.0,0.0,0.290731083893,0.0827859625824,0.20794512131,0.373517046475,0.0827859625824,0.403748883012,344,-0.172543464245,0.464730234515,0.195503824632,nan,nan,nan,nan,nan,nan,nan,nan,1041.76062889,1203.87096086,nan,1204.28487789,nan,nan,nan,nan
1,137,1,1,1.0,1.0,0.328072546748,1,0.0,0.0,1.0,0.291636862922,0.0831497499473,0.208487112974,0.374786612869,0.0831497499473,0.405920746465,13,0.950262168777,0.154664060346,-1.0,67.1386600163,22.8613399837,13.7207149837,33.0,1.0,0.0565990290419,-1.0,1.63390815398,1041.76062889,1204.81275447,1205.62116977,1205.14082701,1208.29648844,1209.29436305,1206.64629929,1208.28817047
1,138,1,1,1.0,1.0,0.278377129347,0,0.0,0.0,0.0,0.291902816818,0.0829037641657,0.208999052653,0.374806580984,0.0829037641657,0.340122235978,456,0.383612429175,0.392633185378,-1.0,nan,nan,nan,nan,nan,nan,nan,nan,1041.76062889,1209.43837088,nan,1209.71674801,nan,nan,nan,nan
1,139,1,1,1.0,1.0,0.264572197339,0,0.0,0.0,0.0,0.29180480459,0.0826108079745,0.209193996616,0.374415612565,0.0826108079745,0.290340624478,208,0.97651257568,0.025020743352,0.522574479073,nan,nan,nan,nan,nan,nan,nan,nan,1041.76062889,1210.38016534,nan,1210.64473754,nan,nan,nan,nan
1,140,1,1,1.0,1.0,0.23475084157,0,0.0,0.0,0.0,0.291608886552,0.0823452798828,0.20926360667,0.373954166435,0.0823452798828,0.259233389418,65,1.0,-0.113312155659,-1.0,nan,nan,nan,nan,nan,nan,nan,nan,1041.76062889,1211.32196122,nan,1211.55671206,nan,nan,nan,nan
1,141,1,1,1.0,1.0,0.252941694693,0,0.0,0.0,0.0,0.29120275766,0.0821902547717,0.209012502888,0.373393012431,0.0821902547717,0.2507549112,404,0.0124894593597,0.468746268022,-0.463349101315,nan,nan,nan,nan,nan,nan,nan,nan,1041.76062889,1212.26375369,nan,1212.51669538,nan,nan,nan,nan
1,142,1,1,1.0,1.0,0.207126722729,0,0.0,0.0,0.0,0.290931402603,0.0819611931926,0.208970209411,0.372892595796,0.0819611931926,0.231606419664,110,1.0,-0.296722754836,-0.346921960777,nan,nan,nan,nan,nan,nan,nan,nan,1041.76062889,1213.20554757,nan,1213.4126743,nan,nan,nan,nan
1,143,0,0,1.0,0.0,0.217309791595,0,0.0,0.0,0.0,0.290341228801,0.0819721959376,0.208369032864,0.372313424739,0.0819721959376,0.225792736339,483,0.606025706087,0.319314454546,-1.0,nan,nan,nan,nan,nan,nan,nan,nan,1041.76062889,1214.14733776,nan,1214.36464755,nan,nan,nan,nan
1,144,1,1,1.0,1.0,0.227494571067,0,0.0,0.0,0.0,0.28983051945,0.0819114694255,0.207919050025,0.371741988876,0.0819114694255,0.217310361797,18,0.988682696815,0.131162580546,-1.0,nan,nan,nan,nan,nan,nan,nan,nan,1041.76062889,1215.0891345,nan,1215.31662907,nan,nan,nan,nan
1,145,1,1,1.0,1.0,0.293665417237,0,0.0,0.0,0.0,0.28939763092,0.0817905390352,0.207607091885,0.371188169955,0.0817905390352,0.2461565933,243,0.622151010882,0.20168048164,0.647463484622,nan,nan,nan,nan,nan,nan,nan,nan,1041.76062889,1216.03093238,nan,1216.32459779,nan,nan,nan,nan
1,146,1,1,1.0,1.0,0.319860348478,0,0.0,0.0,0.0,0.289427063929,0.0815087799833,0.207918283946,0.370935843912,0.0815087799833,0.280340112261,363,-0.162287729338,0.476365729747,0.00704812682028,nan,nan,nan,nan,nan,nan,nan,nan,1041.76062889,1216.97271315,nan,1217.2925735,nan,nan,nan,nan
1,147,1,1,1.0,1.0,0.338043503987,0,0.0,0.0,0.0,0.289635511083,0.0812679323587,0.208367578725,0.370903443442,0.0812679323587,0.317189756567,10,0.926811495151,0.168400576072,-1.0,nan,nan,nan,nan,nan,nan,nan,nan,1041.76062889,1217.91451873,nan,1218.25256223,nan,nan,nan,nan
1,148,1,1,1.0,1.0,0.332237518276,0,0.0,0.0,0.0,0.289964817157,0.081088723135,0.208876094022,0.371053540292,0.081088723135,0.33004712358,452,0.351738073422,0.401406211611,-1.0,nan,nan,nan,nan,nan,nan,nan,nan,1041.76062889,1218.85630292,nan,1219.18854044,nan,nan,nan,nan
1,149,1,1,1.0,1.0,0.550408870855,0,0.0,1.0,0.0,0.290250443516,0.0808884749814,0.209361968535,0.371138918498,0.0808884749814,0.406896631039,370,-0.144805996584,0.478178727438,-0.0671803333712,nan,nan,nan,nan,nan,nan,nan,nan,1041.76062889,1219.79809938,nan,1220.34850825,nan,nan,nan,nan
1,150,1,1,1.0,1.0,0.0886427050573,1,0.0,0.0,1.0,0.29199647323,0.0833680317887,0.208628441441,0.375364505019,0.0833680317887,0.323763031396,122,1.0,-0.311159539646,-0.219144224573,6.43265392414,83.5673460759,-2.21390392414,119.0,1.0,-0.309446327048,-0.250710895617,1.10873971198,1041.76062889,1220.73987702,1221.54831028,1220.82851972,1223.69855345,1224.70680841,1222.57342868,1223.69021695
1,151,1,1,1.0,1.0,0.235637205886,0,0.0,0.0,0.0,0.290640781442,0.0847215497938,0.205919231648,0.375362331236,0.0847215497938,0.291562927266,197,1.0,-0.035797595552,0.455774741445,nan,nan,nan,nan,nan,nan,nan,nan,1041.76062889,1224.84877039,nan,1225.0844076,nan,nan,nan,nan
1,152,1,1,1.0,1.0,0.237806503428,0,0.0,0.0,0.0,0.290276519352,0.0845583190548,0.205718200298,0.374834838407,0.0845583190548,0.187362138124,323,-0.11001989341,0.43965344528,0.375855360355,nan,nan,nan,nan,nan,nan,nan,nan,1041.76062889,1225.79056514,nan,1226.02837164,nan,nan,nan,nan
1,153,1,1,1.0,1.0,0.255997926812,0,0.0,0.0,0.0,0.289931321879,0.0843863880261,0.205544933853,0.374317709905,0.0843863880261,0.243147212042,202,1.0,-0.00802826454356,0.487596984314,nan,nan,nan,nan,nan,nan,nan,nan,1041.76062889,1226.73236074,nan,1226.98835866,nan,nan,nan,nan
1,154,1,1,1.0,1.0,0.202235610981,0,0.0,0.0,0.0,0.289709534983,0.0841545981213,0.205554936862,0.373864133105,0.0841545981213,0.232013347074,456,0.383612429175,0.392633185378,-1.0,nan,nan,nan,nan,nan,nan,nan,nan,1041.76062889,1227.67415634,nan,1227.87639195,nan,nan,nan,nan
1,155,1,1,1.0,1.0,0.22838008008,0,0.0,0.0,0.0,0.28914152249,0.0841746579378,0.204966864552,0.373316180428,0.0841746579378,0.228871205957,17,0.981069150956,0.135921910835,-1.0,nan,nan,nan,nan,nan,nan,nan,nan,1041.76062889,1228.61594082,nan,1228.8443209,nan,nan,nan,nan
1,156,1,1,1.0,1.0,0.222558128997,0,0.0,0.0,0.0,0.288749513184,0.0840435978192,0.204705915365,0.372793111003,0.0840435978192,0.217724606686,409,0.0429436170054,0.464793150178,-0.529461854507,nan,nan,nan,nan,nan,nan,nan,nan,1041.76062889,1229.55773128,nan,1229.78028941,nan,nan,nan,nan
1,157,1,1,1.0,1.0,0.208760039299,0,0.0,0.0,0.0,0.288325209439,0.0839401800093,0.20438502943,0.372265389449,0.0839401800093,0.219899416125,244,0.611372359265,0.206163547436,0.648880721676,nan,nan,nan,nan,nan,nan,nan,nan,1041.76062889,1230.49952574,nan,1230.70828578,nan,nan,nan,nan
1,158,1,1,1.0,1.0,0.194941137626,0,0.0,0.0,0.0,0.287818424916,0.0839115051677,0.203906919748,0.371729930084,0.0839115051677,0.208753101974,100,1.0,-0.270427092546,-0.457439896749,nan,nan,nan,nan,nan,nan,nan,nan,1041.76062889,1231.44132077,nan,1231.63626191,nan,nan,nan,nan
1,159,1,1,1.0,1.0,0.269113496004,0,0.0,0.0,0.0,0.287230593984,0.0839692033726,0.203261390611,0.371199797356,0.0839692033726,0.224271557643,262,0.416452475899,0.2804144186,0.652815538838,nan,nan,nan,nan,nan,nan,nan,nan,1041.76062889,1232.38310981,nan,1232.65222331,nan,nan,nan,nan
1,160,1,1,1.0,1.0,0.287312331842,0,0.0,0.0,0.0,0.287116649971,0.0837169853853,0.203399664586,0.370833635357,0.0837169853853,0.250455655158,338,-0.162891363375,0.458928707883,0.250399161362,nan,nan,nan,nan,nan,nan,nan,nan,1041.76062889,1233.32490342,nan,1233.61221575,nan,nan,nan,nan
1,161,1,1,1.0,1.0,0.297491124191,0,0.0,0.0,0.0,0.287117872983,0.0834549611741,0.203662911809,0.370572834157,0.0834549611741,0.284638984012,454,0.367627362238,0.397084843583,-1.0,nan,nan,nan,nan,nan,nan,nan,nan,1041.76062889,1234.26669873,nan,1234.56418985,nan,nan,nan,nan
1,162,1,1,1.0,1.0,0.267650381895,0,0.0,0.0,0.0,0.287182303115,0.0831993722773,0.203982930837,0.370381675392,0.0831993722773,0.284151279309,219,0.871627318206,0.0840881726889,0.576959667802,nan,nan,nan,nan,nan,nan,nan,nan,1041.76062889,1235.20848692,nan,1235.4761373,nan,nan,nan,nan
1,163,0,0,1.0,0.0,0.301855092985,0,0.0,0.0,0.0,0.2870617357,0.082956293868,0.204105441832,0.370018029568,0.082956293868,0.288998866357,383,-0.0968787136249,0.478131214543,-0.211081409456,nan,nan,nan,nan,nan,nan,nan,nan,1041.76062889,1236.15028708,nan,1236.45214217,nan,nan,nan,nan
1,164,1,1,1.0,1.0,0.280030687747,0,0.0,0.0,0.0,0.287152492493,0.0827095021646,0.204442990328,0.369861994658,0.0827095021646,0.283178720875,447,0.312467642152,0.411646472288,-1.0,nan,nan,nan,nan,nan,nan,nan,nan,1041.76062889,1237.09208182,nan,1237.37211251,nan,nan,nan,nan
1,165,1,1,1.0,1.0,0.314217152656,0,0.0,0.0,0.0,0.287109066854,0.0824588173564,0.204650249498,0.369567884211,0.0824588173564,0.298700977796,491,0.673033477965,0.292707709811,-1.0,nan,nan,nan,nan,nan,nan,nan,nan,1041.76062889,1238.03386858,nan,1238.34808574,nan,nan,nan,nan
1,166,1,1,1.0,1.0,0.444451128365,0,0.0,0.0,0.0,0.287273358283,0.0822354811907,0.205037877093,0.369508839474,0.0822354811907,0.34623298959,117,1.0,-0.307587969795,-0.271886539361,nan,nan,nan,nan,nan,nan,nan,nan,1041.76062889,1238.97565648,nan,1239.42010761,nan,nan,nan,nan
1,167,1,1,1.0,1.0,0.31860136328,0,0.0,0.0,0.0,0.28822021232,0.0828846381301,0.20533557419,0.37110485045,0.0828846381301,0.359089881434,175,1.0,-0.155629953633,0.290361762956,nan,nan,nan,nan,nan,nan,nan,nan,1041.76062889,1239.91745322,nan,1240.23605459,nan,nan,nan,nan
1,168,1,1,1.0,1.0,0.264785734471,0,0.0,0.0,0.0,0.28840213538,0.0826693429772,0.205732792402,0.371071478357,0.0826693429772,0.342612742039,300,0.0433537089178,0.395748422077,0.528951029102,nan,nan,nan,nan,nan,nan,nan,nan,1041.76062889,1240.85924939,nan,1241.12403513,nan,nan,nan,nan
1,169,1,1,1.0,1.0,0.314960683812,0,0.0,0.0,0.0,0.288261561565,0.0824429528359,0.205818608729,0.370704514401,0.0824429528359,0.299449260521,392,-0.0541067903503,0.475522277549,-0.315549842675,nan,nan,nan,nan,nan,nan,nan,nan,1041.76062889,1241.80104072,nan,1242.1160014,nan,nan,nan,nan
1,170,1,1,1.0,1.0,0.325149454642,0,0.0,0.0,0.0,0.288419544537,0.0822241784964,0.20619536604,0.370643723033,0.0822241784964,0.301631957642,240,0.654373017221,0.188015059697,0.642463954019,nan,nan,nan,nan,nan,nan,nan,nan,1041.76062889,1242.74283204,nan,1243.06798149,nan,nan,nan,nan
1,171,1,1,1.0,1.0,0.367340282653,0,0.0,0.0,0.0,0.288635602831,0.0820300868392,0.206605515992,0.370665689671,0.0820300868392,0.335816807036,287,0.159501648714,0.36255249221,0.590751920292,nan,nan,nan,nan,nan,nan,nan,nan,1041.76062889,1243.68462365,nan,1244.05196393,nan,nan,nan,nan
1,172,1,1,1.0,1.0,0.305485223886,0,0.0,0.0,0.0,0.289095864117,0.0820097404311,0.207086123686,0.371105604548,0.0820097404311,0.332658320394,482,0.597655625539,0.322480811492,-1.0,nan,nan,nan,nan,nan,nan,nan,nan,1041.76062889,1244.6264181,nan,1244.93190333,nan,nan,nan,nan
1,173,1,1,1.0,1.0,0.267702839628,0,0.0,0.0,0.0,0.289191151092,0.0817804856142,0.207410665478,0.370971636707,0.0817804856142,0.313509448722,96,1.0,-0.25681952169,-0.503302481145,nan,nan,nan,nan,nan,nan,nan,nan,1041.76062889,1245.56821484,nan,1245.83591768,nan,nan,nan,nan
1,174,1,1,1.0,1.0,0.325898117386,0,0.0,0.0,0.0,0.289066941199,0.0815600528694,0.20750688833,0.370626994069,0.0815600528694,0.299695393633,173,1.0,-0.165909522591,0.273535192888,nan,nan,nan,nan,nan,nan,nan,nan,1041.76062889,1246.51000417,nan,1246.83590229,nan,nan,nan,nan
1,175,1,1,1.0,1.0,0.27208590979,0,0.0,0.0,0.0,0.289278614626,0.0813729898183,0.207905624808,0.370651604444,0.0813729898183,0.288562288935,2,0.863024578927,0.203622855609,-1.0,nan,nan,nan,nan,nan,nan,nan,nan,1041.76062889,1247.45179179,nan,1247.7238777,nan,nan,nan,nan
1,176,1,1,1.0,1.0,0.202267541783,0,0.0,0.0,0.0,0.289180370598,0.0811505107506,0.208029859848,0.370330881349,0.0811505107506,0.266750522986,49,1.0,-0.027785429985,-1.0,nan,nan,nan,nan,nan,nan,nan,nan,1041.76062889,1248.3935928,nan,1248.59586035,nan,nan,nan,nan
1,177,0,0,1.0,0.0,0.300447572663,0,0.0,0.0,0.0,0.288686547707,0.0811829046187,0.207503643089,0.369869452326,0.0811829046187,0.258267008079,179,1.0,-0.13461441766,0.323204131591,nan,nan,nan,nan,nan,nan,nan,nan,1041.76062889,1249.33538498,nan,1249.63583255,nan,nan,nan,nan
1,178,1,1,1.0,1.0,0.00660397019237,0,0.0,0.0,0.0,0.288752994176,0.0809580488643,0.207794945312,0.36971104304,0.0809580488643,0.169773028213,44,1.0,-0.00106984144607,-1.0,nan,nan,nan,nan,nan,nan,nan,nan,1041.76062889,1250.27717203,nan,1250.283776,nan,nan,nan,nan
1,179,1,1,1.0,1.0,0.216835676518,0,0.0,0.0,0.0,0.2871678873,0.0834392478991,0.2037286394,0.370607135199,0.0834392478991,0.174629073124,343,-0.171388175652,0.463836419185,0.204822810802,nan,nan,nan,nan,nan,nan,nan,nan,1041.76062889,1251.2189605,nan,1251.43579618,nan,nan,nan,nan
1,180,1,1,1.0,1.0,0.259011679562,0,1.0,0.0,0.0,0.286774969921,0.0833708222054,0.203404147716,0.370145792126,0.0833708222054,0.160817108757,165,1.0,-0.205056383665,0.203745440608,nan,nan,nan,nan,nan,nan,nan,nan,1041.76062889,1252.16076066,nan,1252.41977234,nan,nan,nan,nan
1,181,1,1,1.0,1.0,0.317199544865,1,0.0,0.0,1.0,0.286620729419,0.0831645204535,0.203456208965,0.369785249872,0.0831645204535,0.264348966981,35,1.0,0.0462653595507,-1.0,77.5645584975,12.4354415025,-12.1739334975,18.0,0.988682696815,0.131162580546,-1.0,2.08391324291,1041.76062889,1253.10255341,1253.91096785,1253.41975295,1257.02801071,1258.02767601,1254.92773294,1257.01967792
1,182,1,1,1.0,1.0,0.265724556462,0,0.0,0.0,0.0,0.286789673151,0.0829654338282,0.203824239322,0.369755106979,0.0829654338282,0.280645260296,223,0.83172397378,0.104890589731,0.593432239612,nan,nan,nan,nan,nan,nan,nan,nan,1041.76062889,1258.16989571,nan,1258.43562027,nan,nan,nan,nan
1,183,1,1,1.0,1.0,0.227916798613,0,0.0,0.0,0.0,0.286673930751,0.0827518447747,0.203922085977,0.369425775526,0.0827518447747,0.27028029998,330,-0.139766326074,0.449518327743,0.319540245599,nan,nan,nan,nan,nan,nan,nan,nan,1041.76062889,1259.11168732,nan,1259.33960412,nan,nan,nan,nan
1,184,0,0,1.0,0.0,0.166109921178,0,0.0,0.0,0.0,0.286352853526,0.0826390359168,0.20371381761,0.368991889443,0.0826390359168,0.219917092084,52,1.0,-0.0438860552364,-1.0,nan,nan,nan,nan,nan,nan,nan,nan,1041.76062889,1260.05348577,nan,1260.21959569,nan,nan,nan,nan
1,185,1,1,1.0,1.0,0.232292171218,0,0.0,0.0,0.0,0.285699359329,0.0828869470305,0.202812412298,0.368586306359,0.0828869470305,0.20877296367,307,-0.0113868739462,0.411053355611,0.487957006857,nan,nan,nan,nan,nan,nan,nan,nan,1041.76062889,1260.99527168,nan,1261.22756385,nan,nan,nan,nan
1,186,1,1,1.0,1.0,0.290451812034,0,0.0,0.0,0.0,0.285410671826,0.0827553271431,0.202655344683,0.368165998969,0.0827553271431,0.229617968143,356,-0.17284377641,0.473239407326,0.0788368070227,nan,nan,nan,nan,nan,nan,nan,nan,1041.76062889,1261.93706414,nan,1262.22751595,nan,nan,nan,nan
1,187,1,1,1.0,1.0,0.300640867907,0,0.0,0.0,0.0,0.28543777473,0.0825333900504,0.20290438468,0.36797116478,0.0825333900504,0.274461617053,42,1.0,0.00954878589686,-1.0,nan,nan,nan,nan,nan,nan,nan,nan,1041.76062889,1262.87885347,nan,1263.17949434,nan,nan,nan,nan
1,188,1,1,1.0,1.0,0.310809396906,0,0.0,0.0,0.0,0.285519074693,0.0823198842799,0.203199190414,0.367838958973,0.0823198842799,0.300634025615,164,1.0,-0.209685835145,0.194761549991,nan,nan,nan,nan,nan,nan,nan,nan,1041.76062889,1263.82065249,nan,1264.13146189,nan,nan,nan,nan
1,189,1,1,1.0,1.0,0.312994374777,0,0.0,0.0,0.0,0.285653597684,0.0821212629681,0.203532334716,0.367774860652,0.0821212629681,0.308148213197,479,0.572572153349,0.331768222426,-1.0,nan,nan,nan,nan,nan,nan,nan,nan,1041.76062889,1264.76244723,nan,1265.07544161,nan,nan,nan,nan
1,190,1,1,1.0,1.0,0.339179327537,0,0.0,0.0,0.0,0.28579825788,0.0819277364926,0.203870521388,0.367725994373,0.0819277364926,0.320994366407,215,0.910639861846,0.0628947364355,0.558695148714,nan,nan,nan,nan,nan,nan,nan,nan,1041.76062889,1265.70424055,nan,1266.04341988,nan,nan,nan,nan
1,191,1,1,1.0,1.0,0.301366723026,0,0.0,0.0,0.0,0.286079210878,0.0818030899015,0.204276120977,0.36788230078,0.0818030899015,0.317846808447,54,1.0,-0.0546292063271,-1.0,nan,nan,nan,nan,nan,nan,nan,nan,1041.76062889,1266.64603102,nan,1266.94739774,nan,nan,nan,nan
1,192,1,1,1.0,1.0,0.247591292777,0,0.0,0.0,0.0,0.286159250209,0.0815961236612,0.204563126548,0.36775537387,0.0815961236612,0.296045781113,316,-0.0718215561597,0.428203514031,0.427892255365,nan,nan,nan,nan,nan,nan,nan,nan,1041.76062889,1267.58782092,nan,1267.83541221,nan,nan,nan,nan
1,193,1,1,1.0,1.0,0.233746162208,0,0.0,0.0,0.0,0.285958375431,0.0814306924358,0.204527682995,0.367389067866,0.0814306924358,0.26090139267,375,-0.128556699755,0.478682433309,-0.121605159467,nan,nan,nan,nan,nan,nan,nan,nan,1041.76062889,1268.52961366,nan,1268.76335983,nan,nan,nan,nan
1,194,1,1,1.0,1.0,0.227956141927,0,0.0,0.0,0.0,0.285687845829,0.0813059170045,0.204381928824,0.366993762833,0.0813059170045,0.236431198971,450,0.335949728395,0.405598329481,-1.0,nan,nan,nan,nan,nan,nan,nan,nan,1041.76062889,1269.47140841,nan,1269.69936455,nan,nan,nan,nan
1,195,1,1,1.0,1.0,0.270153812307,0,0.0,0.0,0.0,0.285390259726,0.0812014052139,0.204188854512,0.36659166494,0.0812014052139,0.243952038814,341,-0.168535884224,0.46196150489,0.223260112086,nan,nan,nan,nan,nan,nan,nan,nan,1041.76062889,1270.41319859,nan,1270.6833524,nan,nan,nan,nan
1,196,1,1,1.0,1.0,0.224302633142,0,0.0,0.0,0.0,0.285312124098,0.0810002403071,0.204311883791,0.366312364405,0.0810002403071,0.240804195792,454,0.367627362238,0.397084843583,-1.0,nan,nan,nan,nan,nan,nan,nan,nan,1041.76062889,1271.35499077,nan,1271.5792934,nan,nan,nan,nan
1,197,1,1,1.0,1.0,0.13852001389,0,0.0,0.0,0.0,0.285000851185,0.0809101844797,0.204090666705,0.365911035665,0.0809101844797,0.210992153113,336,-0.158211608236,0.456758111158,0.268135266647,nan,nan,nan,nan,nan,nan,nan,nan,1041.76062889,1272.29678523,nan,1272.43530524,nan,nan,nan,nan
1,198,1,1,1.0,1.0,0.172698781244,0,1.0,0.0,0.0,0.284257293635,0.0813731605392,0.202884133096,0.365630454175,0.0813731605392,0.178507142758,430,0.184725017221,0.440645728776,-0.941904167281,nan,nan,nan,nan,nan,nan,nan,nan,1041.76062889,1273.23857113,nan,1273.41126991,nan,nan,nan,nan
1,199,0,0,1.0,0.0,0.166880536417,0,0.0,0.0,0.0,0.283693866805,0.0815517411542,0.202142125651,0.365245607959,0.0815517411542,0.15936644385,132,1.0,-0.307426825298,-0.115555361894,nan,nan,nan,nan,nan,nan,nan,nan,1041.76062889,1274.18036759,nan,1274.34724812,nan,nan,nan,nan
1,200,1,1,1.0,1.0,0.113087430189,0,0.0,0.0,0.0,0.283106865145,0.0817648518504,0.201342013295,0.364871716995,0.0817648518504,0.15088891595,44,1.0,-0.00106984144607,-1.0,nan,nan,nan,nan,nan,nan,nan,nan,1041.76062889,1275.12216261,nan,1275.23525005,nan,nan,nan,nan
1,201,1,1,1.0,1.0,0.15526257793,0,0.0,0.0,0.0,0.28225676797,0.0824370906767,0.199819677293,0.364693858647,0.0824370906767,0.145076848178,465,0.456588679398,0.37096152752,-1.0,nan,nan,nan,nan,nan,nan,nan,nan,1041.76062889,1276.06395593,nan,1276.21921851,nan,nan,nan,nan
1,202,1,1,1.0,1.0,0.22143399436,0,1.0,0.0,0.0,0.281624956079,0.0827157835862,0.198909172493,0.364340739666,0.0827157835862,0.16326133416,153,1.0,-0.255547855702,0.0926213922694,nan,nan,nan,nan,nan,nan,nan,nan,1041.76062889,1277.0057484,nan,1277.22718239,nan,nan,nan,nan
1,203,1,1,1.0,1.0,0.223637503514,1,0.0,0.0,1.0,0.281326981021,0.0826188639122,0.198708117109,0.363945844934,0.0826188639122,0.200111358601,80,1.0,-0.189075709245,-0.708965549488,5.65442082264,84.3455791774,28.0955791774,120.0,1.0,-0.310161497659,-0.240162905937,2.64231906441,1041.76062889,1277.94753202,1278.75595787,1278.17116952,1282.43142023,1283.43954291,1279.77272438,1282.42307375
1,204,1,1,1.0,1.0,0.26941455761,0,0.0,0.0,0.0,0.281042796403,0.082514031335,0.198528765068,0.363556827738,0.082514031335,0.238162018495,18,0.988682696815,0.131162580546,-1.0,nan,nan,nan,nan,nan,nan,nan,nan,1041.76062889,1283.58162093,nan,1283.85103548,nan,nan,nan,nan
1,205,1,1,1.0,1.0,0.311598258268,0,0.0,0.0,0.0,0.280985795233,0.0823155490828,0.19867024615,0.363301344315,0.0823155490828,0.26821677313,309,-0.0258396312562,0.415106541901,0.475305697888,nan,nan,nan,nan,nan,nan,nan,nan,1041.76062889,1284.52342137,nan,1284.83501963,nan,nan,nan,nan
1,206,1,1,1.0,1.0,0.321800428617,0,0.0,0.0,0.0,0.28113512432,0.0821422286515,0.198992895669,0.363277352972,0.0821422286515,0.300937748165,409,0.0429436170054,0.464793150178,-0.529461854507,nan,nan,nan,nan,nan,nan,nan,nan,1041.76062889,1285.465203,nan,1285.78700343,nan,nan,nan,nan
1,207,1,1,1.0,1.0,0.291987625649,0,0.0,0.0,0.0,0.28133252871,0.081991342003,0.199341186707,0.363323870713,0.081991342003,0.308462104178,75,1.0,-0.164714458691,-0.791355921409,nan,nan,nan,nan,nan,nan,nan,nan,1041.76062889,1286.40699375,nan,1286.69898138,nan,nan,nan,nan
1,208,1,1,1.0,1.0,0.302162141656,0,0.0,0.0,0.0,0.281384002609,0.0817963919778,0.199587610631,0.363180394586,0.0817963919778,0.305316731974,331,-0.143297839787,0.450801753776,0.311166711333,nan,nan,nan,nan,nan,nan,nan,nan,1041.76062889,1287.34879962,nan,1287.65096176,nan,nan,nan,nan
1,209,1,1,1.0,1.0,0.304334860411,0,0.0,0.0,0.0,0.281483897508,0.081612185404,0.199871712104,0.363096082912,0.081612185404,0.299494875905,450,0.335949728395,0.405598329481,-1.0,nan,nan,nan,nan,nan,nan,nan,nan,1041.76062889,1288.29059493,nan,1288.59492979,nan,nan,nan,nan
1,210,0,0,0.0,1.0,0.426517717191,0,0.0,0.0,0.0,0.281593232259,0.0814319753051,0.200161256953,0.363025207564,0.0814319753051,0.344338239753,317,-0.077772836126,0.429938605076,0.420733606481,nan,nan,nan,nan,nan,nan,nan,nan,1041.76062889,1289.23238511,nan,1289.65890283,nan,nan,nan,nan
1,211,1,1,1.0,1.0,0.244640831428,0,0.0,0.0,0.0,0.282283348853,0.0818482018704,0.200435146983,0.364131550724,0.0818482018704,0.325164469677,50,1.0,-0.033148730948,-1.0,nan,nan,nan,nan,nan,nan,nan,nan,1041.76062889,1290.17423659,nan,1290.41887742,nan,nan,nan,nan
1,212,1,1,1.0,1.0,0.254906578222,0,0.0,0.0,0.0,0.282104948297,0.0816949346423,0.200410013655,0.363799882939,0.0816949346423,0.308688375614,406,0.0244967455079,0.467245700284,-0.489366101921,nan,nan,nan,nan,nan,nan,nan,nan,1041.76062889,1291.11596833,nan,1291.37087491,nan,nan,nan,nan
1,213,1,1,1.0,1.0,0.265109603817,0,0.0,0.0,0.0,0.281976654098,0.0815233331858,0.200453320913,0.363499987284,0.0815233331858,0.254885671156,181,1.0,-0.123914391386,0.3392011262,nan,nan,nan,nan,nan,nan,nan,nan,1041.76062889,1292.05776193,nan,1292.32287154,nan,nan,nan,nan
1,214,1,1,1.0,1.0,0.275269579899,0,0.0,0.0,0.0,0.281897466069,0.0813399109951,0.200557555074,0.363237377064,0.0813399109951,0.265095253979,507,0.805995650865,0.232688349973,-1.0,nan,nan,nan,nan,nan,nan,nan,nan,1041.76062889,1292.99955468,nan,1293.27482426,nan,nan,nan,nan
1,215,1,1,1.0,1.0,0.261461796996,0,0.0,0.0,0.0,0.281866494638,0.0811509008106,0.200715593828,0.363017395449,0.0811509008106,0.267280326904,464,0.448404880525,0.373503555275,-1.0,nan,nan,nan,nan,nan,nan,nan,nan,1041.76062889,1293.94134372,nan,1294.20280552,nan,nan,nan,nan
1,216,1,1,1.0,1.0,0.239644519112,0,0.0,0.0,0.0,0.281771589068,0.0809738607687,0.200797728299,0.362745449837,0.0809738607687,0.258791965335,407,0.0305886347219,0.46645515455,-0.502577406972,nan,nan,nan,nan,nan,nan,nan,nan,1041.76062889,1294.88313989,nan,1295.12278441,nan,nan,nan,nan
1,217,1,1,1.0,1.0,0.273826422519,0,0.0,0.0,0.0,0.281576556337,0.0808368038012,0.200739752535,0.362413360138,0.0808368038012,0.258310912875,322,-0.105067232891,0.43811622051,0.383559350674,nan,nan,nan,nan,nan,nan,nan,nan,1041.76062889,1295.82492181,nan,1296.09874823,nan,nan,nan,nan
1,218,1,1,1.0,1.0,0.492026569846,0,0.0,0.0,0.0,0.281540841434,0.0806520368983,0.200888804536,0.362192878332,0.0806520368983,0.335165837159,38,1.0,0.0306259494545,-1.0,nan,nan,nan,nan,nan,nan,nan,nan,1041.76062889,1296.76671113,nan,1297.2587377,nan,nan,nan,nan
1,219,1,1,1.0,1.0,0.310140561021,0,0.0,0.0,0.0,0.282506372298,0.0817142029617,0.200792169337,0.36422057526,0.0817142029617,0.358664517795,292,0.112881669716,0.376069582356,0.569261850688,nan,nan,nan,nan,nan,nan,nan,nan,1041.76062889,1297.70856118,nan,1298.01870175,nan,nan,nan,nan
1,220,1,1,1.0,1.0,0.328390714189,0,0.0,1.0,0.0,0.282632555809,0.0815487122801,0.201083843529,0.364181268089,0.0815487122801,0.376852615019,419,0.107894673663,0.454841969249,-0.678098861371,nan,nan,nan,nan,nan,nan,nan,nan,1041.76062889,1298.65030889,nan,1298.9786996,nan,nan,nan,nan
1,221,1,1,1.0,1.0,0.274569098372,1,0.0,0.0,1.0,0.282840547438,0.0814213631691,0.201419184269,0.364261910607,0.0814213631691,0.304366791194,118,1.0,-0.308588151016,-0.261285249573,-12.6803834918,102.680383492,19.7116334918,146.0,1.0,-0.278792578557,0.0248813210997,2.56740716624,1041.76062889,1299.59210078,1300.40057966,1299.86666988,1304.00931951,1305.01385197,1301.4256476,1304.00099641
1,222,1,1,1.0,1.0,0.299031499424,0,0.0,0.0,0.0,0.282803120066,0.081238839845,0.201564280221,0.364041959911,0.081238839845,0.300663770662,37,1.0,0.0358565504353,-1.0,nan,nan,nan,nan,nan,nan,nan,nan,1041.76062889,1305.15951279,nan,1305.45854429,nan,nan,nan,nan
1,223,1,1,1.0,1.0,0.261214903556,0,0.0,0.0,0.0,0.282876220874,0.0810629475391,0.201813273335,0.363939168413,0.0810629475391,0.278271833784,457,0.391639248186,0.390358177281,-1.0,nan,nan,nan,nan,nan,nan,nan,nan,1041.76062889,1306.10130868,nan,1306.36252358,nan,nan,nan,nan
1,224,0,0,1.0,0.0,0.223410851962,0,0.0,0.0,0.0,0.282779084922,0.0808939358041,0.201885149118,0.363673020726,0.0808939358041,0.261219084981,315,-0.0657111424032,0.426434809442,0.434956515233,nan,nan,nan,nan,nan,nan,nan,nan,1041.76062889,1307.04309287,nan,1307.26650372,nan,nan,nan,nan
1,225,1,1,1.0,1.0,0.241599709436,0,0.0,0.0,0.0,0.282514048168,0.0808101469341,0.201703901234,0.363324195102,0.0808101469341,0.242075154985,384,-0.0924750057551,0.477945316949,-0.222479273925,nan,nan,nan,nan,nan,nan,nan,nan,1041.76062889,1307.98489018,nan,1308.22648989,nan,nan,nan,nan
1,226,0,0,1.0,0.0,0.275727729604,0,0.0,0.0,0.0,0.282332206662,0.0806762867276,0.201655919935,0.36300849339,0.0806762867276,0.246912763667,302,0.027086081288,0.400300843718,0.517770016443,nan,nan,nan,nan,nan,nan,nan,nan,1041.76062889,1308.9266892,nan,1309.20241693,nan,nan,nan,nan
1,227,1,1,1.0,1.0,0.245930892066,0,0.0,0.0,0.0,0.282302983313,0.0804987949985,0.201804188314,0.362801778311,0.0804987949985,0.254419443702,184,1.0,-0.107671891867,0.362640045218,nan,nan,nan,nan,nan,nan,nan,nan,1041.76062889,1309.86847283,nan,1310.11440372,nan,nan,nan,nan
1,228,1,1,1.0,1.0,0.360066621273,0,0.0,0.0,0.0,0.282142753836,0.0803573997943,0.201785354041,0.36250015363,0.0803573997943,0.293908414315,479,0.572572153349,0.331768222426,-1.0,nan,nan,nan,nan,nan,nan,nan,nan,1041.76062889,1310.81033115,nan,1311.17039777,nan,nan,nan,nan
1,229,1,1,1.0,1.0,0.314301256149,0,0.0,0.0,0.0,0.282484525184,0.0803461604356,0.202138364748,0.36283068562,0.0803461604356,0.306766256496,338,-0.162891363375,0.458928707883,0.250399161362,nan,nan,nan,nan,nan,nan,nan,nan,1041.76062889,1311.75205946,nan,1312.06636072,nan,nan,nan,nan
1,230,1,1,1.0,1.0,0.30851551221,0,0.0,0.0,0.0,0.282623462874,0.0801979847367,0.202425478137,0.362821447611,0.0801979847367,0.327627796544,394,-0.0437090198531,0.474655926729,-0.339401417396,nan,nan,nan,nan,nan,nan,nan,nan,1041.76062889,1312.69385164,nan,1313.00236715,nan,nan,nan,nan
1,231,0,0,0.0,1.0,0.398703724204,0,0.0,0.0,0.0,0.282736037001,0.0800415821424,0.202694454859,0.362777619144,0.0800415821424,0.340506830854,143,1.0,-0.287057525782,-0.00469998909502,nan,nan,nan,nan,nan,nan,nan,nan,1041.76062889,1313.6356384,nan,1314.03434213,nan,nan,nan,nan
1,232,1,1,1.0,1.0,0.240899227851,0,0.0,0.0,0.0,0.283238061621,0.0802302127665,0.203007848855,0.363468274388,0.0802302127665,0.316039488088,10,0.926811495151,0.168400576072,-1.0,nan,nan,nan,nan,nan,nan,nan,nan,1041.76062889,1314.57743201,nan,1314.81833123,nan,nan,nan,nan
1,233,1,1,1.0,1.0,0.259067843494,0,0.0,0.0,0.0,0.283055566648,0.0801051506316,0.202950416017,0.36316071728,0.0801051506316,0.299556931849,203,1.0,-0.00249325098487,0.493674673203,nan,nan,nan,nan,nan,nan,nan,nan,1041.76062889,1315.51924072,nan,1315.77830856,nan,nan,nan,nan
1,234,1,1,1.0,1.0,0.349249498278,0,0.0,0.0,0.0,0.282952615047,0.0799484463147,0.203004168732,0.362901061361,0.0799484463147,0.283072189874,416,0.087881616042,0.458117504295,-0.630165317015,nan,nan,nan,nan,nan,nan,nan,nan,1041.76062889,1316.4610252,nan,1316.8102747,nan,nan,nan,nan
1,235,1,1,1.0,1.0,0.287435778533,0,0.0,0.0,0.0,0.28323593506,0.0798945670459,0.203341368015,0.363130502106,0.0798945670459,0.298584373435,174,1.0,-0.160790688716,0.281981279739,nan,nan,nan,nan,nan,nan,nan,nan,1041.76062889,1317.40281652,nan,1317.6902523,nan,nan,nan,nan
1,236,1,1,1.0,1.0,0.31352151779,0,0.0,0.0,0.0,0.283253806735,0.079724866112,0.203528940623,0.362978672847,0.079724866112,0.3167355982,465,0.456588679398,0.37096152752,-1.0,nan,nan,nan,nan,nan,nan,nan,nan,1041.76062889,1318.34468881,nan,1318.65821033,nan,nan,nan,nan
1,237,1,1,1.0,1.0,0.427802931226,0,0.0,0.0,0.0,0.283382059748,0.0795800686071,0.203801991141,0.362962128355,0.0795800686071,0.34292007585,71,1.0,-0.144504067012,-0.877980773838,nan,nan,nan,nan,nan,nan,nan,nan,1041.76062889,1319.28640202,nan,1319.71420495,nan,nan,nan,nan
1,238,1,1,1.0,1.0,0.302008759871,0,0.0,0.0,0.0,0.283991430514,0.0799618682769,0.204029562237,0.36395329879,0.0799618682769,0.347777736296,274,0.289344050657,0.322900892411,0.632670269059,nan,nan,nan,nan,nan,nan,nan,nan,1041.76062889,1320.2281922,nan,1320.53020096,nan,nan,nan,nan
1,239,1,1,1.0,1.0,0.336175838253,0,0.0,0.0,0.0,0.284067133578,0.0798022147987,0.204264918779,0.363869348377,0.0798022147987,0.35532917645,488,0.647907709101,0.302951493728,-1.0,nan,nan,nan,nan,nan,nan,nan,nan,1041.76062889,1321.16998581,nan,1321.50616164,nan,nan,nan,nan
1,240,1,1,1.0,1.0,0.314359985932,0,0.0,0.0,0.0,0.284285161631,0.0797060920641,0.204579069567,0.363991253695,0.0797060920641,0.317514861352,408,0.036737934283,0.465637664749,-0.515938449969,nan,nan,nan,nan,nan,nan,nan,nan,1041.76062889,1322.11178055,nan,1322.42614053,nan,nan,nan,nan
1,241,1,1,1.0,1.0,0.340559478616,0,0.0,0.0,0.0,0.284410473399,0.0795634529827,0.204847020416,0.363973926382,0.0795634529827,0.330365100934,342,-0.170052622031,0.462913557708,0.21407524247,nan,nan,nan,nan,nan,nan,nan,nan,1041.76062889,1323.05356018,nan,1323.39411966,nan,nan,nan,nan
1,242,1,1,1.0,1.0,0.382729494653,0,0.0,0.0,0.0,0.284643456823,0.0794802086883,0.205163248135,0.364123665511,0.0794802086883,0.345882986401,187,1.0,-0.0912463489427,0.385383214542,nan,nan,nan,nan,nan,nan,nan,nan,1041.76062889,1323.99536234,nan,1324.37809183,nan,nan,nan,nan
1,243,0,0,0.0,1.0,0.480918648595,0,0.0,0.0,0.0,0.285048771029,0.0795650125639,0.205483758465,0.364613783593,0.0795650125639,0.401402540621,58,1.0,-0.0760896648475,-1.0,nan,nan,nan,nan,nan,nan,nan,nan,1041.76062889,1324.93715338,nan,1325.41807203,nan,nan,nan,nan
1,244,1,1,1.0,1.0,0.283042729949,0,0.0,0.0,0.0,0.285854819908,0.0803851378612,0.205469682047,0.366239957769,0.0803851378612,0.382230291065,288,0.150005133015,0.365331945294,0.586687239957,nan,nan,nan,nan,nan,nan,nan,nan,1041.76062889,1325.87901996,nan,1326.16206269,nan,nan,nan,nan
1,245,0,0,1.0,0.0,0.253320872725,0,0.0,0.0,0.0,0.285843294949,0.0802204462705,0.205622848679,0.36606374122,0.0802204462705,0.339094083756,156,1.0,-0.244060613314,0.121041471254,nan,nan,nan,nan,nan,nan,nan,nan,1041.76062889,1326.82073089,nan,1327.07405176,nan,nan,nan,nan
1,246,1,1,1.0,1.0,0.231499318499,0,0.0,0.0,0.0,0.285710550369,0.0800834124009,0.205627137968,0.365793962769,0.0800834124009,0.255954307058,353,-0.175041255135,0.471490071959,0.108799216003,nan,nan,nan,nan,nan,nan,nan,nan,1041.76062889,1327.76253105,nan,1327.99403037,nan,nan,nan,nan
1,247,1,1,1.0,1.0,0.321632506908,0,0.0,0.0,0.0,0.285490179507,0.0799948774228,0.205495302084,0.36548505693,0.0799948774228,0.268817566044,221,0.851781464038,0.0945411604707,0.585422935822,nan,nan,nan,nan,nan,nan,nan,nan,1041.76062889,1328.70432808,nan,1329.02596058,nan,nan,nan,nan
1,248,1,1,1.0,1.0,0.371829408628,0,0.0,0.0,0.0,0.285636504719,0.0798657618979,0.205770742822,0.365502266617,0.0798657618979,0.308320411345,62,1.0,-0.0974372467467,-1.0,nan,nan,nan,nan,nan,nan,nan,nan,1041.76062889,1329.64611313,nan,1330.01794253,nan,nan,nan,nan
1,249,1,1,1.0,1.0,0.326041235763,0,0.0,0.0,0.0,0.285984056751,0.0798915247756,0.206092531976,0.365875581527,0.0798915247756,0.339834383766,241,0.64365311028,0.192605941253,0.644254782112,nan,nan,nan,nan,nan,nan,nan,nan,1041.76062889,1330.5879053,nan,1330.91394654,nan,nan,nan,nan
1,250,1,1,1.0,1.0,0.432216506684,0,0.0,1.0,0.0,0.286144928956,0.0797711776412,0.206373751315,0.365916106597,0.0797711776412,0.376695717025,153,1.0,-0.255547855702,0.0926213922694,nan,nan,nan,nan,nan,nan,nan,nan,1041.76062889,1331.52970204,nan,1331.96191855,nan,nan,nan,nan
1,251,1,1,1.0,1.0,0.362408972345,1,0.0,0.0,1.0,0.286729215267,0.0801435789812,0.206585636286,0.366872794248,0.0801435789812,0.373555571598,419,0.107894673663,0.454841969249,-0.678098861371,-171.511056119,261.511056119,-33.0983188805,372.0,-0.138660017671,0.478458869494,-0.0888123791441,5.18445558153,1041.76062889,1332.47149479,1333.2799081,1332.83390376,1339.49739978,1340.50306835,1334.29667404,1339.48906813
1,252,1,1,1.0,1.0,0.306113861152,0,0.0,0.0,0.0,0.287030728244,0.0801257209397,0.206905007304,0.367156449183,0.0801257209397,0.366913113394,342,-0.170052622031,0.462913557708,0.21407524247,nan,nan,nan,nan,nan,nan,nan,nan,1041.76062889,1340.64758622,nan,1340.95370008,nan,nan,nan,nan
1,253,1,1,1.0,1.0,0.260316280124,0,0.0,0.0,0.0,0.287106454961,0.079975582609,0.207130872352,0.36708203757,0.079975582609,0.309613037874,494,0.698129958021,0.282143999684,-1.0,nan,nan,nan,nan,nan,nan,nan,nan,1041.76062889,1341.5893744,nan,1341.84969068,nan,nan,nan,nan
1,254,1,1,1.0,1.0,0.294508446939,0,0.0,0.0,0.0,0.287000564942,0.0798350700499,0.207165494892,0.366835634992,0.0798350700499,0.286979529405,440,0.258699398066,0.424657399123,-1.0,nan,nan,nan,nan,nan,nan,nan,nan,1041.76062889,1342.53116829,nan,1342.82567674,nan,nan,nan,nan
1,255,1,1,1.0,1.0,0.312696734269,0,0.0,0.0,0.0,0.287030123533,0.0796791465439,0.207350976989,0.366709270077,0.0796791465439,0.289173820444,202,1.0,-0.00802826454356,0.487596984314,nan,nan,nan,nan,nan,nan,nan,nan,1041.76062889,1343.4729599,nan,1343.78565664,nan,nan,nan,nan
1,256,1,1,1.0,1.0,0.242872664297,0,0.0,0.0,0.0,0.287130776908,0.0795389374505,0.207591839458,0.366669714359,0.0795389374505,0.283359281835,425,0.149162615564,0.447529597292,-0.791715667876,nan,nan,nan,nan,nan,nan,nan,nan,1041.76062889,1344.41475436,nan,1344.65762702,nan,nan,nan,nan
1,257,1,1,1.0,1.0,0.245060778223,0,0.0,0.0,0.0,0.286957893656,0.0794314264148,0.207526467241,0.366389320071,0.0794314264148,0.266876725596,99,1.0,-0.267176270739,-0.468793303331,nan,nan,nan,nan,nan,nan,nan,nan,1041.76062889,1345.35654768,nan,1345.60160846,nan,nan,nan,nan
1,258,1,1,1.0,1.0,0.215189530572,0,0.0,0.0,0.0,0.28679486986,0.0793196390969,0.207475230763,0.366114508957,0.0793196390969,0.234374324364,484,0.614398947124,0.316112737715,-1.0,nan,nan,nan,nan,nan,nan,nan,nan,1041.76062889,1346.29839973,nan,1346.51358926,nan,nan,nan,nan
1,259,1,1,1.0,1.0,0.20143306494,0,0.0,0.0,0.0,0.286517329786,0.0792907018681,0.207226627918,0.365808031654,0.0792907018681,0.220561124578,113,1.0,-0.302191989669,-0.314576349441,nan,nan,nan,nan,nan,nan,nan,nan,1041.76062889,1347.24013118,nan,1347.44156424,nan,nan,nan,nan
1,260,1,1,1.0,1.0,0.251623979711,0,0.0,0.0,0.0,0.286188819111,0.0793132043358,0.206875614775,0.365502023446,0.0793132043358,0.222748858408,208,0.97651257568,0.025020743352,0.522574479073,nan,nan,nan,nan,nan,nan,nan,nan,1041.76062889,1348.18191594,nan,1348.43353992,nan,nan,nan,nan
1,261,1,1,1.0,1.0,0.253795843106,0,0.0,0.0,0.0,0.286055877421,0.0791894390772,0.206866438343,0.365245316498,0.0791894390772,0.235617629252,461,0.423959648591,0.380927367285,-1.0,nan,nan,nan,nan,nan,nan,nan,nan,1041.76062889,1349.12371696,nan,1349.3775128,nan,nan,nan,nan
1,262,0,0,1.0,0.0,0.215941329428,0,0.0,0.0,0.0,0.285932275757,0.0790627136103,0.206869562146,0.364994989367,0.0790627136103,0.240453717415,274,0.289344050657,0.322900892411,0.632670269059,nan,nan,nan,nan,nan,nan,nan,nan,1041.76062889,1350.0655596,nan,1350.28150093,nan,nan,nan,nan
1,263,1,1,1.0,1.0,0.202185148897,0,0.0,0.0,0.0,0.28566513474,0.0790296167667,0.206635517973,0.364694751507,0.0790296167667,0.223974107144,455,0.375608248681,0.394875365091,-1.0,nan,nan,nan,nan,nan,nan,nan,nan,1041.76062889,1351.00730474,nan,1351.20948989,nan,nan,nan,nan
1,264,1,1,1.0,1.0,0.324337215337,0,0.0,0.0,0.0,0.285347720345,0.079046375563,0.206301344782,0.364394095908,0.079046375563,0.247487897888,100,1.0,-0.270427092546,-0.457439896749,nan,nan,nan,nan,nan,nan,nan,nan,1041.76062889,1351.94908237,nan,1352.27341959,nan,nan,nan,nan
1,265,1,1,1.0,1.0,0.278552178468,0,0.0,0.0,0.0,0.285495407826,0.0789328703623,0.206562537464,0.364428278188,0.0789328703623,0.268358180901,395,-0.0383984177995,0.474183508328,-0.351427224487,nan,nan,nan,nan,nan,nan,nan,nan,1041.76062889,1352.8908908,nan,1353.16944298,nan,nan,nan,nan
1,266,1,1,1.0,1.0,0.296641537279,0,0.0,0.0,0.0,0.285469206961,0.0787849498307,0.20668425713,0.364254156791,0.0787849498307,0.299843643695,259,0.44882283482,0.268906983076,0.655011783756,nan,nan,nan,nan,nan,nan,nan,nan,1041.76062889,1353.83276024,nan,1354.12940178,nan,nan,nan,nan
1,267,1,1,1.0,1.0,0.242913147958,0,0.0,0.0,0.0,0.285511208203,0.0786396907684,0.206871517434,0.364150898971,0.0786396907684,0.272702287902,129,1.0,-0.310070485259,-0.146368003411,nan,nan,nan,nan,nan,nan,nan,nan,1041.76062889,1354.77447373,nan,1355.01738688,nan,nan,nan,nan
1,268,1,1,1.0,1.0,0.269089833018,0,0.0,0.0,0.0,0.285351664906,0.0785354056696,0.206816259236,0.363887070575,0.0785354056696,0.269548172752,382,-0.1011887567,0.478291136399,-0.199732273247,nan,nan,nan,nan,nan,nan,nan,nan,1041.76062889,1355.71627247,nan,1355.9853623,nan,nan,nan,nan
1,269,1,1,1.0,1.0,0.271283933893,0,0.0,0.0,0.0,0.285290986429,0.0783950176274,0.206895968801,0.363686004056,0.0783950176274,0.26109563829,71,1.0,-0.144504067012,-0.877980773838,nan,nan,nan,nan,nan,nan,nan,nan,1041.76062889,1356.65805723,nan,1356.92934117,nan,nan,nan,nan
1,270,1,1,1.0,1.0,0.313472196169,0,0.0,0.0,0.0,0.285238915601,0.0782538093319,0.206985106269,0.363492724933,0.0782538093319,0.284615321027,239,0.665069831863,0.183388857662,0.640549267122,nan,nan,nan,nan,nan,nan,nan,nan,1041.76062889,1357.59984827,nan,1357.91332047,nan,nan,nan,nan
1,271,1,1,1.0,1.0,0.2836591081,0,0.0,0.0,0.0,0.285343483307,0.0781275867579,0.207215896549,0.363471070065,0.0781275867579,0.289471746054,460,0.415848916989,0.383334931935,-1.0,nan,nan,nan,nan,nan,nan,nan,nan,1041.76062889,1358.54163959,nan,1358.8252987,nan,nan,nan,nan
1,272,0,0,1.0,0.0,0.261858936108,0,0.0,0.0,0.0,0.2853372679,0.0779833735722,0.207353894328,0.363320641473,0.0779833735722,0.286330080125,198,1.0,-0.0302354974571,0.462326941081,nan,nan,nan,nan,nan,nan,nan,nan,1041.76062889,1359.48343177,nan,1359.74529071,nan,nan,nan,nan
1,273,1,1,1.0,1.0,0.136039676261,0,0.0,0.0,0.0,0.285250950504,0.0778528585163,0.207398091988,0.36310380902,0.0778528585163,0.227185906823,16,0.973419431522,0.140652110383,-1.0,nan,nan,nan,nan,nan,nan,nan,nan,1041.76062889,1360.42522367,nan,1360.56126334,nan,nan,nan,nan
1,274,1,1,1.0,1.0,0.202160060464,0,0.0,0.0,0.0,0.28470438906,0.0782311975271,0.206473191533,0.362935586587,0.0782311975271,0.200019557611,376,-0.124962824795,0.478704673615,-0.132627625282,nan,nan,nan,nan,nan,nan,nan,nan,1041.76062889,1361.36708398,nan,1361.56924404,nan,nan,nan,nan
1,275,1,1,1.0,1.0,0.164430133882,0,1.0,0.0,0.0,0.284403132386,0.0782467912151,0.206156341171,0.362649923601,0.0782467912151,0.167543290202,100,1.0,-0.270427092546,-0.457439896749,nan,nan,nan,nan,nan,nan,nan,nan,1041.76062889,1362.30880061,nan,1362.47323074,nan,nan,nan,nan
1,276,1,1,1.0,1.0,0.00658771971939,1,0.0,0.0,1.0,0.283966866937,0.0784375307249,0.205529336212,0.362404397662,0.0784375307249,0.124392638022,184,1.0,-0.107671891867,0.362640045218,0.0,90.0,-39.375,128.0,1.0,-0.310663006781,-0.156689791083,2.40893041284,1041.76062889,1363.25060533,1364.0590366,1363.25719305,1367.50110917,1368.50443225,1365.07581138,1367.49277352
1,277,1,1,1.0,1.0,0.374076822656,0,0.0,0.0,0.0,0.282961870027,0.0800494217438,0.202912448283,0.363011291771,0.0800494217438,0.181698225419,420,0.1146601879,0.45369410126,-0.695047497311,nan,nan,nan,nan,nan,nan,nan,nan,1041.76062889,1368.6429936,nan,1369.01707042,nan,nan,nan,nan
1,278,1,1,1.0,1.0,0.216265483934,0,0.0,0.0,0.0,0.283290804874,0.0800914437226,0.203199361151,0.363382248597,0.0800914437226,0.198976675437,155,1.0,-0.2479831371,0.111611878621,nan,nan,nan,nan,nan,nan,nan,nan,1041.76062889,1369.58478435,nan,1369.80104984,nan,nan,nan,nan
1,279,1,1,1.0,1.0,0.234439231281,0,0.0,0.0,0.0,0.283049706597,0.0800479023852,0.203001804212,0.363097608982,0.0800479023852,0.27492717929,383,-0.0968787136249,0.478131214543,-0.211081409456,nan,nan,nan,nan,nan,nan,nan,nan,1041.76062889,1370.52657796,nan,1370.76101719,nan,nan,nan,nan
1,280,1,1,1.0,1.0,0.228643223993,0,0.0,0.0,0.0,0.282875475503,0.0799571086826,0.20291836682,0.362832584186,0.0799571086826,0.226449313069,129,1.0,-0.310070485259,-0.146368003411,nan,nan,nan,nan,nan,nan,nan,nan,1041.76062889,1371.46837014,nan,1371.69701336,nan,nan,nan,nan
1,281,1,1,1.0,1.0,0.166823802283,0,0.0,0.0,0.0,0.28268178889,0.0798797417081,0.202802047182,0.362561530599,0.0798797417081,0.209968752519,76,1.0,-0.169674511773,-0.773365826749,nan,nan,nan,nan,nan,nan,nan,nan,1041.76062889,1372.41016288,nan,1372.57698669,nan,nan,nan,nan
1,282,0,0,1.0,0.0,0.121019949031,0,0.0,0.0,0.0,0.282269482888,0.0800353965736,0.202234086315,0.362304879462,0.0800353965736,0.172162325102,11,0.934659501434,0.163852895862,-1.0,nan,nan,nan,nan,nan,nan,nan,nan,1041.76062889,1373.35195392,nan,1373.47297387,nan,nan,nan,nan
1,283,1,1,1.0,1.0,0.131196175644,0,0.0,0.0,0.0,0.281697676031,0.0804663047977,0.201231371233,0.362163980828,0.0804663047977,0.139679975652,177,1.0,-0.145192147526,0.306921212481,nan,nan,nan,nan,nan,nan,nan,nan,1041.76062889,1374.29375009,nan,1374.42494627,nan,nan,nan,nan
1,284,1,1,1.0,1.0,0.293323586811,0,0.0,0.0,0.0,0.281165868609,0.0808189455451,0.200346923064,0.361984814154,0.0808189455451,0.181846570495,380,-0.109519508899,0.478533032186,-0.177177385375,nan,nan,nan,nan,nan,nan,nan,nan,1041.76062889,1375.23558617,nan,1375.52890976,nan,nan,nan,nan
1,285,1,1,1.0,1.0,0.271558766777,0,0.0,0.0,0.0,0.281208677476,0.0806797473595,0.200528930116,0.361888424835,0.0806797473595,0.232026176411,422,0.128328379107,0.451313674078,-0.730894888444,nan,nan,nan,nan,nan,nan,nan,nan,1041.76062889,1376.17732874,nan,1376.44888751,nan,nan,nan,nan
1,286,1,1,1.0,1.0,0.241741402308,0,0.0,0.0,0.0,0.28117481814,0.0805401008998,0.20063471724,0.36171491904,0.0805401008998,0.268874585299,48,1.0,-0.0224273256894,-1.0,nan,nan,nan,nan,nan,nan,nan,nan,1041.76062889,1377.11912691,nan,1377.36086831,nan,nan,nan,nan
1,287,1,1,1.0,1.0,0.267928350717,0,0.0,0.0,0.0,0.281036939063,0.0804328607509,0.200604078313,0.361469799814,0.0804328607509,0.260409506601,166,1.0,-0.20036215083,0.21267421211,nan,nan,nan,nan,nan,nan,nan,nan,1041.76062889,1378.06091481,nan,1378.32884316,nan,nan,nan,nan
1,288,1,1,1.0,1.0,0.222129344242,0,0.0,0.0,0.0,0.28099126454,0.0802963268801,0.20069493766,0.36128759142,0.0802963268801,0.243933032422,74,1.0,-0.159715158178,-0.810443278181,nan,nan,nan,nan,nan,nan,nan,nan,1041.76062889,1379.00270499,nan,1379.22483434,nan,nan,nan,nan
1,289,1,1,1.0,1.0,0.248318003258,0,0.0,0.0,0.0,0.280786882872,0.0802315491739,0.200555333698,0.361018432046,0.0802315491739,0.246125232739,208,0.97651257568,0.025020743352,0.522574479073,nan,nan,nan,nan,nan,nan,nan,nan,1041.76062889,1379.9444986,nan,1380.1928166,nan,nan,nan,nan
1,290,1,1,1.0,1.0,0.322492072184,0,0.0,0.0,0.0,0.280674533808,0.0801153106542,0.200559223153,0.360789844462,0.0801153106542,0.264313139895,136,1.0,-0.301914900238,-0.074841205769,nan,nan,nan,nan,nan,nan,nan,nan,1041.76062889,1380.8862922,nan,1381.20878427,nan,nan,nan,nan
1,291,1,1,1.0,1.0,0.260680062987,0,0.0,0.0,0.0,0.280818732216,0.0800146211606,0.200804111055,0.360833353376,0.0800146211606,0.277163379476,32,1.0,0.061735800531,-1.0,nan,nan,nan,nan,nan,nan,nan,nan,1041.76062889,1381.82808238,nan,1382.08876245,nan,nan,nan,nan
1,292,1,1,1.0,1.0,0.230801117665,0,0.0,0.0,0.0,0.280749527167,0.0798857142467,0.20086381292,0.360635241414,0.0798857142467,0.271324417612,475,0.539218753276,0.343659807328,-1.0,nan,nan,nan,nan,nan,nan,nan,nan,1041.76062889,1382.769935,nan,1383.00073612,nan,nan,nan,nan
1,293,1,1,1.0,1.0,0.233049386938,0,0.0,0.0,0.0,0.28057847097,0.0798021731211,0.200776297849,0.360380644091,0.0798021731211,0.241510189197,6,0.895129075663,0.186272780825,-1.0,nan,nan,nan,nan,nan,nan,nan,nan,1041.76062889,1383.71167159,nan,1383.94472097,nan,nan,nan,nan
1,294,0,0,1.0,0.0,0.147253653267,0,0.0,0.0,0.0,0.280416255666,0.0797140850615,0.200702170605,0.360130340728,0.0797140850615,0.203701385957,400,-0.0107874812989,0.471427301814,-0.412692688905,nan,nan,nan,nan,nan,nan,nan,nan,1041.76062889,1384.6534592,nan,1384.80071285,nan,nan,nan,nan
1,295,1,1,1.0,1.0,0.0934254802414,0,0.0,0.0,0.0,0.279963321644,0.079955179291,0.200008142353,0.359918500935,0.079955179291,0.157909506815,104,1.0,-0.282351481576,-0.412644567278,nan,nan,nan,nan,nan,nan,nan,nan,1041.76062889,1385.59525166,nan,1385.68867714,nan,nan,nan,nan
1,296,1,1,1.0,1.0,0.223618402088,0,0.0,0.0,0.0,0.279330989978,0.0805525544199,0.198778435559,0.359883544398,0.0805525544199,0.154765845199,32,1.0,0.061735800531,-1.0,nan,nan,nan,nan,nan,nan,nan,nan,1041.76062889,1386.5370447,nan,1386.7606631,nan,nan,nan,nan
1,297,1,1,1.0,1.0,0.305798544665,0,0.0,0.0,0.0,0.279142771776,0.0804813232338,0.198661448542,0.35962409501,0.0804813232338,0.207614142331,270,0.331159066004,0.309369715406,0.641393874915,nan,nan,nan,nan,nan,nan,nan,nan,1041.76062889,1387.47884001,nan,1387.78463856,nan,nan,nan,nan
1,298,1,1,1.0,1.0,0.251982630813,0,0.0,0.0,0.0,0.279232521853,0.0803605549493,0.198871966904,0.359593076802,0.0803605549493,0.260466525855,506,0.797774742377,0.236703125255,-1.0,nan,nan,nan,nan,nan,nan,nan,nan,1041.76062889,1388.42063048,nan,1388.67261311,nan,nan,nan,nan
1,299,1,1,1.0,1.0,0.238170001248,0,0.0,0.0,0.0,0.279141079266,0.0802410848487,0.198899994417,0.359382164115,0.0802410848487,0.265317058909,2,0.863024578927,0.203622855609,-1.0,nan,nan,nan,nan,nan,nan,nan,nan,1041.76062889,1389.3624238,nan,1389.6005938,nan,nan,nan,nan
1,300,1,1,1.0,1.0,0.232306711143,0,0.0,0.0,0.0,0.279004052249,0.0801417068736,0.198862345376,0.359145759123,0.0801417068736,0.240819781068,64,1.0,-0.108036866323,-1.0,nan,nan,nan,nan,nan,nan,nan,nan,1041.76062889,1390.30425646,nan,1390.53656317,nan,nan,nan,nan
1,301,1,1,1.0,1.0,0.218526297424,0,0.0,0.0,0.0,0.278848394445,0.0800532871251,0.19879510732,0.358901681571,0.0800532871251,0.229667669938,280,0.228089347314,0.342018854333,0.61587222022,nan,nan,nan,nan,nan,nan,nan,nan,1041.76062889,1391.24601471,nan,1391.46454101,nan,nan,nan,nan
1,302,1,1,1.0,1.0,0.236719716457,0,0.0,0.0,0.0,0.278647988807,0.0799955418268,0.198652446981,0.358643530634,0.0799955418268,0.229184241674,384,-0.0924750057551,0.477945316949,-0.222479273925,nan,nan,nan,nan,nan,nan,nan,nan,1041.76062889,1392.18780518,nan,1392.42452489,nan,nan,nan,nan
1,303,1,1,1.0,1.0,0.0869147365447,0,1.0,0.0,0.0,0.278509153469,0.0798993045759,0.198609848893,0.358408458044,0.0798993045759,0.180720250142,121,1.0,-0.310732805591,-0.229640808446,nan,nan,nan,nan,nan,nan,nan,nan,1041.76062889,1393.12959593,nan,1393.21651067,nan,nan,nan,nan
1,304,1,1,1.0,1.0,0.657077073178,1,0.0,0.0,1.0,0.27787682866,0.0805206803675,0.197356148293,0.358397509028,0.0805206803675,0.32690384206,434,0.213881816697,0.43461034373,-1.0,-157.180344302,247.180344302,-57.975905698,352.0,-0.17544712699,0.470851603012,0.118673592819,3.40075157082,1041.76062889,1394.07138611,1394.8798017,1394.72846319,1399.31368545,1400.31211029,1395.89657334,1399.30535408
1,305,1,1,1.0,1.0,0.280770227546,0,0.0,0.0,0.0,0.279124197886,0.0832688368265,0.195855361059,0.362393034712,0.0832688368265,0.341587345756,74,1.0,-0.159715158178,-0.810443278181,nan,nan,nan,nan,nan,nan,nan,nan,1041.76062889,1400.45557245,nan,1400.73634268,nan,nan,nan,nan
1,306,1,1,1.0,1.0,0.274964526936,0,0.0,0.0,0.0,0.279129594704,0.0831322717162,0.195997322988,0.36226186642,0.0831322717162,0.40427060922,134,1.0,-0.304950998219,-0.095144111098,nan,nan,nan,nan,nan,nan,nan,nan,1041.76062889,1401.39735265,nan,1401.67231718,nan,nan,nan,nan
1,307,1,1,1.0,1.0,0.229132734239,0,0.0,0.0,0.0,0.279115983372,0.0829966639283,0.196119319443,0.3621126473,0.0829966639283,0.26162249624,55,1.0,-0.0599996532909,-1.0,nan,nan,nan,nan,nan,nan,nan,nan,1041.76062889,1402.33915481,nan,1402.56828754,nan,nan,nan,nan
1,308,1,1,1.0,1.0,0.223310783156,0,0.0,0.0,0.0,0.278953171485,0.0829103108607,0.196042860624,0.361863482346,0.0829103108607,0.24246934811,357,-0.1717918326,0.473767524415,0.068739031695,nan,nan,nan,nan,nan,nan,nan,nan,1041.76062889,1403.28095354,nan,1403.50426433,nan,nan,nan,nan
1,309,1,1,1.0,1.0,0.20951326366,0,0.0,0.0,0.0,0.27877251438,0.0828361070581,0.195936407322,0.361608621438,0.0828361070581,0.220652260352,37,1.0,0.0358565504353,-1.0,nan,nan,nan,nan,nan,nan,nan,nan,1041.76062889,1404.22273403,nan,1404.4322473,nan,nan,nan,nan
1,310,0,0,1.0,0.0,0.243692886259,0,0.0,0.0,0.0,0.27854837441,0.0827954565234,0.195752917887,0.361343830934,0.0827954565234,0.225505644359,115,1.0,-0.305166285737,-0.293172749504,nan,nan,nan,nan,nan,nan,nan,nan,1041.76062889,1405.16453106,nan,1405.40822394,nan,nan,nan,nan
1,311,1,1,1.0,1.0,0.189878397912,0,0.0,0.0,0.0,0.278435937352,0.0826854330672,0.195750504284,0.361121370419,0.0826854330672,0.214361515944,411,0.0555201669072,0.463022710015,-0.557054760163,nan,nan,nan,nan,nan,nan,nan,nan,1041.76062889,1406.10632922,nan,1406.29620762,nan,nan,nan,nan
1,312,1,1,1.0,1.0,0.28008770704,0,0.0,0.0,0.0,0.278151186421,0.0827044923841,0.195446694037,0.360855678805,0.0827044923841,0.237886330404,1,0.854939129564,0.207877072944,-1.0,nan,nan,nan,nan,nan,nan,nan,nan,1041.76062889,1407.04810116,nan,1407.32818887,nan,nan,nan,nan
1,313,0,0,1.0,0.0,0.250221591094,0,0.0,0.0,0.0,0.278157393218,0.0825719193109,0.195585473907,0.360729312529,0.0825719193109,0.240062565349,179,1.0,-0.13461441766,0.323204131591,nan,nan,nan,nan,nan,nan,nan,nan,1041.76062889,1407.98994009,nan,1408.24016168,nan,nan,nan,nan
1,314,1,1,1.0,1.0,0.188439516933,0,0.0,0.0,0.0,0.278068141454,0.0824549821145,0.195613159339,0.360523123568,0.0824549821145,0.239582938356,72,1.0,-0.149607777062,-0.853203742106,nan,nan,nan,nan,nan,nan,nan,nan,1041.76062889,1408.93169378,nan,1409.1201333,nan,nan,nan,nan
1,315,1,1,1.0,1.0,0.254627754097,0,0.0,0.0,0.0,0.277782699974,0.0824783245457,0.195304375429,0.36026102452,0.0824783245457,0.231096287374,434,0.213881816697,0.43461034373,-1.0,nan,nan,nan,nan,nan,nan,nan,nan,1041.76062889,1409.87349537,nan,1410.12812312,nan,nan,nan,nan
1,316,0,0,0.0,1.0,0.424782336107,0,0.0,0.0,0.0,0.27770919221,0.0823576037428,0.195351588467,0.360066795953,0.0823576037428,0.289283202379,275,0.279002393219,0.326185254474,0.630178474337,nan,nan,nan,nan,nan,nan,nan,nan,1041.76062889,1410.81529581,nan,1411.24007815,nan,nan,nan,nan
1,317,1,1,1.0,1.0,0.322941383929,0,0.0,0.0,0.0,0.278174613551,0.0826410598894,0.195533553662,0.360815673441,0.0826410598894,0.334117158044,346,-0.174317561957,0.466431294057,0.176670174816,nan,nan,nan,nan,nan,nan,nan,nan,1041.76062889,1411.75713703,nan,1412.08007841,nan,nan,nan,nan
1,318,1,1,1.0,1.0,0.317188711197,0,0.0,0.0,0.0,0.278315833647,0.082548788597,0.19576704505,0.360864622244,0.082548788597,0.354970810411,200,1.0,-0.0191209939188,0.47515178387,nan,nan,nan,nan,nan,nan,nan,nan,1041.76062889,1412.69887874,nan,1413.01606746,nan,nan,nan,nan
1,319,1,1,1.0,1.0,0.311370181269,0,0.0,0.0,0.0,0.2784380754,0.0824476247097,0.195990450691,0.36088570011,0.0824476247097,0.317166758798,458,0.399688045963,0.388050214986,-1.0,nan,nan,nan,nan,nan,nan,nan,nan,1041.76062889,1413.64066779,nan,1413.95203797,nan,nan,nan,nan
1,320,1,1,1.0,1.0,0.297541301174,0,0.0,0.0,0.0,0.278541310842,0.0823388778062,0.196202433036,0.360880188648,0.0823388778062,0.308700064546,272,0.310166696092,0.316214117232,0.637281430288,nan,nan,nan,nan,nan,nan,nan,nan,1041.76062889,1414.5824554,nan,1414.8799967,nan,nan,nan,nan
1,321,1,1,1.0,1.0,0.299739393522,0,0.0,0.0,0.0,0.278600685812,0.0822169621374,0.196383723674,0.360817647949,0.0822169621374,0.302883625322,128,1.0,-0.310663006781,-0.156689791083,nan,nan,nan,nan,nan,nan,nan,nan,1041.76062889,1415.52425414,nan,1415.82399353,nan,nan,nan,nan
1,322,1,1,1.0,1.0,0.301926937245,0,0.0,0.0,0.0,0.278666538484,0.0820972504599,0.196569288024,0.360763788944,0.0820972504599,0.299735877314,354,-0.174470673547,0.472100788149,0.0988677247603,nan,nan,nan,nan,nan,nan,nan,nan,1041.76062889,1416.46604232,nan,1416.76796926,nan,nan,nan,nan
1,323,1,1,1.0,1.0,0.368109757546,0,0.0,0.0,0.0,0.278738775747,0.0819798879858,0.196758887761,0.360718663733,0.0819798879858,0.323258696105,281,0.218083397074,0.345068392493,0.612644422055,nan,nan,nan,nan,nan,nan,nan,nan,1041.76062889,1417.40783365,nan,1417.7759434,nan,nan,nan,nan
1,324,0,0,1.0,0.0,0.282304615655,0,0.0,0.0,0.0,0.279015466093,0.082003331868,0.197012134225,0.361018797961,0.082003331868,0.317447103482,232,0.739158239773,0.150046616059,0.623712016981,nan,nan,nan,nan,nan,nan,nan,nan,1041.76062889,1418.34962611,nan,1418.63193073,nan,nan,nan,nan
1,325,1,1,1.0,1.0,0.19647923205,0,0.0,0.0,0.0,0.279025617789,0.0818768889974,0.197148728792,0.360902506787,0.0818768889974,0.282297868417,186,1.0,-0.0967386681424,0.377881386018,nan,nan,nan,nan,nan,nan,nan,nan,1041.76062889,1419.29142713,nan,1419.48790636,nan,nan,nan,nan
1,326,1,1,1.0,1.0,0.398679776175,0,0.0,0.0,0.0,0.27877162891,0.0818785634452,0.196893065465,0.360650192355,0.0818785634452,0.292487874627,91,1.0,-0.237709898716,-0.562722318432,nan,nan,nan,nan,nan,nan,nan,nan,1041.76062889,1420.23321503,nan,1420.6318948,nan,nan,nan,nan
1,327,1,1,1.0,1.0,0.320844500791,0,0.0,0.0,0.0,0.279139445313,0.082021358956,0.197118086357,0.361160804269,0.082021358956,0.305334503006,307,-0.0113868739462,0.411053355611,0.487957006857,nan,nan,nan,nan,nan,nan,nan,nan,1041.76062889,1421.17500778,nan,1421.49585228,nan,nan,nan,nan
1,328,1,1,1.0,1.0,0.259037053154,0,0.0,0.0,0.0,0.279266983709,0.0819282164468,0.197338767262,0.361195200156,0.0819282164468,0.32618711004,460,0.415848916989,0.383334931935,-1.0,nan,nan,nan,nan,nan,nan,nan,nan,1041.76062889,1422.11679625,nan,1422.3758333,nan,nan,nan,nan
1,329,0,0,0.0,1.0,0.461247575586,0,0.0,0.0,0.0,0.279205307091,0.081810833243,0.197394473848,0.361016140334,0.081810833243,0.347043043177,182,1.0,-0.118523835432,0.347089474713,nan,nan,nan,nan,nan,nan,nan,nan,1041.76062889,1423.05855678,nan,1423.51980436,nan,nan,nan,nan
1,330,1,1,1.0,1.0,0.24741538841,0,0.0,0.0,0.0,0.279758627056,0.0822987873041,0.197459839752,0.36205741436,0.0822987873041,0.322566672383,352,-0.17544712699,0.470851603012,0.118673592819,nan,nan,nan,nan,nan,nan,nan,nan,1041.76062889,1424.00037661,nan,1424.247792,nan,nan,nan,nan
1,331,1,1,1.0,1.0,0.241594862775,0,0.0,0.0,0.0,0.279660617242,0.0821932249292,0.197467392313,0.361853842171,0.0821932249292,0.316752608924,453,0.359670421306,0.39926174925,-1.0,nan,nan,nan,nan,nan,nan,nan,nan,1041.76062889,1424.94217506,nan,1425.18376993,nan,nan,nan,nan
1,332,1,1,1.0,1.0,0.315782331279,0,0.0,0.0,0.0,0.279545614963,0.0820955577255,0.197450057237,0.361641172688,0.0820955577255,0.268264194155,37,1.0,0.0358565504353,-1.0,nan,nan,nan,nan,nan,nan,nan,nan,1041.76062889,1425.88396838,nan,1426.19975071,nan,nan,nan,nan
1,333,1,1,1.0,1.0,0.245975082042,0,0.0,0.0,0.0,0.279654761699,0.081995875273,0.197658886426,0.361650636972,0.081995875273,0.267784092032,295,0.0860222946478,0.38372732295,0.554986075565,nan,nan,nan,nan,nan,nan,nan,nan,1041.76062889,1426.82576284,nan,1427.07173792,nan,nan,nan,nan
1,334,1,1,1.0,1.0,0.216161993972,0,0.0,0.0,0.0,0.27955362152,0.0818934035221,0.197660217997,0.361447025042,0.0818934035221,0.259306469098,187,1.0,-0.0912463489427,0.385383214542,nan,nan,nan,nan,nan,nan,nan,nan,1041.76062889,1427.76755188,nan,1427.98371388,nan,nan,nan,nan
1,335,0,0,1.0,0.0,0.258334005659,0,0.0,0.0,0.0,0.279363826227,0.0818440316754,0.197519794552,0.361207857903,0.0818440316754,0.240157027224,436,0.228681708805,0.431413732101,-1.0,nan,nan,nan,nan,nan,nan,nan,nan,1041.76062889,1428.70934834,nan,1428.96768234,nan,nan,nan,nan
1,336,1,1,1.0,1.0,0.188530462678,0,0.0,0.0,0.0,0.279301050644,0.0817298377559,0.197571212888,0.3610308884,0.0817298377559,0.22100882077,17,0.981069150956,0.135921910835,-1.0,nan,nan,nan,nan,nan,nan,nan,nan,1041.76062889,1429.65113624,nan,1429.8396667,nan,nan,nan,nan
1,337,1,1,1.0,1.0,0.334683359251,0,0.0,0.0,0.0,0.279030900084,0.0817577816866,0.197273118398,0.360788681771,0.0817577816866,0.260515942529,137,1.0,-0.300190217086,-0.0647316600203,nan,nan,nan,nan,nan,nan,nan,nan,1041.76062889,1430.59293554,nan,1430.9276189,nan,nan,nan,nan
1,338,1,1,1.0,1.0,0.296918080712,0,0.0,0.0,0.0,0.279196040913,0.0816924921059,0.197503548807,0.360888533019,0.0816924921059,0.27337730088,89,1.0,-0.229484098413,-0.587370487375,nan,nan,nan,nan,nan,nan,nan,nan,1041.76062889,1431.53471888,nan,1431.83163696,nan,nan,nan,nan
1,339,1,1,1.0,1.0,0.283074090548,0,0.0,0.0,0.0,0.279248472983,0.0815772342919,0.197671238691,0.360825707275,0.0815772342919,0.304891843504,258,0.459642287315,0.26499291187,0.655490062901,nan,nan,nan,nan,nan,nan,nan,nan,1041.76062889,1432.47651363,nan,1432.75958772,nan,nan,nan,nan
1,340,1,1,1.0,1.0,0.301253539801,0,0.0,0.0,0.0,0.279259757991,0.0814570892423,0.197802668748,0.360716847233,0.0814570892423,0.293748570354,358,-0.170583909915,0.474268316859,0.0585874414746,nan,nan,nan,nan,nan,nan,nan,nan,1041.76062889,1433.4183078,nan,1433.71956134,nan,nan,nan,nan
1,341,1,1,1.0,1.0,0.311455425108,0,0.0,0.0,0.0,0.279324445584,0.0813459308463,0.197978514738,0.36067037643,0.0813459308463,0.298594351819,284,0.188465149253,0.353984098999,0.602236276499,nan,nan,nan,nan,nan,nan,nan,nan,1041.76062889,1434.36009456,nan,1434.67154999,nan,nan,nan,nan
1,342,1,1,1.0,1.0,0.273637688835,0,0.0,0.0,0.0,0.279418671331,0.0812451474836,0.198173523847,0.360663818814,0.0812451474836,0.295448884581,131,1.0,-0.308451667147,-0.125800503078,nan,nan,nan,nan,nan,nan,nan,nan,1041.76062889,1435.30188788,nan,1435.57552557,nan,nan,nan,nan
1,343,1,1,1.0,1.0,0.323818054982,0,0.0,0.0,0.0,0.279401767873,0.081126881573,0.1982748863,0.360528649446,0.081126881573,0.302970389642,510,0.830554458933,0.220436700166,-1.0,nan,nan,nan,nan,nan,nan,nan,nan,1041.76062889,1436.24368319,nan,1436.56750125,nan,nan,nan,nan
1,344,1,1,1.0,1.0,0.326003032853,0,0.0,0.0,0.0,0.279531261421,0.0810439233651,0.198487338056,0.360575184787,0.0810439233651,0.307819592223,293,0.103830259013,0.378659598285,0.564617056734,nan,nan,nan,nan,nan,nan,nan,nan,1041.76062889,1437.18547794,nan,1437.51148097,nan,nan,nan,nan
1,345,1,1,1.0,1.0,0.352213644306,0,0.0,0.0,0.0,0.27966635378,0.0809647076251,0.198701646155,0.360631061405,0.0809647076251,0.33401157738,222,0.841778467246,0.0997291618919,0.589484691865,nan,nan,nan,nan,nan,nan,nan,nan,1041.76062889,1438.12724645,nan,1438.4794601,nan,nan,nan,nan
1,346,1,1,1.0,1.0,0.354370397632,0,0.0,0.0,0.0,0.279876635782,0.0809413011318,0.19893533465,0.360817936914,0.0809413011318,0.344195691597,352,-0.17544712699,0.470851603012,0.118673592819,nan,nan,nan,nan,nan,nan,nan,nan,1041.76062889,1439.06905887,nan,1439.42342927,nan,nan,nan,nan
1,347,1,1,1.0,1.0,0.372565812315,0,0.0,0.0,0.0,0.280091935671,0.080923120424,0.199168815247,0.361015056096,0.080923120424,0.359716618084,284,0.188465149253,0.353984098999,0.602236276499,nan,nan,nan,nan,nan,nan,nan,nan,1041.76062889,1440.01085019,nan,1440.38341601,nan,nan,nan,nan
1,348,1,1,1.0,1.0,0.342752724304,0,0.0,0.0,0.0,0.280358430993,0.0809583371174,0.199400093876,0.361316768111,0.0809583371174,0.356562978084,443,0.281558783006,0.419268214519,-1.0,nan,nan,nan,nan,nan,nan,nan,nan,1041.76062889,1440.95264408,nan,1441.29539681,nan,nan,nan,nan
1,349,1,1,1.0,1.0,0.264927997487,0,0.0,0.0,0.0,0.28053772494,0.0809108958243,0.199626829115,0.361448620764,0.0809108958243,0.326748844702,364,-0.160194321586,0.476704516321,-0.00341124574885,nan,nan,nan,nan,nan,nan,nan,nan,1041.76062889,1441.89443541,nan,1442.1593634,nan,nan,nan,nan
1,350,1,1,1.0,1.0,0.259135411296,0,0.0,0.0,0.0,0.280492997927,0.0807992026573,0.199693795269,0.361292200584,0.0807992026573,0.288938711029,302,0.027086081288,0.400300843718,0.517770016443,nan,nan,nan,nan,nan,nan,nan,nan,1041.76062889,1442.83622587,nan,1443.09536128,nan,nan,nan,nan
1,351,1,1,1.0,1.0,0.261300717597,0,0.0,0.0,0.0,0.280431976251,0.080691745632,0.199740230619,0.361123721883,0.080691745632,0.261788042126,418,0.101175887384,0.455961754156,-0.661679309199,nan,nan,nan,nan,nan,nan,nan,nan,1041.76062889,1443.77802404,nan,1444.03932476,nan,nan,nan,nan
1,352,1,1,1.0,1.0,0.31148707075,0,0.0,0.0,0.0,0.28037747124,0.0805831699838,0.199794301256,0.360960641224,0.0805831699838,0.277307733214,122,1.0,-0.311159539646,-0.219144224573,nan,nan,nan,nan,nan,nan,nan,nan,1041.76062889,1444.7198145,nan,1445.03130158,nan,nan,nan,nan
1,353,1,1,1.0,1.0,0.305678519129,0,0.0,0.0,0.0,0.280465850784,0.0804856575069,0.199980193277,0.360951508291,0.0804856575069,0.292822102492,471,0.506014005179,0.354993781952,-1.0,nan,nan,nan,nan,nan,nan,nan,nan,1041.76062889,1445.66160925,nan,1445.96728777,nan,nan,nan,nan
1,354,1,1,1.0,1.0,0.27586372057,0,0.0,0.0,0.0,0.280537274774,0.0803827446935,0.20015453008,0.360920019467,0.0803827446935,0.297676436816,167,1.0,-0.195605812978,0.221546716301,nan,nan,nan,nan,nan,nan,nan,nan,1041.76062889,1446.60339829,nan,1446.87926201,nan,nan,nan,nan
1,355,1,1,1.0,1.0,0.270057734801,0,0.0,0.0,0.0,0.280524072643,0.0802695127007,0.200254559943,0.360793585344,0.0802695127007,0.283866658167,428,0.170378320166,0.443486568519,-0.86866140055,nan,nan,nan,nan,nan,nan,nan,nan,1041.76062889,1447.54519246,nan,1447.8152502,nan,nan,nan,nan
1,356,0,0,0.0,1.0,0.464225406235,0,0.0,0.0,0.0,0.280494590002,0.0801582967081,0.200336293294,0.36065288671,0.0801582967081,0.336715620535,322,-0.105067232891,0.43811622051,0.383559350674,nan,nan,nan,nan,nan,nan,nan,nan,1041.76062889,1448.48698778,nan,1448.95121318,nan,nan,nan,nan
1,357,1,1,1.0,1.0,0.258437210519,0,0.0,0.0,0.0,0.2810106878,0.0806341149942,0.200376572806,0.361644802794,0.0806341149942,0.330906783851,424,0.142174562463,0.448819569244,-0.770229420881,nan,nan,nan,nan,nan,nan,nan,nan,1041.76062889,1449.42877368,nan,1449.68721089,nan,nan,nan,nan
1,358,1,1,1.0,1.0,0.284621593135,0,0.0,0.0,0.0,0.280947456771,0.080529940721,0.20041751605,0.361477397492,0.080529940721,0.335761403296,32,1.0,0.061735800531,-1.0,nan,nan,nan,nan,nan,nan,nan,nan,1041.76062889,1450.37057128,nan,1450.65519287,nan,nan,nan,nan
1,359,1,1,1.0,1.0,0.30277481355,0,0.0,0.0,0.0,0.280957719722,0.0804176238783,0.200540095844,0.3613753436,0.0804176238783,0.281944539068,502,0.764740937618,0.25241357569,-1.0,nan,nan,nan,nan,nan,nan,nan,nan,1041.76062889,1451.31238626,nan,1451.61516108,nan,nan,nan,nan
1,360,0,0,0.0,1.0,0.560974823951,0,0.0,0.0,0.0,0.281018491571,0.0803137752234,0.200704716348,0.361332266795,0.0803137752234,0.382790410212,353,-0.175041255135,0.471490071959,0.108799216003,nan,nan,nan,nan,nan,nan,nan,nan,1041.76062889,1452.25414851,nan,1452.81512333,nan,nan,nan,nan
1,361,1,1,1.0,1.0,0.259168767603,0,0.0,0.0,0.0,0.28179614805,0.0815444056315,0.200251742418,0.363340553681,0.0815444056315,0.374306135035,113,1.0,-0.302191989669,-0.314576349441,nan,nan,nan,nan,nan,nan,nan,nan,1041.76062889,1453.19594895,nan,1453.45511772,nan,nan,nan,nan
1,362,1,1,1.0,1.0,0.373336712713,0,0.0,0.0,0.0,0.281733468326,0.0814400687553,0.20029339957,0.363173537081,0.0814400687553,0.397826768089,370,-0.144805996584,0.478178727438,-0.0671803333712,nan,nan,nan,nan,nan,nan,nan,nan,1041.76062889,1454.13773971,nan,1454.51107642,nan,nan,nan,nan
1,363,1,1,1.0,1.0,0.207537261362,0,0.0,0.0,0.0,0.281986515962,0.0814694971694,0.200517018793,0.363456013131,0.0814694971694,0.280014247226,196,1.0,-0.0413610816081,0.449130757868,nan,nan,nan,nan,nan,nan,nan,nan,1041.76062889,1455.07953074,nan,1455.287068,nan,nan,nan,nan
1,364,1,1,1.0,1.0,0.305710164888,0,0.0,0.0,0.0,0.281781421597,0.0814507305853,0.200330691012,0.363232152182,0.0814507305853,0.295528046321,469,0.489482198204,0.360453357602,-1.0,nan,nan,nan,nan,nan,nan,nan,nan,1041.76062889,1456.02132264,nan,1456.3270328,nan,nan,nan,nan
1,365,1,1,1.0,1.0,0.299926131556,0,0.0,0.0,0.0,0.281847159903,0.0813484132797,0.200498746623,0.363195573182,0.0813484132797,0.271057852602,138,1.0,-0.29832987918,-0.0546508148191,nan,nan,nan,nan,nan,nan,nan,nan,1041.76062889,1456.96311681,nan,1457.26304294,nan,nan,nan,nan
1,366,1,1,1.0,1.0,0.270099929126,0,0.0,0.0,0.0,0.281896691332,0.0812423968984,0.200654294433,0.36313908823,0.0812423968984,0.29191207519,431,0.191957257768,0.43918128748,-0.982298765802,nan,nan,nan,nan,nan,nan,nan,nan,1041.76062889,1457.90490956,nan,1458.17500949,nan,nan,nan,nan
1,367,1,1,1.0,1.0,0.32827924157,0,0.0,0.0,0.0,0.281864459741,0.0811336709564,0.200730788785,0.362998130697,0.0811336709564,0.299435100751,267,0.362924526182,0.298807232282,0.646622522267,nan,nan,nan,nan,nan,nan,nan,nan,1041.76062889,1458.84670145,nan,1459.17498069,nan,nan,nan,nan
1,368,1,1,1.0,1.0,0.242470678582,0,0.0,0.0,0.0,0.281990930536,0.0810591774253,0.200931753111,0.363050107961,0.0810591774253,0.280283283093,14,0.95801504718,0.150023555696,-1.0,nan,nan,nan,nan,nan,nan,nan,nan,1041.76062889,1459.78848964,nan,1460.03096032,nan,nan,nan,nan
1,369,0,0,1.0,0.0,0.19666055328,0,0.0,0.0,0.0,0.281883538547,0.08097510732,0.200908431227,0.362858645867,0.08097510732,0.255803491144,113,1.0,-0.302191989669,-0.314576349441,nan,nan,nan,nan,nan,nan,nan,nan,1041.76062889,1460.73028581,nan,1460.92694636,nan,nan,nan,nan
1,370,1,1,1.0,1.0,0.134851394978,0,0.0,0.0,0.0,0.281652581948,0.0809865909545,0.200665990993,0.362639172902,0.0809865909545,0.19132754228,40,1.0,0.0201165467467,-1.0,nan,nan,nan,nan,nan,nan,nan,nan,1041.76062889,1461.67207542,nan,1461.80692681,nan,nan,nan,nan
1,371,1,1,1.0,1.0,0.0890578052495,0,0.0,0.0,0.0,0.281255821983,0.0812353911039,0.200020430879,0.362491213087,0.0812353911039,0.140189917836,334,-0.152796554809,0.454467054946,0.285576400052,nan,nan,nan,nan,nan,nan,nan,nan,1041.76062889,1462.61386931,nan,1462.70292711,nan,nan,nan,nan
1,372,1,1,1.0,1.0,0.171221412311,0,1.0,0.0,0.0,0.280737768029,0.081735559945,0.199002208084,0.362473327974,0.081735559945,0.131710204179,201,1.0,-0.0135712615467,0.48142235136,nan,nan,nan,nan,nan,nan,nan,nan,1041.76062889,1463.55566034,nan,1463.72688176,nan,nan,nan,nan
1,373,1,1,1.0,1.0,0.237406228262,1,0.0,0.0,1.0,0.280443369224,0.0818223545096,0.198621014714,0.362265723733,0.0818223545096,0.165895148607,411,0.0555201669072,0.463022710015,-0.557054760163,-163.819626143,253.819626143,-35.164748857,361.0,-0.166047812515,0.475607712818,0.0278173107143,1.44214954611,1041.76062889,1464.49746222,1465.30585841,1464.73486844,1467.78949945,1468.79463517,1466.33097084,1467.78116637
