block,trial,freq_trials,correct_response,actual_response,acc,rts,probe_trials,trials_colorind0,trials_colorind1,trials_colorind2,trials_colorind3,trials_colorind4,trials_colorind5,wholereport_resp0,wholereport_resp1,wholereport_resp2,wholereport_resp3,wholereport_resp4,wholereport_resp5,wholereport_respacc0,wholereport_respacc1,wholereport_respacc2,wholereport_respacc3,wholereport_respacc4,wholereport_respacc5,wholereport_respacc_total,wholereport_respcolorind0,wholereport_respcolorind1,wholereport_respcolorind2,wholereport_respcolorind3,wholereport_respcolorind4,wholereport_respcolorind5,wholereport_resporder0,wholereport_resporder1,wholereport_resporder2,wholereport_resporder3,wholereport_resporder4,wholereport_resporder5,wholereport_rts0,wholereport_rts1,wholereport_rts2,wholereport_rts3,wholereport_rts4,wholereport_rts5,time_blockstart,time_encarray_offset,time_encarray_onset,time_response,time_iti_offset,time_iti_onset,time_memprobe_offset,time_memprobe_onset
1,1,1,1,1.0,1.0,0.460219259141013,0.0,4,1,5,8,2,7,nan,nan,nan,nan,nan,nan,nan,nan,nan,nan,nan,nan,0.0,nan,nan,nan,nan,nan,nan,nan,nan,nan,nan,nan,nan,nan,nan,nan,nan,nan,nan,263.05302549735643,264.07277210603934,nan,264.53299136518035,nan,nan,nan,nan
1,2,1,1,1.0,1.0,0.37172131228726357,0.0,5,4,8,1,3,6,nan,nan,nan,nan,nan,nan,nan,nan,nan,nan,nan,nan,0.0,nan,nan,nan,nan,nan,nan,nan,nan,nan,nan,nan,nan,nan,nan,nan,nan,nan,nan,263.05302549735643,265.08127835500636,nan,265.4529996672936,nan,nan,nan,nan
1,3,1,1,1.0,1.0,0.37921973210177384,0.0,6,1,5,8,7,4,nan,nan,nan,nan,nan,nan,nan,nan,nan,nan,nan,nan,0.0,nan,nan,nan,nan,nan,nan,nan,nan,nan,nan,nan,nan,nan,nan,nan,nan,nan,nan,263.05302549735643,266.08974212405155,nan,266.4689618561533,nan,nan,nan,nan
1,4,1,1,1.0,1.0,0.42672939630574547,0.0,2,5,0,6,3,8,nan,nan,nan,nan,nan,nan,nan,nan,nan,nan,nan,nan,0.0,nan,nan,nan,nan,nan,nan,nan,nan,nan,nan,nan,nan,nan,nan,nan,nan,nan,nan,263.05302549735643,267.09820988448337,nan,267.5249392807891,nan,nan,nan,nan
1,5,1,1,1.0,1.0,0.4022874727670569,0.0,1,8,6,2,4,0,nan,nan,nan,nan,nan,nan,nan,nan,nan,nan,nan,nan,0.0,nan,nan,nan,nan,nan,nan,nan,nan,nan,nan,nan,nan,nan,nan,nan,nan,nan,nan,263.05302549735643,268.1066394415102,nan,268.50892691427725,nan,nan,nan,nan
1,6,1,1,1.0,1.0,0.32180255159619264,0.0,3,0,7,1,6,2,nan,nan,nan,nan,nan,nan,nan,nan,nan,nan,nan,nan,0.0,nan,nan,nan,nan,nan,nan,nan,nan,nan,nan,nan,nan,nan,nan,nan,nan,nan,nan,263.05302549735643,269.1151091976499,nan,269.43691174924606,nan,nan,nan,nan
1,7,1,1,1.0,1.0,0.46534707097453065,0.0,2,4,5,6,3,0,nan,nan,nan,nan,nan,nan,nan,nan,nan,nan,nan,nan,0.0,nan,nan,nan,nan,nan,nan,nan,nan,nan,nan,nan,nan,nan,nan,nan,nan,nan,nan,263.05302549735643,270.1235755326052,nan,270.5889226035797,nan,nan,nan,nan
1,8,1,1,1.0,1.0,0.31282645752071403,0.0,1,5,6,3,7,2,nan,nan,nan,nan,nan,nan,nan,nan,nan,nan,nan,nan,0.0,nan,nan,nan,nan,nan,nan,nan,nan,nan,nan,nan,nan,nan,nan,nan,nan,nan,nan,263.05302549735643,271.13209461106453,nan,271.44492106858524,nan,nan,nan,nan
1,9,1,1,1.0,1.0,0.3683286201558076,0.0,0,4,2,5,1,7,nan,nan,nan,nan,nan,nan,nan,nan,nan,nan,nan,nan,0.0,nan,nan,nan,nan,nan,nan,nan,nan,nan,nan,nan,nan,nan,nan,nan,nan,nan,nan,263.05302549735643,272.1405632267997,nan,272.5088918469555,nan,nan,nan,nan
1,10,1,1,1.0,1.0,0.47985553403850645,0.0,8,1,0,6,3,2,nan,nan,nan,nan,nan,nan,nan,nan,nan,nan,nan,nan,0.0,nan,nan,nan,nan,nan,nan,nan,nan,nan,nan,nan,nan,nan,nan,nan,nan,nan,nan,263.05302549735643,273.14903982536634,nan,273.62889535940485,nan,nan,nan,nan
1,11,1,1,1.0,1.0,0.43937159358756617,0.0,1,3,5,4,6,0,nan,nan,nan,nan,nan,nan,nan,nan,nan,nan,nan,nan,0.0,nan,nan,nan,nan,nan,nan,nan,nan,nan,nan,nan,nan,nan,nan,nan,nan,nan,nan,263.05302549735643,274.15750501991715,nan,274.5968766135047,nan,nan,nan,nan
1,12,0,0,0.0,1.0,0.7268939846544527,1.0,0,4,2,7,8,5,1.0,1.0,1.0,1.0,1.0,1.0,0.0,1.0,0.0,1.0,0.0,0.0,2.0,8.0,4.0,0.0,7.0,5.0,2.0,6.0,1.0,2.0,3.0,5.0,4.0,8.553361773025244,1.9135308260156307,2.80197739781579,3.7540628913848195,6.954232582997065,6.105961473251227,263.05302549735643,275.1659733505512,275.9743598004279,275.89286733520566,285.59237317103543,286.5924903472187,276.99954640562646,285.58403940769495
1,13,1,1,nan,nan,nan,0.0,3,8,1,5,0,2,nan,nan,nan,nan,nan,nan,nan,nan,nan,nan,nan,nan,0.0,nan,nan,nan,nan,nan,nan,nan,nan,nan,nan,nan,nan,nan,nan,nan,nan,nan,nan,263.05302549735643,286.80090599134564,nan,nan,nan,nan,nan,nan
1,14,1,1,1.0,1.0,0.0034001047315541655,0.0,0,6,7,2,1,4,nan,nan,nan,nan,nan,nan,nan,nan,nan,nan,nan,nan,0.0,nan,nan,nan,nan,nan,nan,nan,nan,nan,nan,nan,nan,nan,nan,nan,nan,nan,nan,263.05302549735643,287.80937232630095,nan,287.8127724310325,nan,nan,nan,nan
1,15,1,1,1.0,1.0,0.6909248906595167,0.0,2,8,6,5,3,7,nan,nan,nan,nan,nan,nan,nan,nan,nan,nan,nan,nan,0.0,nan,nan,nan,nan,nan,nan,nan,nan,nan,nan,nan,nan,nan,nan,nan,nan,nan,nan,263.05302549735643,288.81779675150756,nan,289.5087216421671,nan,nan,nan,nan
1,16,1,1,1.0,1.0,0.35442456949385814,0.0,1,6,7,4,8,0,nan,nan,nan,nan,nan,nan,nan,nan,nan,nan,nan,nan,0.0,nan,nan,nan,nan,nan,nan,nan,nan,nan,nan,nan,nan,nan,nan,nan,nan,nan,nan,263.05302549735643,289.8262947325711,nan,290.180719302065,nan,nan,nan,nan
1,17,1,1,1.0,1.0,0.3459861743613146,0.0,7,2,1,0,5,3,nan,nan,nan,nan,nan,nan,nan,nan,nan,nan,nan,nan,0.0,nan,nan,nan,nan,nan,nan,nan,nan,nan,nan,nan,nan,nan,nan,nan,nan,nan,nan,263.05302549735643,290.83474025520263,nan,291.18072642956395,nan,nan,nan,nan
1,18,1,1,1.0,1.0,0.35349457268603146,0.0,1,6,5,3,4,7,nan,nan,nan,nan,nan,nan,nan,nan,nan,nan,nan,nan,0.0,nan,nan,nan,nan,nan,nan,nan,nan,nan,nan,nan,nan,nan,nan,nan,nan,nan,nan,263.05302549735643,291.843221130257,nan,292.19671570294304,nan,nan,nan,nan
1,19,1,1,1.0,1.0,0.29701252075028606,0.0,6,4,0,2,8,3,nan,nan,nan,nan,nan,nan,nan,nan,nan,nan,nan,nan,0.0,nan,nan,nan,nan,nan,nan,nan,nan,nan,nan,nan,nan,nan,nan,nan,nan,nan,nan,263.05302549735643,292.851701150008,nan,293.1487136707583,nan,nan,nan,nan
1,20,1,1,1.0,1.0,0.33649490427342243,0.0,5,7,4,8,2,6,nan,nan,nan,nan,nan,nan,nan,nan,nan,nan,nan,nan,0.0,nan,nan,nan,nan,nan,nan,nan,nan,nan,nan,nan,nan,nan,nan,nan,nan,nan,nan,263.05302549735643,293.8601959949592,nan,294.19669089923264,nan,nan,nan,nan
1,21,1,1,1.0,1.0,0.3199975823517889,0.0,8,5,3,0,1,7,nan,nan,nan,nan,nan,nan,nan,nan,nan,nan,nan,nan,0.0,nan,nan,nan,nan,nan,nan,nan,nan,nan,nan,nan,nan,nan,nan,nan,nan,nan,nan,263.05302549735643,294.8686808614293,nan,295.1886784437811,nan,nan,nan,nan
1,22,0,0,1.0,0.0,0.30348629053332843,1.0,0,6,4,5,7,2,1.0,1.0,1.0,1.0,1.0,1.0,0.0,1.0,0.0,0.0,0.0,1.0,2.0,7.0,6.0,0.0,3.0,1.0,2.0,6.0,1.0,2.0,3.0,4.0,5.0,8.635135917225853,1.9006896288192365,3.5230767212924547,4.852750033547636,6.314841830695514,7.138961819087854,263.05302549735643,295.87715745996684,296.68553393133334,296.18064375050017,306.3701851925289,307.3715003596444,297.6940122405067,306.3618574162829
1,23,1,1,1.0,1.0,0.4818324187071994,0.0,6,0,1,4,8,7,nan,nan,nan,nan,nan,nan,nan,nan,nan,nan,nan,nan,0.0,nan,nan,nan,nan,nan,nan,nan,nan,nan,nan,nan,nan,nan,nan,nan,nan,nan,nan,263.05302549735643,307.5787217191246,nan,308.0605541378318,nan,nan,nan,nan
1,24,1,1,1.0,1.0,0.3053813514125068,0.0,5,3,6,0,1,4,nan,nan,nan,nan,nan,nan,nan,nan,nan,nan,nan,nan,0.0,nan,nan,nan,nan,nan,nan,nan,nan,nan,nan,nan,nan,nan,nan,nan,nan,nan,nan,263.05302549735643,308.58718235208653,nan,308.89256370349904,nan,nan,nan,nan
1,25,1,1,1.0,1.0,0.36885662568965927,0.0,2,1,0,6,3,7,nan,nan,nan,nan,nan,nan,nan,nan,nan,nan,nan,nan,0.0,nan,nan,nan,nan,nan,nan,nan,nan,nan,nan,nan,nan,nan,nan,nan,nan,nan,nan,263.05302549735643,309.59569601365365,nan,309.9645526393433,nan,nan,nan,nan
1,26,0,0,nan,nan,nan,0.0,6,2,3,4,8,5,nan,nan,nan,nan,nan,nan,nan,nan,nan,nan,nan,nan,0.0,nan,nan,nan,nan,nan,nan,nan,nan,nan,nan,nan,nan,nan,nan,nan,nan,nan,nan,263.05302549735643,310.60416263368097,nan,nan,nan,nan,nan,nan
1,27,1,1,1.0,1.0,0.1279452630551532,0.0,2,6,7,8,0,3,nan,nan,nan,nan,nan,nan,nan,nan,nan,nan,nan,nan,0.0,nan,nan,nan,nan,nan,nan,nan,nan,nan,nan,nan,nan,nan,nan,nan,nan,nan,nan,263.05302549735643,311.6126081563125,nan,311.74055341936764,nan,nan,nan,nan
1,28,1,1,1.0,1.0,0.7594370297738351,0.0,0,4,6,1,2,8,nan,nan,nan,nan,nan,nan,nan,nan,nan,nan,nan,nan,0.0,nan,nan,nan,nan,nan,nan,nan,nan,nan,nan,nan,nan,nan,nan,nan,nan,nan,nan,263.05302549735643,312.62107164025656,nan,313.3805086700304,nan,nan,nan,nan
1,29,1,1,1.0,1.0,0.46294652749202214,0.0,6,1,0,4,3,7,nan,nan,nan,nan,nan,nan,nan,nan,nan,nan,nan,nan,0.0,nan,nan,nan,nan,nan,nan,nan,nan,nan,nan,nan,nan,nan,nan,nan,nan,nan,nan,263.05302549735643,313.6295667703089,nan,314.0925132978009,nan,nan,nan,nan
1,30,0,0,0.0,1.0,0.5824884627072606,1.0,1,0,7,2,8,4,1.0,1.0,1.0,1.0,1.0,1.0,1.0,1.0,0.0,1.0,1.0,0.0,4.0,1.0,0.0,4.0,2.0,8.0,3.0,6.0,3.0,4.0,2.0,1.0,5.0,6.737276477884734,3.0576318609528244,4.570093447284307,2.0576429798675235,1.2513357656134758,5.729197023872985,263.05302549735643,314.638015999255,315.44646232016385,315.22050446196226,323.2391865065438,324.2349616069987,316.4632863668958,323.23085502398317
1,31,1,1,1.0,1.0,0.5650503101933282,0.0,4,3,6,7,0,5,nan,nan,nan,nan,nan,nan,nan,nan,nan,nan,nan,nan,0.0,nan,nan,nan,nan,nan,nan,nan,nan,nan,nan,nan,nan,nan,nan,nan,nan,nan,nan,263.05302549735643,324.43936418098747,nan,325.0044144911808,nan,nan,nan,nan
1,32,1,1,1.0,1.0,0.4045471768185962,0.0,2,6,5,3,7,8,nan,nan,nan,nan,nan,nan,nan,nan,nan,nan,nan,nan,0.0,nan,nan,nan,nan,nan,nan,nan,nan,nan,nan,nan,nan,nan,nan,nan,nan,nan,nan,263.05302549735643,325.4478262394259,nan,325.8523734162445,nan,nan,nan,nan
1,33,1,1,1.0,1.0,0.3480813755886629,0.0,3,1,0,2,4,6,nan,nan,nan,nan,nan,nan,nan,nan,nan,nan,nan,nan,0.0,nan,nan,nan,nan,nan,nan,nan,nan,nan,nan,nan,nan,nan,nan,nan,nan,nan,nan,263.05302549735643,326.4562962806667,nan,326.8043776562554,nan,nan,nan,nan
1,34,0,0,nan,nan,nan,1.0,6,5,8,3,2,1,1.0,1.0,1.0,1.0,1.0,1.0,0.0,1.0,0.0,0.0,1.0,1.0,3.0,4.0,5.0,3.0,6.0,2.0,1.0,6.0,1.0,2.0,3.0,4.0,5.0,7.4786287479510065,1.3297696761146653,2.318902797647752,3.320338847261155,4.878894005174516,5.8711686455935705,263.05302549735643,327.464800819027,328.27319382622954,nan,336.8077130432648,337.80684462809586,329.29002870674594,336.79938840310206
1,35,1,1,1.0,1.0,0.4684056256955955,0.0,8,2,1,5,3,0,nan,nan,nan,nan,nan,nan,nan,nan,nan,nan,nan,nan,0.0,nan,nan,nan,nan,nan,nan,nan,nan,nan,nan,nan,nan,nan,nan,nan,nan,nan,nan,263.05302549735643,338.00790126639185,nan,338.47630689208745,nan,nan,nan,nan
1,36,0,0,0.0,1.0,0.7958848069829401,1.0,2,0,5,6,4,7,1.0,1.0,1.0,1.0,1.0,1.0,1.0,1.0,1.0,1.0,0.0,0.0,4.0,2.0,0.0,5.0,6.0,3.0,8.0,3.0,2.0,1.0,4.0,5.0,6.0,2.720082086045295,1.8476316300511826,1.0898450452077668,3.814987659425242,4.654715457203565,5.510865310410736,263.05302549735643,339.016381571244,339.8331314348907,339.8122663782269,346.4006638272549,347.40076332722674,340.84992526099086,346.39233034901554
1,37,1,1,1.0,1.0,0.594972714461619,0.0,6,8,7,3,2,0,nan,nan,nan,nan,nan,nan,nan,nan,nan,nan,nan,nan,0.0,nan,nan,nan,nan,nan,nan,nan,nan,nan,nan,nan,nan,nan,nan,nan,nan,nan,nan,263.05302549735643,347.609227153298,nan,348.2041998677596,nan,nan,nan,nan
1,38,1,1,1.0,1.0,0.3544764577236492,0.0,8,4,3,2,6,7,nan,nan,nan,nan,nan,nan,nan,nan,nan,nan,nan,nan,0.0,nan,nan,nan,nan,nan,nan,nan,nan,nan,nan,nan,nan,nan,nan,nan,nan,nan,nan,263.05302549735643,348.6177023263299,nan,348.97217878405354,nan,nan,nan,nan
1,39,1,1,1.0,1.0,0.38635949592571706,0.0,7,1,0,6,8,5,nan,nan,nan,nan,nan,nan,nan,nan,nan,nan,nan,nan,0.0,nan,nan,nan,nan,nan,nan,nan,nan,nan,nan,nan,nan,nan,nan,nan,nan,nan,nan,263.05302549735643,349.6178112346097,nan,350.0041707305354,nan,nan,nan,nan
1,40,1,1,1.0,1.0,0.3298697462596465,0.0,1,6,2,8,4,7,nan,nan,nan,nan,nan,nan,nan,nan,nan,nan,nan,nan,0.0,nan,nan,nan,nan,nan,nan,nan,nan,nan,nan,nan,nan,nan,nan,nan,nan,nan,nan,263.05302549735643,350.6262941053719,nan,350.9561638516316,nan,nan,nan,nan
1,41,1,1,1.0,1.0,0.3053899044462014,0.0,5,4,0,7,3,2,nan,nan,nan,nan,nan,nan,nan,nan,nan,nan,nan,nan,0.0,nan,nan,nan,nan,nan,nan,nan,nan,nan,nan,nan,nan,nan,nan,nan,nan,nan,nan,263.05302549735643,351.6347424789856,nan,351.9401323834318,nan,nan,nan,nan
1,42,1,1,1.0,1.0,0.3849100466177333,0.0,8,2,4,6,5,1,nan,nan,nan,nan,nan,nan,nan,nan,nan,nan,nan,nan,0.0,nan,nan,nan,nan,nan,nan,nan,nan,nan,nan,nan,nan,nan,nan,nan,nan,nan,nan,263.05302549735643,352.64320710333413,nan,353.02811714995187,nan,nan,nan,nan
1,43,1,1,1.0,1.0,0.392739752860507,0.0,5,3,2,1,6,4,nan,nan,nan,nan,nan,nan,nan,nan,nan,nan,nan,nan,0.0,nan,nan,nan,nan,nan,nan,nan,nan,nan,nan,nan,nan,nan,nan,nan,nan,nan,nan,263.05302549735643,353.6433627680235,nan,354.036102520884,nan,nan,nan,nan
1,44,1,1,1.0,1.0,0.4166017826355528,0.0,0,4,1,5,7,2,nan,nan,nan,nan,nan,nan,nan,nan,nan,nan,nan,nan,0.0,nan,nan,nan,nan,nan,nan,nan,nan,nan,nan,nan,nan,nan,nan,nan,nan,nan,nan,263.05302549735643,354.64350189690595,nan,355.0601036795415,nan,nan,nan,nan
1,45,1,1,1.0,1.0,0.3684837146429345,0.0,1,3,5,7,0,6,nan,nan,nan,nan,nan,nan,nan,nan,nan,nan,nan,nan,0.0,nan,nan,nan,nan,nan,nan,nan,nan,nan,nan,nan,nan,nan,nan,nan,nan,nan,nan,263.05302549735643,355.6436224943027,nan,356.0121062089456,nan,nan,nan,nan
1,46,1,1,1.0,1.0,0.40799631879781373,0.0,5,8,0,1,7,2,nan,nan,nan,nan,nan,nan,nan,nan,nan,nan,nan,nan,0.0,nan,nan,nan,nan,nan,nan,nan,nan,nan,nan,nan,nan,nan,nan,nan,nan,nan,nan,263.05302549735643,356.65211448824266,nan,357.0601108070405,nan,nan,nan,nan
1,47,1,1,1.0,1.0,0.35983120929449797,0.0,7,5,4,3,6,8,nan,nan,nan,nan,nan,nan,nan,nan,nan,nan,nan,nan,0.0,nan,nan,nan,nan,nan,nan,nan,nan,nan,nan,nan,nan,nan,nan,nan,nan,nan,nan,263.05302549735643,357.6522681572533,nan,358.0120993665478,nan,nan,nan,nan
1,48,1,1,1.0,1.0,0.31937378316069953,0.0,4,6,1,7,2,3,nan,nan,nan,nan,nan,nan,nan,nan,nan,nan,nan,nan,0.0,nan,nan,nan,nan,nan,nan,nan,nan,nan,nan,nan,nan,nan,nan,nan,nan,nan,nan,263.05302549735643,358.6607102586713,nan,358.980084041832,nan,nan,nan,nan
1,49,1,1,1.0,1.0,0.30289014606387354,0.0,3,4,5,6,7,2,nan,nan,nan,nan,nan,nan,nan,nan,nan,nan,nan,nan,0.0,nan,nan,nan,nan,nan,nan,nan,nan,nan,nan,nan,nan,nan,nan,nan,nan,nan,nan,263.05302549735643,359.66918058501324,nan,359.9720707310771,nan,nan,nan,nan
1,50,1,1,1.0,1.0,0.36638167101773433,0.0,7,2,0,5,6,1,nan,nan,nan,nan,nan,nan,nan,nan,nan,nan,nan,nan,0.0,nan,nan,nan,nan,nan,nan,nan,nan,nan,nan,nan,nan,nan,nan,nan,nan,nan,nan,263.05302549735643,360.67768312769476,nan,361.0440647987125,nan,nan,nan,nan
1,51,0,0,0.0,1.0,0.5179209696361795,0.0,5,8,6,4,7,0,nan,nan,nan,nan,nan,nan,nan,nan,nan,nan,nan,nan,0.0,nan,nan,nan,nan,nan,nan,nan,nan,nan,nan,nan,nan,nan,nan,nan,nan,nan,nan,263.05302549735643,361.6861300758319,nan,362.2040510454681,nan,nan,nan,nan
1,52,1,1,nan,nan,nan,0.0,1,6,2,0,5,8,nan,nan,nan,nan,nan,nan,nan,nan,nan,nan,nan,nan,0.0,nan,nan,nan,nan,nan,nan,nan,nan,nan,nan,nan,nan,nan,nan,nan,nan,nan,nan,263.05302549735643,362.686263787793,nan,nan,nan,nan,nan,nan
1,53,1,1,1.0,1.0,0.25366161289275624,0.0,5,3,0,7,4,1,nan,nan,nan,nan,nan,nan,nan,nan,nan,nan,nan,nan,0.0,nan,nan,nan,nan,nan,nan,nan,nan,nan,nan,nan,nan,nan,nan,nan,nan,nan,nan,263.05302549735643,363.68640035079443,nan,363.9400619636872,nan,nan,nan,nan
1,54,1,1,1.0,1.0,0.29313743909006007,0.0,1,4,5,8,0,6,nan,nan,nan,nan,nan,nan,nan,nan,nan,nan,nan,nan,0.0,nan,nan,nan,nan,nan,nan,nan,nan,nan,nan,nan,nan,nan,nan,nan,nan,nan,nan,263.05302549735643,364.6948974765546,nan,364.9880349156447,nan,nan,nan,nan
1,55,1,1,1.0,1.0,0.08499206995475106,0.0,4,3,2,7,6,1,nan,nan,nan,nan,nan,nan,nan,nan,nan,nan,nan,nan,0.0,nan,nan,nan,nan,nan,nan,nan,nan,nan,nan,nan,nan,nan,nan,nan,nan,nan,nan,263.05302549735643,365.69501921432675,nan,365.7800112842815,nan,nan,nan,nan
1,56,1,1,nan,nan,nan,0.0,6,2,8,0,1,4,nan,nan,nan,nan,nan,nan,nan,nan,nan,nan,nan,nan,0.0,nan,nan,nan,nan,nan,nan,nan,nan,nan,nan,nan,nan,nan,nan,nan,nan,nan,nan,263.05302549735643,366.7035094976891,nan,nan,nan,nan,nan,nan
1,57,1,1,1.0,1.0,0.27606621052837,0.0,8,0,3,5,7,6,nan,nan,nan,nan,nan,nan,nan,nan,nan,nan,nan,nan,0.0,nan,nan,nan,nan,nan,nan,nan,nan,nan,nan,nan,nan,nan,nan,nan,nan,nan,nan,263.05302549735643,367.71195188420825,nan,367.9880180947366,nan,nan,nan,nan
1,58,1,1,1.0,1.0,0.3078942244173959,0.0,6,2,8,3,4,5,nan,nan,nan,nan,nan,nan,nan,nan,nan,nan,nan,nan,0.0,nan,nan,nan,nan,nan,nan,nan,nan,nan,nan,nan,nan,nan,nan,nan,nan,nan,nan,263.05302549735643,368.7120836004906,nan,369.019977824908,nan,nan,nan,nan
1,59,1,1,1.0,1.0,0.25942263222532347,0.0,7,5,3,6,0,8,nan,nan,nan,nan,nan,nan,nan,nan,nan,nan,nan,nan,0.0,nan,nan,nan,nan,nan,nan,nan,nan,nan,nan,nan,nan,nan,nan,nan,nan,nan,nan,263.05302549735643,369.72055706294486,nan,369.9799796951702,nan,nan,nan,nan
1,60,1,1,1.0,1.0,0.2832284972537309,0.0,2,8,7,1,3,5,nan,nan,nan,nan,nan,nan,nan,nan,nan,nan,nan,nan,0.0,nan,nan,nan,nan,nan,nan,nan,nan,nan,nan,nan,nan,nan,nan,nan,nan,nan,nan,263.05302549735643,370.7207392419514,nan,371.0039677392051,nan,nan,nan,nan
1,61,1,1,1.0,1.0,0.3067957334278617,0.0,5,3,4,6,2,1,nan,nan,nan,nan,nan,nan,nan,nan,nan,nan,nan,nan,0.0,nan,nan,nan,nan,nan,nan,nan,nan,nan,nan,nan,nan,nan,nan,nan,nan,nan,nan,263.05302549735643,371.72916566286585,nan,372.0359613962937,nan,nan,nan,nan
1,62,1,1,1.0,1.0,0.24261711700819433,0.0,6,1,2,3,8,7,nan,nan,nan,nan,nan,nan,nan,nan,nan,nan,nan,nan,0.0,nan,nan,nan,nan,nan,nan,nan,nan,nan,nan,nan,nan,nan,nan,nan,nan,nan,nan,263.05302549735643,372.72930422157515,nan,372.97192133858334,nan,nan,nan,nan
1,63,1,1,1.0,1.0,0.19446483702631667,0.0,2,0,6,1,3,8,nan,nan,nan,nan,nan,nan,nan,nan,nan,nan,nan,nan,0.0,nan,nan,nan,nan,nan,nan,nan,nan,nan,nan,nan,nan,nan,nan,nan,nan,nan,nan,263.05302549735643,373.72944192495197,nan,373.9239067619783,nan,nan,nan,nan
1,64,1,1,1.0,1.0,0.21799044858198613,0.0,5,6,2,4,1,0,nan,nan,nan,nan,nan,nan,nan,nan,nan,nan,nan,nan,0.0,nan,nan,nan,nan,nan,nan,nan,nan,nan,nan,nan,nan,nan,nan,nan,nan,nan,nan,263.05302549735643,374.7379036982893,nan,374.9558941468713,nan,nan,nan,nan
1,65,1,1,1.0,1.0,0.2578391858260147,0.0,7,1,3,2,5,6,nan,nan,nan,nan,nan,nan,nan,nan,nan,nan,nan,nan,0.0,nan,nan,nan,nan,nan,nan,nan,nan,nan,nan,nan,nan,nan,nan,nan,nan,nan,nan,263.05302549735643,375.73805394608644,nan,375.99589313191245,nan,nan,nan,nan
1,66,1,1,1.0,1.0,0.2973808701499365,0.0,4,7,5,0,6,3,nan,nan,nan,nan,nan,nan,nan,nan,nan,nan,nan,nan,0.0,nan,nan,nan,nan,nan,nan,nan,nan,nan,nan,nan,nan,nan,nan,nan,nan,nan,nan,263.05302549735643,376.7465037452348,nan,377.04388461538474,nan,nan,nan,nan
1,67,1,1,1.0,1.0,0.26522356556961313,0.0,7,8,1,4,3,6,nan,nan,nan,nan,nan,nan,nan,nan,nan,nan,nan,nan,0.0,nan,nan,nan,nan,nan,nan,nan,nan,nan,nan,nan,nan,nan,nan,nan,nan,nan,nan,263.05302549735643,377.74666026522755,nan,378.01188383079716,nan,nan,nan,nan
1,68,1,1,1.0,1.0,0.2410872694454156,0.0,1,6,0,8,2,5,nan,nan,nan,nan,nan,nan,nan,nan,nan,nan,nan,nan,0.0,nan,nan,nan,nan,nan,nan,nan,nan,nan,nan,nan,nan,nan,nan,nan,nan,nan,nan,263.05302549735643,378.74680138981785,nan,378.98788865926326,nan,nan,nan,nan
1,69,1,1,1.0,1.0,0.24059917795239016,0.0,4,1,2,3,5,6,nan,nan,nan,nan,nan,nan,nan,nan,nan,nan,nan,nan,0.0,nan,nan,nan,nan,nan,nan,nan,nan,nan,nan,nan,nan,nan,nan,nan,nan,nan,nan,263.05302549735643,379.7552891072701,nan,379.99588828522246,nan,nan,nan,nan
1,70,1,1,1.0,1.0,0.20813482045195997,0.0,2,4,8,5,1,7,nan,nan,nan,nan,nan,nan,nan,nan,nan,nan,nan,nan,0.0,nan,nan,nan,nan,nan,nan,nan,nan,nan,nan,nan,nan,nan,nan,nan,nan,nan,nan,263.05302549735643,380.76374261270394,nan,380.9718774331559,nan,nan,nan,nan
1,71,1,1,1.0,1.0,0.26399278809549287,0.0,5,0,2,8,3,4,nan,nan,nan,nan,nan,nan,nan,nan,nan,nan,nan,nan,0.0,nan,nan,nan,nan,nan,nan,nan,nan,nan,nan,nan,nan,nan,nan,nan,nan,nan,nan,263.05302549735643,381.7638731885818,nan,382.0278659766773,nan,nan,nan,nan
1,72,1,1,1.0,1.0,0.2395132313540671,0.0,7,6,3,0,5,1,nan,nan,nan,nan,nan,nan,nan,nan,nan,nan,nan,nan,0.0,nan,nan,nan,nan,nan,nan,nan,nan,nan,nan,nan,nan,nan,nan,nan,nan,nan,nan,263.05302549735643,382.7723506424227,nan,383.01186387377675,nan,nan,nan,nan
1,73,0,0,1.0,0.0,0.18333566639921628,1.0,6,3,5,4,0,2,1.0,1.0,1.0,1.0,1.0,1.0,0.0,0.0,1.0,1.0,0.0,0.0,2.0,2.0,8.0,5.0,4.0,6.0,7.0,4.0,2.0,1.0,3.0,6.0,5.0,3.849944647809025,2.0189278009347618,1.1959379496693145,2.907347573316656,5.978192972339457,4.882538725883933,263.05302549735643,383.77249404782197,384.5808967484045,383.9558297142212,391.62352635280695,392.6247770873015,385.60604800118017,391.6151991467632
1,74,1,1,1.0,1.0,0.6916481897933409,0.0,7,6,0,2,1,8,nan,nan,nan,nan,nan,nan,nan,nan,nan,nan,nan,nan,0.0,nan,nan,nan,nan,nan,nan,nan,nan,nan,nan,nan,nan,nan,nan,nan,nan,nan,nan,263.05302549735643,392.83212075475603,nan,393.5237689445494,nan,nan,nan,nan
1,75,1,1,1.0,1.0,0.3551626938569825,0.0,4,5,7,0,3,6,nan,nan,nan,nan,nan,nan,nan,nan,nan,nan,nan,nan,0.0,nan,nan,nan,nan,nan,nan,nan,nan,nan,nan,nan,nan,nan,nan,nan,nan,nan,nan,263.05302549735643,393.840607902006,nan,394.195770595863,nan,nan,nan,nan
1,76,1,1,1.0,1.0,0.29075086550437845,0.0,2,0,5,1,6,8,nan,nan,nan,nan,nan,nan,nan,nan,nan,nan,nan,nan,0.0,nan,nan,nan,nan,nan,nan,nan,nan,nan,nan,nan,nan,nan,nan,nan,nan,nan,nan,263.05302549735643,394.8489972598909,nan,395.1397481253953,nan,nan,nan,nan
1,77,0,0,1.0,0.0,0.21023372799390927,1.0,8,1,6,2,0,7,1.0,1.0,1.0,1.0,1.0,1.0,0.0,1.0,1.0,1.0,0.0,0.0,3.0,4.0,1.0,6.0,2.0,6.0,0.0,4.0,1.0,2.0,3.0,6.0,5.0,4.229844914079877,1.047119076945819,2.0140309202834032,2.893997472303454,6.1094103301584255,4.9419772666879,263.05302549735643,395.8574958111567,396.6659130518674,396.0677295391506,403.82517229317455,404.8238779383537,397.6743870844948,403.81685478051077
1,78,1,1,1.0,1.0,0.3622713817167096,0.0,0,7,1,5,6,8,nan,nan,nan,nan,nan,nan,nan,nan,nan,nan,nan,nan,0.0,nan,nan,nan,nan,nan,nan,nan,nan,nan,nan,nan,nan,nan,nan,nan,nan,nan,nan,263.05302549735643,405.0253915922367,nan,405.3876629739534,nan,nan,nan,nan
1,79,0,0,0.0,1.0,0.7937437046202831,1.0,6,2,8,1,4,7,1.0,1.0,1.0,1.0,1.0,1.0,0.0,1.0,0.0,0.0,1.0,0.0,2.0,0.0,2.0,1.0,6.0,4.0,8.0,5.0,4.0,3.0,2.0,1.0,6.0,5.013545679743402,4.005062809010269,3.1900928257673513,2.1011943131743465,1.2452277793781832,6.540658849407919,263.05302549735643,406.0338553612819,406.8422837208782,406.8275990659022,414.4350035737443,415.43178051619907,407.8591086228844,414.4266755123681
1,80,1,1,1.0,1.0,0.7123632837610785,0.0,0,8,5,7,6,3,nan,nan,nan,nan,nan,nan,nan,nan,nan,nan,nan,nan,0.0,nan,nan,nan,nan,nan,nan,nan,nan,nan,nan,nan,nan,nan,nan,nan,nan,nan,nan,263.05302549735643,415.6352009200782,nan,416.3475642038393,nan,nan,nan,nan
1,81,1,1,1.0,1.0,0.43184951043804176,0.0,2,0,4,1,7,5,nan,nan,nan,nan,nan,nan,nan,nan,nan,nan,nan,nan,0.0,nan,nan,nan,nan,nan,nan,nan,nan,nan,nan,nan,nan,nan,nan,nan,nan,nan,nan,263.05302549735643,416.6436723868246,nan,417.07552189726266,nan,nan,nan,nan
1,82,1,1,1.0,1.0,0.3837032175506465,0.0,5,4,1,8,0,2,nan,nan,nan,nan,nan,nan,nan,nan,nan,nan,nan,nan,0.0,nan,nan,nan,nan,nan,nan,nan,nan,nan,nan,nan,nan,nan,nan,nan,nan,nan,nan,263.05302549735643,417.64381636242615,nan,418.0275195799768,nan,nan,nan,nan
1,83,1,1,1.0,1.0,0.3592153929057531,0.0,6,8,7,0,3,4,nan,nan,nan,nan,nan,nan,nan,nan,nan,nan,nan,nan,0.0,nan,nan,nan,nan,nan,nan,nan,nan,nan,nan,nan,nan,nan,nan,nan,nan,nan,nan,263.05302549735643,418.6522784208646,nan,419.01149381377036,nan,nan,nan,nan
1,84,1,1,1.0,1.0,0.33509306667838246,0.0,7,6,0,3,2,1,nan,nan,nan,nan,nan,nan,nan,nan,nan,nan,nan,nan,0.0,nan,nan,nan,nan,nan,nan,nan,nan,nan,nan,nan,nan,nan,nan,nan,nan,nan,nan,263.05302549735643,419.6523970225244,nan,419.98749008920277,nan,nan,nan,nan
1,85,1,1,1.0,1.0,0.32694433332653716,0.0,2,4,5,7,1,0,nan,nan,nan,nan,nan,nan,nan,nan,nan,nan,nan,nan,0.0,nan,nan,nan,nan,nan,nan,nan,nan,nan,nan,nan,nan,nan,nan,nan,nan,nan,nan,263.05302549735643,420.65253158981795,nan,420.9794759231445,nan,nan,nan,nan
1,86,1,1,1.0,1.0,0.3744702482072171,0.0,8,5,2,1,3,4,nan,nan,nan,nan,nan,nan,nan,nan,nan,nan,nan,nan,0.0,nan,nan,nan,nan,nan,nan,nan,nan,nan,nan,nan,nan,nan,nan,nan,nan,nan,nan,263.05302549735643,421.6609873760608,nan,422.035457624268,nan,nan,nan,nan
1,87,1,1,1.0,1.0,0.34236511698691174,0.0,1,3,6,7,4,5,nan,nan,nan,nan,nan,nan,nan,nan,nan,nan,nan,nan,0.0,nan,nan,nan,nan,nan,nan,nan,nan,nan,nan,nan,nan,nan,nan,nan,nan,nan,nan,263.05302549735643,422.6610959992104,nan,423.0034611161973,nan,nan,nan,nan
1,88,1,1,1.0,1.0,0.36616043327376246,0.0,6,4,2,5,1,3,nan,nan,nan,nan,nan,nan,nan,nan,nan,nan,nan,nan,0.0,nan,nan,nan,nan,nan,nan,nan,nan,nan,nan,nan,nan,nan,nan,nan,nan,nan,nan,263.05302549735643,423.6612767527404,nan,424.02743718601414,nan,nan,nan,nan
1,89,1,1,1.0,1.0,0.32570899426355027,0.0,5,6,7,0,8,4,nan,nan,nan,nan,nan,nan,nan,nan,nan,nan,nan,nan,0.0,nan,nan,nan,nan,nan,nan,nan,nan,nan,nan,nan,nan,nan,nan,nan,nan,nan,nan,263.05302549735643,424.669727407163,nan,424.99543640142656,nan,nan,nan,nan
1,90,1,1,1.0,1.0,0.333399571623886,0.0,3,5,2,7,0,6,nan,nan,nan,nan,nan,nan,nan,nan,nan,nan,nan,nan,0.0,nan,nan,nan,nan,nan,nan,nan,nan,nan,nan,nan,nan,nan,nan,nan,nan,nan,nan,263.05302549735643,425.67817178939003,nan,426.0115713610139,nan,nan,nan,nan
1,91,1,1,1.0,1.0,0.31709155620774254,0.0,6,8,7,3,2,4,nan,nan,nan,nan,nan,nan,nan,nan,nan,nan,nan,nan,0.0,nan,nan,nan,nan,nan,nan,nan,nan,nan,nan,nan,nan,nan,nan,nan,nan,nan,nan,263.05302549735643,426.67835396842565,nan,426.9954455246334,nan,nan,nan,nan
1,92,1,1,1.0,1.0,0.3245945376402233,0.0,3,5,8,1,6,0,nan,nan,nan,nan,nan,nan,nan,nan,nan,nan,nan,nan,0.0,nan,nan,nan,nan,nan,nan,nan,nan,nan,nan,nan,nan,nan,nan,nan,nan,nan,nan,263.05302549735643,427.6868120354484,nan,428.0114065730886,nan,nan,nan,nan
1,93,1,1,1.0,1.0,0.38041572738438845,0.0,6,8,2,0,4,1,nan,nan,nan,nan,nan,nan,nan,nan,nan,nan,nan,nan,0.0,nan,nan,nan,nan,nan,nan,nan,nan,nan,nan,nan,nan,nan,nan,nan,nan,nan,nan,263.05302549735643,428.6869708362501,nan,429.0673865636345,nan,nan,nan,nan
1,94,1,1,1.0,1.0,0.42027415803750046,0.0,7,2,5,3,8,0,nan,nan,nan,nan,nan,nan,nan,nan,nan,nan,nan,nan,0.0,nan,nan,nan,nan,nan,nan,nan,nan,nan,nan,nan,nan,nan,nan,nan,nan,nan,nan,263.05302549735643,429.6871022674313,nan,430.10737642546883,nan,nan,nan,nan
1,95,1,1,1.0,1.0,0.33982373398612253,0.0,1,4,2,0,6,8,nan,nan,nan,nan,nan,nan,nan,nan,nan,nan,nan,nan,0.0,nan,nan,nan,nan,nan,nan,nan,nan,nan,nan,nan,nan,nan,nan,nan,nan,nan,nan,263.05302549735643,430.6955623301619,nan,431.03538606414804,nan,nan,nan,nan
1,96,1,1,1.0,1.0,0.31536042792140506,0.0,8,2,1,5,3,7,nan,nan,nan,nan,nan,nan,nan,nan,nan,nan,nan,nan,0.0,nan,nan,nan,nan,nan,nan,nan,nan,nan,nan,nan,nan,nan,nan,nan,nan,nan,nan,263.05302549735643,431.70402524390374,nan,432.01938567182515,nan,nan,nan,nan
1,97,1,1,1.0,1.0,0.339185109565733,0.0,5,0,7,2,4,6,nan,nan,nan,nan,nan,nan,nan,nan,nan,nan,nan,nan,0.0,nan,nan,nan,nan,nan,nan,nan,nan,nan,nan,nan,nan,nan,nan,nan,nan,nan,nan,263.05302549735643,432.704211414326,nan,433.0433965238917,nan,nan,nan,nan
1,98,1,1,1.0,1.0,0.3546894275350496,0.0,0,4,2,5,6,8,nan,nan,nan,nan,nan,nan,nan,nan,nan,nan,nan,nan,0.0,nan,nan,nan,nan,nan,nan,nan,nan,nan,nan,nan,nan,nan,nan,nan,nan,nan,nan,263.05302549735643,433.7126754684723,nan,434.06736489600735,nan,nan,nan,nan
1,99,1,1,1.0,1.0,0.4022210444381926,0.0,5,0,3,7,8,2,nan,nan,nan,nan,nan,nan,nan,nan,nan,nan,nan,nan,0.0,nan,nan,nan,nan,nan,nan,nan,nan,nan,nan,nan,nan,nan,nan,nan,nan,nan,nan,263.05302549735643,434.7211366716074,nan,435.1233577160456,nan,nan,nan,nan
1,100,1,1,1.0,1.0,0.5937673109292518,0.0,2,7,8,4,5,1,nan,nan,nan,nan,nan,nan,nan,nan,nan,nan,nan,nan,0.0,nan,nan,nan,nan,nan,nan,nan,nan,nan,nan,nan,nan,nan,nan,nan,nan,nan,nan,263.05302549735643,435.7295762071444,nan,436.32334351807367,nan,nan,nan,nan
1,101,1,1,1.0,1.0,0.4413008665142115,0.0,0,4,1,7,6,3,nan,nan,nan,nan,nan,nan,nan,nan,nan,nan,nan,nan,0.0,nan,nan,nan,nan,nan,nan,nan,nan,nan,nan,nan,nan,nan,nan,nan,nan,nan,nan,263.05302549735643,436.738033989066,nan,437.17933485558024,nan,nan,nan,nan
1,102,1,1,1.0,1.0,0.4251602049043868,0.0,1,7,5,2,0,8,nan,nan,nan,nan,nan,nan,nan,nan,nan,nan,nan,nan,0.0,nan,nan,nan,nan,nan,nan,nan,nan,nan,nan,nan,nan,nan,nan,nan,nan,nan,nan,263.05302549735643,437.7381785348698,nan,438.1633387397742,nan,nan,nan,nan
1,103,1,1,1.0,1.0,0.3206561637634877,0.0,0,2,7,6,5,4,nan,nan,nan,nan,nan,nan,nan,nan,nan,nan,nan,nan,0.0,nan,nan,nan,nan,nan,nan,nan,nan,nan,nan,nan,nan,nan,nan,nan,nan,nan,nan,263.05302549735643,438.74666796292877,nan,439.06732412669226,nan,nan,nan,nan
1,104,1,1,1.0,1.0,0.42413412939640693,0.0,1,3,8,4,7,6,nan,nan,nan,nan,nan,nan,nan,nan,nan,nan,nan,nan,0.0,nan,nan,nan,nan,nan,nan,nan,nan,nan,nan,nan,nan,nan,nan,nan,nan,nan,nan,263.05302549735643,439.75516993537894,nan,440.17930406477535,nan,nan,nan,nan
1,105,1,1,1.0,1.0,0.3116581169888377,0.0,4,6,3,2,1,0,nan,nan,nan,nan,nan,nan,nan,nan,nan,nan,nan,nan,0.0,nan,nan,nan,nan,nan,nan,nan,nan,nan,nan,nan,nan,nan,nan,nan,nan,nan,nan,263.05302549735643,440.7636322789185,nan,441.07529039590736,nan,nan,nan,nan
1,106,1,1,1.0,1.0,0.2955148894980084,0.0,3,8,1,0,4,5,nan,nan,nan,nan,nan,nan,nan,nan,nan,nan,nan,nan,0.0,nan,nan,nan,nan,nan,nan,nan,nan,nan,nan,nan,nan,nan,nan,nan,nan,nan,nan,263.05302549735643,441.7637508806074,nan,442.0592657701054,nan,nan,nan,nan
1,107,0,0,0.0,1.0,0.5430462783260737,1.0,0,6,4,8,5,1,1.0,1.0,1.0,1.0,1.0,1.0,0.0,0.0,0.0,1.0,0.0,0.0,1.0,1.0,0.0,5.0,8.0,7.0,6.0,6.0,5.0,2.0,1.0,4.0,3.0,8.066115016816184,7.058443541172892,3.548646786250174,1.7225288157933392,5.978731811657781,5.083981674892129,263.05302549735643,442.7722186410392,443.5806467155635,443.3152649193653,452.70690732164076,453.7138603448111,444.5974470989604,452.6985761241813
1,108,1,1,1.0,1.0,0.4557691304362379,0.0,4,5,8,1,0,7,nan,nan,nan,nan,nan,nan,nan,nan,nan,nan,nan,nan,0.0,nan,nan,nan,nan,nan,nan,nan,nan,nan,nan,nan,nan,nan,nan,nan,nan,nan,nan,263.05302549735643,453.9154281677329,nan,454.37119729816914,nan,nan,nan,nan
1,109,1,1,1.0,1.0,0.31159510984434746,0.0,1,2,0,3,7,4,nan,nan,nan,nan,nan,nan,nan,nan,nan,nan,nan,nan,0.0,nan,nan,nan,nan,nan,nan,nan,nan,nan,nan,nan,nan,nan,nan,nan,nan,nan,nan,263.05302549735643,454.9155767049233,nan,455.22717181476764,nan,nan,nan,nan
1,110,1,1,1.0,1.0,0.2154382317676209,0.0,0,7,5,4,8,6,nan,nan,nan,nan,nan,nan,nan,nan,nan,nan,nan,nan,0.0,nan,nan,nan,nan,nan,nan,nan,nan,nan,nan,nan,nan,nan,nan,nan,nan,nan,nan,263.05302549735643,455.9157152636035,nan,456.1311534953711,nan,nan,nan,nan
1,111,1,1,1.0,1.0,0.19129879950196482,0.0,7,2,8,3,1,0,nan,nan,nan,nan,nan,nan,nan,nan,nan,nan,nan,nan,0.0,nan,nan,nan,nan,nan,nan,nan,nan,nan,nan,nan,nan,nan,nan,nan,nan,nan,nan,263.05302549735643,456.91585353721166,nan,457.1071523367136,nan,nan,nan,nan
1,112,1,1,1.0,1.0,0.054832747409818694,0.0,8,3,6,4,7,2,nan,nan,nan,nan,nan,nan,nan,nan,nan,nan,nan,nan,0.0,nan,nan,nan,nan,nan,nan,nan,nan,nan,nan,nan,nan,nan,nan,nan,nan,nan,nan,263.05302549735643,457.9243207274412,nan,457.97915347485105,nan,nan,nan,nan
1,113,1,1,nan,nan,nan,0.0,7,6,4,8,5,0,nan,nan,nan,nan,nan,nan,nan,nan,nan,nan,nan,nan,0.0,nan,nan,nan,nan,nan,nan,nan,nan,nan,nan,nan,nan,nan,nan,nan,nan,nan,nan,263.05302549735643,458.93278991337866,nan,nan,nan,nan,nan,nan
1,114,1,1,1.0,1.0,0.7981750167091377,0.0,2,3,6,5,7,8,nan,nan,nan,nan,nan,nan,nan,nan,nan,nan,nan,nan,0.0,nan,nan,nan,nan,nan,nan,nan,nan,nan,nan,nan,nan,nan,nan,nan,nan,nan,nan,263.05302549735643,459.93292619127897,nan,460.7311012079881,nan,nan,nan,nan
1,115,1,1,1.0,1.0,0.5653921453049406,0.0,3,4,1,0,2,7,nan,nan,nan,nan,nan,nan,nan,nan,nan,nan,nan,nan,0.0,nan,nan,nan,nan,nan,nan,nan,nan,nan,nan,nan,nan,nan,nan,nan,nan,nan,nan,263.05302549735643,460.9497020560666,nan,461.51509420137154,nan,nan,nan,nan
1,116,1,1,1.0,1.0,0.40521887282375246,0.0,2,0,8,7,3,6,nan,nan,nan,nan,nan,nan,nan,nan,nan,nan,nan,nan,0.0,nan,nan,nan,nan,nan,nan,nan,nan,nan,nan,nan,nan,nan,nan,nan,nan,nan,nan,263.05302549735643,461.9498491677514,nan,462.35506804057513,nan,nan,nan,nan
1,117,1,1,1.0,1.0,0.3490909153188113,0.0,5,3,2,6,4,7,nan,nan,nan,nan,nan,nan,nan,nan,nan,nan,nan,nan,0.0,nan,nan,nan,nan,nan,nan,nan,nan,nan,nan,nan,nan,nan,nan,nan,nan,nan,nan,263.05302549735643,462.94998744133045,nan,463.29907835664926,nan,nan,nan,nan
1,118,1,1,1.0,1.0,0.3486532865499612,0.0,7,1,5,8,3,6,nan,nan,nan,nan,nan,nan,nan,nan,nan,nan,nan,nan,0.0,nan,nan,nan,nan,nan,nan,nan,nan,nan,nan,nan,nan,nan,nan,nan,nan,nan,nan,263.05302549735643,463.9584232705529,nan,464.30707655710285,nan,nan,nan,nan
1,119,1,1,1.0,1.0,0.46848687925376,0.0,5,2,0,7,4,3,nan,nan,nan,nan,nan,nan,nan,nan,nan,nan,nan,nan,0.0,nan,nan,nan,nan,nan,nan,nan,nan,nan,nan,nan,nan,nan,nan,nan,nan,nan,nan,263.05302549735643,464.95859347537044,nan,465.4270803546242,nan,nan,nan,nan
1,120,1,1,nan,nan,nan,0.0,7,8,2,3,6,5,nan,nan,nan,nan,nan,nan,nan,nan,nan,nan,nan,nan,0.0,nan,nan,nan,nan,nan,nan,nan,nan,nan,nan,nan,nan,nan,nan,nan,nan,nan,nan,263.05302549735643,465.9587251916528,nan,nan,nan,nan,nan,nan
1,121,1,1,nan,nan,nan,0.0,1,2,4,7,5,0,nan,nan,nan,nan,nan,nan,nan,nan,nan,nan,nan,nan,0.0,nan,nan,nan,nan,nan,nan,nan,nan,nan,nan,nan,nan,nan,nan,nan,nan,nan,nan,263.05302549735643,466.95885605263175,nan,nan,nan,nan,nan,nan
1,122,1,1,1.0,1.0,0.10806893379776739,0.0,4,8,7,6,0,1,nan,nan,nan,nan,nan,nan,nan,nan,nan,nan,nan,nan,0.0,nan,nan,nan,nan,nan,nan,nan,nan,nan,nan,nan,nan,nan,nan,nan,nan,nan,nan,263.05302549735643,467.9589991729299,nan,468.0670681067277,nan,nan,nan,nan
1,123,0,0,0.0,1.0,0.7318949268956203,0.0,2,3,6,5,4,0,nan,nan,nan,nan,nan,nan,nan,nan,nan,nan,nan,nan,0.0,nan,nan,nan,nan,nan,nan,nan,nan,nan,nan,nan,nan,nan,nan,nan,nan,nan,nan,263.05302549735643,468.9591599694395,nan,469.6910548963351,nan,nan,nan,nan
1,124,1,1,nan,nan,nan,0.0,1,4,0,7,3,8,nan,nan,nan,nan,nan,nan,nan,nan,nan,nan,nan,nan,0.0,nan,nan,nan,nan,nan,nan,nan,nan,nan,nan,nan,nan,nan,nan,nan,nan,nan,nan,263.05302549735643,469.9676399891905,nan,nan,nan,nan,nan,nan
1,125,1,1,1.0,1.0,0.2432665752421599,0.0,8,0,4,1,7,2,nan,nan,nan,nan,nan,nan,nan,nan,nan,nan,nan,nan,0.0,nan,nan,nan,nan,nan,nan,nan,nan,nan,nan,nan,nan,nan,nan,nan,nan,nan,nan,263.05302549735643,470.9677748415561,nan,471.21104141679825,nan,nan,nan,nan
1,126,1,1,1.0,1.0,0.5707742664963007,0.0,1,5,7,0,2,8,nan,nan,nan,nan,nan,nan,nan,nan,nan,nan,nan,nan,0.0,nan,nan,nan,nan,nan,nan,nan,nan,nan,nan,nan,nan,nan,nan,nan,nan,nan,nan,263.05302549735643,471.9762081048975,nan,472.5469823713938,nan,nan,nan,nan
1,127,1,1,1.0,1.0,0.4106314997479785,0.0,2,7,3,8,5,0,nan,nan,nan,nan,nan,nan,nan,nan,nan,nan,nan,nan,0.0,nan,nan,nan,nan,nan,nan,nan,nan,nan,nan,nan,nan,nan,nan,nan,nan,nan,nan,263.05302549735643,472.97637945009046,nan,473.38701094983844,nan,nan,nan,nan
1,128,1,1,1.0,1.0,0.31446435805992223,0.0,4,6,0,5,1,8,nan,nan,nan,nan,nan,nan,nan,nan,nan,nan,nan,nan,0.0,nan,nan,nan,nan,nan,nan,nan,nan,nan,nan,nan,nan,nan,nan,nan,nan,nan,nan,263.05302549735643,473.9765200044785,nan,474.29098436253844,nan,nan,nan,nan
1,129,1,1,1.0,1.0,0.32231943821534514,0.0,8,7,4,1,2,6,nan,nan,nan,nan,nan,nan,nan,nan,nan,nan,nan,nan,0.0,nan,nan,nan,nan,nan,nan,nan,nan,nan,nan,nan,nan,nan,nan,nan,nan,nan,nan,263.05302549735643,474.9766611290688,nan,475.29898056728416,nan,nan,nan,nan
1,130,0,0,1.0,0.0,0.2978452983661555,0.0,5,4,7,8,1,2,nan,nan,nan,nan,nan,nan,nan,nan,nan,nan,nan,nan,0.0,nan,nan,nan,nan,nan,nan,nan,nan,nan,nan,nan,nan,nan,nan,nan,nan,nan,nan,263.05302549735643,475.98512290240615,nan,476.2829682007723,nan,nan,nan,nan
1,131,1,1,nan,nan,nan,0.0,6,2,0,3,4,7,nan,nan,nan,nan,nan,nan,nan,nan,nan,nan,nan,nan,0.0,nan,nan,nan,nan,nan,nan,nan,nan,nan,nan,nan,nan,nan,nan,nan,nan,nan,nan,263.05302549735643,476.99359408405144,nan,nan,nan,nan,nan,nan
1,132,1,1,1.0,1.0,0.48119607506669126,0.0,5,8,7,6,2,0,nan,nan,nan,nan,nan,nan,nan,nan,nan,nan,nan,nan,0.0,nan,nan,nan,nan,nan,nan,nan,nan,nan,nan,nan,nan,nan,nan,nan,nan,nan,nan,263.05302549735643,477.99373264276073,nan,478.4749287178274,nan,nan,nan,nan
1,133,0,0,nan,nan,nan,1.0,6,7,5,8,3,1,1.0,1.0,1.0,1.0,1.0,1.0,0.0,0.0,0.0,1.0,1.0,0.0,2.0,8.0,1.0,7.0,8.0,3.0,0.0,5.0,3.0,4.0,1.0,2.0,6.0,5.675963403395144,3.7957334187813103,4.773018917243462,1.4201809302612673,2.3575735009508207,6.571487016946776,263.05302549735643,479.0022032542038,479.8105988272582,nan,487.4366289298632,488.43916118965717,480.8274345631071,487.4282945962914
1,134,1,1,1.0,1.0,0.3737007628369611,0.0,8,2,7,4,1,3,nan,nan,nan,nan,nan,nan,nan,nan,nan,nan,nan,nan,0.0,nan,nan,nan,nan,nan,nan,nan,nan,nan,nan,nan,nan,nan,nan,nan,nan,nan,nan,263.05302549735643,488.64516574156005,nan,489.018866504397,nan,nan,nan,nan
1,135,1,1,1.0,1.0,0.41353980667190626,0.0,6,8,2,0,3,4,nan,nan,nan,nan,nan,nan,nan,nan,nan,nan,nan,nan,0.0,nan,nan,nan,nan,nan,nan,nan,nan,nan,nan,nan,nan,nan,nan,nan,nan,nan,nan,263.05302549735643,489.64530287476373,nan,490.05884268143564,nan,nan,nan,nan
1,136,1,1,1.0,1.0,0.34903845688677393,0.0,1,3,8,6,0,5,nan,nan,nan,nan,nan,nan,nan,nan,nan,nan,nan,nan,0.0,nan,nan,nan,nan,nan,nan,nan,nan,nan,nan,nan,nan,nan,nan,nan,nan,nan,nan,263.05302549735643,490.65379030711483,nan,491.0028287640016,nan,nan,nan,nan
1,137,1,1,1.0,1.0,0.28457987209549174,0.0,0,7,2,4,5,8,nan,nan,nan,nan,nan,nan,nan,nan,nan,nan,nan,nan,0.0,nan,nan,nan,nan,nan,nan,nan,nan,nan,nan,nan,nan,nan,nan,nan,nan,nan,nan,263.05302549735643,491.66224096153746,nan,491.94682083363296,nan,nan,nan,nan
1,138,1,1,1.0,1.0,0.1724060658889357,0.0,4,0,6,8,3,5,nan,nan,nan,nan,nan,nan,nan,nan,nan,nan,nan,nan,0.0,nan,nan,nan,nan,nan,nan,nan,nan,nan,nan,nan,nan,nan,nan,nan,nan,nan,nan,263.05302549735643,492.6624108812539,nan,492.8348169471428,nan,nan,nan,nan
1,139,1,1,1.0,1.0,0.1322548373718746,0.0,3,5,2,0,4,1,nan,nan,nan,nan,nan,nan,nan,nan,nan,nan,nan,nan,0.0,nan,nan,nan,nan,nan,nan,nan,nan,nan,nan,nan,nan,nan,nan,nan,nan,nan,nan,263.05302549735643,493.6625431677385,nan,493.79479800511035,nan,nan,nan,nan
1,140,1,1,1.0,1.0,0.2677706505928654,0.0,8,3,7,1,0,5,nan,nan,nan,nan,nan,nan,nan,nan,nan,nan,nan,nan,0.0,nan,nan,nan,nan,nan,nan,nan,nan,nan,nan,nan,nan,nan,nan,nan,nan,nan,nan,263.05302549735643,494.6710160599905,nan,494.9387867105834,nan,nan,nan,nan
1,141,1,1,1.0,1.0,0.3392903115309309,0.0,0,4,8,6,7,3,nan,nan,nan,nan,nan,nan,nan,nan,nan,nan,nan,nan,0.0,nan,nan,nan,nan,nan,nan,nan,nan,nan,nan,nan,nan,nan,nan,nan,nan,nan,nan,263.05302549735643,495.6794846757257,nan,496.0187749872566,nan,nan,nan,nan
1,142,0,0,0.0,1.0,0.706814664095873,0.0,2,5,6,3,4,8,nan,nan,nan,nan,nan,nan,nan,nan,nan,nan,nan,nan,0.0,nan,nan,nan,nan,nan,nan,nan,nan,nan,nan,nan,nan,nan,nan,nan,nan,nan,nan,263.05302549735643,496.68795186595526,nan,497.39476653005113,nan,nan,nan,nan
1,143,1,1,1.0,1.0,0.6663495402317494,0.0,1,0,3,4,2,7,nan,nan,nan,nan,nan,nan,nan,nan,nan,nan,nan,nan,0.0,nan,nan,nan,nan,nan,nan,nan,nan,nan,nan,nan,nan,nan,nan,nan,nan,nan,nan,263.05302549735643,497.69639938429464,nan,498.3627489245264,nan,nan,nan,nan
1,144,1,1,1.0,1.0,0.3058529070985969,0.0,8,3,2,1,6,4,nan,nan,nan,nan,nan,nan,nan,nan,nan,nan,nan,nan,0.0,nan,nan,nan,nan,nan,nan,nan,nan,nan,nan,nan,nan,nan,nan,nan,nan,nan,nan,263.05302549735643,498.7049033524818,nan,499.0107562595804,nan,nan,nan,nan
1,145,1,1,1.0,1.0,0.27339282614411786,0.0,2,1,3,0,8,7,nan,nan,nan,nan,nan,nan,nan,nan,nan,nan,nan,nan,0.0,nan,nan,nan,nan,nan,nan,nan,nan,nan,nan,nan,nan,nan,nan,nan,nan,nan,nan,263.05302549735643,499.713334049884,nan,499.9867268760281,nan,nan,nan,nan
1,146,1,1,1.0,1.0,0.20091180742019787,0.0,3,2,6,7,4,8,nan,nan,nan,nan,nan,nan,nan,nan,nan,nan,nan,nan,0.0,nan,nan,nan,nan,nan,nan,nan,nan,nan,nan,nan,nan,nan,nan,nan,nan,nan,nan,263.05302549735643,500.721821197134,nan,500.9227330045542,nan,nan,nan,nan
1,147,1,1,1.0,1.0,0.08846145402640104,0.0,5,7,2,6,3,4,nan,nan,nan,nan,nan,nan,nan,nan,nan,nan,nan,nan,0.0,nan,nan,nan,nan,nan,nan,nan,nan,nan,nan,nan,nan,nan,nan,nan,nan,nan,nan,263.05302549735643,501.73026215817663,nan,501.81872361220303,nan,nan,nan,nan
1,148,1,1,1.0,1.0,0.13624880579300225,0.0,6,3,4,1,8,2,nan,nan,nan,nan,nan,nan,nan,nan,nan,nan,nan,nan,0.0,nan,nan,nan,nan,nan,nan,nan,nan,nan,nan,nan,nan,nan,nan,nan,nan,nan,nan,263.05302549735643,502.7304434818798,nan,502.8666922876728,nan,nan,nan,nan
1,149,0,0,0.0,1.0,0.5437792708689813,0.0,1,4,5,0,2,7,nan,nan,nan,nan,nan,nan,nan,nan,nan,nan,nan,nan,0.0,nan,nan,nan,nan,nan,nan,nan,nan,nan,nan,nan,nan,nan,nan,nan,nan,nan,nan,263.05302549735643,503.7388912853203,nan,504.28267055618926,nan,nan,nan,nan
1,150,1,1,1.0,1.0,0.5996432256361004,0.0,4,1,8,6,7,0,nan,nan,nan,nan,nan,nan,nan,nan,nan,nan,nan,nan,0.0,nan,nan,nan,nan,nan,nan,nan,nan,nan,nan,nan,nan,nan,nan,nan,nan,nan,nan,263.05302549735643,504.7390375417017,nan,505.3386807673378,nan,nan,nan,nan
1,151,1,1,1.0,1.0,0.583162154420279,0.0,1,7,6,4,8,3,nan,nan,nan,nan,nan,nan,nan,nan,nan,nan,nan,nan,0.0,nan,nan,nan,nan,nan,nan,nan,nan,nan,nan,nan,nan,nan,nan,nan,nan,nan,nan,263.05302549735643,505.74749617895577,nan,506.33065833337605,nan,nan,nan,nan
1,152,1,1,1.0,1.0,0.446692681114655,0.0,7,3,4,8,2,0,nan,nan,nan,nan,nan,nan,nan,nan,nan,nan,nan,nan,0.0,nan,nan,nan,nan,nan,nan,nan,nan,nan,nan,nan,nan,nan,nan,nan,nan,nan,nan,263.05302549735643,506.7559619436797,nan,507.2026546247944,nan,nan,nan,nan
1,153,1,1,1.0,1.0,0.4382055338646751,0.0,1,5,0,2,6,8,nan,nan,nan,nan,nan,nan,nan,nan,nan,nan,nan,nan,0.0,nan,nan,nan,nan,nan,nan,nan,nan,nan,nan,nan,nan,nan,nan,nan,nan,nan,nan,263.05302549735643,507.76443369552726,nan,508.20263922939193,nan,nan,nan,nan
1,154,1,1,1.0,1.0,0.5740372380823828,0.0,2,7,5,4,1,0,nan,nan,nan,nan,nan,nan,nan,nan,nan,nan,nan,nan,0.0,nan,nan,nan,nan,nan,nan,nan,nan,nan,nan,nan,nan,nan,nan,nan,nan,nan,nan,263.05302549735643,508.76458707943675,nan,509.33862431751913,nan,nan,nan,nan
1,155,1,1,1.0,1.0,0.46161967123043723,0.0,7,6,0,1,8,5,nan,nan,nan,nan,nan,nan,nan,nan,nan,nan,nan,nan,0.0,nan,nan,nan,nan,nan,nan,nan,nan,nan,nan,nan,nan,nan,nan,nan,nan,nan,nan,263.05302549735643,509.77302889575367,nan,510.2346485669841,nan,nan,nan,nan
1,156,1,1,1.0,1.0,0.7254602158500347,0.0,6,0,2,3,1,8,nan,nan,nan,nan,nan,nan,nan,nan,nan,nan,nan,nan,0.0,nan,nan,nan,nan,nan,nan,nan,nan,nan,nan,nan,nan,nan,nan,nan,nan,nan,nan,263.05302549735643,510.77323274238734,nan,511.49869295823737,nan,nan,nan,nan
1,157,1,1,1.0,1.0,0.6052739541919436,0.0,5,6,7,1,4,2,nan,nan,nan,nan,nan,nan,nan,nan,nan,nan,nan,nan,0.0,nan,nan,nan,nan,nan,nan,nan,nan,nan,nan,nan,nan,nan,nan,nan,nan,nan,nan,263.05302549735643,511.77335790137295,nan,512.3786318555649,nan,nan,nan,nan
1,158,1,1,1.0,1.0,0.5488221228588372,0.0,6,5,4,0,1,8,nan,nan,nan,nan,nan,nan,nan,nan,nan,nan,nan,nan,0.0,nan,nan,nan,nan,nan,nan,nan,nan,nan,nan,nan,nan,nan,nan,nan,nan,nan,nan,263.05302549735643,512.7817962965055,nan,513.3306184193643,nan,nan,nan,nan
1,159,1,1,1.0,1.0,0.5883025107032154,0.0,8,2,0,4,3,6,nan,nan,nan,nan,nan,nan,nan,nan,nan,nan,nan,nan,0.0,nan,nan,nan,nan,nan,nan,nan,nan,nan,nan,nan,nan,nan,nan,nan,nan,nan,nan,263.05302549735643,513.7902962732478,nan,514.378598783951,nan,nan,nan,nan
1,160,1,1,nan,nan,nan,0.0,3,6,5,8,0,2,nan,nan,nan,nan,nan,nan,nan,nan,nan,nan,nan,nan,0.0,nan,nan,nan,nan,nan,nan,nan,nan,nan,nan,nan,nan,nan,nan,nan,nan,nan,nan,263.05302549735643,514.7987628933042,nan,nan,nan,nan,nan,nan
1,161,1,1,nan,nan,nan,0.0,1,2,7,4,6,5,nan,nan,nan,nan,nan,nan,nan,nan,nan,nan,nan,nan,0.0,nan,nan,nan,nan,nan,nan,nan,nan,nan,nan,nan,nan,nan,nan,nan,nan,nan,nan,263.05302549735643,515.8071970119199,nan,nan,nan,nan,nan,nan
1,162,0,0,nan,nan,nan,0.0,2,1,8,3,5,0,nan,nan,nan,nan,nan,nan,nan,nan,nan,nan,nan,nan,0.0,nan,nan,nan,nan,nan,nan,nan,nan,nan,nan,nan,nan,nan,nan,nan,nan,nan,nan,263.05302549735643,516.8157078225049,nan,nan,nan,nan,nan,nan
1,163,1,1,1.0,1.0,0.610680023819441,0.0,8,0,2,7,6,1,nan,nan,nan,nan,nan,nan,nan,nan,nan,nan,nan,nan,0.0,nan,nan,nan,nan,nan,nan,nan,nan,nan,nan,nan,nan,nan,nan,nan,nan,nan,nan,263.05302549735643,517.8158512278751,nan,518.4265312516945,nan,nan,nan,nan
1,164,1,1,1.0,1.0,0.38659955028560944,0.0,6,7,4,8,3,5,nan,nan,nan,nan,nan,nan,nan,nan,nan,nan,nan,nan,0.0,nan,nan,nan,nan,nan,nan,nan,nan,nan,nan,nan,nan,nan,nan,nan,nan,nan,nan,263.05302549735643,518.8159601361549,nan,519.2025596864405,nan,nan,nan,nan
1,165,1,1,1.0,1.0,0.33043395954882726,0.0,0,4,1,7,5,8,nan,nan,nan,nan,nan,nan,nan,nan,nan,nan,nan,nan,0.0,nan,nan,nan,nan,nan,nan,nan,nan,nan,nan,nan,nan,nan,nan,nan,nan,nan,nan,263.05302549735643,519.816091282235,nan,520.1465252417838,nan,nan,nan,nan
1,166,1,1,1.0,1.0,0.46631641159183346,0.0,7,1,5,3,0,4,nan,nan,nan,nan,nan,nan,nan,nan,nan,nan,nan,nan,0.0,nan,nan,nan,nan,nan,nan,nan,nan,nan,nan,nan,nan,nan,nan,nan,nan,nan,nan,263.05302549735643,520.8162301260163,nan,521.2825465376081,nan,nan,nan,nan
1,167,1,1,1.0,1.0,0.4418348591425456,0.0,4,5,0,7,6,2,nan,nan,nan,nan,nan,nan,nan,nan,nan,nan,nan,nan,0.0,nan,nan,nan,nan,nan,nan,nan,nan,nan,nan,nan,nan,nan,nan,nan,nan,nan,nan,263.05302549735643,521.8247015927627,nan,522.2665364519053,nan,nan,nan,nan
1,168,0,0,nan,nan,nan,0.0,5,2,1,6,7,0,nan,nan,nan,nan,nan,nan,nan,nan,nan,nan,nan,nan,0.0,nan,nan,nan,nan,nan,nan,nan,nan,nan,nan,nan,nan,nan,nan,nan,nan,nan,nan,263.05302549735643,522.8248375855619,nan,nan,nan,nan,nan,nan
1,169,1,1,1.0,1.0,0.5535131612268742,0.0,0,3,5,4,1,8,nan,nan,nan,nan,nan,nan,nan,nan,nan,nan,nan,nan,0.0,nan,nan,nan,nan,nan,nan,nan,nan,nan,nan,nan,nan,nan,nan,nan,nan,nan,nan,263.05302549735643,523.8249712975521,nan,524.378484458779,nan,nan,nan,nan
1,170,1,1,1.0,1.0,0.3613964092801325,0.0,1,5,4,8,6,3,nan,nan,nan,nan,nan,nan,nan,nan,nan,nan,nan,nan,0.0,nan,nan,nan,nan,nan,nan,nan,nan,nan,nan,nan,nan,nan,nan,nan,nan,nan,nan,263.05302549735643,524.8251109966368,nan,525.1865074059169,nan,nan,nan,nan
1,171,1,1,1.0,1.0,0.648888294614153,0.0,7,2,6,0,8,5,nan,nan,nan,nan,nan,nan,nan,nan,nan,nan,nan,nan,0.0,nan,nan,nan,nan,nan,nan,nan,nan,nan,nan,nan,nan,nan,nan,nan,nan,nan,nan,263.05302549735643,525.8336143945926,nan,526.4825026892067,nan,nan,nan,nan
1,172,1,1,1.0,1.0,0.5127412695728708,0.0,6,8,7,4,3,1,nan,nan,nan,nan,nan,nan,nan,nan,nan,nan,nan,nan,0.0,nan,nan,nan,nan,nan,nan,nan,nan,nan,nan,nan,nan,nan,nan,nan,nan,nan,nan,263.05302549735643,526.8337520979985,nan,527.3464933675714,nan,nan,nan,nan
1,173,1,1,1.0,1.0,0.5765868889866397,0.0,5,2,8,1,0,3,nan,nan,nan,nan,nan,nan,nan,nan,nan,nan,nan,nan,0.0,nan,nan,nan,nan,nan,nan,nan,nan,nan,nan,nan,nan,nan,nan,nan,nan,nan,nan,263.05302549735643,527.8338946480653,nan,528.410481537052,nan,nan,nan,nan
1,174,1,1,1.0,1.0,0.48012238778756,0.0,7,1,0,2,6,5,nan,nan,nan,nan,nan,nan,nan,nan,nan,nan,nan,nan,0.0,nan,nan,nan,nan,nan,nan,nan,nan,nan,nan,nan,nan,nan,nan,nan,nan,nan,nan,263.05302549735643,528.8423549959261,nan,529.3224773837137,nan,nan,nan,nan
1,175,1,1,1.0,1.0,0.42395594174740836,0.0,2,5,1,0,3,7,nan,nan,nan,nan,nan,nan,nan,nan,nan,nan,nan,nan,0.0,nan,nan,nan,nan,nan,nan,nan,nan,nan,nan,nan,nan,nan,nan,nan,nan,nan,nan,263.05302549735643,529.8424952652131,nan,530.2664512069605,nan,nan,nan,nan
1,176,1,1,1.0,1.0,0.4074951126531232,0.0,3,7,0,6,5,1,nan,nan,nan,nan,nan,nan,nan,nan,nan,nan,nan,nan,0.0,nan,nan,nan,nan,nan,nan,nan,nan,nan,nan,nan,nan,nan,nan,nan,nan,nan,nan,263.05302549735643,530.8509650213527,nan,531.2584601340059,nan,nan,nan,nan
1,177,1,1,1.0,1.0,0.4633382551255636,0.0,7,0,8,1,2,5,nan,nan,nan,nan,nan,nan,nan,nan,nan,nan,nan,nan,0.0,nan,nan,nan,nan,nan,nan,nan,nan,nan,nan,nan,nan,nan,nan,nan,nan,nan,nan,263.05302549735643,531.8511041502352,nan,532.3144424053608,nan,nan,nan,nan
1,178,1,1,1.0,1.0,0.4708586276683491,0.0,3,6,7,5,8,0,nan,nan,nan,nan,nan,nan,nan,nan,nan,nan,nan,nan,0.0,nan,nan,nan,nan,nan,nan,nan,nan,nan,nan,nan,nan,nan,nan,nan,nan,nan,nan,263.05302549735643,532.8595730510715,nan,533.3304316787398,nan,nan,nan,nan
1,179,1,1,1.0,1.0,0.5183822617400438,0.0,7,4,6,0,1,5,nan,nan,nan,nan,nan,nan,nan,nan,nan,nan,nan,nan,0.0,nan,nan,nan,nan,nan,nan,nan,nan,nan,nan,nan,nan,nan,nan,nan,nan,nan,nan,263.05302549735643,533.8680379605212,nan,534.3864202222612,nan,nan,nan,nan
1,180,1,1,1.0,1.0,0.43023869444732554,0.0,2,8,7,6,4,0,nan,nan,nan,nan,nan,nan,nan,nan,nan,nan,nan,nan,0.0,nan,nan,nan,nan,nan,nan,nan,nan,nan,nan,nan,nan,nan,nan,nan,nan,nan,nan,263.05302549735643,534.8681571323832,nan,535.2983958268305,nan,nan,nan,nan
1,181,1,1,1.0,1.0,0.590117743529845,0.0,3,1,2,4,0,7,nan,nan,nan,nan,nan,nan,nan,nan,nan,nan,nan,nan,0.0,nan,nan,nan,nan,nan,nan,nan,nan,nan,nan,nan,nan,nan,nan,nan,nan,nan,nan,263.05302549735643,535.8682914145757,nan,536.4584091581055,nan,nan,nan,nan
1,182,0,0,nan,nan,nan,1.0,8,7,0,5,1,4,1.0,1.0,1.0,1.0,1.0,1.0,0.0,0.0,1.0,1.0,1.0,0.0,3.0,2.0,4.0,0.0,5.0,1.0,7.0,5.0,4.0,3.0,2.0,1.0,6.0,5.897066860838095,4.817046938056592,3.6886124431039207,2.6805512355058454,1.2757058439019602,7.288706412102329,263.05302549735643,536.8684465090919,537.6768586179824,nan,546.0279774508672,547.0322553790465,538.7019850670185,546.0196479640144
1,183,1,1,1.0,1.0,0.51778440666385,0.0,0,4,6,7,5,1,nan,nan,nan,nan,nan,nan,nan,nan,nan,nan,nan,nan,0.0,nan,nan,nan,nan,nan,nan,nan,nan,nan,nan,nan,nan,nan,nan,nan,nan,nan,nan,263.05302549735643,547.2365057095594,nan,547.7542901162233,nan,nan,nan,nan
1,184,0,0,0.0,1.0,0.7495985076820944,0.0,5,2,1,3,6,0,nan,nan,nan,nan,nan,nan,nan,nan,nan,nan,nan,nan,0.0,nan,nan,nan,nan,nan,nan,nan,nan,nan,nan,nan,nan,nan,nan,nan,nan,nan,nan,263.05302549735643,548.2366531063453,nan,548.9862516140274,nan,nan,nan,nan
1,185,1,1,1.0,1.0,0.3014655004662927,0.0,4,3,5,6,2,1,nan,nan,nan,nan,nan,nan,nan,nan,nan,nan,nan,nan,0.0,nan,nan,nan,nan,nan,nan,nan,nan,nan,nan,nan,nan,nan,nan,nan,nan,nan,nan,263.05302549735643,549.2368127624504,nan,549.5382782629167,nan,nan,nan,nan
1,186,1,1,1.0,1.0,0.3813311840640381,0.0,5,6,2,0,4,8,nan,nan,nan,nan,nan,nan,nan,nan,nan,nan,nan,nan,0.0,nan,nan,nan,nan,nan,nan,nan,nan,nan,nan,nan,nan,nan,nan,nan,nan,nan,nan,263.05302549735643,550.2369467595418,nan,550.6182779436058,nan,nan,nan,nan
1,187,1,1,1.0,1.0,0.2051828932017088,0.0,1,8,6,3,0,4,nan,nan,nan,nan,nan,nan,nan,nan,nan,nan,nan,nan,0.0,nan,nan,nan,nan,nan,nan,nan,nan,nan,nan,nan,nan,nan,nan,nan,nan,nan,nan,263.05302549735643,551.2370838927163,nan,551.442266785918,nan,nan,nan,nan
1,188,1,1,1.0,1.0,0.09302419729647227,0.0,2,0,4,6,3,5,nan,nan,nan,nan,nan,nan,nan,nan,nan,nan,nan,nan,0.0,nan,nan,nan,nan,nan,nan,nan,nan,nan,nan,nan,nan,nan,nan,nan,nan,nan,nan,263.05302549735643,552.23722102592,nan,552.3302452232165,nan,nan,nan,nan
1,189,1,1,1.0,1.0,0.08457895979518071,0.0,8,5,2,0,6,7,nan,nan,nan,nan,nan,nan,nan,nan,nan,nan,nan,nan,0.0,nan,nan,nan,nan,nan,nan,nan,nan,nan,nan,nan,nan,nan,nan,nan,nan,nan,nan,263.05302549735643,553.245663127338,nan,553.3302420871332,nan,nan,nan,nan
1,190,1,1,1.0,1.0,0.23604071117006242,0.0,3,7,8,2,4,5,nan,nan,nan,nan,nan,nan,nan,nan,nan,nan,nan,nan,0.0,nan,nan,nan,nan,nan,nan,nan,nan,nan,nan,nan,nan,nan,nan,nan,nan,nan,nan,263.05302549735643,554.2541670954961,nan,554.4902078066661,nan,nan,nan,nan
1,191,1,1,1.0,1.0,0.21992941488861106,0.0,2,3,5,0,7,4,nan,nan,nan,nan,nan,nan,nan,nan,nan,nan,nan,nan,0.0,nan,nan,nan,nan,nan,nan,nan,nan,nan,nan,nan,nan,nan,nan,nan,nan,nan,nan,263.05302549735643,555.2542768590793,nan,555.4742062739679,nan,nan,nan,nan
1,192,1,1,1.0,1.0,0.2037859022966586,0.0,5,6,4,1,0,3,nan,nan,nan,nan,nan,nan,nan,nan,nan,nan,nan,nan,0.0,nan,nan,nan,nan,nan,nan,nan,nan,nan,nan,nan,nan,nan,nan,nan,nan,nan,nan,263.05302549735643,556.2544031584694,nan,556.458189060766,nan,nan,nan,nan
1,193,1,1,1.0,1.0,0.1876255687966477,0.0,3,0,7,8,1,5,nan,nan,nan,nan,nan,nan,nan,nan,nan,nan,nan,nan,0.0,nan,nan,nan,nan,nan,nan,nan,nan,nan,nan,nan,nan,nan,nan,nan,nan,nan,nan,263.05302549735643,557.2545673761633,nan,557.44219294496,nan,nan,nan,nan
1,194,1,1,1.0,1.0,0.10747621051268652,0.0,8,2,6,1,4,7,nan,nan,nan,nan,nan,nan,nan,nan,nan,nan,nan,nan,0.0,nan,nan,nan,nan,nan,nan,nan,nan,nan,nan,nan,nan,nan,nan,nan,nan,nan,nan,263.05302549735643,558.2546911096433,nan,558.362167320156,nan,nan,nan,nan
1,195,1,1,1.0,1.0,0.24339943189988844,0.0,0,1,8,7,3,6,nan,nan,nan,nan,nan,nan,nan,nan,nan,nan,nan,nan,0.0,nan,nan,nan,nan,nan,nan,nan,nan,nan,nan,nan,nan,nan,nan,nan,nan,nan,nan,263.05302549735643,559.2547900394129,nan,559.4981894713128,nan,nan,nan,nan
1,196,1,1,1.0,1.0,0.25921821538941003,0.0,8,0,3,2,1,4,nan,nan,nan,nan,nan,nan,nan,nan,nan,nan,nan,nan,0.0,nan,nan,nan,nan,nan,nan,nan,nan,nan,nan,nan,nan,nan,nan,nan,nan,nan,nan,263.05302549735643,560.2549628101115,nan,560.5141810255009,nan,nan,nan,nan
1,197,1,1,1.0,1.0,0.29106504589435644,0.0,1,7,4,5,8,3,nan,nan,nan,nan,nan,nan,nan,nan,nan,nan,nan,nan,0.0,nan,nan,nan,nan,nan,nan,nan,nan,nan,nan,nan,nan,nan,nan,nan,nan,nan,nan,263.05302549735643,561.2550931008882,nan,561.5461581467825,nan,nan,nan,nan
1,198,1,1,1.0,1.0,0.24291248081135564,0.0,7,5,8,4,2,1,nan,nan,nan,nan,nan,nan,nan,nan,nan,nan,nan,nan,0.0,nan,nan,nan,nan,nan,nan,nan,nan,nan,nan,nan,nan,nan,nan,nan,nan,nan,nan,263.05302549735643,562.2552325148718,nan,562.4981449956831,nan,nan,nan,nan
1,199,1,1,1.0,1.0,0.4587683843274135,0.0,6,2,3,1,4,0,nan,nan,nan,nan,nan,nan,nan,nan,nan,nan,nan,nan,0.0,nan,nan,nan,nan,nan,nan,nan,nan,nan,nan,nan,nan,nan,nan,nan,nan,nan,nan,263.05302549735643,563.2553696480754,nan,563.7141380324028,nan,nan,nan,nan
1,200,1,1,1.0,1.0,0.5306002299475949,0.0,4,0,8,2,1,3,nan,nan,nan,nan,nan,nan,nan,nan,nan,nan,nan,nan,0.0,nan,nan,nan,nan,nan,nan,nan,nan,nan,nan,nan,nan,nan,nan,nan,nan,nan,nan,263.05302549735643,564.2555341508705,nan,564.7861343808181,nan,nan,nan,nan
1,201,1,1,1.0,1.0,0.48231224226765335,0.0,3,4,7,1,0,5,nan,nan,nan,nan,nan,nan,nan,nan,nan,nan,nan,nan,0.0,nan,nan,nan,nan,nan,nan,nan,nan,nan,nan,nan,nan,nan,nan,nan,nan,nan,nan,263.05302549735643,565.2558092725521,nan,565.7381215148198,nan,nan,nan,nan
1,202,0,0,nan,nan,nan,1.0,5,8,4,0,2,6,1.0,1.0,1.0,1.0,1.0,1.0,0.0,0.0,1.0,0.0,0.0,0.0,1.0,3.0,0.0,4.0,1.0,8.0,5.0,6.0,5.0,1.0,4.0,3.0,2.0,7.132939933100715,6.2768864437239245,1.5741384486318566,5.318479994079098,4.18207039180561,2.8785079795052297,263.05302549735643,566.2641424656904,567.0725605617044,nan,575.2653336142539,576.266407301533,568.0893635110115,575.2570004210866
1,203,1,1,1.0,1.0,0.39216641639359295,0.0,7,1,6,3,0,5,nan,nan,nan,nan,nan,nan,nan,nan,nan,nan,nan,nan,0.0,nan,nan,nan,nan,nan,nan,nan,nan,nan,nan,nan,nan,nan,nan,nan,nan,nan,nan,263.05302549735643,576.4738695706765,nan,576.8660359870701,nan,nan,nan,nan
1,204,0,0,0.0,1.0,0.5839892300427891,0.0,3,2,0,1,6,7,nan,nan,nan,nan,nan,nan,nan,nan,nan,nan,nan,nan,0.0,nan,nan,nan,nan,nan,nan,nan,nan,nan,nan,nan,nan,nan,nan,nan,nan,nan,nan,263.05302549735643,577.4739884574374,nan,578.0579776874802,nan,nan,nan,nan
1,205,1,1,1.0,1.0,0.5195238028827589,0.0,6,7,2,8,3,4,nan,nan,nan,nan,nan,nan,nan,nan,nan,nan,nan,nan,0.0,nan,nan,nan,nan,nan,nan,nan,nan,nan,nan,nan,nan,nan,nan,nan,nan,nan,nan,263.05302549735643,578.4824411075679,nan,579.0019649104506,nan,nan,nan,nan
1,206,1,1,1.0,1.0,0.48736592807108536,0.0,7,2,8,1,6,3,nan,nan,nan,nan,nan,nan,nan,nan,nan,nan,nan,nan,0.0,nan,nan,nan,nan,nan,nan,nan,nan,nan,nan,nan,nan,nan,nan,nan,nan,nan,nan,263.05302549735643,579.4825902149605,nan,579.9699561430316,nan,nan,nan,nan
1,207,1,1,1.0,1.0,0.3989058995503001,0.0,1,3,0,2,8,4,nan,nan,nan,nan,nan,nan,nan,nan,nan,nan,nan,nan,0.0,nan,nan,nan,nan,nan,nan,nan,nan,nan,nan,nan,nan,nan,nan,nan,nan,nan,nan,263.05302549735643,580.4910434352932,nan,580.8899493348435,nan,nan,nan,nan
1,208,1,1,1.0,1.0,0.36674146744189784,0.0,0,5,4,6,2,1,nan,nan,nan,nan,nan,nan,nan,nan,nan,nan,nan,nan,0.0,nan,nan,nan,nan,nan,nan,nan,nan,nan,nan,nan,nan,nan,nan,nan,nan,nan,nan,263.05302549735643,581.4911968192027,nan,581.8579382866446,nan,nan,nan,nan
1,209,1,1,1.0,1.0,0.25459503088495694,0.0,7,4,5,2,1,3,nan,nan,nan,nan,nan,nan,nan,nan,nan,nan,nan,nan,0.0,nan,nan,nan,nan,nan,nan,nan,nan,nan,nan,nan,nan,nan,nan,nan,nan,nan,nan,263.05302549735643,582.4913353778829,nan,582.7459304087679,nan,nan,nan,nan
1,210,1,1,1.0,1.0,0.11014360780245624,0.0,5,3,2,8,6,0,nan,nan,nan,nan,nan,nan,nan,nan,nan,nan,nan,nan,0.0,nan,nan,nan,nan,nan,nan,nan,nan,nan,nan,nan,nan,nan,nan,nan,nan,nan,nan,263.05302549735643,583.499798861827,nan,583.6099424696295,nan,nan,nan,nan
1,211,1,1,1.0,1.0,0.3259721416980028,0.0,7,8,4,5,3,1,nan,nan,nan,nan,nan,nan,nan,nan,nan,nan,nan,nan,0.0,nan,nan,nan,nan,nan,nan,nan,nan,nan,nan,nan,nan,nan,nan,nan,nan,nan,nan,263.05302549735643,584.4999419821252,nan,584.8259141238232,nan,nan,nan,nan
1,212,1,1,1.0,1.0,0.26184284762712196,0.0,3,0,2,8,4,6,nan,nan,nan,nan,nan,nan,nan,nan,nan,nan,nan,nan,0.0,nan,nan,nan,nan,nan,nan,nan,nan,nan,nan,nan,nan,nan,nan,nan,nan,nan,nan,263.05302549735643,585.5000756941154,nan,585.7619185417425,nan,nan,nan,nan
1,213,1,1,1.0,1.0,0.2933777785510756,0.0,5,6,4,1,7,2,nan,nan,nan,nan,nan,nan,nan,nan,nan,nan,nan,nan,0.0,nan,nan,nan,nan,nan,nan,nan,nan,nan,nan,nan,nan,nan,nan,nan,nan,nan,nan,263.05302549735643,586.5085349015426,nan,586.8019126800937,nan,nan,nan,nan
1,214,1,1,1.0,1.0,0.46121397367096506,0.0,8,4,2,3,6,1,nan,nan,nan,nan,nan,nan,nan,nan,nan,nan,nan,nan,0.0,nan,nan,nan,nan,nan,nan,nan,nan,nan,nan,nan,nan,nan,nan,nan,nan,nan,nan,263.05302549735643,587.5086814430251,nan,587.9698954166961,nan,nan,nan,nan
1,215,0,0,0.0,1.0,0.7567359906679485,0.0,2,6,7,1,4,0,nan,nan,nan,nan,nan,nan,nan,nan,nan,nan,nan,nan,0.0,nan,nan,nan,nan,nan,nan,nan,nan,nan,nan,nan,nan,nan,nan,nan,nan,nan,nan,263.05302549735643,588.5171386547736,nan,589.2738746454415,nan,nan,nan,nan
1,216,1,1,1.0,1.0,0.4445695400645491,0.0,6,0,4,7,5,3,nan,nan,nan,nan,nan,nan,nan,nan,nan,nan,nan,nan,0.0,nan,nan,nan,nan,nan,nan,nan,nan,nan,nan,nan,nan,nan,nan,nan,nan,nan,nan,263.05302549735643,589.5173196933756,nan,589.9618892334402,nan,nan,nan,nan
1,217,1,1,1.0,1.0,0.2601396591635421,0.0,0,1,3,6,2,8,nan,nan,nan,nan,nan,nan,nan,nan,nan,nan,nan,nan,0.0,nan,nan,nan,nan,nan,nan,nan,nan,nan,nan,nan,nan,nan,nan,nan,nan,nan,nan,263.05302549735643,590.5257521014137,nan,590.7858917605772,nan,nan,nan,nan
1,218,1,1,1.0,1.0,0.06794849608559161,0.0,2,3,5,7,8,0,nan,nan,nan,nan,nan,nan,nan,nan,nan,nan,nan,nan,0.0,nan,nan,nan,nan,nan,nan,nan,nan,nan,nan,nan,nan,nan,nan,nan,nan,nan,nan,263.05302549735643,591.525941122818,nan,591.5938896189036,nan,nan,nan,nan
1,219,1,1,1.0,1.0,0.6917670765833464,0.0,3,8,0,1,6,4,nan,nan,nan,nan,nan,nan,nan,nan,nan,nan,nan,nan,0.0,nan,nan,nan,nan,nan,nan,nan,nan,nan,nan,nan,nan,nan,nan,nan,nan,nan,nan,263.05302549735643,592.5260622903879,nan,593.2178293669713,nan,nan,nan,nan
1,220,1,1,1.0,1.0,0.4433359115791973,0.0,0,3,7,4,8,5,nan,nan,nan,nan,nan,nan,nan,nan,nan,nan,nan,nan,0.0,nan,nan,nan,nan,nan,nan,nan,nan,nan,nan,nan,nan,nan,nan,nan,nan,nan,nan,263.05302549735643,593.5345143703453,nan,593.9778502819245,nan,nan,nan,nan
1,221,1,1,1.0,1.0,0.27487848317832686,0.0,1,2,0,5,6,8,nan,nan,nan,nan,nan,nan,nan,nan,nan,nan,nan,nan,0.0,nan,nan,nan,nan,nan,nan,nan,nan,nan,nan,nan,nan,nan,nan,nan,nan,nan,nan,263.05302549735643,594.5429741479747,nan,594.8178526311531,nan,nan,nan,nan
1,222,0,0,0.0,1.0,0.538391447684262,0.0,3,6,2,7,0,4,nan,nan,nan,nan,nan,nan,nan,nan,nan,nan,nan,nan,0.0,nan,nan,nan,nan,nan,nan,nan,nan,nan,nan,nan,nan,nan,nan,nan,nan,nan,nan,263.05302549735643,595.5514507465123,nan,596.0898421941965,nan,nan,nan,nan
1,223,1,1,1.0,1.0,0.4262244838755578,0.0,7,5,1,2,4,8,nan,nan,nan,nan,nan,nan,nan,nan,nan,nan,nan,nan,0.0,nan,nan,nan,nan,nan,nan,nan,nan,nan,nan,nan,nan,nan,nan,nan,nan,nan,nan,263.05302549735643,596.5515967178217,nan,596.9778212016972,nan,nan,nan,nan
1,224,1,1,1.0,1.0,0.5377716399088968,0.0,2,1,7,0,6,3,nan,nan,nan,nan,nan,nan,nan,nan,nan,nan,nan,nan,0.0,nan,nan,nan,nan,nan,nan,nan,nan,nan,nan,nan,nan,nan,nan,nan,nan,nan,nan,263.05302549735643,597.5600536444399,nan,598.0978252843488,nan,nan,nan,nan
1,225,1,1,1.0,1.0,0.48125566099770367,0.0,7,5,8,2,0,4,nan,nan,nan,nan,nan,nan,nan,nan,nan,nan,nan,nan,0.0,nan,nan,nan,nan,nan,nan,nan,nan,nan,nan,nan,nan,nan,nan,nan,nan,nan,nan,263.05302549735643,598.5685590381327,nan,599.0498146991304,nan,nan,nan,nan
1,226,1,1,1.0,1.0,0.5447534582053777,0.0,2,8,3,6,7,0,nan,nan,nan,nan,nan,nan,nan,nan,nan,nan,nan,nan,0.0,nan,nan,nan,nan,nan,nan,nan,nan,nan,nan,nan,nan,nan,nan,nan,nan,nan,nan,263.05302549735643,599.5770419088658,nan,600.1217953670712,nan,nan,nan,nan
1,227,1,1,1.0,1.0,0.4962850020965561,0.0,1,3,7,0,8,6,nan,nan,nan,nan,nan,nan,nan,nan,nan,nan,nan,nan,0.0,nan,nan,nan,nan,nan,nan,nan,nan,nan,nan,nan,nan,nan,nan,nan,nan,nan,nan,263.05302549735643,600.5854999759176,nan,601.0817849780142,nan,nan,nan,nan
1,228,1,1,1.0,1.0,0.4398431492736563,0.0,6,0,5,3,2,4,nan,nan,nan,nan,nan,nan,nan,nan,nan,nan,nan,nan,0.0,nan,nan,nan,nan,nan,nan,nan,nan,nan,nan,nan,nan,nan,nan,nan,nan,nan,nan,263.05302549735643,601.5939389412524,nan,602.0337820905261,nan,nan,nan,nan
1,229,1,1,1.0,1.0,0.5273341223073658,0.0,4,1,6,2,0,5,nan,nan,nan,nan,nan,nan,nan,nan,nan,nan,nan,nan,0.0,nan,nan,nan,nan,nan,nan,nan,nan,nan,nan,nan,nan,nan,nan,nan,nan,nan,nan,263.05302549735643,602.6024431945116,nan,603.129777316819,nan,nan,nan,nan
1,230,1,1,1.0,1.0,0.47884200292173773,0.0,1,5,8,3,6,0,nan,nan,nan,nan,nan,nan,nan,nan,nan,nan,nan,nan,0.0,nan,nan,nan,nan,nan,nan,nan,nan,nan,nan,nan,nan,nan,nan,nan,nan,nan,nan,263.05302549735643,603.6109175122401,nan,604.0897595151619,nan,nan,nan,nan
1,231,1,1,nan,nan,nan,0.0,6,3,7,2,1,8,nan,nan,nan,nan,nan,nan,nan,nan,nan,nan,nan,nan,0.0,nan,nan,nan,nan,nan,nan,nan,nan,nan,nan,nan,nan,nan,nan,nan,nan,nan,nan,263.05302549735643,604.619385272701,nan,nan,nan,nan,nan,nan
1,232,1,1,1.0,1.0,0.5818649486172944,0.0,4,5,2,8,3,0,nan,nan,nan,nan,nan,nan,nan,nan,nan,nan,nan,nan,0.0,nan,nan,nan,nan,nan,nan,nan,nan,nan,nan,nan,nan,nan,nan,nan,nan,nan,nan,263.05302549735643,605.6278547437396,nan,606.2097196923569,nan,nan,nan,nan
1,233,1,1,1.0,1.0,0.6534370679873973,0.0,8,6,7,3,0,1,nan,nan,nan,nan,nan,nan,nan,nan,nan,nan,nan,nan,0.0,nan,nan,nan,nan,nan,nan,nan,nan,nan,nan,nan,nan,nan,nan,nan,nan,nan,nan,263.05302549735643,606.6362911431643,nan,607.2897282111517,nan,nan,nan,nan
1,234,1,1,1.0,1.0,0.5492509135510772,0.0,5,8,3,6,7,2,nan,nan,nan,nan,nan,nan,nan,nan,nan,nan,nan,nan,0.0,nan,nan,nan,nan,nan,nan,nan,nan,nan,nan,nan,nan,nan,nan,nan,nan,nan,nan,263.05302549735643,607.6364661946718,nan,608.1857171082229,nan,nan,nan,nan
1,235,0,0,0.0,1.0,0.7568001382169314,1.0,7,6,5,2,4,0,1.0,1.0,1.0,1.0,1.0,1.0,1.0,0.0,0.0,1.0,1.0,0.0,3.0,7.0,1.0,4.0,2.0,4.0,8.0,3.0,6.0,5.0,2.0,1.0,4.0,4.167677679419285,7.319899507885566,6.3362448714033235,3.5763545323570725,1.3134314401249867,5.256061301100999,263.05302549735643,608.6449051600066,609.4533477746008,609.4017052982235,617.8294579190842,618.8384317323507,610.470177238225,617.8211258663214
1,236,1,1,1.0,1.0,0.4992910983855836,0.0,1,3,0,4,8,6,nan,nan,nan,nan,nan,nan,nan,nan,nan,nan,nan,nan,0.0,nan,nan,nan,nan,nan,nan,nan,nan,nan,nan,nan,nan,nan,nan,nan,nan,nan,nan,263.05302549735643,619.0463538680633,nan,619.5456449664489,nan,nan,nan,nan
1,237,1,1,1.0,1.0,0.3311472802015487,0.0,0,7,6,2,1,3,nan,nan,nan,nan,nan,nan,nan,nan,nan,nan,nan,nan,0.0,nan,nan,nan,nan,nan,nan,nan,nan,nan,nan,nan,nan,nan,nan,nan,nan,nan,nan,263.05302549735643,620.0464642018196,nan,620.3776114820212,nan,nan,nan,nan
1,238,1,1,1.0,1.0,0.29900109450682066,0.0,8,5,4,3,7,0,nan,nan,nan,nan,nan,nan,nan,nan,nan,nan,nan,nan,0.0,nan,nan,nan,nan,nan,nan,nan,nan,nan,nan,nan,nan,nan,nan,nan,nan,nan,nan,263.05302549735643,621.0466044711065,nan,621.3456055656134,nan,nan,nan,nan
1,239,1,1,1.0,1.0,0.31455616030143574,0.0,7,6,3,8,5,1,nan,nan,nan,nan,nan,nan,nan,nan,nan,nan,nan,nan,0.0,nan,nan,nan,nan,nan,nan,nan,nan,nan,nan,nan,nan,nan,nan,nan,nan,nan,nan,263.05302549735643,622.0550274708366,nan,622.3695836311381,nan,nan,nan,nan
1,240,1,1,1.0,1.0,0.24236309275147505,0.0,6,1,2,5,0,4,nan,nan,nan,nan,nan,nan,nan,nan,nan,nan,nan,nan,0.0,nan,nan,nan,nan,nan,nan,nan,nan,nan,nan,nan,nan,nan,nan,nan,nan,nan,nan,263.05302549735643,623.0552133561578,nan,623.2975764489092,nan,nan,nan,nan
1,241,1,1,1.0,1.0,0.42619369307067245,0.0,8,6,3,7,4,1,nan,nan,nan,nan,nan,nan,nan,nan,nan,nan,nan,nan,0.0,nan,nan,nan,nan,nan,nan,nan,nan,nan,nan,nan,nan,nan,nan,nan,nan,nan,nan,263.05302549735643,624.0553775738517,nan,624.4815712669224,nan,nan,nan,nan
1,242,1,1,1.0,1.0,0.31377299010637216,0.0,4,8,0,2,7,3,nan,nan,nan,nan,nan,nan,nan,nan,nan,nan,nan,nan,0.0,nan,nan,nan,nan,nan,nan,nan,nan,nan,nan,nan,nan,nan,nan,nan,nan,nan,nan,263.05302549735643,625.0637997182785,nan,625.3775727083848,nan,nan,nan,nan
1,243,1,1,1.0,1.0,0.22555586695671082,0.0,2,6,8,1,4,7,nan,nan,nan,nan,nan,nan,nan,nan,nan,nan,nan,nan,0.0,nan,nan,nan,nan,nan,nan,nan,nan,nan,nan,nan,nan,nan,nan,nan,nan,nan,nan,263.05302549735643,626.0639884545817,nan,626.2895443215384,nan,nan,nan,nan
1,244,1,1,1.0,1.0,0.1050927730393596,0.0,8,1,0,3,5,2,nan,nan,nan,nan,nan,nan,nan,nan,nan,nan,nan,nan,0.0,nan,nan,nan,nan,nan,nan,nan,nan,nan,nan,nan,nan,nan,nan,nan,nan,nan,nan,263.05302549735643,627.0724579256203,nan,627.1775506986596,nan,nan,nan,nan
1,245,1,1,1.0,1.0,0.12895252197631635,0.0,3,6,8,5,2,1,nan,nan,nan,nan,nan,nan,nan,nan,nan,nan,nan,nan,0.0,nan,nan,nan,nan,nan,nan,nan,nan,nan,nan,nan,nan,nan,nan,nan,nan,nan,nan,263.05302549735643,628.072576242208,nan,628.2015287641843,nan,nan,nan,nan
1,246,1,1,1.0,1.0,0.21679758941172622,0.0,7,2,1,4,0,6,nan,nan,nan,nan,nan,nan,nan,nan,nan,nan,nan,nan,0.0,nan,nan,nan,nan,nan,nan,nan,nan,nan,nan,nan,nan,nan,nan,nan,nan,nan,nan,263.05302549735643,629.0727287708141,nan,629.2895263602259,nan,nan,nan,nan
1,247,1,1,1.0,1.0,0.3286452410102356,0.0,4,6,2,7,1,8,nan,nan,nan,nan,nan,nan,nan,nan,nan,nan,nan,nan,0.0,nan,nan,nan,nan,nan,nan,nan,nan,nan,nan,nan,nan,nan,nan,nan,nan,nan,nan,263.05302549735643,630.0728644784831,nan,630.4015097194933,nan,nan,nan,nan
1,248,1,1,1.0,1.0,0.2721942649804987,0.0,7,3,6,4,2,5,nan,nan,nan,nan,nan,nan,nan,nan,nan,nan,nan,nan,0.0,nan,nan,nan,nan,nan,nan,nan,nan,nan,nan,nan,nan,nan,nan,nan,nan,nan,nan,263.05302549735643,631.081303728919,nan,631.3534979938995,nan,nan,nan,nan
1,249,1,1,1.0,1.0,0.11969161283923313,0.0,3,4,7,2,6,0,nan,nan,nan,nan,nan,nan,nan,nan,nan,nan,nan,nan,0.0,nan,nan,nan,nan,nan,nan,nan,nan,nan,nan,nan,nan,nan,nan,nan,nan,nan,nan,263.05302549735643,632.0898022801848,nan,632.209493893024,nan,nan,nan,nan
1,250,1,1,nan,nan,nan,0.0,0,7,2,4,5,6,nan,nan,nan,nan,nan,nan,nan,nan,nan,nan,nan,nan,0.0,nan,nan,nan,nan,nan,nan,nan,nan,nan,nan,nan,nan,nan,nan,nan,nan,nan,nan,263.05302549735643,633.0899094778579,nan,nan,nan,nan,nan,nan
1,251,1,1,1.0,1.0,0.03144540946232155,0.0,7,8,4,6,3,2,nan,nan,nan,nan,nan,nan,nan,nan,nan,nan,nan,nan,0.0,nan,nan,nan,nan,nan,nan,nan,nan,nan,nan,nan,nan,nan,nan,nan,nan,nan,nan,263.05302549735643,634.0900531683292,nan,634.1214985777915,nan,nan,nan,nan
1,252,1,1,1.0,1.0,0.32727618992794305,0.0,8,6,2,3,0,4,nan,nan,nan,nan,nan,nan,nan,nan,nan,nan,nan,nan,0.0,nan,nan,nan,nan,nan,nan,nan,nan,nan,nan,nan,nan,nan,nan,nan,nan,nan,nan,263.05302549735643,635.0901877356227,nan,635.4174639255507,nan,nan,nan,nan
1,253,1,1,1.0,1.0,0.25475440188893117,0.0,6,2,5,4,3,1,nan,nan,nan,nan,nan,nan,nan,nan,nan,nan,nan,nan,0.0,nan,nan,nan,nan,nan,nan,nan,nan,nan,nan,nan,nan,nan,nan,nan,nan,nan,nan,263.05302549735643,636.0987108054978,nan,636.3534652073868,nan,nan,nan,nan
1,254,0,0,1.0,0.0,0.2625829676981084,0.0,5,7,0,8,2,3,nan,nan,nan,nan,nan,nan,nan,nan,nan,nan,nan,nan,0.0,nan,nan,nan,nan,nan,nan,nan,nan,nan,nan,nan,nan,nan,nan,nan,nan,nan,nan,263.05302549735643,637.0988650447107,nan,637.3614480124088,nan,nan,nan,nan
1,255,1,1,1.0,1.0,0.6061540584487375,0.0,8,6,3,7,1,5,nan,nan,nan,nan,nan,nan,nan,nan,nan,nan,nan,nan,0.0,nan,nan,nan,nan,nan,nan,nan,nan,nan,nan,nan,nan,nan,nan,nan,nan,nan,nan,263.05302549735643,638.1072421432764,nan,638.7133962017251,nan,nan,nan,nan
1,256,1,1,1.0,1.0,0.3979847408772912,0.0,6,4,8,3,7,0,nan,nan,nan,nan,nan,nan,nan,nan,nan,nan,nan,nan,0.0,nan,nan,nan,nan,nan,nan,nan,nan,nan,nan,nan,nan,nan,nan,nan,nan,nan,nan,263.05302549735643,639.1074097821838,nan,639.5053945230611,nan,nan,nan,nan
1,257,1,1,1.0,1.0,0.38986736856168136,0.0,5,1,7,0,6,3,nan,nan,nan,nan,nan,nan,nan,nan,nan,nan,nan,nan,0.0,nan,nan,nan,nan,nan,nan,nan,nan,nan,nan,nan,nan,nan,nan,nan,nan,nan,nan,263.05302549735643,640.1075329454616,nan,640.4974003140233,nan,nan,nan,nan
1,258,1,1,1.0,1.0,0.3257092793646734,0.0,4,0,6,3,8,5,nan,nan,nan,nan,nan,nan,nan,nan,nan,nan,nan,nan,0.0,nan,nan,nan,nan,nan,nan,nan,nan,nan,nan,nan,nan,nan,nan,nan,nan,nan,nan,263.05302549735643,641.1076803422475,nan,641.4333896216122,nan,nan,nan,nan
1,259,1,1,1.0,1.0,0.3571797776094172,0.0,3,2,1,4,7,8,nan,nan,nan,nan,nan,nan,nan,nan,nan,nan,nan,nan,0.0,nan,nan,nan,nan,nan,nan,nan,nan,nan,nan,nan,nan,nan,nan,nan,nan,nan,nan,263.05302549735643,642.1161831700301,nan,642.4733629476395,nan,nan,nan,nan
1,260,1,1,1.0,1.0,0.2447459600516595,0.0,5,1,4,6,2,7,nan,nan,nan,nan,nan,nan,nan,nan,nan,nan,nan,nan,0.0,nan,nan,nan,nan,nan,nan,nan,nan,nan,nan,nan,nan,nan,nan,nan,nan,nan,nan,263.05302549735643,643.1246107313491,nan,643.3693566914008,nan,nan,nan,nan
1,261,1,1,1.0,1.0,0.10828218873939477,0.0,1,7,0,4,6,8,nan,nan,nan,nan,nan,nan,nan,nan,nan,nan,nan,nan,0.0,nan,nan,nan,nan,nan,nan,nan,nan,nan,nan,nan,nan,nan,nan,nan,nan,nan,nan,263.05302549735643,644.1330730748887,nan,644.2413552636281,nan,nan,nan,nan
1,262,1,1,1.0,1.0,0.2841160140815191,0.0,7,8,6,0,5,4,nan,nan,nan,nan,nan,nan,nan,nan,nan,nan,nan,nan,0.0,nan,nan,nan,nan,nan,nan,nan,nan,nan,nan,nan,nan,nan,nan,nan,nan,nan,nan,263.05302549735643,645.1332524029131,nan,645.4173684169946,nan,nan,nan,nan
1,263,1,1,1.0,1.0,0.2759601532598026,0.0,0,3,1,6,2,8,nan,nan,nan,nan,nan,nan,nan,nan,nan,nan,nan,nan,0.0,nan,nan,nan,nan,nan,nan,nan,nan,nan,nan,nan,nan,nan,nan,nan,nan,nan,nan,263.05302549735643,646.1333909615932,nan,646.409351114853,nan,nan,nan,nan
1,264,0,0,0.0,1.0,0.6678235081490129,0.0,4,5,2,0,1,7,nan,nan,nan,nan,nan,nan,nan,nan,nan,nan,nan,nan,0.0,nan,nan,nan,nan,nan,nan,nan,nan,nan,nan,nan,nan,nan,nan,nan,nan,nan,nan,263.05302549735643,647.1335158354777,nan,647.8013393436268,nan,nan,nan,nan
1,265,1,1,1.0,1.0,0.4676965815888252,0.0,6,4,7,5,0,3,nan,nan,nan,nan,nan,nan,nan,nan,nan,nan,nan,nan,0.0,nan,nan,nan,nan,nan,nan,nan,nan,nan,nan,nan,nan,nan,nan,nan,nan,nan,nan,263.05302549735643,648.1336315861263,nan,648.6013281677151,nan,nan,nan,nan
1,266,1,1,1.0,1.0,0.2835652005742304,0.0,7,5,1,8,4,2,nan,nan,nan,nan,nan,nan,nan,nan,nan,nan,nan,nan,0.0,nan,nan,nan,nan,nan,nan,nan,nan,nan,nan,nan,nan,nan,nan,nan,nan,nan,nan,263.05302549735643,649.1338003654382,nan,649.4173655660124,nan,nan,nan,nan
1,267,1,1,1.0,1.0,0.18740746716503054,0.0,3,4,7,0,5,8,nan,nan,nan,nan,nan,nan,nan,nan,nan,nan,nan,nan,0.0,nan,nan,nan,nan,nan,nan,nan,nan,nan,nan,nan,nan,nan,nan,nan,nan,nan,nan,263.05302549735643,650.1339075631113,nan,650.3213150302763,nan,nan,nan,nan
1,268,1,1,nan,nan,nan,0.0,0,5,2,8,4,1,nan,nan,nan,nan,nan,nan,nan,nan,nan,nan,nan,nan,0.0,nan,nan,nan,nan,nan,nan,nan,nan,nan,nan,nan,nan,nan,nan,nan,nan,nan,nan,263.05302549735643,651.1340441261127,nan,nan,nan,nan,nan,nan
1,269,1,1,1.0,1.0,0.0028190705634187907,0.0,6,2,0,3,5,7,nan,nan,nan,nan,nan,nan,nan,nan,nan,nan,nan,nan,0.0,nan,nan,nan,nan,nan,nan,nan,nan,nan,nan,nan,nan,nan,nan,nan,nan,nan,nan,263.05302549735643,652.1425118865445,nan,652.145330957108,nan,nan,nan,nan
1,270,1,1,1.0,1.0,0.17061136028496549,0.0,2,3,8,5,0,1,nan,nan,nan,nan,nan,nan,nan,nan,nan,nan,nan,nan,0.0,nan,nan,nan,nan,nan,nan,nan,nan,nan,nan,nan,nan,nan,nan,nan,nan,nan,nan,263.05302549735643,653.1426567174203,nan,653.3132680777053,nan,nan,nan,nan
1,271,1,1,1.0,1.0,0.49047865186003037,0.0,4,5,3,0,1,6,nan,nan,nan,nan,nan,nan,nan,nan,nan,nan,nan,nan,0.0,nan,nan,nan,nan,nan,nan,nan,nan,nan,nan,nan,nan,nan,nan,nan,nan,nan,nan,263.05302549735643,654.1427818764059,nan,654.633260528266,nan,nan,nan,nan
1,272,1,1,1.0,1.0,0.3700286725361366,0.0,6,2,5,7,4,1,nan,nan,nan,nan,nan,nan,nan,nan,nan,nan,nan,nan,0.0,nan,nan,nan,nan,nan,nan,nan,nan,nan,nan,nan,nan,nan,nan,nan,nan,nan,nan,263.05302549735643,655.15124536035,nan,655.5212740328861,nan,nan,nan,nan
1,273,1,1,1.0,1.0,0.37786379567114636,0.0,3,7,8,1,6,5,nan,nan,nan,nan,nan,nan,nan,nan,nan,nan,nan,nan,0.0,nan,nan,nan,nan,nan,nan,nan,nan,nan,nan,nan,nan,nan,nan,nan,nan,nan,nan,263.05302549735643,656.1514027356461,nan,656.5292665313173,nan,nan,nan,nan
1,274,1,1,1.0,1.0,0.37735403652186505,0.0,8,6,7,2,3,4,nan,nan,nan,nan,nan,nan,nan,nan,nan,nan,nan,nan,0.0,nan,nan,nan,nan,nan,nan,nan,nan,nan,nan,nan,nan,nan,nan,nan,nan,nan,nan,263.05302549735643,657.1598975806264,nan,657.5372516171483,nan,nan,nan,nan
1,275,0,0,1.0,0.0,0.3609336916706525,1.0,7,2,5,1,0,3,1.0,1.0,1.0,1.0,1.0,1.0,1.0,0.0,1.0,0.0,0.0,0.0,2.0,7.0,1.0,5.0,4.0,3.0,0.0,1.0,5.0,2.0,6.0,4.0,3.0,1.7245652863930445,6.076664863881888,2.734151779935928,7.05214539312874,4.901262395083904,3.9567973442317452,263.05302549735643,658.1683516562625,658.9767908496433,658.5292853479332,667.0778369107284,668.0872118599364,659.9852631716931,667.0695051430666
1,276,1,1,1.0,1.0,0.3864276348904241,0.0,8,3,1,0,2,6,nan,nan,nan,nan,nan,nan,nan,nan,nan,nan,nan,nan,0.0,nan,nan,nan,nan,nan,nan,nan,nan,nan,nan,nan,nan,nan,nan,nan,nan,nan,nan,263.05302549735643,668.294722310995,nan,668.6811499458854,nan,nan,nan,nan
1,277,1,1,1.0,1.0,0.3142727707454469,0.0,2,7,0,6,4,5,nan,nan,nan,nan,nan,nan,nan,nan,nan,nan,nan,nan,0.0,nan,nan,nan,nan,nan,nan,nan,nan,nan,nan,nan,nan,nan,nan,nan,nan,nan,nan,263.05302549735643,669.2948543123784,nan,669.6091270831239,nan,nan,nan,nan
1,278,1,1,1.0,1.0,0.2901561465114355,0.0,5,1,3,2,8,4,nan,nan,nan,nan,nan,nan,nan,nan,nan,nan,nan,nan,0.0,nan,nan,nan,nan,nan,nan,nan,nan,nan,nan,nan,nan,nan,nan,nan,nan,nan,nan,263.05302549735643,670.2949837478809,nan,670.5851398943923,nan,nan,nan,nan
1,279,0,0,0.0,1.0,0.7219791426323354,1.0,6,7,8,0,2,3,1.0,1.0,1.0,1.0,1.0,1.0,0.0,1.0,0.0,0.0,0.0,0.0,1.0,4.0,7.0,5.0,8.0,3.0,0.0,6.0,1.0,5.0,2.0,4.0,3.0,7.276712817751104,1.8545521518099122,5.837394537869841,3.0620486329717096,4.972951405536151,4.286891749448841,263.05302549735643,671.2951419784804,672.1035817420634,672.0171211211127,680.438020788948,681.4406859054288,673.1203593174578,680.4296884510841
1,280,1,1,1.0,1.0,0.4345228948222939,0.0,2,3,7,1,5,6,nan,nan,nan,nan,nan,nan,nan,nan,nan,nan,nan,nan,0.0,nan,nan,nan,nan,nan,nan,nan,nan,nan,nan,nan,nan,nan,nan,nan,nan,nan,nan,263.05302549735643,681.646522248222,nan,682.0810451430443,nan,nan,nan,nan
1,281,1,1,1.0,1.0,0.29829718216205947,0.0,3,0,2,6,7,8,nan,nan,nan,nan,nan,nan,nan,nan,nan,nan,nan,nan,0.0,nan,nan,nan,nan,nan,nan,nan,nan,nan,nan,nan,nan,nan,nan,nan,nan,nan,nan,263.05302549735643,682.6467152610421,nan,682.9450124432042,nan,nan,nan,nan
1,282,1,1,1.0,1.0,0.3938302610476967,0.0,5,4,8,3,0,7,nan,nan,nan,nan,nan,nan,nan,nan,nan,nan,nan,nan,0.0,nan,nan,nan,nan,nan,nan,nan,nan,nan,nan,nan,nan,nan,nan,nan,nan,nan,nan,263.05302549735643,683.6551761790761,nan,684.0490064401238,nan,nan,nan,nan
1,283,0,0,1.0,0.0,0.2896617828228045,1.0,6,5,1,2,7,3,1.0,1.0,1.0,1.0,1.0,1.0,0.0,1.0,0.0,0.0,0.0,1.0,2.0,0.0,5.0,8.0,7.0,1.0,3.0,4.0,1.0,3.0,2.0,6.0,5.0,6.996755559957819,1.7268438070022967,3.701443376688985,2.764613878855016,8.604515017505037,7.765208597818855,263.05302549735643,684.655325856671,685.4637322635681,684.9449876394938,695.1233876515762,696.1201871169615,686.4805335022684,695.1150573094201
1,284,1,1,1.0,1.0,0.30931316802161746,0.0,2,7,6,1,8,4,nan,nan,nan,nan,nan,nan,nan,nan,nan,nan,nan,nan,0.0,nan,nan,nan,nan,nan,nan,nan,nan,nan,nan,nan,nan,nan,nan,nan,nan,nan,nan,263.05302549735643,696.3235858532134,nan,696.6328990212351,nan,nan,nan,nan
1,285,1,1,1.0,1.0,0.309185443125898,0.0,4,2,0,6,7,5,nan,nan,nan,nan,nan,nan,nan,nan,nan,nan,nan,nan,0.0,nan,nan,nan,nan,nan,nan,nan,nan,nan,nan,nan,nan,nan,nan,nan,nan,nan,nan,263.05302549735643,697.3236998932844,nan,697.6328853364103,nan,nan,nan,nan
1,286,1,1,1.0,1.0,0.2290346593654249,0.0,7,5,6,3,8,4,nan,nan,nan,nan,nan,nan,nan,nan,nan,nan,nan,nan,0.0,nan,nan,nan,nan,nan,nan,nan,nan,nan,nan,nan,nan,nan,nan,nan,nan,nan,nan,263.05302549735643,698.32382989896,nan,698.5528645583254,nan,nan,nan,nan
1,287,1,1,1.0,1.0,0.18055622474639677,0.0,5,7,8,2,1,3,nan,nan,nan,nan,nan,nan,nan,nan,nan,nan,nan,nan,0.0,nan,nan,nan,nan,nan,nan,nan,nan,nan,nan,nan,nan,nan,nan,nan,nan,nan,nan,263.05302549735643,699.3323127697222,nan,699.5128689944686,nan,nan,nan,nan
1,288,1,1,1.0,1.0,0.26838732228497975,0.0,7,4,1,3,6,2,nan,nan,nan,nan,nan,nan,nan,nan,nan,nan,nan,nan,0.0,nan,nan,nan,nan,nan,nan,nan,nan,nan,nan,nan,nan,nan,nan,nan,nan,nan,nan,263.05302549735643,700.332445626409,nan,700.600832948694,nan,nan,nan,nan
1,289,1,1,1.0,1.0,0.2363038586336188,0.0,8,0,2,7,4,1,nan,nan,nan,nan,nan,nan,nan,nan,nan,nan,nan,nan,0.0,nan,nan,nan,nan,nan,nan,nan,nan,nan,nan,nan,nan,nan,nan,nan,nan,nan,nan,263.05302549735643,701.3325391392573,nan,701.5688429978909,nan,nan,nan,nan
1,290,1,1,1.0,1.0,0.19612782637705095,0.0,4,7,1,5,2,0,nan,nan,nan,nan,nan,nan,nan,nan,nan,nan,nan,nan,0.0,nan,nan,nan,nan,nan,nan,nan,nan,nan,nan,nan,nan,nan,nan,nan,nan,nan,nan,263.05302549735643,702.3327110546816,nan,702.5288388810586,nan,nan,nan,nan
1,291,1,1,1.0,1.0,0.17199010474723764,0.0,0,1,8,7,6,2,nan,nan,nan,nan,nan,nan,nan,nan,nan,nan,nan,nan,0.0,nan,nan,nan,nan,nan,nan,nan,nan,nan,nan,nan,nan,nan,nan,nan,nan,nan,nan,263.05302549735643,703.3328387795482,nan,703.5048288842954,nan,nan,nan,nan
1,292,1,1,1.0,1.0,0.2117946514626965,0.0,1,8,7,3,4,6,nan,nan,nan,nan,nan,nan,nan,nan,nan,nan,nan,nan,0.0,nan,nan,nan,nan,nan,nan,nan,nan,nan,nan,nan,nan,nan,nan,nan,nan,nan,nan,263.05302549735643,704.3329913081543,nan,704.544785959617,nan,nan,nan,nan
1,293,1,1,1.0,1.0,0.20365076482994482,0.0,8,0,3,4,5,7,nan,nan,nan,nan,nan,nan,nan,nan,nan,nan,nan,nan,0.0,nan,nan,nan,nan,nan,nan,nan,nan,nan,nan,nan,nan,nan,nan,nan,nan,nan,nan,263.05302549735643,705.3331253052456,nan,705.5367760700756,nan,nan,nan,nan
1,294,1,1,1.0,1.0,0.26751377535401843,0.0,3,7,4,6,8,0,nan,nan,nan,nan,nan,nan,nan,nan,nan,nan,nan,nan,0.0,nan,nan,nan,nan,nan,nan,nan,nan,nan,nan,nan,nan,nan,nan,nan,nan,nan,nan,263.05302549735643,706.3332513195055,nan,706.6007650948595,nan,nan,nan,nan
1,295,1,1,1.0,1.0,0.371363226469839,0.0,7,1,0,3,2,4,nan,nan,nan,nan,nan,nan,nan,nan,nan,nan,nan,nan,0.0,nan,nan,nan,nan,nan,nan,nan,nan,nan,nan,nan,nan,nan,nan,nan,nan,nan,nan,263.05302549735643,707.3333990014216,nan,707.7047622278915,nan,nan,nan,nan
1,296,1,1,1.0,1.0,0.29921976634068415,0.0,0,6,3,4,1,7,nan,nan,nan,nan,nan,nan,nan,nan,nan,nan,nan,nan,0.0,nan,nan,nan,nan,nan,nan,nan,nan,nan,nan,nan,nan,nan,nan,nan,nan,nan,nan,263.05302549735643,708.3335361345962,nan,708.6327559009369,nan,nan,nan,nan
1,297,1,1,1.0,1.0,0.32308293649111874,0.0,5,1,4,8,0,2,nan,nan,nan,nan,nan,nan,nan,nan,nan,nan,nan,nan,0.0,nan,nan,nan,nan,nan,nan,nan,nan,nan,nan,nan,nan,nan,nan,nan,nan,nan,nan,263.05302549735643,709.3336607233796,nan,709.6567436598707,nan,nan,nan,nan
1,298,1,1,1.0,1.0,0.3149165269569494,0.0,1,2,8,7,4,0,nan,nan,nan,nan,nan,nan,nan,nan,nan,nan,nan,nan,0.0,nan,nan,nan,nan,nan,nan,nan,nan,nan,nan,nan,nan,nan,nan,nan,nan,nan,nan,263.05302549735643,710.3338232304668,nan,710.6487397574238,nan,nan,nan,nan
1,299,1,1,1.0,1.0,0.290773103304673,0.0,7,6,4,8,5,3,nan,nan,nan,nan,nan,nan,nan,nan,nan,nan,nan,nan,0.0,nan,nan,nan,nan,nan,nan,nan,nan,nan,nan,nan,nan,nan,nan,nan,nan,nan,nan,263.05302549735643,711.3339483894524,nan,711.6247214927571,nan,nan,nan,nan
1,300,1,1,1.0,1.0,0.2583517959283199,0.0,5,8,7,6,2,4,nan,nan,nan,nan,nan,nan,nan,nan,nan,nan,nan,nan,0.0,nan,nan,nan,nan,nan,nan,nan,nan,nan,nan,nan,nan,nan,nan,nan,nan,nan,nan,263.05302549735643,712.3423876398883,nan,712.6007394358166,nan,nan,nan,nan
1,301,1,1,1.0,1.0,0.24213957419851795,0.0,1,2,5,0,3,7,nan,nan,nan,nan,nan,nan,nan,nan,nan,nan,nan,nan,0.0,nan,nan,nan,nan,nan,nan,nan,nan,nan,nan,nan,nan,nan,nan,nan,nan,nan,nan,263.05302549735643,713.3425567043014,nan,713.5846962784999,nan,nan,nan,nan
1,302,1,1,1.0,1.0,0.2497460470185615,0.0,6,0,2,1,8,4,nan,nan,nan,nan,nan,nan,nan,nan,nan,nan,nan,nan,0.0,nan,nan,nan,nan,nan,nan,nan,nan,nan,nan,nan,nan,nan,nan,nan,nan,nan,nan,263.05302549735643,714.3509802742046,nan,714.6007263212232,nan,nan,nan,nan
1,303,1,1,1.0,1.0,0.2575566515442915,0.0,2,7,8,4,0,6,nan,nan,nan,nan,nan,nan,nan,nan,nan,nan,nan,nan,0.0,nan,nan,nan,nan,nan,nan,nan,nan,nan,nan,nan,nan,nan,nan,nan,nan,nan,nan,263.05302549735643,715.351145347202,nan,715.6087019987463,nan,nan,nan,nan
1,304,1,1,1.0,1.0,0.24106930813286453,0.0,0,5,3,6,1,4,nan,nan,nan,nan,nan,nan,nan,nan,nan,nan,nan,nan,0.0,nan,nan,nan,nan,nan,nan,nan,nan,nan,nan,nan,nan,nan,nan,nan,nan,nan,nan,263.05302549735643,716.3596262222563,nan,716.6006955303892,nan,nan,nan,nan
1,305,1,1,1.0,1.0,0.432896398298908,0.0,7,1,2,0,8,3,nan,nan,nan,nan,nan,nan,nan,nan,nan,nan,nan,nan,0.0,nan,nan,nan,nan,nan,nan,nan,nan,nan,nan,nan,nan,nan,nan,nan,nan,nan,nan,263.05302549735643,717.3597730488691,nan,717.792669447168,nan,nan,nan,nan
1,306,0,0,0.0,1.0,0.4888093902845867,0.0,2,6,4,3,7,5,nan,nan,nan,nan,nan,nan,nan,nan,nan,nan,nan,nan,0.0,nan,nan,nan,nan,nan,nan,nan,nan,nan,nan,nan,nan,nan,nan,nan,nan,nan,nan,263.05302549735643,718.3598699829308,nan,718.8486793732154,nan,nan,nan,nan
1,307,1,1,1.0,1.0,0.600629957363708,0.0,3,5,0,1,4,7,nan,nan,nan,nan,nan,nan,nan,nan,nan,nan,nan,nan,0.0,nan,nan,nan,nan,nan,nan,nan,nan,nan,nan,nan,nan,nan,nan,nan,nan,nan,nan,263.05302549735643,719.360039617517,nan,719.9606695748807,nan,nan,nan,nan
1,308,1,1,1.0,1.0,0.4001443747256417,0.0,4,7,5,6,8,1,nan,nan,nan,nan,nan,nan,nan,nan,nan,nan,nan,nan,0.0,nan,nan,nan,nan,nan,nan,nan,nan,nan,nan,nan,nan,nan,nan,nan,nan,nan,nan,263.05302549735643,720.3685085183824,nan,720.7686528931081,nan,nan,nan,nan
1,309,1,1,1.0,1.0,0.2559703541628551,0.0,6,3,0,1,4,7,nan,nan,nan,nan,nan,nan,nan,nan,nan,nan,nan,nan,0.0,nan,nan,nan,nan,nan,nan,nan,nan,nan,nan,nan,nan,nan,nan,nan,nan,nan,nan,263.05302549735643,721.3686772976653,nan,721.6246476518281,nan,nan,nan,nan
1,310,1,1,1.0,1.0,0.3518971563898958,0.0,5,7,8,4,3,2,nan,nan,nan,nan,nan,nan,nan,nan,nan,nan,nan,nan,0.0,nan,nan,nan,nan,nan,nan,nan,nan,nan,nan,nan,nan,nan,nan,nan,nan,nan,nan,263.05302549735643,722.36881215006,nan,722.7207093064499,nan,nan,nan,nan
1,311,1,1,1.0,1.0,0.31967570426058955,0.0,2,4,6,1,5,7,nan,nan,nan,nan,nan,nan,nan,nan,nan,nan,nan,nan,0.0,nan,nan,nan,nan,nan,nan,nan,nan,nan,nan,nan,nan,nan,nan,nan,nan,nan,nan,263.05302549735643,723.3689492832345,nan,723.6886249874951,nan,nan,nan,nan
1,312,1,1,1.0,1.0,0.3435334574896842,0.0,7,5,3,6,0,1,nan,nan,nan,nan,nan,nan,nan,nan,nan,nan,nan,nan,0.0,nan,nan,nan,nan,nan,nan,nan,nan,nan,nan,nan,nan,nan,nan,nan,nan,nan,nan,263.05302549735643,724.3690864164382,nan,724.7126198739279,nan,nan,nan,nan
1,313,1,1,1.0,1.0,0.38339616465964355,0.0,8,1,4,2,6,0,nan,nan,nan,nan,nan,nan,nan,nan,nan,nan,nan,nan,0.0,nan,nan,nan,nan,nan,nan,nan,nan,nan,nan,nan,nan,nan,nan,nan,nan,nan,nan,263.05302549735643,725.3692132860015,nan,725.7526094506611,nan,nan,nan,nan
1,314,1,1,1.0,1.0,0.34324065962573513,0.0,2,6,3,7,4,5,nan,nan,nan,nan,nan,nan,nan,nan,nan,nan,nan,nan,0.0,nan,nan,nan,nan,nan,nan,nan,nan,nan,nan,nan,nan,nan,nan,nan,nan,nan,nan,263.05302549735643,726.3693575467041,nan,726.7125982063299,nan,nan,nan,nan
1,315,1,1,1.0,1.0,0.5668150803248864,0.0,1,4,0,5,2,8,nan,nan,nan,nan,nan,nan,nan,nan,nan,nan,nan,nan,0.0,nan,nan,nan,nan,nan,nan,nan,nan,nan,nan,nan,nan,nan,nan,nan,nan,nan,nan,263.05302549735643,727.3777851080231,nan,727.944600188348,nan,nan,nan,nan
1,316,1,1,1.0,1.0,0.4786147780541796,0.0,6,0,2,4,8,7,nan,nan,nan,nan,nan,nan,nan,nan,nan,nan,nan,nan,0.0,nan,nan,nan,nan,nan,nan,nan,nan,nan,nan,nan,nan,nan,nan,nan,nan,nan,nan,263.05302549735643,728.3779735592543,nan,728.8565883373085,nan,nan,nan,nan
1,317,1,1,1.0,1.0,0.5024750971933827,0.0,8,1,3,2,7,0,nan,nan,nan,nan,nan,nan,nan,nan,nan,nan,nan,nan,0.0,nan,nan,nan,nan,nan,nan,nan,nan,nan,nan,nan,nan,nan,nan,nan,nan,nan,nan,263.05302549735643,729.378103850031,nan,729.8805789472244,nan,nan,nan,nan
1,318,1,1,1.0,1.0,0.3583543903368991,0.0,6,5,2,4,0,3,nan,nan,nan,nan,nan,nan,nan,nan,nan,nan,nan,nan,0.0,nan,nan,nan,nan,nan,nan,nan,nan,nan,nan,nan,nan,nan,nan,nan,nan,nan,nan,263.05302549735643,730.3782116179063,nan,730.7365660082432,nan,nan,nan,nan
1,319,1,1,1.0,1.0,0.3582144061801955,0.0,2,3,4,8,7,0,nan,nan,nan,nan,nan,nan,nan,nan,nan,nan,nan,nan,0.0,nan,nan,nan,nan,nan,nan,nan,nan,nan,nan,nan,nan,nan,nan,nan,nan,nan,nan,263.05302549735643,731.3783464702719,nan,731.7365608764521,nan,nan,nan,nan
1,320,1,1,1.0,1.0,0.5420427256904077,0.0,8,0,5,7,3,1,nan,nan,nan,nan,nan,nan,nan,nan,nan,nan,nan,nan,0.0,nan,nan,nan,nan,nan,nan,nan,nan,nan,nan,nan,nan,nan,nan,nan,nan,nan,nan,263.05302549735643,732.3785035604669,nan,732.9205462861573,nan,nan,nan,nan
1,321,1,1,1.0,1.0,0.41391271771863103,0.0,7,5,4,1,2,3,nan,nan,nan,nan,nan,nan,nan,nan,nan,nan,nan,nan,0.0,nan,nan,nan,nan,nan,nan,nan,nan,nan,nan,nan,nan,nan,nan,nan,nan,nan,nan,263.05302549735643,733.378625013167,nan,733.7925377308857,nan,nan,nan,nan
1,322,1,1,1.0,1.0,0.357433231692994,0.0,6,4,2,8,7,0,nan,nan,nan,nan,nan,nan,nan,nan,nan,nan,nan,nan,0.0,nan,nan,nan,nan,nan,nan,nan,nan,nan,nan,nan,nan,nan,nan,nan,nan,nan,nan,263.05302549735643,734.3870890672843,nan,734.7445222989772,nan,nan,nan,nan
1,323,1,1,1.0,1.0,0.40528302037273534,0.0,3,5,1,7,6,4,nan,nan,nan,nan,nan,nan,nan,nan,nan,nan,nan,nan,0.0,nan,nan,nan,nan,nan,nan,nan,nan,nan,nan,nan,nan,nan,nan,nan,nan,nan,nan,263.05302549735643,735.3872279110947,nan,735.7925109314674,nan,nan,nan,nan
1,324,1,1,1.0,1.0,0.452783561340766,0.0,1,2,4,0,7,5,nan,nan,nan,nan,nan,nan,nan,nan,nan,nan,nan,nan,0.0,nan,nan,nan,nan,nan,nan,nan,nan,nan,nan,nan,nan,nan,nan,nan,nan,nan,nan,263.05302549735643,736.3957238964504,nan,736.8485074577911,nan,nan,nan,nan
1,325,1,1,1.0,1.0,0.46865252245333977,0.0,7,8,5,6,0,2,nan,nan,nan,nan,nan,nan,nan,nan,nan,nan,nan,nan,0.0,nan,nan,nan,nan,nan,nan,nan,nan,nan,nan,nan,nan,nan,nan,nan,nan,nan,nan,263.05302549735643,737.395837366319,nan,737.8644898887724,nan,nan,nan,nan
1,326,1,1,1.0,1.0,0.39648882023175247,0.0,4,1,6,7,2,5,nan,nan,nan,nan,nan,nan,nan,nan,nan,nan,nan,nan,0.0,nan,nan,nan,nan,nan,nan,nan,nan,nan,nan,nan,nan,nan,nan,nan,nan,nan,nan,263.05302549735643,738.396001584013,nan,738.7924904042447,nan,nan,nan,nan
1,327,1,1,1.0,1.0,0.3080091197625734,0.0,8,0,1,2,7,6,nan,nan,nan,nan,nan,nan,nan,nan,nan,nan,nan,nan,0.0,nan,nan,nan,nan,nan,nan,nan,nan,nan,nan,nan,nan,nan,nan,nan,nan,nan,nan,263.05302549735643,739.4044701997773,nan,739.7124793195399,nan,nan,nan,nan
1,328,0,0,0.0,1.0,0.5478524971404113,1.0,3,6,0,4,2,7,1.0,1.0,1.0,1.0,1.0,1.0,1.0,0.0,0.0,1.0,1.0,0.0,3.0,3.0,0.0,6.0,4.0,2.0,5.0,5.0,4.0,3.0,1.0,2.0,6.0,6.15886637326912,5.086718351521995,4.1186296146479435,1.7907404593424872,3.159156890353188,7.631138242519228,263.05302549735643,740.4046104690642,741.2130034762376,740.9524629662046,749.8975150383194,750.906893693842,742.2298047149379,749.8891804196755
1,329,1,1,1.0,1.0,0.35798261972377077,0.0,5,8,7,6,0,4,nan,nan,nan,nan,nan,nan,nan,nan,nan,nan,nan,nan,0.0,nan,nan,nan,nan,nan,nan,nan,nan,nan,nan,nan,nan,nan,nan,nan,nan,nan,nan,263.05302549735643,751.1143819071003,nan,751.4723645268241,nan,nan,nan,nan
1,330,1,1,1.0,1.0,0.2538537704094779,0.0,7,1,3,0,4,2,nan,nan,nan,nan,nan,nan,nan,nan,nan,nan,nan,nan,0.0,nan,nan,nan,nan,nan,nan,nan,nan,nan,nan,nan,nan,nan,nan,nan,nan,nan,nan,263.05302549735643,752.1145107723714,nan,752.3683645427809,nan,nan,nan,nan
1,331,1,1,1.0,1.0,0.28532626436208375,0.0,6,0,2,5,8,4,nan,nan,nan,nan,nan,nan,nan,nan,nan,nan,nan,nan,0.0,nan,nan,nan,nan,nan,nan,nan,nan,nan,nan,nan,nan,nan,nan,nan,nan,nan,nan,263.05302549735643,753.1230124597496,nan,753.4083387241117,nan,nan,nan,nan
1,332,1,1,1.0,1.0,0.26920983628951944,0.0,7,8,4,6,0,3,nan,nan,nan,nan,nan,nan,nan,nan,nan,nan,nan,nan,0.0,nan,nan,nan,nan,nan,nan,nan,nan,nan,nan,nan,nan,nan,nan,nan,nan,nan,nan,263.05302549735643,754.1231216531014,nan,754.3923314893909,nan,nan,nan,nan
1,333,1,1,1.0,1.0,0.29273088622721843,0.0,5,0,2,1,3,8,nan,nan,nan,nan,nan,nan,nan,nan,nan,nan,nan,nan,0.0,nan,nan,nan,nan,nan,nan,nan,nan,nan,nan,nan,nan,nan,nan,nan,nan,nan,nan,263.05302549735643,755.1315945453534,nan,755.4243254315807,nan,nan,nan,nan
1,334,1,1,1.0,1.0,0.32425868962309323,0.0,4,6,5,8,7,1,nan,nan,nan,nan,nan,nan,nan,nan,nan,nan,nan,nan,0.0,nan,nan,nan,nan,nan,nan,nan,nan,nan,nan,nan,nan,nan,nan,nan,nan,nan,nan,263.05302549735643,756.1400665823021,nan,756.4643252719252,nan,nan,nan,nan
1,335,1,1,1.0,1.0,0.2837545070797205,0.0,3,4,8,6,2,0,nan,nan,nan,nan,nan,nan,nan,nan,nan,nan,nan,nan,0.0,nan,nan,nan,nan,nan,nan,nan,nan,nan,nan,nan,nan,nan,nan,nan,nan,nan,nan,263.05302549735643,757.1485625676578,nan,757.4323170747375,nan,nan,nan,nan
1,336,1,1,1.0,1.0,0.3152680554485414,0.0,6,2,7,0,1,3,nan,nan,nan,nan,nan,nan,nan,nan,nan,nan,nan,nan,0.0,nan,nan,nan,nan,nan,nan,nan,nan,nan,nan,nan,nan,nan,nan,nan,nan,nan,nan,263.05302549735643,758.1570639699348,nan,758.4723320253834,nan,nan,nan,nan
1,337,1,1,1.0,1.0,0.32278956842492335,0.0,3,6,5,7,0,2,nan,nan,nan,nan,nan,nan,nan,nan,nan,nan,nan,nan,0.0,nan,nan,nan,nan,nan,nan,nan,nan,nan,nan,nan,nan,nan,nan,nan,nan,nan,nan,263.05302549735643,759.1655026501394,nan,759.4882922185643,nan,nan,nan,nan
1,338,1,1,1.0,1.0,0.3463083375536371,0.0,0,5,8,1,2,4,nan,nan,nan,nan,nan,nan,nan,nan,nan,nan,nan,nan,0.0,nan,nan,nan,nan,nan,nan,nan,nan,nan,nan,nan,nan,nan,nan,nan,nan,nan,nan,263.05302549735643,760.1739755423914,nan,760.520283879945,nan,nan,nan,nan
1,339,1,1,1.0,1.0,0.321847882529255,0.0,2,4,3,0,8,1,nan,nan,nan,nan,nan,nan,nan,nan,nan,nan,nan,nan,0.0,nan,nan,nan,nan,nan,nan,nan,nan,nan,nan,nan,nan,nan,nan,nan,nan,nan,nan,263.05302549735643,761.1824233458319,nan,761.5042712283612,nan,nan,nan,nan
1,340,1,1,1.0,1.0,0.3693635337986052,0.0,8,0,4,1,2,7,nan,nan,nan,nan,nan,nan,nan,nan,nan,nan,nan,nan,0.0,nan,nan,nan,nan,nan,nan,nan,nan,nan,nan,nan,nan,nan,nan,nan,nan,nan,nan,263.05302549735643,762.190896238084,nan,762.5602597718826,nan,nan,nan,nan
1,341,1,1,1.0,1.0,0.48085395485395566,0.0,2,4,8,3,5,0,nan,nan,nan,nan,nan,nan,nan,nan,nan,nan,nan,nan,0.0,nan,nan,nan,nan,nan,nan,nan,nan,nan,nan,nan,nan,nan,nan,nan,nan,nan,nan,263.05302549735643,763.1993919383385,nan,763.6802458931925,nan,nan,nan,nan
1,342,1,1,1.0,1.0,0.4887175880430732,0.0,0,1,4,7,8,3,nan,nan,nan,nan,nan,nan,nan,nan,nan,nan,nan,nan,0.0,nan,nan,nan,nan,nan,nan,nan,nan,nan,nan,nan,nan,nan,nan,nan,nan,nan,nan,263.05302549735643,764.199502557196,nan,764.688220145239,nan,nan,nan,nan
1,343,1,1,1.0,1.0,0.5041965320997406,0.0,5,0,7,1,2,6,nan,nan,nan,nan,nan,nan,nan,nan,nan,nan,nan,nan,0.0,nan,nan,nan,nan,nan,nan,nan,nan,nan,nan,nan,nan,nan,nan,nan,nan,nan,nan,263.05302549735643,765.2080059551809,nan,765.7122024872806,nan,nan,nan,nan
1,344,1,1,1.0,1.0,0.43979867367306724,0.0,7,1,8,0,6,4,nan,nan,nan,nan,nan,nan,nan,nan,nan,nan,nan,nan,0.0,nan,nan,nan,nan,nan,nan,nan,nan,nan,nan,nan,nan,nan,nan,nan,nan,nan,nan,263.05302549735643,766.2164209720795,nan,766.6562196457526,nan,nan,nan,nan
1,345,1,1,1.0,1.0,0.40760174015304074,0.0,6,2,0,3,8,5,nan,nan,nan,nan,nan,nan,nan,nan,nan,nan,nan,nan,0.0,nan,nan,nan,nan,nan,nan,nan,nan,nan,nan,nan,nan,nan,nan,nan,nan,nan,nan,263.05302549735643,767.2166065722995,nan,767.6242083124525,nan,nan,nan,nan
1,346,1,1,1.0,1.0,0.39912542668753304,0.0,2,8,3,5,4,1,nan,nan,nan,nan,nan,nan,nan,nan,nan,nan,nan,nan,0.0,nan,nan,nan,nan,nan,nan,nan,nan,nan,nan,nan,nan,nan,nan,nan,nan,nan,nan,263.05302549735643,768.2250803198549,nan,768.6242057465424,nan,nan,nan,nan
1,347,1,1,1.0,1.0,0.3906804742582608,0.0,1,4,6,2,7,5,nan,nan,nan,nan,nan,nan,nan,nan,nan,nan,nan,nan,0.0,nan,nan,nan,nan,nan,nan,nan,nan,nan,nan,nan,nan,nan,nan,nan,nan,nan,nan,263.05302549735643,769.2335244169808,nan,769.6242048912391,nan,nan,nan,nan
1,348,1,1,1.0,1.0,0.40654202277073637,0.0,2,1,7,8,6,4,nan,nan,nan,nan,nan,nan,nan,nan,nan,nan,nan,nan,0.0,nan,nan,nan,nan,nan,nan,nan,nan,nan,nan,nan,nan,nan,nan,nan,nan,nan,nan,263.05302549735643,770.2336595544766,nan,770.6402015772474,nan,nan,nan,nan
1,349,1,1,1.0,1.0,0.382057619310217,0.0,7,5,6,3,1,8,nan,nan,nan,nan,nan,nan,nan,nan,nan,nan,nan,nan,0.0,nan,nan,nan,nan,nan,nan,nan,nan,nan,nan,nan,nan,nan,nan,nan,nan,nan,nan,263.05302549735643,771.2421184768027,nan,771.6241760961129,nan,nan,nan,nan
1,350,1,1,1.0,1.0,0.36554632749175653,0.0,5,0,3,7,4,6,nan,nan,nan,nan,nan,nan,nan,nan,nan,nan,nan,nan,0.0,nan,nan,nan,nan,nan,nan,nan,nan,nan,nan,nan,nan,nan,nan,nan,nan,nan,nan,263.05302549735643,772.2506284320843,nan,772.6161747595761,nan,nan,nan,nan
1,351,1,1,1.0,1.0,0.3650559551897459,0.0,4,3,8,1,0,5,nan,nan,nan,nan,nan,nan,nan,nan,nan,nan,nan,nan,0.0,nan,nan,nan,nan,nan,nan,nan,nan,nan,nan,nan,nan,nan,nan,nan,nan,nan,nan,263.05302549735643,773.2591038902174,nan,773.6241598454071,nan,nan,nan,nan
1,352,1,1,1.0,1.0,0.35694228918873705,0.0,3,8,5,0,6,7,nan,nan,nan,nan,nan,nan,nan,nan,nan,nan,nan,nan,0.0,nan,nan,nan,nan,nan,nan,nan,nan,nan,nan,nan,nan,nan,nan,nan,nan,nan,nan,263.05302549735643,774.2592082368792,nan,774.6161505260679,nan,nan,nan,nan
1,353,1,1,1.0,1.0,0.3564308194327168,0.0,0,1,8,7,5,2,nan,nan,nan,nan,nan,nan,nan,nan,nan,nan,nan,nan,0.0,nan,nan,nan,nan,nan,nan,nan,nan,nan,nan,nan,nan,nan,nan,nan,nan,nan,nan,263.05302549735643,775.2677119199652,nan,775.6241427393979,nan,nan,nan,nan
1,354,0,0,0.0,1.0,0.5559490571613424,0.0,7,3,1,6,0,4,nan,nan,nan,nan,nan,nan,nan,nan,nan,nan,nan,nan,0.0,nan,nan,nan,nan,nan,nan,nan,nan,nan,nan,nan,nan,nan,nan,nan,nan,nan,nan,263.05302549735643,776.2761739784037,nan,776.832123035565,nan,nan,nan,nan
1,355,1,1,1.0,1.0,0.6434922034968622,0.0,2,4,6,5,3,1,nan,nan,nan,nan,nan,nan,nan,nan,nan,nan,nan,nan,0.0,nan,nan,nan,nan,nan,nan,nan,nan,nan,nan,nan,nan,nan,nan,nan,nan,nan,nan,263.05302549735643,777.2846195010352,nan,777.9281117045321,nan,nan,nan,nan
1,356,1,1,1.0,1.0,0.4909904066589661,0.0,5,0,4,3,8,2,nan,nan,nan,nan,nan,nan,nan,nan,nan,nan,nan,nan,0.0,nan,nan,nan,nan,nan,nan,nan,nan,nan,nan,nan,nan,nan,nan,nan,nan,nan,nan,263.05302549735643,778.2930884018715,nan,778.7840788085305,nan,nan,nan,nan
1,357,1,1,1.0,1.0,0.4108239423658233,0.0,4,7,5,0,3,6,nan,nan,nan,nan,nan,nan,nan,nan,nan,nan,nan,nan,0.0,nan,nan,nan,nan,nan,nan,nan,nan,nan,nan,nan,nan,nan,nan,nan,nan,nan,nan,263.05302549735643,779.2932631682779,nan,779.7040871106437,nan,nan,nan,nan
1,358,1,1,1.0,1.0,0.3463656426756643,0.0,7,4,3,8,6,5,nan,nan,nan,nan,nan,nan,nan,nan,nan,nan,nan,nan,0.0,nan,nan,nan,nan,nan,nan,nan,nan,nan,nan,nan,nan,nan,nan,nan,nan,nan,nan,263.05302549735643,780.3017209502286,nan,780.6480865929043,nan,nan,nan,nan
1,359,1,1,1.0,1.0,0.3222111001377925,0.0,4,7,2,3,5,0,nan,nan,nan,nan,nan,nan,nan,nan,nan,nan,nan,nan,0.0,nan,nan,nan,nan,nan,nan,nan,nan,nan,nan,nan,nan,nan,nan,nan,nan,nan,nan,263.05302549735643,781.3018692023179,nan,781.6240803024557,nan,nan,nan,nan
1,360,0,0,0.0,1.0,0.6177302661526483,1.0,0,1,6,5,7,2,1.0,1.0,1.0,1.0,1.0,1.0,0.0,0.0,1.0,1.0,0.0,1.0,3.0,7.0,0.0,6.0,5.0,1.0,2.0,6.0,4.0,2.0,1.0,5.0,3.0,8.980710406933213,6.750199213740416,3.085794912040001,1.7984766527079046,8.037161953136092,5.62896891523269,263.05302549735643,782.3103369627497,783.1187396633322,782.9280672289024,793.153420674731,794.1497203594772,784.1355716928665,793.1450889070693
1,361,1,1,1.0,1.0,0.43835407102596946,0.0,1,8,2,7,5,4,nan,nan,nan,nan,nan,nan,nan,nan,nan,nan,nan,nan,0.0,nan,nan,nan,nan,nan,nan,nan,nan,nan,nan,nan,nan,nan,nan,nan,nan,nan,nan,263.05302549735643,794.3536240081885,nan,794.7919780792145,nan,nan,nan,nan
1,362,1,1,1.0,1.0,0.35018655529711396,0.0,0,6,8,4,2,3,nan,nan,nan,nan,nan,nan,nan,nan,nan,nan,nan,nan,0.0,nan,nan,nan,nan,nan,nan,nan,nan,nan,nan,nan,nan,nan,nan,nan,nan,nan,nan,263.05302549735643,795.3537588605541,nan,795.7039454158512,nan,nan,nan,nan
1,363,1,1,1.0,1.0,0.32604997407179326,0.0,8,4,7,1,6,2,nan,nan,nan,nan,nan,nan,nan,nan,nan,nan,nan,nan,0.0,nan,nan,nan,nan,nan,nan,nan,nan,nan,nan,nan,nan,nan,nan,nan,nan,nan,nan,263.05302549735643,796.3538971341331,nan,796.6799471082049,nan,nan,nan,nan
1,364,1,1,1.0,1.0,0.27789854939328507,0.0,6,7,8,4,0,3,nan,nan,nan,nan,nan,nan,nan,nan,nan,nan,nan,nan,0.0,nan,nan,nan,nan,nan,nan,nan,nan,nan,nan,nan,nan,nan,nan,nan,nan,nan,nan,263.05302549735643,797.3540336971346,nan,797.6319322465279,nan,nan,nan,nan
1,365,1,1,1.0,1.0,0.23772964463569224,0.0,2,0,3,5,8,6,nan,nan,nan,nan,nan,nan,nan,nan,nan,nan,nan,nan,0.0,nan,nan,nan,nan,nan,nan,nan,nan,nan,nan,nan,nan,nan,nan,nan,nan,nan,nan,263.05302549735643,798.3541936383408,nan,798.5919232829765,nan,nan,nan,nan
1,366,1,1,1.0,1.0,0.18955370131880045,0.0,0,4,1,8,2,5,nan,nan,nan,nan,nan,nan,nan,nan,nan,nan,nan,nan,0.0,nan,nan,nan,nan,nan,nan,nan,nan,nan,nan,nan,nan,nan,nan,nan,nan,nan,nan,263.05302549735643,799.3543501583335,nan,799.5439038596523,nan,nan,nan,nan
1,367,1,1,1.0,1.0,0.2534369539353065,0.0,4,5,2,6,8,7,nan,nan,nan,nan,nan,nan,nan,nan,nan,nan,nan,nan,0.0,nan,nan,nan,nan,nan,nan,nan,nan,nan,nan,nan,nan,nan,nan,nan,nan,nan,nan,263.05302549735643,800.3544656239101,nan,800.6079025778454,nan,nan,nan,nan
1,368,1,1,1.0,1.0,0.2370140432030894,0.0,7,6,0,4,1,3,nan,nan,nan,nan,nan,nan,nan,nan,nan,nan,nan,nan,0.0,nan,nan,nan,nan,nan,nan,nan,nan,nan,nan,nan,nan,nan,nan,nan,nan,nan,nan,263.05302549735643,801.3628880534088,nan,801.5999020966119,nan,nan,nan,nan
1,369,1,1,1.0,1.0,0.20447612984571606,0.0,6,7,4,3,5,8,nan,nan,nan,nan,nan,nan,nan,nan,nan,nan,nan,nan,0.0,nan,nan,nan,nan,nan,nan,nan,nan,nan,nan,nan,nan,nan,nan,nan,nan,nan,nan,263.05302549735643,802.3714014299039,nan,802.5758775597496,nan,nan,nan,nan
1,370,0,0,1.0,0.0,0.2120156041055452,1.0,2,0,1,5,7,4,1.0,1.0,1.0,1.0,1.0,1.0,1.0,0.0,0.0,1.0,0.0,0.0,2.0,2.0,1.0,0.0,5.0,3.0,8.0,2.0,3.0,4.0,1.0,5.0,6.0,3.016681781737134,4.214932749164291,5.4001247028354555,1.7434528881858569,6.470932753698435,7.9671869649901055,263.05302549735643,803.379853224731,804.1882727462216,803.5918688288366,813.2144996819843,814.2113153980754,805.2051081969403,813.2061656335136
1,371,1,1,1.0,1.0,0.409070006076945,0.0,5,7,3,0,1,6,nan,nan,nan,nan,nan,nan,nan,nan,nan,nan,nan,nan,0.0,nan,nan,nan,nan,nan,nan,nan,nan,nan,nan,nan,nan,nan,nan,nan,nan,nan,nan,263.05302549735643,814.4146967432171,nan,814.823766749294,nan,nan,nan,nan
1,372,1,1,1.0,1.0,0.32090847741346806,0.0,1,3,0,8,2,7,nan,nan,nan,nan,nan,nan,nan,nan,nan,nan,nan,nan,0.0,nan,nan,nan,nan,nan,nan,nan,nan,nan,nan,nan,nan,nan,nan,nan,nan,nan,nan,263.05302549735643,815.4148284594994,nan,815.7357369369129,nan,nan,nan,nan
1,373,1,1,1.0,1.0,0.304751565126935,0.0,7,0,5,6,8,4,nan,nan,nan,nan,nan,nan,nan,nan,nan,nan,nan,nan,0.0,nan,nan,nan,nan,nan,nan,nan,nan,nan,nan,nan,nan,nan,nan,nan,nan,nan,nan,263.05302549735643,816.4149741457077,nan,816.7197257108346,nan,nan,nan,nan
1,374,1,1,1.0,1.0,0.272619634430157,0.0,3,2,6,5,4,7,nan,nan,nan,nan,nan,nan,nan,nan,nan,nan,nan,nan,0.0,nan,nan,nan,nan,nan,nan,nan,nan,nan,nan,nan,nan,nan,nan,nan,nan,nan,nan,263.05302549735643,817.4151061470911,nan,817.6877257815213,nan,nan,nan,nan
1,375,1,1,1.0,1.0,0.20012749679153785,0.0,6,8,1,2,3,0,nan,nan,nan,nan,nan,nan,nan,nan,nan,nan,nan,nan,0.0,nan,nan,nan,nan,nan,nan,nan,nan,nan,nan,nan,nan,nan,nan,nan,nan,nan,nan,263.05302549735643,818.4236027026491,nan,818.6237301994406,nan,nan,nan,nan
1,376,1,1,1.0,1.0,0.13601131734321825,0.0,0,2,4,8,1,6,nan,nan,nan,nan,nan,nan,nan,nan,nan,nan,nan,nan,0.0,nan,nan,nan,nan,nan,nan,nan,nan,nan,nan,nan,nan,nan,nan,nan,nan,nan,nan,263.05302549735643,819.423712181102,nan,819.5597234984452,nan,nan,nan,nan
1,377,1,1,1.0,1.0,0.24783587580895983,0.0,6,7,0,2,4,3,nan,nan,nan,nan,nan,nan,nan,nan,nan,nan,nan,nan,0.0,nan,nan,nan,nan,nan,nan,nan,nan,nan,nan,nan,nan,nan,nan,nan,nan,nan,nan,263.05302549735643,820.4238681308925,nan,820.6717040067015,nan,nan,nan,nan
1,378,1,1,1.0,1.0,0.31136189788230695,0.0,4,5,6,7,0,8,nan,nan,nan,nan,nan,nan,nan,nan,nan,nan,nan,nan,0.0,nan,nan,nan,nan,nan,nan,nan,nan,nan,nan,nan,nan,nan,nan,nan,nan,nan,nan,263.05302549735643,821.4323387423647,nan,821.743700640247,nan,nan,nan,nan
1,379,1,1,1.0,1.0,0.29520413029240444,0.0,1,8,3,0,5,7,nan,nan,nan,nan,nan,nan,nan,nan,nan,nan,nan,nan,0.0,nan,nan,nan,nan,nan,nan,nan,nan,nan,nan,nan,nan,nan,nan,nan,nan,nan,nan,263.05302549735643,822.432484713645,nan,822.7276888439374,nan,nan,nan,nan
1,380,1,1,1.0,1.0,0.28702574654016644,0.0,4,7,1,6,3,8,nan,nan,nan,nan,nan,nan,nan,nan,nan,nan,nan,nan,0.0,nan,nan,nan,nan,nan,nan,nan,nan,nan,nan,nan,nan,nan,nan,nan,nan,nan,nan,263.05302549735643,823.4326258382353,nan,823.7196515847754,nan,nan,nan,nan
1,381,0,0,1.0,0.0,0.22294235360459425,0.0,0,6,4,3,5,7,nan,nan,nan,nan,nan,nan,nan,nan,nan,nan,nan,nan,0.0,nan,nan,nan,nan,nan,nan,nan,nan,nan,nan,nan,nan,nan,nan,nan,nan,nan,nan,263.05302549735643,824.432722772297,nan,824.6556651259016,nan,nan,nan,nan
