block,trial,time,setsize,freqtrials,trials_colorind,trials_colordeg,colorrgb0,colorrgb1,colorrgb2,correct_response,actual_response,acc,rts,probe_trials,rt_triggered_fast,rt_triggered_slow,rt_strailingavg,rts_runningavg,rts_runningstd,rts_runningslowthresh,rts_runningfastthresh,wm_respdeg,wm_respind,wm_resprgb0,wm_resprgb1,wm_resprgb2,wm_respcolorminusorigcolor,wm_rts,time_blockstart,time_encarray_onset,time_response,time_encarray_offest,time_memprobe_onset,time_memprobe_offset
0,0,4748,6,1,154,108,1.0,-0.251813147593,0.102138173725,1,1.0,1.0,0.649685195182,0,nan,nan,nan,nan,nan,nan,nan,nan,nan,0.0,0.0,0.0,nan,nan,344.372445524,345.394722497,346.044407692,345.894775526,nan,nan
0,1,4749,6,1,496,348,0.714833717156,0.274923884212,-1.0,1,1.0,1.0,0.368879805319,0,nan,nan,nan,nan,nan,nan,nan,nan,nan,0.0,0.0,0.0,nan,nan,344.372445524,346.411564651,346.780444456,346.911551537,nan,nan
0,2,4750,6,1,146,102,1.0,-0.278792578557,0.0248813210997,1,1.0,1.0,0.344789038878,0,nan,nan,nan,nan,nan,nan,nan,nan,nan,0.0,0.0,0.0,nan,nan,344.372445524,347.411624236,347.756413275,347.911659589,nan,nan
0,3,4751,6,1,423,297,0.135229581944,0.450080889006,-0.750039916123,1,1.0,1.0,0.461857332382,0,nan,nan,nan,nan,nan,nan,nan,nan,nan,0.0,0.0,0.0,nan,nan,344.372445524,348.542549425,349.004406757,349.04514467,nan,nan
0,4,4757,6,1,125,87,1.0,-0.311567427947,-0.187805059354,1,1.0,1.0,0.363172716927,1,nan,nan,nan,nan,nan,nan,nan,-15.4559990703,150.0,1.0,-0.266152531622,0.0638227105866,17.5653740703,2.47560531972,344.372445524,349.545227919,349.908400636,350.045264126,351.378772414,353.862401812
0,5,4758,6,1,6,4,0.895129075663,0.186272780825,-1.0,1,1.0,1.0,0.701332091354,0,nan,nan,nan,nan,nan,nan,nan,nan,nan,0.0,0.0,0.0,nan,nan,344.372445524,355.070931768,355.772263859,355.571000762,nan,nan
0,6,4759,6,1,229,161,0.770397026975,0.135265939772,0.614681466938,1,1.0,1.0,0.357179105282,0,nan,nan,nan,nan,nan,nan,nan,nan,nan,0.0,0.0,0.0,nan,nan,344.372445524,356.071071466,356.428250571,356.571090568,nan,nan
0,7,4800,6,1,295,207,0.0860222946478,0.38372732295,0.554986075565,1,1.0,1.0,0.389056748245,0,nan,nan,nan,nan,nan,nan,nan,nan,nan,0.0,0.0,0.0,nan,nan,344.372445524,357.071193203,357.460249951,357.571211734,nan,nan
0,8,4801,6,1,171,120,1.0,-0.176011872558,0.256450910142,1,1.0,1.0,0.308899214491,0,nan,nan,nan,nan,nan,nan,nan,nan,nan,0.0,0.0,0.0,nan,nan,344.372445524,358.071324063,358.380223277,358.571363977,nan,nan
0,9,4802,6,1,416,292,0.087881616042,0.458117504295,-0.630165317015,1,1.0,1.0,0.308762937784,0,nan,nan,nan,nan,nan,nan,nan,nan,nan,0.0,0.0,0.0,nan,nan,344.372445524,359.071450646,359.380213584,359.571476305,nan,nan
0,10,4803,6,1,368,258,-0.150457169737,0.477793263397,-0.0457341785459,1,1.0,1.0,0.29263381334,0,nan,nan,nan,nan,nan,nan,nan,nan,nan,0.0,0.0,0.0,nan,nan,344.372445524,360.071575804,360.364209617,360.571614292,nan,nan
0,11,4804,6,1,460,323,0.415848916989,0.383334931935,-1.0,1,1.0,1.0,0.664611776359,0,nan,nan,nan,nan,nan,nan,nan,nan,nan,0.0,0.0,0.0,nan,nan,344.372445524,361.13154157,361.796153346,361.630106102,nan,nan
0,12,4805,6,0,416,292,0.087881616042,0.458117504295,-0.630165317015,0,1.0,0.0,0.377972715069,0,0.0,0.0,nan,nan,nan,nan,nan,nan,nan,0.0,0.0,0.0,nan,nan,344.372445524,362.13018593,362.508158645,362.630220711,nan,nan
0,13,4806,6,1,493,346,0.689769084006,0.285700779988,-1.0,1,1.0,1.0,0.385847116821,0,nan,nan,nan,nan,nan,nan,nan,nan,nan,0.0,0.0,0.0,nan,nan,344.372445524,363.130300824,363.516147941,363.630322491,nan,nan
0,14,4807,6,1,202,142,1.0,-0.00802826454356,0.487596984314,1,1.0,1.0,0.342567841988,0,nan,nan,nan,nan,nan,nan,nan,nan,nan,0.0,0.0,0.0,nan,nan,344.372445524,364.173555295,364.516123137,364.672121253,nan,nan
0,15,4808,6,1,507,356,0.805995650865,0.232688349973,-1.0,1,1.0,1.0,0.367887664586,0,nan,nan,nan,nan,nan,nan,nan,nan,nan,0.0,0.0,0.0,nan,nan,344.372445524,365.172224174,365.540111838,365.67224356,nan,nan
0,16,4809,6,1,271,190,0.320642857732,0.312811632898,0.639400143054,1,0.0,0.0,0.455758519936,0,0.0,0.0,nan,nan,nan,nan,nan,nan,nan,0.0,0.0,0.0,nan,nan,344.372445524,366.172331085,366.628089605,366.672380977,nan,nan
0,17,4810,6,1,349,245,-0.175656888649,0.468768509344,0.147945183432,1,1.0,1.0,0.40485886531,0,nan,nan,nan,nan,nan,nan,nan,nan,nan,0.0,0.0,0.0,nan,nan,344.372445524,367.239185669,367.644044535,367.739172555,nan,nan
0,18,4811,6,1,226,158,0.801265930663,0.120208988367,0.60458276857,1,1.0,1.0,0.332785280421,0,nan,nan,nan,nan,nan,nan,nan,nan,nan,0.0,0.0,0.0,nan,nan,344.372445524,368.239262361,368.572047641,368.739300849,nan,nan
0,19,4816,6,1,488,343,0.647907709101,0.302951493728,-1.0,1,1.0,1.0,0.332621918991,1,nan,nan,nan,nan,nan,nan,nan,93.5923298462,507.0,0.805995650865,0.232688349973,-1.0,13.2826701538,1.9088747534,344.372445524,369.239402629,369.572024548,369.73944853,371.064602026,372.981508555
0,20,4817,6,1,270,189,0.331159066004,0.309369715406,0.641393874915,1,1.0,1.0,0.757574193645,0,nan,nan,nan,nan,nan,nan,nan,nan,nan,0.0,0.0,0.0,nan,nan,344.372445524,374.198353674,374.955927868,374.698439774,nan,nan
0,21,4818,6,1,396,278,-0.0330153705648,0.473684876347,-0.363523780775,1,1.0,1.0,0.397447747644,0,nan,nan,nan,nan,nan,nan,nan,nan,nan,0.0,0.0,0.0,nan,nan,344.372445524,375.198482253,375.595930001,375.698516465,nan,nan
0,22,4819,6,1,109,76,1.0,-0.294638327523,-0.357773695079,1,1.0,1.0,0.31725799758,0,nan,nan,nan,nan,nan,nan,nan,nan,nan,0.0,0.0,0.0,nan,nan,344.372445524,376.198659014,376.515917012,376.698655308,nan,nan
0,23,4820,6,1,324,227,-0.114799643766,0.441158325109,0.368064040095,1,1.0,1.0,0.221129283775,0,nan,nan,nan,nan,nan,nan,nan,nan,nan,0.0,0.0,0.0,nan,nan,344.372445524,377.198752526,377.41988181,377.698776474,nan,nan
0,24,4821,6,1,499,350,0.739831889234,0.263827757734,-1.0,1,1.0,1.0,0.236996117979,0,nan,nan,nan,nan,nan,nan,nan,nan,nan,0.0,0.0,0.0,nan,nan,344.372445524,378.198883386,378.435879504,378.698910755,nan,nan
0,25,4822,6,0,367,258,-0.15309091083,0.477560897992,-0.0350816338538,0,1.0,0.0,0.212836358696,0,0.0,0.0,nan,nan,nan,nan,nan,nan,nan,0.0,0.0,0.0,nan,nan,344.372445524,379.199032777,379.411869136,379.699060147,nan,nan
0,26,4823,6,1,448,315,0.32026743599,0.409662251776,-1.0,1,1.0,1.0,0.220723589882,0,nan,nan,nan,nan,nan,nan,nan,nan,nan,0.0,0.0,0.0,nan,nan,344.372445524,380.199116881,380.419840471,380.69915708,nan,nan
0,27,4824,6,1,248,174,0.568115903494,0.223728204869,0.653295769881,1,1.0,1.0,0.412569906097,0,nan,nan,nan,nan,nan,nan,nan,nan,nan,0.0,0.0,0.0,nan,nan,344.372445524,381.199250307,381.611820213,381.699285659,nan,nan
0,28,4825,6,0,364,255,-0.160194321586,0.476704516321,-0.00341124574885,0,0.0,1.0,0.460397061426,0,nan,nan,nan,nan,nan,nan,nan,nan,nan,0.0,0.0,0.0,nan,nan,344.372445524,382.199408821,382.659805883,382.699443318,nan,nan
0,29,4826,6,1,188,132,1.0,-0.0857393506835,0.392804289229,1,1.0,1.0,0.324282808229,0,nan,nan,nan,nan,nan,nan,nan,nan,nan,0.0,0.0,0.0,nan,nan,344.372445524,383.199499767,383.523782576,383.699538541,nan,nan
0,30,4827,6,1,305,214,0.00361192545304,0.406859252708,0.500196907155,1,1.0,1.0,0.516123137437,0,nan,nan,nan,nan,nan,nan,nan,nan,nan,0.0,0.0,0.0,nan,nan,344.372445524,384.199645452,384.71576859,384.699715871,nan,nan
0,31,4828,6,1,225,158,0.81146624694,0.115131125244,0.600981946568,1,1.0,1.0,0.412003702018,0,nan,nan,nan,nan,nan,nan,nan,nan,nan,0.0,0.0,0.0,nan,nan,344.372445524,385.199759206,385.611762908,385.699796839,nan,nan
0,32,4829,6,1,462,324,0.432089675478,0.378486360879,-1.0,1,1.0,1.0,0.331834763754,0,nan,nan,nan,nan,nan,nan,nan,nan,nan,0.0,0.0,0.0,nan,nan,344.372445524,386.199893203,386.531727966,386.699926844,nan,nan
0,33,4830,6,1,391,274,-0.0591907973189,0.475916278612,-0.303718712187,1,1.0,1.0,0.355663240422,0,nan,nan,nan,nan,nan,nan,nan,nan,nan,0.0,0.0,0.0,nan,nan,344.372445524,387.200059414,387.555722655,387.70007424,nan,nan
0,34,4831,6,1,450,316,0.335949728395,0.405598329481,-1.0,1,1.0,1.0,0.347561900504,0,nan,nan,nan,nan,nan,nan,nan,nan,nan,0.0,0.0,0.0,nan,nan,344.372445524,388.200161194,388.547723095,388.700202249,nan,nan
0,35,4832,6,0,218,153,0.881467392804,0.0788246127756,0.572559633417,0,0.0,1.0,0.339390996844,0,nan,nan,nan,nan,nan,nan,nan,nan,nan,0.0,0.0,0.0,nan,nan,344.372445524,389.200300607,389.539691604,389.700335959,nan,nan
0,36,4833,6,1,313,220,-0.0530221528698,0.42279583272,0.448797959603,1,1.0,1.0,0.323234788142,0,nan,nan,nan,nan,nan,nan,nan,nan,nan,0.0,0.0,0.0,nan,nan,344.372445524,390.200415787,390.523650575,390.700459122,nan,nan
0,37,4834,6,1,168,118,1.0,-0.190790017254,0.230361799274,1,1.0,1.0,0.379104553722,0,nan,nan,nan,nan,nan,nan,nan,nan,nan,0.0,0.0,0.0,nan,nan,344.372445524,391.200545506,391.57965006,391.700585135,nan,nan
0,38,4835,6,1,257,180,0.470472903111,0.261039853404,0.655841377839,1,1.0,1.0,0.346955497283,0,nan,nan,nan,nan,nan,nan,nan,nan,nan,0.0,0.0,0.0,nan,nan,344.372445524,392.200663252,392.547618749,392.700712003,nan,nan
0,39,4836,6,1,53,37,1.0,-0.049257555853,-1.0,1,1.0,1.0,0.346803825349,0,nan,nan,nan,nan,nan,nan,nan,nan,nan,0.0,0.0,0.0,nan,nan,344.372445524,393.200800098,393.547603924,393.700837446,nan,nan
0,40,4837,6,1,299,210,0.0516645560415,0.393417669654,0.534378752182,1,1.0,1.0,0.378647826612,0,nan,nan,nan,nan,nan,nan,nan,nan,nan,0.0,0.0,0.0,nan,nan,344.372445524,394.20093438,394.579582206,394.700941792,nan,nan
0,41,4838,6,1,60,42,1.0,-0.0867837676833,-1.0,1,1.0,1.0,0.306520643644,0,nan,nan,nan,nan,nan,nan,nan,nan,nan,0.0,0.0,0.0,nan,nan,344.372445524,395.201045283,395.507565926,395.701074078,nan,nan
0,42,4839,6,1,122,85,1.0,-0.311159539646,-0.219144224573,1,1.0,1.0,0.35437801946,0,nan,nan,nan,nan,nan,nan,nan,nan,nan,0.0,0.0,0.0,nan,nan,344.372445524,396.20118384,396.55556186,396.701235158,nan,nan
0,43,4840,6,1,60,42,1.0,-0.0867837676833,-1.0,1,1.0,1.0,0.314259623643,0,nan,nan,nan,nan,nan,nan,nan,nan,nan,0.0,0.0,0.0,nan,nan,344.372445524,397.201283624,397.515543248,397.701334372,nan,nan
0,44,4841,6,1,219,153,0.871627318206,0.0840881726889,0.576959667802,1,1.0,1.0,0.370133380406,0,nan,nan,nan,nan,nan,nan,nan,nan,nan,0.0,0.0,0.0,nan,nan,344.372445524,398.201425603,398.571558984,398.701450692,nan,nan
0,45,4842,6,1,152,106,1.0,-0.259184487343,0.0830625546756,1,1.0,1.0,0.297948321793,0,nan,nan,nan,nan,nan,nan,nan,nan,nan,0.0,0.0,0.0,nan,nan,344.372445524,399.20156131,399.499509632,399.701584403,nan,nan
0,46,4847,6,1,291,204,0.122027637739,0.373441943191,0.573791926984,1,1.0,1.0,0.233810435049,1,nan,nan,nan,nan,nan,nan,nan,-110.924501745,286.0,0.169078956243,0.359734776014,0.594698705761,-3.68487325508,1.7255212157,344.372445524,400.201672213,400.435482648,400.701710131,402.035209296,403.768774547
0,47,4848,6,1,54,37,1.0,-0.0546292063271,-1.0,1,1.0,1.0,0.594086273108,0,nan,nan,nan,nan,nan,nan,nan,nan,nan,0.0,0.0,0.0,nan,nan,344.372445524,404.977274282,405.571360555,405.47736751,nan,nan
0,48,4849,6,1,212,149,0.93926288676,0.0467731277665,0.543851001166,1,1.0,1.0,0.234020552132,0,nan,nan,nan,nan,nan,nan,nan,nan,nan,0.0,0.0,0.0,nan,nan,344.372445524,405.977425099,406.211445651,406.477448477,nan,nan
0,49,4850,6,0,19,13,0.99625917486,0.126374530333,-1.0,0,1.0,0.0,0.201821319293,0,0.0,0.0,nan,nan,nan,nan,nan,nan,nan,0.0,0.0,0.0,nan,nan,344.372445524,406.977571639,407.179392959,407.477599294,nan,nan
0,50,4851,6,1,157,110,1.0,-0.240048375319,0.130425901556,1,1.0,1.0,0.265705469064,0,nan,nan,nan,nan,nan,nan,nan,nan,nan,0.0,0.0,0.0,nan,nan,344.372445524,407.977653462,408.243358932,408.477701644,nan,nan
0,51,4852,6,1,20,14,1.0,0.121558187834,-1.0,1,1.0,1.0,0.345537420828,0,nan,nan,nan,nan,nan,nan,nan,nan,nan,0.0,0.0,0.0,nan,nan,344.372445524,408.977803424,409.323340845,409.477830508,nan,nan
0,52,4857,6,1,257,180,0.470472903111,0.261039853404,0.655841377839,1,1.0,1.0,0.473369582556,1,nan,nan,nan,nan,nan,nan,nan,-67.319440393,224.0,0.821619416966,0.11002478857,0.597264883709,-23.383684607,1.93381596589,344.372445524,409.977930008,410.45129959,410.477952815,411.811457112,413.753388673
0,53,4858,6,1,131,92,1.0,-0.308451667147,-0.125800503078,1,1.0,1.0,0.513304374646,0,nan,nan,nan,nan,nan,nan,nan,nan,nan,0.0,0.0,0.0,nan,nan,344.372445524,414.961905799,415.475210174,415.461967951,nan,nan
0,54,4859,6,1,260,182,0.438016636947,0.272781976488,0.654406567654,1,1.0,1.0,0.321208027657,0,nan,nan,nan,nan,nan,nan,nan,nan,nan,0.0,0.0,0.0,nan,nan,344.372445524,415.962034949,416.283242976,416.462073151,nan,nan
0,55,4900,6,1,336,236,-0.158211608236,0.456758111158,0.268135266647,1,1.0,1.0,0.281018642709,0,nan,nan,nan,nan,nan,nan,nan,nan,nan,0.0,0.0,0.0,nan,nan,344.372445524,416.962160392,417.243179034,417.462201446,nan,nan
0,56,4901,6,0,18,12,0.988682696815,0.131162580546,-1.0,0,1.0,0.0,0.22486691596,0,0.0,0.0,nan,nan,nan,nan,nan,nan,nan,0.0,0.0,0.0,nan,nan,344.372445524,417.96230009,418.187167006,418.462333731,nan,nan
0,57,4902,6,1,465,326,0.456588679398,0.37096152752,-1.0,1,1.0,1.0,0.304705710616,0,nan,nan,nan,nan,nan,nan,nan,nan,nan,0.0,0.0,0.0,nan,nan,344.372445524,418.962411563,419.267117274,419.462472003,nan,nan
0,58,4903,6,1,334,234,-0.152796554809,0.454467054946,0.285576400052,1,1.0,1.0,0.368583873846,0,nan,nan,nan,nan,nan,nan,nan,nan,nan,0.0,0.0,0.0,nan,nan,344.372445524,419.962544988,420.331128862,420.462557818,nan,nan
0,59,4904,6,1,289,203,0.140592130943,0.368073254824,0.582505265782,1,1.0,1.0,0.312453243881,0,nan,nan,nan,nan,nan,nan,nan,nan,nan,0.0,0.0,0.0,nan,nan,344.372445524,420.962672712,421.275125956,421.462685257,nan,nan
0,60,4905,6,1,467,328,0.473005185182,0.365775667588,-1.0,1,1.0,1.0,0.280309034511,0,nan,nan,nan,nan,nan,nan,nan,nan,nan,0.0,0.0,0.0,nan,nan,344.372445524,421.962799296,422.24310833,422.462838639,nan,nan
0,61,4906,6,1,191,134,1.0,-0.0691479807067,0.414571651978,1,1.0,1.0,0.384156486951,0,nan,nan,nan,nan,nan,nan,nan,nan,nan,0.0,0.0,0.0,nan,nan,344.372445524,422.962923028,423.347079515,423.462939279,nan,nan
0,62,4907,6,1,118,82,1.0,-0.308588151016,-0.261285249573,1,1.0,1.0,0.3440044499,0,nan,nan,nan,nan,nan,nan,nan,nan,nan,0.0,0.0,0.0,nan,nan,344.372445524,423.963049042,424.307053491,424.463068428,nan,nan
0,63,4908,6,1,455,319,0.375608248681,0.394875365091,-1.0,1,1.0,1.0,0.423884583171,0,nan,nan,nan,nan,nan,nan,nan,nan,nan,0.0,0.0,0.0,nan,nan,344.372445524,424.963179331,425.387063914,425.463215539,nan,nan
0,64,4909,6,1,71,49,1.0,-0.144504067012,-0.877980773838,1,1.0,1.0,0.31172995083,0,nan,nan,nan,nan,nan,nan,nan,nan,nan,0.0,0.0,0.0,nan,nan,344.372445524,425.963310761,426.275040712,426.463326157,nan,nan
0,65,4910,6,1,354,248,-0.174470673547,0.472100788149,0.0988677247603,1,1.0,1.0,0.223617047537,0,nan,nan,nan,nan,nan,nan,nan,nan,nan,0.0,0.0,0.0,nan,nan,344.372445524,426.963432783,427.187049831,427.463459297,nan,nan
0,66,4911,6,0,5,3,0.88714030954,0.190659852496,-1.0,0,1.0,0.0,0.263429817744,0,0.0,0.0,nan,nan,nan,nan,nan,nan,nan,0.0,0.0,0.0,nan,nan,344.372445524,427.963572481,428.227002299,428.463608974,nan,nan
0,67,4912,6,1,97,68,1.0,-0.260369742894,-0.491718830742,1,1.0,1.0,0.455310631078,0,nan,nan,nan,nan,nan,nan,nan,nan,nan,0.0,0.0,0.0,nan,nan,344.372445524,428.963666278,429.418976909,429.463706477,nan,nan
0,68,4913,6,1,463,325,0.440238315199,0.376011795327,-1.0,1,1.0,1.0,0.407137366943,0,nan,nan,nan,nan,nan,nan,nan,nan,nan,0.0,0.0,0.0,nan,nan,344.372445524,429.963807402,430.370944769,430.463832776,nan,nan
0,69,4914,6,0,240,168,0.654373017221,0.188015059697,0.642463954019,0,0.0,1.0,0.622883148491,0,nan,nan,nan,nan,nan,nan,nan,nan,nan,0.0,0.0,0.0,nan,nan,344.372445524,430.964043178,431.586926326,431.463999558,nan,nan
0,70,4915,6,1,50,35,1.0,-0.033148730948,-1.0,1,1.0,1.0,0.446855199989,0,nan,nan,nan,nan,nan,nan,nan,nan,nan,0.0,0.0,0.0,nan,nan,344.372445524,431.964070262,432.410925462,432.464083091,nan,nan
0,71,4916,6,1,222,156,0.841778467246,0.0997291618919,0.589484691865,1,1.0,1.0,0.390728561673,0,nan,nan,nan,nan,nan,nan,nan,nan,nan,0.0,0.0,0.0,nan,nan,344.372445524,432.964174893,433.354903454,433.464212241,nan,nan
0,72,4917,6,1,399,280,-0.0164460389312,0.472031251936,-0.400274523968,1,1.0,1.0,0.374567221384,0,nan,nan,nan,nan,nan,nan,nan,nan,nan,0.0,0.0,0.0,nan,nan,344.372445524,433.964302902,434.338870123,434.464337969,nan,nan
0,73,4918,6,1,442,310,0.273907262724,0.421095538958,-1.0,1,1.0,1.0,0.326410492882,0,nan,nan,nan,nan,nan,nan,nan,nan,nan,0.0,0.0,0.0,nan,nan,344.372445524,434.964433191,435.290843684,435.464473675,nan,nan
0,74,4919,6,1,203,142,1.0,-0.00249325098487,0.493674673203,1,1.0,1.0,0.350269474555,0,nan,nan,nan,nan,nan,nan,nan,nan,nan,0.0,0.0,0.0,nan,nan,344.372445524,435.964577166,436.31484664,436.464627628,nan,nan
0,75,4920,6,1,56,39,1.0,-0.0653675053377,-1.0,1,1.0,1.0,0.302060287911,0,nan,nan,nan,nan,nan,nan,nan,nan,nan,0.0,0.0,0.0,nan,nan,344.372445524,436.964773598,437.266833886,437.464725417,nan,nan
0,76,4921,6,1,432,303,0.199227897075,0.437687328843,-1.0,1,1.0,1.0,0.349996065721,0,nan,nan,nan,nan,nan,nan,nan,nan,nan,0.0,0.0,0.0,nan,nan,344.372445524,437.964817218,438.314813284,438.464852856,nan,nan
0,77,4922,6,1,249,175,0.557275547736,0.228026269286,0.654084877906,1,1.0,1.0,0.373833094724,0,nan,nan,nan,nan,nan,nan,nan,nan,nan,0.0,0.0,0.0,nan,nan,344.372445524,438.964959767,439.338792862,439.464975447,nan,nan
0,78,4923,6,1,143,100,1.0,-0.287057525782,-0.00469998909502,1,1.0,1.0,0.453697547782,0,nan,nan,nan,nan,nan,nan,nan,nan,nan,0.0,0.0,0.0,nan,nan,344.372445524,439.965068104,440.418765652,440.465104882,nan,nan
0,79,4924,6,1,232,163,0.739158239773,0.150046616059,0.623712016981,1,1.0,1.0,0.397555514239,0,nan,nan,nan,nan,nan,nan,nan,nan,nan,0.0,0.0,0.0,nan,nan,344.372445524,440.965208943,441.362764457,441.465232891,nan,nan
0,80,4925,6,1,418,293,0.101175887384,0.455961754156,-0.661679309199,1,1.0,1.0,0.421389977448,0,0.0,0.0,0.42421434649,0.37062333505,0.108650873276,0.479274208326,0.261972461774,nan,nan,0.0,0.0,0.0,nan,nan,344.372445524,441.965334956,442.386724933,442.465356338,nan,nan
0,81,4926,6,1,119,83,1.0,-0.309446327048,-0.250710895617,1,1.0,1.0,0.469223690219,0,0.0,0.0,0.429389727302,0.371250083722,0.10812352419,0.479373607912,0.263126559532,nan,nan,0.0,0.0,0.0,nan,nan,344.372445524,442.965486343,443.434710033,443.465485202,nan,nan
0,82,4927,6,1,21,14,1.0,0.116713997928,-1.0,1,1.0,1.0,0.421104594134,0,0.0,0.0,0.4372394206,0.372444883801,0.107998881196,0.480443764997,0.264446002605,nan,nan,0.0,0.0,0.0,nan,nan,344.372445524,443.965600382,444.386704976,444.465619768,nan,nan
0,83,4928,6,1,261,183,0.427225806086,0.276617811781,0.653674462902,1,1.0,1.0,0.468969952781,0,0.0,0.0,0.453099412378,0.373031145371,0.107477508094,0.480508653466,0.265553637277,nan,nan,0.0,0.0,0.0,nan,nan,344.372445524,444.965718983,445.434688936,445.465756045,nan,nan
0,84,4929,6,1,319,224,-0.0891891826932,0.433308674125,0.406137099325,1,1.0,1.0,0.468826263677,0,0.0,0.0,0.452966936864,0.374173274031,0.107341361588,0.481514635619,0.266831912443,nan,nan,0.0,0.0,0.0,nan,nan,344.372445524,445.965849557,446.434675821,446.465874646,nan,nan
0,85,4930,6,1,42,29,1.0,0.00954878589686,-1.0,1,1.0,1.0,0.468654064927,0,0.0,0.0,0.468816760462,0.375286838615,0.107195033383,0.482481871998,0.268091805232,nan,nan,0.0,0.0,0.0,nan,nan,344.372445524,446.965984979,447.434639044,447.466004936,nan,nan
0,86,4931,6,1,161,113,1.0,-0.223158351501,0.167490545043,1,1.0,1.0,0.388520194218,0,0.0,0.0,0.442000174274,0.376372504037,0.107039004185,0.483411508222,0.269333499852,nan,nan,0.0,0.0,0.0,nan,nan,344.372445524,447.966107001,448.354627195,448.466126957,nan,nan
0,87,4932,6,1,44,30,1.0,-0.00106984144607,-1.0,1,1.0,1.0,0.396369222086,0,0.0,0.0,0.417847827077,0.37651213266,0.1064299367,0.48294206936,0.27008219596,nan,nan,0.0,0.0,0.0,nan,nan,344.372445524,448.966237005,449.362606227,449.466257247,nan,nan
0,88,4933,6,0,399,280,-0.0164460389312,0.472031251936,-0.400274523968,0,0.0,1.0,0.508216519374,0,0.0,0.0,0.431035311893,0.376737781403,0.10584442149,0.482582202894,0.270893359913,nan,nan,0.0,0.0,0.0,nan,nan,344.372445524,449.966380124,450.474596644,450.466428876,nan,nan
0,89,4934,6,1,84,59,1.0,-0.20765784414,-0.652191087791,1,1.0,1.0,0.388110508211,0,0.0,0.0,0.43089874989,0.378215070594,0.1061565562,0.484371626794,0.272058514394,nan,nan,0.0,0.0,0.0,nan,nan,344.372445524,450.966487892,451.3545984,451.466507278,nan,nan
0,90,4935,6,1,246,172,0.589768841079,0.215019897151,0.651339528662,1,1.0,1.0,0.379964693449,0,0.0,0.0,0.425430573678,0.378325019901,0.105570245989,0.48389526589,0.272754773912,nan,nan,0.0,0.0,0.0,nan,nan,344.372445524,451.966612194,452.346576888,452.466631866,nan,nan
0,91,4936,6,0,142,99,1.0,-0.289568116499,-0.0146273521697,0,0.0,1.0,0.41177277267,0,0.0,0.0,0.39328265811,0.378343038292,0.104988726471,0.483331764763,0.27335431182,nan,nan,0.0,0.0,0.0,nan,nan,344.372445524,452.966768998,453.37854177,453.466794657,nan,nan
0,92,4937,6,1,89,62,1.0,-0.229484098413,-0.587370487375,1,1.0,1.0,0.347669097129,0,0.0,0.0,0.379802187749,0.37870640497,0.104474095724,0.483180500694,0.274232309246,nan,nan,0.0,0.0,0.0,nan,nan,344.372445524,453.966870493,454.31453959,454.466895581,nan,nan
0,93,4938,6,1,27,18,1.0,0.0870912575778,-1.0,1,1.0,1.0,0.443511002231,0,0.0,0.0,0.400984290677,0.378372670477,0.103960183165,0.482332853641,0.274412487312,nan,nan,0.0,0.0,0.0,nan,nan,344.372445524,454.967001923,455.410512925,455.467039271,nan,nan
0,94,4939,6,1,112,78,1.0,-0.300501516081,-0.325324861792,1,1.0,1.0,0.379352588672,0,0.0,0.0,0.390177562678,0.379065631453,0.103621436341,0.482687067794,0.275444195112,nan,nan,0.0,0.0,0.0,nan,nan,344.372445524,455.967142476,456.346495064,456.467155876,nan,nan
0,95,4940,6,1,8,5,0.91102658764,0.177400941622,-1.0,1,1.0,1.0,0.283223019447,0,0.0,0.0,0.368695536784,0.379068652055,0.103074621717,0.482143273772,0.275994030338,nan,nan,0.0,0.0,0.0,nan,nan,344.372445524,456.967264213,457.250487232,457.467275617,nan,nan
0,96,4941,6,1,176,123,1.0,-0.150429669724,0.298675466069,1,1.0,1.0,0.363092604559,0,0.0,0.0,0.341889404226,0.378070260049,0.102997095922,0.481067355971,0.275073164126,nan,nan,0.0,0.0,0.0,nan,nan,344.372445524,457.967363141,458.330455746,458.4674022,nan,nan
0,97,4942,6,1,511,359,0.838703193994,0.216284169582,-1.0,1,1.0,1.0,0.314904515166,0,0.0,0.0,0.320406713057,0.377915851229,0.102475975925,0.480391827154,0.275439875304,nan,nan,0.0,0.0,0.0,nan,nan,344.372445524,458.967526217,459.282430733,459.467531065,nan,nan
0,98,4943,6,1,63,44,1.0,-0.102744642793,-1.0,1,1.0,1.0,0.282769428566,0,0.0,0.0,0.320255516097,0.377272878412,0.102148276637,0.479421155049,0.275124601775,nan,nan,0.0,0.0,0.0,nan,nan,344.372445524,459.967636836,460.250406264,460.467659358,nan,nan
0,99,4944,6,1,222,156,0.841778467246,0.0997291618919,0.589484691865,1,1.0,1.0,0.266631466802,0,0.0,0.0,0.288101803511,0.376318298111,0.102069455064,0.478387753175,0.274248843047,nan,nan,0.0,0.0,0.0,nan,nan,344.372445524,460.967760568,461.234392035,461.467792214,nan,nan
0,100,4945,6,1,51,35,1.0,-0.0385160204876,-1.0,1,1.0,1.0,0.242469996214,0,1.0,0.0,0.263956963861,0.375221429798,0.102142551417,0.477363981215,0.27307887838,nan,nan,0.0,0.0,0.0,nan,nan,344.372445524,461.967885156,462.210355152,462.467910815,nan,nan
0,101,4949,6,1,425,298,0.149162615564,0.447529597292,-0.791715667876,1,1.0,1.0,0.354361483827,1,0.0,0.0,0.287820982281,0.373907059168,0.102481997431,0.476389056599,0.271425061737,175.827015524,390.0,-0.0641960347588,0.476284203309,-0.291947553613,-24.6551405239,1.16701942775,344.372445524,462.968018011,463.322379495,463.46805764,464.793209711,465.968353001
0,102,4950,6,1,297,208,0.0686262056446,0.388646276542,0.544904663634,1,1.0,1.0,0.433384327684,0,0.0,0.0,0.343405269242,0.373715435881,0.101996579319,0.4757120152,0.271718856562,nan,nan,0.0,0.0,0.0,nan,nan,344.372445524,467.176920305,467.610304633,467.676921445,nan,nan
0,103,4951,6,1,86,60,1.0,-0.21659106269,-0.625617802914,1,1.0,1.0,0.248573940713,0,0.0,0.0,0.345439917408,0.37429474551,0.101668728835,0.475963474344,0.272626016675,nan,nan,0.0,0.0,0.0,nan,nan,344.372445524,468.193721405,468.442295345,468.693727392,nan,nan
0,104,4952,6,1,426,299,0.156193047225,0.446210853967,-0.81485970128,1,1.0,1.0,0.280466693919,0,0.0,0.0,0.320808320772,0.373085891617,0.101919858044,0.475005749661,0.271166033574,nan,nan,0.0,0.0,0.0,nan,nan,344.372445524,469.193806079,469.474272773,469.693838295,nan,nan
0,105,4953,6,0,56,39,1.0,-0.0653675053377,-1.0,0,1.0,0.0,0.280301907565,0,0.0,0.0,0.269780847399,0.37220380402,0.101831466451,0.474035270472,0.270372337569,nan,nan,0.0,0.0,0.0,nan,nan,344.372445524,470.193957751,470.474259658,470.693989967,nan,nan
0,106,4954,6,1,340,239,-0.166837174664,0.460980112934,0.232376404312,1,1.0,1.0,0.304149199743,0,0.0,0.0,0.288305933742,0.371336804997,0.101738625227,0.473075430224,0.269598179771,nan,nan,0.0,0.0,0.0,nan,nan,344.372445524,471.194069794,471.498218994,471.694112844,nan,nan
0,107,4955,6,1,258,181,0.459642287315,0.26499291187,0.655490062901,1,1.0,1.0,0.456012256909,0,0.0,0.0,0.346821121406,0.370708883453,0.101468251986,0.472177135439,0.269240631467,nan,nan,0.0,0.0,0.0,nan,nan,344.372445524,472.194196948,472.650209205,472.694218616,nan,nan
0,108,4956,6,1,481,338,0.589289488337,0.325611856148,-1.0,1,1.0,1.0,0.375860140193,0,0.0,0.0,0.378673865615,0.371498729503,0.1013273275,0.472826057004,0.270171402003,nan,nan,0.0,0.0,0.0,nan,nan,344.372445524,473.194328663,473.570188803,473.694364585,nan,nan
0,109,4957,6,1,32,22,1.0,0.061735800531,-1.0,1,1.0,1.0,0.359691102523,0,0.0,0.0,0.397187833209,0.371538742445,0.100862309434,0.472401051879,0.270676433011,nan,nan,0.0,0.0,0.0,nan,nan,344.372445524,474.194476629,474.554167731,474.694467791,nan,nan
0,110,4958,6,1,210,147,0.958022500947,0.0359304984579,0.533421856807,1,1.0,1.0,0.423629135359,0,0.0,0.0,0.386393459359,0.371431036628,0.100409094396,0.471840131024,0.271021942231,nan,nan,0.0,0.0,0.0,nan,nan,344.372445524,475.194562444,475.618191579,475.694599221,nan,nan
0,111,4959,6,1,24,16,1.0,0.102019060141,-1.0,1,1.0,1.0,0.431436254643,0,0.0,0.0,0.404918830842,0.37190128977,0.100077383632,0.471978673401,0.271823906138,nan,nan,0.0,0.0,0.0,nan,nan,344.372445524,476.194701856,476.626138111,476.694726659,nan,nan
0,112,5000,6,0,179,125,1.0,-0.13461441766,0.323204131591,0,0.0,1.0,0.487304023467,0,0.0,0.0,0.447456471156,0.372432851956,0.099786886611,0.472219738567,0.272645965345,nan,nan,0.0,0.0,0.0,nan,nan,344.372445524,477.194822168,477.682126191,477.69488774,nan,nan
0,113,5001,6,1,394,277,-0.0437090198531,0.474655926729,-0.339401417396,1,1.0,1.0,0.271136582363,0,0.0,0.0,0.396625620158,0.373449410996,0.0999251914672,0.473374602463,0.273524219529,nan,nan,0.0,0.0,0.0,nan,nan,344.372445524,478.194961295,478.466097877,478.694986384,nan,nan
0,114,5002,6,1,114,80,1.0,-0.303747463913,-0.303859371662,1,1.0,1.0,0.407018195838,0,0.0,0.0,0.388486267223,0.372551930043,0.0999423540264,0.472494284069,0.272609576017,nan,nan,0.0,0.0,0.0,nan,nan,344.372445524,479.195071058,479.602089254,479.695109261,nan,nan
0,115,5003,6,1,429,301,0.177531820842,0.442080780324,-0.901885199234,1,1.0,1.0,0.310848713387,0,0.0,0.0,0.329667830529,0.372851636702,0.0995583134492,0.472409950151,0.273293323253,nan,nan,0.0,0.0,0.0,nan,nan,344.372445524,480.195213037,480.50606175,480.695256372,nan,nan
0,116,5004,6,1,45,31,1.0,-0.0063957592436,-1.0,1,1.0,1.0,0.309339975938,0,0.0,0.0,0.342402295054,0.372317128742,0.0992938370914,0.471610965834,0.273023291651,nan,nan,0.0,0.0,0.0,nan,nan,344.372445524,481.228698346,481.538038322,481.728702622,nan,nan
0,117,5005,6,1,291,204,0.122027637739,0.373441943191,0.573791926984,1,1.0,1.0,0.309244752862,0,0.0,0.0,0.309811147396,0.371778862479,0.0990384147641,0.470817277243,0.272740447715,nan,nan,0.0,0.0,0.0,nan,nan,344.372445524,482.228787867,482.53803262,482.728852869,nan,nan
0,118,5006,6,1,95,66,1.0,-0.253175017597,-0.514975443931,1,1.0,1.0,0.365089429542,0,0.0,0.0,0.327891386114,0.371248912398,0.0987843252503,0.470033237648,0.272464587147,nan,nan,0.0,0.0,0.0,nan,nan,344.372445524,483.228936403,483.594025832,483.728976602,nan,nan
0,119,5007,6,1,411,288,0.0555201669072,0.463022710015,-0.557054760163,1,1.0,1.0,0.500913738273,0,0.0,0.0,0.391749306892,0.371197152038,0.0983699962968,0.469567148334,0.272827155741,nan,nan,0.0,0.0,0.0,nan,nan,344.372445524,484.229070684,484.729984422,484.729129414,nan,nan
0,120,5008,6,1,241,169,0.64365311028,0.192605941253,0.644254782112,1,1.0,1.0,0.388800730463,0,0.0,0.0,0.418267966093,0.37227812359,0.098666452303,0.470944575893,0.273611671287,nan,nan,0.0,0.0,0.0,nan,nan,344.372445524,485.229181587,485.617982317,485.729226347,nan,nan
0,121,5009,6,1,64,45,1.0,-0.108036866323,-1.0,1,1.0,1.0,0.420655565336,0,0.0,0.0,0.436790011358,0.37241467406,0.0982692791244,0.470683953184,0.274145394935,nan,nan,0.0,0.0,0.0,nan,nan,344.372445524,486.229303894,486.649959459,486.729329553,nan,nan
0,122,5010,6,1,156,109,1.0,-0.244060613314,0.121041471254,1,1.0,1.0,0.476475723553,0,0.0,0.0,0.428644006451,0.372810091201,0.0979623173575,0.470772408559,0.274847773844,nan,nan,0.0,0.0,0.0,nan,nan,344.372445524,487.229459557,487.705935281,487.729470961,nan,nan
0,123,5011,6,1,308,216,-0.0186828559465,0.413097475488,0.481682330771,1,1.0,1.0,0.484328172635,0,0.0,0.0,0.460486487175,0.37365290122,0.0980064001058,0.471659301326,0.275646501115,nan,nan,0.0,0.0,0.0,nan,nan,344.372445524,488.229593268,488.713921441,488.729606953,nan,nan
0,124,5012,6,1,264,185,0.394966959701,0.287889713878,0.650717615019,1,1.0,1.0,0.388184349053,0,0.0,0.0,0.449662748414,0.374545443732,0.0981110517971,0.472656495529,0.276434391935,nan,nan,0.0,0.0,0.0,nan,nan,344.372445524,489.229725268,489.617909617,489.729724413,nan,nan
0,125,5013,6,1,346,243,-0.174317561957,0.466431294057,0.176670174816,1,1.0,1.0,0.412036487833,0,0.0,0.0,0.428183003174,0.374654554974,0.0977253729054,0.47237992788,0.276929182069,nan,nan,0.0,0.0,0.0,nan,nan,344.372445524,490.229838452,490.64187494,490.729843584,nan,nan
0,126,5014,6,1,483,339,0.606025706087,0.319314454546,-1.0,1,1.0,1.0,0.50023891218,0,0.0,0.0,0.433486583022,0.374951236981,0.0973933027115,0.472344539693,0.27755793427,nan,nan,0.0,0.0,0.0,nan,nan,344.372445524,491.229938522,491.730177434,491.730022055,nan,nan
0,127,5015,6,0,32,22,1.0,0.061735800531,-1.0,0,0.0,1.0,0.547735068947,0,0.0,0.0,0.48667015632,0.375937754109,0.0976390905793,0.473576844688,0.278298663529,nan,nan,0.0,0.0,0.0,nan,nan,344.372445524,492.230101597,492.777836666,492.730146358,nan,nan
0,128,5016,6,1,422,296,0.128328379107,0.451313674078,-0.730894888444,1,1.0,1.0,0.411616253667,0,0.0,0.0,0.486530078265,0.377279920631,0.098426071636,0.475705992267,0.278853848995,nan,nan,0.0,0.0,0.0,nan,nan,344.372445524,493.230216492,493.641832746,493.730235308,nan,nan
0,129,5017,6,1,37,26,1.0,0.0358565504353,-1.0,1,1.0,1.0,0.323474270757,0,0.0,0.0,0.427608531124,0.377546093755,0.0980900696007,0.475636163356,0.279456024154,nan,nan,0.0,0.0,0.0,nan,nan,344.372445524,494.230335378,494.553809648,494.730360181,nan,nan
0,130,5018,6,1,508,357,0.814199817736,0.228638933499,-1.0,1,1.0,1.0,0.275332652032,0,0.0,0.0,0.336807725485,0.377130156655,0.0978262053088,0.474956361964,0.279303951346,nan,nan,0.0,0.0,0.0,nan,nan,344.372445524,495.230468519,495.505801171,495.7305033,nan,nan
0,131,5019,6,0,296,208,0.0772713571413,0.386205321608,0.550001308524,0,0.0,1.0,0.403159682173,0,0.0,0.0,0.333988868321,0.376353076467,0.097854045581,0.474207122048,0.278499030886,nan,nan,0.0,0.0,0.0,nan,nan,344.372445524,496.230611638,496.63377132,496.730642998,nan,nan
0,132,5020,6,1,426,299,0.156193047225,0.446210853967,-0.81485970128,1,1.0,1.0,0.251034334768,0,0.0,0.0,0.309842222991,0.376556156813,0.0975103885376,0.474066545351,0.279045768276,nan,nan,0.0,0.0,0.0,nan,nan,344.372445524,497.230729098,497.481763433,497.730759318,nan,nan
0,133,5021,6,1,480,337,0.580928072941,0.32870764083,-1.0,1,1.0,1.0,0.328862619586,0,0.0,0.0,0.327685545509,0.375612383715,0.0977463988489,0.473358782564,0.277865984866,nan,nan,0.0,0.0,0.0,nan,nan,344.372445524,498.280875524,498.609738144,498.780872388,nan,nan
0,134,5022,6,1,414,291,0.0747837862165,0.460162189034,-0.600089175003,1,1.0,1.0,0.264764931053,0,0.0,0.0,0.281553961802,0.375263504879,0.0974640733403,0.472727578219,0.277799431538,nan,nan,0.0,0.0,0.0,nan,nan,344.372445524,499.28096647,499.545731402,499.781007525,nan,nan
0,135,5023,6,1,364,255,-0.160194321586,0.476704516321,-0.00341124574885,1,1.0,1.0,0.272591151297,0,0.0,0.0,0.288739567312,0.374444996924,0.097563593703,0.472008590627,0.276881403221,nan,nan,0.0,0.0,0.0,nan,nan,344.372445524,500.281113581,500.553704732,500.781133823,nan,nan
0,136,5024,6,1,470,330,0.497741612616,0.357740777197,-1.0,1,1.0,1.0,0.280448162463,0,1.0,0.0,0.272601414938,0.373696071589,0.0975929543751,0.471289025964,0.276103117214,nan,nan,0.0,0.0,0.0,nan,nan,344.372445524,501.281251853,501.561700016,501.781284354,nan,nan
0,137,5028,6,0,256,180,0.481312611765,0.257047908656,0.656065722404,0,0.0,1.0,0.45628081914,1,0.0,0.0,0.3364400443,0.373015429916,0.0975595655324,0.470574995449,0.275455864384,-76.5347919052,237.0,0.686387300223,0.174031846447,0.636349816437,-13.4652080948,1.31721950928,344.372445524,502.281386419,502.737667238,502.781411508,504.114889576,505.440056472
0,138,5029,6,1,420,295,0.1146601879,0.45369410126,-0.695047497311,1,1.0,1.0,0.520684132352,0,0.0,0.0,0.419137704652,0.373618802302,0.0974616578005,0.471080460103,0.276157144502,nan,nan,0.0,0.0,0.0,nan,nan,344.372445524,506.656918127,507.177602259,507.156991682,nan,nan
0,139,5030,6,1,9,6,0.918933560847,0.172916688009,-1.0,1,1.0,1.0,0.256547271274,0,0.0,0.0,0.411170740922,0.374676826259,0.0979025916922,0.472579417951,0.276774234567,nan,nan,0.0,0.0,0.0,nan,nan,344.372445524,507.657031026,507.913578297,508.157066378,nan,nan
0,140,5031,6,1,148,104,1.0,-0.272695592461,0.0444264621409,1,1.0,1.0,0.296359756961,0,0.0,0.0,0.357863720196,0.373833043724,0.0980582349952,0.471891278719,0.275774808728,nan,nan,0.0,0.0,0.0,nan,nan,344.372445524,508.657159035,508.953518792,509.157194387,nan,nan
0,141,5032,6,1,6,4,0.895129075663,0.186272780825,-1.0,1,1.0,1.0,0.256243357435,0,1.0,0.0,0.269716795223,0.373283587789,0.0979259376045,0.471209525394,0.275357650185,nan,nan,0.0,0.0,0.0,nan,nan,344.372445524,509.657285048,509.913528405,510.157335795,nan,nan
0,142,5038,6,1,387,272,-0.0787219327085,0.477231755363,-0.256974454483,1,1.0,1.0,0.280098632444,1,0.0,0.0,0.277567248947,0.372459360815,0.0980701076072,0.470529468422,0.274389253208,92.489552922,508.0,0.814199817736,0.228638933499,-1.0,85.401072078,2.41726119071,344.372445524,510.657425886,510.937524518,511.157453826,512.474291874,514.899601091
0,143,5039,6,1,95,66,1.0,-0.253175017597,-0.514975443931,1,1.0,1.0,0.533290302381,0,0.0,0.0,0.35654409742,0.371813481595,0.098029208689,0.469842690284,0.273784272906,nan,nan,0.0,0.0,0.0,nan,nan,344.372445524,516.108122494,516.641412796,516.60819719,nan,nan
0,144,5040,6,0,367,258,-0.15309091083,0.477560897992,-0.0350816338538,0,1.0,0.0,0.261150176171,0,0.0,0.0,0.358179703665,0.372934848406,0.0986043043361,0.471539152743,0.27433054407,nan,nan,0.0,0.0,0.0,nan,nan,344.372445524,517.10827217,517.369422346,517.608307523,nan,nan
0,145,5041,6,1,117,82,1.0,-0.307587969795,-0.271886539361,1,1.0,1.0,0.293019550852,0,0.0,0.0,0.362486676468,0.372163919632,0.0986982201902,0.470862139823,0.273465699442,nan,nan,0.0,0.0,0.0,nan,nan,344.372445524,518.108377371,518.401396922,518.608405311,nan,nan
0,146,5042,6,1,330,232,-0.139766326074,0.449518327743,0.319540245599,1,1.0,1.0,0.356925938278,0,0.0,0.0,0.303698555101,0.371621834915,0.0985759923508,0.470197827266,0.273045842564,nan,nan,0.0,0.0,0.0,nan,nan,344.372445524,519.108488275,519.465414213,519.608574944,nan,nan
0,147,5043,6,0,10,7,0.926811495151,0.168400576072,-1.0,0,0.0,1.0,0.468699680641,0,0.0,0.0,0.372881723257,0.371521862829,0.0982475540302,0.469769416859,0.273274308799,nan,nan,0.0,0.0,0.0,nan,nan,344.372445524,520.108657052,520.577356733,520.608685562,nan,nan
0,148,5044,6,1,280,196,0.228089347314,0.342018854333,0.61587222022,1,1.0,1.0,0.292577364016,0,0.0,0.0,0.372734327645,0.372178469706,0.0982381708707,0.470416640577,0.273940298835,nan,nan,0.0,0.0,0.0,nan,nan,344.372445524,521.108746003,521.401323367,521.608794184,nan,nan
0,149,5045,6,1,332,233,-0.146647089803,0.45205423783,0.302714191958,1,1.0,1.0,0.476443222258,0,0.0,0.0,0.412573422305,0.371644234097,0.0981234350109,0.469767669108,0.273520799086,nan,nan,0.0,0.0,0.0,nan,nan,344.372445524,522.108885986,522.585329208,522.608902807,nan,nan
0,150,5046,6,1,136,95,1.0,-0.301914900238,-0.074841205769,1,1.0,1.0,0.395924469456,0,0.0,0.0,0.388315018577,0.372342894018,0.0981669555848,0.470509849603,0.274175938433,nan,nan,0.0,0.0,0.0,nan,nan,344.372445524,523.117349685,523.513274155,523.617376484,nan,nan
0,151,5047,6,1,424,298,0.142174562463,0.448819569244,-0.770229420881,1,1.0,1.0,0.347801952623,0,0.0,0.0,0.406723214779,0.372499063392,0.0978600529104,0.470359116302,0.274639010482,nan,nan,0.0,0.0,0.0,nan,nan,344.372445524,524.117490239,524.465292191,524.617518463,nan,nan
0,152,5048,6,1,55,38,1.0,-0.0599996532909,-1.0,1,1.0,1.0,0.331673969049,0,0.0,0.0,0.358466797043,0.3723365824,0.0975580467482,0.469894629148,0.274778535652,nan,nan,0.0,0.0,0.0,nan,nan,344.372445524,525.11761283,525.449286799,525.617653884,nan,nan
0,153,5049,6,1,141,99,1.0,-0.291952736687,-0.024586852943,1,1.0,1.0,0.371484458912,0,0.0,0.0,0.350320126861,0.372070813685,0.0972938967597,0.469364710445,0.274776916926,nan,nan,0.0,0.0,0.0,nan,nan,344.372445524,526.117738843,526.489223302,526.617759086,nan,nan
0,154,5050,6,0,49,34,1.0,-0.027785429985,-1.0,0,0.0,1.0,0.443358189892,0,0.0,0.0,0.382172205951,0.372067006187,0.0969775044414,0.469044510628,0.275089501746,nan,nan,0.0,0.0,0.0,nan,nan,344.372445524,527.117880252,527.561238442,527.617913038,nan,nan
0,155,5051,6,1,154,108,1.0,-0.251813147593,0.102138173725,1,1.0,1.0,0.363263662905,0,0.0,0.0,0.392702103903,0.372526949308,0.0968325339758,0.469359483283,0.275694415332,nan,nan,0.0,0.0,0.0,nan,nan,344.372445524,528.117966922,528.481230585,528.618012252,nan,nan
0,156,5052,6,1,239,168,0.665069831863,0.183388857662,0.640549267122,1,1.0,1.0,0.315053050872,0,0.0,0.0,0.373891634556,0.372467569267,0.0965245053922,0.468992074659,0.275943063874,nan,nan,0.0,0.0,0.0,nan,nan,344.372445524,529.118132279,529.43318533,529.618140261,nan,nan
0,157,5053,6,1,152,106,1.0,-0.259184487343,0.0830625546756,1,1.0,1.0,0.322938286699,0,0.0,0.0,0.333751666825,0.372101871697,0.0963249652674,0.468426836965,0.27577690643,nan,nan,0.0,0.0,0.0,nan,nan,344.372445524,530.118235199,530.441173485,530.61826827,nan,nan
0,158,5054,6,1,428,300,0.170378320166,0.443486568519,-0.86866140055,1,1.0,1.0,0.338808256667,0,0.0,0.0,0.325599864746,0.371790709767,0.0960987787187,0.467889488486,0.275691931048,nan,nan,0.0,0.0,0.0,nan,nan,344.372445524,531.118355225,531.457163482,531.618411389,nan,nan
0,159,5055,6,1,488,343,0.647907709101,0.302951493728,-1.0,1,1.0,1.0,0.370638573542,0,0.0,0.0,0.344128372303,0.371583272955,0.0958315835758,0.467414856531,0.275751689379,nan,nan,0.0,0.0,0.0,nan,nan,344.372445524,532.118494638,532.489133211,532.618520582,nan,nan
0,160,5056,6,1,252,177,0.524721685615,0.240693665738,0.655694012224,1,1.0,1.0,0.354504602496,0,0.0,0.0,0.354650477568,0.371577368584,0.0955316694927,0.467109038076,0.276045699091,nan,nan,0.0,0.0,0.0,nan,nan,344.372445524,533.118605256,533.473109859,533.618648876,nan,nan
0,161,5057,6,1,24,16,1.0,0.102019060141,-1.0,1,1.0,1.0,0.362364179455,0,0.0,0.0,0.362502451831,0.371471326558,0.0952439707774,0.466715297336,0.276227355781,nan,nan,0.0,0.0,0.0,nan,nan,344.372445524,534.118736401,534.48110058,534.618787718,nan,nan
0,162,5058,6,1,461,324,0.423959648591,0.380927367285,-1.0,1,1.0,1.0,0.394206470344,0,0.0,0.0,0.370358417432,0.371415109601,0.0949522322154,0.466367341816,0.276462877385,nan,nan,0.0,0.0,0.0,nan,nan,344.372445524,535.118873533,535.513080003,535.618941956,nan,nan
0,163,5059,6,1,304,213,0.0113092810281,0.404708921832,0.506160370659,1,1.0,1.0,0.362055418547,0,0.0,0.0,0.372875356115,0.3715549339,0.0946772475623,0.466232181462,0.276877686337,nan,nan,0.0,0.0,0.0,nan,nan,344.372445524,536.119021499,536.481076917,536.619030337,nan,nan
0,164,5100,6,1,7,4,0.9030914636,0.181853060355,-1.0,1,1.0,1.0,0.321929040365,0,0.0,0.0,0.359396976419,0.371497010026,0.0943910530562,0.465888063082,0.277105956969,nan,nan,0.0,0.0,0.0,nan,nan,344.372445524,537.119135823,537.441064863,537.619158631,nan,nan
0,165,5101,6,1,88,61,1.0,-0.225257592204,-0.599932847766,1,1.0,1.0,0.321805022657,0,0.0,0.0,0.335263160523,0.371196598088,0.0941831909317,0.46537978902,0.277013407157,nan,nan,0.0,0.0,0.0,nan,nan,344.372445524,538.119241024,538.441046047,538.61928778,nan,nan
0,166,5102,6,1,147,103,1.0,-0.275801134503,0.0346720467303,1,1.0,1.0,0.345642907079,0,0.0,0.0,0.329792323367,0.370899058477,0.0939768284596,0.464875886937,0.276922230018,nan,nan,0.0,0.0,0.0,nan,nan,344.372445524,539.119389845,539.465032752,539.619411798,nan,nan
0,167,5103,6,1,378,265,-0.117450136118,0.478670924818,-0.154810124165,1,1.0,1.0,0.393578399904,0,0.0,0.0,0.353675443213,0.370747824038,0.0937152971389,0.464463121177,0.277032526899,nan,nan,0.0,0.0,0.0,nan,nan,344.372445524,540.119515858,540.513094258,540.619547504,nan,nan
0,168,5104,6,1,218,153,0.881467392804,0.0788246127756,0.572559633417,1,1.0,1.0,0.377366882283,0,0.0,0.0,0.372196063089,0.370883720323,0.0934524687527,0.464336189075,0.27743125157,nan,nan,0.0,0.0,0.0,nan,nan,344.372445524,541.119625906,541.496992788,541.619668956,nan,nan
0,169,5105,6,1,285,200,0.178734351563,0.356878681702,0.598527012995,1,1.0,1.0,0.298061505891,0,0.0,0.0,0.356335596026,0.370922082228,0.0931768986456,0.464098980873,0.277745183582,nan,nan,0.0,0.0,0.0,nan,nan,344.372445524,542.150893725,542.44895523,542.653134308,nan,nan
0,170,5106,6,1,433,304,0.206536295144,0.436163724167,-1.0,1,1.0,1.0,0.367741409689,0,0.0,0.0,0.347723265955,0.370493490602,0.0930693718722,0.463562862474,0.27742411873,nan,nan,0.0,0.0,0.0,nan,nan,344.372445524,543.153220693,543.520962103,543.653264313,nan,nan
0,171,5107,6,1,111,78,1.0,-0.298677811705,-0.336106236365,1,1.0,1.0,0.335539895575,0,0.0,0.0,0.333780937052,0.370477396562,0.0927970774386,0.463274474,0.277680319123,nan,nan,0.0,0.0,0.0,nan,nan,344.372445524,544.153391181,544.488931077,544.653416555,nan,nan
0,172,5108,6,1,473,332,0.522594813828,0.349396171415,-1.0,1,1.0,1.0,0.343388353474,0,0.0,0.0,0.348889886246,0.370274271556,0.0925650437144,0.46283931527,0.277709227842,nan,nan,0.0,0.0,0.0,nan,nan,344.372445524,545.153519476,545.496907829,545.653544849,nan,nan
0,173,5109,6,1,324,227,-0.114799643766,0.441158325109,0.368064040095,1,1.0,1.0,0.455277559813,0,0.0,0.0,0.378068602954,0.370118861625,0.0923196286383,0.462438490263,0.277799232987,nan,nan,0.0,0.0,0.0,nan,nan,344.372445524,546.153624107,546.608901666,546.653646344,nan,nan
0,174,5110,6,1,404,284,0.0124894593597,0.468746268022,-0.463349101315,1,1.0,1.0,0.415133790579,0,0.0,0.0,0.404599901289,0.370608279431,0.0922787636563,0.462887043087,0.278329515774,nan,nan,0.0,0.0,0.0,nan,nan,344.372445524,547.153751831,547.568885621,547.65378091,nan,nan
0,175,5111,6,1,185,130,1.0,-0.102214474652,0.370299946716,1,1.0,1.0,0.422942334786,0,0.0,0.0,0.431117895059,0.370862710923,0.0920759193295,0.462938630253,0.278786791593,nan,nan,0.0,0.0,0.0,nan,nan,344.372445524,548.15391063,548.576852965,548.653908064,nan,nan
0,176,5112,6,1,41,28,1.0,0.0148395037771,-1.0,1,1.0,1.0,0.470839054324,0,0.0,0.0,0.436305059896,0.371158617877,0.0918973762969,0.463055994174,0.27926124158,nan,nan,0.0,0.0,0.0,nan,nan,344.372445524,549.154006708,549.624845762,549.654049187,nan,nan
0,177,5113,6,1,471,331,0.506014005179,0.354993781952,-1.0,1,1.0,1.0,0.478701482061,0,0.0,0.0,0.45749429039,0.371721784184,0.0919414742705,0.463663258455,0.279780309914,nan,nan,0.0,0.0,0.0,nan,nan,344.372445524,550.154132436,550.632833918,550.654188315,nan,nan
0,178,5114,6,1,31,21,1.0,0.0668515730764,-1.0,1,1.0,1.0,0.478513317648,0,0.0,1.0,0.476017951344,0.372322793723,0.0920308601225,0.464353653846,0.2802919336,nan,nan,0.0,0.0,0.0,nan,nan,344.372445524,551.154290095,551.632803413,551.6542747,nan,nan
0,179,5118,6,1,447,314,0.312467642152,0.411646472288,-1.0,1,1.0,1.0,0.414393391926,1,0.0,0.0,0.457202730545,0.372916036873,0.0921141000866,0.46503013696,0.280801936787,178.430645195,386.0,-0.0833946583454,0.477495592553,-0.245424736514,-42.7275201953,1.1006093109,344.372445524,552.154398147,552.568791539,552.654446329,553.987916984,555.096417803
0,180,5119,6,1,370,260,-0.144805996584,0.478178727438,-0.0671803333712,1,1.0,1.0,0.471487366594,0,0.0,0.0,0.45479802539,0.373146466624,0.0919095915738,0.465056058197,0.28123687505,nan,nan,0.0,0.0,0.0,nan,nan,344.372445524,556.313236408,556.784723775,556.813270049,nan,nan
0,181,5120,6,1,64,45,1.0,-0.108036866323,-1.0,1,1.0,1.0,0.327327652834,0,0.0,0.0,0.404402803785,0.373689786513,0.0919447541976,0.465634540711,0.281745032315,nan,nan,0.0,0.0,0.0,nan,nan,344.372445524,557.313369833,557.640697486,557.813435121,nan,nan
0,182,5121,6,1,499,350,0.739831889234,0.263827757734,-1.0,1,1.0,1.0,0.327178831678,0,0.0,0.0,0.375331283702,0.373435049515,0.0917558359229,0.465190885438,0.281679213592,nan,nan,0.0,0.0,0.0,nan,nan,344.372445524,558.313502689,558.640681521,558.813543458,nan,nan
0,183,5122,6,1,188,132,1.0,-0.0857393506835,0.392804289229,1,1.0,1.0,0.439034111798,0,0.0,0.0,0.364513532103,0.373182283297,0.0915683097518,0.464750593049,0.281613973545,nan,nan,0.0,0.0,0.0,nan,nan,344.372445524,559.313625851,559.752659963,559.81366377,nan,nan
0,184,5123,6,0,65,45,1.0,-0.113312155659,-1.0,0,0.0,1.0,0.598867363296,0,0.0,0.0,0.455026768924,0.373540173669,0.0914473929543,0.464987566624,0.282092780715,nan,nan,0.0,0.0,0.0,nan,nan,344.372445524,560.313775528,560.912642891,560.813828841,nan,nan
0,185,5124,6,1,496,348,0.714833717156,0.274923884212,-1.0,1,1.0,1.0,0.262727336958,0,0.0,0.0,0.433542937351,0.374758158478,0.0926843239338,0.467442482412,0.282073834544,nan,nan,0.0,0.0,0.0,nan,nan,344.372445524,561.313883865,561.576611202,561.813908098,nan,nan
0,186,5125,6,1,166,116,1.0,-0.20036215083,0.21267421211,1,1.0,1.0,0.406585417688,0,0.0,0.0,0.422726705981,0.374155842233,0.0927971672102,0.466953009444,0.281358675023,nan,nan,0.0,0.0,0.0,nan,nan,344.372445524,562.314017291,562.720602708,562.814039528,nan,nan
0,187,5126,6,1,321,225,-0.0999433513493,0.43654647086,0.391174984052,1,1.0,1.0,0.286491950974,0,0.0,0.0,0.31860156854,0.374329262423,0.0925789301192,0.466908192542,0.281750332304,nan,nan,0.0,0.0,0.0,nan,nan,344.372445524,563.314138457,563.600630408,563.814183788,nan,nan
0,188,5127,6,1,57,40,1.0,-0.0707313323512,-1.0,1,1.0,1.0,0.278310783673,0,0.0,0.0,0.323796050778,0.373862042681,0.092553172079,0.46641521476,0.281308870602,nan,nan,0.0,0.0,0.0,nan,nan,344.372445524,564.314273879,564.592584663,564.814314648,nan,nan
0,189,5128,6,1,231,162,0.749609680972,0.145151270079,0.620821461523,1,1.0,1.0,0.350146597251,0,0.0,0.0,0.304983110633,0.373356480464,0.0925679099328,0.465924390397,0.280788570531,nan,nan,0.0,0.0,0.0,nan,nan,344.372445524,565.314407875,565.664554472,565.814462328,nan,nan
0,190,5129,6,1,281,197,0.218083397074,0.345068392493,0.612644422055,1,1.0,1.0,0.278017133009,0,0.0,0.0,0.302158171311,0.373234323184,0.0923392616458,0.46557358483,0.280895061538,nan,nan,0.0,0.0,0.0,nan,nan,344.372445524,566.314531322,566.592548455,566.814572946,nan,nan
0,191,5130,6,1,234,164,0.71814774995,0.15974031316,0.62913160129,1,1.0,1.0,0.27787401434,0,0.0,0.0,0.302012581533,0.372735803864,0.0923532173885,0.465089021252,0.280382586475,nan,nan,0.0,0.0,0.0,nan,nan,344.372445524,567.314658761,567.592532775,567.814702095,nan,nan
0,192,5131,6,1,39,27,1.0,0.0253789930673,-1.0,1,1.0,1.0,0.301719596144,0,0.0,0.0,0.285870247831,0.372241732044,0.0923651379523,0.464606869996,0.279876594091,nan,nan,0.0,0.0,0.0,nan,nan,344.372445524,568.314786199,568.616505796,568.814828679,nan,nan
0,193,5132,6,0,218,153,0.881467392804,0.0788246127756,0.572559633417,0,1.0,0.0,0.285546281841,0,0.0,0.0,0.288379964108,0.371876332376,0.0922645665095,0.464140898885,0.279611765866,nan,nan,0.0,0.0,0.0,nan,nan,344.372445524,569.314935306,569.600481587,569.814965526,nan,nan
0,194,5133,6,1,448,315,0.32026743599,0.409662251776,-1.0,1,1.0,1.0,0.237445432227,0,0.0,0.0,0.274903770071,0.371431332115,0.0922338817739,0.463665213889,0.279197450341,nan,nan,0.0,0.0,0.0,nan,nan,344.372445524,570.315039651,570.552485084,570.815084412,nan,nan
0,195,5134,6,1,261,183,0.427225806086,0.276617811781,0.653674462902,1,1.0,1.0,0.221284661908,0,0.0,0.0,0.248092125325,0.370744224936,0.0924935317054,0.463237756642,0.278250693231,nan,nan,0.0,0.0,0.0,nan,nan,344.372445524,571.315166235,571.536450897,571.81519617,nan,nan
0,196,5135,6,1,359,252,-0.169222339917,0.474741883077,0.0483828026834,1,1.0,1.0,0.301123456098,0,1.0,0.0,0.253284516744,0.369981676145,0.0928697685153,0.462851444661,0.27711190763,nan,nan,0.0,0.0,0.0,nan,nan,344.372445524,572.315290253,572.616413709,572.81531306,nan,nan
0,197,5140,6,1,225,158,0.81146624694,0.115131125244,0.600981946568,1,1.0,1.0,0.308992441744,1,0.0,0.0,0.277133519916,0.369632142033,0.0927629201086,0.462395062142,0.276869221925,-30.4016272981,171.0,1.0,-0.176011872558,0.256450910142,-37.8014977019,1.40879692137,344.372445524,573.315407143,573.624399584,573.815439929,575.140613382,576.557464602
0,198,5141,6,1,174,122,1.0,-0.160790688716,0.281981279739,1,1.0,1.0,0.34602066176,0,0.0,0.0,0.318712186534,0.369325880921,0.0926281692718,0.461954050193,0.276697711649,nan,nan,0.0,0.0,0.0,nan,nan,344.372445524,577.774308581,578.120329243,578.274357332,nan,nan
0,199,5142,6,1,472,331,0.51429864939,0.352212277195,-1.0,1,1.0,1.0,0.345863287337,0,0.0,0.0,0.333625463614,0.369208769267,0.0924098364581,0.461618605725,0.276798932809,nan,nan,0.0,0.0,0.0,nan,nan,344.372445524,578.774451415,579.120314702,579.274471086,nan,nan
0,200,5143,6,1,281,197,0.218083397074,0.345068392493,0.612644422055,1,1.0,1.0,0.40170454327,0,0.0,0.0,0.364529497456,0.369092041857,0.0921932286949,0.461285270552,0.276898813162,nan,nan,0.0,0.0,0.0,nan,nan,344.372445524,579.774574577,580.17627912,580.274601662,nan,nan
0,201,5144,6,1,454,319,0.367627362238,0.397084843583,-1.0,1,1.0,1.0,0.345589878969,0,0.0,0.0,0.364385903192,0.369254293108,0.0919922278587,0.461246520967,0.277262065249,nan,nan,0.0,0.0,0.0,nan,nan,344.372445524,580.774685765,581.120275644,581.274753619,nan,nan
0,202,5145,6,1,117,82,1.0,-0.307587969795,-0.271886539361,1,1.0,1.0,0.33743693633,0,0.0,0.0,0.361577119523,0.369137142543,0.091779271357,0.4609164139,0.277357871186,nan,nan,0.0,0.0,0.0,nan,nan,344.372445524,581.774838008,582.112274944,582.27487564,nan,nan
0,203,5146,6,1,479,336,0.572572153349,0.331768222426,-1.0,1,1.0,1.0,0.313297988847,0,0.0,0.0,0.332108268049,0.368980983892,0.091579832795,0.460560816687,0.277401151097,nan,nan,0.0,0.0,0.0,nan,nan,344.372445524,582.774953472,583.088251461,583.274992816,nan,nan
0,204,5147,6,0,23,16,1.0,0.106943944166,-1.0,0,0.0,1.0,0.500200423412,0,0.0,0.0,0.383645116196,0.368708028033,0.0914378378048,0.460145865838,0.277270190229,nan,nan,0.0,0.0,0.0,nan,nan,344.372445524,583.775109991,584.275310414,584.275153611,nan,nan
0,205,5148,6,1,505,355,0.789537956352,0.240683140511,-1.0,1,1.0,1.0,0.281012086198,0,0.0,0.0,0.364836832819,0.369349454352,0.091673467624,0.461022921976,0.277675986728,nan,nan,0.0,0.0,0.0,nan,nan,344.372445524,584.775195235,585.056207321,585.275236289,nan,nan
0,206,5149,6,1,455,319,0.375608248681,0.394875365091,-1.0,1,1.0,1.0,0.248867876362,0,0.0,0.0,0.343360128657,0.368920632177,0.0916565631251,0.460577195302,0.277264069052,nan,nan,0.0,0.0,0.0,nan,nan,344.372445524,585.775323529,586.024191406,586.275395374,nan,nan
0,207,5150,6,1,154,108,1.0,-0.251813147593,0.102138173725,1,1.0,1.0,0.344700373244,0,0.0,0.0,0.291526778601,0.368340667173,0.0918130242396,0.460153691413,0.276527642933,nan,nan,0.0,0.0,0.0,nan,nan,344.372445524,586.775476057,587.12017643,587.275493733,nan,nan
0,208,5151,6,1,209,146,0.967301840512,0.0304835193525,0.52804999659,1,1.0,1.0,0.296575861052,0,0.0,0.0,0.296714703552,0.368227011914,0.0916066497156,0.459833661629,0.276620362198,nan,nan,0.0,0.0,0.0,nan,nan,344.372445524,587.775605491,588.072181352,588.275645405,nan,nan
0,209,5152,6,0,58,40,1.0,-0.0760896648475,-1.0,0,0.0,1.0,0.480388976168,0,0.0,0.0,0.373888403488,0.367884183441,0.0915208869398,0.45940507038,0.276363296501,nan,nan,0.0,0.0,0.0,nan,nan,344.372445524,588.77574975,589.256138727,589.275771988,nan,nan
0,210,5153,6,1,186,130,1.0,-0.0967386681424,0.377881386018,1,1.0,1.0,0.264016834553,0,0.0,0.0,0.346993890591,0.368419920549,0.0916306316884,0.460050552237,0.276789288861,nan,nan,0.0,0.0,0.0,nan,nan,344.372445524,589.776123228,590.040140063,590.275879185,nan,nan
0,211,5154,6,1,493,346,0.689769084006,0.285700779988,-1.0,1,1.0,1.0,0.264112057164,0,0.0,0.0,0.336172622629,0.367925119193,0.0916940256297,0.459619144823,0.276231093564,nan,nan,0.0,0.0,0.0,nan,nan,344.372445524,590.775981535,591.040093592,591.276016602,nan,nan
0,212,5155,6,1,432,303,0.199227897075,0.437687328843,-1.0,1,1.0,1.0,0.271965361666,0,1.0,0.0,0.266698084461,0.367435434939,0.0917536416727,0.459189076611,0.275681793266,nan,nan,0.0,0.0,0.0,nan,nan,344.372445524,591.776111254,592.048076616,592.276135773,nan,nan
0,213,5159,6,1,199,139,1.0,-0.0246761787097,0.468786302982,1,1.0,1.0,0.231833566446,1,0.0,0.0,0.255970328425,0.366987218632,0.0917703467815,0.458757565414,0.275216871851,-25.6315976504,164.0,1.0,-0.209685835145,0.194761549991,-24.2902773496,0.992081693374,344.372445524,592.776235557,593.008069124,593.276267488,594.609763517,595.609885824
0,214,5200,6,0,511,359,0.838703193994,0.216284169582,-1.0,0,1.0,0.0,0.405546521302,0,0.0,0.0,0.303115149805,0.36635565951,0.0920184819151,0.458374141425,0.274337177595,nan,nan,0.0,0.0,0.0,nan,nan,344.372445524,596.818434026,597.223980547,597.318467953,nan,nan
0,215,5201,6,1,351,246,-0.175686286722,0.4701852659,0.128489978773,1,1.0,1.0,0.227395448834,0,0.0,0.0,0.288258512194,0.366537942588,0.0918429548589,0.458380897447,0.274694987729,nan,nan,0.0,0.0,0.0,nan,nan,344.372445524,597.868572755,598.095968204,598.368600979,nan,nan
0,216,5202,6,1,507,356,0.805995650865,0.232688349973,-1.0,1,1.0,1.0,0.131278994493,0,0.0,0.0,0.254740321543,0.365893764376,0.0921156579214,0.458009422297,0.273778106455,nan,nan,0.0,0.0,0.0,nan,nan,344.372445524,598.868688219,598.999967214,599.368739822,nan,nan
0,217,5203,6,1,161,113,1.0,-0.223158351501,0.167490545043,1,1.0,1.0,0.315136299469,0,1.0,0.0,0.224603580932,0.364812590321,0.0932667258978,0.458079316219,0.271545864424,nan,nan,0.0,0.0,0.0,nan,nan,344.372445524,599.868803114,600.183939413,600.368827062,nan,nan
0,218,5207,6,1,415,291,0.0813077335083,0.459153678902,-0.614968023274,1,1.0,1.0,0.340004527476,1,0.0,0.0,0.262139940479,0.364584717427,0.0931130920013,0.457697809429,0.271471625426,-178.458781356,382.0,-0.1011887567,0.478291136399,-0.199732273247,-23.3380936437,0.808728440665,344.372445524,600.883895052,601.22389958,601.385630443,602.710797909,603.527571525
0,219,5208,6,1,61,42,1.0,-0.0921163965413,-1.0,1,1.0,1.0,0.455438069999,0,0.0,0.0,0.370192965648,0.364472479117,0.0929150412138,0.457387520331,0.271557437903,nan,nan,0.0,0.0,0.0,nan,nan,344.372445524,604.744418355,605.199856425,605.244456843,nan,nan
0,220,5209,6,0,473,332,0.522594813828,0.349396171415,-1.0,0,0.0,1.0,0.527240526862,0,0.0,0.0,0.440894374779,0.364885959076,0.0929053525178,0.457791311594,0.271980606558,nan,nan,0.0,0.0,0.0,nan,nan,344.372445524,605.744572593,606.27181312,606.244620774,nan,nan
0,221,5210,6,1,121,85,1.0,-0.310732805591,-0.229640808446,1,1.0,1.0,0.33511880599,0,0.0,0.0,0.43926580095,0.365620595129,0.0933331678781,0.458953763007,0.272287427251,nan,nan,0.0,0.0,0.0,nan,nan,344.372445524,606.744681215,607.079800021,607.244717993,nan,nan
0,222,5211,6,1,34,23,1.0,0.0514419701458,-1.0,1,1.0,1.0,0.39898271393,0,0.0,0.0,0.420447348927,0.365483199683,0.093145118259,0.458628317942,0.272338081424,nan,nan,0.0,0.0,0.0,nan,nan,344.372445524,607.744807798,608.143790512,608.244833172,nan,nan
0,223,5212,6,0,212,149,0.93926288676,0.0467731277665,0.543851001166,0,0.0,1.0,0.486813940573,0,0.0,0.0,0.406971820164,0.36563342172,0.0929629870752,0.458596408795,0.272670434644,nan,nan,0.0,0.0,0.0,nan,nan,344.372445524,608.744953483,609.231767424,609.244993112,nan,nan
0,224,5213,6,1,509,357,0.822386376617,0.224555004187,-1.0,1,1.0,1.0,0.294725290965,0,0.0,0.0,0.393507315156,0.366174406179,0.0931063918316,0.45928079801,0.273068014347,nan,nan,0.0,0.0,0.0,nan,nan,344.372445524,609.745054123,610.039779414,610.245120266,nan,nan
0,225,5214,6,1,196,137,1.0,-0.0413610816081,0.449130757868,1,1.0,1.0,0.29456364084,0,0.0,0.0,0.35870095746,0.365856854556,0.0930207511392,0.458877605695,0.272836103416,nan,nan,0.0,0.0,0.0,nan,nan,344.372445524,610.745193821,611.039757462,611.245242573,nan,nan
0,226,5215,6,1,258,181,0.459642287315,0.26499291187,0.655490062901,1,1.0,1.0,0.286412123591,0,0.0,0.0,0.291900351799,0.365541397858,0.0929352654247,0.458476663282,0.272606132433,nan,nan,0.0,0.0,0.0,nan,nan,344.372445524,611.745325251,612.031737375,612.245347204,nan,nan
0,227,5216,6,1,472,331,0.51429864939,0.352212277195,-1.0,1,1.0,1.0,0.358292697463,0,0.0,0.0,0.313089487298,0.365192810746,0.0928782923729,0.458071103119,0.272314518373,nan,nan,0.0,0.0,0.0,nan,nan,344.372445524,612.745429882,613.103722579,613.245472647,nan,nan
0,228,5217,6,1,363,255,-0.162287729338,0.476365729747,0.00704812682028,1,1.0,1.0,0.430127370637,0,0.0,0.0,0.35827739723,0.365162547092,0.092675509781,0.457838056873,0.272487037311,nan,nan,0.0,0.0,0.0,nan,nan,344.372445524,613.745573286,614.175700657,614.245612345,nan,nan
0,229,5218,6,1,27,18,1.0,0.0870912575778,-1.0,1,1.0,1.0,0.325899882708,0,0.0,0.0,0.371439983603,0.365446236277,0.0925721015884,0.458018337866,0.272874134689,nan,nan,0.0,0.0,0.0,nan,nan,344.372445524,614.745764302,615.071664184,615.245727809,nan,nan
0,230,5219,6,1,271,190,0.320642857732,0.312811632898,0.639400143054,1,1.0,1.0,0.389839341398,0,0.0,0.0,0.381955531581,0.36527429561,0.0924072775869,0.457681573197,0.272867018023,nan,nan,0.0,0.0,0.0,nan,nan,344.372445524,615.745823602,616.135662944,616.245850401,nan,nan
0,231,5220,6,1,360,253,-0.167709501072,0.475188317955,0.0381258551808,1,1.0,1.0,0.341697723139,0,0.0,0.0,0.352478982415,0.365380637799,0.0922211479045,0.457601785704,0.273159489895,nan,nan,0.0,0.0,0.0,nan,nan,344.372445524,616.745962445,617.087660168,617.246003499,nan,nan
0,232,5221,6,1,59,41,1.0,-0.0814409933332,-1.0,1,1.0,1.0,0.333502301481,0,0.0,0.0,0.355013122006,0.365278556271,0.0920352591442,0.457313815415,0.273243297126,nan,nan,0.0,0.0,0.0,nan,nan,344.372445524,617.746108415,618.079610716,618.246130652,nan,nan
0,233,5222,6,1,490,344,0.664660387652,0.296157848571,-1.0,1,1.0,1.0,0.357353585307,0,0.0,0.0,0.344184536642,0.365142177495,0.091861035829,0.457003213324,0.273281141666,nan,nan,0.0,0.0,0.0,nan,nan,344.372445524,618.7462407,619.103594285,619.246246687,nan,nan
0,234,5223,6,1,359,252,-0.169222339917,0.474741883077,0.0483828026834,1,1.0,1.0,0.341239571106,0,0.0,0.0,0.344031819298,0.365108892913,0.0916659494252,0.456774842338,0.273442943487,nan,nan,0.0,0.0,0.0,nan,nan,344.372445524,619.746336778,620.087576349,620.246368424,nan,nan
0,235,5224,6,1,75,52,1.0,-0.164714458691,-0.791355921409,1,1.0,1.0,0.405088938773,0,0.0,0.0,0.367894031728,0.36500732133,0.0914839027938,0.456491224124,0.273523418537,nan,nan,0.0,0.0,0.0,nan,nan,344.372445524,620.746478472,621.151567411,621.246491586,nan,nan
0,236,5225,6,1,225,158,0.81146624694,0.115131125244,0.600981946568,1,1.0,1.0,0.364922932349,0,0.0,0.0,0.370417147409,0.365177158693,0.0913269939683,0.456504152661,0.273850164724,nan,nan,0.0,0.0,0.0,nan,nan,344.372445524,621.746622161,622.111545093,622.246618455,nan,nan
0,237,5226,6,1,68,47,1.0,-0.129018143495,-0.972903198114,1,1.0,1.0,0.348818611819,0,0.0,0.0,0.372943494314,0.365176086008,0.0911341188036,0.456310204811,0.274041967204,nan,nan,0.0,0.0,0.0,nan,nan,344.372445524,622.746725651,623.095544263,623.24678039,nan,nan
0,238,5227,6,1,146,102,1.0,-0.278792578557,0.0248813210997,1,1.0,1.0,0.340670230798,0,0.0,0.0,0.351470591656,0.365107357124,0.0909486138582,0.456055970983,0.274158743266,nan,nan,0.0,0.0,0.0,nan,nan,344.372445524,623.746847103,624.087517334,624.246876753,nan,nan
0,239,5228,6,1,475,333,0.539218753276,0.343659807328,-1.0,1,1.0,1.0,0.340525401291,0,0.0,0.0,0.343338081303,0.365005109734,0.0907718520514,0.455776961785,0.274233257682,nan,nan,0.0,0.0,0.0,nan,nan,344.372445524,624.746976823,625.087502224,625.247004192,nan,nan
0,240,5229,6,1,202,142,1.0,-0.00802826454356,0.487596984314,1,1.0,1.0,0.308395161759,0,0.0,0.0,0.329863597949,0.364903110949,0.0905962706201,0.455499381569,0.274306840329,nan,nan,0.0,0.0,0.0,nan,nan,344.372445524,625.747087155,626.055482317,626.247128495,nan,nan
0,241,5230,6,1,393,276,-0.0489456633786,0.475102171109,-0.327443230616,1,1.0,1.0,0.300252767745,0,0.0,0.0,0.316391110265,0.36466863813,0.0904810591767,0.455149697307,0.274187578954,nan,nan,0.0,0.0,0.0,nan,nan,344.372445524,626.747234551,627.047487319,627.247258214,nan,nan
0,242,5231,6,1,455,319,0.375608248681,0.394875365091,-1.0,1,1.0,1.0,0.33209391823,0,0.0,0.0,0.313580615912,0.364402456848,0.0903884266541,0.454790883502,0.274014030194,nan,nan,0.0,0.0,0.0,nan,nan,344.372445524,627.747359139,628.079453057,628.247387649,nan,nan
0,243,5232,6,1,365,256,-0.157962026257,0.477016591838,-0.0139196855225,1,1.0,1.0,0.32393299276,0,0.0,0.0,0.318759892912,0.364269499899,0.0902259605796,0.454495460478,0.274043539319,nan,nan,0.0,0.0,0.0,nan,nan,344.372445524,628.747489999,629.071422992,629.24752079,nan,nan
0,244,5233,6,1,466,327,0.464789014893,0.368385601135,-1.0,1,1.0,1.0,0.355801227503,0,0.0,0.0,0.337276046164,0.364104186345,0.0900777507628,0.454181937108,0.274026435582,nan,nan,0.0,0.0,0.0,nan,nan,344.372445524,629.747620003,630.103421231,630.247659347,nan,nan
0,245,5234,6,1,309,217,-0.0258396312562,0.415106541901,0.475305697888,1,1.0,1.0,0.347663680092,0,0.0,0.0,0.342465966785,0.364070296717,0.0898952893426,0.45396558606,0.274175007374,nan,nan,0.0,0.0,0.0,nan,nan,344.372445524,630.747738889,631.09540257,631.247792773,nan,nan
0,246,5235,6,1,413,290,0.0683106243366,0.461143133648,-0.585495598612,1,1.0,1.0,0.379499698989,0,0.0,0.0,0.360988202194,0.364003603154,0.0897184627454,0.453722065899,0.274285140408,nan,nan,0.0,0.0,0.0,nan,nan,344.372445524,631.747876021,632.12737572,632.247917646,nan,nan
0,247,5236,6,1,305,214,0.00361192545304,0.406859252708,0.500196907155,1,1.0,1.0,0.467349457089,0,0.0,0.0,0.39817094539,0.364066340384,0.0895420690472,0.453608409431,0.274524271336,nan,nan,0.0,0.0,0.0,nan,nan,344.372445524,632.748008307,633.215357764,633.248022276,nan,nan
0,248,5237,6,1,83,58,1.0,-0.203097876184,-0.665876706514,1,1.0,1.0,0.459237283561,0,0.0,0.0,0.435362146546,0.364482804564,0.0896007401684,0.454083544732,0.274882064396,nan,nan,0.0,0.0,0.0,nan,nan,344.372445524,633.74810524,634.207342524,634.248145724,nan,nan
0,249,5238,6,1,131,92,1.0,-0.308451667147,-0.125800503078,1,1.0,1.0,0.500209832098,0,0.0,1.0,0.475598857583,0.36486334464,0.0896212227406,0.454484567381,0.2752421219,nan,nan,0.0,0.0,0.0,nan,nan,344.372445524,634.748284281,635.248494113,635.248331037,nan,nan
0,250,5242,6,1,273,191,0.299732959835,0.319577193062,0.635038033336,1,1.0,1.0,0.418918464333,1,0.0,0.0,0.459455193331,0.36540473059,0.089848858085,0.455253588675,0.275555872505,-83.8655900561,247.0,0.578947625354,0.219392674348,0.6523805853,-18.0875349439,1.10053261975,344.372445524,635.748379219,636.167297683,636.248413146,637.573578331,638.682047219
0,251,5243,6,1,453,318,0.359670421306,0.39926174925,-1.0,1,1.0,1.0,0.388629386202,0,0.0,0.0,0.435919227544,0.365617932717,0.0897330399972,0.455350972714,0.275884892719,nan,nan,0.0,0.0,0.0,nan,nan,344.372445524,639.89057746,640.279206846,640.390602834,nan,nan
0,252,5244,6,1,92,64,1.0,-0.241703663401,-0.55060883727,1,1.0,1.0,0.260466796346,0,0.0,0.0,0.356004882293,0.365709248008,0.0895665058602,0.455275753868,0.276142742148,nan,nan,0.0,0.0,0.0,nan,nan,344.372445524,640.890708035,641.151174831,641.390731983,nan,nan
0,253,5245,6,1,318,223,-0.0835627602325,0.431640264478,0.413481556053,1,1.0,1.0,0.260313699022,0,0.0,0.0,0.30313662719,0.365293269938,0.0896328976879,0.454926167626,0.27566037225,nan,nan,0.0,0.0,0.0,nan,nan,344.372445524,641.890837469,642.151151168,642.390858851,nan,nan
0,254,5246,6,1,435,305,0.221263830514,0.433027056876,-1.0,1,1.0,1.0,0.252176151611,0,1.0,0.0,0.25765221566,0.364879964541,0.0896975139385,0.45457747848,0.275182450603,nan,nan,0.0,0.0,0.0,nan,nan,344.372445524,642.890963768,643.143139919,643.391009383,nan,nan
0,255,5250,6,1,261,183,0.427225806086,0.276617811781,0.653674462902,1,1.0,1.0,0.300056335516,1,0.0,0.0,0.270848728716,0.364437988804,0.0897981596128,0.454236148417,0.274639829191,-66.2864051137,222.0,0.841778467246,0.0997291618919,0.589484691865,-27.2292198863,0.858842936344,344.372445524,643.891096908,644.191153244,644.391115155,645.716281766,646.58305983
0,256,5251,6,1,44,30,1.0,-0.00106984144607,-1.0,1,1.0,1.0,0.295190000441,0,0.0,0.0,0.282474162523,0.364186497971,0.0897125339778,0.453899031949,0.274473963993,nan,nan,0.0,0.0,0.0,nan,nan,344.372445524,647.799915782,648.095105783,648.299962538,nan,nan
0,257,5252,6,1,329,231,-0.136053278316,0.448203788942,0.3278337444,1,1.0,1.0,0.335027004592,0,0.0,0.0,0.310091113516,0.363918029109,0.0896408031823,0.453558832291,0.274277225927,nan,nan,0.0,0.0,0.0,nan,nan,344.372445524,648.800057761,649.135084765,649.300071446,nan,nan
0,258,5253,6,1,190,133,1.0,-0.0746884387243,0.407399635172,1,1.0,1.0,0.310920557939,0,0.0,0.0,0.313712520991,0.363806048394,0.0894849207776,0.453290969171,0.274321127616,nan,nan,0.0,0.0,0.0,nan,nan,344.372445524,649.800157545,650.111078103,650.300208863,nan,nan
0,259,5254,6,1,42,29,1.0,0.00954878589686,-1.0,1,1.0,1.0,0.278743277304,0,0.0,0.0,0.308230279945,0.363601857311,0.0893722043626,0.452974061673,0.274229652948,nan,nan,0.0,0.0,0.0,nan,nan,344.372445524,650.800307507,651.079050784,651.300351412,nan,nan
0,260,5255,6,0,420,295,0.1146601879,0.45369410126,-0.695047497311,0,1.0,0.0,0.25457467977,0,0.0,0.0,0.281412838337,0.363275478157,0.0893546849725,0.45263016313,0.273920793184,nan,nan,0.0,0.0,0.0,nan,nan,344.372445524,651.800454332,652.055029012,652.300485693,nan,nan
0,261,5256,6,1,189,132,1.0,-0.0802194643608,0.400143472992,1,1.0,1.0,0.254453228321,0,0.0,0.0,0.262590395131,0.362859000002,0.0894358247403,0.452294824743,0.273423175262,nan,nan,0.0,0.0,0.0,nan,nan,344.372445524,652.800567516,653.055020744,653.300607429,nan,nan
0,262,5257,6,1,236,165,0.697004556276,0.169301754335,0.634065852989,1,1.0,1.0,0.246307983063,0,0.0,0.0,0.251778630385,0.362445237515,0.0895149157697,0.451960153285,0.272930321745,nan,nan,0.0,0.0,0.0,nan,nan,344.372445524,653.800693529,654.047001512,654.300734298,nan,nan
0,263,5258,6,1,285,200,0.178734351563,0.356878681702,0.598527012995,1,1.0,1.0,0.246140345465,0,1.0,0.0,0.248967185616,0.362003650996,0.0896300307682,0.451633681764,0.272373620228,nan,nan,0.0,0.0,0.0,nan,nan,344.372445524,654.800828381,655.046968726,655.30084235,nan,nan
0,264,5302,6,1,443,311,0.281558783006,0.419268214519,-1.0,1,1.0,1.0,0.372773386072,1,0.0,0.0,0.2884072382,0.361564774839,0.0897427955918,0.451307570431,0.271821979247,167.103190862,402.0,0.000724920831492,0.470139955471,-0.437811562499,-28.5875658623,1.55043808138,344.372445524,655.826173577,656.198946963,656.325971727,657.651146322,659.209666641
0,265,5303,6,1,63,44,1.0,-0.102744642793,-1.0,1,1.0,1.0,0.5247527631,0,0.0,0.0,0.381222164879,0.361607071485,0.0895759458549,0.45118301734,0.27203112563,nan,nan,0.0,0.0,0.0,nan,nan,344.372445524,660.418179776,660.942932539,660.918269297,nan,nan
0,266,5304,6,1,374,262,-0.132039125116,0.478634076427,-0.110628443238,1,1.0,1.0,0.428549353965,0,0.0,0.0,0.442025167712,0.362220401153,0.0899631654925,0.452183566645,0.27225723566,nan,nan,0.0,0.0,0.0,nan,nan,344.372445524,661.418310351,661.846859705,661.918358817,nan,nan
0,267,5305,6,1,128,90,1.0,-0.310663006781,-0.156689791083,1,1.0,1.0,0.420406959951,0,0.0,1.0,0.457903025672,0.362468824197,0.0898858988959,0.452354723093,0.272582925301,nan,nan,0.0,0.0,0.0,nan,nan,344.372445524,662.418433798,662.838840758,662.91846744,nan,nan
0,268,5309,6,1,457,321,0.391639248186,0.390358177281,-1.0,1,1.0,1.0,0.324233770836,1,0.0,0.0,0.391063361584,0.362685011271,0.0897875618635,0.452472573134,0.272897449407,-146.309932474,336.0,-0.158211608236,0.456758111158,0.268135266647,-85.018192526,1.06712086545,344.372445524,663.418583475,663.742817245,663.918610559,665.243773749,666.318913275
0,269,5310,6,1,260,182,0.438016636947,0.272781976488,0.654406567654,1,1.0,1.0,0.526970824227,0,0.0,0.0,0.423870518338,0.362542069856,0.0896510600485,0.452193129905,0.272891009808,nan,nan,0.0,0.0,0.0,nan,nan,344.372445524,667.535768658,668.062739482,668.03583195,nan,nan
0,270,5311,6,1,162,113,1.0,-0.218739557155,0.176632971453,1,1.0,1.0,0.350855350494,0,0.0,0.0,0.400686648519,0.363151065243,0.0900406031795,0.453191668422,0.273110462063,nan,nan,0.0,0.0,0.0,nan,nan,344.372445524,668.535887544,668.886742894,669.035924322,nan,nan
0,271,5312,6,1,378,265,-0.117450136118,0.478670924818,-0.154810124165,1,1.0,1.0,0.446689273231,0,0.0,0.0,0.441505149317,0.363105693602,0.0898774152122,0.452983108814,0.27322827839,nan,nan,0.0,0.0,0.0,nan,nan,344.372445524,669.536016123,669.982705396,670.036047484,nan,nan
0,272,5313,6,1,71,49,1.0,-0.144504067012,-0.877980773838,1,1.0,1.0,0.510530088097,0,0.0,0.0,0.436024903941,0.363412986174,0.0898545580644,0.453267544238,0.27355842811,nan,nan,0.0,0.0,0.0,nan,nan,344.372445524,670.53615411,671.046684199,671.036228236,nan,nan
0,273,5314,6,1,224,157,0.821619416966,0.11002478857,0.597264883709,1,1.0,1.0,0.614393220749,0,0.0,1.0,0.523870860692,0.363951876657,0.0901291112614,0.454080987919,0.273822765396,nan,nan,0.0,0.0,0.0,nan,nan,344.372445524,671.536275277,672.150668498,672.036352253,nan,nan
0,274,5319,6,1,340,239,-0.166837174664,0.460980112934,0.232376404312,1,1.0,1.0,0.45425348822,1,0.0,0.0,0.526392265689,0.364865896161,0.0912232569906,0.456089153152,0.273642639171,-135.903643988,321.0,-0.0999433513493,0.43654647086,0.391174984052,-13.1588560125,1.23377992958,344.372445524,672.536405567,672.990659055,673.036437782,674.369936948,675.611761483
0,275,5320,6,1,471,331,0.506014005179,0.354993781952,-1.0,1,1.0,1.0,0.538276663516,0,0.0,0.0,0.535641124162,0.36519094195,0.0912160696235,0.456407011574,0.273974872327,nan,nan,0.0,0.0,0.0,nan,nan,344.372445524,676.820276898,677.358553562,677.320362428,nan,nan
0,276,5321,6,1,5,3,0.88714030954,0.190659852496,-1.0,1,1.0,1.0,0.3301438489,0,0.0,0.0,0.440891333545,0.36581806413,0.0916426630848,0.457460727215,0.274175401045,nan,nan,0.0,0.0,0.0,nan,nan,344.372445524,677.82041289,678.150556739,678.320442826,nan,nan
0,277,5322,6,1,279,196,0.238157575771,0.338930353633,0.618978422254,1,1.0,1.0,0.217971255537,0,0.0,0.0,0.362130589318,0.365689276349,0.0915021117839,0.457191388133,0.274187164566,nan,nan,0.0,0.0,0.0,nan,nan,344.372445524,678.82057397,679.038545226,679.320576536,nan,nan
0,278,5323,6,1,72,50,1.0,-0.149607777062,-0.853203742106,1,1.0,1.0,0.380748142488,0,0.0,0.0,0.309621082308,0.365157916562,0.0917645254793,0.456922442042,0.273393391083,nan,nan,0.0,0.0,0.0,nan,nan,344.372445524,679.849771123,680.230519266,680.354067548,nan,nan
0,279,5324,6,1,471,331,0.506014005179,0.354993781952,-1.0,1,1.0,1.0,0.368685938418,0,0.0,0.0,0.322468445481,0.365213795508,0.091604663408,0.456818458916,0.2736091321,nan,nan,0.0,0.0,0.0,nan,nan,344.372445524,680.845821663,681.214507602,681.345846752,nan,nan
0,280,5325,6,1,259,182,0.44882283482,0.268906983076,0.655011783756,1,1.0,1.0,0.352509772871,0,0.0,0.0,0.367314617926,0.365226196019,0.0914411719286,0.456667367947,0.27378502409,nan,nan,0.0,0.0,0.0,nan,nan,344.372445524,681.845960791,682.198470564,682.345959366,nan,nan
0,281,5326,6,1,321,225,-0.0999433513493,0.43654647086,0.391174984052,1,1.0,1.0,0.288380153943,0,0.0,0.0,0.33652528841,0.365180941844,0.0912814612186,0.456462403062,0.273899480625,nan,nan,0.0,0.0,0.0,nan,nan,344.372445524,682.8460888,683.134468954,683.346084808,nan,nan
0,282,5327,6,1,489,343,0.656284860842,0.299572439858,-1.0,1,1.0,1.0,0.440256895963,0,0.0,0.0,0.360382274259,0.364908598624,0.0912337655903,0.456142364215,0.273674833034,nan,nan,0.0,0.0,0.0,nan,nan,344.372445524,683.84619001,684.286446906,684.346208826,nan,nan
0,283,5328,6,1,158,111,1.0,-0.235949227405,0.139764106,1,1.0,1.0,0.421943352092,0,0.0,0.0,0.383526800666,0.365174847025,0.0911821169152,0.45635696394,0.27399273011,nan,nan,0.0,0.0,0.0,nan,nan,344.372445524,684.888489689,685.310433041,685.388025549,nan,nan
0,284,5329,6,1,24,16,1.0,0.102019060141,-1.0,1,1.0,1.0,0.510298018344,0,0.0,1.0,0.457499422133,0.365374736127,0.0910835364859,0.456458272613,0.274291199641,nan,nan,0.0,0.0,0.0,nan,nan,344.372445524,685.888113074,686.398411093,686.388185774,nan,nan
0,285,5335,6,1,341,239,-0.168535884224,0.46196150489,0.223260112086,1,1.0,1.0,0.446180658415,1,0.0,0.0,0.459474009617,0.365883238872,0.0913265373239,0.457209776196,0.274556701548,-104.036243468,276.0,0.268710435127,0.329430325417,0.627563005949,-45.7293815321,3.41738292715,344.372445524,686.888226544,687.334407202,687.388263606,688.721794988,692.147214252
0,286,5336,6,1,251,176,0.535576518695,0.236509187076,0.655284151108,1,1.0,1.0,0.434547526762,0,0.0,0.0,0.463675401174,0.36616399908,0.0912898636145,0.457453862694,0.274874135465,nan,nan,0.0,0.0,0.0,nan,nan,344.372445524,693.355728243,693.790275769,693.855757893,nan,nan
0,287,5337,6,0,7,4,0.9030914636,0.181853060355,-1.0,0,1.0,0.0,0.330392454285,0,0.0,0.0,0.403706879821,0.366402269211,0.091219725997,0.457621995208,0.275182543214,nan,nan,0.0,0.0,0.0,nan,nan,344.372445524,694.355885047,694.686277501,694.855913556,nan,nan
0,288,5338,6,1,180,126,1.0,-0.129278616986,0.331238955499,1,1.0,1.0,0.289900865406,0,0.0,0.0,0.351613615484,0.366277235132,0.0910858536603,0.457363088792,0.275191381471,nan,nan,0.0,0.0,0.0,nan,nan,344.372445524,695.364321376,695.654222242,695.864349315,nan,nan
0,289,5339,6,0,90,63,1.0,-0.233635786423,-0.574971871003,0,0.0,1.0,0.401754435152,0,0.0,0.0,0.340682584948,0.366012957036,0.0910386699372,0.457051626973,0.274974287099,nan,nan,0.0,0.0,0.0,nan,nan,344.372445524,696.364471052,696.766225487,696.864497852,nan,nan
0,290,5340,6,1,200,140,1.0,-0.0191209939188,0.47515178387,1,1.0,1.0,0.361651150044,0,0.0,0.0,0.351102150201,0.366136203512,0.0909057192875,0.457041922799,0.275230484224,nan,nan,0.0,0.0,0.0,nan,nan,344.372445524,697.364562854,697.726214004,697.864600202,nan,nan
0,291,5341,6,1,405,284,0.018463324075,0.468009379796,-0.476293327428,1,1.0,1.0,0.361508885864,0,0.0,0.0,0.374971490353,0.366120790957,0.0907497690272,0.456870559984,0.27537102193,nan,nan,0.0,0.0,0.0,nan,nan,344.372445524,698.364693714,698.7262026,698.864728781,nan,nan
0,292,5342,6,1,487,342,0.639529740128,0.306295026098,-1.0,1,1.0,1.0,0.370336655062,0,0.0,0.0,0.36449889699,0.366104996762,0.0905946429584,0.45669963972,0.275510353803,nan,nan,0.0,0.0,0.0,nan,nan,344.372445524,699.411850604,699.782187259,699.914872356,nan,nan
0,293,5343,6,0,323,227,-0.11001989341,0.43965344528,0.375855360355,0,0.0,1.0,0.479525699746,0,0.0,0.0,0.403790413557,0.366119439281,0.0904402491831,0.456559688464,0.275679190098,nan,nan,0.0,0.0,0.0,nan,nan,344.372445524,700.406641297,700.886166997,700.906682066,nan,nan
0,294,5344,6,1,389,273,-0.0691208065164,0.476626077068,-0.280234315682,1,1.0,1.0,0.32737013232,0,0.0,0.0,0.392410829042,0.366505174861,0.0905274184434,0.457032593305,0.275977756418,nan,nan,0.0,0.0,0.0,nan,nan,344.372445524,701.406770161,701.734140293,701.906830031,nan,nan
0,295,5345,6,1,178,125,1.0,-0.139919655122,0.315097826042,1,1.0,1.0,0.295221361332,0,0.0,0.0,0.367372397799,0.3663725137,0.0904024734535,0.456774987154,0.275970040246,nan,nan,0.0,0.0,0.0,nan,nan,344.372445524,702.406905583,702.702126944,702.906937798,nan,nan
0,296,5346,6,0,239,168,0.665069831863,0.183388857662,0.640549267122,0,0.0,1.0,0.479062986095,0,0.0,0.0,0.367218159915,0.366132138185,0.0903440217254,0.456476159911,0.27578811646,nan,nan,0.0,0.0,0.0,nan,nan,344.372445524,703.407047276,703.886110262,703.907070369,nan,nan
0,297,5347,6,1,288,202,0.150005133015,0.365331945294,0.586687239957,1,1.0,1.0,0.350928050466,0,0.0,0.0,0.375070799297,0.36651237673,0.0904287383397,0.45694111507,0.276083638391,nan,nan,0.0,0.0,0.0,nan,nan,344.372445524,704.407151907,704.758079958,704.907191535,nan,nan
0,298,5348,6,1,236,165,0.697004556276,0.169301754335,0.634065852989,1,1.0,1.0,0.326787962578,0,0.0,0.0,0.385592999713,0.366460080334,0.0902813834218,0.456741463755,0.276178696912,nan,nan,0.0,0.0,0.0,nan,nan,344.372445524,705.407279346,705.734067308,705.907293031,nan,nan
0,299,5349,6,1,417,293,0.0945046041228,0.457053563907,-0.645720198395,1,1.0,1.0,0.32666308945,0,0.0,0.0,0.334793034165,0.366327397665,0.0901593834816,0.456486781147,0.276168014184,nan,nan,0.0,0.0,0.0,nan,nan,344.372445524,706.407388253,706.734051343,706.907421609,nan,nan
0,300,5350,6,1,312,219,-0.0464483572634,0.420925197877,0.455573212045,1,1.0,1.0,0.318473654799,0,0.0,0.0,0.323974902276,0.366195183305,0.0900380221103,0.456233205415,0.276157161194,nan,nan,0.0,0.0,0.0,nan,nan,344.372445524,707.407555891,707.726029546,707.907566439,nan,nan
0,301,5351,6,1,415,291,0.0813077335083,0.459153678902,-0.614968023274,1,1.0,1.0,0.270371094812,0,0.0,0.0,0.305169279687,0.366036640021,0.0899302684091,0.45596690843,0.276106371612,nan,nan,0.0,0.0,0.0,nan,nan,344.372445524,708.407652539,708.678023634,708.907681619,nan,nan
0,302,5352,6,1,162,113,1.0,-0.218739557155,0.176632971453,1,1.0,1.0,0.294206412975,0,0.0,0.0,0.294350387529,0.365719866692,0.0899493050428,0.455669171735,0.275770561649,nan,nan,0.0,0.0,0.0,nan,nan,344.372445524,709.407784539,709.701990952,709.907824453,nan,nan
0,303,5353,6,1,428,300,0.170378320166,0.443486568519,-0.86866140055,1,1.0,1.0,0.366063038819,0,0.0,0.0,0.310213515535,0.365483848693,0.0898943695095,0.455378218203,0.275589479184,nan,nan,0.0,0.0,0.0,nan,nan,344.372445524,710.407928513,710.773991552,710.907958164,nan,nan
0,304,5354,6,1,32,22,1.0,0.061735800531,-1.0,1,1.0,1.0,0.421892034821,0,0.0,0.0,0.360720495538,0.365485753924,0.089746401266,0.45523215519,0.275739352658,nan,nan,0.0,0.0,0.0,nan,nan,344.372445524,711.408080756,711.829972791,711.908054812,nan,nan
0,305,5355,6,1,115,80,1.0,-0.305166285737,-0.293172749504,1,1.0,1.0,0.477806844749,0,0.0,0.0,0.421920639463,0.36567069255,0.0896571587488,0.455327851298,0.276013533801,nan,nan,0.0,0.0,0.0,nan,nan,344.372445524,712.408130933,712.885937778,712.908189378,nan,nan
0,306,5356,6,1,290,203,0.131265381085,0.370776544741,0.578206616232,1,1.0,1.0,0.405612093396,0,0.0,0.0,0.435103657655,0.366037150563,0.089739042306,0.455776192869,0.276298108257,nan,nan,0.0,0.0,0.0,nan,nan,344.372445524,713.408321093,713.813933187,713.908350173,nan,nan
0,307,5357,6,1,24,16,1.0,0.102019060141,-1.0,1,1.0,1.0,0.349494863767,0,0.0,0.0,0.410971267304,0.366166059172,0.089621141843,0.455787201015,0.276544917329,nan,nan,0.0,0.0,0.0,nan,nan,344.372445524,714.408419167,714.75791403,714.908441975,nan,nan
0,308,5358,6,1,303,213,0.0191349273956,0.402522842081,0.512018356663,1,1.0,1.0,0.317341816146,0,0.0,0.0,0.357482924437,0.366111931914,0.0894805607094,0.455592492624,0.276631371205,nan,nan,0.0,0.0,0.0,nan,nan,344.372445524,715.408548886,715.725890703,715.908590796,nan,nan
0,309,5359,6,1,370,260,-0.144805996584,0.478178727438,-0.0671803333712,1,1.0,1.0,0.363166444935,0,0.0,0.0,0.343334374949,0.365954099824,0.0893785849282,0.455332684753,0.276575514896,nan,nan,0.0,0.0,0.0,nan,nan,344.372445524,716.458698734,716.821865179,716.958727814,nan,nan
0,310,5400,6,0,315,221,-0.0657111424032,0.426434809442,0.434956515233,0,0.0,1.0,0.491020843852,0,0.0,0.0,0.390509701644,0.365945107389,0.0892344494825,0.455179556872,0.276710657907,nan,nan,0.0,0.0,0.0,nan,nan,344.372445524,717.458828453,717.949849297,717.967197785,nan,nan
0,311,5401,6,1,400,281,-0.0107874812989,0.471427301814,-0.412692688905,1,1.0,1.0,0.298890570179,0,0.0,0.0,0.384359286322,0.366347280175,0.0893718270612,0.455719107236,0.276975453114,nan,nan,0.0,0.0,0.0,nan,nan,344.372445524,718.458945058,718.757835628,718.958957603,nan,nan
0,312,5402,6,0,123,86,1.0,-0.311441137266,-0.208672863777,0,0.0,1.0,0.500212112907,0,0.0,0.0,0.430041175646,0.366131072771,0.0893099153006,0.455440988072,0.276821157471,nan,nan,0.0,0.0,0.0,nan,nan,344.372445524,719.459101007,719.95931312,719.95915318,nan,nan
0,313,5403,6,1,8,5,0.91102658764,0.177400941622,-1.0,1,1.0,1.0,0.306606742553,0,0.0,0.0,0.368569808546,0.366559446702,0.0894876026443,0.456047049346,0.277071844057,nan,nan,0.0,0.0,0.0,nan,nan,344.372445524,720.459180549,720.765787292,720.959235288,nan,nan
0,314,5404,6,0,409,287,0.0429436170054,0.464793150178,-0.529461854507,0,1.0,0.0,0.394450229127,0,0.0,0.0,0.400423028196,0.366368514523,0.0894088261237,0.455777340646,0.276959688399,nan,nan,0.0,0.0,0.0,nan,nan,344.372445524,721.45934334,721.853793569,721.959380118,nan,nan
0,315,5405,6,1,73,51,1.0,-0.1546788618,-0.830916872461,1,1.0,1.0,0.458301877603,0,0.0,0.0,0.386452949761,0.366457662823,0.0892807711491,0.455738433972,0.277176891674,nan,nan,0.0,0.0,0.0,nan,nan,344.372445524,722.459452818,722.917754695,722.959505275,nan,nan
0,316,5406,6,1,232,163,0.739158239773,0.150046616059,0.623712016981,1,1.0,1.0,0.370186408516,0,0.0,0.0,0.407646171749,0.366748309072,0.089288526347,0.456036835419,0.277459782725,nan,nan,0.0,0.0,0.0,nan,nan,344.372445524,723.459567142,723.82975355,723.959598788,nan,nan
0,317,5407,6,1,18,12,0.988682696815,0.131162580546,-1.0,1,1.0,1.0,0.330016980413,0,0.0,0.0,0.386168422177,0.366759154812,0.0891477899466,0.455906944759,0.277611364865,nan,nan,0.0,0.0,0.0,nan,nan,344.372445524,724.459720524,724.789737505,724.959730218,nan,nan
0,318,5408,6,1,405,284,0.018463324075,0.468009379796,-0.476293327428,1,1.0,1.0,0.30588972196,0,0.0,0.0,0.335364370296,0.366643613383,0.0890312795986,0.455674892982,0.277612333784,nan,nan,0.0,0.0,0.0,nan,nan,344.372445524,725.45982316,725.765712881,725.959875333,nan,nan
0,319,5409,6,1,307,215,-0.0113868739462,0.411053355611,0.487957006857,1,1.0,1.0,0.465728960931,0,0.0,0.0,0.367211887768,0.366453162313,0.0889564777917,0.455409640104,0.277496684521,nan,nan,0.0,0.0,0.0,nan,nan,344.372445524,726.459966849,726.92569581,726.959982244,nan,nan
0,320,5410,6,1,199,139,1.0,-0.0246761787097,0.468786302982,1,1.0,1.0,0.337568366434,0,0.0,0.0,0.369729016442,0.366763399183,0.088990048801,0.455753447984,0.277773350382,nan,nan,0.0,0.0,0.0,nan,nan,344.372445524,727.460093718,727.797662084,727.960109968,nan,nan
0,321,5411,6,1,54,37,1.0,-0.0546292063271,-1.0,1,1.0,1.0,0.353442898486,0,0.0,0.0,0.385580075284,0.366672448926,0.0888662214497,0.455538670375,0.277806227476,nan,nan,0.0,0.0,0.0,nan,nan,344.372445524,728.460237692,728.81368059,728.960240258,nan,nan
0,322,5412,6,1,369,259,-0.147694689129,0.477999187239,-0.0564338676883,1,1.0,1.0,0.433345269412,0,0.0,0.0,0.374785511444,0.366631363365,0.0887311765271,0.455362539892,0.277900186838,nan,nan,0.0,0.0,0.0,nan,nan,344.372445524,729.460332915,729.893678184,729.960382237,nan,nan
0,323,5413,6,0,120,84,1.0,-0.310161497659,-0.240162905937,0,0.0,1.0,0.465140233748,0,0.0,0.0,0.417309467215,0.366837907966,0.0886712079818,0.455509115948,0.278166699984,nan,nan,0.0,0.0,0.0,nan,nan,344.372445524,730.460489718,730.925629952,730.960519939,nan,nan
0,324,5414,6,1,460,323,0.415848916989,0.383334931935,-1.0,1,1.0,1.0,0.337001021951,0,0.0,0.0,0.411828841704,0.367141310206,0.0887020235734,0.455843333779,0.278439286633,nan,nan,0.0,0.0,0.0,nan,nan,344.372445524,731.460607463,731.797608485,731.960627991,nan,nan
0,325,5415,6,1,230,161,0.760023132926,0.140224214653,0.61781109556,1,1.0,1.0,0.368839036208,0,0.0,0.0,0.390326763969,0.367048570858,0.088581184202,0.45562975506,0.278467386656,nan,nan,0.0,0.0,0.0,nan,nan,344.372445524,732.460736043,732.829575079,732.960749157,nan,nan
0,326,5416,6,1,454,319,0.367627362238,0.397084843583,-1.0,1,1.0,1.0,0.288739092182,0,0.0,0.0,0.331526383447,0.367054063083,0.0884452745634,0.455499337646,0.278608788519,nan,nan,0.0,0.0,0.0,nan,nan,344.372445524,733.460835542,733.749574634,733.960892847,nan,nan
0,327,5417,6,1,250,175,0.546428449327,0.232286661223,0.654747725831,1,1.0,1.0,0.344575215597,0,0.0,0.0,0.334051114662,0.366814567759,0.0884157400122,0.455230307771,0.278398827747,nan,nan,0.0,0.0,0.0,nan,nan,344.372445524,734.460979231,734.805554447,734.961005745,nan,nan
0,328,5418,6,1,335,235,-0.155595990888,0.455627721073,0.276893227044,1,1.0,1.0,0.312430150807,0,0.0,0.0,0.315248152862,0.366746764856,0.0882893709019,0.455036135758,0.278457393954,nan,nan,0.0,0.0,0.0,nan,nan,344.372445524,735.461113513,735.773543663,735.961153711,nan,nan
0,329,5419,6,1,253,177,0.513865899396,0.244839928328,0.655977188727,1,1.0,1.0,0.336278869305,0,0.0,0.0,0.331094745236,0.366581668764,0.0882057830844,0.454787451849,0.27837588568,nan,nan,0.0,0.0,0.0,nan,nan,344.372445524,736.461243517,736.797522386,736.961315932,nan,nan
0,330,5420,6,1,472,331,0.51429864939,0.352212277195,-1.0,1,1.0,1.0,0.312139351387,0,0.0,0.0,0.320282790499,0.366489842099,0.088087784604,0.454577626703,0.278402057495,nan,nan,0.0,0.0,0.0,nan,nan,344.372445524,737.461373521,737.773512873,737.961392908,nan,nan
0,331,5421,6,1,90,63,1.0,-0.233635786423,-0.574971871003,1,1.0,1.0,0.375982732046,0,0.0,0.0,0.341466984246,0.366325641221,0.0880051859957,0.454330827217,0.278320455225,nan,nan,0.0,0.0,0.0,nan,nan,344.372445524,738.461498395,738.837481127,738.961512649,nan,nan
0,332,5422,6,1,497,349,0.723174939644,0.271260599794,-1.0,1,1.0,1.0,0.303822477814,0,0.0,0.0,0.330648187082,0.366354728844,0.087874141631,0.454228870475,0.278480587213,nan,nan,0.0,0.0,0.0,nan,nan,344.372445524,739.461633245,739.765455723,739.961643224,nan,nan
0,333,5423,6,1,389,273,-0.0691208065164,0.476626077068,-0.280234315682,1,1.0,1.0,0.335663342383,0,0.0,0.0,0.338489517414,0.366166944307,0.0878087883478,0.453975732654,0.278358155959,nan,nan,0.0,0.0,0.0,nan,nan,344.372445524,740.461788339,740.797451681,740.961766956,nan,nan
0,334,5424,6,1,451,317,0.343830962376,0.403518361206,-1.0,1,1.0,1.0,0.31953336345,0,0.0,0.0,0.319673061216,0.366075616157,0.0876930774225,0.453768693579,0.278382538735,nan,nan,0.0,0.0,0.0,nan,nan,344.372445524,741.461884132,741.781417495,741.961899527,nan,nan
0,335,5425,6,1,263,184,0.405698801511,0.284171736334,0.651829885785,1,1.0,1.0,0.279397291597,0,0.0,0.0,0.311531332477,0.365936684059,0.0875989000402,0.4535355841,0.278337784019,nan,nan,0.0,0.0,0.0,nan,nan,344.372445524,742.462012711,742.741410003,742.962026395,nan,nan
0,336,5426,6,1,460,323,0.415848916989,0.383334931935,-1.0,1,1.0,1.0,0.335258788895,0,0.0,0.0,0.311396481314,0.365679126344,0.0875953871082,0.453274513452,0.278083739236,nan,nan,0.0,0.0,0.0,nan,nan,344.372445524,743.462119623,743.797378412,743.962149843,nan,nan
0,337,5427,6,1,75,52,1.0,-0.164714458691,-0.791355921409,1,1.0,1.0,0.327126374003,0,0.0,0.0,0.313927484831,0.36558885828,0.0874809766531,0.453069834933,0.278107881627,nan,nan,0.0,0.0,0.0,nan,nan,344.372445524,744.462249342,744.789375716,744.962282984,nan,nan
0,338,5428,6,0,490,344,0.664660387652,0.296157848571,-1.0,0,0.0,1.0,0.478957214858,0,0.0,0.0,0.380447459252,0.365475063948,0.0873764462588,0.452851510207,0.278098617689,nan,nan,0.0,0.0,0.0,nan,nan,344.372445524,745.462405005,745.94136222,745.962434086,nan,nan
0,339,5429,6,1,191,134,1.0,-0.0691479807067,0.414571651978,1,1.0,1.0,0.294840470422,0,0.0,0.0,0.366974686428,0.365809819555,0.0874642727861,0.453274092341,0.278345546769,nan,nan,0.0,0.0,0.0,nan,nan,344.372445524,746.462503364,746.757343835,746.962540712,nan,nan
0,340,5430,6,1,482,338,0.597655625539,0.322480811492,-1.0,1,1.0,1.0,0.222679075785,0,0.0,0.0,0.332158920355,0.365601086176,0.0874200727486,0.453021158924,0.278181013427,nan,nan,0.0,0.0,0.0,nan,nan,344.372445524,747.462644203,747.685323278,747.962664729,nan,nan
0,341,5431,6,1,227,159,0.791019951953,0.125257787881,0.608066708266,1,1.0,1.0,0.446556702722,0,0.0,0.0,0.321358749643,0.365181960045,0.0876332383026,0.452815198348,0.277548721743,nan,nan,0.0,0.0,0.0,nan,nan,344.372445524,748.462757101,748.909313804,748.962791598,nan,nan
0,342,5432,6,1,158,111,1.0,-0.235949227405,0.139764106,1,1.0,1.0,0.358401319478,0,0.0,0.0,0.342545699328,0.365419897889,0.0876152671999,0.453035165089,0.277804630689,nan,nan,0.0,0.0,0.0,nan,nan,344.372445524,749.46289908,749.821300399,749.962918466,nan,nan
0,343,5433,6,1,390,274,-0.0641960347588,0.476284203309,-0.291947553613,1,1.0,1.0,0.270237953868,0,0.0,0.0,0.358398658689,0.365399435562,0.0874882733122,0.452887708874,0.277911162249,nan,nan,0.0,0.0,0.0,nan,nan,344.372445524,750.463017111,750.733255065,750.96304391,nan,nan
0,344,5434,6,1,328,230,-0.132159558243,0.44685796506,0.336046158271,1,1.0,1.0,0.278102092445,0,0.0,0.0,0.30224712193,0.365122803347,0.0875111169948,0.452633920342,0.277611686353,nan,nan,0.0,0.0,0.0,nan,nan,344.372445524,751.463141983,751.741244076,751.963177906,nan,nan
0,345,5435,6,1,494,347,0.698129958021,0.282143999684,-1.0,1,1.0,1.0,0.261949019972,0,1.0,0.0,0.270096355428,0.364870569403,0.0875093359848,0.452379905388,0.277361233418,nan,nan,0.0,0.0,0.0,nan,nan,344.372445524,752.46327769,752.72522671,752.963303064,nan,nan
0,346,5439,6,1,47,33,1.0,-0.0170755915744,-1.0,1,1.0,1.0,0.309829773847,1,0.0,0.0,0.283293628755,0.364573108277,0.0875572838142,0.452130392092,0.277015824463,69.5671713206,29.0,1.0,0.0770173926463,-1.0,-12.6140463206,1.14210358867,344.372445524,753.463409975,753.773239749,753.963444187,755.288621347,756.438754431
0,347,5440,6,1,501,352,0.7564492333,0.256253544744,-1.0,1,1.0,1.0,0.349540479481,0,0.0,0.0,0.307106424433,0.364415346507,0.0874802631769,0.451895609683,0.27693508333,nan,nan,0.0,0.0,0.0,nan,nan,344.372445524,757.655593847,758.005134327,758.15562977,nan,nan
0,348,5441,6,1,71,49,1.0,-0.144504067012,-0.877980773838,1,1.0,1.0,0.32540666312,0,0.0,0.0,0.328258972149,0.364372602636,0.0873581114349,0.451730714071,0.277014491201,nan,nan,0.0,0.0,0.0,nan,nan,344.372445524,758.655723567,758.98113023,759.155757494,nan,nan
0,349,5442,6,1,167,117,1.0,-0.195605812978,0.221546716301,1,1.0,1.0,0.301269141492,0,0.0,0.0,0.325405428031,0.364260952379,0.0872577282286,0.451518680608,0.277003224151,nan,nan,0.0,0.0,0.0,nan,nan,344.372445524,759.655850721,759.957119862,760.155902323,nan,nan
0,350,5443,6,1,508,357,0.814199817736,0.228638933499,-1.0,1,1.0,1.0,0.261141622905,0,0.0,0.0,0.295939142505,0.364080975777,0.0871978311906,0.451278806967,0.276883144586,nan,nan,0.0,0.0,0.0,nan,nan,344.372445524,760.655998971,760.917140594,761.156034038,nan,nan
0,351,5444,6,1,21,14,1.0,0.116713997928,-1.0,1,1.0,1.0,0.484950826503,0,0.0,0.0,0.3491205303,0.363787701267,0.0872462203101,0.451033921577,0.276541480957,nan,nan,0.0,0.0,0.0,nan,nan,344.372445524,761.656122419,762.141073245,762.15614095,nan,nan
0,352,5445,6,1,284,199,0.188465149253,0.353984098999,0.602236276499,1,1.0,1.0,0.372822423,0,0.0,0.0,0.372971624136,0.364131914691,0.0873605501666,0.451492464858,0.276771364525,nan,nan,0.0,0.0,0.0,nan,nan,344.372445524,762.656247577,763.02907,763.156291482,nan,nan
0,353,5446,6,0,141,99,1.0,-0.291952736687,-0.024586852943,0,0.0,1.0,0.396636073943,0,0.0,0.0,0.418136441149,0.364156533695,0.0872379450397,0.451394478735,0.276918588655,nan,nan,0.0,0.0,0.0,nan,nan,344.372445524,763.656394687,764.053030761,764.156426618,nan,nan
0,354,5447,6,1,185,130,1.0,-0.102214474652,0.370299946716,1,1.0,1.0,0.292536880355,0,0.0,0.0,0.353998459099,0.364248283809,0.0871316943842,0.451379978193,0.277116589424,nan,nan,0.0,0.0,0.0,nan,nan,344.372445524,764.656483638,764.949020518,765.156522696,nan,nan
0,355,5449,6,1,464,326,0.448404880525,0.373503555275,-1.0,1,1.0,1.0,0.257663429249,0,0.0,0.0,0.315612127849,0.364046279855,0.0870918573878,0.451138137243,0.276954422467,nan,nan,0.0,0.0,0.0,nan,nan,344.372445524,765.723321116,765.980984545,766.223332805,nan,nan
0,356,5450,6,0,275,193,0.279002393219,0.326185254474,0.630178474337,0,1.0,0.0,0.249533009715,0,0.0,0.0,0.266577773107,0.363747451623,0.0871515138587,0.450898965482,0.276595937764,nan,nan,0.0,0.0,0.0,nan,nan,344.372445524,766.723453972,766.972986981,767.223486473,nan,nan
0,357,5451,6,1,107,75,1.0,-0.290089771429,-0.379592780214,1,1.0,1.0,0.178704732098,0,0.0,0.0,0.228633723687,0.363427523214,0.0872384597885,0.450665983003,0.276189063426,nan,nan,0.0,0.0,0.0,nan,nan,344.372445524,767.754279889,767.932984621,768.256952681,nan,nan
0,358,5452,6,1,445,312,0.296953900578,0.415520102116,-1.0,1,1.0,1.0,0.271917180158,0,0.0,0.0,0.23338497399,0.362911537764,0.0876603580953,0.45057189586,0.275251179669,nan,nan,0.0,0.0,0.0,nan,nan,344.372445524,768.757030798,769.028947978,769.257047618,nan,nan
0,359,5453,6,1,242,170,0.632911854383,0.197161183215,0.645921401967,1,1.0,1.0,0.279778182507,0,1.0,0.0,0.243466698254,0.362658071587,0.0876694546919,0.450327526279,0.274988616895,nan,nan,0.0,0.0,0.0,nan,nan,344.372445524,769.757159377,770.036937559,770.257179618,nan,nan
0,360,5500,6,1,459,322,0.407758158413,0.385709174134,-1.0,1,1.0,1.0,0.431635538116,1,0.0,0.0,0.327776966927,0.362427849673,0.0876562104809,0.450084060154,0.274771639192,142.781046223,437.0,0.23613482661,0.429770237144,-1.0,-15.515421223,4.65921344934,344.372445524,770.757264007,771.188899545,771.257297649,772.590810214,777.258066273
0,361,5501,6,1,161,113,1.0,-0.223158351501,0.167490545043,1,1.0,1.0,0.594167810865,0,0.0,0.0,0.435193843829,0.362619560721,0.0876102626386,0.45022982336,0.275009298083,nan,nan,0.0,0.0,0.0,nan,nan,344.372445524,778.466604211,779.060772022,778.966665792,nan,nan
0,362,5502,6,1,99,69,1.0,-0.267176270739,-0.468793303331,1,1.0,1.0,0.322026258335,0,0.0,0.0,0.449276535772,0.363259196772,0.0883292272933,0.451588424065,0.274929969478,nan,nan,0.0,0.0,0.0,nan,nan,344.372445524,779.466731935,779.788758194,779.966771564,nan,nan
0,363,5503,6,1,15,10,0.965734432428,0.145352784795,-1.0,1,1.0,1.0,0.281894748565,0,0.0,0.0,0.399362939255,0.363145607409,0.0882339495748,0.451379556984,0.274911657835,nan,nan,0.0,0.0,0.0,nan,nan,344.372445524,780.466861085,780.748755833,780.966876765,nan,nan
0,364,5504,6,1,288,202,0.150005133015,0.365331945294,0.586687239957,1,1.0,1.0,0.337753680069,0,0.0,0.0,0.313891562323,0.362922390764,0.0882152400774,0.451137630842,0.274707150687,nan,nan,0.0,0.0,0.0,nan,nan,344.372445524,781.466972272,781.804725952,781.967002208,nan,nan
0,365,5505,6,1,49,34,1.0,-0.027785429985,-1.0,1,1.0,1.0,0.305573548656,0,0.0,0.0,0.308407325763,0.362853435393,0.0881041372048,0.450957572597,0.274749298188,nan,nan,0.0,0.0,0.0,nan,nan,344.372445524,782.467117672,782.772691221,782.967139055,nan,nan
0,366,5506,6,1,460,323,0.415848916989,0.383334931935,-1.0,1,1.0,1.0,0.329438801855,0,0.0,0.0,0.324255343527,0.36269693297,0.088034483949,0.450731416919,0.274662449021,nan,nan,0.0,0.0,0.0,nan,nan,344.372445524,783.467235418,783.79667422,783.967261077,nan,nan
0,367,5507,6,1,417,293,0.0945046041228,0.457053563907,-0.645720198395,1,1.0,1.0,0.337319761049,0,0.0,0.0,0.324110703853,0.362606311359,0.0879315569028,0.450537868262,0.274674754456,nan,nan,0.0,0.0,0.0,nan,nan,344.372445524,784.467351738,784.804671499,784.967387945,nan,nan
0,368,5508,6,0,340,239,-0.166837174664,0.460980112934,0.232376404312,0,0.0,1.0,0.489127224311,0,0.0,0.0,0.385295262405,0.362537597907,0.0878218694098,0.450359467317,0.274715728497,nan,nan,0.0,0.0,0.0,nan,nan,344.372445524,785.467510822,785.956638047,785.975879869,nan,nan
0,369,5509,6,1,28,19,1.0,0.082066132397,-1.0,1,1.0,1.0,0.281031472608,0,0.0,0.0,0.36915948599,0.362880659225,0.0879493575066,0.450830016732,0.274931301719,nan,nan,0.0,0.0,0.0,nan,nan,344.372445524,786.467607756,786.748639228,786.967671047,nan,nan
0,370,5510,6,1,502,352,0.764740937618,0.25241357569,-1.0,1,1.0,1.0,0.352871847339,0,0.0,0.0,0.374343514753,0.362659445207,0.0879331626314,0.450592607839,0.274726282576,nan,nan,0.0,0.0,0.0,nan,nan,344.372445524,787.46775116,787.820623007,787.967776248,nan,nan
0,371,5511,6,1,226,158,0.801265930663,0.120208988367,0.60458276857,1,1.0,1.0,0.344685263466,0,0.0,0.0,0.326196194471,0.362633063542,0.0878160406037,0.450449104146,0.274817022938,nan,nan,0.0,0.0,0.0,nan,nan,344.372445524,788.467893994,788.812579257,788.967903117,nan,nan
0,372,5512,6,1,410,288,0.0492046846968,0.463921527344,-0.54316189137,1,1.0,1.0,0.320563421585,0,0.0,0.0,0.339373510797,0.362584816768,0.0877028524183,0.450287669186,0.274881964349,nan,nan,0.0,0.0,0.0,nan,nan,344.372445524,789.468008033,789.788571455,789.968025709,nan,nan
0,373,5513,6,0,291,204,0.122027637739,0.373441943191,0.573791926984,0,0.0,1.0,0.456402841024,0,0.0,0.0,0.373883842025,0.362472158872,0.0876121581214,0.450084316993,0.27486000075,nan,nan,0.0,0.0,0.0,nan,nan,344.372445524,790.468158565,790.924561406,790.968185079,nan,nan
0,374,5514,6,1,183,128,1.0,-0.113108999915,0.354902835149,1,1.0,1.0,0.352309064008,0,0.0,0.0,0.376425108872,0.362723310428,0.0876293001221,0.45035261055,0.275094010306,nan,nan,0.0,0.0,0.0,nan,nan,344.372445524,791.468248371,791.820557435,791.968309382,nan,nan
0,375,5515,6,1,428,300,0.170378320166,0.443486568519,-0.86866140055,1,1.0,1.0,0.440142286941,0,0.0,0.0,0.416284730658,0.362695539104,0.0875140310736,0.450209570178,0.275181508031,nan,nan,0.0,0.0,0.0,nan,nan,344.372445524,792.468393485,792.908535772,792.968420284,nan,nan
0,376,5516,6,1,262,184,0.416452475899,0.2804144186,0.652815538838,1,1.0,1.0,0.416014742572,0,0.0,0.0,0.402822031174,0.362901514498,0.0874885503095,0.450390064807,0.275412964188,nan,nan,0.0,0.0,0.0,nan,nan,344.372445524,793.468498116,793.884512859,793.9685386,nan,nan
0,377,5517,6,1,63,44,1.0,-0.102744642793,-1.0,1,1.0,1.0,0.407873489428,0,0.0,0.0,0.421343506314,0.363042398392,0.0874151379593,0.450457536351,0.275627260432,nan,nan,0.0,0.0,0.0,nan,nan,344.372445524,794.468629546,794.876503036,794.968697399,nan,nan
0,378,5518,6,1,426,299,0.156193047225,0.446210853967,-0.81485970128,1,1.0,1.0,0.343708802946,0,0.0,0.0,0.389199011649,0.363160999162,0.0873297997222,0.450490798884,0.275831199439,nan,nan,0.0,0.0,0.0,nan,nan,344.372445524,795.468768104,795.812476907,795.968789486,nan,nan
0,379,5519,6,1,509,357,0.822386376617,0.224555004187,-1.0,1,1.0,1.0,0.343578228261,0,0.0,0.0,0.365053506879,0.363109674106,0.087220221251,0.450329895357,0.275889452855,nan,nan,0.0,0.0,0.0,nan,nan,344.372445524,796.468878722,796.81245695,796.96891607,nan,nan
0,380,5520,6,1,171,120,1.0,-0.176011872558,0.256450910142,1,1.0,1.0,0.32742287498,0,0.0,0.0,0.338236635396,0.363058275564,0.0871111293364,0.4501694049,0.275947146228,nan,nan,0.0,0.0,0.0,nan,nan,344.372445524,797.469007586,797.796430461,797.969046644,nan,nan
0,381,5521,6,1,286,201,0.169078956243,0.359734776014,0.594698705761,1,1.0,1.0,0.311272939201,0,0.0,0.0,0.327424680814,0.362964744329,0.0870158388058,0.449980583135,0.275948905523,nan,nan,0.0,0.0,0.0,nan,nan,344.372445524,798.469138731,798.78041167,798.969177504,nan,nan
0,382,5522,6,1,370,260,-0.144805996584,0.478178727438,-0.0671803333712,1,1.0,1.0,0.311083348934,0,0.0,0.0,0.316593054372,0.362829425467,0.0869420003036,0.449771425771,0.275887425164,nan,nan,0.0,0.0,0.0,nan,nan,344.372445524,799.469298671,799.78038202,799.969305228,nan,nan
0,383,5523,6,1,180,126,1.0,-0.129278616986,0.331238955499,1,1.0,1.0,0.310932531953,0,0.0,0.0,0.311096273363,0.362694318218,0.0868685695275,0.449562887745,0.27582574869,nan,nan,0.0,0.0,0.0,nan,nan,344.372445524,800.469444356,800.780376888,800.969435518,nan,nan
0,384,5524,6,1,116,81,1.0,-0.306446923025,-0.282515442494,1,1.0,1.0,0.291858632583,0,0.0,0.0,0.304624837823,0.362559521899,0.0867954841675,0.449355006067,0.275764037732,nan,nan,0.0,0.0,0.0,nan,nan,344.372445524,801.496510973,801.788369605,801.994572593,nan,nan
0,385,5525,6,1,174,122,1.0,-0.160790688716,0.281981279739,1,1.0,1.0,0.277706661727,0,0.0,0.0,0.293499275421,0.362375883226,0.0867573532784,0.449133236504,0.275618529947,nan,nan,0.0,0.0,0.0,nan,nan,344.372445524,802.494660118,802.772366779,802.994698036,nan,nan
0,386,5526,6,1,357,251,-0.1717918326,0.473767524415,0.068739031695,1,1.0,1.0,0.285548847169,0,0.0,0.0,0.28503804716,0.362156532911,0.0867517312362,0.448908264147,0.275404801675,nan,nan,0.0,0.0,0.0,nan,nan,344.372445524,803.494775298,803.780324145,803.994820628,nan,nan
0,387,5527,6,0,297,208,0.0686262056446,0.388646276542,0.544904663634,0,1.0,0.0,0.301387457177,0,0.0,0.0,0.288214322024,0.361958580235,0.086726822319,0.448685402554,0.275231757916,nan,nan,0.0,0.0,0.0,nan,nan,344.372445524,804.49494265,804.796330107,804.9949723,nan,nan
