block,trial,time,setsize,freqtrials,trials_colorind,trials_colordeg,colorrgb0,colorrgb1,colorrgb2,correct_response,actual_response,acc,rts,probe_trials,rt_triggered_fast,rt_triggered_slow,rt_strailingavg,rts_runningavg,rts_runningstd,rts_runningslowthresh,rts_runningfastthresh,wm_respdeg,wm_respind,wm_resprgb0,wm_resprgb1,wm_resprgb2,wm_respcolorminusorigcolor,wm_rts,time_blockstart,time_encarray_onset,time_response,time_encarray_offest,time_memprobe_onset,time_memprobe_offset
0,0,1227,6,1,310,217,-0.032854544558,0.417080732083,0.468828018046,1,1.0,1.0,0.44596157223,0,nan,nan,nan,nan,nan,nan,nan,nan,nan,0.0,0.0,0.0,nan,nan,477.247280886,478.265291605,478.711253177,478.765331804,nan,nan
0,1,1228,6,1,391,274,-0.0591907973189,0.475916278612,-0.303718712187,1,1.0,1.0,0.364586332813,0,nan,nan,nan,nan,nan,nan,nan,nan,nan,0.0,0.0,0.0,nan,nan,477.247280886,479.290672936,479.655259269,479.790460254,nan,nan
0,2,1229,6,1,457,321,0.391639248186,0.390358177281,-1.0,1,1.0,1.0,0.356345604174,0,nan,nan,nan,nan,nan,nan,nan,nan,nan,0.0,0.0,0.0,nan,nan,477.247280886,480.298876888,480.655222492,480.798927636,nan,nan
0,3,1230,6,1,119,83,1.0,-0.309446327048,-0.250710895617,1,1.0,1.0,0.355859798379,0,nan,nan,nan,nan,nan,nan,nan,nan,nan,0.0,0.0,0.0,nan,nan,477.247280886,481.307341133,481.663200932,481.807389315,nan,nan
0,4,1231,6,1,299,210,0.0516645560415,0.393417669654,0.534378752182,1,1.0,1.0,0.355365439318,0,nan,nan,nan,nan,nan,nan,nan,nan,nan,0.0,0.0,0.0,nan,nan,477.247280886,482.315824766,482.671190205,482.815849569,nan,nan
0,5,1232,6,1,12,8,0.942476689623,0.159273951266,-1.0,1,1.0,1.0,0.394884447567,0,nan,nan,nan,nan,nan,nan,nan,nan,nan,0.0,0.0,0.0,nan,nan,477.247280886,483.324271619,483.719156067,483.824311818,nan,nan
0,6,1233,6,1,215,151,0.910639861846,0.0628947364355,0.558695148714,1,1.0,1.0,0.322745781392,0,nan,nan,nan,nan,nan,nan,nan,nan,nan,0.0,0.0,0.0,nan,nan,477.247280886,484.324425572,484.647171353,484.824480025,nan,nan
0,7,1234,6,1,385,270,-0.0879796604702,0.477733444059,-0.233926720364,1,1.0,1.0,0.346562214196,0,nan,nan,nan,nan,nan,nan,nan,nan,nan,0.0,0.0,0.0,nan,nan,477.247280886,485.324535334,485.671097549,485.824579524,nan,nan
0,8,1235,6,1,91,63,1.0,-0.237709898716,-0.562722318432,1,1.0,1.0,0.370423124172,0,nan,nan,nan,nan,nan,nan,nan,nan,nan,0.0,0.0,0.0,nan,nan,477.247280886,486.324669329,486.695092454,486.824732051,nan,nan
0,9,1236,6,1,301,211,0.0351599448551,0.39804275895,0.523414514543,1,1.0,1.0,0.313976196572,0,nan,nan,nan,nan,nan,nan,nan,nan,nan,0.0,0.0,0.0,nan,nan,477.247280886,487.333117895,487.647094091,487.833165221,nan,nan
0,10,1237,6,1,403,283,0.00657627305109,0.469456436931,-0.450524507496,1,1.0,1.0,0.361466516741,0,nan,nan,nan,nan,nan,nan,nan,nan,nan,0.0,0.0,0.0,nan,nan,477.247280886,488.341588411,488.703054928,488.841644291,nan,nan
0,11,1238,6,1,498,350,0.731507943485,0.267561876527,-1.0,1,1.0,1.0,0.265000236221,0,nan,nan,nan,nan,nan,nan,nan,nan,nan,0.0,0.0,0.0,nan,nan,477.247280886,489.350051802,489.615052038,489.850100554,nan,nan
0,12,1239,6,1,120,84,1.0,-0.310161497659,-0.240162905937,1,1.0,1.0,0.288511046208,0,nan,nan,nan,nan,nan,nan,nan,nan,nan,0.0,0.0,0.0,nan,nan,477.247280886,490.3585246,490.647035646,490.858551399,nan,nan
0,13,1240,6,1,309,217,-0.0258396312562,0.415106541901,0.475305697888,1,1.0,1.0,0.320031656884,0,nan,nan,nan,nan,nan,nan,nan,nan,nan,0.0,0.0,0.0,nan,nan,477.247280886,491.366982288,491.687013945,491.867020206,nan,nan
0,14,1241,6,1,8,5,0.91102658764,0.177400941622,-1.0,1,1.0,1.0,0.30351826828,0,nan,nan,nan,nan,nan,nan,nan,nan,nan,0.0,0.0,0.0,nan,nan,477.247280886,492.375437125,492.678955393,492.875487586,nan,nan
0,15,1242,6,1,300,210,0.0433537089178,0.395748422077,0.528951029102,1,1.0,1.0,0.327361785807,0,nan,nan,nan,nan,nan,nan,nan,nan,nan,0.0,0.0,0.0,nan,nan,477.247280886,493.375592218,493.702954004,493.875650377,nan,nan
0,16,1243,6,1,366,257,-0.155593376329,0.477302029306,-0.0244766492797,1,1.0,1.0,0.383202026598,0,nan,nan,nan,nan,nan,nan,nan,nan,nan,0.0,0.0,0.0,nan,nan,477.247280886,494.375727639,494.758929665,494.875757573,nan,nan
0,17,1244,6,1,309,217,-0.0258396312562,0.415106541901,0.475305697888,1,1.0,1.0,0.389371526428,0,nan,nan,nan,nan,nan,nan,nan,nan,nan,0.0,0.0,0.0,nan,nan,477.247280886,495.417529417,495.806900944,495.917576173,nan,nan
0,18,1245,6,1,85,59,1.0,-0.212156452387,-0.638781227021,1,1.0,1.0,0.365261727944,0,nan,nan,nan,nan,nan,nan,nan,nan,nan,0.0,0.0,0.0,nan,nan,477.247280886,496.417652294,496.782914022,496.917685365,nan,nan
0,19,1251,6,1,417,293,0.0945046041228,0.457053563907,-0.645720198395,1,1.0,1.0,0.252758170478,1,nan,nan,nan,nan,nan,nan,nan,43.9190758133,66.0,1.0,-0.118568705386,-1.0,112.877799187,2.32558705751,477.247280886,497.426099149,497.678857319,497.926153032,499.251335822,501.584959479
0,20,1252,6,0,243,170,0.622151010882,0.20168048164,0.647463484622,0,0.0,1.0,0.74120689556,0,nan,nan,nan,nan,nan,nan,nan,nan,nan,0.0,0.0,0.0,nan,nan,477.247280886,502.793528753,503.534735649,503.293537022,nan,nan
0,21,1253,6,1,109,76,1.0,-0.294638327523,-0.357773695079,1,1.0,1.0,0.44481177628,0,nan,nan,nan,nan,nan,nan,nan,nan,nan,0.0,0.0,0.0,nan,nan,477.247280886,503.80192315,504.246734926,504.301963064,nan,nan
0,22,1254,6,0,354,248,-0.174470673547,0.472100788149,0.0988677247603,0,0.0,1.0,0.420623575337,0,nan,nan,nan,nan,nan,nan,nan,nan,nan,0.0,0.0,0.0,nan,nan,477.247280886,504.802094493,505.222718068,505.302115875,nan,nan
0,23,1255,6,1,123,86,1.0,-0.311441137266,-0.208672863777,1,1.0,1.0,0.372150811367,0,nan,nan,nan,nan,nan,nan,nan,nan,nan,0.0,0.0,0.0,nan,nan,477.247280886,505.810534505,506.182685317,506.310564441,nan,nan
0,24,1256,6,1,365,256,-0.157962026257,0.477016591838,-0.0139196855225,1,1.0,1.0,0.436025941744,0,nan,nan,nan,nan,nan,nan,nan,nan,nan,0.0,0.0,0.0,nan,nan,477.247280886,506.810648544,507.246674486,507.310681615,nan,nan
0,25,1257,6,1,196,137,1.0,-0.0413610816081,0.449130757868,1,1.0,1.0,0.395839522593,0,nan,nan,nan,nan,nan,nan,nan,nan,nan,0.0,0.0,0.0,nan,nan,477.247280886,507.810805062,508.206644584,508.310830151,nan,nan
0,26,1258,6,1,310,217,-0.032854544558,0.417080732083,0.468828018046,1,1.0,1.0,0.385662129149,0,nan,nan,nan,nan,nan,nan,nan,nan,nan,0.0,0.0,0.0,nan,nan,477.247280886,508.860967026,509.246629155,509.36095106,nan,nan
0,27,1259,6,1,16,11,0.973419431522,0.140652110383,-1.0,1,1.0,1.0,0.433541891165,0,nan,nan,nan,nan,nan,nan,nan,nan,nan,0.0,0.0,0.0,nan,nan,477.247280886,509.861069091,510.294610982,510.361082776,nan,nan
0,28,1300,6,1,363,255,-0.162287729338,0.476365729747,0.00704812682028,1,1.0,1.0,0.457051846199,0,nan,nan,nan,nan,nan,nan,nan,nan,nan,0.0,0.0,0.0,nan,nan,477.247280886,510.869521362,511.326573208,511.369539037,nan,nan
0,29,1301,6,1,80,56,1.0,-0.189075709245,-0.708965549488,1,1.0,1.0,0.480600859039,0,nan,nan,nan,nan,nan,nan,nan,nan,nan,0.0,0.0,0.0,nan,nan,477.247280886,511.877962799,512.358563658,512.377999862,nan,nan
0,30,1302,6,1,155,108,1.0,-0.2479831371,0.111611878621,1,1.0,1.0,0.416453461163,0,nan,nan,nan,nan,nan,nan,nan,nan,nan,0.0,0.0,0.0,nan,nan,477.247280886,512.878107914,513.294561375,513.378134998,nan,nan
0,31,1303,6,1,268,188,0.35230222188,0.302367520405,0.645005310408,1,1.0,1.0,0.544259030372,0,nan,nan,nan,nan,nan,nan,nan,nan,nan,0.0,0.0,0.0,nan,nan,477.247280886,513.878246755,514.422505786,514.378322876,nan,nan
0,32,1304,6,1,314,220,-0.0594438881467,0.42463230952,0.441925406839,1,1.0,1.0,0.680112887174,0,nan,nan,nan,nan,nan,nan,nan,nan,nan,0.0,0.0,0.0,nan,nan,477.247280886,514.878365356,515.558478243,515.378444328,nan,nan
0,33,1305,6,1,214,150,0.920243657418,0.0575410437433,0.553854850604,1,1.0,1.0,0.407988646068,0,nan,nan,nan,nan,nan,nan,nan,nan,nan,0.0,0.0,0.0,nan,nan,477.247280886,515.878498212,516.286486858,516.37852615,nan,nan
0,34,1306,6,1,42,29,1.0,0.00954878589686,-1.0,1,0.0,0.0,0.583852732554,0,0.0,0.0,nan,nan,nan,nan,nan,nan,nan,0.0,0.0,0.0,nan,nan,477.247280886,516.878624794,517.462477527,517.3787012,nan,nan
0,35,1307,6,1,353,248,-0.175041255135,0.471490071959,0.108799216003,1,1.0,1.0,0.511667595245,0,nan,nan,nan,nan,nan,nan,nan,nan,nan,0.0,0.0,0.0,nan,nan,477.247280886,517.878766772,518.390434368,518.378828638,nan,nan
0,36,1308,6,0,467,328,0.473005185182,0.365775667588,-1.0,0,0.0,1.0,0.495503164828,0,nan,nan,nan,nan,nan,nan,nan,nan,nan,0.0,0.0,0.0,nan,nan,477.247280886,518.878918444,519.374421609,519.387276063,nan,nan
0,37,1309,6,1,161,113,1.0,-0.223158351501,0.167490545043,1,1.0,1.0,0.431372873485,0,nan,nan,nan,nan,nan,nan,nan,nan,nan,0.0,0.0,0.0,nan,nan,477.247280886,519.879028777,520.31040165,520.379049874,nan,nan
0,38,1310,6,1,483,339,0.606025706087,0.319314454546,-1.0,1,1.0,1.0,0.439214752056,0,nan,nan,nan,nan,nan,nan,nan,nan,nan,0.0,0.0,0.0,nan,nan,477.247280886,520.879168189,521.318382941,521.379178452,nan,nan
0,39,1311,6,1,75,52,1.0,-0.164714458691,-0.791355921409,1,1.0,1.0,0.359067425132,0,nan,nan,nan,nan,nan,nan,nan,nan,nan,0.0,0.0,0.0,nan,nan,477.247280886,521.879307317,522.238374742,522.379313588,nan,nan
0,40,1312,6,1,249,175,0.557275547736,0.228026269286,0.654084877906,1,1.0,1.0,0.286929043941,0,nan,nan,nan,nan,nan,nan,nan,nan,nan,0.0,0.0,0.0,nan,nan,477.247280886,522.879433899,523.166362943,523.379463265,nan,nan
0,41,1313,6,1,485,341,0.622774561467,0.312875618285,-1.0,1,1.0,1.0,0.334754921496,0,nan,nan,nan,nan,nan,nan,nan,nan,nan,0.0,0.0,0.0,nan,nan,477.247280886,523.879545943,524.214300864,524.379573883,nan,nan
0,42,1314,6,1,210,147,0.958022500947,0.0359304984579,0.533421856807,1,1.0,1.0,0.39063393604,0,nan,nan,nan,nan,nan,nan,nan,nan,nan,0.0,0.0,0.0,nan,nan,477.247280886,524.879659696,525.270293633,525.379710443,nan,nan
0,43,1315,6,1,87,61,1.0,-0.220959007447,-0.612675615602,1,1.0,1.0,0.366470254026,0,nan,nan,nan,nan,nan,nan,nan,nan,nan,0.0,0.0,0.0,nan,nan,477.247280886,525.879791982,526.246262236,526.379822772,nan,nan
0,44,1323,6,1,403,283,0.00657627305109,0.469456436931,-0.450524507496,1,1.0,1.0,0.342292886227,1,nan,nan,nan,nan,nan,nan,nan,161.807486033,410.0,0.0492046846968,0.463921527344,-0.54316189137,4.83313896717,4.81760149077,477.247280886,526.87994964,527.222242527,527.37995078,528.705126728,533.530748568
0,45,1324,6,1,108,75,1.0,-0.292426609412,-0.368663285579,1,1.0,1.0,0.586821733043,0,nan,nan,nan,nan,nan,nan,nan,nan,nan,0.0,0.0,0.0,nan,nan,477.247280886,534.73928249,535.326104223,535.239359751,nan,nan
0,46,1325,6,0,191,134,1.0,-0.0691479807067,0.414571651978,0,0.0,1.0,0.490631426685,0,nan,nan,nan,nan,nan,nan,nan,nan,nan,0.0,0.0,0.0,nan,nan,477.247280886,535.739444425,536.230075852,536.247798053,nan,nan
0,47,1326,6,1,482,338,0.597655625539,0.322480811492,-1.0,1,1.0,1.0,0.354510718957,0,nan,nan,nan,nan,nan,nan,nan,nan,nan,0.0,0.0,0.0,nan,nan,477.247280886,536.739535942,537.094046661,537.239566161,nan,nan
0,48,1327,6,0,31,21,1.0,0.0668515730764,-1.0,0,0.0,1.0,0.434308516793,0,nan,nan,nan,nan,nan,nan,nan,nan,nan,0.0,0.0,0.0,nan,nan,477.247280886,537.739713842,538.174022359,538.239762023,nan,nan
0,49,1336,6,1,302,212,0.027086081288,0.400300843718,0.517770016443,1,1.0,1.0,0.346218387596,1,nan,nan,nan,nan,nan,nan,nan,75.6563786896,20.0,1.0,0.121558187834,-1.0,161.99987131,6.27611217741,477.247280886,538.739794524,539.086012912,539.239829876,540.564998697,546.849146049
0,50,1337,6,1,425,298,0.149162615564,0.447529597292,-0.791715667876,1,nan,nan,nan,0,nan,nan,nan,nan,nan,nan,nan,nan,nan,0.0,0.0,0.0,nan,nan,477.247280886,548.057666572,nan,548.557746399,nan,nan
0,51,1338,6,1,116,81,1.0,-0.306446923025,-0.282515442494,1,1.0,1.0,0.651990917511,0,nan,nan,nan,nan,nan,nan,nan,nan,nan,0.0,0.0,0.0,nan,nan,477.247280886,549.057798572,549.709789489,549.557870986,nan,nan
0,52,1339,6,1,477,335,0.555879874869,0.337784025865,-1.0,1,1.0,1.0,0.411894190125,0,nan,nan,nan,nan,nan,nan,nan,nan,nan,0.0,0.0,0.0,nan,nan,477.247280886,550.057940265,550.469834455,550.557963072,nan,nan
0,53,1340,6,1,1,0,0.854939129564,0.207877072944,-1.0,1,1.0,1.0,0.339701925404,0,nan,nan,nan,nan,nan,nan,nan,nan,nan,0.0,0.0,0.0,nan,nan,477.247280886,551.05805915,551.397761076,551.558101345,nan,nan
0,54,1341,6,1,432,303,0.199227897075,0.437687328843,-1.0,1,1.0,1.0,0.443545090966,0,nan,nan,nan,nan,nan,nan,nan,nan,nan,0.0,0.0,0.0,nan,nan,477.247280886,552.05820683,552.501751921,552.558215098,nan,nan
0,55,1342,6,1,361,253,-0.166047812515,0.475607712818,0.0278173107143,1,1.0,1.0,0.419395661913,0,nan,nan,nan,nan,nan,nan,nan,nan,nan,0.0,0.0,0.0,nan,nan,477.247280886,553.058346529,553.47774219,553.558351375,nan,nan
0,56,1343,6,0,303,213,0.0191349273956,0.402522842081,0.512018356663,0,0.0,1.0,0.491219867952,0,nan,nan,nan,nan,nan,nan,nan,nan,nan,0.0,0.0,0.0,nan,nan,477.247280886,554.058480524,554.549700391,554.566842134,nan,nan
0,57,1344,6,1,98,68,1.0,-0.263822910468,-0.480217789416,1,1.0,1.0,0.45109788049,0,nan,nan,nan,nan,nan,nan,nan,nan,nan,0.0,0.0,0.0,nan,nan,477.247280886,555.058575746,555.509673626,555.558614234,nan,nan
0,58,1345,6,1,402,282,0.000724920831492,0.470139955471,-0.437811562499,1,0.0,0.0,0.426604054868,0,0.0,0.0,nan,nan,nan,nan,nan,nan,nan,0.0,0.0,0.0,nan,nan,477.247280886,556.06704997,556.493654025,556.567074203,nan,nan
0,59,1346,6,1,264,185,0.394966959701,0.287889713878,0.650717615019,1,1.0,1.0,0.418053140864,0,nan,nan,nan,nan,nan,nan,nan,nan,nan,0.0,0.0,0.0,nan,nan,477.247280886,557.075591191,557.493644332,557.575549567,nan,nan
0,60,1347,6,1,89,62,1.0,-0.229484098413,-0.587370487375,1,1.0,1.0,0.385631624609,0,nan,nan,nan,nan,nan,nan,nan,nan,nan,0.0,0.0,0.0,nan,nan,477.247280886,558.08398017,558.469611795,558.584001267,nan,nan
0,61,1348,6,1,294,206,0.0948761993654,0.381212130724,0.559858230992,1,1.0,1.0,0.3931251131,0,nan,nan,nan,nan,nan,nan,nan,nan,nan,0.0,0.0,0.0,nan,nan,477.247280886,559.092463518,559.485588631,559.592490031,nan,nan
0,62,1349,6,1,185,130,1.0,-0.102214474652,0.370299946716,1,1.0,1.0,0.39267523028,0,nan,nan,nan,nan,nan,nan,nan,nan,nan,0.0,0.0,0.0,nan,nan,477.247280886,560.100911512,560.493586742,560.600940307,nan,nan
0,63,1350,6,0,111,78,1.0,-0.298677811705,-0.336106236365,0,0.0,1.0,0.440505671315,0,nan,nan,nan,nan,nan,nan,nan,nan,nan,0.0,0.0,0.0,nan,nan,477.247280886,561.101058907,561.541564578,561.601083996,nan,nan
0,64,1351,6,1,199,139,1.0,-0.0246761787097,0.468786302982,1,1.0,1.0,0.512302506715,0,nan,nan,nan,nan,nan,nan,nan,nan,nan,0.0,0.0,0.0,nan,nan,477.247280886,562.10121514,562.613517647,562.601236237,nan,nan
0,65,1352,6,1,320,225,-0.0946500390753,0.43494401576,0.398701238857,1,1.0,1.0,0.471897132695,0,nan,nan,nan,nan,nan,nan,nan,nan,nan,0.0,0.0,0.0,nan,nan,477.247280886,563.109618659,563.581515792,563.60964888,nan,nan
0,66,1353,6,1,129,90,1.0,-0.310070485259,-0.146368003411,1,1.0,1.0,0.383411859162,0,nan,nan,nan,nan,nan,nan,nan,nan,nan,0.0,0.0,0.0,nan,nan,477.247280886,564.118075492,564.501487351,564.618141919,nan,nan
0,67,1354,6,1,329,231,-0.136053278316,0.448203788942,0.3278337444,1,1.0,1.0,0.51891989354,0,nan,nan,nan,nan,nan,nan,nan,nan,nan,0.0,0.0,0.0,nan,nan,477.247280886,565.126537456,565.64545735,565.6266361,nan,nan
0,68,1355,6,1,217,152,0.891250405156,0.0735373331823,0.568048345461,1,1.0,1.0,0.422454183921,0,nan,nan,nan,nan,nan,nan,nan,nan,nan,0.0,0.0,0.0,nan,nan,477.247280886,566.134999136,566.557453319,566.635048742,nan,nan
0,69,1356,6,1,434,305,0.213881816697,0.43461034373,-1.0,1,1.0,1.0,0.437950346619,0,nan,nan,nan,nan,nan,nan,nan,nan,nan,0.0,0.0,0.0,nan,nan,477.247280886,567.143473359,567.581423705,567.643505575,nan,nan
0,70,1357,6,1,309,217,-0.0258396312562,0.415106541901,0.475305697888,1,1.0,1.0,0.397901914082,0,nan,nan,nan,nan,nan,nan,nan,nan,nan,0.0,0.0,0.0,nan,nan,477.247280886,568.143611346,568.54151326,568.643635009,nan,nan
0,71,1358,6,1,359,252,-0.169222339917,0.474741883077,0.0483828026834,1,1.0,1.0,0.357634241693,0,nan,nan,nan,nan,nan,nan,nan,nan,nan,0.0,0.0,0.0,nan,nan,477.247280886,569.143758171,569.501392413,569.64376986,nan,nan
0,72,1359,6,1,454,319,0.367627362238,0.397084843583,-1.0,1,1.0,1.0,0.349428295158,0,nan,nan,nan,nan,nan,nan,nan,nan,nan,0.0,0.0,0.0,nan,nan,477.247280886,570.143934361,570.493362656,570.643916685,nan,nan
0,73,1400,6,1,309,217,-0.0258396312562,0.415106541901,0.475305697888,1,1.0,1.0,0.389328761958,0,nan,nan,nan,nan,nan,nan,nan,nan,nan,0.0,0.0,0.0,nan,nan,477.247280886,571.144020746,571.533349507,571.644050681,nan,nan
0,74,1401,6,1,243,170,0.622151010882,0.20168048164,0.647463484622,1,1.0,1.0,0.485199758783,0,nan,nan,nan,nan,nan,nan,nan,nan,nan,0.0,0.0,0.0,nan,nan,477.247280886,572.144140487,572.629340245,572.644147329,nan,nan
0,75,1402,6,1,456,320,0.383612429175,0.392633185378,-1.0,1,1.0,1.0,0.357065473683,0,nan,nan,nan,nan,nan,nan,nan,nan,nan,0.0,0.0,0.0,nan,nan,477.247280886,573.144249394,573.501314867,573.644288166,nan,nan
0,76,1403,6,1,161,113,1.0,-0.223158351501,0.167490545043,1,1.0,1.0,0.340897907503,0,nan,nan,nan,nan,nan,nan,nan,nan,nan,0.0,0.0,0.0,nan,nan,477.247280886,574.144395363,574.48529327,574.644426439,nan,nan
0,77,1408,6,1,27,18,1.0,0.0870912575778,-1.0,1,1.0,1.0,0.42073732987,1,nan,nan,nan,nan,nan,nan,nan,81.5072709719,12.0,0.942476689623,0.159273951266,-1.0,-10.4916459719,1.35880884156,477.247280886,575.144522801,575.565260131,575.644572408,576.969718136,578.33657384
0,78,1409,6,1,428,300,0.170378320166,0.443486568519,-0.86866140055,1,1.0,1.0,0.36408769805,0,nan,nan,nan,nan,nan,nan,nan,nan,nan,0.0,0.0,0.0,nan,nan,477.247280886,579.545091513,579.909179211,580.045122018,nan,nan
0,79,1410,6,1,260,182,0.438016636947,0.272781976488,0.654406567654,1,1.0,1.0,0.387934352271,0,nan,nan,nan,nan,nan,nan,nan,nan,nan,0.0,0.0,0.0,nan,nan,477.247280886,580.545230355,580.933164707,581.045244895,nan,nan
0,80,1411,6,1,343,241,-0.171388175652,0.463836419185,0.204822810802,1,1.0,1.0,0.347743086517,0,0.0,0.0,0.366588378946,0.411599558719,0.0864718237108,0.49807138243,0.325127735008,nan,nan,0.0,0.0,0.0,nan,nan,477.247280886,581.545374614,581.893117701,582.045403124,nan,nan
0,81,1412,6,1,488,343,0.647907709101,0.302951493728,-1.0,1,1.0,1.0,0.339626374654,0,0.0,0.0,0.358434604481,0.410801352817,0.0862220538641,0.497023406681,0.324579298953,nan,nan,0.0,0.0,0.0,nan,nan,477.247280886,582.545488083,582.885114457,583.045535979,nan,nan
0,82,1413,6,0,52,36,1.0,-0.0438860552364,-1.0,0,1.0,0.0,0.507441031747,0,0.0,0.0,0.398270164306,0.409922649383,0.086047843541,0.495970492923,0.323874805842,nan,nan,0.0,0.0,0.0,nan,nan,477.247280886,583.545639469,584.053080501,584.045675391,nan,nan
0,83,1414,6,1,95,66,1.0,-0.253175017597,-0.514975443931,1,1.0,1.0,0.387365869246,0,0.0,0.0,0.411477758549,0.411111897948,0.0861887182734,0.497300616221,0.324923179675,nan,nan,0.0,0.0,0.0,nan,nan,477.247280886,584.545720722,584.933086591,585.045768619,nan,nan
0,84,1415,6,0,182,127,1.0,-0.118523835432,0.347089474713,0,0.0,1.0,0.451146917418,0,0.0,0.0,0.448651272804,0.410825801217,0.0857071002065,0.496532901423,0.32511870101,nan,nan,0.0,0.0,0.0,nan,nan,477.247280886,585.545909741,585.997056658,586.045922286,nan,nan
0,85,1416,6,1,249,175,0.557275547736,0.228026269286,0.654084877906,1,1.0,1.0,0.419051836245,0,0.0,0.0,0.419188207636,0.411305814505,0.085307575229,0.496613389734,0.325998239276,nan,nan,0.0,0.0,0.0,nan,nan,477.247280886,586.546008385,586.965060221,587.046018363,nan,nan
0,86,1417,6,1,141,99,1.0,-0.291952736687,-0.024586852943,1,1.0,1.0,0.410553948954,0,0.0,0.0,0.426917567539,0.411396944172,0.0848083941353,0.496205338307,0.326588550037,nan,nan,0.0,0.0,0.0,nan,nan,477.247280886,587.554480042,587.965033991,588.054493157,nan,nan
0,87,1418,6,1,426,299,0.156193047225,0.446210853967,-0.81485970128,1,1.0,1.0,0.354108162224,0,0.0,0.0,0.394571315808,0.411387141902,0.084313928766,0.495701070668,0.327073213136,nan,nan,0.0,0.0,0.0,nan,nan,477.247280886,588.562913497,588.917021659,589.062988193,nan,nan
0,88,1419,6,1,323,227,-0.11001989341,0.43965344528,0.375855360355,1,1.0,1.0,0.353912585415,0,0.0,0.0,0.372858232198,0.410728762826,0.084050018527,0.494778781353,0.326678744298,nan,nan,0.0,0.0,0.0,nan,nan,477.247280886,589.563062033,589.916974618,590.063086551,nan,nan
0,89,1420,6,1,87,61,1.0,-0.220959007447,-0.612675615602,1,1.0,1.0,0.425733083859,0,0.0,0.0,0.377917943833,0.410083124446,0.0837877922711,0.493870916717,0.326295332175,nan,nan,0.0,0.0,0.0,nan,nan,477.247280886,590.563212849,590.988945933,591.06321456,nan,nan
0,90,1421,6,1,35,24,1.0,0.0462653595507,-1.0,1,1.0,1.0,0.345619113185,0,0.0,0.0,0.37508826082,0.410258966686,0.083332072482,0.493591039168,0.326926894204,nan,nan,0.0,0.0,0.0,nan,nan,477.247280886,591.56331691,591.908936023,592.063341428,nan,nan
0,91,1422,6,1,304,213,0.0113092810281,0.404708921832,0.506160370659,1,1.0,1.0,0.337443957105,0,0.0,0.0,0.36959871805,0.409540746092,0.0831443682903,0.492685114382,0.326396377802,nan,nan,0.0,0.0,0.0,nan,nan,477.247280886,592.563440641,592.900884598,593.063495095,nan,nan
0,92,1423,6,1,90,63,1.0,-0.233635786423,-0.574971871003,1,1.0,1.0,0.377307646908,0,0.0,0.0,0.353456905733,0.408748473686,0.0830271744699,0.491775648155,0.325721299216,nan,nan,0.0,0.0,0.0,nan,nan,477.247280886,593.563588036,593.940895683,594.063608564,nan,nan
0,93,1424,6,1,309,217,-0.0258396312562,0.415106541901,0.475305697888,1,1.0,1.0,0.417178463191,0,0.0,0.0,0.377310022401,0.408406725568,0.0826390360364,0.491045761605,0.325767689532,nan,nan,0.0,0.0,0.0,nan,nan,477.247280886,594.563692953,594.980871416,595.063758525,nan,nan
0,94,1425,6,1,384,270,-0.0924750057551,0.477945316949,-0.222479273925,1,1.0,1.0,0.401018309407,0,0.0,0.0,0.398501473169,0.408501045328,0.082198517994,0.490699563322,0.326302527334,nan,nan,0.0,0.0,0.0,nan,nan,477.247280886,595.563832365,595.964850674,596.06386173,nan,nan
0,95,1426,6,1,267,187,0.362924526182,0.298807232282,0.646622522267,1,1.0,1.0,0.432827438228,0,0.0,0.0,0.417008070275,0.408421441754,0.0817637266245,0.490185168379,0.32665771513,nan,nan,0.0,0.0,0.0,nan,nan,477.247280886,596.563989738,596.996817176,597.063982611,nan,nan
0,96,1427,6,1,193,135,1.0,-0.0580453890011,0.428658791268,1,1.0,1.0,0.424691909924,0,0.0,0.0,0.41951255252,0.40867834698,0.0813703838428,0.490048730823,0.327307963137,nan,nan,0.0,0.0,0.0,nan,nan,477.247280886,597.564100641,597.988792551,598.06413913,nan,nan
0,97,1428,6,0,66,46,1.0,-0.118568705386,-1.0,0,0.0,1.0,0.584560343996,0,0.0,0.0,0.480693230716,0.408845154928,0.0809617967295,0.489806951657,0.327883358198,nan,nan,0.0,0.0,0.0,nan,nan,477.247280886,598.564254593,599.148814937,599.064294507,nan,nan
0,98,1429,6,1,300,210,0.0433537089178,0.395748422077,0.528951029102,1,1.0,1.0,0.352171783336,0,0.0,0.0,0.453808012418,0.410656651722,0.0824758335748,0.493132485297,0.328180818147,nan,nan,0.0,0.0,0.0,nan,nan,477.247280886,599.564595855,599.916767638,600.064379181,nan,nan
0,99,1430,6,1,58,40,1.0,-0.0760896648475,-1.0,1,1.0,1.0,0.648237330839,0,0.0,0.0,0.528323152723,0.410059867351,0.0822642022965,0.492324069647,0.327795665054,nan,nan,0.0,0.0,0.0,nan,nan,477.247280886,600.56448153,601.212718861,601.064560503,nan,nan
0,100,1431,6,1,425,298,0.149162615564,0.447529597292,-0.791715667876,1,1.0,1.0,0.495786266401,0,0.0,1.0,0.498731793525,0.412465700315,0.0852424106584,0.497708110974,0.327223289657,nan,nan,0.0,0.0,0.0,nan,nan,477.247280886,601.572946631,602.068732898,602.089643053,nan,nan
0,101,1436,6,1,320,225,-0.0946500390753,0.43494401576,0.398701238857,1,1.0,1.0,0.447286703624,1,0.0,0.0,0.530436766955,0.413298905976,0.0852193336325,0.498518239609,0.328079572344,-141.458816379,329.0,-0.136053278316,0.448203788942,0.3278337444,6.45881637872,2.05892527569,477.247280886,602.581445088,603.028731791,603.081451075,604.406611627,606.473567516
0,102,1437,6,0,480,337,0.580928072941,0.32870764083,-1.0,0,1.0,0.0,0.378483957611,0,0.0,0.0,0.440518975879,0.413635418824,0.0848631522467,0.498498571071,0.328772266577,nan,nan,0.0,0.0,0.0,nan,nan,477.247280886,607.682099157,608.060583115,608.182133084,nan,nan
0,103,1438,6,1,74,52,1.0,-0.159715158178,-0.810443278181,1,1.0,1.0,0.410366069525,0,0.0,0.0,0.41204557692,0.413290796655,0.0845171247752,0.497807921431,0.32877367188,nan,nan,0.0,0.0,0.0,nan,nan,477.247280886,608.682196376,609.092562445,609.18223686,nan,nan
0,104,1439,6,1,173,121,1.0,-0.165909522591,0.273535192888,1,1.0,1.0,0.514194695279,0,0.0,0.0,0.434348240805,0.413262401246,0.0841063357095,0.497368736956,0.329156065537,nan,nan,0.0,0.0,0.0,nan,nan,477.247280886,609.682329231,610.196523926,610.182385965,nan,nan
0,105,1440,6,1,92,64,1.0,-0.241703663401,-0.55060883727,1,1.0,1.0,0.434048223309,0,0.0,0.0,0.452869662705,0.414232904074,0.0842785315001,0.498511435574,0.329954372573,nan,nan,0.0,0.0,0.0,nan,nan,477.247280886,610.682471209,611.116519433,611.182485749,nan,nan
0,106,1441,6,1,420,295,0.1146601879,0.45369410126,-0.695047497311,1,1.0,1.0,0.385909878649,0,0.0,0.0,0.444717599079,0.4144216214,0.0838983215708,0.49831994297,0.330523299829,nan,nan,0.0,0.0,0.0,nan,nan,477.247280886,611.682597222,612.0685071,612.18262117,nan,nan
0,107,1442,6,1,146,102,1.0,-0.278792578557,0.0248813210997,1,1.0,1.0,0.369760273024,0,0.0,0.0,0.396572791661,0.414152642694,0.083547112936,0.49769975563,0.330605529758,nan,nan,0.0,0.0,0.0,nan,nan,477.247280886,612.682720099,613.052480372,613.182751744,nan,nan
0,108,1443,6,1,415,291,0.0813077335083,0.459153678902,-0.614968023274,1,1.0,1.0,0.345604574308,0,0.0,0.0,0.367091575327,0.413737760735,0.0832654236711,0.497003184406,0.330472337064,nan,nan,0.0,0.0,0.0,nan,nan,477.247280886,613.682861792,614.028466366,614.182901706,nan,nan
0,109,1444,6,1,47,33,1.0,-0.0170755915744,-1.0,1,1.0,1.0,0.361466516741,0,0.0,0.0,0.358943788024,0.413106897898,0.0831355509463,0.496242448844,0.329971346951,nan,nan,0.0,0.0,0.0,nan,nan,477.247280886,614.682977826,615.044444343,615.183005766,nan,nan
0,110,1445,6,1,151,106,1.0,-0.262720288689,0.0734626651272,1,1.0,1.0,0.441022836603,0,0.0,0.0,0.382697975884,0.412633132933,0.0828996522456,0.495532785178,0.329733480687,nan,nan,0.0,0.0,0.0,nan,nan,477.247280886,615.691432378,616.132455215,616.191477424,nan,nan
0,111,1446,6,1,413,290,0.0683106243366,0.461143133648,-0.585495598612,1,1.0,1.0,0.408513224684,0,0.0,0.0,0.403667526009,0.412891221148,0.0825659545483,0.495457175696,0.3303252666,nan,nan,0.0,0.0,0.0,nan,nan,477.247280886,616.699895768,617.108408993,617.19993283,nan,nan
0,112,1447,6,1,494,347,0.698129958021,0.282143999684,-1.0,1,1.0,1.0,0.440356850624,0,0.0,0.0,0.42996430397,0.412851779738,0.0821942353326,0.495046015071,0.330657544406,nan,nan,0.0,0.0,0.0,nan,nan,477.247280886,617.700025202,618.140382052,618.200067111,nan,nan
0,113,1448,6,1,83,58,1.0,-0.203097876184,-0.665876706514,1,1.0,1.0,0.424177879468,0,0.0,0.0,0.424349318258,0.413097360729,0.0818673699789,0.494964730707,0.33122999075,nan,nan,0.0,0.0,0.0,nan,nan,477.247280886,618.700177444,619.124355324,619.20019398,nan,nan
0,114,1449,6,1,396,278,-0.0330153705648,0.473684876347,-0.363523780775,1,1.0,1.0,0.335729668848,0,0.0,0.0,0.40008813298,0.413195418416,0.0815109262071,0.494706344624,0.331684492209,nan,nan,0.0,0.0,0.0,nan,nan,477.247280886,619.708635987,620.044365656,620.208655944,nan,nan
0,115,1450,6,1,95,66,1.0,-0.253175017597,-0.514975443931,1,1.0,1.0,0.359559502453,0,0.0,0.0,0.373155683589,0.412515894297,0.0814734816296,0.493989375927,0.331042412668,nan,nan,0.0,0.0,0.0,nan,nan,477.247280886,620.708770553,621.068330055,621.208789939,nan,nan
0,116,1451,6,1,21,14,1.0,0.116713997928,-1.0,1,1.0,1.0,0.431414213032,0,0.0,0.0,0.375567794777,0.412055403934,0.0812673424616,0.493322746395,0.330788061472,nan,nan,0.0,0.0,0.0,nan,nan,477.247280886,621.708884021,622.140298234,622.208945032,nan,nan
0,117,1452,6,1,190,133,1.0,-0.0746884387243,0.407399635172,1,1.0,1.0,0.495258267038,0,0.0,0.0,0.428743994174,0.412222290219,0.0809360828119,0.493158373031,0.331286207407,nan,nan,0.0,0.0,0.0,nan,nan,477.247280886,622.709018302,623.204276569,623.217376776,nan,nan
0,118,1453,6,1,467,328,0.473005185182,0.365775667588,-1.0,1,1.0,1.0,0.407123946585,0,0.0,0.0,0.444598808885,0.412931999422,0.0809511504148,0.493883149837,0.331980849008,nan,nan,0.0,0.0,0.0,nan,nan,477.247280886,623.709144886,624.116268832,624.20917311,nan,nan
0,119,1454,6,1,149,104,1.0,-0.269478519393,0.0541436597792,1,1.0,1.0,0.430954921059,0,0.0,0.0,0.444445711561,0.412882778636,0.0806091654669,0.493491944103,0.332273613169,nan,nan,0.0,0.0,0.0,nan,nan,477.247280886,624.709274034,625.140228955,625.209305109,nan,nan
0,120,1455,6,0,41,28,1.0,0.0148395037771,-1.0,0,0.0,1.0,0.57476298511,0,0.0,0.0,0.470947284251,0.413034645379,0.0802867073321,0.493321352711,0.332747938047,nan,nan,0.0,0.0,0.0,nan,nan,477.247280886,625.709439675,626.28420266,626.209480445,nan,nan
0,121,1456,6,1,122,85,1.0,-0.311159539646,-0.219144224573,1,1.0,1.0,0.454324322753,0,0.0,0.0,0.486680742974,0.414382381543,0.0812920034133,0.495674384956,0.33309037813,nan,nan,0.0,0.0,0.0,nan,nan,477.247280886,626.717876837,627.172201159,627.217900215,nan,nan
0,122,1457,6,1,59,41,1.0,-0.0814409933332,-1.0,1,1.0,1.0,0.486188475043,0,0.0,0.0,0.505091927635,0.414712480231,0.0810361082745,0.495748588505,0.333676371956,nan,nan,0.0,0.0,0.0,nan,nan,477.247280886,627.717997718,628.204186193,628.218023377,nan,nan
0,123,1458,6,1,102,71,1.0,-0.276610342793,-0.434926949461,1,nan,nan,nan,0,0.0,0.0,0.470256398898,0.415298349041,0.080960215611,0.496258564652,0.33433813343,nan,nan,0.0,0.0,0.0,nan,nan,477.247280886,628.71812031,nan,629.218203558,nan,nan
0,124,1459,6,1,153,107,1.0,-0.255547855702,0.0926213922694,1,1.0,1.0,0.453852487728,0,0.0,0.0,0.470020481385,0.415298349041,0.080960215611,0.496258564652,0.33433813343,nan,nan,0.0,0.0,0.0,nan,nan,477.247280886,629.718288802,630.172141289,630.218306763,nan,nan
0,125,1500,6,1,216,151,0.900975005756,0.0682271079607,0.563426584804,1,1.0,1.0,0.429721021093,0,0.0,0.0,0.441786754411,0.415611797323,0.0807047329043,0.496316530227,0.334907064419,nan,nan,0.0,0.0,0.0,nan,nan,477.247280886,630.718392292,631.148113313,631.218423937,nan,nan
0,126,1501,6,1,372,261,-0.138660017671,0.478458869494,-0.0888123791441,1,1.0,1.0,0.373594542965,0,0.0,0.0,0.419056017262,0.415725581385,0.0803885572075,0.496114138593,0.335337024178,nan,nan,0.0,0.0,0.0,nan,nan,477.247280886,631.718517165,632.092111708,632.218547384,nan,nan
0,127,1502,6,0,184,129,1.0,-0.107671891867,0.362640045218,0,1.0,0.0,0.557376913726,0,0.0,0.0,0.453564159262,0.415388533078,0.0801542772564,0.495542810335,0.335234255822,nan,nan,0.0,0.0,0.0,nan,nan,477.247280886,632.718686512,633.276063425,633.218725001,nan,nan
0,128,1503,6,1,425,298,0.149162615564,0.447529597292,-0.791715667876,1,1.0,1.0,0.397282683291,0,0.0,0.0,0.442751379994,0.416515424988,0.0808235985789,0.497339023567,0.335691826409,nan,nan,0.0,0.0,0.0,nan,nan,477.247280886,633.718784586,634.116067269,634.218806253,nan,nan
0,129,1504,6,1,128,90,1.0,-0.310663006781,-0.156689791083,1,1.0,1.0,0.381129656918,0,0.0,0.0,0.445263084645,0.416363986077,0.0805227116571,0.496886697734,0.33584127442,nan,nan,0.0,0.0,0.0,nan,nan,477.247280886,634.718903471,635.100033128,635.218943954,nan,nan
0,130,1505,6,1,46,32,1.0,-0.0117313672748,-1.0,1,1.0,1.0,0.476600092836,0,0.0,0.0,0.418337477682,0.41608871788,0.0802675194964,0.496356237377,0.335821198384,nan,nan,0.0,0.0,0.0,nan,nan,477.247280886,635.72740763,636.204007722,636.227419319,nan,nan
0,131,1506,6,0,238,167,0.675741828754,0.178727669763,0.638511091232,0,0.0,1.0,0.444453693926,0,0.0,0.0,0.434061147893,0.416557798306,0.0801317327043,0.496689531011,0.336426065602,nan,nan,0.0,0.0,0.0,nan,nan,477.247280886,636.727551319,637.172005013,637.227559586,nan,nan
0,132,1507,6,1,452,317,0.351738073422,0.401406211611,-1.0,1,1.0,1.0,0.412352056243,0,0.0,0.0,0.444468614335,0.416772382119,0.0798601371921,0.496632519311,0.336912244927,nan,nan,0.0,0.0,0.0,nan,nan,477.247280886,637.727628009,638.139980066,638.227665642,nan,nan
0,133,1508,6,0,108,75,1.0,-0.292426609412,-0.368663285579,0,0.0,1.0,0.580162151717,0,0.0,0.0,0.478989300629,0.416738639173,0.0795556738531,0.496294313026,0.33718296532,nan,nan,0.0,0.0,0.0,nan,nan,477.247280886,638.727786238,639.30794839,639.22783499,nan,nan
0,134,1509,6,1,506,355,0.797774742377,0.236703125255,-1.0,1,1.0,1.0,0.396051634103,0,0.0,0.0,0.462855280687,0.417976696087,0.0805105725964,0.498487268683,0.33746612349,nan,nan,0.0,0.0,0.0,nan,nan,477.247280886,639.727905694,640.123957328,640.22793848,nan,nan
0,135,1510,6,1,153,107,1.0,-0.255547855702,0.0926213922694,1,1.0,1.0,0.467883822508,0,0.0,0.0,0.481365869443,0.417811845996,0.0802296889513,0.498041534948,0.337582157045,nan,nan,0.0,0.0,0.0,nan,nan,477.247280886,640.728020873,641.195904695,641.228043966,nan,nan
0,136,1511,6,1,509,357,0.822386376617,0.224555004187,-1.0,1,1.0,1.0,0.387737350538,0,0.0,0.0,0.41722426905,0.418185517463,0.080045849265,0.498231366728,0.338139668198,nan,nan,0.0,0.0,0.0,nan,nan,477.247280886,641.728148026,642.115885377,642.228180243,nan,nan
0,137,1512,6,1,286,201,0.169078956243,0.359734776014,0.594698705761,1,1.0,1.0,0.395590918139,0,0.0,0.0,0.417070697062,0.417959975486,0.0797915577758,0.497751533262,0.33816841771,nan,nan,0.0,0.0,0.0,nan,nan,477.247280886,642.728276035,643.123866953,643.228316518,nan,nan
0,138,1513,6,1,4,2,0.879126049628,0.195014037372,-1.0,1,1.0,1.0,0.355457526632,0,0.0,0.0,0.379595265103,0.417795497123,0.0795206322173,0.49731612934,0.338274864906,nan,nan,0.0,0.0,0.0,nan,nan,477.247280886,643.728404043,644.08386157,644.228434834,nan,nan
0,139,1514,6,1,226,158,0.801265930663,0.120208988367,0.60458276857,1,1.0,1.0,0.411286078393,0,0.0,0.0,0.387444841055,0.41734047544,0.0794073792006,0.496747854641,0.33793309624,nan,nan,0.0,0.0,0.0,nan,nan,477.247280886,644.728535758,645.139821837,645.228573676,nan,nan
0,140,1515,6,1,508,357,0.814199817736,0.228638933499,-1.0,1,1.0,1.0,0.363116087392,0,0.0,0.0,0.376619897472,0.417296602998,0.0791208146316,0.49641741763,0.338175788366,nan,nan,0.0,0.0,0.0,nan,nan,477.247280886,645.728684009,646.091800096,646.228711664,nan,nan
0,141,1516,6,0,62,43,1.0,-0.0974372467467,-1.0,0,0.0,1.0,0.490955867805,0,0.0,0.0,0.421786011197,0.416906815116,0.0789685606261,0.495875375742,0.33793825449,nan,nan,0.0,0.0,0.0,nan,nan,477.247280886,646.72883625,647.219792118,647.237192445,nan,nan
0,142,1517,6,1,189,132,1.0,-0.0802194643608,0.400143472992,1,1.0,1.0,0.370835659094,0,0.0,0.0,0.408302538097,0.417435736921,0.0789327363695,0.49636847329,0.338503000551,nan,nan,0.0,0.0,0.0,nan,nan,477.247280886,647.728937175,648.099772834,648.228981365,nan,nan
0,143,1518,6,1,443,311,0.281558783006,0.419268214519,-1.0,1,1.0,1.0,0.458358731121,0,0.0,0.0,0.440050086007,0.417105239915,0.0787494873551,0.49585472727,0.33835575256,nan,nan,0.0,0.0,0.0,nan,nan,477.247280886,648.737381178,649.195739909,649.237438483,nan,nan
0,144,1519,6,1,310,217,-0.032854544558,0.417080732083,0.468828018046,1,1.0,1.0,0.378180042841,0,0.0,0.0,0.402458144352,0.417395757459,0.0785475003703,0.495943257829,0.338848257088,nan,nan,0.0,0.0,0.0,nan,nan,477.247280886,649.737535986,650.115716029,650.237582456,nan,nan
0,145,1520,6,1,382,268,-0.1011887567,0.478291136399,-0.199732273247,1,1.0,1.0,0.354052852839,0,0.0,0.0,0.3968638756,0.417121521692,0.0783405650787,0.495462086771,0.338780956613,nan,nan,0.0,0.0,0.0,nan,nan,477.247280886,650.737651451,651.091704303,651.237707044,nan,nan
0,146,1521,6,1,445,312,0.296953900578,0.415520102116,-1.0,1,1.0,1.0,0.353834183887,0,0.0,0.0,0.362022359855,0.416683544825,0.0782435631868,0.494927108012,0.338439981638,nan,nan,0.0,0.0,0.0,nan,nan,477.247280886,651.737846171,652.091680355,652.237805403,nan,nan
0,147,1522,6,1,399,280,-0.0164460389312,0.472031251936,-0.400274523968,1,1.0,1.0,0.296745219268,0,1.0,0.0,0.334877418665,0.416250100957,0.0781465796213,0.494396680578,0.338103521335,nan,nan,0.0,0.0,0.0,nan,nan,477.247280886,652.7629253,653.059670519,653.262948678,nan,nan
0,148,1528,6,1,140,98,1.0,-0.294209249228,-0.0345777392028,1,1.0,1.0,0.424588419497,1,0.0,0.0,0.358389274217,0.41543157437,0.0784997314919,0.493931305862,0.336931842878,-16.5503599103,152.0,1.0,-0.259184487343,0.0830625546756,8.11285991034,2.81734661292,477.247280886,653.763053879,654.187642299,654.263079252,655.588243512,658.413606768
0,149,1529,6,1,438,307,0.243622561222,0.428096439079,-1.0,1,1.0,1.0,0.493051330559,0,0.0,0.0,0.404794989775,0.415493865833,0.078235890588,0.493729756421,0.337257975245,nan,nan,0.0,0.0,0.0,nan,nan,477.247280886,659.630461532,660.123512862,660.138840533,nan,nan
0,150,1530,6,1,496,348,0.714833717156,0.274923884212,-1.0,1,1.0,1.0,0.404504476115,0,0.0,0.0,0.440714742057,0.416017902757,0.0782295712063,0.494247473963,0.337788331551,nan,nan,0.0,0.0,0.0,nan,nan,477.247280886,660.638991919,661.043496395,661.138965121,nan,nan
0,151,1531,6,1,208,146,0.97651257568,0.025020743352,0.522574479073,1,1.0,1.0,0.420106695034,0,0.0,0.0,0.439220833903,0.415940631437,0.0779722807992,0.493912912237,0.337968350638,nan,nan,0.0,0.0,0.0,nan,nan,477.247280886,661.647375767,662.067482462,662.147424519,nan,nan
0,152,1532,6,1,307,215,-0.0113868739462,0.411053355611,0.487957006857,1,1.0,1.0,0.363604743965,0,0.0,0.0,0.396071971705,0.415968405195,0.0777126780631,0.493681083258,0.338255727131,nan,nan,0.0,0.0,0.0,nan,nan,477.247280886,662.655863105,663.019467849,663.155896747,nan,nan
0,153,1533,6,1,355,249,-0.173737462994,0.472683863687,0.0888799762457,1,1.0,1.0,0.347461125813,0,0.0,0.0,0.377057521604,0.415621625981,0.0775712807915,0.493192906773,0.33805034519,nan,nan,0.0,0.0,0.0,nan,nan,477.247280886,663.655985126,664.003446252,664.156030172,nan,nan
0,154,1534,6,1,219,153,0.871627318206,0.0840881726889,0.576959667802,1,1.0,1.0,0.370960246772,0,0.0,0.0,0.360675372183,0.415173201638,0.077511804411,0.492685006049,0.337661397227,nan,nan,0.0,0.0,0.0,nan,nan,477.247280886,664.664461916,665.035422163,665.164484154,nan,nan
0,155,1535,6,1,135,94,1.0,-0.303502321856,-0.0849788702499,1,1.0,1.0,0.378800414503,0,0.0,0.0,0.365740595696,0.414884228077,0.0773401848768,0.492224412954,0.3375440432,nan,nan,0.0,0.0,0.0,nan,nan,477.247280886,665.664581371,666.043381786,666.164612732,nan,nan
0,156,1536,6,1,421,296,0.121471671064,0.452518040197,-0.712610339232,1,1.0,1.0,0.386338949203,0,0.0,0.0,0.378699870159,0.414649917599,0.0771431343325,0.491793051931,0.337506783266,nan,nan,0.0,0.0,0.0,nan,nan,477.247280886,666.673051319,667.059390268,667.173077833,nan,nan
0,157,1537,6,1,62,43,1.0,-0.0974372467467,-1.0,1,1.0,1.0,0.386186707765,0,0.0,0.0,0.383775357157,0.41446726619,0.0769272831666,0.491394549357,0.337539983023,nan,nan,0.0,0.0,0.0,nan,nan,477.247280886,667.673182178,668.059368886,668.173205556,nan,nan
0,158,1538,6,0,6,4,0.895129075663,0.186272780825,-1.0,0,0.0,1.0,0.473995731212,0,0.0,0.0,0.415507129394,0.414285980559,0.0767135335532,0.490999514112,0.337572447006,nan,nan,0.0,0.0,0.0,nan,nan,477.247280886,668.673345254,669.147340985,669.173397996,nan,nan
0,159,1539,6,1,377,265,-0.121259861678,0.478700828387,-0.143695900877,1,1.0,1.0,0.353900896385,0,0.0,0.0,0.404694445121,0.414666297442,0.0766162277472,0.491282525189,0.338050069695,nan,nan,0.0,0.0,0.0,nan,nan,477.247280886,669.673441902,670.027342798,670.173476398,nan,nan
0,160,1540,6,1,146,102,1.0,-0.278792578557,0.0248813210997,1,1.0,1.0,0.385737679899,0,0.0,0.0,0.404544769165,0.414281706296,0.0765252643704,0.490806970667,0.337756441926,nan,nan,0.0,0.0,0.0,nan,nan,477.247280886,670.673562783,671.059300463,671.173592432,nan,nan
0,161,1541,6,1,450,316,0.335949728395,0.405598329481,-1.0,1,1.0,1.0,0.393593527377,0,0.0,0.0,0.377744034554,0.414102184118,0.0763176075737,0.490419791691,0.337784576544,nan,nan,0.0,0.0,0.0,nan,nan,477.247280886,671.673694498,672.067288025,672.173723863,nan,nan
0,162,1542,6,1,260,182,0.438016636947,0.272781976488,0.654406567654,1,1.0,1.0,0.500257442705,0,0.0,0.0,0.426529549994,0.413974005013,0.0760959080338,0.490069913047,0.337878096979,nan,nan,0.0,0.0,0.0,nan,nan,477.247280886,672.673819941,673.174077383,673.173898342,nan,nan
0,163,1543,6,1,128,90,1.0,-0.310663006781,-0.156689791083,1,1.0,1.0,0.409275288694,0,0.0,0.0,0.434375419592,0.414509926986,0.0761615048241,0.49067143181,0.338348422162,nan,nan,0.0,0.0,0.0,nan,nan,477.247280886,673.67396477,674.083240058,674.173979879,nan,nan
0,164,1544,6,1,291,204,0.122027637739,0.373441943191,0.573791926984,1,1.0,1.0,0.457153055817,0,0.0,0.0,0.455561929072,0.414477614404,0.075927181564,0.490404795968,0.33855043284,nan,nan,0.0,0.0,0.0,nan,nan,477.247280886,674.674086221,675.131239276,675.174131837,nan,nan
0,165,1545,6,1,163,114,1.0,-0.214247802105,0.185723682048,1,1.0,1.0,0.464994648471,0,0.0,0.0,0.443807664327,0.414739426928,0.0757672330789,0.490506660007,0.338972193849,nan,nan,0.0,0.0,0.0,nan,nan,477.247280886,675.674219362,676.13921401,676.174240459,nan,nan
0,166,1546,6,1,224,157,0.821619416966,0.11002478857,0.597264883709,1,1.0,1.0,0.408810866065,0,0.0,0.0,0.443652856785,0.415045861206,0.075637130575,0.490682991781,0.339408730631,nan,nan,0.0,0.0,0.0,nan,nan,477.247280886,676.67434851,677.083159376,677.174394126,nan,nan
0,167,1547,6,1,84,59,1.0,-0.20765784414,-0.652191087791,1,1.0,1.0,0.416688666679,0,0.0,0.0,0.430164727072,0.415008073357,0.0754091315547,0.490417204911,0.339598941802,nan,nan,0.0,0.0,0.0,nan,nan,477.247280886,677.674470532,678.091159198,678.174518998,nan,nan
0,168,1548,6,1,10,7,0.926811495151,0.168400576072,-1.0,1,1.0,1.0,0.512194739655,0,0.0,0.0,0.4458980908,0.415018197413,0.0751817649835,0.490199962396,0.339836432429,nan,nan,0.0,0.0,0.0,nan,nan,477.247280886,678.682920237,679.195114977,679.183012608,nan,nan
0,169,1549,6,1,245,172,0.600577697281,0.210610106048,0.650172825369,1,1.0,1.0,0.431705581024,0,0.0,0.0,0.453529662453,0.415600092875,0.0753303370374,0.490930429913,0.340269755838,nan,nan,0.0,0.0,0.0,nan,nan,477.247280886,679.691399022,680.123104603,680.191431238,nan,nan
0,170,1550,6,1,119,83,1.0,-0.309446327048,-0.250710895617,1,1.0,1.0,0.430163492449,0,0.0,0.0,0.458021271043,0.415695958876,0.0751160217294,0.490811980606,0.340579937147,nan,nan,0.0,0.0,0.0,nan,nan,477.247280886,680.724909324,681.155072817,681.224927001,nan,nan
0,171,1551,6,1,194,136,1.0,-0.0524864644427,0.435571704399,1,1.0,1.0,0.509738058783,0,0.0,0.0,0.457202377419,0.415781565584,0.074901674405,0.490683239989,0.340879891179,nan,nan,0.0,0.0,0.0,nan,nan,477.247280886,681.733314554,682.243052613,682.233409206,nan,nan
0,172,1552,6,1,37,26,1.0,0.0358565504353,-1.0,1,1.0,1.0,0.413244695403,0,0.0,0.0,0.451048748878,0.416334250838,0.0750258768807,0.491360127718,0.341308373957,nan,nan,0.0,0.0,0.0,nan,nan,477.247280886,682.741788493,683.155033188,683.24182356,nan,nan
0,173,1553,6,1,459,322,0.407758158413,0.385709174134,-1.0,1,1.0,1.0,0.365095801651,0,0.0,0.0,0.429359518612,0.416316183262,0.0748065522282,0.49112273549,0.341509631034,nan,nan,0.0,0.0,0.0,nan,nan,477.247280886,683.74194216,684.107037961,684.241956415,nan,nan
0,174,1554,6,1,57,40,1.0,-0.0707313323512,-1.0,1,1.0,1.0,0.324939602055,0,0.0,0.0,0.367760033036,0.416018390346,0.0746903584205,0.490708748766,0.341328031925,nan,nan,0.0,0.0,0.0,nan,nan,477.247280886,684.742071879,685.067011481,685.242106091,nan,nan
0,175,1555,6,1,311,218,-0.0397249783266,0.419020224334,0.462250212202,1,1.0,1.0,0.356429993175,0,0.0,0.0,0.34882179896,0.415491923361,0.0747935553292,0.490285478691,0.340698368032,nan,nan,0.0,0.0,0.0,nan,nan,477.247280886,685.750534128,686.106964122,686.250550094,nan,nan
0,176,1556,6,1,511,359,0.838703193994,0.216284169582,-1.0,1,1.0,1.0,0.403959940188,0,0.0,0.0,0.361776511806,0.415152486981,0.0747118371339,0.489864324115,0.340440649847,nan,nan,0.0,0.0,0.0,nan,nan,477.247280886,686.758989821,687.162949761,687.259015765,nan,nan
0,177,1557,6,1,320,225,-0.0946500390753,0.43494401576,0.398701238857,1,1.0,1.0,0.4278171435,0,0.0,0.0,0.396069025621,0.415088529571,0.0745028457764,0.489591375347,0.340585683794,nan,nan,0.0,0.0,0.0,nan,nan,477.247280886,687.7591184,688.186935543,688.259149475,nan,nan
0,178,1558,6,1,405,284,0.018463324075,0.468009379796,-0.476293327428,1,1.0,1.0,0.371691235341,0,0.0,0.0,0.401156106343,0.415160851241,0.0742970486114,0.489457899852,0.34086380263,nan,nan,0.0,0.0,0.0,nan,nan,477.247280886,688.75923586,689.130927095,689.259276913,nan,nan
0,179,1559,6,1,297,208,0.0686262056446,0.388646276542,0.544904663634,1,1.0,1.0,0.379524846561,0,0.0,0.0,0.393011075134,0.414915260191,0.0741584798574,0.489073740048,0.340756780333,nan,nan,0.0,0.0,0.0,nan,nan,477.247280886,689.759371851,690.138896697,690.259400075,nan,nan
0,180,1600,6,1,474,333,0.530901762182,0.346545376391,-1.0,1,1.0,1.0,0.403380624019,0,0.0,0.0,0.38486556864,0.414716437642,0.0739971692754,0.488713606918,0.340719268367,nan,nan,0.0,0.0,0.0,nan,nan,477.247280886,690.75950157,691.162882194,691.25953065,nan,nan
0,181,1601,6,0,177,124,1.0,-0.145192147526,0.306921212481,0,1.0,0.0,0.387199657038,0,0.0,0.0,0.390035042539,0.414653109074,0.0737950207858,0.48844812986,0.340858088289,nan,nan,0.0,0.0,0.0,nan,nan,477.247280886,691.759661225,692.146860882,692.259702563,nan,nan
0,182,1602,6,1,380,267,-0.109519508899,0.478533032186,-0.177177385375,1,1.0,1.0,0.562738733366,0,0.0,0.0,0.451106338141,0.414500589896,0.0736180350962,0.488118624993,0.3408825548,nan,nan,0.0,0.0,0.0,nan,nan,477.247280886,692.768090118,693.330828851,693.268167664,nan,nan
0,183,1603,6,1,280,196,0.228089347314,0.342018854333,0.61587222022,1,1.0,1.0,0.578547362238,0,0.0,0.0,0.509495250881,0.415319585164,0.0742321227729,0.489551707937,0.341087462391,nan,nan,0.0,0.0,0.0,nan,nan,477.247280886,693.768249487,694.346796849,694.268303085,nan,nan
0,184,1604,6,1,405,284,0.018463324075,0.468009379796,-0.476293327428,1,1.0,1.0,0.448907479644,0,0.0,1.0,0.530064525083,0.416216441082,0.0750047900562,0.491221231138,0.341211651026,nan,nan,0.0,0.0,0.0,nan,nan,477.247280886,694.78589129,695.234798769,695.285067645,nan,nan
0,185,1609,6,1,10,7,0.926811495151,0.168400576072,-1.0,1,1.0,1.0,0.481621791609,1,0.0,0.0,0.503025544497,0.416395080637,0.0748383918891,0.491233472526,0.341556688748,94.1222978118,506.0,0.797774742377,0.236703125255,-1.0,-11.1535478118,2.12557810545,477.247280886,695.785154314,696.266776105,696.285182253,697.610357061,699.743971196
0,186,1610,6,1,291,204,0.122027637739,0.373441943191,0.573791926984,1,0.0,0.0,0.47417363245,0,0.0,0.0,0.468234301234,0.416749573632,0.0747886528758,0.491538226507,0.341960920756,nan,nan,0.0,0.0,0.0,nan,nan,477.247280886,700.952498276,701.426671908,701.452520799,nan,nan
0,187,1611,6,0,362,254,-0.164239727892,0.476000155386,0.0174578511848,0,0.0,1.0,0.537966369651,0,0.0,0.0,0.497920597903,0.41705997395,0.0747049959,0.491764969849,0.34235497805,nan,nan,0.0,0.0,0.0,nan,nan,477.247280886,701.95265679,702.490623159,702.452689291,nan,nan
0,188,1612,6,1,128,90,1.0,-0.310663006781,-0.156689791083,1,1.0,1.0,0.425864798948,0,0.0,0.0,0.479334933683,0.417710008335,0.0750266798246,0.49273668816,0.34268332851,nan,nan,0.0,0.0,0.0,nan,nan,477.247280886,702.952752298,703.378617097,703.452780237,nan,nan
0,189,1613,6,1,507,356,0.805995650865,0.232688349973,-1.0,1,1.0,1.0,0.441714196466,0,0.0,0.0,0.468515121688,0.417753616841,0.074828168382,0.492581785223,0.342925448459,nan,nan,0.0,0.0,0.0,nan,nan,477.247280886,703.952882302,704.394596498,704.45290739,nan,nan
0,190,1614,6,1,414,291,0.0747837862165,0.460162189034,-0.600089175003,1,1.0,1.0,0.457562454976,0,0.0,0.0,0.441713816797,0.417881066733,0.0746492400703,0.492530306803,0.343231826662,nan,nan,0.0,0.0,0.0,nan,nan,477.247280886,704.953023139,705.410585594,705.453031693,nan,nan
0,191,1615,6,1,234,164,0.71814774995,0.15974031316,0.62913160129,1,1.0,1.0,0.409415842034,0,0.0,0.0,0.436230831159,0.418091021168,0.0745071276512,0.492598148819,0.343583893517,nan,nan,0.0,0.0,0.0,nan,nan,477.247280886,705.953147442,706.362563284,706.45317082,nan,nan
0,192,1616,6,1,81,56,1.0,-0.193804253699,-0.694219169772,1,1.0,1.0,0.416938981973,0,0.0,0.0,0.427972426328,0.41804536233,0.0743134486668,0.492358810997,0.343731913663,nan,nan,0.0,0.0,0.0,nan,nan,477.247280886,706.96160399,707.378542972,707.461629649,nan,nan
0,193,1617,6,1,343,241,-0.171388175652,0.463836419185,0.204822810802,1,1.0,1.0,0.368770701811,0,0.0,0.0,0.398375175272,0.418039569763,0.0741186985505,0.492158268313,0.343920871212,nan,nan,0.0,0.0,0.0,nan,nan,477.247280886,707.961739981,708.330510682,708.461776189,nan,nan
0,194,1618,6,1,2,1,0.863024578927,0.203622855609,-1.0,1,1.0,1.0,0.392629900016,0,0.0,0.0,0.392779861266,0.417782961076,0.074010445498,0.491793406574,0.343772515578,nan,nan,0.0,0.0,0.0,nan,nan,477.247280886,708.96189707,709.35452697,709.461898779,nan,nan
0,195,1619,6,1,236,165,0.697004556276,0.169301754335,0.634065852989,1,1.0,1.0,0.328493622132,0,0.0,0.0,0.363298074653,0.417652634334,0.0738405451406,0.491493179475,0.343812089194,nan,nan,0.0,0.0,0.0,nan,nan,477.247280886,709.96200227,710.290495892,710.462025648,nan,nan
0,196,1620,6,1,122,85,1.0,-0.311159539646,-0.219144224573,1,1.0,1.0,0.304380971007,0,1.0,0.0,0.341834831052,0.417193051797,0.073926216773,0.49111926857,0.343266835024,nan,nan,0.0,0.0,0.0,nan,nan,477.247280886,710.962116879,711.26649785,711.462151091,nan,nan
0,197,1625,6,1,452,317,0.351738073422,0.401406211611,-1.0,1,1.0,1.0,0.248184929602,1,0.0,0.0,0.29368650758,0.416614528306,0.0741753948163,0.490789923122,0.34243913349,144.64440564,434.0,0.213881816697,0.43461034373,-1.0,-12.4569056401,1.52549308911,477.247280886,711.962275963,712.210460893,712.462282806,713.787453622,715.320978179
0,198,1626,6,0,291,204,0.122027637739,0.373441943191,0.573791926984,0,0.0,1.0,0.464827011339,0,0.0,0.0,0.339130970649,0.415755193619,0.0749527635456,0.490707957164,0.340802430073,nan,nan,0.0,0.0,0.0,nan,nan,477.247280886,716.529532629,716.99435964,717.029564844,nan,nan
0,199,1627,6,1,182,127,1.0,-0.118523835432,0.347089474713,1,1.0,1.0,0.416678688489,0,0.0,0.0,0.376563543143,0.41600428914,0.0748435764819,0.490847865622,0.341160712658,nan,nan,0.0,0.0,0.0,nan,nan,477.247280886,717.529647523,717.946326211,718.029690572,nan,nan
0,200,1628,6,1,88,61,1.0,-0.225257592204,-0.599932847766,1,1.0,1.0,0.584521285258,0,0.0,0.0,0.488675661696,0.416007695197,0.0746543536186,0.490662048816,0.341353341579,nan,nan,0.0,0.0,0.0,nan,nan,477.247280886,718.529777812,719.114299097,719.029847091,nan,nan
0,201,1629,6,1,458,322,0.399688045963,0.388050214986,-1.0,1,1.0,1.0,0.392377304845,0,0.0,0.0,0.464525759531,0.416854497158,0.0754138361608,0.492268333318,0.341440660997,nan,nan,0.0,0.0,0.0,nan,nan,477.247280886,719.529910382,719.922287687,720.029933475,nan,nan
0,202,1630,6,1,329,231,-0.136053278316,0.448203788942,0.3278337444,1,1.0,1.0,0.432246695273,0,0.0,0.0,0.469715095125,0.416732111196,0.0752448744929,0.491976985689,0.341487236703,nan,nan,0.0,0.0,0.0,nan,nan,477.247280886,720.530027557,720.962274252,721.030053216,nan,nan
0,203,1631,6,1,29,20,1.0,0.0770173926463,-1.0,1,1.0,1.0,0.400087752379,0,0.0,0.0,0.408237250832,0.416809298181,0.0750654020737,0.491874700255,0.341743896108,nan,nan,0.0,0.0,0.0,nan,nan,477.247280886,721.530171531,721.930259284,722.030189207,nan,nan
0,204,1632,6,1,297,208,0.0686262056446,0.388646276542,0.544904663634,1,1.0,1.0,0.43957882002,0,0.0,0.0,0.423971089224,0.416726518252,0.0748885626957,0.491615080947,0.341837955556,nan,nan,0.0,0.0,0.0,nan,nan,477.247280886,722.53864718,722.978226,723.038643759,nan,nan
0,205,1633,6,1,496,348,0.714833717156,0.274923884212,-1.0,1,1.0,1.0,0.463445146568,0,0.0,0.0,0.434370572989,0.416839091167,0.0747210119193,0.491560103086,0.342118079248,nan,nan,0.0,0.0,0.0,nan,nan,477.247280886,723.538764925,724.002210071,724.038844752,nan,nan
0,206,1634,6,1,23,16,1.0,0.106943944166,-1.0,1,1.0,1.0,0.423298926093,0,0.0,0.0,0.442107630894,0.417067552223,0.0746086879912,0.491676240214,0.342458864232,nan,nan,0.0,0.0,0.0,nan,nan,477.247280886,724.538880674,724.9621796,725.038907189,nan,nan
0,207,1635,6,1,440,309,0.258699398066,0.424657399123,-1.0,1,1.0,1.0,0.367129397579,0,0.0,0.0,0.417957823413,0.417097949168,0.0744277593983,0.491525708567,0.34267018977,nan,nan,0.0,0.0,0.0,nan,nan,477.247280886,725.539026074,725.906155472,726.039064562,nan,nan
0,208,1636,6,0,109,76,1.0,-0.294638327523,-0.357773695079,0,0.0,1.0,0.430985141546,0,0.0,0.0,0.407137821739,0.416855383384,0.074328073142,0.491183456526,0.342527310242,nan,nan,0.0,0.0,0.0,nan,nan,477.247280886,726.539164061,726.970149202,727.039198273,nan,nan
0,209,1637,6,1,359,252,-0.169222339917,0.474741883077,0.0483828026834,1,1.0,1.0,0.333207415417,0,0.0,0.0,0.37710731818,0.416923643085,0.0741547914842,0.49107843457,0.342768851601,nan,nan,0.0,0.0,0.0,nan,nan,477.247280886,727.580941606,727.914149022,728.080971257,nan,nan
0,210,1638,6,0,277,194,0.258470646878,0.33263615818,0.624824240443,0,1.0,0.0,0.437059133314,0,0.0,0.0,0.400417230092,0.416521161222,0.0742026158123,0.490723777034,0.342318545409,nan,nan,0.0,0.0,0.0,nan,nan,477.247280886,728.581081304,729.018140437,729.081125779,nan,nan
0,211,1639,6,1,151,106,1.0,-0.262720288689,0.0734626651272,1,1.0,1.0,0.380916689523,0,0.0,0.0,0.383727746084,0.416619429031,0.0740384503204,0.490657879351,0.34258097871,nan,nan,0.0,0.0,0.0,nan,nan,477.247280886,729.581190497,729.962107186,730.081230695,nan,nan
0,212,1640,6,1,73,51,1.0,-0.1546788618,-0.830916872461,1,1.0,1.0,0.436403695494,0,0.0,0.0,0.41812650611,0.416449415985,0.0739028406561,0.490352256641,0.342546575329,nan,nan,0.0,0.0,0.0,nan,nan,477.247280886,730.589670137,731.026073832,731.08972516,nan,nan
0,213,1641,6,1,275,193,0.279002393219,0.326185254474,0.630178474337,1,1.0,1.0,0.356245534495,0,0.0,0.0,0.391188639837,0.41654398603,0.0737402433476,0.490284229378,0.342803742683,nan,nan,0.0,0.0,0.0,nan,nan,477.247280886,731.589797005,731.94604254,732.089823519,nan,nan
0,214,1642,6,1,411,288,0.0555201669072,0.463022710015,-0.557054760163,1,1.0,1.0,0.436092084274,0,0.0,0.0,0.409580438087,0.416259559372,0.0736820460499,0.489941605422,0.342577513322,nan,nan,0.0,0.0,0.0,nan,nan,477.247280886,732.589924158,733.026016242,733.089961505,nan,nan
0,215,1643,6,1,348,244,-0.175384772129,0.468017843042,0.157582163916,1,1.0,1.0,0.459618004039,0,0.0,0.0,0.417318540936,0.416352669818,0.0735213804734,0.489874050291,0.342831289344,nan,nan,0.0,0.0,0.0,nan,nan,477.247280886,733.598370442,734.057988446,734.098418053,nan,nan
0,216,1644,6,1,247,173,0.578947625354,0.219392674348,0.6523805853,1,1.0,1.0,0.451447123662,0,0.0,0.0,0.449052403991,0.416554844277,0.0734087243463,0.489963568623,0.34314611993,nan,nan,0.0,0.0,0.0,nan,nan,477.247280886,734.598516127,735.049963251,735.098548342,nan,nan
0,217,1645,6,1,11,7,0.934659501434,0.163852895862,-1.0,1,1.0,1.0,0.378972328268,0,0.0,0.0,0.430012485323,0.416717133948,0.0732762768767,0.489993410825,0.343440857072,nan,nan,0.0,0.0,0.0,nan,nan,477.247280886,735.606971819,735.985944147,736.107022566,nan,nan
0,218,1646,6,1,142,99,1.0,-0.289568116499,-0.0146273521697,1,1.0,1.0,0.418805226684,0,0.0,0.0,0.416408226204,0.416542389478,0.0731513466793,0.489693736157,0.343391042798,nan,nan,0.0,0.0,0.0,nan,nan,477.247280886,736.607125486,737.025930713,737.107143162,nan,nan
0,219,1647,6,1,208,146,0.97651257568,0.025020743352,0.522574479073,1,1.0,1.0,0.322360615246,0,0.0,0.0,0.373379390066,0.416552817299,0.0729827614698,0.489535578769,0.343570055829,nan,nan,0.0,0.0,0.0,nan,nan,477.247280886,737.615555234,737.937915849,738.115608833,nan,nan
0,220,1648,6,1,277,194,0.258470646878,0.33263615818,0.624824240443,1,1.0,1.0,0.306198750623,0,0.0,0.0,0.349121530851,0.416120742977,0.0730928273149,0.489213570292,0.343027915662,nan,nan,0.0,0.0,0.0,nan,nan,477.247280886,738.615711467,738.921910218,739.115746249,nan,nan
0,221,1649,6,1,347,243,-0.174938837379,0.46723881498,0.167157479366,1,1.0,1.0,0.369705820456,0,1.0,0.0,0.332755062108,0.415618816072,0.0733013439318,0.488920160004,0.34231747214,nan,nan,0.0,0.0,0.0,nan,nan,477.247280886,739.624163738,739.993869559,740.124214486,nan,nan
0,222,1654,6,1,73,51,1.0,-0.1546788618,-0.830916872461,1,1.0,1.0,0.329553897493,1,0.0,0.0,0.335152822857,0.415410120637,0.0731997416537,0.488609862291,0.342210378983,64.9363089994,36.0,1.0,0.0410699577143,-1.0,-26.2644339994,2.02567327116,477.247280886,740.624305147,740.953859044,741.124337648,742.449501622,744.48313195
0,223,1655,6,1,421,296,0.121471671064,0.452518040197,-0.712610339232,1,1.0,1.0,0.486143429764,0,0.0,0.0,0.395134382571,0.41502163094,0.0732609053545,0.488282536294,0.341760725585,nan,nan,0.0,0.0,0.0,nan,nan,477.247280886,745.691626244,746.177769674,746.191649622,nan,nan
0,224,1656,6,1,343,241,-0.171388175652,0.463836419185,0.204822810802,1,1.0,1.0,0.397987728007,0,0.0,0.0,0.404561685088,0.415341999403,0.0732507092202,0.488592708623,0.342091290183,nan,nan,0.0,0.0,0.0,nan,nan,477.247280886,746.691756248,747.089743976,747.191781337,nan,nan
0,225,1657,6,1,143,100,1.0,-0.287057525782,-0.00469998909502,1,1.0,1.0,0.405840154737,0,0.0,0.0,0.429990437503,0.415264177558,0.0730954827751,0.488359660333,0.342168694783,nan,nan,0.0,0.0,0.0,nan,nan,477.247280886,747.691873709,748.097713863,748.191932724,nan,nan
0,226,1658,6,1,33,23,1.0,0.0565990290419,-1.0,1,1.0,1.0,0.421351428144,0,0.0,0.0,0.408393103629,0.415222106027,0.0729348466893,0.488156952717,0.342287259338,nan,nan,0.0,0.0,0.0,nan,nan,477.247280886,748.700331966,749.121683395,749.200377868,nan,nan
0,227,1659,6,1,229,161,0.770397026975,0.135265939772,0.614681466938,1,1.0,1.0,0.435149553232,0,0.0,0.0,0.420780378704,0.415249347459,0.0727737308715,0.488023078331,0.342475616588,nan,nan,0.0,0.0,0.0,nan,nan,477.247280886,749.750514742,750.185664295,750.250528427,nan,nan
0,228,1700,6,0,275,193,0.279002393219,0.326185254474,0.630178474337,0,0.0,1.0,0.483010498807,0,0.0,0.0,0.446503826727,0.415337401467,0.0726245602095,0.487961961676,0.342712841257,nan,nan,0.0,0.0,0.0,nan,nan,477.247280886,750.750633628,751.233644127,751.250666984,nan,nan
0,229,1701,6,1,10,7,0.926811495151,0.168400576072,-1.0,1,1.0,1.0,0.394539765082,0,0.0,0.0,0.437566605707,0.415635520838,0.0726028760596,0.488238396898,0.343032644779,nan,nan,0.0,0.0,0.0,nan,nan,477.247280886,751.759071073,752.153610839,752.259102434,nan,nan
0,230,1702,6,1,319,224,-0.0891891826932,0.433308674125,0.406137099325,1,1.0,1.0,0.514347221702,0,0.0,0.0,0.46396582853,0.415542995594,0.0724568957458,0.48799989134,0.343086099848,nan,nan,0.0,0.0,0.0,nan,nan,477.247280886,752.759234149,753.273581371,753.259274348,nan,nan
0,231,1703,6,1,66,46,1.0,-0.118568705386,-1.0,1,1.0,1.0,0.46593404375,0,0.0,0.0,0.458273676845,0.415974455097,0.0725914584113,0.488565913508,0.343382996685,nan,nan,0.0,0.0,0.0,nan,nan,477.247280886,753.767641945,754.233575989,754.267692978,nan,nan
0,232,1704,6,1,200,140,1.0,-0.0191209939188,0.47515178387,1,1.0,1.0,0.449759064242,0,0.0,0.0,0.476680109898,0.416191670699,0.0725080250595,0.488699695759,0.34368364564,nan,nan,0.0,0.0,0.0,nan,nan,477.247280886,754.767801885,755.217560949,755.267839232,nan,nan
0,233,1705,6,1,316,222,-0.0718215561597,0.428203514031,0.427892255365,1,1.0,1.0,0.449631340802,0,0.0,0.0,0.455108149598,0.416336984091,0.0723844666154,0.488721450707,0.343952517476,nan,nan,0.0,0.0,0.0,nan,nan,477.247280886,755.767924761,756.217556102,756.267982351,nan,nan
0,234,1706,6,1,398,279,-0.0220377755791,0.472608796233,-0.387943383198,1,1.0,1.0,0.529439401813,0,0.0,0.0,0.476276602286,0.41648049425,0.0722612232893,0.488741717539,0.34421927096,nan,nan,0.0,0.0,0.0,nan,nan,477.247280886,756.76806617,757.297505572,757.268125755,nan,nan
0,235,1707,6,1,182,127,1.0,-0.118523835432,0.347089474713,1,nan,nan,nan,0,0.0,0.0,0.489535371307,0.416965296428,0.0724831112739,0.489448407702,0.344482185154,nan,nan,0.0,0.0,0.0,nan,nan,477.247280886,757.768203871,nan,758.268254904,nan,nan
0,236,1708,6,1,495,348,0.706485112283,0.278551693791,-1.0,1,1.0,1.0,0.592832148075,0,0.0,0.0,0.561135774944,0.416965296428,0.0724831112739,0.489448407702,0.344482185154,nan,nan,0.0,0.0,0.0,nan,nan,477.247280886,758.776639607,759.369471755,759.276722285,nan,nan
0,237,1709,6,1,177,124,1.0,-0.145192147526,0.306921212481,1,1.0,1.0,0.392345943488,0,0.0,0.0,0.492589045782,0.41771686417,0.0732322352223,0.490949099392,0.344484628948,nan,nan,0.0,0.0,0.0,nan,nan,477.247280886,759.785107273,760.177453216,760.285138919,nan,nan
0,238,1710,6,1,461,324,0.423959648591,0.380927367285,-1.0,1,1.0,1.0,0.455865272321,0,0.0,0.0,0.480347787961,0.417608902806,0.0730949149508,0.490703817756,0.344513987855,nan,nan,0.0,0.0,0.0,nan,nan,477.247280886,760.793572374,761.249437646,761.293610862,nan,nan
0,239,1711,6,0,262,184,0.416452475899,0.2804144186,0.652815538838,0,0.0,1.0,0.559652843513,0,0.0,0.0,0.469288019774,0.417771006066,0.0729822069494,0.490753213016,0.344788799117,nan,nan,0.0,0.0,0.0,nan,nan,477.247280886,761.793760252,762.353413096,762.293777644,nan,nan
0,240,1712,6,1,31,21,1.0,0.0668515730764,-1.0,1,1.0,1.0,0.43954831548,0,0.0,0.0,0.485022143771,0.418369663608,0.0734064608882,0.491776124496,0.34496320272,nan,nan,0.0,0.0,0.0,nan,nan,477.247280886,762.793838369,763.233386684,763.293857185,nan,nan
0,241,1713,6,1,463,325,0.440238315199,0.376011795327,-1.0,1,1.0,1.0,0.415455336682,0,0.0,0.0,0.471552165225,0.41845864954,0.0732648919449,0.491723541485,0.345193757595,nan,nan,0.0,0.0,0.0,nan,nan,477.247280886,763.793953548,764.209408885,764.294017695,nan,nan
0,242,1714,6,1,189,132,1.0,-0.0802194643608,0.400143472992,1,1.0,1.0,0.455289946869,0,0.0,0.0,0.436764533011,0.418446083378,0.0731117144673,0.491557797845,0.34533436891,nan,nan,0.0,0.0,0.0,nan,nan,477.247280886,764.794093531,765.249383477,765.294119474,nan,nan
0,243,1715,6,1,42,29,1.0,0.00954878589686,-1.0,1,1.0,1.0,0.383129327558,0,0.0,0.0,0.417958203703,0.418599599476,0.0729978299199,0.491597429396,0.345601769556,nan,nan,0.0,0.0,0.0,nan,nan,477.247280886,765.794215553,766.17734488,766.29425404,nan,nan
0,244,1716,6,1,271,190,0.320642857732,0.312811632898,0.639400143054,1,1.0,1.0,0.44693688862,0,0.0,0.0,0.428452054349,0.418452419924,0.072881899614,0.491334319538,0.34557052031,nan,nan,0.0,0.0,0.0,nan,nan,477.247280886,766.794373496,767.241310385,767.294417971,nan,nan
0,245,1717,6,1,356,250,-0.17284377641,0.473239407326,0.0788368070227,1,1.0,1.0,0.406808344647,0,0.0,0.0,0.412291520275,0.41857012434,0.0727541113383,0.491324235679,0.345816013002,nan,nan,0.0,0.0,0.0,nan,nan,477.247280886,767.794481263,768.201289607,768.294508632,nan,nan
0,246,1718,6,0,103,72,1.0,-0.279537473278,-0.423758835275,0,0.0,1.0,0.598619617522,0,0.0,0.0,0.48412161693,0.418521721955,0.0726081615085,0.491129883463,0.345913560446,nan,nan,0.0,0.0,0.0,nan,nan,477.247280886,768.794645193,769.393264811,769.294686533,nan,nan
0,247,1719,6,1,206,144,0.994723455659,0.014051917983,0.511316161583,1,1.0,1.0,0.398519434035,0,0.0,0.0,0.467982465401,0.419259828084,0.073367058992,0.492626887076,0.345892769092,nan,nan,0.0,0.0,0.0,nan,nan,477.247280886,769.794735854,770.193255289,770.294769496,nan,nan
0,248,1720,6,1,502,352,0.764740937618,0.25241357569,-1.0,1,1.0,1.0,0.502356326208,0,0.0,0.0,0.499831792588,0.419175173414,0.0732291174493,0.492404290864,0.345946055965,nan,nan,0.0,0.0,0.0,nan,nan,477.247280886,770.794865289,771.297221615,771.294947396,nan,nan
0,249,1721,6,1,314,220,-0.0594438881467,0.42463230952,0.441925406839,1,1.0,1.0,0.382184230722,0,0.0,0.0,0.427686663655,0.419513308182,0.07327152893,0.492784837112,0.346241779252,nan,nan,0.0,0.0,0.0,nan,nan,477.247280886,771.795022092,772.177206323,772.295030074,nan,nan
0,250,1722,6,1,190,133,1.0,-0.0746884387243,0.407399635172,1,1.0,1.0,0.350075179711,0,0.0,0.0,0.41153857888,0.419362178314,0.0731614649518,0.492523643265,0.346200713362,nan,nan,0.0,0.0,0.0,nan,nan,477.247280886,772.795124156,773.145199336,773.295163215,nan,nan
0,251,1723,6,1,49,34,1.0,-0.027785429985,-1.0,1,1.0,1.0,0.3179116752,0,0.0,0.0,0.350057028544,0.419082795255,0.0731457206423,0.492228515897,0.345937074612,nan,nan,0.0,0.0,0.0,nan,nan,477.247280886,773.795267561,774.113179236,774.295288087,nan,nan
0,252,1724,6,1,439,308,0.251144291643,0.426392204401,-1.0,1,1.0,1.0,0.309753339738,0,1.0,0.0,0.325913398216,0.418676485536,0.0732785851101,0.491955070646,0.345397900426,nan,nan,0.0,0.0,0.0,nan,nan,477.247280886,774.79538445,775.10513779,775.295425219,nan,nan
0,253,1729,6,1,293,206,0.103830259013,0.378659598285,0.564617056734,1,1.0,1.0,0.349275482818,1,0.0,0.0,0.325646832585,0.418240792952,0.0734543341834,0.491695127136,0.344786458769,-134.454342407,319.0,-0.0891891826932,0.433308674125,0.406137099325,18.4387174066,1.90054219775,477.247280886,775.803855822,776.153131305,776.303885473,777.629056574,779.537638222
0,254,1730,6,0,467,328,0.473005185182,0.365775667588,-1.0,0,0.0,1.0,0.462868965231,0,0.0,0.0,0.373965929262,0.417966030761,0.0734364800606,0.491402510821,0.3445295507,nan,nan,0.0,0.0,0.0,nan,nan,477.247280886,780.746184404,781.209053369,781.246217475,nan,nan
0,255,1731,6,1,395,277,-0.0383984177995,0.474183508328,-0.351427224487,1,1.0,1.0,0.398757775314,0,0.0,0.0,0.403634074455,0.418144217009,0.0733449758064,0.491489192815,0.344799241202,nan,nan,0.0,0.0,0.0,nan,nan,477.247280886,781.746279341,782.145037116,782.246324386,nan,nan
0,256,1732,6,0,314,220,-0.0594438881467,0.42463230952,0.441925406839,0,0.0,1.0,0.462531410158,0,0.0,0.0,0.441386050234,0.418067590757,0.0732099878868,0.491277578644,0.34485760287,nan,nan,0.0,0.0,0.0,nan,nan,477.247280886,782.746474918,783.209006328,783.246477199,nan,nan
0,257,1733,6,1,419,294,0.107894673663,0.454841969249,-0.678098861371,1,1.0,1.0,0.34240721073,0,0.0,0.0,0.401232132067,0.418242645164,0.0731187669454,0.491361412109,0.345123878219,nan,nan,0.0,0.0,0.0,nan,nan,477.247280886,783.746545051,784.088952262,784.246580403,nan,nan
0,258,1734,6,1,249,175,0.557275547736,0.228026269286,0.654084877906,1,1.0,1.0,0.478252515197,0,0.0,0.0,0.427730378695,0.417945251303,0.0731290129476,0.491074264251,0.344816238356,nan,nan,0.0,0.0,0.0,nan,nan,477.247280886,784.746681328,785.224933843,785.246704991,nan,nan
0,259,1735,6,1,318,223,-0.0835627602325,0.431640264478,0.413481556053,1,1.0,1.0,0.430079958402,0,0.0,0.0,0.416913228109,0.418180826553,0.0730829247415,0.491263751294,0.345097901812,nan,nan,0.0,0.0,0.0,nan,nan,477.247280886,785.746837276,786.176917234,786.246829579,nan,nan
0,260,1736,6,1,250,175,0.546428449327,0.232286661223,0.654747725831,1,nan,nan,nan,0,0.0,0.0,0.454166236799,0.418227126677,0.0729443632643,0.491171489941,0.345282763413,nan,nan,0.0,0.0,0.0,nan,nan,477.247280886,786.746951315,nan,787.247008904,nan,nan
0,261,1737,6,1,398,279,-0.0220377755791,0.472608796233,-0.387943383198,1,1.0,1.0,0.44579935167,0,0.0,0.0,0.437939655036,0.418227126677,0.0729443632643,0.491171489941,0.345282763413,nan,nan,0.0,0.0,0.0,nan,nan,477.247280886,787.747075332,788.192874684,788.247099565,nan,nan
0,262,1738,6,1,101,71,1.0,-0.273572672894,-0.446152610616,1,1.0,1.0,0.373668383807,0,0.0,0.0,0.409733867738,0.418333995766,0.0728230167131,0.491157012479,0.345510979053,nan,nan,0.0,0.0,0.0,nan,nan,477.247280886,788.747188515,789.120856899,789.247229285,nan,nan
0,263,1739,6,1,468,329,0.481236483515,0.363131620867,-1.0,1,1.0,1.0,0.33321055118,0,0.0,0.0,0.384226095552,0.418161541666,0.072735061331,0.490896602997,0.345426480335,nan,nan,0.0,0.0,0.0,nan,nan,477.247280886,789.755643923,790.088854474,790.25569752,nan,nan
0,264,1740,6,1,339,238,-0.164955840019,0.45996923152,0.241423096872,1,1.0,1.0,0.357034968212,0,0.0,0.0,0.354637967733,0.417834807087,0.0727852400345,0.490620047121,0.345049567053,nan,nan,0.0,0.0,0.0,nan,nan,477.247280886,790.755797305,791.112832273,791.255826385,nan,nan
0,265,1741,6,1,508,357,0.814199817736,0.228638933499,-1.0,1,1.0,1.0,0.404878808185,0,0.0,0.0,0.365041442526,0.417601857513,0.0727427146225,0.490344572135,0.34485914289,nan,nan,0.0,0.0,0.0,nan,nan,477.247280886,791.755929019,792.160807827,792.255949547,nan,nan
0,266,1742,6,1,279,196,0.238157575771,0.338930353633,0.618978422254,1,1.0,1.0,0.348740071058,0,0.0,0.0,0.370217949152,0.417553296256,0.0726079984931,0.490161294749,0.344945297763,nan,nan,0.0,0.0,0.0,nan,nan,477.247280886,792.756042488,793.104782559,793.25610863,nan,nan
0,267,1743,6,0,476,334,0.547545041103,0.340739382997,-1.0,0,1.0,0.0,0.340560637414,0,0.0,0.0,0.364726505553,0.417291649012,0.072593473866,0.489885122878,0.344698175146,nan,nan,0.0,0.0,0.0,nan,nan,477.247280886,793.756205848,794.096766486,794.256245192,nan,nan
0,268,1744,6,1,174,122,1.0,-0.160790688716,0.281981279739,1,1.0,1.0,0.460439084098,0,0.0,0.0,0.383246597523,0.417001001241,0.0726090094859,0.489610010726,0.344391991755,nan,nan,0.0,0.0,0.0,nan,nan,477.247280886,794.75629822,795.216737304,795.256338133,nan,nan
0,269,1745,6,1,110,77,1.0,-0.296722754836,-0.346921960777,1,1.0,1.0,0.492282709107,0,0.0,0.0,0.43109414354,0.417164918534,0.0725208042249,0.489685722759,0.344644114309,nan,nan,0.0,0.0,0.0,nan,nan,477.247280886,795.75642965,796.248712359,796.264795536,nan,nan
0,270,1746,6,1,486,341,0.631151757674,0.309603058574,-1.0,1,1.0,1.0,0.51611596439,0,0.0,0.0,0.489612585865,0.417447316243,0.0725301917018,0.489977507945,0.344917124541,nan,nan,0.0,0.0,0.0,nan,nan,477.247280886,796.756567921,797.272683886,797.256639767,nan,nan
0,271,1747,6,0,67,47,1.0,-0.12380466598,-1.0,0,0.0,1.0,0.459951852448,0,0.0,0.0,0.489450175315,0.417816861742,0.072644696778,0.49046155852,0.345172164964,nan,nan,0.0,0.0,0.0,nan,nan,477.247280886,797.756724156,798.216676008,798.256753235,nan,nan
0,272,1748,6,1,142,99,1.0,-0.289568116499,-0.0146273521697,1,1.0,1.0,0.339506348595,0,0.0,0.0,0.438524721811,0.417974081856,0.0725545345321,0.490528616389,0.345419547324,nan,nan,0.0,0.0,0.0,nan,nan,477.247280886,798.765163027,799.104669375,799.265190111,nan,nan
0,273,1749,6,1,309,217,-0.0258396312562,0.415106541901,0.475305697888,1,1.0,1.0,0.403371500783,0,0.0,0.0,0.400943233942,0.417682380246,0.0725768226481,0.490259202894,0.345105557598,nan,nan,0.0,0.0,0.0,nan,nan,477.247280886,799.765289039,800.16866054,800.265322396,nan,nan
0,274,1750,6,1,46,32,1.0,-0.0117313672748,-1.0,1,1.0,1.0,0.515222470276,0,0.0,0.0,0.419366773218,0.417629376989,0.0724475122314,0.49007688922,0.345181864757,nan,nan,0.0,0.0,0.0,nan,nan,477.247280886,800.765417048,801.280639518,801.265500296,nan,nan
0,275,1751,6,1,326,229,-0.12383419111,0.444071765824,0.352223541474,1,1.0,1.0,0.419048414566,0,0.0,0.0,0.445880795208,0.417989499104,0.0725554277021,0.490544926806,0.345434071402,nan,nan,0.0,0.0,0.0,nan,nan,477.247280886,801.765548478,802.184596892,802.265572426,nan,nan
0,276,1752,6,1,141,99,1.0,-0.291952736687,-0.024586852943,1,1.0,1.0,0.37890219409,0,0.0,0.0,0.437724359644,0.417993392176,0.0724219592984,0.490415351474,0.345571432877,nan,nan,0.0,0.0,0.0,nan,nan,477.247280886,802.765680478,803.144582672,803.265712978,nan,nan
0,277,1753,6,1,47,33,1.0,-0.0170755915744,-1.0,1,1.0,1.0,0.354724827223,0,0.0,0.0,0.384225145293,0.417850200974,0.072327760683,0.490177961657,0.345522440291,nan,nan,0.0,0.0,0.0,nan,nan,477.247280886,803.765836141,804.120560968,804.265836426,nan,nan
0,278,1754,6,1,365,256,-0.157962026257,0.477016591838,-0.0139196855225,1,1.0,1.0,0.314601414837,0,0.0,0.0,0.349409478717,0.417619816398,0.0722959379697,0.489915754368,0.345323878428,nan,nan,0.0,0.0,0.0,nan,nan,477.247280886,804.765939061,805.080540475,805.265968996,nan,nan
0,279,1755,6,1,95,66,1.0,-0.253175017597,-0.514975443931,1,1.0,1.0,0.354115004651,0,1.0,0.0,0.341147082237,0.417245204029,0.0724302981393,0.489675502168,0.344814905889,nan,nan,0.0,0.0,0.0,nan,nan,477.247280886,805.774404447,806.128519451,806.27443153,nan,nan
0,280,1801,6,1,324,227,-0.114799643766,0.441158325109,0.368064040095,1,1.0,1.0,0.289954207838,1,0.0,0.0,0.319556875775,0.417016471422,0.072398397234,0.489414868656,0.344618074188,-148.04774221,339.0,-0.164955840019,0.45996923152,0.241423096872,10.2352422097,2.83399998583,477.247280886,806.774552696,807.064506904,807.274567236,808.599736056,811.44176694
0,281,1802,6,1,486,341,0.631151757674,0.309603058574,-1.0,1,1.0,1.0,0.438085482456,0,0.0,0.0,0.360718231648,0.41655776289,0.0726682844821,0.489226047372,0.343889478407,nan,nan,0.0,0.0,0.0,nan,nan,477.247280886,812.650283187,813.088368669,813.15032424,nan,nan
0,282,1803,6,1,15,10,0.965734432428,0.145352784795,-1.0,1,1.0,1.0,0.381570986472,0,0.0,0.0,0.369870225588,0.41663520073,0.0725489171719,0.489184117902,0.344086283558,nan,nan,0.0,0.0,0.0,nan,nan,477.247280886,813.658792192,814.040363179,814.158809013,nan,nan
0,283,1804,6,1,491,345,0.673033477965,0.292707709811,-1.0,1,1.0,1.0,0.2854365604,0,0.0,0.0,0.368364343109,0.416509522542,0.072449094939,0.488958617481,0.344060427603,nan,nan,0.0,0.0,0.0,nan,nan,477.247280886,814.658899958,814.944336519,815.15892134,nan,nan
0,284,1805,6,1,203,142,1.0,-0.00249325098487,0.493674673203,1,1.0,1.0,0.557316472754,0,0.0,0.0,0.408108006542,0.41604140482,0.0727410738894,0.48878247871,0.343300330931,nan,nan,0.0,0.0,0.0,nan,nan,477.247280886,815.65900744,816.216323913,816.159085272,nan,nan
0,285,1806,6,1,416,292,0.087881616042,0.458117504295,-0.630165317015,1,1.0,1.0,0.357162406668,0,0.0,0.0,0.399971813274,0.416544163069,0.073097251317,0.489641414386,0.343446911752,nan,nan,0.0,0.0,0.0,nan,nan,477.247280886,816.659138015,817.016300421,817.159174222,nan,nan
0,286,1807,6,1,177,124,1.0,-0.145192147526,0.306921212481,1,1.0,1.0,0.333006137051,0,0.0,0.0,0.415828338824,0.416333589465,0.0730528609481,0.489386450413,0.343280728517,nan,nan,0.0,0.0,0.0,nan,nan,477.247280886,817.659275716,817.992281853,818.159302515,nan,nan
0,287,1808,6,1,236,165,0.697004556276,0.169301754335,0.634065852989,1,1.0,1.0,0.292866759002,0,1.0,0.0,0.32767843424,0.41603914617,0.0730911166688,0.489130262839,0.342948029502,nan,nan,0.0,0.0,0.0,nan,nan,477.247280886,818.65940515,818.952271909,819.159432234,nan,nan
0,288,1813,6,1,192,135,1.0,-0.0635997558896,0.421658406928,1,1.0,1.0,0.30868508108,1,0.0,0.0,0.311519325711,0.415605440582,0.0733262083611,0.488931648943,0.342279232221,-51.6240326345,201.0,1.0,-0.0135712615467,0.48142235136,6.62403263452,2.68397880252,477.247280886,819.659533159,819.96821824,820.159569081,821.48473448,824.17675701
0,289,1814,6,1,21,14,1.0,0.116713997928,-1.0,1,1.0,1.0,0.422835072502,0,0.0,0.0,0.341462304195,0.415230281426,0.0734699837406,0.488700265166,0.341760297685,nan,nan,0.0,0.0,0.0,nan,nan,477.247280886,825.385277248,825.80811232,825.885303762,nan,nan
0,290,1815,6,1,309,217,-0.0258396312562,0.415106541901,0.475305697888,1,1.0,1.0,0.342378986068,0,0.0,0.0,0.357966379883,0.415256871604,0.0733428009782,0.488599672582,0.341914070626,nan,nan,0.0,0.0,0.0,nan,nan,477.247280886,826.393719826,826.736098812,826.893793381,nan,nan
0,291,1816,6,1,170,119,1.0,-0.180990482069,0.247815061387,1,1.0,1.0,0.541859368794,0,0.0,0.0,0.435691142455,0.415002941689,0.0733407465869,0.488343688276,0.341662195102,nan,nan,0.0,0.0,0.0,nan,nan,477.247280886,827.402200036,827.944059405,827.902278723,nan,nan
0,292,1817,6,1,450,316,0.335949728395,0.405598329481,-1.0,1,1.0,1.0,0.397724012844,0,0.0,0.0,0.427320789235,0.415443415395,0.0735926042368,0.489036019631,0.341850811158,nan,nan,0.0,0.0,0.0,nan,nan,477.247280886,828.402321203,828.800045216,828.9023882,nan,nan
0,293,1818,6,1,119,83,1.0,-0.309446327048,-0.250710895617,1,1.0,1.0,0.365553096868,0,0.0,0.0,0.435045492835,0.415382102583,0.073472539265,0.488854641848,0.341909563318,nan,nan,0.0,0.0,0.0,nan,nan,477.247280886,829.402472874,829.768025971,829.902499103,nan,nan
0,294,1819,6,1,416,292,0.087881616042,0.458117504295,-0.630165317015,1,1.0,1.0,0.349404346198,0,0.0,0.0,0.370893818637,0.415210278425,0.0734038949805,0.488614173406,0.341806383445,nan,nan,0.0,0.0,0.0,nan,nan,477.247280886,830.402597462,830.752001808,830.902640226,nan,nan
0,295,1820,6,1,287,201,0.159501648714,0.36255249221,0.590751920292,1,1.0,1.0,0.357265042141,0,0.0,0.0,0.357407495069,0.414984141201,0.0733787838157,0.488362925017,0.341605357385,nan,nan,0.0,0.0,0.0,nan,nan,477.247280886,831.40272661,831.759991652,831.90275398,nan,nan
0,296,1821,6,1,176,123,1.0,-0.150429669724,0.298675466069,1,1.0,1.0,0.404859706759,0,0.0,0.0,0.370509698366,0.414786473054,0.0733305951544,0.488117068208,0.341455877899,nan,nan,0.0,0.0,0.0,nan,nan,477.247280886,832.411165196,832.816024903,832.911211953,nan,nan
0,297,1822,6,0,351,246,-0.175686286722,0.4701852659,0.128489978773,0,0.0,1.0,0.484685729258,0,0.0,0.0,0.415603492719,0.414752593305,0.073207639864,0.487960233169,0.341544953441,nan,nan,0.0,0.0,0.0,nan,nan,477.247280886,833.411309741,833.89599547,833.911375313,nan,nan
0,298,1823,6,1,167,117,1.0,-0.195605812978,0.221546716301,1,1.0,1.0,0.308512027375,0,0.0,0.0,0.399352487798,0.414990461115,0.0731963638752,0.48818682499,0.341794097239,nan,nan,0.0,0.0,0.0,nan,nan,477.247280886,834.411435184,834.719947211,834.911476808,nan,nan
0,299,1824,6,1,478,336,0.56422249903,0.334793662244,-1.0,1,1.0,1.0,0.388000780717,0,0.0,0.0,0.393732845783,0.414629517271,0.0733338149711,0.487963332243,0.3412957023,nan,nan,0.0,0.0,0.0,nan,nan,477.247280886,835.419915394,835.807916175,835.919950176,nan,nan
0,300,1825,6,1,88,61,1.0,-0.225257592204,-0.599932847766,1,1.0,1.0,0.675849831663,0,0.0,0.0,0.457454213252,0.414539555324,0.0732261393989,0.487765694723,0.341313415925,nan,nan,0.0,0.0,0.0,nan,nan,477.247280886,836.420046824,837.095896656,836.920116958,nan,nan
0,301,1826,6,0,391,274,-0.0591907973189,0.475916278612,-0.303718712187,0,0.0,1.0,0.515662944876,0,0.0,0.0,0.526504519085,0.415419387904,0.0746535235691,0.490072911473,0.340765864335,nan,nan,0.0,0.0,0.0,nan,nan,477.247280886,837.420194219,837.935857164,837.920246107,nan,nan
0,302,1827,6,1,280,196,0.228089347314,0.342018854333,0.61587222022,1,1.0,1.0,0.307536425069,0,0.0,0.0,0.499683067203,0.415755775679,0.0747532894979,0.490509065177,0.341002486181,nan,nan,0.0,0.0,0.0,nan,nan,477.247280886,838.420308543,838.727844968,838.920351593,nan,nan
0,303,1828,6,1,83,58,1.0,-0.203097876184,-0.665876706514,1,1.0,1.0,0.379401683807,0,0.0,0.0,0.400867017917,0.415393838052,0.0748892702737,0.490283108325,0.340504567778,nan,nan,0.0,0.0,0.0,nan,nan,477.247280886,839.42043199,839.799833674,839.920457934,nan,nan
0,304,1829,6,1,321,225,-0.0999433513493,0.43654647086,0.391174984052,1,1.0,1.0,0.330924073234,0,1.0,0.0,0.339287394037,0.415273864204,0.0747931270213,0.490066991225,0.340480737183,nan,nan,0.0,0.0,0.0,nan,nan,477.247280886,840.428877419,840.759801492,840.928940711,nan,nan
0,305,1835,6,1,435,305,0.221263830514,0.433027056876,-1.0,1,1.0,1.0,0.322758895345,1,0.0,0.0,0.344361550796,0.41499363234,0.0748263727697,0.48982000511,0.340167259571,161.804114238,410.0,0.0492046846968,0.463921527344,-0.54316189137,-17.6634892384,2.22556533292,477.247280886,841.429033937,841.751792832,841.929055034,843.254245522,845.487846884
0,306,1836,6,1,230,161,0.760023132926,0.140224214653,0.61781109556,1,1.0,1.0,0.503162295558,0,0.0,0.0,0.385615088046,0.414688219304,0.0748900713506,0.489578290655,0.339798147953,nan,nan,0.0,0.0,0.0,nan,nan,477.247280886,846.696501118,847.199663414,847.196442673,nan,nan
0,307,1837,6,1,317,222,-0.077772836126,0.429938605076,0.420733606481,1,1.0,1.0,0.350795335136,0,0.0,0.0,0.392238842013,0.414980212955,0.0749383841496,0.489918597105,0.340041828805,nan,nan,0.0,0.0,0.0,nan,nan,477.247280886,847.704835929,848.055631264,848.204867575,nan,nan
0,308,1838,6,1,150,105,1.0,-0.266152531622,0.0638227105866,1,1.0,1.0,0.313973915763,0,0.0,0.0,0.389310515486,0.414769078488,0.0749052440202,0.489674322509,0.339863834468,nan,nan,0.0,0.0,0.0,nan,nan,477.247280886,848.821687215,849.135661131,849.321708312,nan,nan
0,309,1839,6,0,388,272,-0.0739633693698,0.476941921698,-0.268577162136,0,0.0,1.0,0.39349231869,0,0.0,0.0,0.35275385653,0.414438602545,0.0750040045116,0.489442607057,0.339434598034,nan,nan,0.0,0.0,0.0,nan,nan,477.247280886,849.830114112,850.223606431,850.330164004,nan,nan
0,310,1840,6,1,463,325,0.440238315199,0.376011795327,-1.0,1,1.0,1.0,0.337481589057,0,0.0,0.0,0.34831594117,0.414370150637,0.0748908906625,0.4892610413,0.339479259975,nan,nan,0.0,0.0,0.0,nan,nan,477.247280886,850.830251815,851.167733404,851.330273767,nan,nan
0,311,1841,6,1,107,75,1.0,-0.290089771429,-0.379592780214,1,1.0,1.0,0.345224824734,0,0.0,0.0,0.358732910827,0.414119699296,0.0748970654837,0.48901676478,0.339222633813,nan,nan,0.0,0.0,0.0,nan,nan,477.247280886,851.830382104,852.175606929,852.330422018,nan,nan
0,312,1842,6,0,303,213,0.0191349273956,0.402522842081,0.512018356663,0,0.0,1.0,0.425030604936,0,0.0,0.0,0.369245672909,0.413896014639,0.0748780222676,0.488774036906,0.339017992371,nan,nan,0.0,0.0,0.0,nan,nan,477.247280886,852.830522941,853.255553546,853.330555728,nan,nan
0,313,1843,6,1,469,329,0.489482198204,0.360453357602,-1.0,1,1.0,1.0,0.352604560554,0,0.0,0.0,0.374286663408,0.413932048912,0.0747594370495,0.488691485961,0.339172611862,nan,nan,0.0,0.0,0.0,nan,nan,477.247280886,853.838956396,854.191560957,854.339000016,nan,nan
0,314,1844,6,1,234,164,0.71814774995,0.15974031316,0.62913160129,1,1.0,1.0,0.344402319752,0,0.0,0.0,0.374012495081,0.413734218304,0.0747197283102,0.488453946614,0.339014489994,nan,nan,0.0,0.0,0.0,nan,nan,477.247280886,854.839110633,855.183512953,855.339131161,nan,nan
0,315,1845,6,1,453,318,0.359670421306,0.39926174925,-1.0,1,1.0,1.0,0.352251324803,0,0.0,0.0,0.349752735036,0.413511286154,0.0747026941894,0.488213980344,0.338808591965,nan,nan,0.0,0.0,0.0,nan,nan,477.247280886,855.839238643,856.191489968,856.339252042,nan,nan
0,316,1846,6,1,17,11,0.981069150956,0.135921910835,-1.0,1,1.0,1.0,0.311772966757,0,1.0,0.0,0.336142203771,0.413314940124,0.0746632166708,0.487978156795,0.338651723453,nan,nan,0.0,0.0,0.0,nan,nan,477.247280886,856.84768008,857.159453047,857.347721133,nan,nan
0,317,1850,6,1,130,91,1.0,-0.309333154106,-0.136071487739,1,1.0,1.0,0.319619121961,1,0.0,0.0,0.32788113784,0.412990524874,0.0747637762053,0.487754301079,0.338226748669,-15.9453959009,151.0,1.0,-0.262720288689,0.0734626651272,14.5391459009,1.42547678202,477.247280886,857.847815216,858.167434338,858.347841159,859.673011975,861.106534765
0,318,1851,6,1,183,128,1.0,-0.113108999915,0.354902835149,1,1.0,1.0,0.331971805543,0,0.0,0.0,0.321121298087,0.412693163718,0.0748297901401,0.487522953858,0.337863373578,nan,nan,0.0,0.0,0.0,nan,nan,477.247280886,862.323384968,862.655356773,862.823424026,nan,nan
0,319,1852,6,1,297,208,0.0686262056446,0.388646276542,0.544904663634,1,1.0,1.0,0.33979543671,0,0.0,0.0,0.330462121405,0.412436905438,0.0748487886207,0.487285694059,0.337588116817,nan,nan,0.0,0.0,0.0,nan,nan,477.247280886,863.323532933,863.66332837,863.823560302,nan,nan
0,320,1853,6,1,194,136,1.0,-0.0524864644427,0.435571704399,1,1.0,1.0,0.331616858952,0,1.0,0.0,0.334461367068,0.412207027373,0.0748415530749,0.487048580448,0.337365474298,nan,nan,0.0,0.0,0.0,nan,nan,477.247280886,864.323672631,864.65528949,864.823677477,nan,nan
0,321,1858,6,1,497,349,0.723174939644,0.271260599794,-1.0,1,1.0,1.0,0.339491523802,1,0.0,0.0,0.336967939821,0.411952799712,0.0748599499141,0.486812749626,0.337092849798,118.508473694,471.0,0.506014005179,0.354993781952,-1.0,-17.9615986941,1.56716429349,477.247280886,865.323784674,865.663276197,865.823808622,867.148985425,868.724186318
0,322,1859,6,1,23,16,1.0,0.106943944166,-1.0,1,1.0,1.0,0.442492511123,0,0.0,0.0,0.371200297959,0.411724934064,0.0748521805586,0.486577114623,0.336872753506,nan,nan,0.0,0.0,0.0,nan,nan,477.247280886,869.932714255,870.375206766,870.432739058,nan,nan
0,323,1900,6,1,287,201,0.159501648714,0.36255249221,0.590751920292,1,1.0,1.0,0.402340875007,0,0.0,0.0,0.394774969978,0.411821384149,0.0747545542252,0.486575938375,0.337066829924,nan,nan,0.0,0.0,0.0,nan,nan,477.247280886,870.932857943,871.335198818,871.432874193,nan,nan
0,324,1901,6,1,342,240,-0.170052622031,0.462913557708,0.21407524247,1,1.0,1.0,0.353875238448,0,0.0,0.0,0.399569541526,0.411791757558,0.0746395345262,0.486431292084,0.337152223032,nan,nan,0.0,0.0,0.0,nan,nan,477.247280886,871.94128313,872.295158369,872.441337299,nan,nan
0,325,1902,6,1,245,172,0.600577697281,0.210610106048,0.650172825369,1,1.0,1.0,0.353652291931,0,0.0,0.0,0.369956135129,0.411611332265,0.0745930414884,0.486204373753,0.337018290777,nan,nan,0.0,0.0,0.0,nan,nan,477.247280886,872.94147386,873.295126152,873.441471864,nan,nan
0,326,1903,6,1,415,291,0.0813077335083,0.459153678902,-0.614968023274,1,1.0,1.0,0.361517548561,0,0.0,0.0,0.356348359647,0.411431335245,0.0745469114893,0.485978246735,0.336884423756,nan,nan,0.0,0.0,0.0,nan,nan,477.247280886,873.941595026,874.303112575,874.441594456,nan,nan
0,327,1904,6,1,198,139,1.0,-0.0302354974571,0.462326941081,1,1.0,1.0,0.409070874564,0,0.0,0.0,0.374746905019,0.411276803398,0.0744830606147,0.485759864013,0.336793742783,nan,nan,0.0,0.0,0.0,nan,nan,477.247280886,874.950008524,875.359079398,875.450057561,nan,nan
0,328,1905,6,1,485,341,0.622774561467,0.312875618285,-1.0,1,1.0,1.0,0.344909507781,0,0.0,0.0,0.371832643636,0.411269994976,0.0743681294574,0.485638124433,0.336901865518,nan,nan,0.0,0.0,0.0,nan,nan,477.247280886,875.95014594,876.295055448,876.450189561,nan,nan
0,329,1906,6,1,30,21,1.0,0.071945658744,-1.0,1,1.0,1.0,0.376765677705,0,0.0,0.0,0.37691535335,0.411065808861,0.0743445330122,0.485410341874,0.336721275849,nan,nan,0.0,0.0,0.0,nan,nan,477.247280886,876.950275945,877.327041622,877.450316143,nan,nan
0,330,1907,6,1,444,312,0.289241202529,0.417409780569,-1.0,1,1.0,1.0,0.31258549355,0,0.0,0.0,0.344753559679,0.410960593735,0.074254650274,0.485215244009,0.336705943461,nan,nan,0.0,0.0,0.0,nan,nan,477.247280886,877.950423625,878.263009119,878.45045242,nan,nan
0,331,1908,6,1,190,133,1.0,-0.0746884387243,0.407399635172,1,1.0,1.0,0.248434389941,0,1.0,0.0,0.312595187066,0.41065975245,0.0743397352911,0.484999487741,0.336320017159,nan,nan,0.0,0.0,0.0,nan,nan,477.247280886,878.950559046,879.198993436,879.450573016,nan,nan
0,332,1913,6,1,473,332,0.522594813828,0.349396171415,-1.0,1,1.0,1.0,0.384298509918,1,0.0,0.0,0.315106131136,0.41016516293,0.0747632116718,0.484928374602,0.335401951258,128.780770311,457.0,0.391639248186,0.390358177281,-1.0,-11.3588953112,1.69217562675,477.247280886,879.950685915,880.334984425,880.450733526,881.775876972,883.476109725
0,333,1914,6,1,321,225,-0.0999433513493,0.43654647086,0.391174984052,1,1.0,1.0,0.44226500392,0,0.0,0.0,0.358332634593,0.410086540885,0.0746630822466,0.484749623131,0.335423458638,nan,nan,0.0,0.0,0.0,nan,nan,477.247280886,884.684619986,885.126884989,885.184652486,nan,nan
0,334,1915,6,1,414,291,0.0747837862165,0.460162189034,-0.600089175003,1,1.0,1.0,0.314127013087,0,0.0,0.0,0.380230175642,0.410184051379,0.0745708483659,0.484754899745,0.335613203013,nan,nan,0.0,0.0,0.0,nan,nan,477.247280886,885.684740582,885.998867595,886.184817272,nan,nan
0,335,1916,6,1,9,6,0.918933560847,0.172916688009,-1.0,1,1.0,1.0,0.361965150572,0,0.0,0.0,0.372785722526,0.409893848846,0.0746445119869,0.484538360833,0.335249336859,nan,nan,0.0,0.0,0.0,nan,nan,477.247280886,886.684871726,887.046836876,887.184910784,nan,nan
0,336,1917,6,1,313,220,-0.0530221528698,0.42279583272,0.448797959603,1,1.0,1.0,0.36151982937,0,0.0,0.0,0.345870664343,0.409749485297,0.0745782739559,0.484327759253,0.335171211341,nan,nan,0.0,0.0,0.0,nan,nan,477.247280886,887.693333975,888.054853804,888.19339128,nan,nan
0,337,1918,6,1,402,282,0.000724920831492,0.470139955471,-0.437811562499,1,1.0,1.0,0.417360640131,0,0.0,0.0,0.380281873358,0.409604651495,0.0745129572258,0.484117608721,0.33509169427,nan,nan,0.0,0.0,0.0,nan,nan,477.247280886,888.693475098,889.110835738,889.193528697,nan,nan
0,338,1919,6,1,67,47,1.0,-0.12380466598,-1.0,1,1.0,1.0,0.361156045459,0,0.0,0.0,0.380012171653,0.409627873018,0.0744025339983,0.484030407017,0.33522533902,nan,nan,0.0,0.0,0.0,nan,nan,477.247280886,889.693642735,890.054798781,890.193637033,nan,nan
0,339,1920,6,1,359,252,-0.169222339917,0.474741883077,0.0483828026834,1,1.0,1.0,0.360706447624,0,0.0,0.0,0.379741044405,0.409483180996,0.0743384491909,0.483821630187,0.335144731805,nan,nan,0.0,0.0,0.0,nan,nan,477.247280886,890.702071629,891.062778076,891.202101278,nan,nan
0,340,1921,6,1,502,352,0.764740937618,0.25241357569,-1.0,1,1.0,1.0,0.456553211436,0,0.0,0.0,0.39280523484,0.409338012146,0.0742752837597,0.483613295906,0.335062728387,nan,nan,0.0,0.0,0.0,nan,nan,477.247280886,891.702188518,892.158741729,892.202225866,nan,nan
0,341,1922,6,1,239,168,0.665069831863,0.183388857662,0.640549267122,1,1.0,1.0,0.50024489779,0,0.0,0.0,0.439168185617,0.409478116595,0.0742094524212,0.483687569017,0.335268664174,nan,nan,0.0,0.0,0.0,nan,nan,477.247280886,892.702328786,893.202573684,893.202417166,nan,nan
0,342,1923,6,1,51,35,1.0,-0.0385160204876,-1.0,1,1.0,1.0,0.448249190114,0,0.0,0.0,0.46834909978,0.409746657368,0.0742633979154,0.484010055284,0.335483259453,nan,nan,0.0,0.0,0.0,nan,nan,477.247280886,893.702460786,894.150709976,894.202488725,nan,nan
0,343,1924,6,1,262,184,0.416452475899,0.2804144186,0.652815538838,1,1.0,1.0,0.4077574322,0,0.0,0.0,0.452083840035,0.409860234161,0.0741831771608,0.484043411322,0.335677057,nan,nan,0.0,0.0,0.0,nan,nan,477.247280886,894.710916193,895.118673625,895.210947554,nan,nan
0,344,1925,6,0,311,218,-0.0397249783266,0.419020224334,0.462250212202,0,1.0,0.0,0.399606794119,0,0.0,0.0,0.418537805478,0.409854049449,0.0740740914468,0.483928140896,0.335779958002,nan,nan,0.0,0.0,0.0,nan,nan,477.247280886,895.711047908,896.110654702,896.211111199,nan,nan
0,345,1926,6,1,109,76,1.0,-0.294638327523,-0.357773695079,1,1.0,1.0,0.359469696879,0,0.0,0.0,0.388944641066,0.409823998847,0.0739674741539,0.483791473001,0.335856524693,nan,nan,0.0,0.0,0.0,nan,nan,477.247280886,896.711169359,897.070639056,897.211208417,nan,nan
0,346,1927,6,1,321,225,-0.0999433513493,0.43654647086,0.391174984052,1,1.0,1.0,0.471311543137,0,0.0,0.0,0.410129344712,0.409676764046,0.0739092811274,0.483586045173,0.335767482919,nan,nan,0.0,0.0,0.0,nan,nan,477.247280886,897.711309912,898.182621455,898.211338421,nan,nan
0,347,1928,6,1,418,293,0.101175887384,0.455961754156,-0.661679309199,1,1.0,1.0,0.407173268497,0,0.0,0.0,0.412651502838,0.40985645728,0.0738762411421,0.483732698422,0.335980216137,nan,nan,0.0,0.0,0.0,nan,nan,477.247280886,898.711431649,899.118604917,899.21148154,nan,nan
0,348,1929,6,1,219,153,0.871627318206,0.0840881726889,0.576959667802,1,1.0,1.0,0.366985709406,0,0.0,0.0,0.415156840347,0.409848657312,0.0737689261759,0.483617583488,0.336079731136,nan,nan,0.0,0.0,0.0,nan,nan,477.247280886,899.711575623,900.078561332,900.211605272,nan,nan
0,349,1930,6,1,94,66,1.0,-0.249439013202,-0.526745155233,1,1.0,1.0,0.36653725151,0,0.0,0.0,0.380232076471,0.409724416883,0.0736979704827,0.483422387366,0.336026446401,nan,nan,0.0,0.0,0.0,nan,nan,477.247280886,900.720022191,901.086559443,901.220064101,nan,nan
0,350,1931,6,1,184,129,1.0,-0.107671891867,0.362640045218,1,1.0,1.0,0.462331557646,0,0.0,0.0,0.398618172854,0.409599598486,0.07362790344,0.483227501926,0.335971695046,nan,nan,0.0,0.0,0.0,nan,nan,477.247280886,901.720204653,902.182536211,902.220190398,nan,nan
0,351,1932,6,1,12,8,0.942476689623,0.159273951266,-1.0,1,1.0,1.0,0.374236295931,0,0.0,0.0,0.401035035029,0.409751563787,0.0735760546964,0.483327618483,0.33617550909,nan,nan,0.0,0.0,0.0,nan,nan,477.247280886,902.720283911,903.094520207,903.220328956,nan,nan
0,352,1933,6,1,200,140,1.0,-0.0191209939188,0.47515178387,1,1.0,1.0,0.389774653129,0,0.0,0.0,0.408780835569,0.409649508419,0.0734948575278,0.483144365947,0.336154650891,nan,nan,0.0,0.0,0.0,nan,nan,477.247280886,903.728733046,904.118507699,904.228786074,nan,nan
0,353,1934,6,1,150,105,1.0,-0.266152531622,0.0638227105866,1,1.0,1.0,0.381548179314,0,0.0,0.0,0.381853042791,0.40959256041,0.0733971771459,0.482989737556,0.336195383264,nan,nan,0.0,0.0,0.0,nan,nan,477.247280886,904.728926056,905.110474235,905.228914082,nan,nan
0,354,1935,6,1,31,21,1.0,0.0668515730764,-1.0,1,1.0,1.0,0.485464614816,0,0.0,0.0,0.418929149086,0.409512433607,0.0733075334102,0.482819967017,0.336204900196,nan,nan,0.0,0.0,0.0,nan,nan,477.247280886,905.729004743,906.214469357,906.22903981,nan,nan
0,355,1936,6,1,430,302,0.184725017221,0.440645728776,-0.941904167281,1,1.0,1.0,0.41331311781,0,0.0,0.0,0.42677530398,0.409728821587,0.073314884195,0.483043705782,0.336413937392,nan,nan,0.0,0.0,0.0,nan,nan,477.247280886,906.729147292,907.14246041,907.229179222,nan,nan
0,356,1937,6,0,201,141,1.0,-0.0135712615467,0.48142235136,0,0.0,1.0,0.437120713294,0,0.0,0.0,0.445299481973,0.409739004247,0.073210918222,0.482949922469,0.336528086025,nan,nan,0.0,0.0,0.0,nan,nan,477.247280886,907.729298393,908.166419107,908.229332034,nan,nan
0,357,1938,6,1,143,100,1.0,-0.287057525782,-0.00469998909502,1,nan,nan,nan,0,0.0,0.0,0.425216915552,0.409816572828,0.073121630259,0.482938203087,0.336694942569,nan,nan,0.0,0.0,0.0,nan,nan,477.247280886,908.729395611,nan,909.229478004,nan,nan
0,358,1939,6,1,202,142,1.0,-0.00802826454356,0.487596984314,1,1.0,1.0,0.484498134814,0,0.0,0.0,0.460809424054,0.409816572828,0.073121630259,0.482938203087,0.336694942569,nan,nan,0.0,0.0,0.0,nan,nan,477.247280886,909.737857861,910.222355995,910.237893213,nan,nan
0,359,1940,6,0,504,354,0.78128615449,0.244628286196,-1.0,0,0.0,1.0,0.468288374133,0,0.0,0.0,0.476393254474,0.410027537692,0.073125779402,0.483153317094,0.33690175829,nan,nan,0.0,0.0,0.0,nan,nan,477.247280886,910.738051157,911.206339531,911.238052581,nan,nan
0,360,1941,6,1,375,263,-0.128556699755,0.478682433309,-0.121605159467,1,1.0,1.0,0.380217061378,0,0.0,0.0,0.444334523442,0.410191652724,0.0730879683484,0.483279621073,0.337103684376,nan,nan,0.0,0.0,0.0,nan,nan,477.247280886,911.738113877,912.118330939,912.238158638,nan,nan
0,361,1942,6,1,27,18,1.0,0.0870912575778,-1.0,1,1.0,1.0,0.676033149473,0,0.0,0.0,0.508179528328,0.410107454434,0.0730024837764,0.483109938211,0.337104970658,nan,nan,0.0,0.0,0.0,nan,nan,477.247280886,912.738255856,913.414289005,913.238332832,nan,nan
0,362,1943,6,1,287,201,0.159501648714,0.36255249221,0.590751920292,1,1.0,1.0,0.563889099285,0,0.0,1.0,0.540046436712,0.410852344336,0.0742426087556,0.485094953092,0.336609735581,nan,nan,0.0,0.0,0.0,nan,nan,477.247280886,913.738390421,914.302279521,914.23845856,nan,nan
0,363,1950,6,0,145,101,1.0,-0.281667413287,0.0150551701241,0,0.0,1.0,0.507711018436,1,0.0,0.0,0.582544422398,0.411279821305,0.0745775124035,0.485857333709,0.336702308902,-122.53127173,302.0,0.027086081288,0.400300843718,0.517770016443,110.57814673,4.22585128527,477.247280886,914.738540383,915.246251401,915.238585998,916.563716901,920.797603075
0,364,1951,6,1,243,170,0.622151010882,0.20168048164,0.647463484622,1,1.0,1.0,0.471997771412,0,0.0,0.0,0.514532629711,0.411548431882,0.0746467892821,0.486195221164,0.3369016426,nan,nan,0.0,0.0,0.0,nan,nan,477.247280886,922.00612873,922.478126502,922.506174061,nan,nan
0,365,1952,6,1,403,283,0.00657627305109,0.469456436931,-0.450524507496,1,1.0,1.0,0.351469874382,0,0.0,0.0,0.44372622141,0.411716346714,0.074610904833,0.486327251547,0.337105441881,nan,nan,0.0,0.0,0.0,nan,nan,477.247280886,923.014618919,923.366088794,923.514617208,nan,nan
0,366,1953,6,1,129,90,1.0,-0.310070485259,-0.146368003411,1,1.0,1.0,0.3590802541,0,0.0,0.0,0.394182633298,0.411549458979,0.0745747490969,0.486124208076,0.336974709882,nan,nan,0.0,0.0,0.0,nan,nan,477.247280886,924.023028426,924.38210868,924.523080599,nan,nan
0,367,1954,6,1,361,253,-0.166047812515,0.475607712818,0.0278173107143,1,1.0,1.0,0.390898505226,0,0.0,0.0,0.367149544569,0.411404516424,0.0745225754418,0.485927091866,0.336881940983,nan,nan,0.0,0.0,0.0,nan,nan,477.247280886,925.023167838,925.414066344,925.523210032,nan,nan
0,368,1955,6,0,275,193,0.279002393219,0.326185254474,0.630178474337,0,0.0,1.0,0.430707171559,0,0.0,0.0,0.393561976962,0.411348026035,0.0744276174484,0.485775643484,0.336920408587,nan,nan,0.0,0.0,0.0,nan,nan,477.247280886,926.023334335,926.454041506,926.523363984,nan,nan
0,369,1956,6,1,167,117,1.0,-0.195605812978,0.221546716301,1,1.0,1.0,0.446577097289,0,0.0,0.0,0.422727591358,0.411401210501,0.0743322183945,0.485733428896,0.337068992107,nan,nan,0.0,0.0,0.0,nan,nan,477.247280886,927.023439535,927.470016632,927.52347004,nan,nan
0,370,1957,6,1,24,16,1.0,0.102019060141,-1.0,1,1.0,1.0,0.526065563783,0,0.0,0.0,0.467783277544,0.411497582794,0.0742530917527,0.485750674546,0.337244491041,nan,nan,0.0,0.0,0.0,nan,nan,477.247280886,928.031906917,928.557972481,928.531970209,nan,nan
0,371,1958,6,1,224,157,0.821619416966,0.11002478857,0.597264883709,1,1.0,1.0,0.373922119848,0,0.0,0.0,0.448854926974,0.411810610064,0.0743923536687,0.486202963733,0.337418256395,nan,nan,0.0,0.0,0.0,nan,nan,477.247280886,929.032052601,929.405974721,929.532066001,nan,nan
0,372,1959,6,1,110,77,1.0,-0.296722754836,-0.346921960777,1,1.0,1.0,0.397804410197,0,0.0,0.0,0.432597364609,0.411707371671,0.074317182053,0.486024553724,0.337390189618,nan,nan,0.0,0.0,0.0,nan,nan,477.247280886,930.032159513,930.429963923,930.532193724,nan,nan
0,373,2000,6,1,51,35,1.0,-0.0385160204876,-1.0,1,1.0,1.0,0.405634884723,0,0.0,0.0,0.392453804923,0.411669591885,0.0742196678879,0.485889259773,0.337449923997,nan,nan,0.0,0.0,0.0,nan,nan,477.247280886,931.032294649,931.437929533,931.532322588,nan,nan
0,374,2001,6,1,465,326,0.456588679398,0.37096152752,-1.0,1,1.0,1.0,0.429512615316,0,0.0,0.0,0.410983970078,0.411653237665,0.0741196949698,0.485772932634,0.337533542695,nan,nan,0.0,0.0,0.0,nan,nan,477.247280886,932.032409257,932.461921873,932.532467417,nan,nan
0,375,2002,6,1,415,291,0.0813077335083,0.459153678902,-0.614968023274,1,1.0,1.0,0.557330442593,0,0.0,0.0,0.46415931421,0.411701506253,0.0740252725952,0.485726778848,0.337676233658,nan,nan,0.0,0.0,0.0,nan,nan,477.247280886,933.032541542,933.589871985,933.532628212,nan,nan
0,376,2003,6,1,28,19,1.0,0.082066132397,-1.0,1,1.0,1.0,0.381203781813,0,0.0,0.0,0.456015613241,0.412094037079,0.0743100299936,0.486404067072,0.337784007085,nan,nan,0.0,0.0,0.0,nan,nan,477.247280886,934.032670122,934.413873903,934.532709179,nan,nan
0,377,2004,6,1,349,245,-0.175656888649,0.468768509344,0.147945183432,1,1.0,1.0,0.332721325569,0,0.0,0.0,0.423751849992,0.412010998758,0.0742273177708,0.486238316529,0.337783680987,nan,nan,0.0,0.0,0.0,nan,nan,477.247280886,935.041136077,935.373857402,935.54117257,nan,nan
0,378,2005,6,1,444,312,0.289241202529,0.417409780569,-1.0,1,1.0,1.0,0.31657257583,0,0.0,0.0,0.343499227737,0.411798425908,0.0742410469255,0.486039472833,0.337557378982,nan,nan,0.0,0.0,0.0,nan,nan,477.247280886,936.041266081,936.357838657,936.541304284,nan,nan
0,379,2006,6,1,360,253,-0.167709501072,0.475188317955,0.0381258551808,1,1.0,1.0,0.30041042529,0,1.0,0.0,0.316568108896,0.411543811335,0.0743046220296,0.485848433365,0.337239189306,nan,nan,0.0,0.0,0.0,nan,nan,477.247280886,937.041407204,937.34181763,937.541444552,nan,nan
0,380,2011,6,0,47,33,1.0,-0.0170755915744,-1.0,0,0.0,1.0,0.468231069855,1,0.0,0.0,0.361738023659,0.411247455639,0.074426479844,0.485673935483,0.336820975795,63.8998131012,37.0,1.0,0.0358565504353,-1.0,-6.94668810118,1.47547823563,477.247280886,938.041558306,938.509789376,938.541589951,939.866731117,941.350261633
0,381,2012,6,1,340,239,-0.166837174664,0.460980112934,0.232376404312,1,1.0,1.0,0.334912295453,0,0.0,0.0,0.367851263533,0.411399007805,0.0743853597208,0.485784367525,0.337013648084,nan,nan,0.0,0.0,0.0,nan,nan,477.247280886,942.558785007,942.893697303,943.058811806,nan,nan
0,382,2013,6,1,240,168,0.654373017221,0.188015059697,0.642463954019,1,1.0,1.0,0.382430839352,0,0.0,0.0,0.395191401554,0.411196125278,0.0743907354598,0.485586860738,0.336805389819,nan,nan,0.0,0.0,0.0,nan,nan,477.247280886,943.567234143,943.949664982,944.067272631,nan,nan
0,383,2014,6,1,372,261,-0.138660017671,0.478458869494,-0.0888123791441,1,1.0,1.0,0.374281056225,0,0.0,0.0,0.363874730344,0.411120026638,0.0743069617709,0.485426988409,0.336813064868,nan,nan,0.0,0.0,0.0,nan,nan,477.247280886,944.567367283,944.941648339,945.067403205,nan,nan
0,384,2015,6,1,47,33,1.0,-0.0170755915744,-1.0,1,1.0,1.0,0.334121721797,0,0.0,0.0,0.363611205791,0.411022826189,0.0742329254292,0.485255751618,0.33678990076,nan,nan,0.0,0.0,0.0,nan,nan,477.247280886,945.567538056,945.901659777,946.067536916,nan,nan
0,385,2016,6,0,179,125,1.0,-0.13461441766,0.323204131591,0,0.0,1.0,0.429984735325,0,0.0,0.0,0.379462504449,0.410820454861,0.0742397969743,0.485060251836,0.336580657887,nan,nan,0.0,0.0,0.0,nan,nan,477.247280886,946.567628717,946.997613452,947.067693149,nan,nan
0,386,2017,6,1,451,317,0.343830962376,0.403518361206,-1.0,1,1.0,1.0,0.381820161827,0,0.0,0.0,0.38197553965,0.41087075481,0.0741487888182,0.485019543628,0.336721965992,nan,nan,0.0,0.0,0.0,nan,nan,477.247280886,947.567767274,947.949587435,948.067814315,nan,nan
0,387,2018,6,1,360,253,-0.167709501072,0.475188317955,0.0381258551808,1,1.0,1.0,0.317369991913,0,0.0,0.0,0.376391629688,0.410794706137,0.0740665482956,0.484861254433,0.336728157842,nan,nan,0.0,0.0,0.0,nan,nan,477.247280886,948.576222681,948.893592672,949.076263164,nan,nan
