block,trial,freq_trials,correct_response,actual_response,acc,rts,probe_trials,fast_rt_trigger,slow_rt_trigger,rt_triggered,rts_runningavg,rts_runningstd,rts_runningfastthresh,rts_runningslowthresh,rts_runningstd,rts_trailingavg,trials_colorind0,trials_colorind1,trials_colorind2,trials_colorind3,trials_colorind4,trials_colorind5,wholereport_resp0,wholereport_resp1,wholereport_resp2,wholereport_resp3,wholereport_resp4,wholereport_resp5,wholereport_respacc0,wholereport_respacc1,wholereport_respacc2,wholereport_respacc3,wholereport_respacc4,wholereport_respacc5,wholereport_respacc_total,wholereport_respcolorind0,wholereport_respcolorind1,wholereport_respcolorind2,wholereport_respcolorind3,wholereport_respcolorind4,wholereport_respcolorind5,wholereport_resporder0,wholereport_resporder1,wholereport_resporder2,wholereport_resporder3,wholereport_resporder4,wholereport_resporder5,wholereport_rts0,wholereport_rts1,wholereport_rts2,wholereport_rts3,wholereport_rts4,wholereport_rts5,time_blockstart,time_encarray_offset,time_encarray_onset,time_response,time_iti_offset,time_iti_onset,time_memprobe_offset,time_memprobe_onset
1,1,1,1,nan,nan,nan,0,nan,nan,nan,nan,nan,nan,nan,nan,nan,8,5,6,7,2,4,nan,nan,nan,nan,nan,nan,nan,nan,nan,nan,nan,nan,0.0,nan,nan,nan,nan,nan,nan,nan,nan,nan,nan,nan,nan,nan,nan,nan,nan,nan,nan,10.603461714783407,1093.742427231632,nan,nan,nan,nan,nan,nan
1,2,1,1,1.0,1.0,0.5240802174039345,0,nan,nan,nan,nan,nan,nan,nan,nan,nan,7,5,4,2,0,3,nan,nan,nan,nan,nan,nan,nan,nan,nan,nan,nan,nan,0.0,nan,nan,nan,nan,nan,nan,nan,nan,nan,nan,nan,nan,nan,nan,nan,nan,nan,nan,10.603461714783407,1094.7676675120774,nan,1095.2917477294814,nan,nan,nan,nan
1,3,1,1,1.0,1.0,0.554995655109451,0,nan,nan,nan,nan,nan,nan,nan,nan,nan,5,3,1,4,6,2,nan,nan,nan,nan,nan,nan,nan,nan,nan,nan,nan,nan,0.0,nan,nan,nan,nan,nan,nan,nan,nan,nan,nan,nan,nan,nan,nan,nan,nan,nan,nan,10.603461714783407,1095.7927005264046,nan,1096.347696181514,nan,nan,nan,nan
1,4,1,1,1.0,1.0,0.426191594860029,0,nan,nan,nan,nan,nan,nan,nan,nan,nan,8,7,0,2,3,4,nan,nan,nan,nan,nan,nan,nan,nan,nan,nan,nan,nan,0.0,nan,nan,nan,nan,nan,nan,nan,nan,nan,nan,nan,nan,nan,nan,nan,nan,nan,nan,10.603461714783407,1096.8095041920787,nan,1097.2356957869388,nan,nan,nan,nan
1,5,1,1,1.0,1.0,0.5053632602421203,0,nan,nan,nan,nan,nan,nan,nan,nan,nan,2,4,1,0,5,7,nan,nan,nan,nan,nan,nan,nan,nan,nan,nan,nan,nan,0.0,nan,nan,nan,nan,nan,nan,nan,nan,nan,nan,nan,nan,nan,nan,nan,nan,nan,nan,10.603461714783407,1097.826310423633,nan,1098.3316736838751,nan,nan,nan,nan
1,6,1,1,1.0,1.0,0.5365572385189807,0,nan,nan,nan,nan,nan,nan,nan,nan,nan,5,2,0,4,6,8,nan,nan,nan,nan,nan,nan,nan,nan,nan,nan,nan,nan,0.0,nan,nan,nan,nan,nan,nan,nan,nan,nan,nan,nan,nan,nan,nan,nan,nan,nan,nan,10.603461714783407,1098.8430927069703,nan,1099.3796499454893,nan,nan,nan,nan
1,7,1,1,1.0,1.0,0.5597294193585185,0,nan,nan,nan,nan,nan,nan,nan,nan,nan,2,8,4,1,0,7,nan,nan,nan,nan,nan,nan,nan,nan,nan,nan,nan,nan,0.0,nan,nan,nan,nan,nan,nan,nan,nan,nan,nan,nan,nan,nan,nan,nan,nan,nan,nan,10.603461714783407,1099.8598958024477,nan,1100.4196252218062,nan,nan,nan,nan
1,8,1,1,1.0,1.0,0.5349070923211912,0,nan,nan,nan,nan,nan,nan,nan,nan,nan,6,2,1,0,8,4,nan,nan,nan,nan,nan,nan,nan,nan,nan,nan,nan,nan,0.0,nan,nan,nan,nan,nan,nan,nan,nan,nan,nan,nan,nan,nan,nan,nan,nan,nan,nan,10.603461714783407,1100.8766991830244,nan,1101.4116062753455,nan,nan,nan,nan
1,9,1,1,1.0,1.0,0.5337809559214293,0,nan,nan,nan,nan,nan,nan,nan,nan,nan,0,5,7,8,3,2,nan,nan,nan,nan,nan,nan,nan,nan,nan,nan,nan,nan,0.0,nan,nan,nan,nan,nan,nan,nan,nan,nan,nan,nan,nan,nan,nan,nan,nan,nan,nan,10.603461714783407,1101.9018217180683,nan,1102.4356026739897,nan,nan,nan,nan
1,10,1,1,1.0,1.0,0.5886269346738118,0,nan,nan,nan,nan,nan,nan,nan,nan,nan,5,6,2,0,7,1,nan,nan,nan,nan,nan,nan,nan,nan,nan,nan,nan,nan,0.0,nan,nan,nan,nan,nan,nan,nan,nan,nan,nan,nan,nan,nan,nan,nan,nan,nan,nan,10.603461714783407,1102.926956797417,nan,1103.5155837320908,nan,nan,nan,nan
1,11,1,1,1.0,1.0,0.6275285325900768,0,nan,nan,nan,nan,nan,nan,nan,nan,nan,1,7,5,3,4,6,nan,nan,nan,nan,nan,nan,nan,nan,nan,nan,nan,nan,0.0,nan,nan,nan,nan,nan,nan,nan,nan,nan,nan,nan,nan,nan,nan,nan,nan,nan,nan,10.603461714783407,1103.9520727752106,nan,1104.5796013078007,nan,nan,nan,nan
1,12,1,1,1.0,1.0,0.43432800162372587,0,nan,nan,nan,nan,nan,nan,nan,nan,nan,4,8,1,6,3,2,nan,nan,nan,nan,nan,nan,nan,nan,nan,nan,nan,nan,0.0,nan,nan,nan,nan,nan,nan,nan,nan,nan,nan,nan,nan,nan,nan,nan,nan,nan,nan,10.603461714783407,1104.9772144118097,nan,1105.4115424134334,nan,nan,nan,nan
1,13,1,1,1.0,1.0,0.40148615793077624,0,nan,nan,nan,nan,nan,nan,nan,nan,nan,1,6,4,2,0,8,nan,nan,nan,nan,nan,nan,nan,nan,nan,nan,nan,nan,0.0,nan,nan,nan,nan,nan,nan,nan,nan,nan,nan,nan,nan,nan,nan,nan,nan,nan,nan,10.603461714783407,1105.9940331876678,nan,1106.3955193455986,nan,nan,nan,nan
1,14,1,1,1.0,1.0,0.3923564703518423,0,nan,nan,nan,nan,nan,nan,nan,nan,nan,8,1,7,5,2,6,nan,nan,nan,nan,nan,nan,nan,nan,nan,nan,nan,nan,0.0,nan,nan,nan,nan,nan,nan,nan,nan,nan,nan,nan,nan,nan,nan,nan,nan,nan,nan,10.603461714783407,1107.0191471697772,nan,1107.411503640129,nan,nan,nan,nan
1,15,1,1,1.0,1.0,0.33522001569235726,0,nan,nan,nan,nan,nan,nan,nan,nan,nan,2,0,1,6,3,5,nan,nan,nan,nan,nan,nan,nan,nan,nan,nan,nan,nan,0.0,nan,nan,nan,nan,nan,nan,nan,nan,nan,nan,nan,nan,nan,nan,nan,nan,nan,nan,10.603461714783407,1108.0442711303103,nan,1108.3794911460027,nan,nan,nan,nan
1,16,1,1,1.0,1.0,0.27805134497702966,0,nan,nan,nan,nan,nan,nan,nan,nan,nan,3,2,5,8,1,6,nan,nan,nan,nan,nan,nan,nan,nan,nan,nan,nan,nan,0.0,nan,nan,nan,nan,nan,nan,nan,nan,nan,nan,nan,nan,nan,nan,nan,nan,nan,nan,10.603461714783407,1109.0694053543657,nan,1109.3474566993427,nan,nan,nan,nan
1,17,1,1,1.0,1.0,0.3652730324829463,0,nan,nan,nan,nan,nan,nan,nan,nan,nan,4,8,3,2,6,0,nan,nan,nan,nan,nan,nan,nan,nan,nan,nan,nan,nan,0.0,nan,nan,nan,nan,nan,nan,nan,nan,nan,nan,nan,nan,nan,nan,nan,nan,nan,nan,10.603461714783407,1110.0861750933982,nan,1110.4514481258811,nan,nan,nan,nan
1,18,1,1,1.0,1.0,0.40442266550508066,0,nan,nan,nan,nan,nan,nan,nan,nan,nan,3,6,7,1,5,4,nan,nan,nan,nan,nan,nan,nan,nan,nan,nan,nan,nan,0.0,nan,nan,nan,nan,nan,nan,nan,nan,nan,nan,nan,nan,nan,nan,nan,nan,nan,nan,10.603461714783407,1111.1030121155172,nan,1111.5074347810223,nan,nan,nan,nan
1,19,1,1,1.0,1.0,0.5233178658254474,0,nan,nan,nan,nan,nan,nan,nan,nan,nan,4,5,3,0,2,7,nan,nan,nan,nan,nan,nan,nan,nan,nan,nan,nan,nan,0.0,nan,nan,nan,nan,nan,nan,nan,nan,nan,nan,nan,nan,nan,nan,nan,nan,nan,nan,10.603461714783407,1112.1281032898014,nan,1112.6514211556268,nan,nan,nan,nan
1,20,1,1,1.0,1.0,0.5941310332400462,0,nan,nan,nan,nan,nan,nan,nan,nan,nan,8,4,7,3,1,2,nan,nan,nan,nan,nan,nan,nan,nan,nan,nan,nan,nan,0.0,nan,nan,nan,nan,nan,nan,nan,nan,nan,nan,nan,nan,nan,nan,nan,nan,nan,nan,10.603461714783407,1113.1532700150083,nan,1113.7474010482483,nan,nan,nan,nan
1,21,1,1,1.0,1.0,0.5609861305611048,0,nan,nan,nan,nan,nan,nan,nan,nan,nan,4,7,6,5,8,1,nan,nan,nan,nan,nan,nan,nan,nan,nan,nan,nan,nan,0.0,nan,nan,nan,nan,nan,nan,nan,nan,nan,nan,nan,nan,nan,nan,nan,nan,nan,nan,10.603461714783407,1114.178391124563,nan,1114.739377255124,nan,nan,nan,nan
1,22,1,1,1.0,1.0,0.44815439073408925,0,nan,nan,nan,nan,nan,nan,nan,nan,nan,1,8,7,4,0,2,nan,nan,nan,nan,nan,nan,nan,nan,nan,nan,nan,nan,0.0,nan,nan,nan,nan,nan,nan,nan,nan,nan,nan,nan,nan,nan,nan,nan,nan,nan,nan,10.603461714783407,1115.1952096153236,nan,1115.6433640060577,nan,nan,nan,nan
1,23,1,1,1.0,1.0,0.6469992883958184,0,nan,nan,nan,nan,nan,nan,nan,nan,nan,0,7,3,6,5,1,nan,nan,nan,nan,nan,nan,nan,nan,nan,nan,nan,nan,0.0,nan,nan,nan,nan,nan,nan,nan,nan,nan,nan,nan,nan,nan,nan,nan,nan,nan,nan,10.603461714783407,1116.2203338609543,nan,1116.86733314935,nan,nan,nan,nan
1,24,0,0,nan,nan,nan,0,nan,nan,nan,nan,nan,nan,nan,nan,nan,5,2,8,3,0,6,nan,nan,nan,nan,nan,nan,nan,nan,nan,nan,nan,nan,0.0,nan,nan,nan,nan,nan,nan,nan,nan,nan,nan,nan,nan,nan,nan,nan,nan,nan,nan,10.603461714783407,1117.2371480752481,nan,nan,nan,nan,nan,nan
1,25,1,1,nan,nan,nan,0,nan,nan,nan,nan,nan,nan,nan,nan,nan,7,8,0,6,4,1,nan,nan,nan,nan,nan,nan,nan,nan,nan,nan,nan,nan,0.0,nan,nan,nan,nan,nan,nan,nan,nan,nan,nan,nan,nan,nan,nan,nan,nan,nan,nan,10.603461714783407,1118.2622594914774,nan,nan,nan,nan,nan,nan
1,26,1,1,1.0,1.0,0.03625931129499804,0,nan,nan,nan,nan,nan,nan,nan,nan,nan,0,2,4,3,1,5,nan,nan,nan,nan,nan,nan,nan,nan,nan,nan,nan,nan,0.0,nan,nan,nan,nan,nan,nan,nan,nan,nan,nan,nan,nan,nan,nan,nan,nan,nan,nan,10.603461714783407,1119.2790617316614,nan,1119.3153210429564,nan,nan,nan,nan
1,27,1,1,1.0,1.0,0.38740489136580436,0,nan,nan,nan,nan,nan,nan,nan,nan,nan,7,3,8,0,2,4,nan,nan,nan,nan,nan,nan,nan,nan,nan,nan,nan,nan,0.0,nan,nan,nan,nan,nan,nan,nan,nan,nan,nan,nan,nan,nan,nan,nan,nan,nan,nan,10.603461714783407,1120.2958591251836,nan,1120.6832640165494,nan,nan,nan,nan
1,28,1,1,1.0,1.0,0.3305809039193264,0,nan,nan,nan,nan,nan,nan,nan,nan,nan,5,1,2,4,6,3,nan,nan,nan,nan,nan,nan,nan,nan,nan,nan,nan,nan,0.0,nan,nan,nan,nan,nan,nan,nan,nan,nan,nan,nan,nan,nan,nan,nan,nan,nan,nan,10.603461714783407,1121.312667922618,nan,1121.6432488265373,nan,nan,nan,nan
1,29,1,1,1.0,1.0,0.2734515767051562,0,nan,nan,nan,nan,nan,nan,nan,nan,nan,3,4,7,6,5,1,nan,nan,nan,nan,nan,nan,nan,nan,nan,nan,nan,nan,0.0,nan,nan,nan,nan,nan,nan,nan,nan,nan,nan,nan,nan,nan,nan,nan,nan,nan,nan,10.603461714783407,1122.3377864662925,nan,1122.6112380429977,nan,nan,nan,nan
1,30,1,1,1.0,1.0,0.32061074796001776,0,nan,nan,nan,nan,nan,nan,nan,nan,nan,2,3,1,7,8,6,nan,nan,nan,nan,nan,nan,nan,nan,nan,nan,nan,nan,0.0,nan,nan,nan,nan,nan,nan,nan,nan,nan,nan,nan,nan,nan,nan,nan,nan,nan,nan,10.603461714783407,1123.3545981147054,nan,1123.6752088626654,nan,nan,nan,nan
1,31,1,1,1.0,1.0,0.29581265423803416,0,nan,nan,nan,nan,nan,nan,nan,nan,nan,3,0,4,6,2,5,nan,nan,nan,nan,nan,nan,nan,nan,nan,nan,nan,nan,0.0,nan,nan,nan,nan,nan,nan,nan,nan,nan,nan,nan,nan,nan,nan,nan,nan,nan,nan,10.603461714783407,1124.371392657249,nan,1124.6672053114871,nan,nan,nan,nan
1,32,1,1,1.0,1.0,0.28668895371356484,0,nan,nan,nan,nan,nan,nan,nan,nan,nan,6,3,8,1,4,7,nan,nan,nan,nan,nan,nan,nan,nan,nan,nan,nan,nan,0.0,nan,nan,nan,nan,nan,nan,nan,nan,nan,nan,nan,nan,nan,nan,nan,nan,nan,nan,10.603461714783407,1125.396494380152,nan,1125.6831833338656,nan,nan,nan,nan
1,33,0,0,1.0,0.0,0.32584799496362393,0,nan,nan,0.0,nan,nan,nan,nan,nan,nan,4,5,7,0,8,3,nan,nan,nan,nan,nan,nan,nan,nan,nan,nan,nan,nan,0.0,nan,nan,nan,nan,nan,nan,nan,nan,nan,nan,nan,nan,nan,nan,nan,nan,nan,nan,10.603461714783407,1126.4133234195324,nan,1126.739171414496,nan,nan,nan,nan
1,34,1,1,1.0,1.0,0.39704205306952645,1,nan,nan,nan,nan,nan,nan,nan,nan,nan,7,2,3,5,4,1,1.0,1.0,1.0,1.0,1.0,1.0,0.0,0.0,0.0,0.0,0.0,0.0,0.0,3.0,7.0,6.0,4.0,1.0,0.0,1.0,6.0,5.0,4.0,3.0,2.0,2.0727638067173757,6.3680801056452765,5.312560440737798,4.6568123554552585,3.848466515830296,2.968062486600502,10.603461714783407,1127.4301054177713,1128.2385302294924,1127.8271474708408,1135.6644689425839,1136.6653729877798,1129.2553261975254,1135.6561415202787
1,35,1,1,1.0,1.0,0.7292705373074568,0,nan,nan,nan,nan,nan,nan,nan,nan,nan,4,6,7,3,5,0,nan,nan,nan,nan,nan,nan,nan,nan,nan,nan,nan,nan,0.0,nan,nan,nan,nan,nan,nan,nan,nan,nan,nan,nan,nan,nan,nan,nan,nan,nan,nan,10.603461714783407,1136.8896788316006,nan,1137.618949368908,nan,nan,nan,nan
1,36,1,1,1.0,1.0,0.45612658115260274,0,nan,nan,nan,nan,nan,nan,nan,nan,nan,0,2,6,8,1,7,nan,nan,nan,nan,nan,nan,nan,nan,nan,nan,nan,nan,0.0,nan,nan,nan,nan,nan,nan,nan,nan,nan,nan,nan,nan,nan,nan,nan,nan,nan,nan,10.603461714783407,1137.914800511352,nan,1138.3709270925046,nan,nan,nan,nan
1,37,1,1,1.0,1.0,0.3589937529359304,0,nan,nan,nan,nan,nan,nan,nan,nan,nan,1,6,4,7,5,3,nan,nan,nan,nan,nan,nan,nan,nan,nan,nan,nan,nan,0.0,nan,nan,nan,nan,nan,nan,nan,nan,nan,nan,nan,nan,nan,nan,nan,nan,nan,nan,10.603461714783407,1138.9399213358092,nan,1139.2989150887452,nan,nan,nan,nan
1,38,1,1,1.0,1.0,0.3098309141832942,0,nan,nan,nan,nan,nan,nan,nan,nan,nan,2,4,8,0,3,5,nan,nan,nan,nan,nan,nan,nan,nan,nan,nan,nan,nan,0.0,nan,nan,nan,nan,nan,nan,nan,nan,nan,nan,nan,nan,nan,nan,nan,nan,nan,nan,10.603461714783407,1139.9650815037658,nan,1140.274912417949,nan,nan,nan,nan
1,39,1,1,1.0,1.0,0.4286804988523727,0,nan,nan,nan,nan,nan,nan,nan,nan,nan,5,1,7,6,8,0,nan,nan,nan,nan,nan,nan,nan,nan,nan,nan,nan,nan,0.0,nan,nan,nan,nan,nan,nan,nan,nan,nan,nan,nan,nan,nan,nan,nan,nan,nan,nan,10.603461714783407,1140.9901894988216,nan,1141.418869997674,nan,nan,nan,nan
1,40,1,1,1.0,1.0,0.41157206360639975,0,nan,nan,nan,nan,nan,nan,nan,nan,nan,1,4,0,3,6,5,nan,nan,nan,nan,nan,nan,nan,nan,nan,nan,nan,nan,0.0,nan,nan,nan,nan,nan,nan,nan,nan,nan,nan,nan,nan,nan,nan,nan,nan,nan,nan,10.603461714783407,1142.0153171656266,nan,1142.426889229233,nan,nan,nan,nan
1,41,1,1,1.0,1.0,0.41840728390707227,0,nan,nan,nan,nan,nan,nan,nan,nan,nan,0,5,8,7,3,6,nan,nan,nan,nan,nan,nan,nan,nan,nan,nan,nan,nan,0.0,nan,nan,nan,nan,nan,nan,nan,nan,nan,nan,nan,nan,nan,nan,nan,nan,nan,nan,10.603461714783407,1143.0404573767355,nan,1143.4588646606426,nan,nan,nan,nan
1,42,1,1,1.0,1.0,0.35326642277505016,0,nan,nan,nan,nan,nan,nan,nan,nan,nan,2,8,1,0,4,5,nan,nan,nan,nan,nan,nan,nan,nan,nan,nan,nan,nan,0.0,nan,nan,nan,nan,nan,nan,nan,nan,nan,nan,nan,nan,nan,nan,nan,nan,nan,nan,10.603461714783407,1144.0655807670728,nan,1144.4188471898478,nan,nan,nan,nan
1,43,0,0,0.0,1.0,0.5441029225949023,0,nan,nan,nan,nan,nan,nan,nan,nan,nan,7,6,3,1,0,2,nan,nan,nan,nan,nan,nan,nan,nan,nan,nan,nan,nan,0.0,nan,nan,nan,nan,nan,nan,nan,nan,nan,nan,nan,nan,nan,nan,nan,nan,nan,nan,10.603461714783407,1145.0907138507364,nan,1145.6348167733313,nan,nan,nan,nan
1,44,1,1,1.0,1.0,0.631255616427552,0,nan,nan,nan,nan,nan,nan,nan,nan,nan,0,1,2,3,8,6,nan,nan,nan,nan,nan,nan,nan,nan,nan,nan,nan,nan,0.0,nan,nan,nan,nan,nan,nan,nan,nan,nan,nan,nan,nan,nan,nan,nan,nan,nan,nan,10.603461714783407,1146.107526069345,nan,1146.7387816857727,nan,nan,nan,nan
1,45,1,1,1.0,1.0,0.5741465311575666,0,nan,nan,nan,nan,nan,nan,nan,nan,nan,1,3,7,8,2,5,nan,nan,nan,nan,nan,nan,nan,nan,nan,nan,nan,nan,0.0,nan,nan,nan,nan,nan,nan,nan,nan,nan,nan,nan,nan,nan,nan,nan,nan,nan,nan,10.603461714783407,1147.1326440428247,nan,1147.7067905739823,nan,nan,nan,nan
1,46,1,1,1.0,1.0,0.4452238702142495,0,nan,nan,nan,nan,nan,nan,nan,nan,nan,3,2,4,1,7,8,nan,nan,nan,nan,nan,nan,nan,nan,nan,nan,nan,nan,0.0,nan,nan,nan,nan,nan,nan,nan,nan,nan,nan,nan,nan,nan,nan,nan,nan,nan,nan,10.603461714783407,1148.149524114715,nan,1148.5947479849292,nan,nan,nan,nan
1,47,1,1,1.0,1.0,0.4281735949243739,0,nan,nan,nan,nan,nan,nan,nan,nan,nan,5,8,2,0,3,6,nan,nan,nan,nan,nan,nan,nan,nan,nan,nan,nan,nan,0.0,nan,nan,nan,nan,nan,nan,nan,nan,nan,nan,nan,nan,nan,nan,nan,nan,nan,nan,10.603461714783407,1149.1745648266833,nan,1149.6027384216077,nan,nan,nan,nan
1,48,1,1,1.0,1.0,0.41107485300381086,1,nan,nan,nan,nan,nan,nan,nan,nan,nan,6,0,1,5,4,3,1.0,1.0,1.0,1.0,1.0,1.0,0.0,0.0,1.0,1.0,1.0,0.0,3.0,7.0,8.0,1.0,5.0,4.0,0.0,5.0,6.0,1.0,2.0,3.0,4.0,4.294443329396017,5.014064730890823,1.2167823973768463,1.9661221108190148,2.7433714756207337,3.469989747883119,10.603461714783407,1150.19967396213,1151.0081181605037,1150.6107488151338,1157.083902863751,1158.0838090665675,1152.0249226814703,1157.075563467337
1,49,1,1,1.0,1.0,0.773485788443395,0,nan,nan,nan,nan,nan,nan,nan,nan,nan,3,6,8,7,1,4,nan,nan,nan,nan,nan,nan,nan,nan,nan,nan,nan,nan,0.0,nan,nan,nan,nan,nan,nan,nan,nan,nan,nan,nan,nan,nan,nan,nan,nan,nan,nan,10.603461714783407,1158.3090848131815,nan,1159.0825706016249,nan,nan,nan,nan
1,50,1,1,1.0,1.0,0.4283663210526356,1,nan,nan,nan,nan,nan,nan,nan,nan,nan,7,0,2,5,6,1,1.0,1.0,1.0,1.0,1.0,1.0,0.0,1.0,1.0,0.0,0.0,0.0,2.0,0.0,0.0,2.0,8.0,3.0,7.0,3.0,2.0,1.0,6.0,5.0,4.0,2.55199243464358,1.8650731789084602,1.0958410499806632,6.111371753875574,5.207848001806269,3.360432356549609,10.603461714783407,1159.334212765084,1160.1426390022943,1159.7625790861366,1167.301891795113,1168.3016343517793,1161.1511072629246,1167.2935583857534
1,51,1,1,1.0,1.0,0.49170051728196995,0,nan,nan,nan,nan,nan,nan,nan,nan,nan,3,6,4,0,8,7,nan,nan,nan,nan,nan,nan,nan,nan,nan,nan,nan,nan,0.0,nan,nan,nan,nan,nan,nan,nan,nan,nan,nan,nan,nan,nan,nan,nan,nan,nan,nan,10.603461714783407,1168.518703272467,nan,1169.010403789749,nan,nan,nan,nan
1,52,0,0,1.0,0.0,0.28246551456686575,0,nan,nan,0.0,nan,nan,nan,nan,nan,nan,5,2,0,1,3,4,nan,nan,nan,nan,nan,nan,nan,nan,nan,nan,nan,nan,0.0,nan,nan,nan,nan,nan,nan,nan,nan,nan,nan,nan,nan,nan,nan,nan,nan,nan,nan,10.603461714783407,1169.5439150431303,nan,1169.8263805576971,nan,nan,nan,nan
1,53,1,1,1.0,1.0,0.3693710285870111,0,nan,nan,nan,nan,nan,nan,nan,nan,nan,3,5,8,6,7,1,nan,nan,nan,nan,nan,nan,nan,nan,nan,nan,nan,nan,0.0,nan,nan,nan,nan,nan,nan,nan,nan,nan,nan,nan,nan,nan,nan,nan,nan,nan,nan,10.603461714783407,1170.5689985197723,nan,1170.9383695483593,nan,nan,nan,nan
1,54,1,1,1.0,1.0,0.3601786194876695,0,nan,nan,nan,nan,nan,nan,nan,nan,nan,0,2,4,8,1,6,nan,nan,nan,nan,nan,nan,nan,nan,nan,nan,nan,nan,0.0,nan,nan,nan,nan,nan,nan,nan,nan,nan,nan,nan,nan,nan,nan,nan,nan,nan,nan,10.603461714783407,1171.5941797849682,nan,1171.954358404456,nan,nan,nan,nan
1,55,1,1,1.0,1.0,0.575044874397463,0,nan,nan,nan,nan,nan,nan,nan,nan,nan,5,0,1,3,6,7,nan,nan,nan,nan,nan,nan,nan,nan,nan,nan,nan,nan,0.0,nan,nan,nan,nan,nan,nan,nan,nan,nan,nan,nan,nan,nan,nan,nan,nan,nan,nan,10.603461714783407,1172.61927637611,nan,1173.1943212505075,nan,nan,nan,nan
1,56,1,1,1.0,1.0,0.3979284222004935,0,nan,nan,nan,nan,nan,nan,nan,nan,nan,3,1,8,2,7,4,nan,nan,nan,nan,nan,nan,nan,nan,nan,nan,nan,nan,0.0,nan,nan,nan,nan,nan,nan,nan,nan,nan,nan,nan,nan,nan,nan,nan,nan,nan,nan,10.603461714783407,1173.6443875072418,nan,1174.0423159294423,nan,nan,nan,nan
1,57,1,1,nan,nan,nan,0,nan,nan,nan,nan,nan,nan,nan,nan,nan,4,7,6,0,2,3,nan,nan,nan,nan,nan,nan,nan,nan,nan,nan,nan,nan,0.0,nan,nan,nan,nan,nan,nan,nan,nan,nan,nan,nan,nan,nan,nan,nan,nan,nan,nan,10.603461714783407,1174.6612310866103,nan,nan,nan,nan,nan,nan
1,58,1,1,1.0,1.0,0.4839410098393273,0,nan,nan,nan,nan,nan,nan,nan,nan,nan,3,0,7,2,6,8,nan,nan,nan,nan,nan,nan,nan,nan,nan,nan,nan,nan,0.0,nan,nan,nan,nan,nan,nan,nan,nan,nan,nan,nan,nan,nan,nan,nan,nan,nan,nan,10.603461714783407,1175.6863302436332,nan,1176.1702712534725,nan,nan,nan,nan
1,59,1,1,1.0,1.0,0.3311194537063784,0,nan,nan,nan,nan,nan,nan,nan,nan,nan,5,2,4,1,8,6,nan,nan,nan,nan,nan,nan,nan,nan,nan,nan,nan,nan,0.0,nan,nan,nan,nan,nan,nan,nan,nan,nan,nan,nan,nan,nan,nan,nan,nan,nan,nan,10.603461714783407,1176.7031376155792,nan,1177.0342570692856,nan,nan,nan,nan
1,60,1,1,1.0,1.0,0.4903232096994543,0,nan,nan,nan,nan,nan,nan,nan,nan,nan,7,3,1,6,0,5,nan,nan,nan,nan,nan,nan,nan,nan,nan,nan,nan,nan,0.0,nan,nan,nan,nan,nan,nan,nan,nan,nan,nan,nan,nan,nan,nan,nan,nan,nan,nan,10.603461714783407,1177.7199341538071,nan,1178.2102573635066,nan,nan,nan,nan
1,61,0,0,0.0,1.0,0.6974918233945573,0,nan,nan,nan,nan,nan,nan,nan,nan,nan,3,6,0,2,1,4,nan,nan,nan,nan,nan,nan,nan,nan,nan,nan,nan,nan,0.0,nan,nan,nan,nan,nan,nan,nan,nan,nan,nan,nan,nan,nan,nan,nan,nan,nan,nan,10.603461714783407,1178.7367326877202,nan,1179.4342245111147,nan,nan,nan,nan
1,62,1,1,nan,nan,nan,0,nan,nan,nan,nan,nan,nan,nan,nan,nan,4,2,8,3,7,0,nan,nan,nan,nan,nan,nan,nan,nan,nan,nan,nan,nan,0.0,nan,nan,nan,nan,nan,nan,nan,nan,nan,nan,nan,nan,nan,nan,nan,nan,nan,nan,10.603461714783407,1179.7535791180671,nan,nan,nan,nan,nan,nan
1,63,1,1,nan,nan,nan,0,nan,nan,nan,nan,nan,nan,nan,nan,nan,2,8,5,7,3,1,nan,nan,nan,nan,nan,nan,nan,nan,nan,nan,nan,nan,0.0,nan,nan,nan,nan,nan,nan,nan,nan,nan,nan,nan,nan,nan,nan,nan,nan,nan,nan,10.603461714783407,1180.7786514758945,nan,nan,nan,nan,nan,nan
1,64,1,1,1.0,1.0,0.7423759140228867,0,nan,nan,nan,nan,nan,nan,nan,nan,nan,6,5,4,8,7,0,nan,nan,nan,nan,nan,nan,nan,nan,nan,nan,nan,nan,0.0,nan,nan,nan,nan,nan,nan,nan,nan,nan,nan,nan,nan,nan,nan,nan,nan,nan,nan,10.603461714783407,1181.8037817085806,nan,1182.5461576226035,nan,nan,nan,nan
1,65,1,1,nan,nan,nan,0,nan,nan,nan,nan,nan,nan,nan,nan,nan,7,8,1,3,0,4,nan,nan,nan,nan,nan,nan,nan,nan,nan,nan,nan,nan,0.0,nan,nan,nan,nan,nan,nan,nan,nan,nan,nan,nan,nan,nan,nan,nan,nan,nan,nan,10.603461714783407,1182.8289145071458,nan,nan,nan,nan,nan,nan
1,66,1,1,nan,nan,nan,0,nan,nan,nan,nan,nan,nan,nan,nan,nan,8,2,3,4,6,1,nan,nan,nan,nan,nan,nan,nan,nan,nan,nan,nan,nan,0.0,nan,nan,nan,nan,nan,nan,nan,nan,nan,nan,nan,nan,nan,nan,nan,nan,nan,nan,10.603461714783407,1183.8457218790918,nan,nan,nan,nan,nan,nan
1,67,1,1,nan,nan,nan,0,nan,nan,nan,nan,nan,nan,nan,nan,nan,2,8,7,1,5,0,nan,nan,nan,nan,nan,nan,nan,nan,nan,nan,nan,nan,0.0,nan,nan,nan,nan,nan,nan,nan,nan,nan,nan,nan,nan,nan,nan,nan,nan,nan,nan,10.603461714783407,1184.862522978885,nan,nan,nan,nan,nan,nan
1,68,1,1,nan,nan,nan,0,nan,nan,nan,nan,nan,nan,nan,nan,nan,0,1,8,7,3,6,nan,nan,nan,nan,nan,nan,nan,nan,nan,nan,nan,nan,0.0,nan,nan,nan,nan,nan,nan,nan,nan,nan,nan,nan,nan,nan,nan,nan,nan,nan,nan,10.603461714783407,1185.8793109641783,nan,nan,nan,nan,nan,nan
1,69,1,1,1.0,1.0,0.7136457511305707,0,nan,nan,nan,nan,nan,nan,nan,nan,nan,4,7,6,1,8,0,nan,nan,nan,nan,nan,nan,nan,nan,nan,nan,nan,nan,0.0,nan,nan,nan,nan,nan,nan,nan,nan,nan,nan,nan,nan,nan,nan,nan,nan,nan,nan,10.603461714783407,1186.9044280823637,nan,1187.6180738334942,nan,nan,nan,nan
1,70,1,1,1.0,1.0,0.584833137946589,0,nan,nan,nan,nan,nan,nan,nan,nan,nan,0,6,8,2,1,3,nan,nan,nan,nan,nan,nan,nan,nan,nan,nan,nan,nan,0.0,nan,nan,nan,nan,nan,nan,nan,nan,nan,nan,nan,nan,nan,nan,nan,nan,nan,nan,10.603461714783407,1187.9212511346896,nan,1188.5060842726361,nan,nan,nan,nan
1,71,1,1,1.0,1.0,0.44766060130586993,0,nan,nan,nan,nan,nan,nan,nan,nan,nan,8,0,3,1,6,7,nan,nan,nan,nan,nan,nan,nan,nan,nan,nan,nan,nan,0.0,nan,nan,nan,nan,nan,nan,nan,nan,nan,nan,nan,nan,nan,nan,nan,nan,nan,nan,10.603461714783407,1188.9463788014946,nan,1189.3940394028004,nan,nan,nan,nan
1,72,1,1,1.0,1.0,0.4948499929296304,0,nan,nan,nan,nan,nan,nan,nan,nan,nan,0,8,2,7,5,6,nan,nan,nan,nan,nan,nan,nan,nan,nan,nan,nan,nan,0.0,nan,nan,nan,nan,nan,nan,nan,nan,nan,nan,nan,nan,nan,nan,nan,nan,nan,nan,10.603461714783407,1189.9631793310928,nan,1190.4580293240224,nan,nan,nan,nan
1,73,0,0,1.0,0.0,0.30966669783720135,0,nan,nan,0.0,nan,nan,nan,nan,nan,nan,3,5,1,6,0,4,nan,nan,nan,nan,nan,nan,nan,nan,nan,nan,nan,nan,0.0,nan,nan,nan,nan,nan,nan,nan,nan,nan,nan,nan,nan,nan,nan,nan,nan,nan,nan,10.603461714783407,1190.9883423500278,nan,1191.298009047865,nan,nan,nan,nan
1,74,1,1,1.0,1.0,0.38055570127198735,0,nan,nan,nan,nan,nan,nan,nan,nan,nan,4,8,7,2,6,3,nan,nan,nan,nan,nan,nan,nan,nan,nan,nan,nan,nan,0.0,nan,nan,nan,nan,nan,nan,nan,nan,nan,nan,nan,nan,nan,nan,nan,nan,nan,nan,10.603461714783407,1192.0134241160831,nan,1192.393979817355,nan,nan,nan,nan
1,75,1,1,1.0,1.0,0.36338882097243186,1,nan,nan,nan,nan,nan,nan,nan,nan,nan,5,4,8,7,1,2,1.0,1.0,1.0,1.0,1.0,1.0,0.0,0.0,1.0,1.0,0.0,0.0,2.0,3.0,5.0,8.0,7.0,2.0,4.0,5.0,6.0,1.0,2.0,3.0,4.0,5.782312987232217,6.630654915314153,1.0958575856548123,3.688041685863027,4.407163881071028,5.199260855384637,10.603461714783407,1193.0385711695399,1193.8469760244134,1193.4019599905123,1201.5312849244838,1202.5274620477785,1194.863782541066,1201.522958357472
1,76,0,0,0.0,1.0,0.5256297240712229,0,nan,nan,nan,nan,nan,nan,nan,nan,nan,6,2,1,0,4,3,nan,nan,nan,nan,nan,nan,nan,nan,nan,nan,nan,nan,0.0,nan,nan,nan,nan,nan,nan,nan,nan,nan,nan,nan,nan,nan,nan,nan,nan,nan,nan,10.603461714783407,1202.748156557478,nan,1203.2737862815493,nan,nan,nan,nan
1,77,1,1,1.0,1.0,0.6524703156146643,0,nan,nan,nan,nan,nan,nan,nan,nan,nan,0,1,6,3,2,4,nan,nan,nan,nan,nan,nan,nan,nan,nan,nan,nan,nan,0.0,nan,nan,nan,nan,nan,nan,nan,nan,nan,nan,nan,nan,nan,nan,nan,nan,nan,nan,10.603461714783407,1203.7732976238813,nan,1204.425767939496,nan,nan,nan,nan
1,78,1,1,1.0,1.0,0.4753247834396461,0,nan,nan,nan,nan,nan,nan,nan,nan,nan,3,8,0,1,6,5,nan,nan,nan,nan,nan,nan,nan,nan,nan,nan,nan,nan,0.0,nan,nan,nan,nan,nan,nan,nan,nan,nan,nan,nan,nan,nan,nan,nan,nan,nan,nan,10.603461714783407,1204.798412461284,nan,1205.2737372447236,nan,nan,nan,nan
1,79,1,1,1.0,1.0,0.4022160083568451,0,nan,nan,nan,nan,nan,nan,nan,nan,nan,5,7,4,3,2,8,nan,nan,nan,nan,nan,nan,nan,nan,nan,nan,nan,nan,0.0,nan,nan,nan,nan,nan,nan,nan,nan,nan,nan,nan,nan,nan,nan,nan,nan,nan,nan,10.603461714783407,1205.82352815398,nan,1206.225744162337,nan,nan,nan,nan
1,80,1,1,1.0,1.0,0.44904247045269585,0,nan,nan,nan,nan,nan,nan,nan,nan,nan,2,8,6,1,0,3,nan,nan,nan,nan,nan,nan,nan,nan,nan,nan,nan,nan,0.0,nan,nan,nan,nan,nan,nan,nan,nan,nan,nan,nan,nan,nan,nan,nan,nan,nan,nan,10.603461714783407,1206.8486686501874,nan,1207.29771112064,nan,nan,nan,nan
1,81,1,1,1.0,1.0,0.6802205972908268,0,0.0,0.0,0.0,0.4593341190085994,0.1320117623126517,0.32732235669594767,0.5913458813212511,0.1320117623126517,0.5104930253667893,0,5,3,4,1,2,nan,nan,nan,nan,nan,nan,nan,nan,nan,nan,nan,nan,0.0,nan,nan,nan,nan,nan,nan,nan,nan,nan,nan,nan,nan,nan,nan,nan,nan,nan,nan,10.603461714783407,1207.8654800135027,nan,1208.5457006107936,nan,nan,nan,nan
1,82,1,1,1.0,1.0,0.6554190823953832,0,0.0,0.0,0.0,0.46244519616750396,0.13363820290815853,0.3288069932593454,0.5960833990756624,0.13363820290815853,0.5948940500463019,1,7,5,6,8,4,nan,nan,nan,nan,nan,nan,nan,nan,nan,nan,nan,nan,0.0,nan,nan,nan,nan,nan,nan,nan,nan,nan,nan,nan,nan,nan,nan,nan,nan,nan,nan,10.603461714783407,1208.8822776921224,nan,1209.5376967745178,nan,nan,nan,nan
1,83,1,1,1.0,1.0,0.662614951442265,0,0.0,1.0,0.0,0.4651253890317801,0.13461481737855813,0.33051057165322195,0.5997402064103382,0.13461481737855813,0.666084877042825,5,0,3,2,7,8,nan,nan,nan,nan,nan,nan,nan,nan,nan,nan,nan,nan,0.0,nan,nan,nan,nan,nan,nan,nan,nan,nan,nan,nan,nan,nan,nan,nan,nan,nan,nan,10.603461714783407,1209.899061400948,nan,1210.5616763523904,nan,nan,nan,nan
1,84,1,1,nan,nan,nan,0,0.0,0.0,0.0,0.4678307255031566,0.1356461241972789,0.3321846013058777,0.6034768497004355,0.1356461241972789,0.6590170169188241,0,4,8,5,2,6,nan,nan,nan,nan,nan,nan,nan,nan,nan,nan,nan,nan,0.0,nan,nan,nan,nan,nan,nan,nan,nan,nan,nan,nan,nan,nan,nan,nan,nan,nan,nan,10.603461714783407,1210.924189067753,nan,nan,nan,nan,nan,nan
1,85,1,1,nan,nan,nan,0,0.0,0.0,0.0,0.4678307255031566,0.1356461241972789,0.3321846013058777,0.6034768497004355,0.1356461241972789,0.662614951442265,4,3,1,8,6,2,nan,nan,nan,nan,nan,nan,nan,nan,nan,nan,nan,nan,0.0,nan,nan,nan,nan,nan,nan,nan,nan,nan,nan,nan,nan,nan,nan,nan,nan,nan,nan,10.603461714783407,1211.9493215812208,nan,nan,nan,nan,nan,nan
1,86,1,1,nan,nan,nan,0,0.0,0.0,0.0,0.4678307255031566,0.1356461241972789,0.3321846013058777,0.6034768497004355,0.1356461241972789,nan,3,4,0,5,1,8,nan,nan,nan,nan,nan,nan,nan,nan,nan,nan,nan,nan,0.0,nan,nan,nan,nan,nan,nan,nan,nan,nan,nan,nan,nan,nan,nan,nan,nan,nan,nan,10.603461714783407,1212.974451243711,nan,nan,nan,nan,nan,nan
1,87,1,1,nan,nan,nan,0,0.0,0.0,0.0,0.4678307255031566,0.1356461241972789,0.3321846013058777,0.6034768497004355,0.1356461241972789,nan,4,0,3,1,7,6,nan,nan,nan,nan,nan,nan,nan,nan,nan,nan,nan,nan,0.0,nan,nan,nan,nan,nan,nan,nan,nan,nan,nan,nan,nan,nan,nan,nan,nan,nan,nan,10.603461714783407,1213.9996002928528,nan,nan,nan,nan,nan,nan
1,88,1,1,nan,nan,nan,0,0.0,0.0,0.0,0.4678307255031566,0.1356461241972789,0.3321846013058777,0.6034768497004355,0.1356461241972789,nan,0,5,1,2,6,3,nan,nan,nan,nan,nan,nan,nan,nan,nan,nan,nan,nan,0.0,nan,nan,nan,nan,nan,nan,nan,nan,nan,nan,nan,nan,nan,nan,nan,nan,nan,nan,10.603461714783407,1215.0247279596579,nan,nan,nan,nan,nan,nan
1,89,0,0,nan,nan,nan,0,0.0,0.0,0.0,0.4678307255031566,0.1356461241972789,0.3321846013058777,0.6034768497004355,0.1356461241972789,nan,7,2,4,6,5,8,nan,nan,nan,nan,nan,nan,nan,nan,nan,nan,nan,nan,0.0,nan,nan,nan,nan,nan,nan,nan,nan,nan,nan,nan,nan,nan,nan,nan,nan,nan,nan,10.603461714783407,1216.0499020974075,nan,nan,nan,nan,nan,nan
1,90,1,1,nan,nan,nan,0,0.0,0.0,0.0,0.4678307255031566,0.1356461241972789,0.3321846013058777,0.6034768497004355,0.1356461241972789,nan,5,6,8,7,0,2,nan,nan,nan,nan,nan,nan,nan,nan,nan,nan,nan,nan,0.0,nan,nan,nan,nan,nan,nan,nan,nan,nan,nan,nan,nan,nan,nan,nan,nan,nan,nan,10.603461714783407,1217.0749892803224,nan,nan,nan,nan,nan,nan
1,91,1,1,nan,nan,nan,0,0.0,0.0,0.0,0.4678307255031566,0.1356461241972789,0.3321846013058777,0.6034768497004355,0.1356461241972789,nan,2,5,6,8,1,3,nan,nan,nan,nan,nan,nan,nan,nan,nan,nan,nan,nan,0.0,nan,nan,nan,nan,nan,nan,nan,nan,nan,nan,nan,nan,nan,nan,nan,nan,nan,nan,10.603461714783407,1218.1001263553553,nan,nan,nan,nan,nan,nan
1,92,1,1,nan,nan,nan,0,0.0,0.0,0.0,0.4678307255031566,0.1356461241972789,0.3321846013058777,0.6034768497004355,0.1356461241972789,nan,3,1,4,6,2,0,nan,nan,nan,nan,nan,nan,nan,nan,nan,nan,nan,nan,0.0,nan,nan,nan,nan,nan,nan,nan,nan,nan,nan,nan,nan,nan,nan,nan,nan,nan,nan,10.603461714783407,1219.125256302943,nan,nan,nan,nan,nan,nan
1,93,1,1,nan,nan,nan,0,0.0,0.0,0.0,0.4678307255031566,0.1356461241972789,0.3321846013058777,0.6034768497004355,0.1356461241972789,nan,1,4,6,0,7,8,nan,nan,nan,nan,nan,nan,nan,nan,nan,nan,nan,nan,0.0,nan,nan,nan,nan,nan,nan,nan,nan,nan,nan,nan,nan,nan,nan,nan,nan,nan,nan,10.603461714783407,1220.1503794081827,nan,nan,nan,nan,nan,nan
1,94,0,0,0.0,1.0,0.6019583939641961,0,0.0,0.0,0.0,0.4678307255031566,0.1356461241972789,0.3321846013058777,0.6034768497004355,0.1356461241972789,0.6019583939641961,3,6,4,5,1,2,nan,nan,nan,nan,nan,nan,nan,nan,nan,nan,nan,nan,0.0,nan,nan,nan,nan,nan,nan,nan,nan,nan,nan,nan,nan,nan,nan,nan,nan,nan,nan,10.603461714783407,1221.1755193341942,nan,1221.7774777281584,nan,nan,nan,nan
1,95,1,1,nan,nan,nan,0,0.0,0.0,0.0,0.4696432615634409,0.135613605707555,0.33402965585588584,0.6052568672709959,0.135613605707555,0.6019583939641961,6,2,7,4,0,1,nan,nan,nan,nan,nan,nan,nan,nan,nan,nan,nan,nan,0.0,nan,nan,nan,nan,nan,nan,nan,nan,nan,nan,nan,nan,nan,nan,nan,nan,nan,nan,10.603461714783407,1222.1923269912377,nan,nan,nan,nan,nan,nan
1,96,1,1,nan,nan,nan,0,0.0,0.0,0.0,0.4696432615634409,0.135613605707555,0.33402965585588584,0.6052568672709959,0.135613605707555,0.6019583939641961,0,1,3,7,2,5,nan,nan,nan,nan,nan,nan,nan,nan,nan,nan,nan,nan,0.0,nan,nan,nan,nan,nan,nan,nan,nan,nan,nan,nan,nan,nan,nan,nan,nan,nan,nan,10.603461714783407,1223.2091144063352,nan,nan,nan,nan,nan,nan
1,97,0,0,0.0,1.0,0.7511817304748547,0,0.0,0.0,0.0,0.4696432615634409,0.135613605707555,0.33402965585588584,0.6052568672709959,0.135613605707555,0.7511817304748547,5,8,2,3,0,6,nan,nan,nan,nan,nan,nan,nan,nan,nan,nan,nan,nan,0.0,nan,nan,nan,nan,nan,nan,nan,nan,nan,nan,nan,nan,nan,nan,nan,nan,nan,nan,10.603461714783407,1224.234233805304,nan,1224.9854155357789,nan,nan,nan,nan
1,98,1,1,1.0,1.0,0.7100258640739412,0,0.0,0.0,0.0,0.4733971078155931,0.13852291080168813,0.334874197013905,0.6119200186172812,0.13852291080168813,0.730603797274398,0,6,1,5,4,7,nan,nan,nan,nan,nan,nan,nan,nan,nan,nan,nan,nan,0.0,nan,nan,nan,nan,nan,nan,nan,nan,nan,nan,nan,nan,nan,nan,nan,nan,nan,nan,10.603461714783407,1225.2593762971956,nan,1225.9694021612695,nan,nan,nan,nan
1,99,1,1,1.0,1.0,0.5969170091648266,0,0.0,0.0,0.0,0.4765106440821503,0.14022543772848262,0.3362852063536677,0.6167360818106329,0.14022543772848262,0.6860415345712075,2,8,4,0,3,1,nan,nan,nan,nan,nan,nan,nan,nan,nan,nan,nan,nan,0.0,nan,nan,nan,nan,nan,nan,nan,nan,nan,nan,nan,nan,nan,nan,nan,nan,nan,nan,10.603461714783407,1226.2845005428262,nan,1226.881417551991,nan,nan,nan,nan
1,100,1,1,1.0,1.0,0.4440569648249948,0,0.0,0.0,0.0,0.47807436310919804,0.13997729817679255,0.3380970649324055,0.6180516612859905,0.13997729817679255,0.5836666126879209,4,3,5,2,6,0,nan,nan,nan,nan,nan,nan,nan,nan,nan,nan,nan,nan,0.0,nan,nan,nan,nan,nan,nan,nan,nan,nan,nan,nan,nan,nan,nan,nan,nan,nan,nan,10.603461714783407,1227.3013062041855,nan,1227.7453631690105,nan,nan,nan,nan
1,101,1,1,1.0,1.0,0.5628997071480626,0,0.0,0.0,0.0,0.47763824261837495,0.1391297557104998,0.33850848690787516,0.6167679983288747,0.1391297557104998,0.5346245603792946,6,4,8,7,5,2,nan,nan,nan,nan,nan,nan,nan,nan,nan,nan,nan,nan,0.0,nan,nan,nan,nan,nan,nan,nan,nan,nan,nan,nan,nan,nan,nan,nan,nan,nan,nan,10.603461714783407,1228.326436721968,nan,1228.8893364291162,nan,nan,nan,nan
1,102,1,1,1.0,1.0,0.49007089812675986,0,0.0,0.0,0.0,0.47871750166305455,0.13857458962110392,0.34014291204195063,0.6172920912841584,0.13857458962110392,0.49900919003327243,0,3,5,1,6,8,nan,nan,nan,nan,nan,nan,nan,nan,nan,nan,nan,nan,0.0,nan,nan,nan,nan,nan,nan,nan,nan,nan,nan,nan,nan,nan,nan,nan,nan,nan,nan,10.603461714783407,1229.3432492256743,nan,1229.833320123801,nan,nan,nan,nan
1,103,1,1,1.0,1.0,0.5369461119498737,0,0.0,0.0,0.0,0.4788594191188508,0.13771155191967618,0.34114786719917467,0.616570971038527,0.13771155191967618,0.5299722390748988,3,6,0,4,8,7,nan,nan,nan,nan,nan,nan,nan,nan,nan,nan,nan,nan,0.0,nan,nan,nan,nan,nan,nan,nan,nan,nan,nan,nan,nan,nan,nan,nan,nan,nan,nan,10.603461714783407,1230.368363492882,nan,1230.905309604832,nan,nan,nan,nan
1,104,1,1,1.0,1.0,0.48809973178049404,0,0.0,0.0,0.0,0.47957653878343137,0.1370090621200566,0.3425674766633748,0.616585600903488,0.1370090621200566,0.5050389139523759,5,4,1,8,7,2,nan,nan,nan,nan,nan,nan,nan,nan,nan,nan,nan,nan,0.0,nan,nan,nan,nan,nan,nan,nan,nan,nan,nan,nan,nan,nan,nan,nan,nan,nan,nan,10.603461714783407,1231.3851862601095,nan,1231.87328599189,nan,nan,nan,nan
1,105,1,1,1.0,1.0,0.479276524361012,0,0.0,0.0,0.0,0.4796804801614443,0.13617429157512106,0.34350618858632326,0.6158547717365654,0.13617429157512106,0.5014407893637932,2,8,6,0,3,7,nan,nan,nan,nan,nan,nan,nan,nan,nan,nan,nan,nan,0.0,nan,nan,nan,nan,nan,nan,nan,nan,nan,nan,nan,nan,nan,nan,nan,nan,nan,nan,10.603461714783407,1232.4019853642185,nan,1232.8812618885795,nan,nan,nan,nan
1,106,1,1,1.0,1.0,0.5184729134261943,0,0.0,0.0,0.0,0.47967561322408975,0.13535148583021625,0.3443241273938735,0.615027099054306,0.13535148583021625,0.49528305652256677,5,0,4,7,6,2,nan,nan,nan,nan,nan,nan,nan,nan,nan,nan,nan,nan,0.0,nan,nan,nan,nan,nan,nan,nan,nan,nan,nan,nan,nan,nan,nan,nan,nan,nan,nan,10.603461714783407,1233.4187850385224,nan,1233.9372579519486,nan,nan,nan,nan
1,107,1,1,1.0,1.0,0.43763000460694457,0,0.0,0.0,0.0,0.48013748584554333,0.1346091945913792,0.3455282912541641,0.6147466804369226,0.1346091945913792,0.4784598141313836,7,1,5,2,8,6,nan,nan,nan,nan,nan,nan,nan,nan,nan,nan,nan,nan,0.0,nan,nan,nan,nan,nan,nan,nan,nan,nan,nan,nan,nan,nan,nan,nan,nan,nan,nan,10.603461714783407,1234.4355807214579,nan,1234.8732107260648,nan,nan,nan,nan
1,108,1,1,1.0,1.0,0.5008647016966279,0,0.0,0.0,0.0,0.4796373978309716,0.1338935042591113,0.3457438935718603,0.6135309020900829,0.1338935042591113,0.4856558732432556,6,5,7,4,1,2,nan,nan,nan,nan,nan,nan,nan,nan,nan,nan,nan,nan,0.0,nan,nan,nan,nan,nan,nan,nan,nan,nan,nan,nan,nan,nan,nan,nan,nan,nan,nan,10.603461714783407,1235.4523692769462,nan,1235.9532339786429,nan,nan,nan,nan
1,109,1,1,1.0,1.0,0.3080310916284361,0,0.0,0.0,0.0,0.47988422694568855,0.1331322279378349,0.34675199900785364,0.6130164548835235,0.1331322279378349,0.4155085993106695,3,4,2,7,5,6,nan,nan,nan,nan,nan,nan,nan,nan,nan,nan,nan,nan,0.0,nan,nan,nan,nan,nan,nan,nan,nan,nan,nan,nan,nan,nan,nan,nan,nan,nan,nan,10.603461714783407,1236.469170091642,nan,1236.7772011832703,nan,nan,nan,nan
1,110,1,1,1.0,1.0,0.27525824160784396,0,0.0,0.0,0.0,0.47790890355123733,0.13362644726479875,0.3442824562864386,0.611535350816036,0.13362644726479875,0.3613846783109693,5,3,0,2,8,1,nan,nan,nan,nan,nan,nan,nan,nan,nan,nan,nan,nan,0.0,nan,nan,nan,nan,nan,nan,nan,nan,nan,nan,nan,nan,nan,nan,nan,nan,nan,nan,10.603461714783407,1237.4859338436208,nan,1237.7611920852287,nan,nan,nan,nan
1,111,1,1,1.0,1.0,0.45040751882788754,0,0.0,0.0,0.0,0.47560605512006243,0.13459007635883632,0.34101597876122614,0.6101961314788987,0.13459007635883632,0.3445656173547225,0,4,8,7,6,2,nan,nan,nan,nan,nan,nan,nan,nan,nan,nan,nan,nan,0.0,nan,nan,nan,nan,nan,nan,nan,nan,nan,nan,nan,nan,nan,nan,nan,nan,nan,nan,10.603461714783407,1238.5027611724136,nan,1238.9531686912414,nan,nan,nan,nan
1,112,1,1,1.0,1.0,0.4252752904576482,0,0.0,0.0,0.0,0.47532292549880206,0.13385816883383148,0.34146475666497056,0.6091810943326336,0.13385816883383148,0.3836470169644599,1,0,5,2,7,6,nan,nan,nan,nan,nan,nan,nan,nan,nan,nan,nan,nan,0.0,nan,nan,nan,nan,nan,nan,nan,nan,nan,nan,nan,nan,nan,nan,nan,nan,nan,nan,10.603461714783407,1239.5278805713824,nan,1239.95315586184,nan,nan,nan,nan
1,113,1,1,1.0,1.0,0.39213523444232123,0,0.0,0.0,0.0,0.47476684066501146,0.13321577185562278,0.3415510688093887,0.6079826125206342,0.13321577185562278,0.4226060145759523,7,8,2,5,6,1,nan,nan,nan,nan,nan,nan,nan,nan,nan,nan,nan,nan,0.0,nan,nan,nan,nan,nan,nan,nan,nan,nan,nan,nan,nan,nan,nan,nan,nan,nan,nan,10.603461714783407,1240.553014225241,nan,1240.9451494596833,nan,nan,nan,nan
1,114,1,1,1.0,1.0,0.33497825273843773,0,0.0,0.0,0.0,0.47385880103619066,0.13276156922629342,0.34109723180989726,0.606620370262484,0.13276156922629342,0.3841295925461357,6,7,3,8,5,4,nan,nan,nan,nan,nan,nan,nan,nan,nan,nan,nan,nan,0.0,nan,nan,nan,nan,nan,nan,nan,nan,nan,nan,nan,nan,nan,nan,nan,nan,nan,nan,10.603461714783407,1241.578153295959,nan,1241.9131315486975,nan,nan,nan,nan
1,115,1,1,1.0,1.0,0.3658161438352181,0,0.0,0.0,0.0,0.47234922985904115,0.13282101697375234,0.3395282128852888,0.6051702468327935,0.13282101697375234,0.3643098770053257,2,0,7,1,3,8,nan,nan,nan,nan,nan,nan,nan,nan,nan,nan,nan,nan,0.0,nan,nan,nan,nan,nan,nan,nan,nan,nan,nan,nan,nan,nan,nan,nan,nan,nan,nan,10.603461714783407,1242.603284669036,nan,1242.9691008128711,nan,nan,nan,nan
1,116,1,1,1.0,1.0,0.3566653590178248,0,0.0,0.0,0.0,0.4712037128050216,0.13256112964171515,0.3386425831633064,0.6037648424467368,0.13256112964171515,0.3524865851971602,8,1,4,7,0,5,nan,nan,nan,nan,nan,nan,nan,nan,nan,nan,nan,nan,0.0,nan,nan,nan,nan,nan,nan,nan,nan,nan,nan,nan,nan,nan,nan,nan,nan,nan,nan,10.603461714783407,1243.6284043531023,nan,1243.98506971212,nan,nan,nan,nan
1,117,1,1,1.0,1.0,0.45951411348232796,0,0.0,0.0,0.0,0.46998521967962587,0.1323767032854935,0.33760851639413236,0.6023619229651194,0.1323767032854935,0.393998538778457,3,5,2,1,4,6,nan,nan,nan,nan,nan,nan,nan,nan,nan,nan,nan,nan,0.0,nan,nan,nan,nan,nan,nan,nan,nan,nan,nan,nan,nan,nan,nan,nan,nan,nan,nan,10.603461714783407,1244.6535437089178,nan,1245.1130578224002,nan,nan,nan,nan
1,118,0,0,0.0,1.0,0.5063394351873285,0,0.0,0.0,0.0,0.469874997509128,0.13168247686461904,0.33819252064450894,0.6015574743737471,0.13168247686461904,0.4408396358958271,7,4,0,2,6,5,nan,nan,nan,nan,nan,nan,nan,nan,nan,nan,nan,nan,0.0,nan,nan,nan,nan,nan,nan,nan,nan,nan,nan,nan,nan,nan,nan,nan,nan,nan,nan,10.603461714783407,1245.6786824945375,nan,1246.1850219297248,nan,nan,nan,nan
1,119,1,1,1.0,1.0,0.6335358288133648,0,0.0,0.0,0.0,0.47025483540160923,0.13104714094530534,0.3392076944563039,0.6013019763469145,0.13104714094530534,0.5331297924943404,4,3,5,8,2,1,nan,nan,nan,nan,nan,nan,nan,nan,nan,nan,nan,nan,0.0,nan,nan,nan,nan,nan,nan,nan,nan,nan,nan,nan,nan,nan,nan,nan,nan,nan,nan,10.603461714783407,1246.6954881558968,nan,1247.3290239847101,nan,nan,nan,nan
1,120,1,1,1.0,1.0,0.6163946073174884,0,0.0,0.0,0.0,0.4719381446120397,0.13140900708210462,0.3405291375299351,0.6033471516941443,0.13140900708210462,0.5854232904393939,8,2,6,1,3,0,nan,nan,nan,nan,nan,nan,nan,nan,nan,nan,nan,nan,0.0,nan,nan,nan,nan,nan,nan,nan,nan,nan,nan,nan,nan,nan,nan,nan,nan,nan,nan,10.603461714783407,1247.7206163928968,nan,1248.3370110002143,nan,nan,nan,nan
1,121,0,0,0.0,1.0,0.6792150572700848,0,0.0,0.0,0.0,0.4734121901498504,0.1315404208465844,0.341871769303266,0.6049526109964348,0.1315404208465844,0.6430484978003127,2,1,4,3,7,8,nan,nan,nan,nan,nan,nan,nan,nan,nan,nan,nan,nan,0.0,nan,nan,nan,nan,nan,nan,nan,nan,nan,nan,nan,nan,nan,nan,nan,nan,nan,nan,10.603461714783407,1248.7457506169521,nan,1249.4249656742222,nan,nan,nan,nan
1,122,1,1,nan,nan,nan,0,0.0,0.0,0.0,0.47549100698944874,0.13248249210290233,0.3430085148865464,0.6079734990923511,0.13248249210290233,0.6478048322937866,0,2,5,1,4,6,nan,nan,nan,nan,nan,nan,nan,nan,nan,nan,nan,nan,0.0,nan,nan,nan,nan,nan,nan,nan,nan,nan,nan,nan,nan,nan,nan,nan,nan,nan,nan,10.603461714783407,1249.7625611249732,nan,nan,nan,nan,nan,nan
1,123,1,1,nan,nan,nan,0,0.0,0.0,0.0,0.47549100698944874,0.13248249210290233,0.3430085148865464,0.6079734990923511,0.13248249210290233,0.6792150572700848,7,0,4,2,3,5,nan,nan,nan,nan,nan,nan,nan,nan,nan,nan,nan,nan,0.0,nan,nan,nan,nan,nan,nan,nan,nan,nan,nan,nan,nan,nan,nan,nan,nan,nan,nan,10.603461714783407,1250.7876782431595,nan,nan,nan,nan,nan,nan
1,124,1,1,nan,nan,nan,0,0.0,0.0,0.0,0.47549100698944874,0.13248249210290233,0.3430085148865464,0.6079734990923511,0.13248249210290233,nan,8,5,1,0,2,6,nan,nan,nan,nan,nan,nan,nan,nan,nan,nan,nan,nan,0.0,nan,nan,nan,nan,nan,nan,nan,nan,nan,nan,nan,nan,nan,nan,nan,nan,nan,nan,10.603461714783407,1251.8127907997796,nan,nan,nan,nan,nan,nan
1,125,1,1,nan,nan,nan,0,0.0,0.0,0.0,0.47549100698944874,0.13248249210290233,0.3430085148865464,0.6079734990923511,0.13248249210290233,nan,1,7,0,8,6,2,nan,nan,nan,nan,nan,nan,nan,nan,nan,nan,nan,nan,0.0,nan,nan,nan,nan,nan,nan,nan,nan,nan,nan,nan,nan,nan,nan,nan,nan,nan,nan,10.603461714783407,1252.8379367128455,nan,nan,nan,nan,nan,nan
1,126,1,1,1.0,1.0,0.7138182353128286,0,0.0,0.0,0.0,0.47549100698944874,0.13248249210290233,0.3430085148865464,0.6079734990923511,0.13248249210290233,0.7138182353128286,3,1,4,2,7,6,nan,nan,nan,nan,nan,nan,nan,nan,nan,nan,nan,nan,0.0,nan,nan,nan,nan,nan,nan,nan,nan,nan,nan,nan,nan,nan,nan,nan,nan,nan,nan,10.603461714783407,1253.8630680859224,nan,1254.5768863212352,nan,nan,nan,nan
1,127,1,1,1.0,1.0,0.5846731980682307,0,0.0,0.0,0.0,0.47787427927268256,0.133934361899718,0.3439399173729646,0.6118086411724005,0.133934361899718,0.6492457166905297,0,2,6,4,5,8,nan,nan,nan,nan,nan,nan,nan,nan,nan,nan,nan,nan,0.0,nan,nan,nan,nan,nan,nan,nan,nan,nan,nan,nan,nan,nan,nan,nan,nan,nan,nan,10.603461714783407,1254.8881940421397,nan,1255.472867240208,nan,nan,nan,nan
1,128,1,1,1.0,1.0,0.5675422400936441,0,0.0,1.0,0.0,0.4789316943102622,0.13368851072999602,0.3452431835802662,0.6126202050402583,0.13368851072999602,0.6220112244915678,2,1,0,7,8,5,nan,nan,nan,nan,nan,nan,nan,nan,nan,nan,nan,nan,0.0,nan,nan,nan,nan,nan,nan,nan,nan,nan,nan,nan,nan,nan,nan,nan,nan,nan,nan,10.603461714783407,1255.9133068838582,nan,1256.4808491239519,nan,nan,nan,nan
1,129,0,0,0.0,1.0,0.7266938231841777,1,0.0,0.0,1.0,0.4798004251512758,0.13331774142161928,0.3464826837296565,0.6131181665728951,0.13331774142161928,0.6263030871153509,6,0,2,8,1,3,1.0,1.0,1.0,1.0,1.0,1.0,0.0,0.0,1.0,0.0,0.0,0.0,1.0,1.0,5.0,2.0,0.0,0.0,6.0,5.0,6.0,1.0,2.0,3.0,4.0,4.809509323839848,6.0173929628736005,0.8419300780487902,1.811514987022747,2.5701417620421125,4.010060246871944,10.603461714783407,1256.9301404848038,1257.7385473353625,1257.656834307988,1264.8227789169023,1265.8312220889238,1258.7636864060796,1264.814454630673
1,130,1,1,nan,nan,nan,0,0.0,0.0,0.0,0.4821974484331486,0.13485964652620105,0.3473378019069475,0.6170570949593497,0.13485964652620105,0.6471180316389109,8,4,3,5,0,2,nan,nan,nan,nan,nan,nan,nan,nan,nan,nan,nan,nan,0.0,nan,nan,nan,nan,nan,nan,nan,nan,nan,nan,nan,nan,nan,nan,nan,nan,nan,nan,10.603461714783407,1266.0562754592356,nan,nan,nan,nan,nan,nan
1,131,1,1,1.0,1.0,0.7832087645920183,0,0.0,0.0,0.0,0.4821974484331486,0.13485964652620105,0.3473378019069475,0.6170570949593497,0.13485964652620105,0.754951293888098,4,8,2,7,6,3,nan,nan,nan,nan,nan,nan,nan,nan,nan,nan,nan,nan,0.0,nan,nan,nan,nan,nan,nan,nan,nan,nan,nan,nan,nan,nan,nan,nan,nan,nan,nan,10.603461714783407,1267.0814230828883,nan,1267.8646318474803,nan,nan,nan,nan
1,132,1,1,1.0,1.0,0.5180583811916222,0,0.0,0.0,0.0,0.4850917880115993,0.1373866799608961,0.3477051080507032,0.6224784679724954,0.1373866799608961,0.6506335728918202,2,3,4,0,8,6,nan,nan,nan,nan,nan,nan,nan,nan,nan,nan,nan,nan,0.0,nan,nan,nan,nan,nan,nan,nan,nan,nan,nan,nan,nan,nan,nan,nan,nan,nan,nan,10.603461714783407,1268.1065707065409,nan,1268.6246290877325,nan,nan,nan,nan
1,133,1,1,1.0,1.0,0.6048980376144755,0,0.0,1.0,0.0,0.48540575556569476,0.13676837660859323,0.34863737895710156,0.622174132174288,0.13676837660859323,0.6353883944660387,4,2,1,5,3,7,nan,nan,nan,nan,nan,nan,nan,nan,nan,nan,nan,nan,0.0,nan,nan,nan,nan,nan,nan,nan,nan,nan,nan,nan,nan,nan,nan,nan,nan,nan,nan,10.603461714783407,1269.1317000839335,nan,1269.736598121548,nan,nan,nan,nan
1,134,0,0,nan,nan,nan,0,0.0,0.0,0.0,0.4865330412454002,0.13661095192658804,0.3499220893188122,0.6231439931719882,0.13661095192658804,0.5614782094030488,5,1,3,4,0,8,nan,nan,nan,nan,nan,nan,nan,nan,nan,nan,nan,nan,0.0,nan,nan,nan,nan,nan,nan,nan,nan,nan,nan,nan,nan,nan,nan,nan,nan,nan,nan,10.603461714783407,1270.1484883543244,nan,nan,nan,nan,nan,nan
1,135,1,1,0.0,0.0,0.05134526258643746,0,0.0,0.0,0.0,0.4865330412454002,0.13661095192658804,0.3499220893188122,0.6231439931719882,0.13661095192658804,0.32812165010045646,2,4,1,7,5,0,nan,nan,nan,nan,nan,nan,nan,nan,nan,nan,nan,nan,0.0,nan,nan,nan,nan,nan,nan,nan,nan,nan,nan,nan,nan,nan,nan,nan,nan,nan,nan,10.603461714783407,1271.1652974368571,nan,1271.2166426994436,nan,nan,nan,nan
1,136,1,1,1.0,1.0,0.39414488899456046,0,0.0,0.0,0.0,0.4824658657439146,0.1422729031336029,0.3401929626103117,0.6247387688775174,0.1422729031336029,0.22274507579049896,1,7,4,2,3,6,nan,nan,nan,nan,nan,nan,nan,nan,nan,nan,nan,nan,0.0,nan,nan,nan,nan,nan,nan,nan,nan,nan,nan,nan,nan,nan,nan,nan,nan,nan,nan,10.603461714783407,1272.1904154103358,nan,1272.5845602993304,nan,nan,nan,nan
1,137,1,1,1.0,1.0,0.5133000985297258,0,1.0,0.0,0.0,0.4816480789221613,0.1418651327641298,0.3397829461580315,0.6235132116862911,0.1418651327641298,0.3195967500369079,2,0,6,8,7,3,nan,nan,nan,nan,nan,nan,nan,nan,nan,nan,nan,nan,0.0,nan,nan,nan,nan,nan,nan,nan,nan,nan,nan,nan,nan,nan,nan,nan,nan,nan,nan,10.603461714783407,1273.2072547132375,nan,1273.7205548117672,nan,nan,nan,nan
1,138,0,0,nan,nan,nan,0,0.0,0.0,0.0,0.48193846442314814,0.14124511765953712,0.340693346763611,0.6231835820826852,0.14124511765953712,0.45372249376214313,8,1,3,4,6,0,nan,nan,nan,nan,nan,nan,nan,nan,nan,nan,nan,nan,0.0,nan,nan,nan,nan,nan,nan,nan,nan,nan,nan,nan,nan,nan,nan,nan,nan,nan,nan,10.603461714783407,1274.2240387071615,nan,nan,nan,nan,nan,nan
1,139,1,1,1.0,1.0,0.7913733960394893,0,0.0,0.0,0.0,0.48193846442314814,0.14124511765953712,0.340693346763611,0.6231835820826852,0.14124511765953712,0.6523367472846076,0,3,7,1,2,4,nan,nan,nan,nan,nan,nan,nan,nan,nan,nan,nan,nan,0.0,nan,nan,nan,nan,nan,nan,nan,nan,nan,nan,nan,nan,nan,nan,nan,nan,nan,nan,10.603461714783407,1275.2491532594668,nan,1276.0405266555063,nan,nan,nan,nan
1,140,1,1,1.0,1.0,0.6942285937147972,0,0.0,0.0,0.0,0.48475150925602395,0.14363620391298138,0.3411153053430426,0.6283877131690053,0.14363620391298138,0.7428009948771432,2,0,6,5,1,8,nan,nan,nan,nan,nan,nan,nan,nan,nan,nan,nan,nan,0.0,nan,nan,nan,nan,nan,nan,nan,nan,nan,nan,nan,nan,nan,nan,nan,nan,nan,nan,10.603461714783407,1276.2742860580329,nan,1276.9685146517477,nan,nan,nan,nan
1,141,1,1,1.0,1.0,0.7173862345653106,0,0.0,1.0,0.0,0.486638690197094,0.14435113676115677,0.3422875534359372,0.6309898269582508,0.14435113676115677,0.7343294081065324,8,2,5,0,3,7,nan,nan,nan,nan,nan,nan,nan,nan,nan,nan,nan,nan,0.0,nan,nan,nan,nan,nan,nan,nan,nan,nan,nan,nan,nan,nan,nan,nan,nan,nan,nan,10.603461714783407,1277.2910942852714,nan,1278.0084805198367,nan,nan,nan,nan
1,142,1,1,1.0,1.0,0.5885761872614239,1,0.0,0.0,1.0,0.48869893612895304,0.14533532220145337,0.3433636139274997,0.6340342583304064,0.14533532220145337,0.6667303385138439,4,7,0,6,5,8,1.0,1.0,1.0,1.0,1.0,1.0,0.0,0.0,1.0,1.0,0.0,0.0,2.0,6.0,8.0,0.0,6.0,4.0,3.0,5.0,6.0,1.0,2.0,3.0,4.0,4.1038129553016915,6.327357017739814,0.8800225683435201,1.8738784251654579,2.8002747202617684,3.4318402380222324,10.603461714783407,1278.307891963891,1279.1162871254392,1278.8964681511525,1286.5005585066347,1287.4992225382375,1280.1331061863948,1286.4922949462425
1,143,1,1,1.0,1.0,0.6668577772406934,0,0.0,0.0,0.0,0.4895828056080015,0.1449928605301447,0.3445899450778568,0.6345756661381462,0.1449928605301447,0.657606733022476,5,1,3,4,2,7,nan,nan,nan,nan,nan,nan,nan,nan,nan,nan,nan,nan,0.0,nan,nan,nan,nan,nan,nan,nan,nan,nan,nan,nan,nan,nan,nan,nan,nan,nan,nan,10.603461714783407,1287.7174247227713,nan,1288.384282500012,nan,nan,nan,nan
1,144,1,1,1.0,1.0,0.5136941037208089,0,0.0,0.0,0.0,0.4911378492188146,0.1452988991454433,0.3458389500733713,0.6364367483642579,0.1452988991454433,0.5897093560743087,3,7,6,5,1,0,nan,nan,nan,nan,nan,nan,nan,nan,nan,nan,nan,nan,0.0,nan,nan,nan,nan,nan,nan,nan,nan,nan,nan,nan,nan,nan,nan,nan,nan,nan,nan,10.603461714783407,1288.742560372315,nan,1289.2562544760358,nan,nan,nan,nan
1,145,1,1,1.0,1.0,0.31255730466273235,0,0.0,0.0,0.0,0.4913339905623102,0.14468094285706753,0.34665304770524263,0.6360149334193778,0.14468094285706753,0.4977030618747449,1,3,7,6,4,8,nan,nan,nan,nan,nan,nan,nan,nan,nan,nan,nan,nan,0.0,nan,nan,nan,nan,nan,nan,nan,nan,nan,nan,nan,nan,nan,nan,nan,nan,nan,nan,10.603461714783407,1289.7676826222614,nan,1290.0802399269242,nan,nan,nan,nan
1,146,1,1,1.0,1.0,0.3514212696654795,0,0.0,0.0,0.0,0.4897928122355897,0.1450009431496901,0.3447918690858996,0.6347937553852798,0.1450009431496901,0.39255755934967357,6,2,4,8,0,7,nan,nan,nan,nan,nan,nan,nan,nan,nan,nan,nan,nan,0.0,nan,nan,nan,nan,nan,nan,nan,nan,nan,nan,nan,nan,nan,nan,nan,nan,nan,nan,10.603461714783407,1290.7927983149584,nan,1291.144219584624,nan,nan,nan,nan
1,147,1,1,1.0,1.0,0.3662415097860503,0,1.0,0.0,0.0,0.48861014947858017,0.14494074134176543,0.34366940813681474,0.6335508908203455,0.14494074134176543,0.34340669470475405,5,4,2,0,8,6,nan,nan,nan,nan,nan,nan,nan,nan,nan,nan,nan,nan,0.0,nan,nan,nan,nan,nan,nan,nan,nan,nan,nan,nan,nan,nan,nan,nan,nan,nan,nan,10.603461714783407,1291.8179596233067,nan,1292.1842011330928,nan,nan,nan,nan
1,148,1,1,1.0,1.0,0.45343069614045817,1,0.0,0.0,1.0,0.4875731271083045,0.1447605254961104,0.3428126016121941,0.632333652604415,0.1447605254961104,0.39036449186399597,7,8,4,1,2,3,1.0,1.0,1.0,1.0,1.0,1.0,1.0,1.0,1.0,1.0,0.0,0.0,4.0,7.0,8.0,4.0,1.0,6.0,0.0,5.0,6.0,1.0,2.0,3.0,4.0,5.057244791833,6.880465610360261,0.9795755919776639,1.8096393284467922,3.4328851215432223,4.249233942150568,10.603461714783407,1292.8347758332839,1293.6431715650278,1293.2882065294243,1301.5775275062379,1302.5841728513888,1294.659975800897,1301.5691898204113
1,149,1,1,nan,nan,nan,0,0.0,0.0,0.0,0.48728621592370075,0.1441846930445116,0.34310152287918916,0.6314709089682123,0.1441846930445116,0.40983610296325423,4,7,0,6,8,2,nan,nan,nan,nan,nan,nan,nan,nan,nan,nan,nan,nan,0.0,nan,nan,nan,nan,nan,nan,nan,nan,nan,nan,nan,nan,nan,nan,nan,nan,nan,nan,10.603461714783407,1302.802666405897,nan,nan,nan,nan,nan,nan
1,150,1,1,1.0,1.0,0.14852627233449311,0,0.0,0.0,0.0,0.48728621592370075,0.1441846930445116,0.34310152287918916,0.6314709089682123,0.1441846930445116,0.30097848423747564,0,3,4,8,6,5,nan,nan,nan,nan,nan,nan,nan,nan,nan,nan,nan,nan,0.0,nan,nan,nan,nan,nan,nan,nan,nan,nan,nan,nan,nan,nan,nan,nan,nan,nan,nan,10.603461714783407,1303.8195119809516,nan,1303.968038253286,nan,nan,nan,nan
1,151,1,1,1.0,1.0,0.451317551077409,0,0.0,0.0,0.0,0.4844632163937907,0.14684798941738814,0.33761522697640256,0.6313112058111788,0.14684798941738814,0.29992191170595106,5,7,2,6,4,8,nan,nan,nan,nan,nan,nan,nan,nan,nan,nan,nan,nan,0.0,nan,nan,nan,nan,nan,nan,nan,nan,nan,nan,nan,nan,nan,nan,nan,nan,nan,nan,10.603461714783407,1304.8446496261804,nan,1305.2959671772578,nan,nan,nan,nan
1,152,1,1,1.0,1.0,0.3381844628529507,0,1.0,0.0,0.0,0.4841892852754735,0.1462707044046694,0.33791858087080406,0.6304599896801429,0.1462707044046694,0.3126760954216176,7,2,0,1,5,6,nan,nan,nan,nan,nan,nan,nan,nan,nan,nan,nan,nan,0.0,nan,nan,nan,nan,nan,nan,nan,nan,nan,nan,nan,nan,nan,nan,nan,nan,nan,nan,10.603461714783407,1305.869765603974,nan,1306.207950066827,nan,nan,nan,nan
1,153,1,1,1.0,1.0,0.31337496521791763,1,0.0,0.0,1.0,0.4829925244359446,0.1462636310119167,0.3367288934240279,0.6292561554478613,0.1462636310119167,0.36762565971609246,1,3,4,2,6,5,1.0,1.0,1.0,1.0,1.0,1.0,0.0,0.0,1.0,1.0,0.0,0.0,2.0,6.0,7.0,4.0,2.0,4.0,3.0,5.0,6.0,1.0,2.0,3.0,4.0,5.436174580221632,6.252139659159184,0.7889740127629921,1.518534779653237,2.3012768391090503,2.893488308707674,10.603461714783407,1306.8865758268985,1307.6950251570324,1307.1999507921164,1315.0042964241893,1316.0155748940579,1308.711782921957,1314.995910271733
1,154,1,1,nan,nan,nan,0,0.0,0.0,0.0,0.4816135198894566,0.14646202325101787,0.33515149663843874,0.6280755431404745,0.14646202325101787,0.32577971403543415,8,6,2,3,5,7,nan,nan,nan,nan,nan,nan,nan,nan,nan,nan,nan,nan,0.0,nan,nan,nan,nan,nan,nan,nan,nan,nan,nan,nan,nan,nan,nan,nan,nan,nan,nan,10.603461714783407,1316.237769873599,nan,nan,nan,nan,nan,nan
1,155,1,1,1.0,1.0,0.20885553751213592,0,0.0,0.0,0.0,0.4816135198894566,0.14646202325101787,0.33515149663843874,0.6280755431404745,0.14646202325101787,0.2611152513650268,4,3,0,8,2,5,nan,nan,nan,nan,nan,nan,nan,nan,nan,nan,nan,nan,0.0,nan,nan,nan,nan,nan,nan,nan,nan,nan,nan,nan,nan,nan,nan,nan,nan,nan,nan,10.603461714783407,1317.262918352545,nan,1317.4717738900572,nan,nan,nan,nan
1,156,1,1,1.0,1.0,0.24771494095057278,0,0.0,0.0,0.0,0.47941385874125236,0.14789613904620424,0.3315177196950481,0.6273099977874566,0.14789613904620424,0.22828523923135435,3,8,7,1,0,4,nan,nan,nan,nan,nan,nan,nan,nan,nan,nan,nan,nan,0.0,nan,nan,nan,nan,nan,nan,nan,nan,nan,nan,nan,nan,nan,nan,nan,nan,nan,nan,10.603461714783407,1318.288013233101,nan,1318.5357281740517,nan,nan,nan,nan
1,157,0,0,0.0,1.0,0.7345531148648661,0,0.0,0.0,0.0,0.47756026739892693,0.14874246571976216,0.32881780167916475,0.6263027331186891,0.14874246571976216,0.3970411977758583,0,4,1,8,2,5,nan,nan,nan,nan,nan,nan,nan,nan,nan,nan,nan,nan,0.0,nan,nan,nan,nan,nan,nan,nan,nan,nan,nan,nan,nan,nan,nan,nan,nan,nan,nan,10.603461714783407,1319.3131657034164,nan,1320.0477188182813,nan,nan,nan,nan
1,158,1,1,1.0,1.0,0.7737480784408035,0,0.0,0.0,0.0,0.47959989317246615,0.14989576518480655,0.3297041279876596,0.6294956583572727,0.14989576518480655,0.5853387114187475,7,5,2,0,8,4,nan,nan,nan,nan,nan,nan,nan,nan,nan,nan,nan,nan,0.0,nan,nan,nan,nan,nan,nan,nan,nan,nan,nan,nan,nan,nan,nan,nan,nan,nan,nan,10.603461714783407,1320.329967088308,nan,1321.1037151667488,nan,nan,nan,nan
1,159,1,1,nan,nan,nan,0,0.0,0.0,0.0,0.4819160206155239,0.1515511182483443,0.33036490236717964,0.6334671388638682,0.1515511182483443,0.7541505966528348,8,0,3,2,4,1,nan,nan,nan,nan,nan,nan,nan,nan,nan,nan,nan,nan,0.0,nan,nan,nan,nan,nan,nan,nan,nan,nan,nan,nan,nan,nan,nan,nan,nan,nan,nan,10.603461714783407,1321.3551007421665,nan,nan,nan,nan,nan,nan
1,160,1,1,nan,nan,nan,0,0.0,0.0,0.0,0.4819160206155239,0.1515511182483443,0.33036490236717964,0.6334671388638682,0.1515511182483443,0.7737480784408035,3,7,0,8,6,4,nan,nan,nan,nan,nan,nan,nan,nan,nan,nan,nan,nan,0.0,nan,nan,nan,nan,nan,nan,nan,nan,nan,nan,nan,nan,nan,nan,nan,nan,nan,nan,10.603461714783407,1322.3719004164714,nan,nan,nan,nan,nan,nan
1,161,0,0,nan,nan,nan,0,0.0,0.0,0.0,0.4819160206155239,0.1515511182483443,0.33036490236717964,0.6334671388638682,0.1515511182483443,nan,1,6,2,4,8,3,nan,nan,nan,nan,nan,nan,nan,nan,nan,nan,nan,nan,0.0,nan,nan,nan,nan,nan,nan,nan,nan,nan,nan,nan,nan,nan,nan,nan,nan,nan,nan,10.603461714783407,1323.3887040821446,nan,nan,nan,nan,nan,nan
1,162,1,1,nan,nan,nan,0,0.0,0.0,0.0,0.4819160206155239,0.1515511182483443,0.33036490236717964,0.6334671388638682,0.1515511182483443,nan,0,8,4,1,3,7,nan,nan,nan,nan,nan,nan,nan,nan,nan,nan,nan,nan,0.0,nan,nan,nan,nan,nan,nan,nan,nan,nan,nan,nan,nan,nan,nan,nan,nan,nan,nan,10.603461714783407,1324.4138360254174,nan,nan,nan,nan,nan,nan
1,163,1,1,1.0,1.0,0.7446669601276881,0,0.0,0.0,0.0,0.4819160206155239,0.1515511182483443,0.33036490236717964,0.6334671388638682,0.1515511182483443,0.7446669601276881,6,7,2,3,0,8,nan,nan,nan,nan,nan,nan,nan,nan,nan,nan,nan,nan,0.0,nan,nan,nan,nan,nan,nan,nan,nan,nan,nan,nan,nan,nan,nan,nan,nan,nan,nan,10.603461714783407,1325.4389437353748,nan,1326.1836106955025,nan,nan,nan,nan
1,164,1,1,1.0,1.0,0.7198395013301706,0,0.0,0.0,0.0,0.4839687623304627,0.15272017557589834,0.33124858675456437,0.636688937906361,0.15272017557589834,0.7322532307289293,5,3,8,7,2,1,nan,nan,nan,nan,nan,nan,nan,nan,nan,nan,nan,nan,0.0,nan,nan,nan,nan,nan,nan,nan,nan,nan,nan,nan,nan,nan,nan,nan,nan,nan,nan,10.603461714783407,1326.4557647920155,nan,1327.1756042933457,nan,nan,nan,nan
1,165,1,1,1.0,1.0,0.655018519954865,0,0.0,1.0,0.0,0.4857972176715457,0.1535271504907949,0.3322700671807508,0.6393243681623406,0.1535271504907949,0.7065083271375746,0,7,1,2,4,3,nan,nan,nan,nan,nan,nan,nan,nan,nan,nan,nan,nan,0.0,nan,nan,nan,nan,nan,nan,nan,nan,nan,nan,nan,nan,nan,nan,nan,nan,nan,nan,10.603461714783407,1327.4725658918087,nan,1328.1275844117636,nan,nan,nan,nan
1,166,1,1,1.0,1.0,0.6462144140896271,1,0.0,0.0,1.0,0.487098919996802,0.15364847891216815,0.33345044108463384,0.6407473989089701,0.15364847891216815,0.6736908117915542,4,0,7,1,2,8,1.0,1.0,1.0,1.0,1.0,1.0,1.0,1.0,1.0,0.0,1.0,0.0,4.0,4.0,0.0,7.0,8.0,2.0,5.0,3.0,2.0,1.0,6.0,5.0,4.0,3.2264825656975518,2.432995454400043,1.0750656865375277,6.097047869064227,5.050031246721119,4.177081955360336,10.603461714783407,1328.4893561578856,1329.2977675700085,1329.1355705719752,1336.4486795409248,1337.4496140915871,1330.3145678145092,1336.4403407147065
1,167,1,1,1.0,1.0,0.5975459349610901,0,0.0,0.0,0.0,0.48831354208911365,0.15368614877539385,0.3346273933137198,0.6419996908645075,0.15368614877539385,0.6329262896685274,8,6,0,7,4,2,nan,nan,nan,nan,nan,nan,nan,nan,nan,nan,nan,nan,0.0,nan,nan,nan,nan,nan,nan,nan,nan,nan,nan,nan,nan,nan,nan,nan,nan,nan,nan,10.603461714783407,1337.6738517970289,nan,1338.27139773199,nan,nan,nan,nan
1,168,1,1,1.0,1.0,0.4603887936027604,0,0.0,0.0,0.0,0.48914106021693166,0.1533955808719169,0.33574547934501475,0.6425366410888486,0.1533955808719169,0.5680497142178259,2,0,7,4,1,6,nan,nan,nan,nan,nan,nan,nan,nan,nan,nan,nan,nan,0.0,nan,nan,nan,nan,nan,nan,nan,nan,nan,nan,nan,nan,nan,nan,nan,nan,nan,nan,10.603461714783407,1338.698995999508,nan,1339.1593847931108,nan,nan,nan,nan
1,169,1,1,1.0,1.0,0.3235515320020568,0,0.0,0.0,0.0,0.48892487776118604,0.15283800052008914,0.33608687724109687,0.6417628782812752,0.15283800052008914,0.46049542018863576,7,2,4,1,8,3,nan,nan,nan,nan,nan,nan,nan,nan,nan,nan,nan,nan,0.0,nan,nan,nan,nan,nan,nan,nan,nan,nan,nan,nan,nan,nan,nan,nan,nan,nan,nan,10.603461714783407,1339.715833591822,nan,1340.039385123824,nan,nan,nan,nan
1,170,1,1,1.0,1.0,0.4267281489628658,0,0.0,0.0,0.0,0.48769074831522236,0.15293037355763847,0.3347603747575839,0.6406211218728608,0.15293037355763847,0.4035561581892277,5,3,8,6,2,7,nan,nan,nan,nan,nan,nan,nan,nan,nan,nan,nan,nan,0.0,nan,nan,nan,nan,nan,nan,nan,nan,nan,nan,nan,nan,nan,nan,nan,nan,nan,nan,10.603461714783407,1340.7326127390834,nan,1341.1593408880462,nan,nan,nan,nan
1,171,1,1,1.0,1.0,0.29760420895581774,0,0.0,0.0,0.0,0.4872391735052049,0.1524525571937598,0.33478661631144513,0.6396917306989647,0.1524525571937598,0.34929462997358013,6,2,0,4,5,8,nan,nan,nan,nan,nan,nan,nan,nan,nan,nan,nan,nan,0.0,nan,nan,nan,nan,nan,nan,nan,nan,nan,nan,nan,nan,nan,nan,nan,nan,nan,nan,10.603461714783407,1341.757739550595,nan,1342.0553437595509,nan,nan,nan,nan
1,172,1,1,1.0,1.0,0.22478537835831958,0,1.0,0.0,0.0,0.48584479876587117,0.1527526257088547,0.33309217305701644,0.6385974244747259,0.1527526257088547,0.31637257875900104,0,4,8,7,1,5,nan,nan,nan,nan,nan,nan,nan,nan,nan,nan,nan,nan,0.0,nan,nan,nan,nan,nan,nan,nan,nan,nan,nan,nan,nan,nan,nan,nan,nan,nan,nan,10.603461714783407,1342.7745318123561,nan,1342.9993171907145,nan,nan,nan,nan
1,173,1,1,1.0,1.0,0.23994887625849515,1,0.0,0.0,1.0,0.48393925555121753,0.15380792256192033,0.3301313329892972,0.6377471781131379,0.15380792256192033,0.25411282119087747,7,3,5,1,2,8,1.0,1.0,1.0,1.0,1.0,1.0,1.0,1.0,1.0,0.0,0.0,0.0,3.0,7.0,3.0,5.0,4.0,1.0,0.0,3.0,2.0,1.0,6.0,5.0,4.0,2.436005232115349,1.6911064874584554,0.9964271540848131,6.066334280618321,5.01121232717378,4.155125716735711,10.603461714783407,1343.791332056856,1344.5997380521212,1344.0312809331144,1351.733946426698,1352.7373599029297,1345.6248871012622,1351.7256101663597
1,174,1,1,1.0,1.0,0.5599472340963985,0,0.0,0.0,0.0,0.48217120932445867,0.15464058548644305,0.3275306238380156,0.6368117948109018,0.15464058548644305,0.3415604962377377,3,6,7,8,1,5,nan,nan,nan,nan,nan,nan,nan,nan,nan,nan,nan,nan,0.0,nan,nan,nan,nan,nan,nan,nan,nan,nan,nan,nan,nan,nan,nan,nan,nan,nan,nan,10.603461714783407,1352.959174847073,nan,1353.5191220811694,nan,nan,nan,nan
1,175,1,1,1.0,1.0,0.4148047878170473,0,0.0,0.0,0.0,0.48273074907101937,0.15422345894196993,0.32850729012904945,0.6369542080129893,0.15422345894196993,0.404900299390647,7,2,4,6,5,1,nan,nan,nan,nan,nan,nan,nan,nan,nan,nan,nan,nan,0.0,nan,nan,nan,nan,nan,nan,nan,nan,nan,nan,nan,nan,nan,nan,nan,nan,nan,nan,10.603461714783407,1353.984295671532,nan,1354.399100459349,nan,nan,nan,nan
1,176,0,0,1.0,0.0,0.37396880117557885,0,0.0,0.0,0.0,0.482245563633491,0.15377810183509288,0.32846746179839814,0.6360236654685839,0.15377810183509288,0.4495736076963415,3,5,2,4,0,7,nan,nan,nan,nan,nan,nan,nan,nan,nan,nan,nan,nan,0.0,nan,nan,nan,nan,nan,nan,nan,nan,nan,nan,nan,nan,nan,nan,nan,nan,nan,nan,10.603461714783407,1355.001115587781,nan,1355.3750843889566,nan,nan,nan,nan
1,177,1,1,1.0,1.0,0.7008209106716095,0,0.0,0.0,0.0,0.4814776433323711,0.1535009726659627,0.3279766706664084,0.6349786159983337,0.1535009726659627,0.49653149988807854,2,8,1,7,3,4,nan,nan,nan,nan,nan,nan,nan,nan,nan,nan,nan,nan,0.0,nan,nan,nan,nan,nan,nan,nan,nan,nan,nan,nan,nan,nan,nan,nan,nan,nan,nan,10.603461714783407,1356.0262395483142,nan,1356.7270604589858,nan,nan,nan,nan
1,178,1,1,1.0,1.0,0.6757049328771245,0,0.0,0.0,0.0,0.4830223142291263,0.1540553222766556,0.3289669919524707,0.6370776365057819,0.1540553222766556,0.5834982149081043,0,3,5,8,6,1,nan,nan,nan,nan,nan,nan,nan,nan,nan,nan,nan,nan,0.0,nan,nan,nan,nan,nan,nan,nan,nan,nan,nan,nan,nan,nan,nan,nan,nan,nan,nan,10.603461714783407,1357.0513592323796,nan,1357.7270641652567,nan,nan,nan,nan
1,179,1,1,1.0,1.0,0.4988824165357073,0,0.0,0.0,0.0,0.48436974512876263,0.15435312738977028,0.3300166177389924,0.6387228725185329,0.15435312738977028,0.6251360866948138,1,2,8,4,0,7,nan,nan,nan,nan,nan,nan,nan,nan,nan,nan,nan,nan,0.0,nan,nan,nan,nan,nan,nan,nan,nan,nan,nan,nan,nan,nan,nan,nan,nan,nan,nan,10.603461714783407,1358.0681708807924,nan,1358.5670532973281,nan,nan,nan,nan
1,180,1,1,1.0,1.0,0.39373662891375716,0,0.0,0.0,0.0,0.4844705275690886,0.1538209666777669,0.3306495608913217,0.6382914942468555,0.1538209666777669,0.5227746594421964,5,6,7,1,8,2,nan,nan,nan,nan,nan,nan,nan,nan,nan,nan,nan,nan,0.0,nan,nan,nan,nan,nan,nan,nan,nan,nan,nan,nan,nan,nan,nan,nan,nan,nan,nan,10.603461714783407,1359.0932934158363,nan,1359.48703004475,nan,nan,nan,nan
1,181,1,1,1.0,1.0,0.26492601141217165,0,0.0,0.0,0.0,0.4838447765438794,0.15347343908692557,0.33037133745695385,0.637318215630805,0.15347343908692557,0.38584835228721204,4,8,5,3,7,6,nan,nan,nan,nan,nan,nan,nan,nan,nan,nan,nan,nan,0.0,nan,nan,nan,nan,nan,nan,nan,nan,nan,nan,nan,nan,nan,nan,nan,nan,nan,nan,10.603461714783407,1360.1100990771965,nan,1360.3750250886087,nan,nan,nan,nan
1,182,1,1,1.0,1.0,0.3841100158297195,0,0.0,0.0,0.0,0.4823453329470869,0.15400900975769297,0.328336323189394,0.6363543427047799,0.15400900975769297,0.3475908853852161,8,3,0,6,2,4,nan,nan,nan,nan,nan,nan,nan,nan,nan,nan,nan,nan,0.0,nan,nan,nan,nan,nan,nan,nan,nan,nan,nan,nan,nan,nan,nan,nan,nan,nan,nan,10.603461714783407,1361.1268978962062,nan,1361.511007912036,nan,nan,nan,nan
1,183,1,1,1.0,1.0,0.3032816469985846,0,1.0,0.0,0.0,0.4816770654837035,0.15369653138524025,0.32798053409846323,0.6353735968689438,0.15369653138524025,0.31743922474682523,4,1,2,0,8,7,nan,nan,nan,nan,nan,nan,nan,nan,nan,nan,nan,nan,0.0,nan,nan,nan,nan,nan,nan,nan,nan,nan,nan,nan,nan,nan,nan,nan,nan,nan,nan,10.603461714783407,1362.1436938642391,nan,1362.4469755112377,nan,nan,nan,nan
1,184,1,1,1.0,1.0,0.294468988198787,1,0.0,0.0,1.0,0.4804716910344797,0.1538719980662178,0.32659969296826186,0.6343436891006975,0.1538719980662178,0.327286883675697,3,2,6,8,4,0,1.0,1.0,1.0,1.0,1.0,1.0,0.0,0.0,1.0,1.0,1.0,0.0,3.0,1.0,0.0,6.0,8.0,4.0,3.0,4.0,3.0,2.0,1.0,6.0,5.0,5.347149934086701,3.9236148807394784,1.5951120548488689,0.9059738827600086,7.665816029797497,6.210206616095093,10.603461714783407,1363.160496104424,1363.968898108319,1363.4549650926228,1372.6783446536183,1373.6877896593878,1364.9773643732633,1372.6700183717048
1,185,1,1,1.0,1.0,0.3348790386953624,0,0.0,0.0,0.0,0.4792233507469918,0.15410491491951714,0.3251184358274747,0.6333282656665089,0.15410491491951714,0.3108765579642447,4,5,7,3,0,2,nan,nan,nan,nan,nan,nan,nan,nan,nan,nan,nan,nan,0.0,nan,nan,nan,nan,nan,nan,nan,nan,nan,nan,nan,nan,nan,nan,nan,nan,nan,nan,10.603461714783407,1373.9118739822015,nan,1374.246753020897,nan,nan,nan,nan
1,186,1,1,1.0,1.0,0.293748831098128,0,0.0,0.0,0.0,0.4782610553333143,0.15403888630478066,0.3242221690285336,0.632299941638095,0.15403888630478066,0.3076989526640925,2,4,0,7,5,8,nan,nan,nan,nan,nan,nan,nan,nan,nan,nan,nan,nan,0.0,nan,nan,nan,nan,nan,nan,nan,nan,nan,nan,nan,nan,nan,nan,nan,nan,nan,nan,10.603461714783407,1374.9369759902029,nan,1375.230724821301,nan,nan,nan,nan
1,187,0,0,0.0,1.0,0.5885650684467691,0,0.0,0.0,0.0,0.4770391200734786,0.1542556593142619,0.3227834607592167,0.6312947793877405,0.1542556593142619,0.40573097941341985,8,0,3,1,4,7,nan,nan,nan,nan,nan,nan,nan,nan,nan,nan,nan,nan,0.0,nan,nan,nan,nan,nan,nan,nan,nan,nan,nan,nan,nan,nan,nan,nan,nan,nan,nan,10.603461714783407,1375.9621464216807,nan,1376.5507114901275,nan,nan,nan,nan
1,188,1,1,1.0,1.0,0.6434130428842764,0,0.0,0.0,0.0,0.4777728434180397,0.1540115400873302,0.3237613033307095,0.6317843835053699,0.1540115400873302,0.5085756474763912,5,2,7,0,6,1,nan,nan,nan,nan,nan,nan,nan,nan,nan,nan,nan,nan,0.0,nan,nan,nan,nan,nan,nan,nan,nan,nan,nan,nan,nan,nan,nan,nan,nan,nan,nan,10.603461714783407,1376.9872689567246,nan,1377.630681999609,nan,nan,nan,nan
1,189,1,1,1.0,1.0,0.5942576166744402,0,0.0,0.0,0.0,0.4788554591008256,0.15408659037422115,0.3247688687266045,0.6329420494750467,0.15408659037422115,0.6087452426684953,7,4,5,1,8,2,nan,nan,nan,nan,nan,nan,nan,nan,nan,nan,nan,nan,0.0,nan,nan,nan,nan,nan,nan,nan,nan,nan,nan,nan,nan,nan,nan,nan,nan,nan,nan,10.603461714783407,1378.0124194313548,nan,1378.6066770480293,nan,nan,nan,nan
1,190,1,1,1.0,1.0,0.4891295051165798,0,0.0,0.0,0.0,0.47960482376039454,0.15386494355390906,0.3257398802064855,0.6334697673143036,0.15386494355390906,0.5756000548917655,6,7,2,5,1,4,nan,nan,nan,nan,nan,nan,nan,nan,nan,nan,nan,nan,0.0,nan,nan,nan,nan,nan,nan,nan,nan,nan,nan,nan,nan,nan,nan,nan,nan,nan,nan,10.603461714783407,1379.0375242903347,nan,1379.5266537954512,nan,nan,nan,nan
1,191,1,1,1.0,1.0,0.43196254498798226,0,0.0,0.0,0.0,0.4796662733175312,0.15336969768238845,0.32629657563514275,0.6330359709999196,0.15336969768238845,0.5051165555930007,2,3,5,6,0,7,nan,nan,nan,nan,nan,nan,nan,nan,nan,nan,nan,nan,0.0,nan,nan,nan,nan,nan,nan,nan,nan,nan,nan,nan,nan,nan,nan,nan,nan,nan,nan,10.603461714783407,1380.06267419477,nan,1380.4946367397579,nan,nan,nan,nan
1,192,0,0,1.0,0.0,0.43116227540122054,0,0.0,0.0,0.0,0.4793604801872136,0.152924734381005,0.3264357458062086,0.6322852145682186,0.152924734381005,0.4507514418352609,3,2,0,1,8,4,nan,nan,nan,nan,nan,nan,nan,nan,nan,nan,nan,nan,0.0,nan,nan,nan,nan,nan,nan,nan,nan,nan,nan,nan,nan,nan,nan,nan,nan,nan,nan,10.603461714783407,1381.079481566715,nan,1381.5106438421162,nan,nan,nan,nan
1,193,1,1,1.0,1.0,0.3663464257842861,0,0.0,0.0,0.0,0.4790534852522709,0.1524851517148159,0.32656833353745507,0.6315386369670868,0.1524851517148159,0.4098237487244963,8,0,6,4,7,3,nan,nan,nan,nan,nan,nan,nan,nan,nan,nan,nan,nan,0.0,nan,nan,nan,nan,nan,nan,nan,nan,nan,nan,nan,nan,nan,nan,nan,nan,nan,nan,10.603461714783407,1382.0962724029878,nan,1382.462618828772,nan,nan,nan,nan
1,194,1,1,1.0,1.0,0.30153257185702387,0,0.0,0.0,0.0,0.4783401494328533,0.152264401072136,0.3260757483607173,0.6306045505049893,0.152264401072136,0.36634709101417684,3,1,4,5,2,7,nan,nan,nan,nan,nan,nan,nan,nan,nan,nan,nan,nan,0.0,nan,nan,nan,nan,nan,nan,nan,nan,nan,nan,nan,nan,nan,nan,nan,nan,nan,nan,10.603461714783407,1383.1130760686601,nan,1383.4146086405171,nan,nan,nan,nan
1,195,1,1,1.0,1.0,0.3087224538485316,0,0.0,0.0,0.0,0.4772281520896091,0.15242705375022778,0.3248010983393813,0.6296552058398369,0.15242705375022778,0.3255338171632805,0,4,2,6,7,3,nan,nan,nan,nan,nan,nan,nan,nan,nan,nan,nan,nan,0.0,nan,nan,nan,nan,nan,nan,nan,nan,nan,nan,nan,nan,nan,nan,nan,nan,nan,nan,10.603461714783407,1384.1298620582702,nan,1384.4385845121187,nan,nan,nan,nan
1,196,1,1,1.0,1.0,0.2999220542569674,0,1.0,0.0,0.0,0.4761749914756024,0.15252917291570997,0.3236458185598924,0.6287041643913124,0.15252917291570997,0.30339235998750763,3,8,0,4,6,7,nan,nan,nan,nan,nan,nan,nan,nan,nan,nan,nan,nan,0.0,nan,nan,nan,nan,nan,nan,nan,nan,nan,nan,nan,nan,nan,nan,nan,nan,nan,nan,10.603461714783407,1385.1466471925842,nan,1385.4465692468411,nan,nan,nan,nan
1,197,1,1,1.0,1.0,0.40308698220542283,1,0.0,0.0,1.0,0.47508025273511395,0.152683977638216,0.32239627509689794,0.62776423037333,0.152683977638216,0.3372438301036406,1,3,5,2,7,8,1.0,1.0,1.0,1.0,1.0,1.0,0.0,1.0,1.0,1.0,0.0,0.0,3.0,8.0,3.0,5.0,2.0,1.0,6.0,4.0,3.0,1.0,2.0,6.0,5.0,4.758145244795742,3.7997512806596205,1.3518132791723474,2.848317124571622,8.325769022867462,7.366759247432128,10.603461714783407,1386.1634631174647,1386.9718682574376,1386.5665500996702,1396.356398507457,1397.3525762009458,1387.9886724933067,1396.3480713702493
1,198,1,1,1.0,1.0,0.5210769969398825,0,0.0,0.0,0.0,0.4746358498306097,0.1523164136482322,0.32231943618237746,0.6269522634788419,0.1523164136482322,0.4080286778007576,3,5,1,6,4,0,nan,nan,nan,nan,nan,nan,nan,nan,nan,nan,nan,nan,0.0,nan,nan,nan,nan,nan,nan,nan,nan,nan,nan,nan,nan,nan,nan,nan,nan,nan,nan,10.603461714783407,1397.5732598769291,nan,1398.094336873869,nan,nan,nan,nan
1,199,1,1,1.0,1.0,0.3679270081156574,0,0.0,0.0,0.0,0.47492076484355,0.15189176213165007,0.32302900271189994,0.6268125269752001,0.15189176213165007,0.4306969957536542,1,4,2,5,3,6,nan,nan,nan,nan,nan,nan,nan,nan,nan,nan,nan,nan,0.0,nan,nan,nan,nan,nan,nan,nan,nan,nan,nan,nan,nan,nan,nan,nan,nan,nan,nan,10.603461714783407,1398.59838811393,nan,1398.9663151220457,nan,nan,nan,nan
1,200,1,1,1.0,1.0,0.39116447635387885,0,0.0,0.0,0.0,0.4742683638878921,0.1516568729778578,0.3226114909100343,0.62592523686575,0.1516568729778578,0.4267228271364729,0,6,8,4,1,2,nan,nan,nan,nan,nan,nan,nan,nan,nan,nan,nan,nan,0.0,nan,nan,nan,nan,nan,nan,nan,nan,nan,nan,nan,nan,nan,nan,nan,nan,nan,nan,10.603461714783407,1399.6151532913982,nan,1400.006317767752,nan,nan,nan,nan
1,201,1,1,1.0,1.0,0.2782694448123948,0,0.0,0.0,0.0,0.47376470396344356,0.1513341229709496,0.32243058099249394,0.6250988269343931,0.1513341229709496,0.3457869764273103,7,5,0,3,8,4,nan,nan,nan,nan,nan,nan,nan,nan,nan,nan,nan,nan,0.0,nan,nan,nan,nan,nan,nan,nan,nan,nan,nan,nan,nan,nan,nan,nan,nan,nan,nan,10.603461714783407,1400.6320074193854,nan,1400.9102768641978,nan,nan,nan,nan
1,202,1,1,1.0,1.0,0.28512775803756085,0,1.0,0.0,0.0,0.4725870216794011,0.15163408979072815,0.3209529318886729,0.6242211114701293,0.15163408979072815,0.31818722640127817,8,2,1,4,6,3,nan,nan,nan,nan,nan,nan,nan,nan,nan,nan,nan,nan,0.0,nan,nan,nan,nan,nan,nan,nan,nan,nan,nan,nan,nan,nan,nan,nan,nan,nan,nan,10.603461714783407,1401.6571205462014,nan,1401.942248304239,nan,nan,nan,nan
1,203,0,0,1.0,0.0,0.2840004812442203,0,0.0,0.0,0.0,0.47146451111867155,0.15186961559431958,0.31959489552435194,0.6233341267129912,0.15186961559431958,0.28246589469805866,4,5,3,7,2,0,nan,nan,nan,nan,nan,nan,nan,nan,nan,nan,nan,nan,0.0,nan,nan,nan,nan,nan,nan,nan,nan,nan,nan,nan,nan,nan,nan,nan,nan,nan,nan,10.603461714783407,1402.6822419408554,nan,1402.9662424220996,nan,nan,nan,nan
1,204,1,1,1.0,1.0,0.26718455636364524,0,0.0,0.0,0.0,0.4703486537979903,0.15210203856713336,0.31824661523085696,0.6224506923651236,0.15210203856713336,0.2787709318818088,7,6,4,1,0,2,nan,nan,nan,nan,nan,nan,nan,nan,nan,nan,nan,nan,0.0,nan,nan,nan,nan,nan,nan,nan,nan,nan,nan,nan,nan,nan,nan,nan,nan,nan,nan,10.603461714783407,1403.699061001812,nan,1403.9662455581756,nan,nan,nan,nan
1,205,1,1,1.0,1.0,0.23437321813798917,0,0.0,0.0,0.0,0.46914649937530184,0.15244974880214957,0.3166967505731523,0.6215962481774514,0.15244974880214957,0.2618527519152849,2,4,8,3,1,5,nan,nan,nan,nan,nan,nan,nan,nan,nan,nan,nan,nan,0.0,nan,nan,nan,nan,nan,nan,nan,nan,nan,nan,nan,nan,nan,nan,nan,nan,nan,nan,10.603461714783407,1404.715854974159,nan,1404.950228192297,nan,nan,nan,nan
1,206,1,1,1.0,1.0,0.24956779170133814,0,1.0,0.0,0.0,0.4677654800739059,0.15305728927263498,0.3147081908012709,0.6208227693465409,0.15305728927263498,0.2503751887343242,6,5,3,1,2,8,nan,nan,nan,nan,nan,nan,nan,nan,nan,nan,nan,nan,0.0,nan,nan,nan,nan,nan,nan,nan,nan,nan,nan,nan,nan,nan,nan,nan,nan,nan,nan,10.603461714783407,1405.7326486614083,nan,1405.9822164531097,nan,nan,nan,nan
1,207,1,1,1.0,1.0,0.27275565291893145,1,0.0,0.0,1.0,0.4664894702003821,0.1535132917025493,0.3129761784978328,0.6200027619029314,0.1535132917025493,0.2522322209194196,1,2,8,7,4,6,1.0,1.0,1.0,1.0,1.0,1.0,0.0,1.0,1.0,1.0,0.0,0.0,3.0,5.0,2.0,8.0,7.0,3.0,1.0,3.0,2.0,1.0,6.0,5.0,4.0,2.2913639878115646,1.4686335375390627,0.7010119262122316,4.9874075142670335,4.16389047910161,3.1086188493009104,10.603461714783407,1406.749442633757,1407.557877994098,1407.022198286676,1413.608630823409,1414.6058867568636,1408.5829948271848,1413.600296558755
1,208,1,1,1.0,1.0,0.7405544240336894,0,0.0,0.0,0.0,0.46536311079758297,0.15377341252580304,0.31158969827177996,0.619136523323386,0.15377341252580304,0.42095928955131967,5,8,2,6,0,3,nan,nan,nan,nan,nan,nan,nan,nan,nan,nan,nan,nan,0.0,nan,nan,nan,nan,nan,nan,nan,nan,nan,nan,nan,nan,nan,nan,nan,nan,nan,nan,10.603461714783407,1414.8254796485771,nan,1415.5660340726108,nan,nan,nan,nan
1,209,1,1,1.0,1.0,0.4753840837856842,0,0.0,0.0,0.0,0.4669538120301616,0.15474105994496806,0.31221275208519356,0.6216948719751296,0.15474105994496806,0.49623138691276836,6,1,4,5,2,7,nan,nan,nan,nan,nan,nan,nan,nan,nan,nan,nan,nan,0.0,nan,nan,nan,nan,nan,nan,nan,nan,nan,nan,nan,nan,nan,nan,nan,nan,nan,nan,10.603461714783407,1415.8506118769483,nan,1416.325995960734,nan,nan,nan,nan
1,210,1,1,1.0,1.0,0.41060130552068586,0,0.0,0.0,0.0,0.46700226186783705,0.15429707697425254,0.3127051848935845,0.6212993388420895,0.15429707697425254,0.5421799377800198,1,2,6,3,0,8,nan,nan,nan,nan,nan,nan,nan,nan,nan,nan,nan,nan,0.0,nan,nan,nan,nan,nan,nan,nan,nan,nan,nan,nan,nan,nan,nan,nan,nan,nan,nan,10.603461714783407,1416.8674092704687,nan,1417.2780105759894,nan,nan,nan,nan
1,211,1,1,1.0,1.0,0.34576578415726544,0,0.0,0.0,0.0,0.4666799706887105,0.15391432117295598,0.3127656495157545,0.6205942918616665,0.15391432117295598,0.4105837244878785,0,4,2,5,7,3,nan,nan,nan,nan,nan,nan,nan,nan,nan,nan,nan,nan,0.0,nan,nan,nan,nan,nan,nan,nan,nan,nan,nan,nan,nan,nan,nan,nan,nan,nan,nan,10.603461714783407,1417.8842240549575,nan,1418.2299898391148,nan,nan,nan,nan
1,212,1,1,1.0,1.0,0.3689436669519637,0,0.0,0.0,0.0,0.46599295826523635,0.15374529495441835,0.312247663310818,0.6197382532196547,0.15374529495441835,0.375103585543305,3,2,4,7,8,6,nan,nan,nan,nan,nan,nan,nan,nan,nan,nan,nan,nan,0.0,nan,nan,nan,nan,nan,nan,nan,nan,nan,nan,nan,nan,nan,nan,nan,nan,nan,nan,10.603461714783407,1418.9010160316202,nan,1419.2699596985722,nan,nan,nan,nan
1,213,1,1,1.0,1.0,0.559813238118295,0,0.0,0.0,0.0,0.4654446571843704,0.15348283769314802,0.31196181949122237,0.6189274948775184,0.15348283769314802,0.4248408964091747,2,0,1,8,4,3,nan,nan,nan,nan,nan,nan,nan,nan,nan,nan,nan,nan,0.0,nan,nan,nan,nan,nan,nan,nan,nan,nan,nan,nan,nan,nan,nan,nan,nan,nan,nan,10.603461714783407,1419.926127162752,nan,1420.4859404008703,nan,nan,nan,nan
1,214,1,1,1.0,1.0,0.43897994279723207,0,0.0,0.0,0.0,0.4659748177514149,0.15321353825294276,0.31276127949847216,0.6191883560043576,0.15321353825294276,0.4559122826224969,1,7,3,5,0,6,nan,nan,nan,nan,nan,nan,nan,nan,nan,nan,nan,nan,0.0,nan,nan,nan,nan,nan,nan,nan,nan,nan,nan,nan,nan,nan,nan,nan,nan,nan,nan,10.603461714783407,1420.9429505001763,nan,1421.3819304429735,nan,nan,nan,nan
1,215,1,1,1.0,1.0,0.43013478284592566,0,0.0,0.0,0.0,0.46582400839412896,0.1527982159783454,0.31302579241578354,0.6186222243724744,0.1527982159783454,0.4763093212538176,6,8,4,1,3,0,nan,nan,nan,nan,nan,nan,nan,nan,nan,nan,nan,nan,0.0,nan,nan,nan,nan,nan,nan,nan,nan,nan,nan,nan,nan,nan,nan,nan,nan,nan,nan,10.603461714783407,1421.9597510297745,nan,1422.3898858126204,nan,nan,nan,nan
1,216,1,1,1.0,1.0,0.5333461817408534,0,0.0,0.0,0.0,0.46562573491886117,0.15239627465002403,0.31322946026883713,0.6180220095688852,0.15239627465002403,0.4674869691280037,4,1,7,8,5,3,nan,nan,nan,nan,nan,nan,nan,nan,nan,nan,nan,nan,0.0,nan,nan,nan,nan,nan,nan,nan,nan,nan,nan,nan,nan,nan,nan,nan,nan,nan,nan,10.603461714783407,1422.9765478530999,nan,1423.5098940348407,nan,nan,nan,nan
1,217,1,1,1.0,1.0,0.5245295315726253,0,0.0,0.0,0.0,0.46599988103389983,0.1520575846226868,0.3139422964112131,0.6180574656565866,0.1520575846226868,0.49600349871980143,1,0,2,7,4,8,nan,nan,nan,nan,nan,nan,nan,nan,nan,nan,nan,nan,0.0,nan,nan,nan,nan,nan,nan,nan,nan,nan,nan,nan,nan,nan,nan,nan,nan,nan,nan,10.603461714783407,1423.9933478125013,nan,1424.517877344074,nan,nan,nan,nan
1,218,1,1,1.0,1.0,0.531732528064822,0,0.0,0.0,0.0,0.4663214725203763,0.15170097889945364,0.3146204936209227,0.6180224514198299,0.15170097889945364,0.5298694137927669,5,6,7,3,0,4,nan,nan,nan,nan,nan,nan,nan,nan,nan,nan,nan,nan,0.0,nan,nan,nan,nan,nan,nan,nan,nan,nan,nan,nan,nan,nan,nan,nan,nan,nan,nan,10.603461714783407,1425.0101357977956,nan,1425.5418683258604,nan,nan,nan,nan
1,219,0,0,0.0,1.0,0.7065796015940577,0,0.0,0.0,0.0,0.46667890998236783,0.1513627578996228,0.315316152082745,0.6180416678819907,0.1513627578996228,0.5876138870771683,1,4,8,2,3,5,nan,nan,nan,nan,nan,nan,nan,nan,nan,nan,nan,nan,0.0,nan,nan,nan,nan,nan,nan,nan,nan,nan,nan,nan,nan,nan,nan,nan,nan,nan,nan,10.603461714783407,1426.0352589030344,nan,1426.7418385046285,nan,nan,nan,nan
1,220,1,1,1.0,1.0,0.6817547086757259,0,0.0,0.0,0.0,0.4679827180889531,0.1519778090391492,0.3160049090498039,0.6199605271281023,0.1519778090391492,0.6400222794448686,4,3,2,5,8,0,nan,nan,nan,nan,nan,nan,nan,nan,nan,nan,nan,nan,0.0,nan,nan,nan,nan,nan,nan,nan,nan,nan,nan,nan,nan,nan,nan,nan,nan,nan,nan,10.603461714783407,1427.0520608581219,nan,1427.7338155667976,nan,nan,nan,nan
1,221,1,1,1.0,1.0,0.6089264698493935,0,0.0,0.0,0.0,0.4691382423623951,0.1523748270026804,0.3167634153597147,0.6215130693650754,0.1523748270026804,0.6657535933730591,3,6,5,4,0,1,nan,nan,nan,nan,nan,nan,nan,nan,nan,nan,nan,nan,0.0,nan,nan,nan,nan,nan,nan,nan,nan,nan,nan,nan,nan,nan,nan,nan,nan,nan,nan,10.603461714783407,1428.0688616728175,nan,1428.677788142667,nan,nan,nan,nan
1,222,1,1,1.0,1.0,0.552139545121463,0,0.0,0.0,0.0,0.46988979197254027,0.15230808394684467,0.31758170802569563,0.6221978759193849,0.15230808394684467,0.6142735745488608,1,7,2,3,6,5,nan,nan,nan,nan,nan,nan,nan,nan,nan,nan,nan,nan,0.0,nan,nan,nan,nan,nan,nan,nan,nan,nan,nan,nan,nan,nan,nan,nan,nan,nan,nan,10.603461714783407,1429.0856456667416,nan,1429.637785211863,nan,nan,nan,nan
1,223,1,1,1.0,1.0,0.4472976717770507,0,0.0,0.0,0.0,0.47032963022467356,0.15201869428946116,0.3183109359352124,0.6223483245141347,0.15201869428946116,0.536121228915969,6,0,8,7,1,4,nan,nan,nan,nan,nan,nan,nan,nan,nan,nan,nan,nan,0.0,nan,nan,nan,nan,nan,nan,nan,nan,nan,nan,nan,nan,nan,nan,nan,nan,nan,nan,10.603461714783407,1430.1024701445558,nan,1430.5497678163329,nan,nan,nan,nan
1,224,1,1,1.0,1.0,0.5425192041893752,0,0.0,0.0,0.0,0.47020711980739893,0.1516231057971257,0.31858401401027325,0.6218302256045246,0.1516231057971257,0.5139854736959629,8,1,3,6,2,0,nan,nan,nan,nan,nan,nan,nan,nan,nan,nan,nan,nan,0.0,nan,nan,nan,nan,nan,nan,nan,nan,nan,nan,nan,nan,nan,nan,nan,nan,nan,nan,10.603461714783407,1431.1192538533824,nan,1431.6617730575717,nan,nan,nan,nan
1,225,0,0,0.0,1.0,0.5736564479993831,0,0.0,0.0,0.0,0.4705897234284676,0.15131242108598938,0.3192773023424782,0.621902144514457,0.15131242108598938,0.5211577746552697,6,3,2,4,0,7,nan,nan,nan,nan,nan,nan,nan,nan,nan,nan,nan,nan,0.0,nan,nan,nan,nan,nan,nan,nan,nan,nan,nan,nan,nan,nan,nan,nan,nan,nan,nan,10.603461714783407,1432.1360543829805,nan,1432.70971083098,nan,nan,nan,nan
1,226,1,1,1.0,1.0,0.5645256200314179,0,0.0,0.0,0.0,0.4711321798735777,0.15109785360141825,0.32003432627215944,0.622230033474996,0.15109785360141825,0.5602337574067254,1,4,3,0,2,5,nan,nan,nan,nan,nan,nan,nan,nan,nan,nan,nan,nan,0.0,nan,nan,nan,nan,nan,nan,nan,nan,nan,nan,nan,nan,nan,nan,nan,nan,nan,nan,10.603461714783407,1433.161186041155,nan,1433.7257116611863,nan,nan,nan,nan
1,227,1,1,1.0,1.0,0.46770896530142636,0,0.0,0.0,0.0,0.47162115076445643,0.15085243521128563,0.32076871555317077,0.6224735859757421,0.15085243521128563,0.5352970111107425,5,3,2,6,7,4,nan,nan,nan,nan,nan,nan,nan,nan,nan,nan,nan,nan,0.0,nan,nan,nan,nan,nan,nan,nan,nan,nan,nan,nan,nan,nan,nan,nan,nan,nan,nan,10.603461714783407,1434.1779922727083,nan,1434.6457012380097,nan,nan,nan,nan
1,228,0,0,0.0,1.0,0.626887632684884,0,0.0,0.0,0.0,0.47160077479850315,0.15045934099922748,0.3211414337992757,0.6220601157977306,0.15045934099922748,0.5530407393392428,4,0,6,3,8,7,nan,nan,nan,nan,nan,nan,nan,nan,nan,nan,nan,nan,0.0,nan,nan,nan,nan,nan,nan,nan,nan,nan,nan,nan,nan,nan,nan,nan,nan,nan,nan,10.603461714783407,1435.1947928023064,nan,1435.8216804349913,nan,nan,nan,nan
1,229,1,1,1.0,1.0,0.666086872728556,0,0.0,0.0,0.0,0.4724053699170854,0.15048260219302542,0.32192276772406003,0.6228879721101108,0.15048260219302542,0.5868944902382888,3,6,1,2,0,8,nan,nan,nan,nan,nan,nan,nan,nan,nan,nan,nan,nan,0.0,nan,nan,nan,nan,nan,nan,nan,nan,nan,nan,nan,nan,nan,nan,nan,nan,nan,nan,10.603461714783407,1436.2115782217197,nan,1436.8776650944483,nan,nan,nan,nan
1,230,1,1,1.0,1.0,0.5452766703310772,0,0.0,0.0,0.0,0.4734037281790002,0.15073371719042208,0.32267001098857817,0.6241374453694223,0.15073371719042208,0.612750391914839,4,1,3,8,2,5,nan,nan,nan,nan,nan,nan,nan,nan,nan,nan,nan,nan,0.0,nan,nan,nan,nan,nan,nan,nan,nan,nan,nan,nan,nan,nan,nan,nan,nan,nan,nan,10.603461714783407,1437.228373619556,nan,1437.773650289887,nan,nan,nan,nan
1,231,1,1,1.0,1.0,0.4564695538338128,0,0.0,0.0,0.0,0.4737723073695237,0.15043434563448793,0.32333796173503576,0.6242066530040116,0.15043434563448793,0.5559443656311487,6,2,4,3,1,0,nan,nan,nan,nan,nan,nan,nan,nan,nan,nan,nan,nan,0.0,nan,nan,nan,nan,nan,nan,nan,nan,nan,nan,nan,nan,nan,nan,nan,nan,nan,nan,10.603461714783407,1438.2451590389692,nan,1438.701628592803,nan,nan,nan,nan
1,232,0,0,1.0,0.0,0.3436246995061083,0,0.0,0.0,0.0,0.4736840280147497,0.15005515763713276,0.3236288703776169,0.6237391856518825,0.15005515763713276,0.44845697455699945,5,3,1,6,7,2,nan,nan,nan,nan,nan,nan,nan,nan,nan,nan,nan,nan,0.0,nan,nan,nan,nan,nan,nan,nan,nan,nan,nan,nan,nan,nan,nan,nan,nan,nan,nan,10.603461714783407,1439.2619926399157,nan,1439.6056173394218,nan,nan,nan,nan
1,233,1,1,1.0,1.0,0.3028095250047045,0,0.0,0.0,0.0,0.47302382837764995,0.14995893565110424,0.3230648927265457,0.6229827640287542,0.14995893565110424,0.36763459278154187,4,2,0,1,3,8,nan,nan,nan,nan,nan,nan,nan,nan,nan,nan,nan,nan,0.0,nan,nan,nan,nan,nan,nan,nan,nan,nan,nan,nan,nan,nan,nan,nan,nan,nan,nan,10.603461714783407,1440.2787575322845,nan,1440.5815670572892,nan,nan,nan,nan
1,234,1,1,1.0,1.0,0.3660216993648646,0,0.0,0.0,0.0,0.4721641601787967,0.15006564237811765,0.32209851780067905,0.6222298025569144,0.15006564237811765,0.33748530795855913,5,6,7,4,2,3,nan,nan,nan,nan,nan,nan,nan,nan,nan,nan,nan,nan,0.0,nan,nan,nan,nan,nan,nan,nan,nan,nan,nan,nan,nan,nan,nan,nan,nan,nan,nan,10.603461714783407,1441.2955597724695,nan,1441.6615814718343,nan,nan,nan,nan
1,235,1,1,1.0,1.0,0.3492100509520242,0,0.0,0.0,0.0,0.4716307809787267,0.14987615688688918,0.3217546240918375,0.6215069378656158,0.14987615688688918,0.3393470917738644,2,8,0,3,7,5,nan,nan,nan,nan,nan,nan,nan,nan,nan,nan,nan,nan,0.0,nan,nan,nan,nan,nan,nan,nan,nan,nan,nan,nan,nan,nan,nan,nan,nan,nan,nan,10.603461714783407,1442.3123477577637,nan,1442.6615578087158,nan,nan,nan,nan
1,236,1,1,1.0,1.0,0.3244091062533698,0,0.0,0.0,0.0,0.4710186773285932,0.14975015057084368,0.32126852675774953,0.6207688278994369,0.14975015057084368,0.3465469521900862,8,5,2,0,4,1,nan,nan,nan,nan,nan,nan,nan,nan,nan,nan,nan,nan,0.0,nan,nan,nan,nan,nan,nan,nan,nan,nan,nan,nan,nan,nan,nan,nan,nan,nan,nan,10.603461714783407,1443.329137453643,nan,1443.6535465598963,nan,nan,nan,nan
1,237,1,1,1.0,1.0,0.2835588647176337,0,1.0,0.0,0.0,0.47028927647747265,0.14973291226991772,0.32055636420755496,0.6200221887473903,0.14973291226991772,0.3190593406410092,0,8,3,5,2,7,nan,nan,nan,nan,nan,nan,nan,nan,nan,nan,nan,nan,0.0,nan,nan,nan,nan,nan,nan,nan,nan,nan,nan,nan,nan,nan,nan,nan,nan,nan,nan,10.603461714783407,1444.3459550891102,nan,1444.6295139538279,nan,nan,nan,nan
1,238,1,1,1.0,1.0,0.3546910565946746,1,0.0,0.0,1.0,0.4693648684984636,0.14993570536219075,0.31942916313627284,0.6193005738606543,0.14993570536219075,0.3208863425218927,3,0,1,7,6,2,1.0,1.0,1.0,1.0,1.0,1.0,0.0,1.0,1.0,0.0,0.0,1.0,3.0,8.0,0.0,1.0,6.0,7.0,2.0,5.0,2.0,1.0,4.0,3.0,6.0,4.782393099720139,1.7030355505576154,0.8868227216116793,3.933482971677222,2.6155458710982202,5.877995807921252,10.603461714783407,1445.362814063762,1446.1711616139737,1445.7175051203567,1453.1053755764688,1454.104420498762,1447.1879627137669,1453.0971008972601
1,239,1,1,1.0,1.0,0.4910849910811521,0,0.0,0.0,0.0,0.46879997287332176,0.14978128363708226,0.3190186892362395,0.6185812565104041,0.14978128363708226,0.37644497079782013,1,6,7,0,4,5,nan,nan,nan,nan,nan,nan,nan,nan,nan,nan,nan,nan,0.0,nan,nan,nan,nan,nan,nan,nan,nan,nan,nan,nan,nan,nan,nan,nan,nan,nan,nan,10.603461714783407,1454.3222375161376,nan,1454.8133225072188,nan,nan,nan,nan
1,240,1,1,1.0,1.0,0.46629687578570156,0,0.0,0.0,0.0,0.46890921315865425,0.14942182807691978,0.31948738508173447,0.618331041235574,0.14942182807691978,0.43735764115384274,6,7,1,5,8,3,nan,nan,nan,nan,nan,nan,nan,nan,nan,nan,nan,nan,0.0,nan,nan,nan,nan,nan,nan,nan,nan,nan,nan,nan,nan,nan,nan,nan,nan,nan,nan,10.603461714783407,1455.339015237908,nan,1455.8053121136936,nan,nan,nan,nan
1,241,1,1,1.0,1.0,0.4174450787559181,0,0.0,0.0,0.0,0.4688964700495179,0.14905705018484242,0.31983941986467546,0.6179535202343603,0.14905705018484242,0.4582756485409239,0,8,3,6,7,4,nan,nan,nan,nan,nan,nan,nan,nan,nan,nan,nan,nan,0.0,nan,nan,nan,nan,nan,nan,nan,nan,nan,nan,nan,nan,nan,nan,nan,nan,nan,nan,10.603461714783407,1456.3558357243537,nan,1456.7732808031096,nan,nan,nan,nan
1,242,1,1,1.0,1.0,0.3606304995373648,0,0.0,0.0,0.0,0.46864670601411207,0.14873781679681192,0.31990888921730015,0.617384522810924,0.14873781679681192,0.41479081802632817,3,4,8,2,6,5,nan,nan,nan,nan,nan,nan,nan,nan,nan,nan,nan,nan,0.0,nan,nan,nan,nan,nan,nan,nan,nan,nan,nan,nan,nan,nan,nan,nan,nan,nan,nan,10.603461714783407,1457.3726328327784,nan,1457.7332633323158,nan,nan,nan,nan
1,243,1,1,1.0,1.0,0.38350190217352065,0,0.0,0.0,0.0,0.4681248885915191,0.1485670101105904,0.31955787848092865,0.6166918987021095,0.1485670101105904,0.38719249348893453,4,8,7,5,3,1,nan,nan,nan,nan,nan,nan,nan,nan,nan,nan,nan,nan,0.0,nan,nan,nan,nan,nan,nan,nan,nan,nan,nan,nan,nan,nan,nan,nan,nan,nan,nan,10.603461714783407,1458.3977530870388,nan,1458.7812549892124,nan,nan,nan,nan
1,244,0,0,0.0,1.0,0.5418557815555687,0,0.0,0.0,0.0,0.46771804731066335,0.14832499101827062,0.31939305629239273,0.6160430383289339,0.14832499101827062,0.4286627277554847,7,6,2,8,5,3,nan,nan,nan,nan,nan,nan,nan,nan,nan,nan,nan,nan,0.0,nan,nan,nan,nan,nan,nan,nan,nan,nan,nan,nan,nan,nan,nan,nan,nan,nan,nan,10.603461714783407,1459.41537555366,nan,1459.9572313352155,nan,nan,nan,nan
1,245,1,1,1.0,1.0,0.5495311851409497,0,0.0,0.0,0.0,0.4680727733118351,0.14805813420603386,0.32001463910580125,0.6161309075178689,0.14805813420603386,0.49162962295667967,3,5,7,2,8,4,nan,nan,nan,nan,nan,nan,nan,nan,nan,nan,nan,nan,0.0,nan,nan,nan,nan,nan,nan,nan,nan,nan,nan,nan,nan,nan,nan,nan,nan,nan,nan,10.603461714783407,1460.4397283245826,nan,1460.9892595097235,nan,nan,nan,nan
1,246,1,1,1.0,1.0,0.5487289198663348,0,0.0,0.0,0.0,0.46846067051102136,0.14781160783439132,0.32064906267663007,0.6162722783454126,0.14781160783439132,0.546705295520951,5,6,1,8,4,2,nan,nan,nan,nan,nan,nan,nan,nan,nan,nan,nan,nan,0.0,nan,nan,nan,nan,nan,nan,nan,nan,nan,nan,nan,nan,nan,nan,nan,nan,nan,nan,10.603461714783407,1461.456482383236,nan,1462.0052113031024,nan,nan,nan,nan
1,247,1,1,1.0,1.0,0.3639156817480398,0,0.0,0.0,0.0,0.4688410887544115,0.14756393830799228,0.32127715044641925,0.6164050270624037,0.14756393830799228,0.4873919289184414,7,3,0,4,2,8,nan,nan,nan,nan,nan,nan,nan,nan,nan,nan,nan,nan,0.0,nan,nan,nan,nan,nan,nan,nan,nan,nan,nan,nan,nan,nan,nan,nan,nan,nan,nan,10.603461714783407,1462.4732943167464,nan,1462.8372099984945,nan,nan,nan,nan
1,248,1,1,1.0,1.0,0.32279744826155365,0,0.0,0.0,0.0,0.4683461575892871,0.14739093925764418,0.3209552183316429,0.6157370968469313,0.14739093925764418,0.4118140166253094,2,8,6,7,5,1,nan,nan,nan,nan,nan,nan,nan,nan,nan,nan,nan,nan,0.0,nan,nan,nan,nan,nan,nan,nan,nan,nan,nan,nan,nan,nan,nan,nan,nan,nan,nan,10.603461714783407,1463.4983940439643,nan,1463.8211914922258,nan,nan,nan,nan
1,249,1,1,1.0,1.0,0.32195013753153034,0,0.0,0.0,0.0,0.467662830315448,0.1473807599851157,0.3202820703303323,0.6150435903005637,0.1473807599851157,0.3362210891803746,1,6,0,4,3,2,nan,nan,nan,nan,nan,nan,nan,nan,nan,nan,nan,nan,0.0,nan,nan,nan,nan,nan,nan,nan,nan,nan,nan,nan,nan,nan,nan,nan,nan,nan,nan,10.603461714783407,1464.515221372757,nan,1464.8371715102885,nan,nan,nan,nan
1,250,1,1,1.0,1.0,0.3051396295086306,0,1.0,0.0,0.0,0.46698192988187825,0.14737143621114127,0.319610493670737,0.6143533660930195,0.14737143621114127,0.3166290717672382,2,8,3,5,6,7,nan,nan,nan,nan,nan,nan,nan,nan,nan,nan,nan,nan,0.0,nan,nan,nan,nan,nan,nan,nan,nan,nan,nan,nan,nan,nan,nan,nan,nan,nan,nan,10.603461714783407,1465.5320122090297,nan,1465.8371518385384,nan,nan,nan,nan
1,251,1,1,1.0,1.0,0.35231704702528077,1,0.0,0.0,1.0,0.4662291749964213,0.14744010857779385,0.3187890664186275,0.6136692835742151,0.14744010857779385,0.3264689380218139,8,3,4,1,7,5,1.0,1.0,1.0,1.0,1.0,1.0,0.0,1.0,1.0,0.0,0.0,0.0,2.0,6.0,3.0,4.0,8.0,5.0,7.0,3.0,2.0,1.0,6.0,5.0,4.0,2.811197673145216,1.6839875948226108,0.9317108036102582,6.66717993778002,5.507005138602835,3.532586110946795,10.603461714783407,1466.5488164448989,1467.3572264315344,1466.9011334919242,1475.0832103611401,1476.0844753401789,1468.3740326630877,1475.0748775219754
1,252,1,1,1.0,1.0,0.5045532973272202,0,0.0,0.0,0.0,0.46570180403359196,0.1473015269636557,0.31840027706993623,0.6130033309972477,0.1473015269636557,0.38733665795371053,7,8,1,4,5,0,nan,nan,nan,nan,nan,nan,nan,nan,nan,nan,nan,nan,0.0,nan,nan,nan,nan,nan,nan,nan,nan,nan,nan,nan,nan,nan,nan,nan,nan,nan,nan,10.603461714783407,1476.3083937360598,nan,1476.812947033387,nan,nan,nan,nan
1,253,1,1,1.0,1.0,0.503709407772476,0,0.0,0.0,0.0,0.46588084317319395,0.14698528546830683,0.3188955577048871,0.6128661286415008,0.14698528546830683,0.45352658404165896,1,5,2,3,0,7,nan,nan,nan,nan,nan,nan,nan,nan,nan,nan,nan,nan,0.0,nan,nan,nan,nan,nan,nan,nan,nan,nan,nan,nan,nan,nan,nan,nan,nan,nan,nan,10.603461714783407,1477.3251965464397,nan,1477.8289059542121,nan,nan,nan,nan
1,254,1,1,1.0,1.0,0.44690594736857747,0,0.0,0.0,0.0,0.4660543686988787,0.14667005231066702,0.31938431638821163,0.6127244210095457,0.14667005231066702,0.48505621748942457,8,7,3,5,4,6,nan,nan,nan,nan,nan,nan,nan,nan,nan,nan,nan,nan,0.0,nan,nan,nan,nan,nan,nan,nan,nan,nan,nan,nan,nan,nan,nan,nan,nan,nan,nan,10.603461714783407,1478.3419885231024,nan,1478.788894470471,nan,nan,nan,nan
1,255,1,1,1.0,1.0,0.4380830250465806,0,0.0,0.0,0.0,0.4659669329850417,0.1463405004405534,0.3196264325444883,0.6123074334255951,0.1463405004405534,0.4628994600625447,6,2,7,8,0,1,nan,nan,nan,nan,nan,nan,nan,nan,nan,nan,nan,nan,0.0,nan,nan,nan,nan,nan,nan,nan,nan,nan,nan,nan,nan,nan,nan,nan,nan,nan,nan,10.603461714783407,1479.3587967503418,nan,1479.7968797753883,nan,nan,nan,nan
1,256,1,1,1.0,1.0,0.4289442143381166,0,0.0,0.0,0.0,0.4658401879489578,0.14601957669697402,0.3198206112519838,0.6118597646459318,0.14601957669697402,0.4379777289177582,7,0,8,1,3,4,nan,nan,nan,nan,nan,nan,nan,nan,nan,nan,nan,nan,0.0,nan,nan,nan,nan,nan,nan,nan,nan,nan,nan,nan,nan,nan,nan,nan,nan,nan,nan,10.603461714783407,1480.383934110473,nan,1480.8128783248112,nan,nan,nan,nan
1,257,1,1,1.0,1.0,0.3721113888605032,0,0.0,0.0,0.0,0.4656732378421214,0.14570988414207348,0.3199633537000479,0.6113831219841949,0.14570988414207348,0.4130462094150668,3,1,7,2,5,0,nan,nan,nan,nan,nan,nan,nan,nan,nan,nan,nan,nan,0.0,nan,nan,nan,nan,nan,nan,nan,nan,nan,nan,nan,nan,nan,nan,nan,nan,nan,nan,10.603461714783407,1481.400731789091,nan,1481.7728431779515,nan,nan,nan,nan
1,258,1,1,1.0,1.0,0.3473050273005356,0,0.0,0.0,0.0,0.46525178807193396,0.14551627927218605,0.3197355087997479,0.61076806734412,0.14551627927218605,0.3827868768330518,6,8,2,3,4,5,nan,nan,nan,nan,nan,nan,nan,nan,nan,nan,nan,nan,0.0,nan,nan,nan,nan,nan,nan,nan,nan,nan,nan,nan,nan,nan,nan,nan,nan,nan,nan,10.603461714783407,1482.4175345994727,nan,1482.7648396267732,nan,nan,nan,nan
1,259,1,1,1.0,1.0,0.43448024386088946,0,0.0,0.0,0.0,0.4647228788308066,0.14540335559718934,0.31931952323361723,0.610126234427996,0.14540335559718934,0.3846322200073094,0,2,3,7,6,8,nan,nan,nan,nan,nan,nan,nan,nan,nan,nan,nan,nan,0.0,nan,nan,nan,nan,nan,nan,nan,nan,nan,nan,nan,nan,nan,nan,nan,nan,nan,nan,10.603461714783407,1483.4343342737766,nan,1483.8688145176375,nan,nan,nan,nan
1,260,1,1,1.0,1.0,0.44169778034302,0,0.0,0.0,0.0,0.464587867067548,0.14509244007636457,0.31949542699118344,0.6096803071439125,0.14509244007636457,0.407827683834815,6,1,0,2,3,4,nan,nan,nan,nan,nan,nan,nan,nan,nan,nan,nan,nan,0.0,nan,nan,nan,nan,nan,nan,nan,nan,nan,nan,nan,nan,nan,nan,nan,nan,nan,nan,10.603461714783407,1484.4511125657436,nan,1484.8928103460867,nan,nan,nan,nan
1,261,1,1,1.0,1.0,0.4728769335342804,0,0.0,0.0,0.0,0.46448613334877237,0.14477766016827046,0.3197084731805019,0.6092637935170429,0.14477766016827046,0.44968498591272993,7,6,8,0,2,5,nan,nan,nan,nan,nan,nan,nan,nan,nan,nan,nan,nan,0.0,nan,nan,nan,nan,nan,nan,nan,nan,nan,nan,nan,nan,nan,nan,nan,nan,nan,nan,10.603461714783407,1485.4679102443633,nan,1485.9407871778976,nan,nan,nan,nan
1,262,1,1,1.0,1.0,0.36804617900452286,0,0.0,0.0,0.0,0.4645232607832215,0.14445807400547162,0.32006518677774987,0.6089813347886931,0.14445807400547162,0.4275402976272744,3,7,5,2,1,8,nan,nan,nan,nan,nan,nan,nan,nan,nan,nan,nan,nan,0.0,nan,nan,nan,nan,nan,nan,nan,nan,nan,nan,nan,nan,nan,nan,nan,nan,nan,nan,10.603461714783407,1486.4847187567002,nan,1486.8527649357047,nan,nan,nan,nan
1,263,1,1,1.0,1.0,0.29494168038945645,0,0.0,0.0,0.0,0.4640982516123902,0.14428107307035618,0.31981717854203406,0.6083793246827464,0.14428107307035618,0.3786215976427532,4,5,8,6,2,1,nan,nan,nan,nan,nan,nan,nan,nan,nan,nan,nan,nan,0.0,nan,nan,nan,nan,nan,nan,nan,nan,nan,nan,nan,nan,nan,nan,nan,nan,nan,nan,10.603461714783407,1487.509815347842,nan,1487.8047570282315,nan,nan,nan,nan
1,264,1,1,1.0,1.0,0.32608434105895867,0,0.0,0.0,0.0,0.4633563368263247,0.14439762676562565,0.3189587100606991,0.6077539635919503,0.14439762676562565,0.32969073348431266,5,0,1,8,6,2,nan,nan,nan,nan,nan,nan,nan,nan,nan,nan,nan,nan,0.0,nan,nan,nan,nan,nan,nan,nan,nan,nan,nan,nan,nan,nan,nan,nan,nan,nan,nan,10.603461714783407,1488.526640395853,nan,1488.852724736912,nan,nan,nan,nan
1,265,0,0,1.0,0.0,0.2852600434252963,0,0.0,0.0,0.0,0.4627568957967729,0.14436603053216684,0.3183908652646061,0.6071229263289397,0.14436603053216684,0.3020953549579038,7,1,0,2,4,8,nan,nan,nan,nan,nan,nan,nan,nan,nan,nan,nan,nan,0.0,nan,nan,nan,nan,nan,nan,nan,nan,nan,nan,nan,nan,nan,nan,nan,nan,nan,nan,10.603461714783407,1489.5434531846577,nan,1489.828713228083,nan,nan,nan,nan
1,266,1,1,1.0,1.0,0.30043038367330155,0,0.0,0.0,0.0,0.4619851703516795,0.14452445679093046,0.31746071356074906,0.60650962714261,0.14452445679093046,0.30392492271918553,4,6,8,0,1,5,nan,nan,nan,nan,nan,nan,nan,nan,nan,nan,nan,nan,0.0,nan,nan,nan,nan,nan,nan,nan,nan,nan,nan,nan,nan,nan,nan,nan,nan,nan,nan,10.603461714783407,1490.5602457315154,nan,1490.8606761151887,nan,nan,nan,nan
1,267,1,1,1.0,1.0,0.33962135588080855,0,0.0,0.0,0.0,0.4612857989807775,0.14460081255078433,0.31668498642999315,0.6058866115315618,0.14460081255078433,0.30843726099313545,0,4,1,2,3,8,nan,nan,nan,nan,nan,nan,nan,nan,nan,nan,nan,nan,0.0,nan,nan,nan,nan,nan,nan,nan,nan,nan,nan,nan,nan,nan,nan,nan,nan,nan,nan,10.603461714783407,1491.5770405591566,nan,1491.9166619150374,nan,nan,nan,nan
1,268,1,1,1.0,1.0,0.30681144314257836,0,1.0,0.0,0.0,0.46076138327776034,0.14450880949074815,0.3162525737870122,0.6052701927685085,0.14450880949074815,0.31562106089889613,3,6,0,8,5,2,nan,nan,nan,nan,nan,nan,nan,nan,nan,nan,nan,nan,0.0,nan,nan,nan,nan,nan,nan,nan,nan,nan,nan,nan,nan,nan,nan,nan,nan,nan,nan,10.603461714783407,1492.5938422291465,nan,1492.900653672289,nan,nan,nan,nan
1,269,1,1,1.0,1.0,0.3220182759105228,1,0.0,0.0,1.0,0.460100653920957,0.14454913686384488,0.31555151705711215,0.6046497907848019,0.14454913686384488,0.3228170249779699,5,1,4,0,2,8,1.0,1.0,1.0,1.0,1.0,1.0,0.0,1.0,0.0,0.0,0.0,0.0,1.0,4.0,1.0,0.0,5.0,7.0,6.0,2.0,1.0,6.0,5.0,4.0,3.0,1.6787435054720845,0.7658517240433866,6.07640678669668,4.28491621545254,3.3728629067209113,2.725171971007512,10.603461714783407,1493.6106387673744,1494.4190470434214,1493.932657043285,1501.561625604977,1502.5728105627613,1495.444188965118,1501.5532916254224
1,270,1,1,1.0,1.0,0.3453141892041458,0,0.0,0.0,0.0,0.4595105582884338,0.14452091208322684,0.314989646205207,0.6040314703716606,0.14452091208322684,0.32471463608574896,2,7,3,5,0,1,nan,nan,nan,nan,nan,nan,nan,nan,nan,nan,nan,nan,0.0,nan,nan,nan,nan,nan,nan,nan,nan,nan,nan,nan,nan,nan,nan,nan,nan,nan,nan,10.603461714783407,1502.7951495167026,nan,1503.1404637059068,nan,nan,nan,nan
1,271,0,0,0.0,1.0,0.5201681050784828,0,0.0,0.0,0.0,0.45902461629233043,0.14440454582301523,0.31462007046931517,0.6034291621153457,0.14440454582301523,0.3958335233977171,6,0,5,7,2,8,nan,nan,nan,nan,nan,nan,nan,nan,nan,nan,nan,nan,0.0,nan,nan,nan,nan,nan,nan,nan,nan,nan,nan,nan,nan,nan,nan,nan,nan,nan,nan,10.603461714783407,1503.8202788940953,nan,1504.3404469991738,nan,nan,nan,nan
1,272,1,1,1.0,1.0,0.3913426624949352,0,0.0,0.0,0.0,0.45928369887193277,0.14415300260517538,0.3151306962667574,0.6034367014771082,0.14415300260517538,0.41894165225918795,2,3,1,5,4,7,nan,nan,nan,nan,nan,nan,nan,nan,nan,nan,nan,nan,0.0,nan,nan,nan,nan,nan,nan,nan,nan,nan,nan,nan,nan,nan,nan,nan,nan,nan,nan,10.603461714783407,1504.8370851256486,nan,1505.2284277881436,nan,nan,nan,nan
1,273,1,1,1.0,1.0,0.3905295635031507,0,0.0,0.0,0.0,0.4589970278323674,0.1439159581507628,0.3150810696816046,0.6029129859831301,0.1439159581507628,0.4340134436921896,7,1,4,2,3,8,nan,nan,nan,nan,nan,nan,nan,nan,nan,nan,nan,nan,0.0,nan,nan,nan,nan,nan,nan,nan,nan,nan,nan,nan,nan,nan,nan,nan,nan,nan,nan,10.603461714783407,1505.85388394466,nan,1506.2444135081632,nan,nan,nan,nan
1,274,0,0,1.0,0.0,0.2933707913853141,0,0.0,0.0,0.0,0.45870934941081604,0.14368156625415412,0.3150277831566619,0.6023909156649702,0.14368156625415412,0.3584143391278,4,6,0,1,2,5,nan,nan,nan,nan,nan,nan,nan,nan,nan,nan,nan,nan,0.0,nan,nan,nan,nan,nan,nan,nan,nan,nan,nan,nan,nan,nan,nan,nan,nan,nan,nan,10.603461714783407,1506.8790079051932,nan,1507.1723786965786,nan,nan,nan,nan
1,275,1,1,1.0,1.0,0.4922387819715368,0,0.0,0.0,0.0,0.4580175562810022,0.14377731312981606,0.31424024315118615,0.6017948694108183,0.14377731312981606,0.3920463789533339,8,1,4,2,5,6,nan,nan,nan,nan,nan,nan,nan,nan,nan,nan,nan,nan,0.0,nan,nan,nan,nan,nan,nan,nan,nan,nan,nan,nan,nan,nan,nan,nan,nan,nan,nan,10.603461714783407,1507.9041444100303,nan,1508.3963831920018,nan,nan,nan,nan
