block,trial,freq_trials,correct_response,actual_response,acc,rts,probe_trials,fast_rt_trigger,slow_rt_trigger,rt_triggered,rts_runningavg,rts_runningstd,rts_runningfastthresh,rts_runningslowthresh,rts_runningstd,rts_trailingavg,trials_colorind0,trials_colorind1,trials_colorind2,trials_colorind3,trials_colorind4,trials_colorind5,wholereport_resp0,wholereport_resp1,wholereport_resp2,wholereport_resp3,wholereport_resp4,wholereport_resp5,wholereport_respacc0,wholereport_respacc1,wholereport_respacc2,wholereport_respacc3,wholereport_respacc4,wholereport_respacc5,wholereport_respacc_total,wholereport_respcolorind0,wholereport_respcolorind1,wholereport_respcolorind2,wholereport_respcolorind3,wholereport_respcolorind4,wholereport_respcolorind5,wholereport_resporder0,wholereport_resporder1,wholereport_resporder2,wholereport_resporder3,wholereport_resporder4,wholereport_resporder5,wholereport_rts0,wholereport_rts1,wholereport_rts2,wholereport_rts3,wholereport_rts4,wholereport_rts5,time_blockstart,time_encarray_offset,time_encarray_onset,time_response,time_iti_offset,time_iti_onset,time_memprobe_offset,time_memprobe_onset
1,1,1,1,1.0,1.0,0.3474981519393623,0,nan,nan,nan,nan,nan,nan,nan,nan,nan,7,3,6,5,4,2,nan,nan,nan,nan,nan,nan,nan,nan,nan,nan,nan,nan,0.0,nan,nan,nan,nan,nan,nan,nan,nan,nan,nan,nan,nan,nan,nan,nan,nan,nan,nan,847.804515468888,848.8249970704783,nan,849.1724952224176,nan,nan,nan,nan
1,2,1,1,1.0,1.0,0.33015175396576524,0,nan,nan,nan,nan,nan,nan,nan,nan,nan,6,2,5,4,0,8,nan,nan,nan,nan,nan,nan,nan,nan,nan,nan,nan,nan,0.0,nan,nan,nan,nan,nan,nan,nan,nan,nan,nan,nan,nan,nan,nan,nan,nan,nan,nan,847.804515468888,849.8503264493775,nan,850.1804782033432,nan,nan,nan,nan
1,3,1,1,1.0,1.0,0.3296137771103531,0,nan,nan,nan,nan,nan,nan,nan,nan,nan,8,5,0,3,6,7,nan,nan,nan,nan,nan,nan,nan,nan,nan,nan,nan,nan,0.0,nan,nan,nan,nan,nan,nan,nan,nan,nan,nan,nan,nan,nan,nan,nan,nan,nan,nan,847.804515468888,850.8668383706827,nan,851.196452147793,nan,nan,nan,nan
1,4,0,0,0.0,1.0,0.5524672658648342,0,nan,nan,nan,nan,nan,nan,nan,nan,nan,0,7,5,8,3,2,nan,nan,nan,nan,nan,nan,nan,nan,nan,nan,nan,nan,0.0,nan,nan,nan,nan,nan,nan,nan,nan,nan,nan,nan,nan,nan,nan,nan,nan,nan,nan,847.804515468888,851.8919436638243,nan,852.4444109296892,nan,nan,nan,nan
1,5,1,1,1.0,1.0,0.4633048304822296,0,nan,nan,nan,nan,nan,nan,nan,nan,nan,6,3,1,2,7,5,nan,nan,nan,nan,nan,nan,nan,nan,nan,nan,nan,nan,0.0,nan,nan,nan,nan,nan,nan,nan,nan,nan,nan,nan,nan,nan,nan,nan,nan,nan,nan,847.804515468888,852.9170985636301,nan,853.3804033941124,nan,nan,nan,nan
1,6,0,0,0.0,1.0,0.5344597296789289,0,nan,nan,nan,nan,nan,nan,nan,nan,nan,1,7,8,6,4,0,nan,nan,nan,nan,nan,nan,nan,nan,nan,nan,nan,nan,0.0,nan,nan,nan,nan,nan,nan,nan,nan,nan,nan,nan,nan,nan,nan,nan,nan,nan,nan,847.804515468888,853.9339112613816,nan,854.4683709910605,nan,nan,nan,nan
1,7,1,1,1.0,1.0,0.4536534659564495,0,nan,nan,nan,nan,nan,nan,nan,nan,nan,8,5,3,0,6,2,nan,nan,nan,nan,nan,nan,nan,nan,nan,nan,nan,nan,0.0,nan,nan,nan,nan,nan,nan,nan,nan,nan,nan,nan,nan,nan,nan,nan,nan,nan,nan,847.804515468888,854.9506965898909,nan,855.4043500558473,nan,nan,nan,nan
1,8,1,1,1.0,1.0,0.5488285820465535,0,nan,nan,nan,nan,nan,nan,nan,nan,nan,7,2,0,3,1,8,nan,nan,nan,nan,nan,nan,nan,nan,nan,nan,nan,nan,0.0,nan,nan,nan,nan,nan,nan,nan,nan,nan,nan,nan,nan,nan,nan,nan,nan,nan,nan,847.804515468888,855.967497313628,nan,856.5163258956745,nan,nan,nan,nan
1,9,0,0,0.0,1.0,0.5236870816443115,0,nan,nan,nan,nan,nan,nan,nan,nan,nan,8,5,6,0,2,1,nan,nan,nan,nan,nan,nan,nan,nan,nan,nan,nan,nan,0.0,nan,nan,nan,nan,nan,nan,nan,nan,nan,nan,nan,nan,nan,nan,nan,nan,nan,nan,847.804515468888,856.9926108745858,nan,857.5162979562301,nan,nan,nan,nan
1,10,1,1,1.0,1.0,0.48284162301570177,0,nan,nan,nan,nan,nan,nan,nan,nan,nan,7,6,3,8,0,4,nan,nan,nan,nan,nan,nan,nan,nan,nan,nan,nan,nan,0.0,nan,nan,nan,nan,nan,nan,nan,nan,nan,nan,nan,nan,nan,nan,nan,nan,nan,nan,847.804515468888,858.0094355463516,nan,858.4922771693673,nan,nan,nan,nan
1,11,1,1,1.0,1.0,0.42602792172692716,0,nan,nan,nan,nan,nan,nan,nan,nan,nan,6,8,4,7,2,3,nan,nan,nan,nan,nan,nan,nan,nan,nan,nan,nan,nan,0.0,nan,nan,nan,nan,nan,nan,nan,nan,nan,nan,nan,nan,nan,nan,nan,nan,nan,nan,847.804515468888,859.026232278673,nan,859.4522602003999,nan,nan,nan,nan
1,12,1,1,1.0,1.0,0.48118949006311595,0,nan,nan,nan,nan,nan,nan,nan,nan,nan,3,4,2,6,8,7,nan,nan,nan,nan,nan,nan,nan,nan,nan,nan,nan,nan,0.0,nan,nan,nan,nan,nan,nan,nan,nan,nan,nan,nan,nan,nan,nan,nan,nan,nan,nan,847.804515468888,860.0430438360199,nan,860.524233326083,nan,nan,nan,nan
1,13,1,1,1.0,1.0,0.5600405635777861,0,nan,nan,nan,nan,nan,nan,nan,nan,nan,6,1,0,5,2,4,nan,nan,nan,nan,nan,nan,nan,nan,nan,nan,nan,nan,0.0,nan,nan,nan,nan,nan,nan,nan,nan,nan,nan,nan,nan,nan,nan,nan,nan,nan,nan,847.804515468888,861.0681596777868,nan,861.6282002413645,nan,nan,nan,nan
1,14,1,1,1.0,1.0,0.5352089628577232,0,nan,nan,nan,nan,nan,nan,nan,nan,nan,2,3,5,8,7,0,nan,nan,nan,nan,nan,nan,nan,nan,nan,nan,nan,nan,0.0,nan,nan,nan,nan,nan,nan,nan,nan,nan,nan,nan,nan,nan,nan,nan,nan,nan,nan,847.804515468888,862.0849618269131,nan,862.6201707897708,nan,nan,nan,nan
1,15,1,1,1.0,1.0,0.43041013670153916,0,nan,nan,nan,nan,nan,nan,nan,nan,nan,8,5,2,4,1,6,nan,nan,nan,nan,nan,nan,nan,nan,nan,nan,nan,nan,0.0,nan,nan,nan,nan,nan,nan,nan,nan,nan,nan,nan,nan,nan,nan,nan,nan,nan,nan,847.804515468888,863.1017517170403,nan,863.5321618537419,nan,nan,nan,nan
1,16,1,1,1.0,1.0,0.509556284872815,0,nan,nan,nan,nan,nan,nan,nan,nan,nan,5,2,1,0,3,8,nan,nan,nan,nan,nan,nan,nan,nan,nan,nan,nan,nan,0.0,nan,nan,nan,nan,nan,nan,nan,nan,nan,nan,nan,nan,nan,nan,nan,nan,nan,nan,847.804515468888,864.1185695463791,nan,864.628125831252,nan,nan,nan,nan
1,17,1,1,1.0,1.0,0.45275683840736747,0,nan,nan,nan,nan,nan,nan,nan,nan,nan,3,0,8,6,2,5,nan,nan,nan,nan,nan,nan,nan,nan,nan,nan,nan,nan,0.0,nan,nan,nan,nan,nan,nan,nan,nan,nan,nan,nan,nan,nan,nan,nan,nan,nan,nan,847.804515468888,865.1353614320979,nan,865.5881182705052,nan,nan,nan,nan
1,18,1,1,1.0,1.0,0.43594898702576756,0,nan,nan,nan,nan,nan,nan,nan,nan,nan,8,6,0,5,1,7,nan,nan,nan,nan,nan,nan,nan,nan,nan,nan,nan,nan,0.0,nan,nan,nan,nan,nan,nan,nan,nan,nan,nan,nan,nan,nan,nan,nan,nan,nan,nan,847.804515468888,866.1521487564314,nan,866.5880977434572,nan,nan,nan,nan
1,19,1,1,1.0,1.0,0.6507000396959484,0,nan,nan,nan,nan,nan,nan,nan,nan,nan,5,4,1,7,6,2,nan,nan,nan,nan,nan,nan,nan,nan,nan,nan,nan,nan,0.0,nan,nan,nan,nan,nan,nan,nan,nan,nan,nan,nan,nan,nan,nan,nan,nan,nan,nan,847.804515468888,867.1773655221332,nan,867.8280655618291,nan,nan,nan,nan
1,20,1,1,1.0,1.0,0.5219485645648092,0,nan,nan,nan,nan,nan,nan,nan,nan,nan,0,2,5,8,1,3,nan,nan,nan,nan,nan,nan,nan,nan,nan,nan,nan,nan,0.0,nan,nan,nan,nan,nan,nan,nan,nan,nan,nan,nan,nan,nan,nan,nan,nan,nan,nan,847.804515468888,868.1940852785483,nan,868.7160338431131,nan,nan,nan,nan
1,21,1,1,1.0,1.0,0.44113830965943635,0,nan,nan,nan,nan,nan,nan,nan,nan,nan,1,7,4,0,8,5,nan,nan,nan,nan,nan,nan,nan,nan,nan,nan,nan,nan,0.0,nan,nan,nan,nan,nan,nan,nan,nan,nan,nan,nan,nan,nan,nan,nan,nan,nan,nan,847.804515468888,869.2108877126593,nan,869.6520260223188,nan,nan,nan,nan
1,22,1,1,1.0,1.0,0.45629915967583656,0,nan,nan,nan,nan,nan,nan,nan,nan,nan,7,1,8,6,4,2,nan,nan,nan,nan,nan,nan,nan,nan,nan,nan,nan,nan,0.0,nan,nan,nan,nan,nan,nan,nan,nan,nan,nan,nan,nan,nan,nan,nan,nan,nan,nan,847.804515468888,870.2276927127969,nan,870.6839918724727,nan,nan,nan,nan
1,23,1,1,1.0,1.0,0.4874906879849732,0,nan,nan,nan,nan,nan,nan,nan,nan,nan,8,2,4,3,0,7,nan,nan,nan,nan,nan,nan,nan,nan,nan,nan,nan,nan,0.0,nan,nan,nan,nan,nan,nan,nan,nan,nan,nan,nan,nan,nan,nan,nan,nan,nan,nan,847.804515468888,871.2444817477372,nan,871.7319724357221,nan,nan,nan,nan
1,24,1,1,1.0,1.0,0.40665762522257864,0,nan,nan,nan,nan,nan,nan,nan,nan,nan,2,1,6,7,5,0,nan,nan,nan,nan,nan,nan,nan,nan,nan,nan,nan,nan,0.0,nan,nan,nan,nan,nan,nan,nan,nan,nan,nan,nan,nan,nan,nan,nan,nan,nan,nan,847.804515468888,872.2612861776724,nan,872.667943802895,nan,nan,nan,nan
1,25,1,1,1.0,1.0,0.4378520050086081,0,nan,nan,nan,nan,nan,nan,nan,nan,nan,7,2,1,6,0,4,nan,nan,nan,nan,nan,nan,nan,nan,nan,nan,nan,nan,0.0,nan,nan,nan,nan,nan,nan,nan,nan,nan,nan,nan,nan,nan,nan,nan,nan,nan,nan,847.804515468888,873.2780797737651,nan,873.7159317787737,nan,nan,nan,nan
1,26,1,1,1.0,1.0,0.5646916241385043,0,nan,nan,nan,nan,nan,nan,nan,nan,nan,1,5,7,0,6,3,nan,nan,nan,nan,nan,nan,nan,nan,nan,nan,nan,nan,0.0,nan,nan,nan,nan,nan,nan,nan,nan,nan,nan,nan,nan,nan,nan,nan,nan,nan,nan,847.804515468888,874.3032164275646,nan,874.8679080517031,nan,nan,nan,nan
1,27,1,1,1.0,1.0,0.5318565156776458,0,nan,nan,nan,nan,nan,nan,nan,nan,nan,2,6,8,4,5,7,nan,nan,nan,nan,nan,nan,nan,nan,nan,nan,nan,nan,0.0,nan,nan,nan,nan,nan,nan,nan,nan,nan,nan,nan,nan,nan,nan,nan,nan,nan,nan,847.804515468888,875.3200254191179,nan,875.8518819347955,nan,nan,nan,nan
1,28,1,1,1.0,1.0,0.49908441328443587,0,nan,nan,nan,nan,nan,nan,nan,nan,nan,8,3,2,1,6,0,nan,nan,nan,nan,nan,nan,nan,nan,nan,nan,nan,nan,0.0,nan,nan,nan,nan,nan,nan,nan,nan,nan,nan,nan,nan,nan,nan,nan,nan,nan,nan,847.804515468888,876.3368210110348,nan,876.8359054243192,nan,nan,nan,nan
1,29,1,1,1.0,1.0,0.44220086350105703,0,nan,nan,nan,nan,nan,nan,nan,nan,nan,1,2,5,4,0,3,nan,nan,nan,nan,nan,nan,nan,nan,nan,nan,nan,nan,0.0,nan,nan,nan,nan,nan,nan,nan,nan,nan,nan,nan,nan,nan,nan,nan,nan,nan,nan,847.804515468888,877.3536223049741,nan,877.7958231684752,nan,nan,nan,nan
1,30,0,0,0.0,1.0,0.47338469442911446,0,nan,nan,nan,nan,nan,nan,nan,nan,nan,3,7,1,6,8,2,nan,nan,nan,nan,nan,nan,nan,nan,nan,nan,nan,nan,0.0,nan,nan,nan,nan,nan,nan,nan,nan,nan,nan,nan,nan,nan,nan,nan,nan,nan,nan,847.804515468888,878.3704221732914,nan,878.8438068677206,nan,nan,nan,nan
1,31,1,1,1.0,1.0,0.46421799366362393,0,nan,nan,nan,nan,nan,nan,nan,nan,nan,7,3,8,1,4,5,nan,nan,nan,nan,nan,nan,nan,nan,nan,nan,nan,nan,0.0,nan,nan,nan,nan,nan,nan,nan,nan,nan,nan,nan,nan,nan,nan,nan,nan,nan,nan,847.804515468888,879.3955688055139,nan,879.8597867991775,nan,nan,nan,nan
1,32,1,1,1.0,1.0,0.567428833572194,0,nan,nan,nan,nan,nan,nan,nan,nan,nan,5,8,4,0,3,7,nan,nan,nan,nan,nan,nan,nan,nan,nan,nan,nan,nan,0.0,nan,nan,nan,nan,nan,nan,nan,nan,nan,nan,nan,nan,nan,nan,nan,nan,nan,nan,847.804515468888,880.412327619968,nan,880.9797564535402,nan,nan,nan,nan
1,33,1,1,1.0,1.0,0.44658165285363793,0,nan,nan,nan,nan,nan,nan,nan,nan,nan,4,7,8,1,2,0,nan,nan,nan,nan,nan,nan,nan,nan,nan,nan,nan,nan,0.0,nan,nan,nan,nan,nan,nan,nan,nan,nan,nan,nan,nan,nan,nan,nan,nan,nan,nan,847.804515468888,881.4291508663446,nan,881.8757325191982,nan,nan,nan,nan
1,34,1,1,1.0,1.0,0.5737568305339664,0,nan,nan,nan,nan,nan,nan,nan,nan,nan,2,5,6,7,0,1,nan,nan,nan,nan,nan,nan,nan,nan,nan,nan,nan,nan,0.0,nan,nan,nan,nan,nan,nan,nan,nan,nan,nan,nan,nan,nan,nan,nan,nan,nan,nan,847.804515468888,882.4459438924678,nan,883.0197007230017,nan,nan,nan,nan
1,35,1,1,1.0,1.0,0.4845923993270844,0,nan,nan,nan,nan,nan,nan,nan,nan,nan,4,1,7,0,3,2,nan,nan,nan,nan,nan,nan,nan,nan,nan,nan,nan,nan,0.0,nan,nan,nan,nan,nan,nan,nan,nan,nan,nan,nan,nan,nan,nan,nan,nan,nan,nan,847.804515468888,883.4710856778547,nan,883.9556780771818,nan,nan,nan,nan
1,36,1,1,1.0,1.0,0.38746380363591015,0,nan,nan,nan,nan,nan,nan,nan,nan,nan,5,4,0,8,7,6,nan,nan,nan,nan,nan,nan,nan,nan,nan,nan,nan,nan,0.0,nan,nan,nan,nan,nan,nan,nan,nan,nan,nan,nan,nan,nan,nan,nan,nan,nan,nan,847.804515468888,884.4962063662242,nan,884.8836701698601,nan,nan,nan,nan
1,37,1,1,1.0,1.0,0.4092280534096062,0,nan,nan,nan,nan,nan,nan,nan,nan,nan,1,5,4,7,6,3,nan,nan,nan,nan,nan,nan,nan,nan,nan,nan,nan,nan,0.0,nan,nan,nan,nan,nan,nan,nan,nan,nan,nan,nan,nan,nan,nan,nan,nan,nan,nan,847.804515468888,885.546403553104,nan,885.9556316065136,nan,nan,nan,nan
1,38,1,1,1.0,1.0,0.5044713073875755,0,nan,nan,nan,nan,nan,nan,nan,nan,nan,5,6,2,8,3,7,nan,nan,nan,nan,nan,nan,nan,nan,nan,nan,nan,nan,0.0,nan,nan,nan,nan,nan,nan,nan,nan,nan,nan,nan,nan,nan,nan,nan,nan,nan,nan,847.804515468888,886.5631464023609,nan,887.0676177097484,nan,nan,nan,nan
1,39,1,1,1.0,1.0,0.5276476393919438,0,nan,nan,nan,nan,nan,nan,nan,nan,nan,0,3,8,4,5,2,nan,nan,nan,nan,nan,nan,nan,nan,nan,nan,nan,nan,0.0,nan,nan,nan,nan,nan,nan,nan,nan,nan,nan,nan,nan,nan,nan,nan,nan,nan,nan,847.804515468888,887.5799417090602,nan,888.1075893484522,nan,nan,nan,nan
1,40,0,0,0.0,1.0,0.4068762941751629,0,nan,nan,nan,nan,nan,nan,nan,nan,nan,6,7,4,1,0,3,nan,nan,nan,nan,nan,nan,nan,nan,nan,nan,nan,nan,0.0,nan,nan,nan,nan,nan,nan,nan,nan,nan,nan,nan,nan,nan,nan,nan,nan,nan,nan,847.804515468888,888.5967592534143,nan,889.0036355475895,nan,nan,nan,nan
1,41,1,1,1.0,1.0,0.46998520637862384,1,nan,nan,nan,nan,nan,nan,nan,nan,nan,1,8,7,4,5,6,1.0,1.0,1.0,1.0,1.0,1.0,1.0,0.0,1.0,1.0,0.0,0.0,3.0,1.0,3.0,7.0,4.0,8.0,0.0,3.0,2.0,1.0,6.0,5.0,4.0,3.4262882145121694,2.539756818441674,1.4515397620853037,6.177945693023503,5.345997689990327,4.6031602350994945,847.804515468888,889.6135648237541,890.4219652996399,890.0835500301328,897.6478986835573,898.6568623955827,891.4304417823441,897.6395730169024
1,42,0,0,0.0,1.0,0.4979169440921396,0,nan,nan,nan,nan,nan,nan,nan,nan,nan,6,0,5,1,7,2,nan,nan,nan,nan,nan,nan,nan,nan,nan,nan,nan,nan,0.0,nan,nan,nan,nan,nan,nan,nan,nan,nan,nan,nan,nan,nan,nan,nan,nan,nan,nan,847.804515468888,898.8814261769876,nan,899.3793431210797,nan,nan,nan,nan
1,43,1,1,1.0,1.0,0.47307222872041166,0,nan,nan,nan,nan,nan,nan,nan,nan,nan,8,7,6,5,2,0,nan,nan,nan,nan,nan,nan,nan,nan,nan,nan,nan,nan,0.0,nan,nan,nan,nan,nan,nan,nan,nan,nan,nan,nan,nan,nan,nan,nan,nan,nan,nan,847.804515468888,899.8982334579341,nan,900.3713056866545,nan,nan,nan,nan
1,44,1,1,1.0,1.0,0.45626922440715134,0,nan,nan,nan,nan,nan,nan,nan,nan,nan,1,5,3,0,6,4,nan,nan,nan,nan,nan,nan,nan,nan,nan,nan,nan,nan,0.0,nan,nan,nan,nan,nan,nan,nan,nan,nan,nan,nan,nan,nan,nan,nan,nan,nan,nan,847.804515468888,900.9150187864434,nan,901.3712880108505,nan,nan,nan,nan
1,45,1,1,1.0,1.0,0.4874693057499826,1,nan,nan,nan,nan,nan,nan,nan,nan,nan,4,3,5,8,7,1,1.0,1.0,1.0,1.0,1.0,1.0,1.0,0.0,1.0,0.0,0.0,0.0,2.0,4.0,0.0,5.0,3.0,6.0,2.0,2.0,3.0,1.0,6.0,5.0,4.0,2.6759786712937057,3.4128889746498317,1.5093840865883976,6.067060061497614,5.299156656721607,4.339377754600719,847.804515468888,901.9318226461764,902.7402345258743,902.4192919519264,909.8661202129442,910.8713905028999,903.7570480788127,909.8577896996867
1,46,1,1,1.0,1.0,0.4557015977334231,0,nan,nan,nan,nan,nan,nan,nan,nan,nan,0,2,3,5,4,7,nan,nan,nan,nan,nan,nan,nan,nan,nan,nan,nan,nan,0.0,nan,nan,nan,nan,nan,nan,nan,nan,nan,nan,nan,nan,nan,nan,nan,nan,nan,nan,847.804515468888,911.0913528301753,nan,911.5470544279087,nan,nan,nan,nan
1,47,1,1,1.0,1.0,0.34287588601000607,0,nan,nan,nan,nan,nan,nan,nan,nan,nan,6,4,7,3,2,5,nan,nan,nan,nan,nan,nan,nan,nan,nan,nan,nan,nan,0.0,nan,nan,nan,nan,nan,nan,nan,nan,nan,nan,nan,nan,nan,nan,nan,nan,nan,nan,847.804515468888,912.1081578303128,nan,912.4510337163229,nan,nan,nan,nan
1,48,1,1,1.0,1.0,0.40571424178779125,0,nan,nan,nan,nan,nan,nan,nan,nan,nan,8,5,0,1,6,7,nan,nan,nan,nan,nan,nan,nan,nan,nan,nan,nan,nan,0.0,nan,nan,nan,nan,nan,nan,nan,nan,nan,nan,nan,nan,nan,nan,nan,nan,nan,nan,847.804515468888,913.1332873567007,nan,913.5390015984885,nan,nan,nan,nan
1,49,1,1,1.0,1.0,0.34885207400657237,0,nan,nan,nan,nan,nan,nan,nan,nan,nan,1,4,3,7,5,2,nan,nan,nan,nan,nan,nan,nan,nan,nan,nan,nan,nan,0.0,nan,nan,nan,nan,nan,nan,nan,nan,nan,nan,nan,nan,nan,nan,nan,nan,nan,nan,847.804515468888,914.1501214366872,nan,914.4989735106938,nan,nan,nan,nan
1,50,1,1,1.0,1.0,0.34806691901758313,0,nan,nan,nan,nan,nan,nan,nan,nan,nan,8,7,0,4,2,6,nan,nan,nan,nan,nan,nan,nan,nan,nan,nan,nan,nan,0.0,nan,nan,nan,nan,nan,nan,nan,nan,nan,nan,nan,nan,nan,nan,nan,nan,nan,nan,847.804515468888,915.1668907997664,nan,915.514957718784,nan,nan,nan,nan
1,51,1,1,1.0,1.0,0.3149623943027109,0,nan,nan,nan,nan,nan,nan,nan,nan,nan,7,8,5,0,4,2,nan,nan,nan,nan,nan,nan,nan,nan,nan,nan,nan,nan,0.0,nan,nan,nan,nan,nan,nan,nan,nan,nan,nan,nan,nan,nan,nan,nan,nan,nan,nan,847.804515468888,916.1920040757395,nan,916.5069664700422,nan,nan,nan,nan
1,52,1,1,1.0,1.0,0.5457495423033834,0,nan,nan,nan,nan,nan,nan,nan,nan,nan,6,4,2,1,5,0,nan,nan,nan,nan,nan,nan,nan,nan,nan,nan,nan,nan,0.0,nan,nan,nan,nan,nan,nan,nan,nan,nan,nan,nan,nan,nan,nan,nan,nan,nan,nan,847.804515468888,917.2171512779314,nan,917.7629008202348,nan,nan,nan,nan
1,53,1,1,1.0,1.0,0.5929198621306568,0,nan,nan,nan,nan,nan,nan,nan,nan,nan,5,3,1,0,2,8,nan,nan,nan,nan,nan,nan,nan,nan,nan,nan,nan,nan,0.0,nan,nan,nan,nan,nan,nan,nan,nan,nan,nan,nan,nan,nan,nan,nan,nan,nan,nan,847.804515468888,918.2339534270577,nan,918.8268732891884,nan,nan,nan,nan
1,54,1,1,1.0,1.0,0.4321061745285988,0,nan,nan,nan,nan,nan,nan,nan,nan,nan,0,6,8,4,1,7,nan,nan,nan,nan,nan,nan,nan,nan,nan,nan,nan,nan,0.0,nan,nan,nan,nan,nan,nan,nan,nan,nan,nan,nan,nan,nan,nan,nan,nan,nan,nan,847.804515468888,919.2507530103903,nan,919.6828591849189,nan,nan,nan,nan
1,55,0,0,0.0,1.0,0.49527752259746194,0,nan,nan,nan,nan,nan,nan,nan,nan,nan,1,4,6,7,0,3,nan,nan,nan,nan,nan,nan,nan,nan,nan,nan,nan,nan,0.0,nan,nan,nan,nan,nan,nan,nan,nan,nan,nan,nan,nan,nan,nan,nan,nan,nan,nan,847.804515468888,920.2675505981315,nan,920.762828120729,nan,nan,nan,nan
1,56,1,1,1.0,1.0,0.3664610458072275,0,nan,nan,nan,nan,nan,nan,nan,nan,nan,0,7,2,3,8,4,nan,nan,nan,nan,nan,nan,nan,nan,nan,nan,nan,nan,0.0,nan,nan,nan,nan,nan,nan,nan,nan,nan,nan,nan,nan,nan,nan,nan,nan,nan,nan,847.804515468888,921.2843481856398,nan,921.650809231447,nan,nan,nan,nan
1,57,1,1,1.0,1.0,0.5496385407168418,0,nan,nan,nan,nan,nan,nan,nan,nan,nan,1,0,4,7,6,3,nan,nan,nan,nan,nan,nan,nan,nan,nan,nan,nan,nan,0.0,nan,nan,nan,nan,nan,nan,nan,nan,nan,nan,nan,nan,nan,nan,nan,nan,nan,nan,847.804515468888,922.3011392161716,nan,922.8507777568884,nan,nan,nan,nan
1,58,1,1,1.0,1.0,0.3968508834950626,1,nan,nan,nan,nan,nan,nan,nan,nan,nan,8,5,2,3,1,7,1.0,1.0,1.0,1.0,1.0,1.0,0.0,0.0,0.0,1.0,0.0,0.0,1.0,1.0,0.0,7.0,3.0,5.0,4.0,5.0,4.0,2.0,1.0,3.0,6.0,4.816468985751271,4.153624699916691,2.035190574126318,1.1845972745213658,3.1691179720219225,5.648733445676044,847.804515468888,923.3179074388463,924.126333858585,923.7147583223414,930.8272627305705,931.8372827244457,925.1431642321404,930.8188994312659
1,59,0,0,0.0,1.0,0.42179224640130997,0,nan,nan,nan,nan,nan,nan,nan,nan,nan,7,8,1,4,5,3,nan,nan,nan,nan,nan,nan,nan,nan,nan,nan,nan,nan,0.0,nan,nan,nan,nan,nan,nan,nan,nan,nan,nan,nan,nan,nan,nan,nan,nan,nan,nan,847.804515468888,932.0607614293694,nan,932.4825536757708,nan,nan,nan,nan
1,60,1,1,1.0,1.0,0.45300059556029737,0,nan,nan,nan,nan,nan,nan,nan,nan,nan,2,3,0,1,4,8,nan,nan,nan,nan,nan,nan,nan,nan,nan,nan,nan,nan,0.0,nan,nan,nan,nan,nan,nan,nan,nan,nan,nan,nan,nan,nan,nan,nan,nan,nan,nan,847.804515468888,933.0775387750473,nan,933.5305393706076,nan,nan,nan,nan
1,61,1,1,1.0,1.0,0.379824933828786,0,nan,nan,nan,nan,nan,nan,nan,nan,nan,7,4,6,3,8,2,nan,nan,nan,nan,nan,nan,nan,nan,nan,nan,nan,nan,0.0,nan,nan,nan,nan,nan,nan,nan,nan,nan,nan,nan,nan,nan,nan,nan,nan,nan,nan,847.804515468888,934.1026968110818,nan,934.4825217449106,nan,nan,nan,nan
1,62,1,1,1.0,1.0,0.42700865282677114,0,nan,nan,nan,nan,nan,nan,nan,nan,nan,4,6,5,7,0,1,nan,nan,nan,nan,nan,nan,nan,nan,nan,nan,nan,nan,0.0,nan,nan,nan,nan,nan,nan,nan,nan,nan,nan,nan,nan,nan,nan,nan,nan,nan,nan,847.804515468888,935.119477578206,nan,935.5464862310328,nan,nan,nan,nan
1,63,1,1,1.0,1.0,0.32218160247430205,0,nan,nan,nan,nan,nan,nan,nan,nan,nan,0,5,4,8,3,6,nan,nan,nan,nan,nan,nan,nan,nan,nan,nan,nan,nan,0.0,nan,nan,nan,nan,nan,nan,nan,nan,nan,nan,nan,nan,nan,nan,nan,nan,nan,nan,847.804515468888,936.1362979733385,nan,936.4584795758128,nan,nan,nan,nan
1,64,1,1,1.0,1.0,0.3049877309240401,0,nan,nan,nan,nan,nan,nan,nan,nan,nan,3,8,2,5,0,1,nan,nan,nan,nan,nan,nan,nan,nan,nan,nan,nan,nan,0.0,nan,nan,nan,nan,nan,nan,nan,nan,nan,nan,nan,nan,nan,nan,nan,nan,nan,nan,847.804515468888,937.161460570991,nan,937.4664483019151,nan,nan,nan,nan
1,65,1,1,1.0,1.0,0.3442107066512108,0,nan,nan,nan,nan,nan,nan,nan,nan,nan,4,1,8,0,6,7,nan,nan,nan,nan,nan,nan,nan,nan,nan,nan,nan,nan,0.0,nan,nan,nan,nan,nan,nan,nan,nan,nan,nan,nan,nan,nan,nan,nan,nan,nan,nan,847.804515468888,938.178211117629,nan,938.5224218242802,nan,nan,nan,nan
1,66,1,1,1.0,1.0,0.5033731167204678,0,nan,nan,nan,nan,nan,nan,nan,nan,nan,0,8,7,1,2,3,nan,nan,nan,nan,nan,nan,nan,nan,nan,nan,nan,nan,0.0,nan,nan,nan,nan,nan,nan,nan,nan,nan,nan,nan,nan,nan,nan,nan,nan,nan,nan,847.804515468888,939.1950155475643,nan,939.6983886642847,nan,nan,nan,nan
1,67,1,1,1.0,1.0,0.49456221610307693,0,nan,nan,nan,nan,nan,nan,nan,nan,nan,7,2,4,5,3,0,nan,nan,nan,nan,nan,nan,nan,nan,nan,nan,nan,nan,0.0,nan,nan,nan,nan,nan,nan,nan,nan,nan,nan,nan,nan,nan,nan,nan,nan,nan,nan,847.804515468888,940.2118185521103,nan,940.7063807682134,nan,nan,nan,nan
1,68,1,1,1.0,1.0,0.45374897331930697,0,nan,nan,nan,nan,nan,nan,nan,nan,nan,4,6,8,3,2,1,nan,nan,nan,nan,nan,nan,nan,nan,nan,nan,nan,nan,0.0,nan,nan,nan,nan,nan,nan,nan,nan,nan,nan,nan,nan,nan,nan,nan,nan,nan,nan,847.804515468888,941.2286081570201,nan,941.6823571303394,nan,nan,nan,nan
1,69,1,1,1.0,1.0,0.3329206088092178,0,nan,nan,nan,nan,nan,nan,nan,nan,nan,7,4,5,8,3,0,nan,nan,nan,nan,nan,nan,nan,nan,nan,nan,nan,nan,0.0,nan,nan,nan,nan,nan,nan,nan,nan,nan,nan,nan,nan,nan,nan,nan,nan,nan,nan,847.804515468888,942.245405174559,nan,942.5783257833682,nan,nan,nan,nan
1,70,1,1,1.0,1.0,0.3081029779277742,0,nan,nan,nan,nan,nan,nan,nan,nan,nan,6,2,3,1,5,8,nan,nan,nan,nan,nan,nan,nan,nan,nan,nan,nan,nan,0.0,nan,nan,nan,nan,nan,nan,nan,nan,nan,nan,nan,nan,nan,nan,nan,nan,nan,nan,847.804515468888,943.2622044726741,nan,943.5703074506018,nan,nan,nan,nan
1,71,1,1,1.0,1.0,0.29128115717321634,0,nan,nan,nan,nan,nan,nan,nan,nan,nan,7,5,1,8,3,4,nan,nan,nan,nan,nan,nan,nan,nan,nan,nan,nan,nan,0.0,nan,nan,nan,nan,nan,nan,nan,nan,nan,nan,nan,nan,nan,nan,nan,nan,nan,nan,847.804515468888,944.2790066218004,nan,944.5702877789736,nan,nan,nan,nan
1,72,1,1,1.0,1.0,0.410454822704196,0,nan,nan,nan,nan,nan,nan,nan,nan,nan,2,0,3,1,5,6,nan,nan,nan,nan,nan,nan,nan,nan,nan,nan,nan,nan,0.0,nan,nan,nan,nan,nan,nan,nan,nan,nan,nan,nan,nan,nan,nan,nan,nan,nan,nan,847.804515468888,945.2958050647285,nan,945.7062598874327,nan,nan,nan,nan
1,73,1,1,1.0,1.0,0.3936292955186218,0,nan,nan,nan,nan,nan,nan,nan,nan,nan,7,1,8,0,2,4,nan,nan,nan,nan,nan,nan,nan,nan,nan,nan,nan,nan,0.0,nan,nan,nan,nan,nan,nan,nan,nan,nan,nan,nan,nan,nan,nan,nan,nan,nan,nan,847.804515468888,946.3126003716607,nan,946.7062296671793,nan,nan,nan,nan
1,74,1,1,1.0,1.0,0.31281533441506326,0,nan,nan,nan,nan,nan,nan,nan,nan,nan,5,8,4,7,3,2,nan,nan,nan,nan,nan,nan,nan,nan,nan,nan,nan,nan,0.0,nan,nan,nan,nan,nan,nan,nan,nan,nan,nan,nan,nan,nan,nan,nan,nan,nan,nan,847.804515468888,947.329402520787,nan,947.642217855202,nan,nan,nan,nan
1,75,0,0,1.0,0.0,0.33564841002225876,0,nan,nan,nan,nan,nan,nan,nan,nan,nan,6,3,1,2,7,4,nan,nan,nan,nan,nan,nan,nan,nan,nan,nan,nan,nan,0.0,nan,nan,nan,nan,nan,nan,nan,nan,nan,nan,nan,nan,nan,nan,nan,nan,nan,nan,847.804515468888,948.354540314991,nan,948.6901887250133,nan,nan,nan,nan
1,76,1,1,1.0,1.0,0.3588284479919821,0,nan,nan,nan,nan,nan,nan,nan,nan,nan,0,2,8,6,4,7,nan,nan,nan,nan,nan,nan,nan,nan,nan,nan,nan,nan,0.0,nan,nan,nan,nan,nan,nan,nan,nan,nan,nan,nan,nan,nan,nan,nan,nan,nan,nan,847.804515468888,949.3713427493349,nan,949.7301711973269,nan,nan,nan,nan
1,77,1,1,1.0,1.0,0.3499955954030156,1,nan,nan,nan,nan,nan,nan,nan,nan,nan,7,0,2,5,1,3,1.0,1.0,1.0,1.0,1.0,1.0,1.0,0.0,0.0,0.0,1.0,0.0,2.0,7.0,1.0,0.0,8.0,1.0,5.0,1.0,6.0,5.0,4.0,2.0,3.0,2.0441434525419027,6.65033026994206,6.11472673388198,5.203041293192655,3.036398812197149,4.004224841948599,847.804515468888,950.3881477492396,951.1965562079567,950.7381433446426,958.8975614858791,959.9011246191803,952.2050232822075,958.8892187136225
1,78,1,1,1.0,1.0,0.39116207230836153,0,nan,nan,nan,nan,nan,nan,nan,nan,nan,3,5,4,7,6,0,nan,nan,nan,nan,nan,nan,nan,nan,nan,nan,nan,nan,0.0,nan,nan,nan,nan,nan,nan,nan,nan,nan,nan,nan,nan,nan,nan,nan,nan,nan,nan,847.804515468888,960.1227459218353,nan,960.5139079941437,nan,nan,nan,nan
1,79,1,1,1.0,1.0,0.4942896640859544,0,nan,nan,nan,nan,nan,nan,nan,nan,nan,7,2,3,6,4,8,nan,nan,nan,nan,nan,nan,nan,nan,nan,nan,nan,nan,0.0,nan,nan,nan,nan,nan,nan,nan,nan,nan,nan,nan,nan,nan,nan,nan,nan,nan,nan,847.804515468888,961.1395988180302,nan,961.6338884821162,nan,nan,nan,nan
1,80,1,1,1.0,1.0,0.4375175868626684,0,nan,nan,nan,nan,nan,nan,nan,nan,nan,0,7,5,1,6,4,nan,nan,nan,nan,nan,nan,nan,nan,nan,nan,nan,nan,0.0,nan,nan,nan,nan,nan,nan,nan,nan,nan,nan,nan,nan,nan,nan,nan,nan,nan,nan,847.804515468888,962.1563342548907,nan,962.5938518417533,nan,nan,nan,nan
1,81,1,1,1.0,1.0,0.4207177183125168,0,0.0,0.0,0.0,0.4448055137443589,0.07930160034675786,0.365503913397601,0.5241071140911168,0.07930160034675786,0.4508416564203799,6,4,3,8,0,1,nan,nan,nan,nan,nan,nan,nan,nan,nan,nan,nan,nan,0.0,nan,nan,nan,nan,nan,nan,nan,nan,nan,nan,nan,nan,nan,nan,nan,nan,nan,nan,847.804515468888,963.1731304170098,nan,963.5938481353223,nan,nan,nan,nan
1,82,1,1,1.0,1.0,0.4278850390110165,0,0.0,0.0,0.0,0.44450813355384233,0.07885543610437654,0.3656526974494658,0.5233635696582188,0.07885543610437654,0.4287067813954006,3,7,6,4,2,5,nan,nan,nan,nan,nan,nan,nan,nan,nan,nan,nan,nan,0.0,nan,nan,nan,nan,nan,nan,nan,nan,nan,nan,nan,nan,nan,nan,nan,nan,nan,nan,847.804515468888,964.1899314257316,nan,964.6178164647426,nan,nan,nan,nan
1,83,1,1,1.0,1.0,0.4670586930587888,0,0.0,0.0,0.0,0.4443054128886859,0.0783943690025708,0.3659110438861151,0.5226997818912567,0.0783943690025708,0.4385538167941074,1,2,7,8,4,0,nan,nan,nan,nan,nan,nan,nan,nan,nan,nan,nan,nan,0.0,nan,nan,nan,nan,nan,nan,nan,nan,nan,nan,nan,nan,nan,nan,nan,nan,nan,nan,847.804515468888,965.2067315792665,nan,965.6737902723253,nan,nan,nan,nan
1,84,1,1,1.0,1.0,0.4102646636310965,0,0.0,0.0,0.0,0.4445795487943498,0.07796021504317288,0.36661933375117695,0.5225397638375227,0.07796021504317288,0.43506946523363393,8,1,2,0,5,3,nan,nan,nan,nan,nan,nan,nan,nan,nan,nan,nan,nan,0.0,nan,nan,nan,nan,nan,nan,nan,nan,nan,nan,nan,nan,nan,nan,nan,nan,nan,nan,847.804515468888,966.2235000869259,nan,966.633764750557,nan,nan,nan,nan
1,85,1,1,1.0,1.0,0.42534967768006027,0,0.0,0.0,0.0,0.444171038256692,0.07758409332448594,0.36658694493220606,0.5217551315811779,0.07758409332448594,0.43422434478998184,5,2,6,1,7,4,nan,nan,nan,nan,nan,nan,nan,nan,nan,nan,nan,nan,0.0,nan,nan,nan,nan,nan,nan,nan,nan,nan,nan,nan,nan,nan,nan,nan,nan,nan,nan,847.804515468888,967.2404011646286,nan,967.6657508423086,nan,nan,nan,nan
1,86,0,0,0.0,1.0,0.38458547135815024,0,0.0,0.0,0.0,0.44394961048520226,0.07715306140459179,0.3667965490806105,0.5211026718897941,0.07715306140459179,0.406733270889769,6,7,3,4,1,2,nan,nan,nan,nan,nan,nan,nan,nan,nan,nan,nan,nan,0.0,nan,nan,nan,nan,nan,nan,nan,nan,nan,nan,nan,nan,nan,nan,nan,nan,nan,nan,847.804515468888,968.257135175867,nan,968.6417206472252,nan,nan,nan,nan
1,87,1,1,1.0,1.0,0.34377793059684336,0,0.0,0.0,0.0,0.4432593297976784,0.07696674668882308,0.3662925831088553,0.5202260764865014,0.07696674668882308,0.38457102654501796,7,2,4,5,3,8,nan,nan,nan,nan,nan,nan,nan,nan,nan,nan,nan,nan,0.0,nan,nan,nan,nan,nan,nan,nan,nan,nan,nan,nan,nan,nan,nan,nan,nan,nan,nan,847.804515468888,969.2739321931731,nan,969.6177101237699,nan,nan,nan,nan
1,88,1,1,1.0,1.0,0.4869410223327577,0,0.0,0.0,0.0,0.44211586543904813,0.0772543554994819,0.36486150993956623,0.51937022093853,0.0772543554994819,0.4051014747625838,8,4,0,2,1,5,nan,nan,nan,nan,nan,nan,nan,nan,nan,nan,nan,nan,0.0,nan,nan,nan,nan,nan,nan,nan,nan,nan,nan,nan,nan,nan,nan,nan,nan,nan,nan,847.804515468888,970.2907312063035,nan,970.7776722286362,nan,nan,nan,nan
1,89,1,1,1.0,1.0,0.5817409518640488,0,0.0,0.0,0.0,0.44262524222193117,0.07696095124041827,0.3656642909815129,0.5195861934623495,0.07696095124041827,0.47081996826454997,6,0,4,7,5,2,nan,nan,nan,nan,nan,nan,nan,nan,nan,nan,nan,nan,0.0,nan,nan,nan,nan,nan,nan,nan,nan,nan,nan,nan,nan,nan,nan,nan,nan,nan,nan,847.804515468888,971.3158977951389,nan,971.8976387470029,nan,nan,nan,nan
1,90,1,1,1.0,1.0,0.6129473054315895,1,0.0,1.0,1.0,0.44418834008307856,0.07791948268537179,0.36626885739770676,0.5221078227684504,0.07791948268537179,0.5605430932094654,4,7,8,0,1,5,1.0,1.0,1.0,1.0,1.0,1.0,1.0,0.0,0.0,1.0,0.0,0.0,2.0,4.0,6.0,2.0,0.0,8.0,6.0,2.0,3.0,4.0,1.0,5.0,6.0,2.378220126731321,3.266497452510521,4.634283910738304,1.4118426712229848,5.537737766746432,7.200981757370755,847.804515468888,972.3326788472477,973.1410844549537,972.9456261526793,981.4005083835218,982.4114523744211,974.1578948718961,981.392159624258
1,91,1,1,1.0,1.0,0.3433730937540531,0,0.0,0.0,0.0,0.446063439698062,0.0794789855600299,0.3665844541380321,0.5255424252580919,0.0794789855600299,0.5126871170165638,0,1,4,5,8,6,nan,nan,nan,nan,nan,nan,nan,nan,nan,nan,nan,nan,0.0,nan,nan,nan,nan,nan,nan,nan,nan,nan,nan,nan,nan,nan,nan,nan,nan,nan,nan,847.804515468888,982.6340147799347,nan,982.9773878736887,nan,nan,nan,nan
1,92,1,1,1.0,1.0,0.5025531796272844,0,0.0,0.0,0.0,0.44493497435801793,0.07976278345045741,0.36517219090756053,0.5246977578084754,0.07976278345045741,0.48629119293764234,1,5,0,3,2,8,nan,nan,nan,nan,nan,nan,nan,nan,nan,nan,nan,nan,0.0,nan,nan,nan,nan,nan,nan,nan,nan,nan,nan,nan,nan,nan,nan,nan,nan,nan,nan,847.804515468888,983.6508072358556,nan,984.1533604154829,nan,nan,nan,nan
1,93,1,1,1.0,1.0,0.45374441193416715,0,0.0,0.0,0.0,0.4455612591979013,0.07955275935507292,0.36600849984282835,0.5251140185529742,0.07955275935507292,0.4332235617718349,7,8,2,0,5,6,nan,nan,nan,nan,nan,nan,nan,nan,nan,nan,nan,nan,0.0,nan,nan,nan,nan,nan,nan,nan,nan,nan,nan,nan,nan,nan,nan,nan,nan,nan,nan,847.804515468888,984.667602542555,nan,985.1213469544891,nan,nan,nan,nan
1,94,1,1,1.0,1.0,0.516899224370718,0,0.0,0.0,0.0,0.44564925008753853,0.07912840142875856,0.36652084865878,0.5247776515162971,0.07912840142875856,0.4910656053107232,0,7,5,4,1,3,nan,nan,nan,nan,nan,nan,nan,nan,nan,nan,nan,nan,0.0,nan,nan,nan,nan,nan,nan,nan,nan,nan,nan,nan,nan,nan,nan,nan,nan,nan,nan,847.804515468888,985.6844118193258,nan,986.2013110436965,nan,nan,nan,nan
1,95,1,1,1.0,1.0,0.420077107148245,0,0.0,0.0,0.0,0.4464072285373596,0.07904508656649747,0.36736214197086214,0.525452315103857,0.07904508656649747,0.46357358115104336,8,5,7,6,3,2,nan,nan,nan,nan,nan,nan,nan,nan,nan,nan,nan,nan,0.0,nan,nan,nan,nan,nan,nan,nan,nan,nan,nan,nan,nan,nan,nan,nan,nan,nan,nan,847.804515468888,986.7012028496247,nan,987.1212799567729,nan,nan,nan,nan
1,96,1,1,1.0,1.0,0.5148151705507189,0,0.0,0.0,0.0,0.4461300693648426,0.07867386340733272,0.3674562059575099,0.5248039327721753,0.07867386340733272,0.48393050068989396,5,6,1,0,4,8,nan,nan,nan,nan,nan,nan,nan,nan,nan,nan,nan,nan,0.0,nan,nan,nan,nan,nan,nan,nan,nan,nan,nan,nan,nan,nan,nan,nan,nan,nan,nan,847.804515468888,987.7264478399884,nan,988.2412630105391,nan,nan,nan,nan
1,97,1,1,1.0,1.0,0.4981108095962554,0,0.0,0.0,0.0,0.44684553916886216,0.0785731012759387,0.36827243789292347,0.5254186404448009,0.0785731012759387,0.4776676957650731,1,8,5,3,2,7,nan,nan,nan,nan,nan,nan,nan,nan,nan,nan,nan,nan,0.0,nan,nan,nan,nan,nan,nan,nan,nan,nan,nan,nan,nan,nan,nan,nan,nan,nan,nan,847.804515468888,988.7431345251389,nan,989.2412453347351,nan,nan,nan,nan
1,98,1,1,1.0,1.0,0.5052909592632204,0,0.0,0.0,0.0,0.4473740471114126,0.07833837055942176,0.3690356765519908,0.5257124176708343,0.07833837055942176,0.5060723131367316,7,0,8,2,3,6,nan,nan,nan,nan,nan,nan,nan,nan,nan,nan,nan,nan,0.0,nan,nan,nan,nan,nan,nan,nan,nan,nan,nan,nan,nan,nan,nan,nan,nan,nan,nan,847.804515468888,989.7599312574603,nan,990.2652222167235,nan,nan,nan,nan
1,99,1,1,1.0,1.0,0.5044519209768623,0,0.0,0.0,0.0,0.44796503601092086,0.07815470462198262,0.36981033138893826,0.5261197406329035,0.07815470462198262,0.5026178966121128,6,3,4,8,7,1,nan,nan,nan,nan,nan,nan,nan,nan,nan,nan,nan,nan,0.0,nan,nan,nan,nan,nan,nan,nan,nan,nan,nan,nan,nan,nan,nan,nan,nan,nan,nan,847.804515468888,990.7767402490135,nan,991.2811921699904,nan,nan,nan,nan
1,100,1,1,1.0,1.0,0.46363611216656864,0,0.0,0.0,0.0,0.4485356106065364,0.07796386160613038,0.370571749000406,0.5264994722126668,0.07796386160613038,0.4911263308022171,8,0,7,2,6,3,nan,nan,nan,nan,nan,nan,nan,nan,nan,nan,nan,nan,0.0,nan,nan,nan,nan,nan,nan,nan,nan,nan,nan,nan,nan,nan,nan,nan,nan,nan,nan,847.804515468888,991.7935386919416,nan,992.2571748041082,nan,nan,nan,nan
1,101,1,1,1.0,1.0,0.502811191836372,0,0.0,0.0,0.0,0.44868661562213674,0.07758761195147948,0.3710990036706573,0.5262742275736162,0.07758761195147948,0.49029974165993434,3,4,6,7,0,1,nan,nan,nan,nan,nan,nan,nan,nan,nan,nan,nan,nan,0.0,nan,nan,nan,nan,nan,nan,nan,nan,nan,nan,nan,nan,nan,nan,nan,nan,nan,nan,847.804515468888,992.8103436920792,nan,993.3131548839156,nan,nan,nan,nan
1,102,1,1,1.0,1.0,0.4939811897929758,0,0.0,0.0,0.0,0.449222502515347,0.0773883237497695,0.3718341787655775,0.5266108262651166,0.0773883237497695,0.48680949793197215,5,7,2,3,8,4,nan,nan,nan,nan,nan,nan,nan,nan,nan,nan,nan,nan,0.0,nan,nan,nan,nan,nan,nan,nan,nan,nan,nan,nan,nan,nan,nan,nan,nan,nan,nan,847.804515468888,993.8271338671912,nan,994.3211150569841,nan,nan,nan,nan
1,103,1,1,1.0,1.0,0.47716164984740317,0,0.0,0.0,0.0,0.4496613131749316,0.07713420424820848,0.3725271089267231,0.52679551742314,0.07713420424820848,0.4913180104922503,6,0,8,1,2,3,nan,nan,nan,nan,nan,nan,nan,nan,nan,nan,nan,nan,0.0,nan,nan,nan,nan,nan,nan,nan,nan,nan,nan,nan,nan,nan,nan,nan,nan,nan,nan,847.804515468888,994.8439405779354,nan,995.3211022277828,nan,nan,nan,nan
1,104,1,1,1.0,1.0,0.4203522251918912,0,0.0,0.0,0.0,0.4499283067348585,0.07680620193498199,0.3731221047998765,0.5267345086698405,0.07680620193498199,0.4638316882774234,2,7,5,8,0,4,nan,nan,nan,nan,nan,nan,nan,nan,nan,nan,nan,nan,0.0,nan,nan,nan,nan,nan,nan,nan,nan,nan,nan,nan,nan,nan,nan,nan,nan,nan,nan,847.804515468888,995.8607370250393,nan,996.2810892502312,nan,nan,nan,nan
1,105,1,1,1.0,1.0,0.3715203641913831,0,0.0,0.0,0.0,0.44964392133540687,0.07649052085115536,0.3731534004842515,0.5261344421865622,0.07649052085115536,0.4230114130768925,0,4,6,3,7,2,nan,nan,nan,nan,nan,nan,nan,nan,nan,nan,nan,nan,0.0,nan,nan,nan,nan,nan,nan,nan,nan,nan,nan,nan,nan,nan,nan,nan,nan,nan,nan,847.804515468888,996.8775291959755,nan,997.2490495601669,nan,nan,nan,nan
1,106,1,1,1.0,1.0,0.35470281983725727,0,0.0,0.0,0.0,0.44889988745784476,0.07650261998228197,0.3723972674755628,0.5254025074401267,0.07650261998228197,0.3821918030735105,6,0,8,2,4,1,nan,nan,nan,nan,nan,nan,nan,nan,nan,nan,nan,nan,0.0,nan,nan,nan,nan,nan,nan,nan,nan,nan,nan,nan,nan,nan,nan,nan,nan,nan,nan,847.804515468888,997.8943347663153,nan,998.2490375861526,nan,nan,nan,nan
1,107,1,1,1.0,1.0,0.3298849039711058,1,1.0,0.0,1.0,0.4480112358765185,0.07668347832629996,0.3713277575502185,0.5246947142028184,0.07668347832629996,0.35203602933324873,1,3,4,0,5,6,1.0,1.0,1.0,1.0,1.0,1.0,0.0,0.0,0.0,0.0,0.0,0.0,0.0,3.0,2.0,7.0,4.0,6.0,1.0,4.0,5.0,6.0,1.0,2.0,3.0,3.526334485737607,4.398087916197255,5.381745342165232,1.3577322529163212,2.1280336026102304,2.7914144394453615,847.804515468888,998.9111354898196,999.7195502205286,999.2410203937907,1006.1537147902418,1007.152482889127,1000.7363572164904,1006.145384561969
1,108,1,1,1.0,1.0,0.5022606709972024,0,0.0,0.0,0.0,0.4469072514661875,0.07716599055803458,0.3697412609081529,0.524073242024222,0.07716599055803458,0.39561613160185516,7,0,3,8,1,5,nan,nan,nan,nan,nan,nan,nan,nan,nan,nan,nan,nan,0.0,nan,nan,nan,nan,nan,nan,nan,nan,nan,nan,nan,nan,nan,nan,nan,nan,nan,nan,847.804515468888,1007.3705584493,nan,1007.8728191202972,nan,nan,nan,nan
1,109,1,1,1.0,1.0,0.4374229349195957,0,0.0,0.0,0.0,0.4474197831285117,0.07699066629610322,0.3704291168324085,0.5244104494246149,0.07699066629610322,0.423189503295968,8,2,0,7,3,4,nan,nan,nan,nan,nan,nan,nan,nan,nan,nan,nan,nan,0.0,nan,nan,nan,nan,nan,nan,nan,nan,nan,nan,nan,nan,nan,nan,nan,nan,nan,nan,847.804515468888,1008.38736915146,nan,1008.8247920863796,nan,nan,nan,nan
1,110,0,0,1.0,0.0,0.4286054770927876,0,0.0,0.0,0.0,0.4473280689247602,0.07664261105319975,0.37068545787156043,0.52397067997796,0.07664261105319975,0.4560963610031952,3,1,5,4,7,0,nan,nan,nan,nan,nan,nan,nan,nan,nan,nan,nan,nan,0.0,nan,nan,nan,nan,nan,nan,nan,nan,nan,nan,nan,nan,nan,nan,nan,nan,nan,nan,847.804515468888,1009.4041670241859,nan,1009.8327725012787,nan,nan,nan,nan
1,111,1,1,1.0,1.0,0.42778497003018856,0,0.0,0.0,0.0,0.4471578635444695,0.07631413190501234,0.37084373163945716,0.5234719954494819,0.07631413190501234,0.431271127347524,7,4,3,1,6,5,nan,nan,nan,nan,nan,nan,nan,nan,nan,nan,nan,nan,0.0,nan,nan,nan,nan,nan,nan,nan,nan,nan,nan,nan,nan,nan,nan,nan,nan,nan,nan,847.804515468888,1010.4209666075185,nan,1010.8487515775487,nan,nan,nan,nan
1,112,1,1,1.0,1.0,0.41061846795491874,0,0.0,0.0,0.0,0.4469833329722688,0.07599164652803513,0.37099168644423364,0.5229749795003039,0.07599164652803513,0.422336305025965,6,7,1,8,5,2,nan,nan,nan,nan,nan,nan,nan,nan,nan,nan,nan,nan,0.0,nan,nan,nan,nan,nan,nan,nan,nan,nan,nan,nan,nan,nan,nan,nan,nan,nan,nan,847.804515468888,1011.446104116505,nan,1011.8567225844599,nan,nan,nan,nan
1,113,1,1,1.0,1.0,0.6094594374299049,0,0.0,0.0,0.0,0.446658646677471,0.07572893767771637,0.37092970899975464,0.5223875843551874,0.07572893767771637,0.48262095847167075,1,6,5,0,3,8,nan,nan,nan,nan,nan,nan,nan,nan,nan,nan,nan,nan,0.0,nan,nan,nan,nan,nan,nan,nan,nan,nan,nan,nan,nan,nan,nan,nan,nan,nan,nan,847.804515468888,1012.4712390596978,nan,1013.0806984971277,nan,nan,nan,nan
1,114,1,1,1.0,1.0,0.42731427610851824,0,0.0,0.0,0.0,0.44809936163988195,0.07691940455866769,0.37117995708121426,0.5250187661985497,0.07691940455866769,0.4824640604977806,6,3,8,7,1,5,nan,nan,nan,nan,nan,nan,nan,nan,nan,nan,nan,nan,0.0,nan,nan,nan,nan,nan,nan,nan,nan,nan,nan,nan,nan,nan,nan,nan,nan,nan,nan,847.804515468888,1013.5253568906337,nan,1013.9526711667422,nan,nan,nan,nan
1,115,1,1,1.0,1.0,0.6701373339165002,1,0.0,1.0,1.0,0.44791703632820334,0.07660581732461998,0.3713112190035834,0.5245228536528234,0.07660581732461998,0.5689703491516411,7,8,3,5,0,1,1.0,1.0,1.0,1.0,1.0,1.0,1.0,0.0,0.0,0.0,0.0,0.0,1.0,7.0,1.0,0.0,8.0,7.0,2.0,1.0,4.0,3.0,2.0,6.0,5.0,1.5891143968328834,4.434799193870276,3.3873782746959478,2.618616444990039,6.330178268020973,5.442253891378641,847.804515468888,1014.546503621852,1015.3549137911759,1015.2166409557685,1022.7392110300716,1023.7505393307656,1016.3717233526986,1022.7308725342155
1,116,1,1,nan,nan,nan,0,0.0,0.0,0.0,0.0,0.0,0.0,0.0,0.0,0.0,3,1,2,4,5,8,nan,nan,nan,nan,nan,nan,nan,nan,nan,nan,nan,nan,0.0,nan,nan,nan,nan,nan,nan,nan,nan,nan,nan,nan,nan,nan,nan,nan,nan,nan,nan,847.804515468888,1023.9727311111055,nan,nan,nan,nan,nan,nan
1,117,1,1,1.0,1.0,0.29088629875332117,0,0.0,0.0,0.0,0.4498493867420146,0.07901325675480894,0.3708361299872056,0.5288626434968235,0.07901325675480894,0.4805118163349107,4,7,1,2,3,0,nan,nan,nan,nan,nan,nan,nan,nan,nan,nan,nan,nan,0.0,nan,nan,nan,nan,nan,nan,nan,nan,nan,nan,nan,nan,nan,nan,nan,nan,nan,nan,847.804515468888,1024.989533830434,nan,1025.2804201291874,nan,nan,nan,nan
1,118,0,0,0.0,1.0,0.5460380597505718,0,0.0,0.0,0.0,0.4484790152938362,0.08003271531019111,0.3684462999836451,0.5285117306040273,0.08003271531019111,0.4184621792519465,7,4,3,6,0,8,nan,nan,nan,nan,nan,nan,nan,nan,nan,nan,nan,nan,0.0,nan,nan,nan,nan,nan,nan,nan,nan,nan,nan,nan,nan,nan,nan,nan,nan,nan,nan,847.804515468888,1026.006336264778,nan,1026.5523743245285,nan,nan,nan,nan
1,119,1,1,1.0,1.0,0.6408471120521426,0,0.0,0.0,0.0,0.4493128532806459,0.08019440796355043,0.3691184453170955,0.5295072612441963,0.08019440796355043,0.49259049018534523,3,5,8,7,4,2,nan,nan,nan,nan,nan,nan,nan,nan,nan,nan,nan,nan,0.0,nan,nan,nan,nan,nan,nan,nan,nan,nan,nan,nan,nan,nan,nan,nan,nan,nan,nan,847.804515468888,1027.0315079854336,nan,1027.6723550974857,nan,nan,nan,nan
1,120,0,0,1.0,0.0,0.536096467403695,0,0.0,0.0,0.0,0.4509360249651501,0.08176123870949736,0.36917478625565275,0.5326972636746474,0.08176123870949736,0.5743272130688032,0,2,7,3,5,4,nan,nan,nan,nan,nan,nan,nan,nan,nan,nan,nan,nan,0.0,nan,nan,nan,nan,nan,nan,nan,nan,nan,nan,nan,nan,nan,nan,nan,nan,nan,nan,847.804515468888,1028.048245987855,nan,1028.5843424552586,nan,nan,nan,nan
1,121,1,1,1.0,1.0,0.582906995434314,1,0.0,1.0,1.0,0.4516516589352219,0.08178726121646583,0.36986439771875607,0.5334389201516877,0.08178726121646583,0.5866168582967172,1,6,2,4,0,7,1.0,1.0,1.0,1.0,1.0,1.0,0.0,1.0,1.0,0.0,0.0,0.0,2.0,3.0,6.0,2.0,3.0,1.0,0.0,6.0,1.0,2.0,3.0,4.0,5.0,5.315285693621263,1.5393796362914145,2.2189687669742852,3.045187189942226,3.740290974965319,4.50740409293212,847.804515468888,1029.0733991772868,1029.881773424102,1029.656306172721,1036.2409693615045,1037.2442111913115,1030.8902792716399,1036.2326368526556
1,122,1,1,nan,nan,nan,0,0.0,0.0,0.0,0.0,0.0,0.0,0.0,0.0,0.0,3,0,1,8,2,6,nan,nan,nan,nan,nan,nan,nan,nan,nan,nan,nan,nan,0.0,nan,nan,nan,nan,nan,nan,nan,nan,nan,nan,nan,nan,nan,nan,nan,nan,nan,nan,847.804515468888,1037.4661526570562,nan,nan,nan,nan,nan,nan
1,123,1,1,1.0,1.0,0.15716531057842076,0,0.0,0.0,0.0,0.4527454534060477,0.08231514505118527,0.37043030835486246,0.535060598457233,0.08231514505118527,0.3700361530063674,8,1,5,0,7,2,nan,nan,nan,nan,nan,nan,nan,nan,nan,nan,nan,nan,0.0,nan,nan,nan,nan,nan,nan,nan,nan,nan,nan,nan,nan,nan,nan,nan,nan,nan,nan,847.804515468888,1038.4829570869915,nan,1038.64012239757,nan,nan,nan,nan
1,124,1,1,1.0,1.0,0.12435186933726072,1,1.0,0.0,1.0,0.4503026423082987,0.0862314561191812,0.3640711861891175,0.5365340984274799,0.0862314561191812,0.14075858995784074,3,0,2,5,6,7,1.0,1.0,1.0,1.0,1.0,1.0,0.0,1.0,1.0,0.0,0.0,0.0,2.0,2.0,0.0,2.0,6.0,4.0,5.0,3.0,2.0,1.0,6.0,5.0,4.0,3.0161843455862254,2.1613328480161726,1.4172971334774047,4.90396702918224,4.353154462063685,3.705513220280409,847.804515468888,1039.499746121699,1040.308168550022,1039.6240979910363,1046.2672652166802,1047.274790618103,1041.3249684183393,1046.2589338482358
1,125,1,1,1.0,1.0,0.2994471697602421,0,0.0,0.0,0.0,0.44763091466099514,0.09076688758848842,0.35686402707250675,0.5383978022494835,0.09076688758848842,0.19365478322530785,7,1,5,6,3,2,nan,nan,nan,nan,nan,nan,nan,nan,nan,nan,nan,nan,0.0,nan,nan,nan,nan,nan,nan,nan,nan,nan,nan,nan,nan,nan,nan,nan,nan,nan,nan,847.804515468888,1047.4924539290369,nan,1047.791901098797,nan,nan,nan,nan
1,126,1,1,1.0,1.0,0.3946120224427432,0,0.0,0.0,0.0,0.4464261687674931,0.09137132763342361,0.3550548411340695,0.5377974964009167,0.09137132763342361,0.272803687180082,0,7,1,8,4,5,nan,nan,nan,nan,nan,nan,nan,nan,nan,nan,nan,nan,0.0,nan,nan,nan,nan,nan,nan,nan,nan,nan,nan,nan,nan,nan,nan,nan,nan,nan,nan,847.804515468888,1048.5092563633807,nan,1048.9038683858234,nan,nan,nan,nan
1,127,1,1,1.0,1.0,0.4817448575049639,0,0.0,0.0,0.0,0.4460083127487451,0.09112007122235352,0.35488824152639153,0.5371283839710986,0.09112007122235352,0.3919346832359831,2,0,4,7,3,1,nan,nan,nan,nan,nan,nan,nan,nan,nan,nan,nan,nan,0.0,nan,nan,nan,nan,nan,nan,nan,nan,nan,nan,nan,nan,nan,nan,nan,nan,nan,nan,847.804515468888,1049.5260887327604,nan,1050.0078335902654,nan,nan,nan,nan
1,128,1,1,1.0,1.0,0.4649586738087237,0,0.0,0.0,0.0,0.44629420510679485,0.09081067949937804,0.3554835256074168,0.5371048846061729,0.09081067949937804,0.44710518458547693,5,6,7,4,2,3,nan,nan,nan,nan,nan,nan,nan,nan,nan,nan,nan,nan,0.0,nan,nan,nan,nan,nan,nan,nan,nan,nan,nan,nan,nan,nan,nan,nan,nan,nan,nan,847.804515468888,1050.54286237224,nan,1051.0078210460488,nan,nan,nan,nan
1,129,1,1,1.0,1.0,0.42414685641415417,0,0.0,0.0,0.0,0.4464423358107784,0.09046476278409399,0.3559775730266844,0.5369070985948724,0.09046476278409399,0.4569501292426139,0,3,2,7,4,8,nan,nan,nan,nan,nan,nan,nan,nan,nan,nan,nan,nan,0.0,nan,nan,nan,nan,nan,nan,nan,nan,nan,nan,nan,nan,nan,nan,nan,nan,nan,nan,847.804515468888,1051.5596477007493,nan,1051.9837945571635,nan,nan,nan,nan
1,130,1,1,1.0,1.0,0.41532027581706643,0,0.0,0.0,0.0,0.44626678085489946,0.09012944369435322,0.35613733716054624,0.5363962245492526,0.09012944369435322,0.4348086020133148,1,8,4,0,7,2,nan,nan,nan,nan,nan,nan,nan,nan,nan,nan,nan,nan,0.0,nan,nan,nan,nan,nan,nan,nan,nan,nan,nan,nan,nan,nan,nan,nan,nan,nan,nan,847.804515468888,1052.576448139269,nan,1052.991768415086,nan,nan,nan,nan
1,131,1,1,1.0,1.0,0.4464898519217968,0,0.0,0.0,0.0,0.4460250112842914,0.08981801979705561,0.3562069914872358,0.535843031081347,0.08981801979705561,0.4286523280510058,6,3,2,7,5,8,nan,nan,nan,nan,nan,nan,nan,nan,nan,nan,nan,nan,0.0,nan,nan,nan,nan,nan,nan,nan,nan,nan,nan,nan,nan,nan,nan,nan,nan,nan,nan,847.804515468888,1053.5932582712267,nan,1054.0397481231485,nan,nan,nan,nan
1,132,1,1,1.0,1.0,0.46968499990180135,0,0.0,0.0,0.0,0.44602861470008603,0.08946921992375134,0.3565593947763347,0.5354978346238374,0.08946921992375134,0.44383170921355486,3,7,5,1,8,4,nan,nan,nan,nan,nan,nan,nan,nan,nan,nan,nan,nan,0.0,nan,nan,nan,nan,nan,nan,nan,nan,nan,nan,nan,nan,nan,nan,nan,nan,nan,nan,847.804515468888,1054.6100321959238,nan,1055.0797171958257,nan,nan,nan,nan
1,133,1,1,1.0,1.0,0.38884452474303544,0,0.0,0.0,0.0,0.4462105868939454,0.08914840475867405,0.3570621821352713,0.5353589916526195,0.08914840475867405,0.4350064588555445,7,5,1,6,4,0,nan,nan,nan,nan,nan,nan,nan,nan,nan,nan,nan,nan,0.0,nan,nan,nan,nan,nan,nan,nan,nan,nan,nan,nan,nan,nan,nan,nan,nan,nan,nan,847.804515468888,1055.6268494550604,nan,1056.0156939798035,nan,nan,nan,nan
1,134,1,1,1.0,1.0,0.39606230705976486,0,0.0,0.0,0.0,0.4457726780225644,0.08894773717289192,0.3568249408496724,0.5347204151954563,0.08894773717289192,0.4181972772348672,1,8,2,4,0,5,nan,nan,nan,nan,nan,nan,nan,nan,nan,nan,nan,nan,0.0,nan,nan,nan,nan,nan,nan,nan,nan,nan,nan,nan,nan,nan,nan,nan,nan,nan,nan,847.804515468888,1056.6436196735594,nan,1057.0396819806192,nan,nan,nan,nan
1,135,1,1,1.0,1.0,0.40320539427921176,0,0.0,0.0,0.0,0.4453960843031492,0.08871494585481757,0.3566811384483316,0.5341110301579668,0.08871494585481757,0.396037408694004,4,5,0,8,7,3,nan,nan,nan,nan,nan,nan,nan,nan,nan,nan,nan,nan,0.0,nan,nan,nan,nan,nan,nan,nan,nan,nan,nan,nan,nan,nan,nan,nan,nan,nan,nan,847.804515468888,1057.6604477665387,nan,1058.063653160818,nan,nan,nan,nan
1,136,1,1,1.0,1.0,0.3303812565281987,0,0.0,0.0,0.0,0.44507886106988653,0.08845591757287398,0.35662294349701257,0.5335347786427606,0.08845591757287398,0.37654965262239176,1,3,4,0,2,7,nan,nan,nan,nan,nan,nan,nan,nan,nan,nan,nan,nan,0.0,nan,nan,nan,nan,nan,nan,nan,nan,nan,nan,nan,nan,nan,nan,nan,nan,nan,nan,847.804515468888,1058.6772447838448,nan,1059.007626040373,nan,nan,nan,nan
1,137,1,1,1.0,1.0,0.45756071037612855,0,0.0,0.0,0.0,0.44422290879718734,0.08867638333603563,0.35554652546115173,0.532899292133223,0.08867638333603563,0.397049120394513,2,0,6,7,1,5,nan,nan,nan,nan,nan,nan,nan,nan,nan,nan,nan,nan,0.0,nan,nan,nan,nan,nan,nan,nan,nan,nan,nan,nan,nan,nan,nan,nan,nan,nan,nan,847.804515468888,1059.6940412311815,nan,1060.1516019415576,nan,nan,nan,nan
1,138,1,1,1.0,1.0,0.4083984231110662,0,0.0,0.0,0.0,0.4443217073274017,0.08835474407371369,0.35596696325368804,0.5326764514011154,0.08835474407371369,0.3987801300051312,7,5,4,6,3,0,nan,nan,nan,nan,nan,nan,nan,nan,nan,nan,nan,nan,0.0,nan,nan,nan,nan,nan,nan,nan,nan,nan,nan,nan,nan,nan,nan,nan,nan,nan,nan,847.804515468888,1060.7191770295613,nan,1061.1275754526723,nan,nan,nan,nan
1,139,1,1,1.0,1.0,0.37523573893122375,0,0.0,0.0,0.0,0.4440575655316934,0.08808279450544511,0.3559747710262483,0.5321403600371385,0.08808279450544511,0.41373162413947284,0,7,6,4,5,3,nan,nan,nan,nan,nan,nan,nan,nan,nan,nan,nan,nan,0.0,nan,nan,nan,nan,nan,nan,nan,nan,nan,nan,nan,nan,nan,nan,nan,nan,nan,nan,847.804515468888,1061.744318815181,nan,1062.1195545541123,nan,nan,nan,nan
1,140,1,1,1.0,1.0,0.4144176607951522,0,0.0,0.0,0.0,0.4435552164324199,0.08795605126794044,0.3555991651644795,0.5315112677003604,0.08795605126794044,0.3993506076124807,6,3,4,1,8,2,nan,nan,nan,nan,nan,nan,nan,nan,nan,nan,nan,nan,0.0,nan,nan,nan,nan,nan,nan,nan,nan,nan,nan,nan,nan,nan,nan,nan,nan,nan,nan,847.804515468888,1062.7611238153186,nan,1063.1755414761137,nan,nan,nan,nan
1,141,1,1,1.0,1.0,0.42159838089719415,0,0.0,0.0,0.0,0.44334407472490345,0.08767162951382594,0.3556724452110775,0.5310157042387293,0.08767162951382594,0.40375059354119003,5,2,7,8,6,1,nan,nan,nan,nan,nan,nan,nan,nan,nan,nan,nan,nan,0.0,nan,nan,nan,nan,nan,nan,nan,nan,nan,nan,nan,nan,nan,nan,nan,nan,nan,nan,847.804515468888,1063.7779077182058,nan,1064.199506099103,nan,nan,nan,nan
1,142,1,1,1.0,1.0,0.4207878520246595,0,0.0,0.0,0.0,0.4431876308844164,0.08737502445949413,0.35581260642492224,0.5305626553439104,0.08737502445949413,0.41893463123900193,2,1,0,6,7,4,nan,nan,nan,nan,nan,nan,nan,nan,nan,nan,nan,nan,0.0,nan,nan,nan,nan,nan,nan,nan,nan,nan,nan,nan,nan,nan,nan,nan,nan,nan,nan,847.804515468888,1064.7947070165537,nan,1065.2154948685784,nan,nan,nan,nan
1,143,1,1,1.0,1.0,0.4119994742795825,0,0.0,0.0,0.0,0.4430276324639895,0.08708284467620642,0.3559447877877831,0.5301104771401959,0.08708284467620642,0.4181285690671454,4,7,8,0,3,6,nan,nan,nan,nan,nan,nan,nan,nan,nan,nan,nan,nan,0.0,nan,nan,nan,nan,nan,nan,nan,nan,nan,nan,nan,nan,nan,nan,nan,nan,nan,nan,847.804515468888,1065.811474954011,nan,1066.2234744282905,nan,nan,nan,nan
1,144,1,1,1.0,1.0,0.3711383354384452,0,0.0,0.0,0.0,0.44280757460452563,0.0868125467194513,0.3559950278850743,0.529620121323977,0.0868125467194513,0.4013085539142291,5,6,3,8,2,4,nan,nan,nan,nan,nan,nan,nan,nan,nan,nan,nan,nan,0.0,nan,nan,nan,nan,nan,nan,nan,nan,nan,nan,nan,nan,nan,nan,nan,nan,nan,nan,847.804515468888,1066.8283110295888,nan,1067.1994493650272,nan,nan,nan,nan
1,145,1,1,1.0,1.0,0.33031967561692,0,0.0,0.0,0.0,0.4423028616526518,0.08671368149218013,0.3555891801604717,0.5290165431448319,0.08671368149218013,0.3711524951116492,3,4,5,6,7,1,nan,nan,nan,nan,nan,nan,nan,nan,nan,nan,nan,nan,0.0,nan,nan,nan,nan,nan,nan,nan,nan,nan,nan,nan,nan,nan,nan,nan,nan,nan,nan,847.804515468888,1067.8451026303228,nan,1068.1754223059397,nan,nan,nan,nan
1,146,1,1,1.0,1.0,0.321460023522377,1,1.0,0.0,1.0,0.4415197624496047,0.08691237542292159,0.35460738702668315,0.5284321378725263,0.08691237542292159,0.34097267819258076,8,5,4,1,3,6,1.0,1.0,1.0,1.0,1.0,1.0,0.0,0.0,0.0,0.0,0.0,0.0,0.0,6.0,2.0,1.0,0.0,5.0,8.0,2.0,3.0,1.0,4.0,5.0,6.0,2.887546624056995,3.885166640393436,1.8637801429722458,4.901714198524132,5.861322612967342,6.469664188101888,847.804515468888,1068.8619355699047,1069.6703257823829,1069.1833955934271,1077.1962990511674,1078.1932938513346,1070.6871336332988,1077.1879688228946
1,147,1,1,1.0,1.0,0.5860071326605976,0,0.0,0.0,0.0,0.4406860142626101,0.08718204391762428,0.3535039703449858,0.5278680581802344,0.08718204391762428,0.41259561059996486,6,7,0,5,2,1,nan,nan,nan,nan,nan,nan,nan,nan,nan,nan,nan,nan,0.0,nan,nan,nan,nan,nan,nan,nan,nan,nan,nan,nan,nan,nan,nan,nan,nan,nan,nan,847.804515468888,1078.4131635222584,nan,1078.999170654919,nan,nan,nan,nan
1,148,1,1,1.0,1.0,0.5131770074367523,0,0.0,0.0,0.0,0.4416882288722514,0.08770934165883287,0.3539788872134185,0.5293975705310843,0.08770934165883287,0.47354805453990895,1,4,3,6,0,2,nan,nan,nan,nan,nan,nan,nan,nan,nan,nan,nan,nan,0.0,nan,nan,nan,nan,nan,nan,nan,nan,nan,nan,nan,nan,nan,nan,nan,nan,nan,nan,847.804515468888,1079.4299901898485,nan,1079.9431671972852,nan,nan,nan,nan
1,149,1,1,1.0,1.0,0.44036569888703525,0,0.0,0.0,0.0,0.4421778780405014,0.08760708868010034,0.3545707893604011,0.5297849667206017,0.08760708868010034,0.5131832796614617,0,3,2,8,6,1,nan,nan,nan,nan,nan,nan,nan,nan,nan,nan,nan,nan,0.0,nan,nan,nan,nan,nan,nan,nan,nan,nan,nan,nan,nan,nan,nan,nan,nan,nan,nan,847.804515468888,1080.446764684515,nan,1080.887130383402,nan,nan,nan,nan
1,150,1,1,1.0,1.0,0.37556559522636235,0,0.0,0.0,0.0,0.4421655502911581,0.08730872394697545,0.3548568263441827,0.5294742742381335,0.08730872394697545,0.44303610051671666,3,1,7,4,0,6,nan,nan,nan,nan,nan,nan,nan,nan,nan,nan,nan,nan,0.0,nan,nan,nan,nan,nan,nan,nan,nan,nan,nan,nan,nan,nan,nan,nan,nan,nan,nan,847.804515468888,1081.463544881437,nan,1081.8391104766633,nan,nan,nan,nan
1,151,1,1,1.0,1.0,0.42241917294450104,0,0.0,0.0,0.0,0.44171555059477435,0.08718414558831324,0.35453140500646113,0.5288996961830876,0.08718414558831324,0.41278348901929957,0,7,2,5,6,1,nan,nan,nan,nan,nan,nan,nan,nan,nan,nan,nan,nan,0.0,nan,nan,nan,nan,nan,nan,nan,nan,nan,nan,nan,nan,nan,nan,nan,nan,nan,nan,847.804515468888,1082.488656731788,nan,1082.9110759047326,nan,nan,nan,nan
1,152,1,1,1.0,1.0,0.3332652903627604,0,0.0,0.0,0.0,0.4415860447045041,0.08690537116287322,0.35468067354163085,0.5284914158673772,0.08690537116287322,0.37708335284454125,3,6,0,7,2,4,nan,nan,nan,nan,nan,nan,nan,nan,nan,nan,nan,nan,0.0,nan,nan,nan,nan,nan,nan,nan,nan,nan,nan,nan,nan,nan,nan,nan,nan,nan,nan,847.804515468888,1083.513786258176,nan,1083.8470515485387,nan,nan,nan,nan
1,153,1,1,1.0,1.0,0.3160993584897369,0,0.0,0.0,0.0,0.4408639063422258,0.08706258860749087,0.3538013177347349,0.5279264949497167,0.08706258860749087,0.3572612739323328,7,8,2,6,3,0,nan,nan,nan,nan,nan,nan,nan,nan,nan,nan,nan,nan,0.0,nan,nan,nan,nan,nan,nan,nan,nan,nan,nan,nan,nan,nan,nan,nan,nan,nan,nan,847.804515468888,1084.5389411579818,nan,1084.8550405164715,nan,nan,nan,nan
1,154,1,1,1.0,1.0,0.3152685877867043,1,1.0,0.0,1.0,0.44003765105843445,0.08736189689107852,0.3526757541673559,0.5273995479495129,0.08736189689107852,0.32154441221306723,8,1,3,5,6,7,1.0,1.0,1.0,1.0,1.0,1.0,0.0,0.0,1.0,0.0,0.0,1.0,2.0,2.0,2.0,3.0,1.0,4.0,7.0,4.0,3.0,2.0,6.0,5.0,1.0,3.4322692495770752,2.9276288799010217,2.1433911689091474,4.375019065802917,3.943530124844983,1.2964627819601446,847.804515468888,1085.55575556634,1086.3641674460378,1085.8710241541266,1091.7981971651316,1092.7945790081285,1087.3809761523735,1091.7898660816718
1,155,1,1,1.0,1.0,0.3917599192354828,0,0.0,0.0,0.0,0.43921680195796253,0.08765633244403197,0.35156046951393055,0.5268731344019945,0.08765633244403197,0.341042621837308,7,5,4,0,8,6,nan,nan,nan,nan,nan,nan,nan,nan,nan,nan,nan,nan,0.0,nan,nan,nan,nan,nan,nan,nan,nan,nan,nan,nan,nan,nan,nan,nan,nan,nan,nan,847.804515468888,1093.015064202249,nan,1093.4068241214845,nan,nan,nan,nan
1,156,1,1,1.0,1.0,0.3429571383167058,0,0.0,0.0,0.0,0.43890662625389404,0.0874530534604306,0.35145357279346345,0.5263596797143246,0.0874530534604306,0.34999521511296433,5,0,7,6,1,2,nan,nan,nan,nan,nan,nan,nan,nan,nan,nan,nan,nan,0.0,nan,nan,nan,nan,nan,nan,nan,nan,nan,nan,nan,nan,nan,nan,nan,nan,nan,nan,847.804515468888,1094.0318558027502,nan,1094.374812941067,nan,nan,nan,nan
1,157,1,1,1.0,1.0,0.3021379082929343,1,1.0,0.0,1.0,0.4382835776309253,0.08750866809201326,0.35077490953891205,0.5257922457229386,0.08750866809201326,0.34561832194837433,4,1,5,7,3,6,1.0,1.0,1.0,1.0,1.0,1.0,1.0,1.0,0.0,1.0,0.0,0.0,3.0,4.0,1.0,6.0,7.0,4.0,3.0,2.0,3.0,4.0,1.0,5.0,6.0,2.1638117600232363,3.0356053891591728,4.274362973868847,1.2495684355963022,5.1615900048054755,5.8100218183826655,847.804515468888,1095.048646833282,1095.8570723976009,1095.350784741575,1102.7329594390467,1103.7298957942985,1096.8822081959806,1102.7246317768004
1,158,1,1,1.0,1.0,0.3847653672564775,0,0.0,0.0,0.0,0.437405218473906,0.08790435326791499,0.349500865205991,0.525309571741821,0.08790435326791499,0.3432868046220392,0,3,7,1,6,8,nan,nan,nan,nan,nan,nan,nan,nan,nan,nan,nan,nan,0.0,nan,nan,nan,nan,nan,nan,nan,nan,nan,nan,nan,nan,nan,nan,nan,nan,nan,nan,847.804515468888,1103.9498153573368,nan,1104.3345807245933,nan,nan,nan,nan
1,159,1,1,1.0,1.0,0.35194422816857696,0,0.0,0.0,0.0,0.43706778353020453,0.08772280667643306,0.34934497685377147,0.5247905902066377,0.08772280667643306,0.3462825012393296,7,8,4,6,2,3,nan,nan,nan,nan,nan,nan,nan,nan,nan,nan,nan,nan,0.0,nan,nan,nan,nan,nan,nan,nan,nan,nan,nan,nan,nan,nan,nan,nan,nan,nan,nan,847.804515468888,1104.9666100940667,nan,1105.3185543222353,nan,nan,nan,nan
1,160,1,1,1.0,1.0,0.2946649647783488,1,1.0,0.0,1.0,0.43652559527949353,0.08770481881580612,0.3488207764636874,0.5242304140952997,0.08770481881580612,0.34379152006780106,1,5,7,3,4,0,1.0,1.0,1.0,1.0,1.0,1.0,0.0,0.0,1.0,0.0,0.0,0.0,1.0,4.0,0.0,7.0,6.0,3.0,2.0,5.0,6.0,1.0,3.0,2.0,4.0,5.0984237883239985,6.186725232983008,1.2519655250944197,3.2826090985909104,2.515292706899345,4.4196369184646755,847.804515468888,1105.9918636372313,1106.800166325178,1106.2865286020096,1114.0427615907975,1115.039654611377,1107.8169716103002,1114.0344803992193
1,161,1,1,1.0,1.0,0.3307014193851501,0,0.0,0.0,0.0,0.43562774318771413,0.0881476861221885,0.34748005706552565,0.5237754293099026,0.0881476861221885,0.32577020411069196,5,8,4,2,6,3,nan,nan,nan,nan,nan,nan,nan,nan,nan,nan,nan,nan,0.0,nan,nan,nan,nan,nan,nan,nan,nan,nan,nan,nan,nan,nan,nan,nan,nan,nan,nan,847.804515468888,1115.259628627915,nan,1115.5903300473,nan,nan,nan,nan
1,162,1,1,1.0,1.0,0.3218537417706102,0,0.0,0.0,0.0,0.4349678292015345,0.08826071274733234,0.34670711645420216,0.5232285419488668,0.08826071274733234,0.31574004197803635,8,0,6,5,2,4,nan,nan,nan,nan,nan,nan,nan,nan,nan,nan,nan,nan,0.0,nan,nan,nan,nan,nan,nan,nan,nan,nan,nan,nan,nan,nan,nan,nan,nan,nan,nan,847.804515468888,1116.2764353384264,nan,1116.598289080197,nan,nan,nan,nan
1,163,1,1,1.0,1.0,0.297054641880095,1,1.0,0.0,1.0,0.4342608661550912,0.08843491329176631,0.34582595286332485,0.5226957794468575,0.08843491329176631,0.31653660101195175,7,1,3,0,4,2,1.0,1.0,1.0,1.0,1.0,1.0,1.0,1.0,1.0,0.0,0.0,0.0,3.0,7.0,1.0,3.0,3.0,2.0,5.0,1.0,3.0,2.0,6.0,5.0,4.0,1.3107116089668125,3.942259735893458,2.5492536607198417,6.668714133091271,5.933116698171943,5.078079887898639,847.804515468888,1117.2932252285536,1118.1016334020533,1117.5902798704337,1125.8359610182233,1126.833026522072,1119.1267780384514,1125.8276336409617
1,164,1,1,1.0,1.0,0.3852200957480818,0,0.0,0.0,0.0,0.4334086535819546,0.08881644276373858,0.344592210818216,0.5222250963456931,0.08881644276373858,0.334709493132929,0,7,4,1,5,8,nan,nan,nan,nan,nan,nan,nan,nan,nan,nan,nan,nan,0.0,nan,nan,nan,nan,nan,nan,nan,nan,nan,nan,nan,nan,nan,nan,nan,nan,nan,nan,847.804515468888,1127.052821783116,nan,1127.4380418788642,nan,nan,nan,nan
1,165,1,1,1.0,1.0,0.3923757274169475,0,0.0,0.0,0.0,0.43311119334841214,0.08862230316864819,0.3444888901797639,0.5217334965170604,0.08862230316864819,0.3582168216817081,1,8,2,6,7,5,nan,nan,nan,nan,nan,nan,nan,nan,nan,nan,nan,nan,0.0,nan,nan,nan,nan,nan,nan,nan,nan,nan,nan,nan,nan,nan,nan,nan,nan,nan,nan,847.804515468888,1128.069641893264,nan,1128.4620176206809,nan,nan,nan,nan
1,166,1,1,1.0,1.0,0.4475846216082573,0,0.0,0.0,0.0,0.4328612825144768,0.08840727846027761,0.3444540040541992,0.5212685609747544,0.08840727846027761,0.4083934815910955,6,5,7,0,3,2,nan,nan,nan,nan,nan,nan,nan,nan,nan,nan,nan,nan,0.0,nan,nan,nan,nan,nan,nan,nan,nan,nan,nan,nan,nan,nan,nan,nan,nan,nan,nan,847.804515468888,1129.086420379579,nan,1129.5340050011873,nan,nan,nan,nan
1,167,0,0,0.0,1.0,0.654742990154773,0,0.0,0.0,0.0,0.4329510589723657,0.08814478448108544,0.34480627449128026,0.5210958434534512,0.08814478448108544,0.4982344463933259,7,6,5,4,0,8,nan,nan,nan,nan,nan,nan,nan,nan,nan,nan,nan,nan,0.0,nan,nan,nan,nan,nan,nan,nan,nan,nan,nan,nan,nan,nan,nan,nan,nan,nan,nan,847.804515468888,1130.103214545874,nan,1130.7579575360287,nan,nan,nan,nan
1,168,1,1,1.0,1.0,0.48594033461995423,1,0.0,1.0,1.0,0.4342952524946833,0.08954741512199209,0.3447478373726912,0.5238426676166754,0.08954741512199209,0.5294226487943282,1,2,4,0,7,3,1.0,1.0,1.0,1.0,1.0,1.0,0.0,1.0,1.0,0.0,0.0,1.0,3.0,6.0,2.0,4.0,1.0,2.0,3.0,6.0,1.0,2.0,3.0,4.0,5.0,5.673900889698416,1.5084350011311471,2.5702484359499067,3.523291938472539,4.2984424906317145,4.977820364991203,847.804515468888,1131.1200124185998,1131.9284371277317,1131.6059527532198,1138.6543002354447,1139.6559275649488,1132.945239276858,1138.645969151985
1,169,0,0,1.0,0.0,0.29424872412346303,0,0.0,0.0,0.0,0.4346063674472452,0.08936668652144414,0.34523968092580104,0.5239730539686893,0.08936668652144414,0.47831068296606344,6,5,2,8,1,4,nan,nan,nan,nan,nan,nan,nan,nan,nan,nan,nan,nan,0.0,nan,nan,nan,nan,nan,nan,nan,nan,nan,nan,nan,nan,nan,nan,nan,nan,nan,nan,847.804515468888,1139.8795003516134,nan,1140.1737490757369,nan,nan,nan,nan
1,170,1,1,1.0,1.0,0.3654127467889339,0,0.0,0.0,0.0,0.4337659025171627,0.08975433790637584,0.34401156461078686,0.5235202404235385,0.08975433790637584,0.38186726851078373,3,2,8,0,5,6,nan,nan,nan,nan,nan,nan,nan,nan,nan,nan,nan,nan,0.0,nan,nan,nan,nan,nan,nan,nan,nan,nan,nan,nan,nan,nan,nan,nan,nan,nan,nan,847.804515468888,1140.896303926129,nan,1141.2617166729178,nan,nan,nan,nan
1,171,1,1,1.0,1.0,0.34061735309660435,1,1.0,0.0,1.0,0.4333590384949708,0.08964114367295181,0.343717894822019,0.5230001821679227,0.08964114367295181,0.33342627466966707,2,0,6,5,7,1,1.0,1.0,1.0,1.0,1.0,1.0,1.0,1.0,1.0,0.0,0.0,0.0,3.0,2.0,0.0,6.0,1.0,4.0,5.0,3.0,2.0,1.0,6.0,5.0,4.0,2.913467862876132,2.0809602157678455,1.0429657199420035,5.080353530822322,4.385141409235075,3.736581872450188,847.804515468888,1141.9130864038598,1142.721499423962,1142.2537037569564,1148.8556261041667,1149.858109292807,1143.7383067046758,1148.8472987269051
1,172,0,0,0.0,1.0,0.34870924102142453,0,0.0,0.0,0.0,0.4328102711257497,0.08965812602235164,0.3431521451033981,0.5224683971481013,0.08965812602235164,0.3515797803023209,8,4,3,2,1,0,nan,nan,nan,nan,nan,nan,nan,nan,nan,nan,nan,nan,0.0,nan,nan,nan,nan,nan,nan,nan,nan,nan,nan,nan,nan,nan,nan,nan,nan,nan,nan,847.804515468888,1150.0808199481107,nan,1150.4295291891322,nan,nan,nan,nan
1,173,1,1,1.0,1.0,0.4038719495292753,0,0.0,0.0,0.0,0.4323155591839596,0.08962507932334303,0.34269047986061657,0.5219406385073027,0.08962507932334303,0.3643995145491014,3,5,4,0,2,6,nan,nan,nan,nan,nan,nan,nan,nan,nan,nan,nan,nan,0.0,nan,nan,nan,nan,nan,nan,nan,nan,nan,nan,nan,nan,nan,nan,nan,nan,nan,nan,847.804515468888,1151.0976181060541,nan,1151.5014900555834,nan,nan,nan,nan
1,174,1,1,1.0,1.0,0.3870404353365302,0,0.0,0.0,0.0,0.43214922228539415,0.0893889467878235,0.34276027549757065,0.5215381690732177,0.0893889467878235,0.37987387529574335,4,6,8,3,7,5,nan,nan,nan,nan,nan,nan,nan,nan,nan,nan,nan,nan,0.0,nan,nan,nan,nan,nan,nan,nan,nan,nan,nan,nan,nan,nan,nan,nan,nan,nan,nan,847.804515468888,1152.114418259589,nan,1152.5014586949255,nan,nan,nan,nan
1,175,1,1,1.0,1.0,0.3782221225555986,0,0.0,0.0,0.0,0.4318869618961566,0.08919467223738659,0.34269228965877,0.5210816341335431,0.08919467223738659,0.3897115024738014,6,5,2,0,1,3,nan,nan,nan,nan,nan,nan,nan,nan,nan,nan,nan,nan,0.0,nan,nan,nan,nan,nan,nan,nan,nan,nan,nan,nan,nan,nan,nan,nan,nan,nan,nan,847.804515468888,1153.1312164172996,nan,1153.5094385398552,nan,nan,nan,nan
1,176,0,0,0.0,1.0,0.4893982671201229,0,0.0,0.0,0.0,0.4315767605126852,0.08902950967636541,0.34254725083631976,0.5206062701890506,0.08902950967636541,0.41822027500408393,1,7,3,2,8,0,nan,nan,nan,nan,nan,nan,nan,nan,nan,nan,nan,nan,0.0,nan,nan,nan,nan,nan,nan,nan,nan,nan,nan,nan,nan,nan,nan,nan,nan,nan,nan,847.804515468888,1154.148014575243,nan,1154.6374128423631,nan,nan,nan,nan
1,177,1,1,1.0,1.0,0.4165410581044853,0,0.0,0.0,0.0,0.4319090680219233,0.08888084441657981,0.34302822360534346,0.5207899124385031,0.08888084441657981,0.4280538159267356,7,3,0,8,4,5,nan,nan,nan,nan,nan,nan,nan,nan,nan,nan,nan,nan,0.0,nan,nan,nan,nan,nan,nan,nan,nan,nan,nan,nan,nan,nan,nan,nan,nan,nan,nan,847.804515468888,1155.1648472296074,nan,1155.581388287712,nan,nan,nan,nan
1,178,0,0,1.0,0.0,0.3117616183590144,0,0.0,0.0,0.0,0.4318212508223951,0.08863410533148613,0.34318714549090895,0.5204553561538812,0.08863410533148613,0.4059003145278742,0,8,3,5,7,2,nan,nan,nan,nan,nan,nan,nan,nan,nan,nan,nan,nan,0.0,nan,nan,nan,nan,nan,nan,nan,nan,nan,nan,nan,nan,nan,nan,nan,nan,nan,nan,847.804515468888,1156.1816202991176,nan,1156.4933819174767,nan,nan,nan,nan
1,179,1,1,1.0,1.0,0.3425437486730516,0,0.0,0.0,0.0,0.43113909381976223,0.08884144538909661,0.3422976484306656,0.5199805392088588,0.08884144538909661,0.3569488083788504,5,4,2,7,8,1,nan,nan,nan,nan,nan,nan,nan,nan,nan,nan,nan,nan,0.0,nan,nan,nan,nan,nan,nan,nan,nan,nan,nan,nan,nan,nan,nan,nan,nan,nan,nan,847.804515468888,1157.2068099807948,nan,1157.5493537294678,nan,nan,nan,nan
1,180,1,1,1.0,1.0,0.38977450877428055,0,0.0,0.0,0.0,0.430638555146617,0.08883864683968319,0.3417999083069338,0.5194772019863002,0.08883864683968319,0.3480266252687822,4,6,5,0,1,2,nan,nan,nan,nan,nan,nan,nan,nan,nan,nan,nan,nan,0.0,nan,nan,nan,nan,nan,nan,nan,nan,nan,nan,nan,nan,nan,nan,nan,nan,nan,nan,847.804515468888,1158.223557961639,nan,1158.6133324704133,nan,nan,nan,nan
1,181,1,1,1.0,1.0,0.3249336367007345,0,0.0,0.0,0.0,0.43040898185239035,0.08864138406549625,0.3417675977868941,0.5190503659178866,0.08864138406549625,0.35241729804935557,0,2,7,1,3,8,nan,nan,nan,nan,nan,nan,nan,nan,nan,nan,nan,nan,0.0,nan,nan,nan,nan,nan,nan,nan,nan,nan,nan,nan,nan,nan,nan,nan,nan,nan,nan,847.804515468888,1159.2403675231617,nan,1159.5653011598624,nan,nan,nan,nan
1,182,1,1,1.0,1.0,0.3481541583314538,0,0.0,0.0,0.0,0.42981973411411295,0.08874234255474675,0.3410773915593662,0.5185620766688597,0.08874234255474675,0.3542874346021563,1,0,2,6,4,3,nan,nan,nan,nan,nan,nan,nan,nan,nan,nan,nan,nan,0.0,nan,nan,nan,nan,nan,nan,nan,nan,nan,nan,nan,nan,nan,nan,nan,nan,nan,nan,847.804515468888,1160.2571326098405,nan,1160.605286768172,nan,nan,nan,nan
1,183,1,1,1.0,1.0,0.2673062705434859,1,1.0,0.0,1.0,0.42936603647087596,0.08870342648415143,0.34066260998672454,0.5180694629550274,0.08870342648415143,0.31346468852522474,7,3,4,0,6,8,1.0,1.0,1.0,1.0,1.0,1.0,1.0,1.0,0.0,0.0,0.0,1.0,3.0,7.0,3.0,2.0,4.0,1.0,8.0,1.0,3.0,4.0,2.0,5.0,6.0,1.6398823463823646,3.712106071645394,4.375262537971139,2.495190568268299,5.263942989753559,6.279295139247552,847.804515468888,1161.2739521500189,1162.0823637444992,1161.5412584205624,1169.4166459734552,1170.4184092937503,1163.0991399500053,1169.408319736598
1,184,0,0,1.0,0.0,0.4351815078407526,0,0.0,0.0,0.0,0.4284706786480727,0.0892699637315526,0.3392007149165201,0.5177406423796254,0.0892699637315526,0.35021397890523076,1,6,8,4,2,0,nan,nan,nan,nan,nan,nan,nan,nan,nan,nan,nan,nan,0.0,nan,nan,nan,nan,nan,nan,nan,nan,nan,nan,nan,nan,nan,nan,nan,nan,nan,nan,847.804515468888,1170.6418515064288,nan,1171.0770330142695,nan,nan,nan,nan
1,185,1,1,1.0,1.0,0.4263734584674239,0,0.0,0.0,0.0,0.4285075513359446,0.08902576089212175,0.3394817904438229,0.5175333122280663,0.08902576089212175,0.37628707895055413,4,2,0,6,8,5,nan,nan,nan,nan,nan,nan,nan,nan,nan,nan,nan,nan,0.0,nan,nan,nan,nan,nan,nan,nan,nan,nan,nan,nan,nan,nan,nan,nan,nan,nan,nan,847.804515468888,1171.6586473833304,nan,1172.0850208417978,nan,nan,nan,nan
1,186,1,1,1.0,1.0,0.3692136504687369,0,0.0,0.0,0.0,0.42849588962628055,0.08878232729503524,0.3397135623312453,0.5172782169213158,0.08878232729503524,0.41025620559230447,6,4,8,7,2,3,nan,nan,nan,nan,nan,nan,nan,nan,nan,nan,nan,nan,0.0,nan,nan,nan,nan,nan,nan,nan,nan,nan,nan,nan,nan,nan,nan,nan,nan,nan,nan,847.804515468888,1172.6837703525089,nan,1173.0529840029776,nan,nan,nan,nan
1,187,1,1,1.0,1.0,0.36840198119170964,0,0.0,0.0,0.0,0.42817370354390255,0.08864795063942933,0.33952575290447323,0.5168216541833319,0.08864795063942933,0.38799636337595683,5,6,3,0,7,4,nan,nan,nan,nan,nan,nan,nan,nan,nan,nan,nan,nan,0.0,nan,nan,nan,nan,nan,nan,nan,nan,nan,nan,nan,nan,nan,nan,nan,nan,nan,nan,847.804515468888,1173.7005622382276,nan,1174.0689642194193,nan,nan,nan,nan
1,188,1,1,1.0,1.0,0.37557728425599635,0,0.0,0.0,0.0,0.42785061315280964,0.08851659887693092,0.3393340142758787,0.5163672120297406,0.08851659887693092,0.37106430530548096,3,0,2,1,6,5,nan,nan,nan,nan,nan,nan,nan,nan,nan,nan,nan,nan,0.0,nan,nan,nan,nan,nan,nan,nan,nan,nan,nan,nan,nan,nan,nan,nan,nan,nan,nan,847.804515468888,1174.7173698043916,nan,1175.0929470886476,nan,nan,nan,nan
1,189,0,0,0.0,1.0,0.4387634575832635,0,0.0,0.0,0.0,0.4275695737501386,0.08836105188694794,0.33920852186319067,0.5159306256370866,0.08836105188694794,0.3942475743436565,2,7,6,8,4,1,nan,nan,nan,nan,nan,nan,nan,nan,nan,nan,nan,nan,0.0,nan,nan,nan,nan,nan,nan,nan,nan,nan,nan,nan,nan,nan,nan,nan,nan,nan,nan,847.804515468888,1175.7341599795036,nan,1176.1729234370869,nan,nan,nan,nan
1,190,1,1,1.0,1.0,0.37393969134427607,0,0.0,0.0,0.0,0.42762943409149223,0.08812825711237078,0.33950117697912147,0.5157576912038631,0.08812825711237078,0.3960934777278453,0,5,3,2,6,4,nan,nan,nan,nan,nan,nan,nan,nan,nan,nan,nan,nan,0.0,nan,nan,nan,nan,nan,nan,nan,nan,nan,nan,nan,nan,nan,nan,nan,nan,nan,nan,847.804515468888,1176.7509624136146,nan,1177.124902104959,nan,nan,nan,nan
1,191,1,1,0.0,0.0,0.4290935618337244,0,0.0,0.0,0.0,0.4273438503534751,0.0879802785496293,0.3393635718038458,0.5153241289031044,0.0879802785496293,0.4139322369204213,6,2,4,1,5,7,nan,nan,nan,nan,nan,nan,nan,nan,nan,nan,nan,nan,0.0,nan,nan,nan,nan,nan,nan,nan,nan,nan,nan,nan,nan,nan,nan,nan,nan,nan,nan,847.804515468888,1177.7677699797787,nan,1178.1968635416124,nan,nan,nan,nan
1,192,1,1,1.0,1.0,0.42827419517561793,0,0.0,0.0,0.0,0.4273531080861748,0.08774730961256318,0.33960579847361166,0.515100417698738,0.08774730961256318,0.4104358161178728,2,0,7,3,8,4,nan,nan,nan,nan,nan,nan,nan,nan,nan,nan,nan,nan,0.0,nan,nan,nan,nan,nan,nan,nan,nan,nan,nan,nan,nan,nan,nan,nan,nan,nan,nan,847.804515468888,1178.7845650014933,nan,1179.212839196669,nan,nan,nan,nan
1,193,1,1,1.0,1.0,0.3474171843845397,0,0.0,0.0,0.0,0.4273579559129614,0.08751611638038859,0.3398418395325728,0.51487407229335,0.08751611638038859,0.4015949804646273,7,4,8,2,6,5,nan,nan,nan,nan,nan,nan,nan,nan,nan,nan,nan,nan,0.0,nan,nan,nan,nan,nan,nan,nan,nan,nan,nan,nan,nan,nan,nan,nan,nan,nan,nan,847.804515468888,1179.8014002218843,nan,1180.1488174062688,nan,nan,nan,nan
1,194,1,1,1.0,1.0,0.4506599549204111,0,0.0,0.0,0.0,0.42693941784213196,0.08747716194684235,0.3394622558952896,0.5144165797889744,0.08747716194684235,0.40878377816018957,3,7,5,8,0,1,nan,nan,nan,nan,nan,nan,nan,nan,nan,nan,nan,nan,0.0,nan,nan,nan,nan,nan,nan,nan,nan,nan,nan,nan,nan,nan,nan,nan,nan,nan,nan,847.804515468888,1180.8181367989164,nan,1181.2687967538368,nan,nan,nan,nan
1,195,1,1,1.0,1.0,0.41782199568115175,0,0.0,0.0,0.0,0.4270629623060813,0.08726576448534343,0.3397971978207379,0.5143287267914247,0.08726576448534343,0.4052997116620342,6,3,0,1,4,5,nan,nan,nan,nan,nan,nan,nan,nan,nan,nan,nan,nan,0.0,nan,nan,nan,nan,nan,nan,nan,nan,nan,nan,nan,nan,nan,nan,nan,nan,nan,nan,847.804515468888,1181.8349529176485,nan,1182.2527749133296,nan,nan,nan,nan
1,196,1,1,1.0,1.0,0.4409923404455185,0,0.0,0.0,0.0,0.4270150816499936,0.08704192230479547,0.3399731593451981,0.514057003954789,0.08704192230479547,0.4364914303490271,0,8,6,3,2,7,nan,nan,nan,nan,nan,nan,nan,nan,nan,nan,nan,nan,0.0,nan,nan,nan,nan,nan,nan,nan,nan,nan,nan,nan,nan,nan,nan,nan,nan,nan,nan,847.804515468888,1182.8517550667748,nan,1183.2927474072203,nan,nan,nan,nan
1,197,1,1,1.0,1.0,0.4001765314023942,0,0.0,0.0,0.0,0.4270871293757437,0.0868230672341936,0.34026406214155014,0.5139101966099373,0.0868230672341936,0.41966362250968814,8,2,4,6,1,3,nan,nan,nan,nan,nan,nan,nan,nan,nan,nan,nan,nan,0.0,nan,nan,nan,nan,nan,nan,nan,nan,nan,nan,nan,nan,nan,nan,nan,nan,nan,nan,847.804515468888,1183.8685649137478,nan,1184.2687414451502,nan,nan,nan,nan
1,198,1,1,1.0,1.0,0.4473539786413312,0,0.0,0.0,0.0,0.4269491263092137,0.08662148715799371,0.34032763915122,0.5135706134672074,0.08662148715799371,0.429507616829748,2,1,5,7,6,4,nan,nan,nan,nan,nan,nan,nan,nan,nan,nan,nan,nan,0.0,nan,nan,nan,nan,nan,nan,nan,nan,nan,nan,nan,nan,nan,nan,nan,nan,nan,nan,847.804515468888,1184.8853525228333,nan,1185.3327065014746,nan,nan,nan,nan
1,199,1,1,1.0,1.0,0.3341949894092977,0,0.0,0.0,0.0,0.4270532326986633,0.08641246104361425,0.340640771655049,0.5134656937422776,0.08641246104361425,0.39390849981767434,1,6,8,3,4,2,nan,nan,nan,nan,nan,nan,nan,nan,nan,nan,nan,nan,0.0,nan,nan,nan,nan,nan,nan,nan,nan,nan,nan,nan,nan,nan,nan,nan,nan,nan,nan,847.804515468888,1185.9104863256216,nan,1186.244681315031,nan,nan,nan,nan
1,200,1,1,1.0,1.0,0.34137114766053855,0,0.0,0.0,0.0,0.42658187105760054,0.0864451093278659,0.3401367617297346,0.5130269803854665,0.0864451093278659,0.37430670523705584,7,5,3,1,6,4,nan,nan,nan,nan,nan,nan,nan,nan,nan,nan,nan,nan,0.0,nan,nan,nan,nan,nan,nan,nan,nan,nan,nan,nan,nan,nan,nan,nan,nan,nan,nan,847.804515468888,1186.927287619561,nan,1187.2686587672215,nan,nan,nan,nan
1,201,1,1,1.0,1.0,0.34054892999120057,1,1.0,0.0,1.0,0.42615151386872646,0.08643784801914163,0.33971366584958484,0.5125893618878681,0.08643784801914163,0.33870502235367894,2,0,7,5,3,8,1.0,1.0,1.0,1.0,1.0,1.0,1.0,1.0,1.0,0.0,0.0,0.0,3.0,2.0,0.0,7.0,3.0,8.0,5.0,3.0,2.0,1.0,6.0,5.0,4.0,3.1295021334663033,2.297736306907609,1.4016060044523329,5.632305342704058,4.84852977283299,3.936486821155995,847.804515468888,1187.9440846370999,1188.7525144778192,1188.284633567091,1195.445040422259,1196.4542350624688,1189.777644004207,1195.436710194219
1,202,1,1,1.0,1.0,0.373850456206128,0,0.0,0.0,0.0,0.4257213501306485,0.08643260046294776,0.33928874966770073,0.5121539505935963,0.08643260046294776,0.3519235112859557,5,7,2,4,0,1,nan,nan,nan,nan,nan,nan,nan,nan,nan,nan,nan,nan,0.0,nan,nan,nan,nan,nan,nan,nan,nan,nan,nan,nan,nan,nan,nan,nan,nan,nan,nan,847.804515468888,1196.6785861619283,nan,1197.0524366181344,nan,nan,nan,nan
1,203,1,1,1.0,1.0,0.33306857384741306,0,0.0,0.0,0.0,0.4254619956610259,0.08629384180876033,0.33916815385226556,0.5117558374697863,0.08629384180876033,0.34915598668158054,2,3,6,1,8,7,nan,nan,nan,nan,nan,nan,nan,nan,nan,nan,nan,nan,0.0,nan,nan,nan,nan,nan,nan,nan,nan,nan,nan,nan,nan,nan,nan,nan,nan,nan,nan,847.804515468888,1197.6953435509931,nan,1198.0284121248405,nan,nan,nan,nan
1,204,0,0,0.0,1.0,0.3562400590162724,0,0.0,0.0,0.0,0.425002326895784,0.08632403091071174,0.33867829598507226,0.5113263578064957,0.08632403091071174,0.35438636302327114,5,4,3,8,6,0,nan,nan,nan,nan,nan,nan,nan,nan,nan,nan,nan,nan,0.0,nan,nan,nan,nan,nan,nan,nan,nan,nan,nan,nan,nan,nan,nan,nan,nan,nan,nan,847.804515468888,1198.7121548231225,nan,1199.0683948821388,nan,nan,nan,nan
1,205,1,1,1.0,1.0,0.3234385917894542,1,1.0,0.0,1.0,0.42466191962905375,0.08624522782480612,0.3384166918042476,0.5109071474538599,0.08624522782480612,0.33758240821771324,0,5,7,2,1,3,1.0,1.0,1.0,1.0,1.0,1.0,1.0,0.0,0.0,0.0,0.0,1.0,2.0,0.0,1.0,2.0,8.0,6.0,3.0,1.0,2.0,3.0,4.0,5.0,6.0,1.2311788701917976,2.265157785033807,3.2492234690580517,3.9914950078818947,4.711889683734626,5.887256680987775,847.804515468888,1199.72891791421,1200.5373648607638,1200.0523565059993,1207.4799376323353,1208.4815649618395,1201.5541752777062,1207.4716113954782
1,206,1,1,1.0,1.0,0.763017995050177,0,0.0,0.0,0.0,0.4241632825461001,0.08632394114911296,0.3378393413969871,0.510487223695213,0.08632394114911296,0.4808988819519679,5,6,0,1,7,8,nan,nan,nan,nan,nan,nan,nan,nan,nan,nan,nan,nan,0.0,nan,nan,nan,nan,nan,nan,nan,nan,nan,nan,nan,nan,nan,nan,nan,nan,nan,nan,847.804515468888,1208.705131761497,nan,1209.468149756547,nan,nan,nan,nan
1,207,1,1,1.0,1.0,0.3844945258460939,0,0.0,0.0,0.0,0.42582433505837497,0.0893050426815572,0.33651929237681777,0.5151293777399322,0.0893050426815572,0.49031703756190836,7,2,3,0,6,4,nan,nan,nan,nan,nan,nan,nan,nan,nan,nan,nan,nan,0.0,nan,nan,nan,nan,nan,nan,nan,nan,nan,nan,nan,nan,nan,nan,nan,nan,nan,nan,847.804515468888,1209.763597880723,nan,1210.148092406569,nan,nan,nan,nan
1,208,1,1,1.0,1.0,0.3197143792640418,0,0.0,0.0,0.0,0.42562272623294917,0.08913348479612193,0.33648924143682724,0.5147562110290711,0.08913348479612193,0.4890756333867709,3,4,0,6,5,7,nan,nan,nan,nan,nan,nan,nan,nan,nan,nan,nan,nan,0.0,nan,nan,nan,nan,nan,nan,nan,nan,nan,nan,nan,nan,nan,nan,nan,nan,nan,nan,847.804515468888,1210.7803929024376,nan,1211.1001072817016,nan,nan,nan,nan
1,209,1,1,1.0,1.0,0.3348364559933543,0,0.0,0.0,0.0,0.42510860804377976,0.089221053109181,0.33588755493459876,0.5143296611529607,0.089221053109181,0.34634845370116335,8,2,6,1,7,0,nan,nan,nan,nan,nan,nan,nan,nan,nan,nan,nan,nan,0.0,nan,nan,nan,nan,nan,nan,nan,nan,nan,nan,nan,nan,nan,nan,nan,nan,nan,nan,847.804515468888,1211.7972466540523,nan,1212.1320831100456,nan,nan,nan,nan
1,210,1,1,1.0,1.0,0.32573162112385035,1,1.0,0.0,1.0,0.42467251069087913,0.08922509491561467,0.3354474157752645,0.5138976056064938,0.08922509491561467,0.3267608187937488,0,7,5,2,4,3,1.0,1.0,1.0,1.0,1.0,1.0,0.0,1.0,1.0,0.0,0.0,0.0,2.0,8.0,7.0,5.0,0.0,3.0,7.0,6.0,1.0,2.0,3.0,4.0,5.0,5.913755809888244,1.5960630485787988,2.291444232221693,3.355221980251372,4.0826206165365875,5.22675930778496,847.804515468888,1212.822329709772,1213.6307461510878,1213.1480613308959,1220.589983370155,1221.6008806054015,1214.6392203527503,1220.5816679671407
1,211,1,1,1.0,1.0,0.3803352559916675,0,0.0,0.0,0.0,0.4241968333371915,0.08927306777863944,0.3349237655585521,0.5134699011158309,0.08927306777863944,0.3469677777029574,7,1,3,4,8,6,nan,nan,nan,nan,nan,nan,nan,nan,nan,nan,nan,nan,0.0,nan,nan,nan,nan,nan,nan,nan,nan,nan,nan,nan,nan,nan,nan,nan,nan,nan,nan,847.804515468888,1221.8235122892074,nan,1222.203847545199,nan,nan,nan,nan
1,212,1,1,1.0,1.0,0.3155203277710825,0,0.0,0.0,0.0,0.4239869693307536,0.08911065655043797,0.3348763127803156,0.5130976258811916,0.08911065655043797,0.3405290682955335,4,3,5,8,6,7,nan,nan,nan,nan,nan,nan,nan,nan,nan,nan,nan,nan,0.0,nan,nan,nan,nan,nan,nan,nan,nan,nan,nan,nan,nan,nan,nan,nan,nan,nan,nan,847.804515468888,1222.840319570154,nan,1223.155839897925,nan,nan,nan,nan
1,213,1,1,1.0,1.0,0.3383787772618234,0,0.0,0.0,0.0,0.42347046151380274,0.0892112845902426,0.3342591769235601,0.5126817461040454,0.0892112845902426,0.34474478700819117,0,6,1,7,5,4,nan,nan,nan,nan,nan,nan,nan,nan,nan,nan,nan,nan,0.0,nan,nan,nan,nan,nan,nan,nan,nan,nan,nan,nan,nan,nan,nan,nan,nan,nan,nan,847.804515468888,1223.8654365520924,nan,1224.2038153293543,nan,nan,nan,nan
1,214,1,1,1.0,1.0,0.3455478083342314,1,1.0,0.0,1.0,0.4230671833893858,0.08919129746681355,0.3338758859225723,0.5122584808561994,0.08919129746681355,0.3331489711223791,1,3,8,4,7,6,1.0,1.0,1.0,1.0,1.0,1.0,1.0,0.0,0.0,0.0,1.0,0.0,2.0,1.0,5.0,3.0,2.0,7.0,8.0,2.0,5.0,4.0,3.0,1.0,6.0,2.455935661913827,5.102046791696921,4.206086406484246,3.2857311880216002,1.5823915416840464,5.942070146789774,847.804515468888,1224.882238416234,1225.6906571383588,1225.2277862245683,1232.683219546685,1233.6906032550614,1226.6991236424074,1232.6748941650148
1,215,1,1,1.0,1.0,0.31083134934306145,0,0.0,0.0,0.0,0.42270152595988036,0.08913907883767494,0.3335624471222054,0.5118406047975553,0.08913907883767494,0.33158597831303877,8,0,1,2,6,7,nan,nan,nan,nan,nan,nan,nan,nan,nan,nan,nan,nan,0.0,nan,nan,nan,nan,nan,nan,nan,nan,nan,nan,nan,nan,nan,nan,nan,nan,nan,nan,847.804515468888,1233.916745044291,nan,1234.227576393634,nan,nan,nan,nan
1,216,1,1,1.0,1.0,0.32604266121052206,0,0.0,0.0,0.0,0.4221763138630878,0.08925777830847835,0.33291853555460943,0.5114340921715661,0.08925777830847835,0.3274739396292716,7,4,5,3,1,8,nan,nan,nan,nan,nan,nan,nan,nan,nan,nan,nan,nan,0.0,nan,nan,nan,nan,nan,nan,nan,nan,nan,nan,nan,nan,nan,nan,nan,nan,nan,nan,847.804515468888,1234.933516117977,nan,1235.2595587791875,nan,nan,nan,nan
1,217,1,1,1.0,1.0,0.3331723490264267,1,1.0,0.0,1.0,0.4217270911871412,0.08929000986285512,0.33243708132428607,0.5110171010499963,0.08929000986285512,0.32334878652667004,0,8,3,6,7,4,1.0,1.0,1.0,1.0,1.0,1.0,1.0,0.0,0.0,0.0,1.0,0.0,2.0,0.0,0.0,6.0,2.0,7.0,8.0,2.0,6.0,5.0,4.0,1.0,3.0,2.5939108566381037,5.545361241092905,4.729523743735626,3.9854010748676956,1.6433245989028364,3.2827810114249587,847.804515468888,1235.9503496277612,1236.7587549502496,1236.2835219767876,1243.3595990634058,1244.3608018844388,1237.775564512005,1243.3513272798155
1,218,1,1,1.0,1.0,0.378557110670954,0,0.0,0.0,0.0,0.42131520866546346,0.0892856540087011,0.33202955465676237,0.5106008626741646,0.0892856540087011,0.34592404030263424,8,7,2,4,6,1,nan,nan,nan,nan,nan,nan,nan,nan,nan,nan,nan,nan,0.0,nan,nan,nan,nan,nan,nan,nan,nan,nan,nan,nan,nan,nan,nan,nan,nan,nan,nan,847.804515468888,1244.5847632572986,nan,1244.9633203679696,nan,nan,nan,nan
1,219,1,1,1.0,1.0,0.3697065815795213,0,0.0,0.0,0.0,0.42111725450808146,0.0891260113269089,0.33199124318117257,0.5102432658349904,0.0891260113269089,0.36047868042563397,7,8,0,5,2,4,nan,nan,nan,nan,nan,nan,nan,nan,nan,nan,nan,nan,0.0,nan,nan,nan,nan,nan,nan,nan,nan,nan,nan,nan,nan,nan,nan,nan,nan,nan,nan,847.804515468888,1245.6016004735138,nan,1245.9713070550933,nan,nan,nan,nan
1,220,1,1,1.0,1.0,0.36886725830845535,0,0.0,0.0,0.0,0.4208803389646319,0.08898856113082022,0.3318917778338117,0.5098689000954522,0.08898856113082022,0.37237698351964355,8,5,4,7,0,3,nan,nan,nan,nan,nan,nan,nan,nan,nan,nan,nan,nan,0.0,nan,nan,nan,nan,nan,nan,nan,nan,nan,nan,nan,nan,nan,nan,nan,nan,nan,nan,847.804515468888,1246.618406613823,nan,1246.9872738721315,nan,nan,nan,nan
1,221,1,1,1.0,1.0,0.37605482060462236,0,0.0,0.0,0.0,0.42064174685153016,0.08885376454472,0.33178798230681017,0.5094955113962502,0.08885376454472,0.37154288683086634,3,4,0,2,1,7,nan,nan,nan,nan,nan,nan,nan,nan,nan,nan,nan,nan,0.0,nan,nan,nan,nan,nan,nan,nan,nan,nan,nan,nan,nan,nan,nan,nan,nan,nan,nan,847.804515468888,1247.6351956487633,nan,1248.011250469368,nan,nan,nan,nan
1,222,1,1,1.0,1.0,0.3432328263297677,0,0.0,0.0,0.0,0.42043815358099634,0.08870162023496782,0.33173653334602854,0.5091397738159642,0.08870162023496782,0.36271830174761516,5,6,1,3,8,4,nan,nan,nan,nan,nan,nan,nan,nan,nan,nan,nan,nan,0.0,nan,nan,nan,nan,nan,nan,nan,nan,nan,nan,nan,nan,nan,nan,nan,nan,nan,nan,847.804515468888,1248.6519918108825,nan,1248.9952246372122,nan,nan,nan,nan
1,223,1,1,1.0,1.0,0.3744126660749316,0,0.0,0.0,0.0,0.4200872202753089,0.08865204264453891,0.33143517763077,0.5087392629198478,0.08865204264453891,0.36456677100310725,2,4,7,8,3,6,nan,nan,nan,nan,nan,nan,nan,nan,nan,nan,nan,nan,0.0,nan,nan,nan,nan,nan,nan,nan,nan,nan,nan,nan,nan,nan,nan,nan,nan,nan,nan,847.804515468888,1249.6687859771773,nan,1250.0431986432523,nan,nan,nan,nan
1,224,1,1,1.0,1.0,0.3255882179364562,0,0.0,0.0,0.0,0.419880548084357,0.08850434842582973,0.33137619965852727,0.5083848965101867,0.08850434842582973,0.3477445701137185,4,7,6,1,8,0,nan,nan,nan,nan,nan,nan,nan,nan,nan,nan,nan,nan,0.0,nan,nan,nan,nan,nan,nan,nan,nan,nan,nan,nan,nan,nan,nan,nan,nan,nan,nan,847.804515468888,1250.6855921177194,nan,1251.0111803356558,nan,nan,nan,nan
1,225,1,1,1.0,1.0,0.268807872897014,1,1.0,0.0,1.0,0.41945580785846553,0.08853024996660341,0.3309255578918621,0.507986057825069,0.08853024996660341,0.3229362523028006,7,8,3,0,6,2,1.0,1.0,1.0,1.0,1.0,1.0,0.0,0.0,0.0,1.0,1.0,0.0,2.0,2.0,4.0,1.0,0.0,6.0,7.0,1.0,5.0,4.0,3.0,2.0,6.0,1.3800039743073285,4.65722133195959,3.8014629429671913,3.161326290573925,2.2508422455284745,5.664397490210831,847.804515468888,1251.7023572043981,1252.510814129375,1251.9711650772952,1259.2283632592298,1260.2256400196347,1253.527609436307,1259.2200116489548
1,226,1,1,1.0,1.0,0.30977848870679736,0,0.0,0.0,0.0,0.4187802565806115,0.08890316632782858,0.32987709025278295,0.5076834229084402,0.08890316632782858,0.30139152651342255,0,5,4,1,7,6,nan,nan,nan,nan,nan,nan,nan,nan,nan,nan,nan,nan,0.0,nan,nan,nan,nan,nan,nan,nan,nan,nan,nan,nan,nan,nan,nan,nan,nan,nan,nan,847.804515468888,1260.4451943743043,nan,1260.754972863011,nan,nan,nan,nan
1,227,1,1,1.0,1.0,0.3169472347944975,0,0.0,0.0,0.0,0.41829364154546056,0.08900164822748553,0.32929199331797504,0.5072952897729461,0.08900164822748553,0.2985111987994363,8,2,5,7,3,0,nan,nan,nan,nan,nan,nan,nan,nan,nan,nan,nan,nan,0.0,nan,nan,nan,nan,nan,nan,nan,nan,nan,nan,nan,nan,nan,nan,nan,nan,nan,nan,847.804515468888,1261.461995383026,nan,1261.7789426178206,nan,nan,nan,nan
1,228,1,1,1.0,1.0,0.29212276148609817,1,1.0,0.0,1.0,0.41784321307101185,0.08905916045188493,0.3287840526191269,0.5069023735228968,0.08905916045188493,0.306282828329131,2,3,8,6,4,1,1.0,1.0,1.0,1.0,1.0,1.0,1.0,0.0,0.0,1.0,1.0,0.0,3.0,2.0,8.0,3.0,6.0,4.0,0.0,1.0,5.0,4.0,3.0,2.0,6.0,1.2803269026335329,4.479714401764795,3.655811530770734,2.984860817436129,2.346097473753616,5.711451205657795,847.804515468888,1262.4787926855497,1263.2872233816888,1262.7709154470358,1270.0630906659644,1271.0673833605833,1264.3123497720808,1270.0547553061042
1,229,1,1,1.0,1.0,0.3704104844946414,0,0.0,0.0,0.0,0.4172869278870078,0.08925281927355883,0.32803410861344895,0.5065397471605666,0.08925281927355883,0.3264934935917457,8,0,7,2,1,3,nan,nan,nan,nan,nan,nan,nan,nan,nan,nan,nan,nan,0.0,nan,nan,nan,nan,nan,nan,nan,nan,nan,nan,nan,nan,nan,nan,nan,nan,nan,nan,847.804515468888,1271.2882919225376,nan,1271.6587024070323,nan,nan,nan,nan
1,230,1,1,1.0,1.0,0.3376061662565917,0,0.0,0.0,0.0,0.4170804237310943,0.08911010315353643,0.3279703205775578,0.5061905268846307,0.08911010315353643,0.33337980407911044,4,1,5,7,3,8,nan,nan,nan,nan,nan,nan,nan,nan,nan,nan,nan,nan,0.0,nan,nan,nan,nan,nan,nan,nan,nan,nan,nan,nan,nan,nan,nan,nan,nan,nan,nan,847.804515468888,1272.3050724044442,nan,1272.6426785707008,nan,nan,nan,nan
1,231,0,0,1.0,0.0,0.24078575940802693,0,0.0,0.0,0.0,0.41673185242638155,0.08906943464922933,0.3276624177771522,0.5058012870756109,0.08906943464922933,0.3162674700530867,0,8,7,4,6,2,nan,nan,nan,nan,nan,nan,nan,nan,nan,nan,nan,nan,0.0,nan,nan,nan,nan,nan,nan,nan,nan,nan,nan,nan,nan,nan,nan,nan,nan,nan,nan,847.804515468888,1273.3218714175746,nan,1273.5626571769826,nan,nan,nan,nan
1,232,1,1,1.0,1.0,0.38395369821228087,1,1.0,0.0,1.0,0.41596352887608307,0.08962875589208638,0.3263347729839967,0.5055922847681694,0.08962875589208638,0.3207818746256332,8,5,2,6,3,0,1.0,1.0,1.0,1.0,1.0,1.0,0.0,0.0,0.0,0.0,0.0,0.0,0.0,6.0,2.0,7.0,2.0,6.0,5.0,6.0,3.0,1.0,4.0,2.0,5.0,5.955794396577403,3.603646324481815,1.588144784560427,4.428836120292544,2.723940988536924,5.348625422688201,847.804515468888,1274.338677272899,1275.1470922888257,1274.7226309711114,1282.1563382460736,1283.157102304045,1276.1638995695394,1282.1480034564156
1,233,1,1,1.0,1.0,0.3249131098855287,0,0.0,0.0,0.0,0.41582435569928394,0.08945849301071511,0.3263658626885688,0.5052828487099991,0.08945849301071511,0.3165508558352788,7,6,8,0,5,1,nan,nan,nan,nan,nan,nan,nan,nan,nan,nan,nan,nan,0.0,nan,nan,nan,nan,nan,nan,nan,nan,nan,nan,nan,nan,nan,nan,nan,nan,nan,nan,847.804515468888,1283.3815181204118,nan,1283.7064312302973,nan,nan,nan,nan
1,234,1,1,1.0,1.0,0.3561214590445161,0,0.0,0.0,0.0,0.415430800522601,0.08946396719640717,0.3259668333261938,0.5048947677190082,0.08946396719640717,0.3549960890474419,8,0,1,7,4,3,nan,nan,nan,nan,nan,nan,nan,nan,nan,nan,nan,nan,0.0,nan,nan,nan,nan,nan,nan,nan,nan,nan,nan,nan,nan,nan,nan,nan,nan,nan,nan,847.804515468888,1284.398278360488,nan,1284.7543998195324,nan,nan,nan,nan
1,235,1,1,1.0,1.0,0.299267559312284,0,0.0,0.0,0.0,0.41517515680933337,0.08935546423705029,0.32581969257228305,0.5045306210463837,0.08935546423705029,0.3267673760807763,6,4,0,1,2,5,nan,nan,nan,nan,nan,nan,nan,nan,nan,nan,nan,nan,0.0,nan,nan,nan,nan,nan,nan,nan,nan,nan,nan,nan,nan,nan,nan,nan,nan,nan,nan,847.804515468888,1285.415122703882,nan,1285.7143902631942,nan,nan,nan,nan
1,236,0,0,0.0,1.0,0.42642335034906864,0,0.0,0.0,0.0,0.41467769930934606,0.0894848748220339,0.3251928244873121,0.50416257413138,0.0894848748220339,0.36060412290195626,4,5,2,6,3,7,nan,nan,nan,nan,nan,nan,nan,nan,nan,nan,nan,nan,0.0,nan,nan,nan,nan,nan,nan,nan,nan,nan,nan,nan,nan,nan,nan,nan,nan,nan,nan,847.804515468888,1286.4319325506222,nan,1286.8583559009712,nan,nan,nan,nan
1,237,1,1,1.0,1.0,0.3696193424984813,0,0.0,0.0,0.0,0.4147278943992594,0.0892967502651039,0.32543114413415547,0.5040246446643633,0.0892967502651039,0.3651034173866113,2,8,4,0,7,1,nan,nan,nan,nan,nan,nan,nan,nan,nan,nan,nan,nan,0.0,nan,nan,nan,nan,nan,nan,nan,nan,nan,nan,nan,nan,nan,nan,nan,nan,nan,nan,847.804515468888,1287.4487096113153,nan,1287.8183289538138,nan,nan,nan,nan
1,238,1,1,1.0,1.0,0.27283229189924896,0,0.0,0.0,0.0,0.41453594311457526,0.08915492065418384,0.3253810224603914,0.5036908637687592,0.08915492065418384,0.3562916615822663,0,3,6,4,8,2,nan,nan,nan,nan,nan,nan,nan,nan,nan,nan,nan,nan,0.0,nan,nan,nan,nan,nan,nan,nan,nan,nan,nan,nan,nan,nan,nan,nan,nan,nan,nan,847.804515468888,1288.4654786894098,nan,1288.738310981309,nan,nan,nan,nan
1,239,1,1,1.0,1.0,0.3599722543731332,0,0.0,0.0,0.0,0.4139355039145103,0.08944072488888988,0.3244947790256204,0.5033762288034002,0.08944072488888988,0.3341412962569545,6,4,0,5,1,7,nan,nan,nan,nan,nan,nan,nan,nan,nan,nan,nan,nan,0.0,nan,nan,nan,nan,nan,nan,nan,nan,nan,nan,nan,nan,nan,nan,nan,nan,nan,nan,847.804515468888,1289.4823218923993,nan,1289.8422941467725,nan,nan,nan,nan
1,240,1,1,1.0,1.0,0.33511955640278757,1,1.0,0.0,1.0,0.41370781087847075,0.08932034881026847,0.3243874620682023,0.5030281596887393,0.08932034881026847,0.3226413675583899,5,7,1,4,3,6,1.0,1.0,1.0,1.0,1.0,1.0,1.0,1.0,0.0,0.0,0.0,0.0,2.0,5.0,7.0,0.0,1.0,7.0,8.0,3.0,2.0,6.0,1.0,5.0,4.0,3.3556242510676384,2.4211140021216124,5.251360265538096,1.0860218149609864,4.594865358900279,4.0760500023607165,847.804515468888,1290.4991485599894,1291.3075319300406,1290.8342681163922,1297.616679215571,1298.6163804347161,1292.324339210987,1297.6083487023134
1,241,1,1,1.0,1.0,0.280548992799595,0,0.0,0.0,0.0,0.4133776081285729,0.08927734428771891,0.324100263840854,0.5026549524162918,0.08927734428771891,0.32521360119183856,1,8,6,7,2,4,nan,nan,nan,nan,nan,nan,nan,nan,nan,nan,nan,nan,0.0,nan,nan,nan,nan,nan,nan,nan,nan,nan,nan,nan,nan,nan,nan,nan,nan,nan,nan,847.804515468888,1298.8335268660448,nan,1299.1140758588444,nan,nan,nan,nan
1,242,1,1,1.0,1.0,0.34374457434751093,0,0.0,0.0,0.0,0.4128218398635981,0.08950200061930999,0.3233198392442881,0.5023238404829081,0.08950200061930999,0.3198043745166312,4,2,1,5,7,6,nan,nan,nan,nan,nan,nan,nan,nan,nan,nan,nan,nan,0.0,nan,nan,nan,nan,nan,nan,nan,nan,nan,nan,nan,nan,nan,nan,nan,nan,nan,nan,847.804515468888,1299.8503025013488,nan,1300.1940470756963,nan,nan,nan,nan
1,243,1,1,1.0,1.0,0.3109029084444046,0,0.0,0.0,0.0,0.4125340179239477,0.08942611303262986,0.32310790489131785,0.5019601309565775,0.08942611303262986,0.3117321585305035,7,3,4,1,8,0,nan,nan,nan,nan,nan,nan,nan,nan,nan,nan,nan,nan,0.0,nan,nan,nan,nan,nan,nan,nan,nan,nan,nan,nan,nan,nan,nan,nan,nan,nan,nan,847.804515468888,1300.8671246073209,nan,1301.1780275157653,nan,nan,nan,nan
1,244,0,0,0.0,1.0,0.3660371075384319,0,0.0,0.0,0.0,0.4121123120754849,0.08947920201777287,0.322633110057712,0.5015915140932578,0.08947920201777287,0.34022819677678245,1,7,5,6,2,3,nan,nan,nan,nan,nan,nan,nan,nan,nan,nan,nan,nan,0.0,nan,nan,nan,nan,nan,nan,nan,nan,nan,nan,nan,nan,nan,nan,nan,nan,nan,nan,847.804515468888,1301.8839569767006,nan,1302.249994084239,nan,nan,nan,nan
1,245,1,1,1.0,1.0,0.3492435112129897,0,0.0,0.0,0.0,0.411921918668307,0.08934304077262331,0.32257887789568374,0.5012649594409303,0.08934304077262331,0.34206117573194206,6,0,8,4,1,2,nan,nan,nan,nan,nan,nan,nan,nan,nan,nan,nan,nan,0.0,nan,nan,nan,nan,nan,nan,nan,nan,nan,nan,nan,nan,nan,nan,nan,nan,nan,nan,847.804515468888,1302.900734607596,nan,1303.249978118809,nan,nan,nan,nan
1,246,1,1,1.0,1.0,0.2760860954876989,0,0.0,0.0,0.0,0.41166398283515754,0.08924926295421494,0.3224147198809426,0.5009132457893725,0.08924926295421494,0.33045557141304016,0,3,2,1,6,7,nan,nan,nan,nan,nan,nan,nan,nan,nan,nan,nan,nan,0.0,nan,nan,nan,nan,nan,nan,nan,nan,nan,nan,nan,nan,nan,nan,nan,nan,nan,nan,847.804515468888,1303.9258689805865,nan,1304.2019550760742,nan,nan,nan,nan
1,247,1,1,1.0,1.0,0.2589067639783025,0,0.0,0.0,0.0,0.4111083357558647,0.08948637014961229,0.3216219656062524,0.5005947059054769,0.08948637014961229,0.294745456892997,4,2,0,6,7,3,nan,nan,nan,nan,nan,nan,nan,nan,nan,nan,nan,nan,0.0,nan,nan,nan,nan,nan,nan,nan,nan,nan,nan,nan,nan,nan,nan,nan,nan,nan,nan,847.804515468888,1304.951018748805,nan,1305.2099255127832,nan,nan,nan,nan
1,248,1,1,1.0,1.0,0.22610130556859076,0,0.0,0.0,0.0,0.41048710485065015,0.08982923741379768,0.3206578674368525,0.5003163422644479,0.08982923741379768,0.2536980550115307,8,7,5,2,0,4,nan,nan,nan,nan,nan,nan,nan,nan,nan,nan,nan,nan,0.0,nan,nan,nan,nan,nan,nan,nan,nan,nan,nan,nan,nan,nan,nan,nan,nan,nan,nan,847.804515468888,1305.9678074982949,nan,1306.1939088038635,nan,nan,nan,nan
1,249,1,1,1.0,1.0,0.3132808965165168,0,0.0,0.0,0.0,0.4097375690812109,0.09041090555260912,0.3193266635286018,0.5001484746338201,0.09041090555260912,0.2660963220211367,1,5,7,6,2,8,nan,nan,nan,nan,nan,nan,nan,nan,nan,nan,nan,nan,0.0,nan,nan,nan,nan,nan,nan,nan,nan,nan,nan,nan,nan,nan,nan,nan,nan,nan,nan,847.804515468888,1306.9845959628,nan,1307.2978768593166,nan,nan,nan,nan
1,250,1,1,1.0,1.0,0.3364632152952254,0,0.0,0.0,0.0,0.4093470562368194,0.09043535404331289,0.3189117021935065,0.49978241028013226,0.09043535404331289,0.29194847246011096,4,6,0,5,3,1,nan,nan,nan,nan,nan,nan,nan,nan,nan,nan,nan,nan,0.0,nan,nan,nan,nan,nan,nan,nan,nan,nan,nan,nan,nan,nan,nan,nan,nan,nan,nan,847.804515468888,1308.0014021033421,nan,1308.3378653186373,nan,nan,nan,nan
1,251,1,1,1.0,1.0,0.33565183146856725,0,0.0,0.0,0.0,0.40905316978140976,0.09037094902688111,0.3186822207545287,0.49942411880829085,0.09037094902688111,0.3284653144267698,3,1,5,0,4,6,nan,nan,nan,nan,nan,nan,nan,nan,nan,nan,nan,nan,0.0,nan,nan,nan,nan,nan,nan,nan,nan,nan,nan,nan,nan,nan,nan,nan,nan,nan,nan,847.804515468888,1309.0181851510424,nan,1309.353836982511,nan,nan,nan,nan
1,252,1,1,1.0,1.0,0.3508223744574934,0,0.0,0.0,0.0,0.4087583852901935,0.09030869436141703,0.31844969092877645,0.4990670796516105,0.09030869436141703,0.34097914040709537,4,5,2,6,0,1,nan,nan,nan,nan,nan,nan,nan,nan,nan,nan,nan,nan,0.0,nan,nan,nan,nan,nan,nan,nan,nan,nan,nan,nan,nan,nan,nan,nan,nan,nan,nan,847.804515468888,1310.0349855897948,nan,1310.3858079642523,nan,nan,nan,nan
1,253,0,0,1.0,0.0,0.3899700848851353,0,0.0,0.0,0.0,0.4085266412468627,0.09020205239493162,0.3183245888519311,0.49872869364179434,0.09020205239493162,0.358814763603732,6,2,5,1,7,0,nan,nan,nan,nan,nan,nan,nan,nan,nan,nan,nan,nan,0.0,nan,nan,nan,nan,nan,nan,nan,nan,nan,nan,nan,nan,nan,nan,nan,nan,nan,nan,847.804515468888,1311.051801708527,nan,1311.441771793412,nan,nan,nan,nan
1,254,1,1,1.0,1.0,0.349180790130049,0,0.0,0.0,0.0,0.40845271074342954,0.09002977679065907,0.31842293395277044,0.49848248753408864,0.09002977679065907,0.3633244164908926,0,7,1,2,8,4,nan,nan,nan,nan,nan,nan,nan,nan,nan,nan,nan,nan,0.0,nan,nan,nan,nan,nan,nan,nan,nan,nan,nan,nan,nan,nan,nan,nan,nan,nan,nan,847.804515468888,1312.068585611647,nan,1312.417766401777,nan,nan,nan,nan
1,255,1,1,1.0,1.0,0.4763180501759052,0,0.0,0.0,0.0,0.40821750470924945,0.08992820675786638,0.31828929795138305,0.49814571146711584,0.08992820675786638,0.4051563083970298,3,6,4,8,2,5,nan,nan,nan,nan,nan,nan,nan,nan,nan,nan,nan,nan,0.0,nan,nan,nan,nan,nan,nan,nan,nan,nan,nan,nan,nan,nan,nan,nan,nan,nan,nan,847.804515468888,1313.0854051515926,nan,1313.5617232017685,nan,nan,nan,nan
1,256,1,1,1.0,1.0,0.35553073952905834,0,0.0,0.0,0.0,0.40848667682571843,0.08985196677068305,0.3186347100550354,0.49833864359640145,0.08985196677068305,0.39367652661167085,6,8,5,3,1,2,nan,nan,nan,nan,nan,nan,nan,nan,nan,nan,nan,nan,0.0,nan,nan,nan,nan,nan,nan,nan,nan,nan,nan,nan,nan,nan,nan,nan,nan,nan,nan,847.804515468888,1314.1021816420835,nan,1314.4577123816125,nan,nan,nan,nan
1,257,1,1,1.0,1.0,0.3547136536799371,0,0.0,0.0,0.0,0.4082781888836056,0.08973621451293332,0.31854197437067233,0.4980144033965389,0.08973621451293332,0.39552081446163356,5,1,7,4,6,0,nan,nan,nan,nan,nan,nan,nan,nan,nan,nan,nan,nan,0.0,nan,nan,nan,nan,nan,nan,nan,nan,nan,nan,nan,nan,nan,nan,nan,nan,nan,nan,847.804515468888,1315.1189860720187,nan,1315.4736997256987,nan,nan,nan,nan
1,258,1,1,1.0,1.0,0.3452071181964129,0,0.0,0.0,0.0,0.4080681318828069,0.08962263608902568,0.31844549579378123,0.49769076797183254,0.08962263608902568,0.35181717046846944,6,5,0,8,3,2,nan,nan,nan,nan,nan,nan,nan,nan,nan,nan,nan,nan,0.0,nan,nan,nan,nan,nan,nan,nan,nan,nan,nan,nan,nan,nan,nan,nan,nan,nan,nan,847.804515468888,1316.1524566602893,nan,1316.4976637784857,nan,nan,nan,nan
1,259,1,1,1.0,1.0,0.35235790302976966,0,0.0,0.0,0.0,0.40782258104809443,0.0895333252563045,0.3182892557917899,0.49735590630439896,0.0895333252563045,0.3507595583020399,8,7,1,0,4,6,nan,nan,nan,nan,nan,nan,nan,nan,nan,nan,nan,nan,0.0,nan,nan,nan,nan,nan,nan,nan,nan,nan,nan,nan,nan,nan,nan,nan,nan,nan,nan,847.804515468888,1317.1692887446843,nan,1317.521646647714,nan,nan,nan,nan
1,260,0,0,0.0,1.0,0.5272359601221979,0,0.0,0.0,0.0,0.40760676518031885,0.08942565856254361,0.3181811066177752,0.4970324237428625,0.08942565856254361,0.40826699378279346,1,4,2,7,5,3,nan,nan,nan,nan,nan,nan,nan,nan,nan,nan,nan,nan,0.0,nan,nan,nan,nan,nan,nan,nan,nan,nan,nan,nan,nan,nan,nan,nan,nan,nan,nan,847.804515468888,1318.1943857700098,nan,1318.721621730132,nan,nan,nan,nan
1,261,1,1,1.0,1.0,0.40639676223509014,0,0.0,0.0,0.0,0.40807044423048117,0.08956119158708296,0.3185092526433982,0.49763163581756414,0.08956119158708296,0.4286635417956859,2,7,4,6,0,5,nan,nan,nan,nan,nan,nan,nan,nan,nan,nan,nan,nan,0.0,nan,nan,nan,nan,nan,nan,nan,nan,nan,nan,nan,nan,nan,nan,nan,nan,nan,nan,847.804515468888,1319.2111970421392,nan,1319.6175938043743,nan,nan,nan,nan
1,262,1,1,1.0,1.0,0.5415495040360838,0,0.0,0.0,0.0,0.4080639821378349,0.08938818658459348,0.31867579555324144,0.49745216872242837,0.08938818658459348,0.4917274087977906,4,8,3,7,5,1,nan,nan,nan,nan,nan,nan,nan,nan,nan,nan,nan,nan,0.0,nan,nan,nan,nan,nan,nan,nan,nan,nan,nan,nan,nan,nan,nan,nan,nan,nan,nan,847.804515468888,1320.2280162971,nan,1320.7695658011362,nan,nan,nan,nan
1,263,0,0,0.0,1.0,0.5244251959957182,0,0.0,0.0,0.0,0.4085773879912897,0.08959790645383443,0.31897948153745526,0.4981752944451241,0.08959790645383443,0.4907904874222974,1,0,4,6,8,7,nan,nan,nan,nan,nan,nan,nan,nan,nan,nan,nan,nan,0.0,nan,nan,nan,nan,nan,nan,nan,nan,nan,nan,nan,nan,nan,nan,nan,nan,nan,nan,847.804515468888,1321.253117599059,nan,1321.7775427950546,nan,nan,nan,nan
1,264,1,1,1.0,1.0,0.5876053823158145,1,0.0,1.0,1.0,0.40902124932463996,0.08971204152301993,0.31930920780162003,0.4987332908476599,0.08971204152301993,0.5511933607825389,5,4,6,2,7,3,1.0,1.0,1.0,1.0,1.0,1.0,0.0,1.0,1.0,1.0,0.0,0.0,3.0,8.0,4.0,6.0,2.0,1.0,5.0,3.0,4.0,2.0,1.0,6.0,5.0,3.239637391641736,3.984144655521959,2.3219498191028833,1.2483345386572182,5.687840102007613,4.800285780336708,847.804515468888,1322.2699206033722,1323.0783287768718,1322.857525985688,1329.8125323762652,1330.8141043970827,1324.0867975619622,1329.8042032883968
1,265,1,1,1.0,1.0,0.363583569182083,0,0.0,0.0,0.0,0.40970286815285056,0.0902152624809819,0.3194876056718687,0.49991813063383245,0.0902152624809819,0.49187138249787193,3,8,1,7,2,6,nan,nan,nan,nan,nan,nan,nan,nan,nan,nan,nan,nan,0.0,nan,nan,nan,nan,nan,nan,nan,nan,nan,nan,nan,nan,nan,nan,nan,nan,nan,nan,847.804515468888,1331.0377495980356,nan,1331.4013331672177,nan,nan,nan,nan
1,266,1,1,1.0,1.0,0.3787643755786121,0,0.0,0.0,0.0,0.4095275096016309,0.09008831369345682,0.3194391959081741,0.49961582329508775,0.09008831369345682,0.44331777569216985,5,4,7,1,6,3,nan,nan,nan,nan,nan,nan,nan,nan,nan,nan,nan,nan,0.0,nan,nan,nan,nan,nan,nan,nan,nan,nan,nan,nan,nan,nan,nan,nan,nan,nan,nan,847.804515468888,1332.054533216171,nan,1332.4332975917496,nan,nan,nan,nan
1,267,1,1,1.0,1.0,0.40165475592948496,0,0.0,0.0,0.0,0.4094109825788165,0.08993738577697943,0.31947359680183707,0.4993483683557959,0.08993738577697943,0.38133423356339335,7,5,2,6,8,0,nan,nan,nan,nan,nan,nan,nan,nan,nan,nan,nan,nan,0.0,nan,nan,nan,nan,nan,nan,nan,nan,nan,nan,nan,nan,nan,nan,nan,nan,nan,nan,847.804515468888,1333.0796288158745,nan,1333.481283571804,nan,nan,nan,nan
1,268,1,1,1.0,1.0,0.3591109784319997,0,0.0,0.0,0.0,0.4093817137990077,0.08976879188733126,0.3196129219116764,0.49915050568633895,0.08976879188733126,0.37984336998003226,2,1,0,8,3,5,nan,nan,nan,nan,nan,nan,nan,nan,nan,nan,nan,nan,0.0,nan,nan,nan,nan,nan,nan,nan,nan,nan,nan,nan,nan,nan,nan,nan,nan,nan,nan,847.804515468888,1334.1381342785899,nan,1334.4972452570219,nan,nan,nan,nan
1,269,1,1,1.0,1.0,0.33429961977526546,0,0.0,0.0,0.0,0.40919272607206403,0.0896526963364182,0.3195400297356458,0.49884542240848223,0.0896526963364182,0.36502178471225005,8,2,6,1,5,0,nan,nan,nan,nan,nan,nan,nan,nan,nan,nan,nan,nan,0.0,nan,nan,nan,nan,nan,nan,nan,nan,nan,nan,nan,nan,nan,nan,nan,nan,nan,nan,847.804515468888,1335.154922743095,nan,1335.4892223628704,nan,nan,nan,nan
1,270,1,1,1.0,1.0,0.3574326168745756,0,0.0,0.0,0.0,0.40891222754660783,0.08960151390317153,0.31931071364343633,0.49851374144977934,0.08960151390317153,0.3502810716939469,4,8,1,0,3,2,nan,nan,nan,nan,nan,nan,nan,nan,nan,nan,nan,nan,0.0,nan,nan,nan,nan,nan,nan,nan,nan,nan,nan,nan,nan,nan,nan,nan,nan,nan,nan,847.804515468888,1336.1717719330918,nan,1336.5292045499664,nan,nan,nan,nan
