block,trial,time,setsize,freqtrials,trials_colorind,trials_colordeg,colorrgb0,colorrgb1,colorrgb2,correct_response,actual_response,acc,rts,probe_trials,rt_triggered_fast,rt_triggered_slow,rt_strailingavg,rts_runningavg,rts_runningstd,rts_runningslowthresh,rts_runningfastthresh,wm_respdeg,wm_respind,wm_resprgb0,wm_resprgb1,wm_resprgb2,wm_respcolorminusorigcolor,wm_rts,time_blockstart,time_encarray_onset,time_response,time_encarray_offest,time_memprobe_onset,time_memprobe_offset
0,0,4654,6,1,325,228,-0.119404900653,0.442631039184,0.360186421743,1,1.0,1.0,0.465356053319,0,nan,nan,nan,nan,nan,nan,nan,nan,nan,0.0,0.0,0.0,nan,nan,368.702048257,369.724657369,370.190013423,370.224679037,nan,nan
0,1,4655,6,1,441,310,0.266287261384,0.422891888867,-1.0,1,1.0,1.0,0.312812467106,0,nan,nan,nan,nan,nan,nan,nan,nan,nan,0.0,0.0,0.0,nan,nan,368.702048257,370.733192343,371.04600481,371.233149863,nan,nan
0,2,4656,6,1,167,117,1.0,-0.195605812978,0.221546716301,1,1.0,1.0,0.280721856281,0,nan,nan,nan,nan,nan,nan,nan,nan,nan,0.0,0.0,0.0,nan,nan,368.702048257,371.733256775,372.013978631,372.233277017,nan,nan
0,3,4657,6,1,326,229,-0.12383419111,0.444071765824,0.352223541474,1,1.0,1.0,0.228264141828,0,nan,nan,nan,nan,nan,nan,nan,nan,nan,0.0,0.0,0.0,nan,nan,368.702048257,372.77768642,373.005950562,373.283410614,nan,nan
0,4,4658,6,1,42,29,1.0,0.00954878589686,-1.0,1,1.0,1.0,0.278433660977,0,nan,nan,nan,nan,nan,nan,nan,nan,nan,0.0,0.0,0.0,nan,nan,368.702048257,373.783514675,374.061948336,374.28354404,nan,nan
0,5,4659,6,1,154,108,1.0,-0.251813147593,0.102138173725,1,1.0,1.0,0.334305421915,0,nan,nan,nan,nan,nan,nan,nan,nan,nan,0.0,0.0,0.0,nan,nan,368.702048257,374.783642113,375.117947535,375.283692291,nan,nan
0,6,4700,6,1,305,214,0.00361192545304,0.406859252708,0.500196907155,1,1.0,1.0,0.326151623856,0,nan,nan,nan,nan,nan,nan,nan,nan,nan,0.0,0.0,0.0,nan,nan,368.702048257,375.783762425,376.109914049,376.283798632,nan,nan
0,7,4701,6,1,206,144,0.994723455659,0.014051917983,0.511316161583,1,1.0,1.0,0.334012056235,0,nan,nan,nan,nan,nan,nan,nan,nan,nan,0.0,0.0,0.0,nan,nan,368.702048257,376.783889293,377.117901349,377.283918658,nan,nan
0,8,4706,6,1,250,175,0.546428449327,0.232286661223,0.654747725831,1,1.0,1.0,0.341852246318,1,nan,nan,nan,nan,nan,nan,nan,-75.2947279439,235.0,0.707591924495,0.164537776567,0.631659631194,-10.4865220561,2.09223627346,368.702048257,377.784024145,378.125876391,378.28405579,379.609226108,381.709471634
0,9,4707,6,1,41,28,1.0,0.0148395037771,-1.0,1,1.0,1.0,0.343459057622,0,nan,nan,nan,nan,nan,nan,nan,nan,nan,0.0,0.0,0.0,nan,nan,368.702048257,382.926324165,383.269783223,383.426358092,nan,nan
0,10,4708,6,1,246,172,0.589768841079,0.215019897151,0.651339528662,1,1.0,1.0,0.319332084153,0,nan,nan,nan,nan,nan,nan,nan,nan,nan,0.0,0.0,0.0,nan,nan,368.702048257,383.926448468,384.245780552,384.426501781,nan,nan
0,11,4709,6,1,126,88,1.0,-0.311411754845,-0.177408431044,1,1.0,1.0,0.335166132078,0,nan,nan,nan,nan,nan,nan,nan,nan,nan,0.0,0.0,0.0,nan,nan,368.702048257,384.926576477,385.261742609,385.426650317,nan,nan
0,12,4710,6,1,484,340,0.614398947124,0.316112737715,-1.0,1,1.0,1.0,0.327012334485,0,nan,nan,nan,nan,nan,nan,nan,nan,nan,0.0,0.0,0.0,nan,nan,368.702048257,385.926719881,386.253732216,386.426773765,nan,nan
0,13,4711,6,0,262,184,0.416452475899,0.2804144186,0.652815538838,0,0.0,1.0,0.430832987186,0,nan,nan,nan,nan,nan,nan,nan,nan,nan,0.0,0.0,0.0,nan,nan,368.702048257,386.926874119,387.357707107,387.426900348,nan,nan
0,14,4712,6,1,62,43,1.0,-0.0974372467467,-1.0,1,1.0,1.0,0.390707179438,0,nan,nan,nan,nan,nan,nan,nan,nan,nan,0.0,0.0,0.0,nan,nan,368.702048257,387.926986448,388.317693627,388.427027787,nan,nan
0,15,4713,6,1,184,129,1.0,-0.107671891867,0.362640045218,1,1.0,1.0,0.350570252631,0,nan,nan,nan,nan,nan,nan,nan,nan,nan,0.0,0.0,0.0,nan,nan,368.702048257,388.927098776,389.277669029,389.427158932,nan,nan
0,16,4718,6,1,250,175,0.546428449327,0.232286661223,0.654747725831,1,1.0,1.0,0.398395412602,1,nan,nan,nan,nan,nan,nan,nan,-82.120721845,245.0,0.600577697281,0.210610106048,0.650172825369,-3.66052815497,2.11727356398,368.702048257,389.927263563,390.325658975,390.427284375,391.76075389,393.886033571
0,17,4719,6,1,45,31,1.0,-0.0063957592436,-1.0,1,1.0,1.0,0.431027994491,0,nan,nan,nan,nan,nan,nan,nan,nan,nan,0.0,0.0,0.0,nan,nan,368.702048257,395.094538723,395.525566718,395.594571794,nan,nan
0,18,4720,6,0,285,200,0.178734351563,0.356878681702,0.598527012995,0,0.0,1.0,0.454848487861,0,nan,nan,nan,nan,nan,nan,nan,nan,nan,0.0,0.0,0.0,nan,nan,368.702048257,396.094702084,396.549550572,396.594731164,nan,nan
0,19,4721,6,1,208,146,0.97651257568,0.025020743352,0.522574479073,1,1.0,1.0,0.294709610753,0,nan,nan,nan,nan,nan,nan,nan,nan,nan,0.0,0.0,0.0,nan,nan,368.702048257,397.094825532,397.389535143,397.594856322,nan,nan
0,20,4722,6,1,378,265,-0.117450136118,0.478670924818,-0.154810124165,1,1.0,1.0,0.358598892111,0,nan,nan,nan,nan,nan,nan,nan,nan,nan,0.0,0.0,0.0,nan,nan,368.702048257,398.094917048,398.45351594,398.5949658,nan,nan
0,21,4723,6,1,161,113,1.0,-0.223158351501,0.167490545043,1,1.0,1.0,0.302457999438,0,nan,nan,nan,nan,nan,nan,nan,nan,nan,0.0,0.0,0.0,nan,nan,368.702048257,399.095044487,399.397502486,399.595116331,nan,nan
0,22,4724,6,1,371,260,-0.14179360683,0.478331938097,-0.0779732583494,1,1.0,1.0,0.270282429177,0,nan,nan,nan,nan,nan,nan,nan,nan,nan,0.0,0.0,0.0,nan,nan,368.702048257,400.095178198,400.365460627,400.595253748,nan,nan
0,23,4725,6,0,447,314,0.312467642152,0.411646472288,-1.0,0,0.0,1.0,0.374147557653,0,nan,nan,nan,nan,nan,nan,nan,nan,nan,0.0,0.0,0.0,nan,nan,368.702048257,401.095320461,401.469468019,401.595373489,nan,nan
0,24,4726,6,1,113,79,1.0,-0.302191989669,-0.314576349441,1,1.0,1.0,0.277963534929,0,nan,nan,nan,nan,nan,nan,nan,nan,nan,0.0,0.0,0.0,nan,nan,368.702048257,402.095480116,402.373443651,402.595465861,nan,nan
0,25,4727,6,1,444,312,0.289241202529,0.417409780569,-1.0,1,1.0,1.0,0.355799802113,0,nan,nan,nan,nan,nan,nan,nan,nan,nan,0.0,0.0,0.0,nan,nan,368.702048257,403.14561856,403.501418362,403.64560459,nan,nan
0,26,4728,6,1,309,217,-0.0258396312562,0.415106541901,0.475305697888,1,1.0,1.0,0.347709866241,0,nan,nan,nan,nan,nan,nan,nan,nan,nan,0.0,0.0,0.0,nan,nan,368.702048257,404.145693541,404.493403407,404.645730033,nan,nan
0,27,4729,6,0,431,303,0.191957257768,0.43918128748,-0.982298765802,0,0.0,1.0,0.411539562512,0,nan,nan,nan,nan,nan,nan,nan,nan,nan,0.0,0.0,0.0,nan,nan,368.702048257,405.145862604,405.557402166,405.645886552,nan,nan
0,28,4730,6,1,250,175,0.546428449327,0.232286661223,0.654747725831,1,1.0,1.0,0.291404471733,0,nan,nan,nan,nan,nan,nan,nan,nan,nan,0.0,0.0,0.0,nan,nan,368.702048257,406.145972081,406.437376553,406.645990612,nan,nan
0,29,4731,6,1,382,268,-0.1011887567,0.478291136399,-0.199732273247,1,1.0,1.0,0.323259877041,0,nan,nan,nan,nan,nan,nan,nan,nan,nan,0.0,0.0,0.0,nan,nan,368.702048257,407.146095528,407.469355405,407.646116341,nan,nan
0,30,4732,6,1,187,131,1.0,-0.0912463489427,0.385383214542,1,1.0,1.0,0.299106104299,0,nan,nan,nan,nan,nan,nan,nan,nan,nan,0.0,0.0,0.0,nan,nan,368.702048257,408.146222112,408.445328216,408.64624606,nan,nan
0,31,4733,6,1,21,14,1.0,0.116713997928,-1.0,1,1.0,1.0,0.354996966664,0,nan,nan,nan,nan,nan,nan,nan,nan,nan,0.0,0.0,0.0,nan,nan,368.702048257,409.146339857,409.501336824,409.646364375,nan,nan
0,32,4734,6,1,456,320,0.383612429175,0.392633185378,-1.0,1,1.0,1.0,0.322808281984,0,nan,nan,nan,nan,nan,nan,nan,nan,nan,0.0,0.0,0.0,nan,nan,368.702048257,410.14649324,410.469301522,410.646533153,nan,nan
0,33,4735,6,1,189,132,1.0,-0.0802194643608,0.400143472992,1,1.0,1.0,0.338699919637,0,nan,nan,nan,nan,nan,nan,nan,nan,nan,0.0,0.0,0.0,nan,nan,368.702048257,411.146589603,411.485289522,411.646644912,nan,nan
0,34,4736,6,1,240,168,0.654373017221,0.188015059697,0.642463954019,1,1.0,1.0,0.306542595848,0,nan,nan,nan,nan,nan,nan,nan,nan,nan,0.0,0.0,0.0,nan,nan,368.702048257,412.146709344,412.45325194,412.646751823,nan,nan
0,35,4737,6,1,42,29,1.0,0.00954878589686,-1.0,1,1.0,1.0,0.322389758192,0,nan,nan,nan,nan,nan,nan,nan,nan,nan,0.0,0.0,0.0,nan,nan,368.702048257,413.146872135,413.469261893,413.646897223,nan,nan
0,36,4742,6,1,487,342,0.639529740128,0.306295026098,-1.0,1,1.0,1.0,0.314236816019,1,nan,nan,nan,nan,nan,nan,nan,111.662790935,481.0,0.589289488337,0.325611856148,-1.0,-4.08466593541,1.54228086257,368.702048257,414.147004705,414.461241521,414.647029509,415.972166755,417.522409544
0,37,4743,6,1,189,132,1.0,-0.0802194643608,0.400143472992,1,1.0,1.0,0.338278830517,0,nan,nan,nan,nan,nan,nan,nan,nan,nan,0.0,0.0,0.0,nan,nan,368.702048257,418.730881055,419.069159885,419.230929236,nan,nan
0,38,4748,6,1,343,241,-0.171388175652,0.463836419185,0.204822810802,1,1.0,1.0,0.274107871577,1,nan,nan,nan,nan,nan,nan,nan,-148.815025341,340.0,-0.166837174664,0.460980112934,0.232376404312,-2.35684965874,2.61741867848,368.702048257,419.731008209,420.00511608,420.231050688,421.556215589,424.181587642
0,39,4749,6,1,101,71,1.0,-0.273572672894,-0.446152610616,1,1.0,1.0,0.382987870835,0,nan,nan,nan,nan,nan,nan,nan,nan,nan,0.0,0.0,0.0,nan,nan,368.702048257,425.390058297,425.773046168,425.890106764,nan,nan
0,40,4750,6,1,377,265,-0.121259861678,0.478700828387,-0.143695900877,1,1.0,1.0,0.31082077371,0,nan,nan,nan,nan,nan,nan,nan,nan,nan,0.0,0.0,0.0,nan,nan,368.702048257,426.390191438,426.701012211,426.890230211,nan,nan
0,41,4751,6,1,296,208,0.0772713571413,0.386205321608,0.550001308524,1,1.0,1.0,0.326706709806,0,nan,nan,nan,nan,nan,nan,nan,nan,nan,0.0,0.0,0.0,nan,nan,368.702048257,427.390318876,427.717025586,427.890355369,nan,nan
0,42,4752,6,1,389,273,-0.0691208065164,0.476626077068,-0.280234315682,1,1.0,1.0,0.398478090763,0,nan,nan,nan,nan,nan,nan,nan,nan,nan,0.0,0.0,0.0,nan,nan,368.702048257,428.390486514,428.788964604,428.890514453,nan,nan
0,43,4753,6,1,188,132,1.0,-0.0857393506835,0.392804289229,1,1.0,1.0,0.28634997271,0,nan,nan,nan,nan,nan,nan,nan,nan,nan,0.0,0.0,0.0,nan,nan,368.702048257,429.390628492,429.676978465,429.890641892,nan,nan
0,44,4754,6,1,507,356,0.805995650865,0.232688349973,-1.0,1,1.0,1.0,0.270209444221,0,nan,nan,nan,nan,nan,nan,nan,nan,nan,0.0,0.0,0.0,nan,nan,368.702048257,430.390725996,430.66093544,430.890759353,nan,nan
0,45,4755,6,1,460,323,0.415848916989,0.383334931935,-1.0,1,1.0,1.0,0.235750240739,0,nan,nan,nan,nan,nan,nan,nan,nan,nan,0.0,0.0,0.0,nan,nan,368.702048257,431.417168534,431.652918775,431.915900989,nan,nan
0,46,4756,6,1,49,34,1.0,-0.027785429985,-1.0,1,1.0,1.0,0.268936482724,0,nan,nan,nan,nan,nan,nan,nan,nan,nan,0.0,0.0,0.0,nan,nan,368.702048257,432.415969127,432.68490561,432.916031279,nan,nan
0,47,4757,6,1,349,245,-0.175656888649,0.468768509344,0.147945183432,1,1.0,1.0,0.32476861449,0,nan,nan,nan,nan,nan,nan,nan,nan,nan,0.0,0.0,0.0,nan,nan,368.702048257,433.416122795,433.74089141,433.916162139,nan,nan
0,48,4758,6,1,254,178,0.503011129055,0.248947817922,0.65613358125,1,1.0,1.0,0.268631428014,0,nan,nan,nan,nan,nan,nan,nan,nan,nan,0.0,0.0,0.0,nan,nan,368.702048257,434.416249379,434.684880807,434.916262778,nan,nan
0,49,4759,6,1,122,85,1.0,-0.311159539646,-0.219144224573,1,1.0,1.0,0.265811525285,0,nan,nan,nan,nan,nan,nan,nan,nan,nan,0.0,0.0,0.0,nan,nan,368.702048257,435.483017578,435.748829104,435.983087997,nan,nan
0,50,4800,6,1,180,126,1.0,-0.129278616986,0.331238955499,1,1.0,1.0,0.281669521239,0,nan,nan,nan,nan,nan,nan,nan,nan,nan,0.0,0.0,0.0,nan,nan,368.702048257,436.483150434,436.764819955,436.983215151,nan,nan
0,51,4801,6,0,95,66,1.0,-0.253175017597,-0.514975443931,0,0.0,1.0,0.393541052006,0,nan,nan,nan,nan,nan,nan,nan,nan,nan,0.0,0.0,0.0,nan,nan,368.702048257,437.483302391,437.876843443,437.983336317,nan,nan
0,52,4802,6,1,460,323,0.415848916989,0.383334931935,-1.0,1,1.0,1.0,0.289368588012,0,nan,nan,nan,nan,nan,nan,nan,nan,nan,0.0,0.0,0.0,nan,nan,368.702048257,438.483429545,438.772798133,438.983469458,nan,nan
0,53,4803,6,1,174,122,1.0,-0.160790688716,0.281981279739,1,1.0,1.0,0.241248067003,0,nan,nan,nan,nan,nan,nan,nan,nan,nan,0.0,0.0,0.0,nan,nan,368.702048257,439.48353332,439.724781387,439.983566676,nan,nan
0,54,4804,6,1,507,356,0.805995650865,0.232688349973,-1.0,1,1.0,1.0,0.249103652779,0,nan,nan,nan,nan,nan,nan,nan,nan,nan,0.0,0.0,0.0,nan,nan,368.702048257,440.483651065,440.732754718,440.98369269,nan,nan
0,55,4805,6,1,452,317,0.351738073422,0.401406211611,-1.0,1,1.0,1.0,0.273024785332,0,nan,nan,nan,nan,nan,nan,nan,nan,nan,0.0,0.0,0.0,nan,nan,368.702048257,441.483778789,441.756803575,441.983849493,nan,nan
0,56,4806,6,1,31,21,1.0,0.0668515730764,-1.0,1,1.0,1.0,0.288819490001,0,nan,nan,nan,nan,nan,nan,nan,nan,nan,0.0,0.0,0.0,nan,nan,368.702048257,442.483919912,442.772739402,442.983941295,nan,nan
0,57,4807,6,0,229,161,0.770397026975,0.135265939772,0.614681466938,0,1.0,0.0,0.248627824243,0,0.0,0.0,nan,nan,nan,nan,nan,nan,nan,0.0,0.0,0.0,nan,nan,368.702048257,443.484088121,443.732715945,443.98410038,nan,nan
0,58,4808,6,1,460,323,0.415848916989,0.383334931935,-1.0,1,1.0,1.0,0.320586799644,0,nan,nan,nan,nan,nan,nan,nan,nan,nan,0.0,0.0,0.0,nan,nan,368.702048257,444.484156544,444.804743343,444.984209287,nan,nan
0,59,4809,6,1,45,31,1.0,-0.0063957592436,-1.0,1,1.0,1.0,0.264376627747,0,nan,nan,nan,nan,nan,nan,nan,nan,nan,0.0,0.0,0.0,nan,nan,368.702048257,445.484297382,445.74867401,445.984328743,nan,nan
0,60,4810,6,1,318,223,-0.0835627602325,0.431640264478,0.413481556053,1,1.0,1.0,0.256220549345,0,nan,nan,nan,nan,nan,nan,nan,nan,nan,0.0,0.0,0.0,nan,nan,368.702048257,446.484422825,446.740643375,446.98445162,nan,nan
0,61,4811,6,1,212,149,0.93926288676,0.0467731277665,0.543851001166,1,1.0,1.0,0.256081991829,0,nan,nan,nan,nan,nan,nan,nan,nan,nan,0.0,0.0,0.0,nan,nan,368.702048257,447.484554255,447.740636247,447.984591888,nan,nan
0,62,4812,6,1,469,329,0.489482198204,0.360453357602,-1.0,1,1.0,1.0,0.255954552907,0,nan,nan,nan,nan,nan,nan,nan,nan,nan,0.0,0.0,0.0,nan,nan,368.702048257,448.484677133,448.740631686,448.984725599,nan,nan
0,63,4813,6,1,37,26,1.0,0.0358565504353,-1.0,1,1.0,1.0,0.295767324045,0,nan,nan,nan,nan,nan,nan,nan,nan,nan,0.0,0.0,0.0,nan,nan,368.702048257,449.484831655,449.780598979,449.984872425,nan,nan
0,64,4814,6,1,105,73,1.0,-0.285049837405,-0.401580786678,1,1.0,1.0,0.31162132835,0,nan,nan,nan,nan,nan,nan,nan,nan,nan,0.0,0.0,0.0,nan,nan,368.702048257,450.484963941,450.796585269,450.984965651,nan,nan
0,65,4815,6,1,178,125,1.0,-0.139919655122,0.315097826042,1,1.0,1.0,0.28487573145,0,nan,nan,nan,nan,nan,nan,nan,nan,nan,0.0,0.0,0.0,nan,nan,368.702048257,451.551733851,451.836609582,452.051800564,nan,nan
0,66,4816,6,0,273,191,0.299732959835,0.319577193062,0.635038033336,0,0.0,1.0,0.372647942975,0,nan,nan,nan,nan,nan,nan,nan,nan,nan,0.0,0.0,0.0,nan,nan,368.702048257,452.551894931,452.924542874,453.051919165,nan,nan
0,67,4817,6,1,1,0,0.854939129564,0.207877072944,-1.0,1,1.0,1.0,0.26851054607,0,nan,nan,nan,nan,nan,nan,nan,nan,nan,0.0,0.0,0.0,nan,nan,368.702048257,453.552024651,453.820535197,454.05202351,nan,nan
0,68,4818,6,1,275,193,0.279002393219,0.326185254474,0.630178474337,1,1.0,1.0,0.292414858472,0,nan,nan,nan,nan,nan,nan,nan,nan,nan,0.0,0.0,0.0,nan,nan,368.702048257,454.552116167,454.844531026,455.05216663,nan,nan
0,69,4819,6,1,142,99,1.0,-0.289568116499,-0.0146273521697,1,1.0,1.0,0.268210337963,0,nan,nan,nan,nan,nan,nan,nan,nan,nan,0.0,0.0,0.0,nan,nan,368.702048257,455.55227069,455.820481028,456.052279813,nan,nan
0,70,4820,6,1,79,55,1.0,-0.184296021705,-0.724170777997,1,1.0,1.0,0.300062607508,0,nan,nan,nan,nan,nan,nan,nan,nan,nan,0.0,0.0,0.0,nan,nan,368.702048257,456.552409533,456.85247214,457.052408963,nan,nan
0,71,4821,6,1,280,196,0.228089347314,0.342018854333,0.61587222022,1,1.0,1.0,0.451960731763,0,nan,nan,nan,nan,nan,nan,nan,nan,nan,0.0,0.0,0.0,nan,nan,368.702048257,457.552491071,458.004451802,458.052537827,nan,nan
0,72,4822,6,0,410,288,0.0492046846968,0.463921527344,-0.54316189137,0,0.0,1.0,0.395760538056,0,nan,nan,nan,nan,nan,nan,nan,nan,nan,0.0,0.0,0.0,nan,nan,368.702048257,458.552685223,458.948445761,459.052688358,nan,nan
0,73,4823,6,1,126,88,1.0,-0.311411754845,-0.177408431044,1,1.0,1.0,0.315650900826,0,nan,nan,nan,nan,nan,nan,nan,nan,nan,0.0,0.0,0.0,nan,nan,368.702048257,459.552781301,459.868432201,460.052784436,nan,nan
0,74,4824,6,1,421,296,0.121471671064,0.452518040197,-0.712610339232,1,1.0,1.0,0.275501715019,0,nan,nan,nan,nan,nan,nan,nan,nan,nan,0.0,0.0,0.0,nan,nan,368.702048257,460.55291102,460.828412735,461.052924134,nan,nan
0,75,4825,6,0,510,358,0.830554458933,0.220436700166,-1.0,0,0.0,1.0,0.411386750173,0,nan,nan,nan,nan,nan,nan,nan,nan,nan,0.0,0.0,0.0,nan,nan,368.702048257,461.553019357,461.964406107,462.053070675,nan,nan
0,76,4826,6,1,45,31,1.0,-0.0063957592436,-1.0,1,1.0,1.0,0.259264823981,0,nan,nan,nan,nan,nan,nan,nan,nan,nan,0.0,0.0,0.0,nan,nan,368.702048257,462.553142805,462.812407629,463.053167608,nan,nan
0,77,4827,6,1,253,177,0.513865899396,0.244839928328,0.655977188727,1,1.0,1.0,0.283063649666,0,nan,nan,nan,nan,nan,nan,nan,nan,nan,0.0,0.0,0.0,nan,nan,368.702048257,463.553281362,463.836345012,464.053299608,nan,nan
0,78,4828,6,1,389,273,-0.0691208065164,0.476626077068,-0.280234315682,1,1.0,1.0,0.282919105608,0,nan,nan,nan,nan,nan,nan,nan,nan,nan,0.0,0.0,0.0,nan,nan,368.702048257,464.553400818,464.836319923,465.053419064,nan,nan
0,79,4829,6,1,302,212,0.027086081288,0.400300843718,0.517770016443,1,1.0,1.0,0.250783734024,0,nan,nan,nan,nan,nan,nan,nan,nan,nan,0.0,0.0,0.0,nan,nan,368.702048257,465.553535099,465.804318833,466.053557337,nan,nan
0,80,4830,6,1,217,152,0.891250405156,0.0735373331823,0.568048345461,1,1.0,1.0,0.217295288108,0,1.0,0.0,0.250332709247,0.318009743502,0.0550487530577,0.37305849656,0.262960990444,nan,nan,0.0,0.0,0.0,nan,nan,368.702048257,466.587024115,466.804319403,467.087057186,nan,nan
0,81,4836,6,1,287,201,0.159501648714,0.36255249221,0.590751920292,1,1.0,1.0,0.233181509189,1,0.0,0.0,0.23375351044,0.316766355164,0.0558268256465,0.37259318081,0.260939529517,-120.579226872,299.0,0.0516645560415,0.393417669654,0.534378752182,8.78235187249,2.3338230364,368.702048257,467.58714072,467.820322229,468.087176357,469.41233413,471.75427048
0,82,4837,6,1,23,16,1.0,0.106943944166,-1.0,1,1.0,1.0,0.28908092482,0,0.0,0.0,0.246519240706,0.315747027774,0.0562386701388,0.371985697913,0.259508357635,nan,nan,0.0,0.0,0.0,nan,nan,368.702048257,472.971119876,473.2602008,473.471166062,nan,nan
0,83,4838,6,1,422,296,0.128328379107,0.451313674078,-0.730894888444,1,1.0,1.0,0.256925025955,0,0.0,0.0,0.259729153321,0.315425749425,0.0559745134948,0.37140026292,0.25945123593,nan,nan,0.0,0.0,0.0,nan,nan,368.702048257,473.971250451,474.228175477,474.471290364,nan,nan
0,84,4839,6,1,509,357,0.822386376617,0.224555004187,-1.0,1,1.0,1.0,0.160810852423,0,1.0,0.0,0.235605601066,0.314729312241,0.0560009272807,0.370730239521,0.25872838496,nan,nan,0.0,0.0,0.0,nan,nan,368.702048257,474.971373898,475.13218475,475.471426641,nan,nan
0,85,4901,6,1,391,274,-0.0591907973189,0.475916278612,-0.303718712187,1,1.0,1.0,0.200621912256,1,0.0,0.0,0.206119263545,0.312918506831,0.0580917023357,0.371010209167,0.254826804495,-170.286748975,370.0,-0.144805996584,0.478178727438,-0.0671803333712,-14.6351260249,18.911033229,368.702048257,475.971530417,476.172152329,476.471578598,477.796722686,496.715782559
0,86,4902,6,1,487,342,0.639529740128,0.306295026098,-1.0,1,1.0,1.0,0.327085034456,0,0.0,0.0,0.229505933045,0.311612732476,0.0589943622613,0.370607094737,0.252618370214,nan,nan,0.0,0.0,0.0,nan,nan,368.702048257,497.93266132,498.259746354,498.432680422,nan,nan
0,87,4903,6,1,335,235,-0.155595990888,0.455627721073,0.276893227044,1,1.0,1.0,0.414569582324,0,0.0,0.0,0.314092176345,0.311790575027,0.0586775164461,0.370468091473,0.253113058581,nan,nan,0.0,0.0,0.0,nan,nan,368.702048257,498.941144405,499.355713988,499.441158946,nan,nan
0,88,4904,6,1,105,73,1.0,-0.285049837405,-0.401580786678,1,1.0,1.0,0.422466221265,0,0.0,1.0,0.388040279349,0.312958518292,0.0593515064284,0.37231002472,0.253607011863,nan,nan,0.0,0.0,0.0,nan,nan,368.702048257,499.941241054,500.363707275,500.441291231,nan,nan
0,89,4905,6,0,28,19,1.0,0.082066132397,-1.0,0,1.0,0.0,0.550283558201,0,0.0,0.0,0.462439787264,0.314188941921,0.0601352512944,0.374324193215,0.254053690626,nan,nan,0.0,0.0,0.0,nan,nan,368.702048257,500.941392726,501.491676284,501.441429218,nan,nan
0,90,4906,6,1,266,187,0.373577590308,0.295207490188,0.648113769863,1,1.0,1.0,0.390173761174,0,0.0,0.0,0.45430784688,0.316812215435,0.0647188311061,0.381531046541,0.252093384329,nan,nan,0.0,0.0,0.0,nan,nan,368.702048257,501.941501633,502.331675394,502.441539266,nan,nan
0,91,4907,6,1,475,333,0.539218753276,0.343659807328,-1.0,1,1.0,1.0,0.325948064215,0,0.0,0.0,0.422135127864,0.317618386267,0.0648150550134,0.382433441281,0.252803331254,nan,nan,0.0,0.0,0.0,nan,nan,368.702048257,502.941714316,503.26766238,503.441668415,nan,nan
0,92,4908,6,1,169,118,1.0,-0.185917379452,0.239118302078,1,1.0,1.0,0.317927977536,0,0.0,0.0,0.344683267642,0.317708926245,0.0644676227127,0.382176548958,0.253241303532,nan,nan,0.0,0.0,0.0,nan,nan,368.702048257,503.941757651,504.259685629,504.441818662,nan,nan
0,93,4909,6,1,230,161,0.760023132926,0.140224214653,0.61781109556,1,1.0,1.0,0.357756143436,0,0.0,0.0,0.333877395062,0.317711281635,0.0641200898067,0.381831371442,0.253591191829,nan,nan,0.0,0.0,0.0,nan,nan,368.702048257,504.941867128,505.299623272,505.441942109,nan,nan
0,94,4910,6,1,333,234,-0.149813480994,0.453275949072,0.294183738108,1,1.0,1.0,0.333565307781,0,0.0,0.0,0.336416476251,0.318137290803,0.0639102946576,0.382047585461,0.254226996146,nan,nan,0.0,0.0,0.0,nan,nan,368.702048257,505.942040753,506.275606061,506.442054152,nan,nan
0,95,4911,6,1,43,30,1.0,0.00424534395127,-1.0,1,1.0,1.0,0.324772321153,0,0.0,0.0,0.338697924123,0.318299690982,0.0635925301752,0.381892221157,0.254707160807,nan,nan,0.0,0.0,0.0,nan,nan,368.702048257,506.9588199,507.283592221,507.458825602,nan,nan
0,96,4912,6,1,187,131,1.0,-0.0912463489427,0.385383214542,1,1.0,1.0,0.332597970963,0,0.0,0.0,0.330311866632,0.318367114213,0.0632638652847,0.381630979498,0.255103248928,nan,nan,0.0,0.0,0.0,nan,nan,368.702048257,507.958957888,508.291555859,508.45895019,nan,nan
0,97,4913,6,1,432,303,0.199227897075,0.437687328843,-1.0,1,1.0,1.0,0.380502672866,0,0.0,0.0,0.345957654994,0.318513824076,0.062953331426,0.381467155502,0.25556049265,nan,nan,0.0,0.0,0.0,nan,nan,368.702048257,508.959051685,509.339554358,509.459121249,nan,nan
0,98,4914,6,1,229,161,0.770397026975,0.135265939772,0.614681466938,1,1.0,1.0,0.380356132519,0,0.0,0.0,0.364485592116,0.31914636335,0.0629403860276,0.382086749377,0.256205977322,nan,nan,0.0,0.0,0.0,nan,nan,368.702048257,509.959205068,510.3395612,510.459209629,nan,nan
0,99,4915,6,1,389,273,-0.0691208065164,0.476626077068,-0.280234315682,1,1.0,1.0,0.316213969141,0,0.0,0.0,0.359024258175,0.319764643846,0.0629201053428,0.382684749189,0.256844538504,nan,nan,0.0,0.0,0.0,nan,nan,368.702048257,510.959298865,511.275512834,511.459342485,nan,nan
0,100,4916,6,1,54,37,1.0,-0.0546292063271,-1.0,1,1.0,1.0,0.436113284435,0,0.0,0.0,0.377561128698,0.319729137099,0.0626057111769,0.382334848276,0.257123425922,nan,nan,0.0,0.0,0.0,nan,nan,368.702048257,511.959427444,512.395540728,512.45945909,nan,nan
0,101,4917,6,0,492,345,0.681403316433,0.289222019555,-1.0,0,0.0,1.0,0.491865303833,0,0.0,0.0,0.41473085247,0.32088145539,0.063351812384,0.384233267774,0.257529643006,nan,nan,0.0,0.0,0.0,nan,nan,368.702048257,512.95960734,513.451472644,513.467953009,nan,nan
0,102,4918,6,1,415,291,0.0813077335083,0.459153678902,-0.614968023274,1,1.0,1.0,0.315755817108,0,0.0,0.0,0.414578135125,0.322557767629,0.0652527153275,0.387810482957,0.257305052302,nan,nan,0.0,0.0,0.0,nan,nan,368.702048257,513.959699997,514.275455814,514.459722805,nan,nan
0,103,4919,6,1,250,175,0.546428449327,0.232286661223,0.654747725831,1,1.0,1.0,0.299610442482,0,0.0,0.0,0.369077187808,0.322491729275,0.0649386070651,0.38743033634,0.25755312221,nan,nan,0.0,0.0,0.0,nan,nan,368.702048257,514.959828577,515.259439019,515.459880179,nan,nan
0,104,4920,6,1,54,37,1.0,-0.0546292063271,-1.0,1,1.0,1.0,0.30746032577,0,0.0,0.0,0.307608861787,0.322271716902,0.0646642107602,0.386935927662,0.257607506142,nan,nan,0.0,0.0,0.0,nan,nan,368.702048257,515.959942331,516.267402656,516.460012179,nan,nan
0,105,4921,6,1,281,197,0.218083397074,0.345068392493,0.612644422055,1,1.0,1.0,0.307333742268,0,0.0,0.0,0.304801503507,0.322130656034,0.0643716252143,0.386502281248,0.25775903082,nan,nan,0.0,0.0,0.0,nan,nan,368.702048257,516.960084309,517.267418052,517.460126218,nan,nan
0,106,4922,6,0,465,326,0.456588679398,0.37096152752,-1.0,0,0.0,1.0,0.419160797726,0,0.0,0.0,0.344651621922,0.321991062508,0.0640832320693,0.386074294577,0.257907830439,nan,nan,0.0,0.0,0.0,nan,nan,368.702048257,517.960229424,518.379390222,518.460255083,nan,nan
0,107,4923,6,1,393,276,-0.0489456633786,0.475102171109,-0.327443230616,1,1.0,1.0,0.27507891506,0,0.0,0.0,0.333857818351,0.322899190874,0.0644647075719,0.387363898446,0.258434483302,nan,nan,0.0,0.0,0.0,nan,nan,368.702048257,518.960338616,519.235417531,519.460356007,nan,nan
0,108,4924,6,1,95,66,1.0,-0.253175017597,-0.514975443931,1,1.0,1.0,0.298889144789,0,0.0,0.0,0.331042952525,0.322456410543,0.0643288244527,0.386785234995,0.25812758609,nan,nan,0.0,0.0,0.0,nan,nan,368.702048257,519.960468336,520.259357481,520.460522505,nan,nan
0,109,4925,6,1,162,113,1.0,-0.218739557155,0.176632971453,1,1.0,1.0,0.306819425896,0,0.0,0.0,0.293595828582,0.322240197095,0.0640724695238,0.386312666619,0.258167727572,nan,nan,0.0,0.0,0.0,nan,nan,368.702048257,520.960569546,521.267388972,521.460627421,nan,nan
0,110,4926,6,1,277,194,0.258470646878,0.33263615818,0.624824240443,1,1.0,1.0,0.482611598447,0,0.0,0.0,0.362773389711,0.322100008266,0.0637973571418,0.385897365408,0.258302651125,nan,nan,0.0,0.0,0.0,nan,nan,368.702048257,521.960700691,522.443312289,522.460759421,nan,nan
0,111,4927,6,1,77,54,1.0,-0.174593022316,-0.756267193339,1,1.0,1.0,0.46645767102,0,0.0,1.0,0.418629565121,0.323546058628,0.06529511442,0.388841173048,0.258250944208,nan,nan,0.0,0.0,0.0,nan,nan,368.702048257,522.960833831,523.427291502,523.460878592,nan,nan
0,112,4931,6,1,161,113,1.0,-0.223158351501,0.167490545043,1,1.0,1.0,0.384247433394,1,0.0,0.0,0.444438900954,0.324822055168,0.0663785506572,0.391200605825,0.25844350451,-19.5677685813,156.0,1.0,-0.244060613314,0.121041471254,-3.63535641871,1.51711584767,368.702048257,524.011021026,524.39526846,524.510998504,525.836169106,527.361364626
0,113,4932,6,0,206,144,0.994723455659,0.014051917983,0.511316161583,0,0.0,1.0,0.441300353967,0,0.0,0.0,0.430668486127,0.32534794347,0.0663181302411,0.391666073712,0.259029813229,nan,nan,0.0,0.0,0.0,nan,nan,368.702048257,528.569907412,529.011207766,529.069943334,nan,nan
0,114,4933,6,1,497,349,0.723174939644,0.271260599794,-1.0,1,1.0,1.0,0.345151968766,0,0.0,0.0,0.390233252042,0.326365069878,0.0669060411016,0.39327111098,0.259459028777,nan,nan,0.0,0.0,0.0,nan,nan,368.702048257,529.570024587,529.915176556,530.070048535,nan,nan
0,115,4934,6,1,105,73,1.0,-0.285049837405,-0.401580786678,1,1.0,1.0,0.297010350507,0,0.0,0.0,0.361154224413,0.326528434216,0.0666373422373,0.393165776454,0.259891091979,nan,nan,0.0,0.0,0.0,nan,nan,368.702048257,530.570148889,530.86715924,531.070203913,nan,nan
0,116,4935,6,0,4,2,0.879126049628,0.195014037372,-1.0,0,1.0,0.0,0.280853286386,0,0.0,0.0,0.307671868553,0.326273967978,0.0664055833925,0.39267955137,0.259868384585,nan,nan,0.0,0.0,0.0,nan,nan,368.702048257,531.570306263,531.85115955,532.070331637,nan,nan
0,117,4936,6,1,230,161,0.760023132926,0.140224214653,0.61781109556,1,1.0,1.0,0.312721806113,0,0.0,0.0,0.296861814335,0.325885757024,0.0662532553738,0.392139012398,0.25963250165,nan,nan,0.0,0.0,0.0,nan,nan,368.702048257,532.570384095,532.883105902,533.070432562,nan,nan
0,118,4937,6,1,125,87,1.0,-0.311567427947,-0.187805059354,1,1.0,1.0,0.312533926684,0,0.0,0.0,0.302036339728,0.325774198118,0.0659829588439,0.391757156962,0.259791239274,nan,nan,0.0,0.0,0.0,nan,nan,368.702048257,533.57055715,533.883091076,534.07055658,nan,nan
0,119,4938,6,1,425,298,0.149162615564,0.447529597292,-0.791715667876,1,1.0,1.0,0.311078787316,0,0.0,0.0,0.312111506704,0.325662935333,0.065716249788,0.391379185121,0.259946685545,nan,nan,0.0,0.0,0.0,nan,nan,368.702048257,534.604017941,534.915096728,535.104039038,nan,nan
0,120,4939,6,1,250,175,0.546428449327,0.232286661223,0.654747725831,1,1.0,1.0,0.262973091565,0,0.0,0.0,0.295528601855,0.325541400766,0.0654552873948,0.390996688161,0.260086113371,nan,nan,0.0,0.0,0.0,nan,nan,368.702048257,535.604138252,535.867111343,536.104143384,nan,nan
0,121,4940,6,1,322,226,-0.105067232891,0.43811622051,0.383559350674,1,1.0,1.0,0.286794154905,0,0.0,0.0,0.286948677928,0.325024307301,0.0654299068151,0.390454214116,0.259594400486,nan,nan,0.0,0.0,0.0,nan,nan,368.702048257,536.604246304,536.891040459,537.104267687,nan,nan
0,122,4941,6,1,481,338,0.589289488337,0.325611856148,-1.0,1,1.0,1.0,0.342642822769,0,0.0,0.0,0.297470023079,0.324710945396,0.06525230742,0.389963252817,0.259458637976,nan,nan,0.0,0.0,0.0,nan,nan,368.702048257,537.604374883,537.947017706,538.104426771,nan,nan
0,123,4942,6,1,368,258,-0.150457169737,0.477793263397,-0.0457341785459,1,1.0,1.0,0.270505375694,0,0.0,0.0,0.299980784456,0.324856733017,0.0650064599707,0.389863192988,0.259850273047,nan,nan,0.0,0.0,0.0,nan,nan,368.702048257,538.604512871,538.875018246,539.104538244,nan,nan
0,124,4943,6,1,12,8,0.942476689623,0.159273951266,-1.0,1,1.0,1.0,0.286340564489,0,0.0,0.0,0.299829587651,0.32441841562,0.064926046451,0.389344462071,0.259492369169,nan,nan,0.0,0.0,0.0,nan,nan,368.702048257,539.604654849,539.890995414,540.10468735,nan,nan
0,125,4944,6,1,359,252,-0.169222339917,0.474741883077,0.0483828026834,1,1.0,1.0,0.214251298923,0,1.0,0.0,0.257032413036,0.324113792811,0.0647547292683,0.388868522079,0.259359063542,nan,nan,0.0,0.0,0.0,nan,nan,368.702048257,540.604740949,540.818992248,541.104785139,nan,nan
0,126,4953,6,1,312,219,-0.0464483572634,0.420925197877,0.455573212045,1,1.0,1.0,0.278090403415,1,0.0,0.0,0.259560755609,0.323241868256,0.0652298041532,0.388471672409,0.258012064103,-126.46923439,308.0,-0.0186828559465,0.413097475488,0.481682330771,-2.90576560995,5.15108759142,368.702048257,541.60489148,541.882981884,542.104941087,543.438409462,548.597434747
0,127,4954,6,1,30,21,1.0,0.071945658744,-1.0,1,1.0,1.0,0.42056091316,0,0.0,0.0,0.304300871833,0.322886344911,0.0650949305851,0.387981275496,0.257791414326,nan,nan,0.0,0.0,0.0,nan,nan,368.702048257,549.814267606,550.23482852,550.314288419,nan,nan
0,128,4955,6,1,98,68,1.0,-0.263822910468,-0.480217789416,1,1.0,1.0,0.340397962369,0,0.0,0.0,0.346349759648,0.323649427475,0.0654079288475,0.389057356323,0.258241498628,nan,nan,0.0,0.0,0.0,nan,nan,368.702048257,550.814390484,551.154788446,551.31442498,nan,nan
0,129,4956,6,1,215,151,0.910639861846,0.0628947364355,0.558695148714,1,1.0,1.0,0.324259429704,0,0.0,0.0,0.361739435078,0.323779261079,0.0651704726311,0.38894973371,0.258608788448,nan,nan,0.0,0.0,0.0,nan,nan,368.702048257,551.81452391,552.138783339,552.314545292,nan,nan
0,130,4957,6,1,324,227,-0.114799643766,0.441158325109,0.368064040095,1,1.0,1.0,0.292138313409,0,0.0,0.0,0.318931901827,0.323782954684,0.0649193466287,0.388702301313,0.258863608055,nan,nan,0.0,0.0,0.0,nan,nan,368.702048257,552.814635953,553.106774266,553.314677292,nan,nan
0,131,4958,6,1,199,139,1.0,-0.0246761787097,0.468786302982,1,1.0,1.0,0.339989131782,0,0.0,0.0,0.318795624965,0.323541392537,0.0647297106556,0.388271103192,0.258811681881,nan,nan,0.0,0.0,0.0,nan,nan,368.702048257,553.814761111,554.154750243,554.31480074,nan,nan
0,132,4959,6,1,264,185,0.394966959701,0.287889713878,0.650717615019,1,1.0,1.0,0.371779534966,0,0.0,0.0,0.334635660052,0.323665996622,0.0644998250829,0.388165821705,0.259166171539,nan,nan,0.0,0.0,0.0,nan,nan,368.702048257,554.814929319,555.186708854,555.31496353,nan,nan
0,133,5000,6,1,72,50,1.0,-0.149607777062,-0.853203742106,1,1.0,1.0,0.315759808291,0,0.0,0.0,0.34250949168,0.324027752549,0.0643911641495,0.388418916699,0.2596365884,nan,nan,0.0,0.0,0.0,nan,nan,368.702048257,555.815014848,556.130774656,556.315082986,nan,nan
0,134,5001,6,1,133,93,1.0,-0.306259573676,-0.105336427414,1,1.0,1.0,0.275525663514,0,0.0,0.0,0.321021668923,0.323966051473,0.0641543950107,0.388120446483,0.259811656462,nan,nan,0.0,0.0,0.0,nan,nan,368.702048257,556.815184481,557.090710144,557.315193034,nan,nan
0,135,5002,6,1,279,196,0.238157575771,0.338930353633,0.618978422254,1,1.0,1.0,0.291390501894,0,0.0,0.0,0.294225324566,0.323607233784,0.0640511640053,0.387658397789,0.259556069779,nan,nan,0.0,0.0,0.0,nan,nan,368.702048257,557.815301086,558.106691588,558.315308499,nan,nan
0,136,5003,6,1,160,112,1.0,-0.227501418013,0.158297521075,1,1.0,1.0,0.267266379204,0,0.0,0.0,0.278060848204,0.32337034605,0.0638745757136,0.387244921763,0.259495770336,nan,nan,0.0,0.0,0.0,nan,nan,368.702048257,558.815398305,559.082664684,559.315457605,nan,nan
0,137,5004,6,1,208,146,0.97651257568,0.025020743352,0.522574479073,1,1.0,1.0,0.275129377842,0,0.0,0.0,0.27792875298,0.322960828043,0.0638199699305,0.386780797974,0.259140858113,nan,nan,0.0,0.0,0.0,nan,nan,368.702048257,559.815526028,560.090655406,560.31557364,nan,nan
0,138,5005,6,1,404,284,0.0124894593597,0.468746268022,-0.463349101315,1,1.0,1.0,0.362945778761,0,0.0,0.0,0.301780511936,0.322614223332,0.0637176005766,0.386331823908,0.258896622755,nan,nan,0.0,0.0,0.0,nan,nan,368.702048257,560.815670858,561.178616637,561.315723886,nan,nan
0,139,5006,6,1,39,27,1.0,0.0253789930673,-1.0,1,1.0,1.0,0.274787545204,0,0.0,0.0,0.304287567269,0.322904378407,0.063579420337,0.386483798744,0.25932495807,nan,nan,0.0,0.0,0.0,nan,nan,368.702048257,561.815814547,562.090602092,562.315827947,nan,nan
0,140,5007,6,1,313,220,-0.0530221528698,0.42279583272,0.448797959603,1,1.0,1.0,0.306662907358,0,0.0,0.0,0.314798743774,0.322560686741,0.0634813992019,0.386042085943,0.259079287539,nan,nan,0.0,0.0,0.0,nan,nan,368.702048257,562.815930582,563.122593489,563.315982185,nan,nan
0,141,5008,6,1,269,189,0.34171296506,0.305888347675,0.643262349404,1,1.0,1.0,0.274576002732,0,0.0,0.0,0.285342151765,0.322447936533,0.0632699537196,0.385717890252,0.259177982813,nan,nan,0.0,0.0,0.0,nan,nan,368.702048257,563.816059446,564.090635449,564.316101356,nan,nan
0,142,5009,6,1,115,80,1.0,-0.305166285737,-0.293172749504,1,1.0,1.0,0.280344386585,0,0.0,0.0,0.287194432225,0.322110810238,0.0631737407738,0.385284551012,0.258937069465,nan,nan,0.0,0.0,0.0,nan,nan,368.702048257,564.866223834,565.146568221,565.366212715,nan,nan
0,143,5010,6,0,298,209,0.0600896634305,0.391050340636,0.53969689008,0,1.0,0.0,0.336217002943,0,0.0,0.0,0.29704579742,0.321818737346,0.0630486043845,0.38486734173,0.258770132961,nan,nan,0.0,0.0,0.0,nan,nan,368.702048257,565.866334737,566.20255174,566.366361821,nan,nan
0,144,5011,6,1,73,51,1.0,-0.1546788618,-0.830916872461,1,1.0,1.0,0.39206880657,0,0.0,0.0,0.336210065366,0.321918725301,0.0628406804956,0.384759405797,0.259078044806,nan,nan,0.0,0.0,0.0,nan,nan,368.702048257,566.866457899,567.258526706,567.366466167,nan,nan
0,145,5012,6,1,347,243,-0.174938837379,0.46723881498,0.167157479366,1,1.0,1.0,0.383931259159,0,0.0,0.0,0.370739022891,0.322402518965,0.0628921385229,0.385294657488,0.259510380442,nan,nan,0.0,0.0,0.0,nan,nan,368.702048257,567.866579351,568.25051061,568.366615558,nan,nan
0,146,5013,6,1,1,0,0.854939129564,0.207877072944,-1.0,1,1.0,1.0,0.335805891547,0,0.0,0.0,0.370601985759,0.322823948693,0.0628814885313,0.385705437224,0.259942460161,nan,nan,0.0,0.0,0.0,nan,nan,368.702048257,568.866685407,569.202491299,569.366731023,nan,nan
0,147,5014,6,1,425,298,0.149162615564,0.447529597292,-0.791715667876,1,1.0,1.0,0.31966450857,0,0.0,0.0,0.346467219759,0.322912261229,0.0626763253137,0.385588586543,0.260235935915,nan,nan,0.0,0.0,0.0,nan,nan,368.702048257,569.866857321,570.18652183,570.366854185,nan,nan
0,148,5015,6,1,371,260,-0.14179360683,0.478331938097,-0.0779732583494,1,1.0,1.0,0.311520689167,0,0.0,0.0,0.322330363095,0.322890316954,0.0624647887077,0.385355105662,0.260425528247,nan,nan,0.0,0.0,0.0,nan,nan,368.702048257,570.86694171,571.178462399,571.366975352,nan,nan
0,149,5016,6,1,471,331,0.506014005179,0.354993781952,-1.0,1,1.0,1.0,0.311393250246,0,0.0,0.0,0.314192815994,0.322814010727,0.0622617432092,0.385075753937,0.260552267518,nan,nan,0.0,0.0,0.0,nan,nan,368.702048257,571.867083119,572.178476369,572.367146695,nan,nan
0,150,5017,6,0,308,216,-0.0186828559465,0.413097475488,0.481682330771,0,0.0,1.0,0.391189279966,0,0.0,0.0,0.33803440646,0.322737872324,0.0620608163907,0.384798688715,0.260677055934,nan,nan,0.0,0.0,0.0,nan,nan,368.702048257,572.867223957,573.258413237,573.367260735,nan,nan
0,151,5018,6,1,461,324,0.423959648591,0.380927367285,-1.0,1,1.0,1.0,0.269729909487,0,0.0,0.0,0.324104146566,0.323191192905,0.0621036467794,0.385294839684,0.261087546125,nan,nan,0.0,0.0,0.0,nan,nan,368.702048257,573.900697007,574.170426917,574.400697292,nan,nan
0,152,5019,6,1,87,61,1.0,-0.220959007447,-0.612675615602,1,1.0,1.0,0.445587940048,0,0.0,0.0,0.368835709834,0.322839473935,0.0620497259163,0.384889199851,0.260789748019,nan,nan,0.0,0.0,0.0,nan,nan,368.702048257,574.900795651,575.346383591,575.400824731,nan,nan
0,153,5020,6,1,180,126,1.0,-0.129278616986,0.331238955499,1,1.0,1.0,0.269445382059,0,0.0,0.0,0.328254410531,0.323641751491,0.0626325688163,0.386274320307,0.261009182675,nan,nan,0.0,0.0,0.0,nan,nan,368.702048257,575.900921094,576.170366476,576.400947038,nan,nan
0,154,5021,6,1,135,94,1.0,-0.303502321856,-0.0849788702499,1,1.0,1.0,0.285277719609,0,0.0,0.0,0.333437013905,0.323289827014,0.0625804672101,0.385870294224,0.260709359804,nan,nan,0.0,0.0,0.0,nan,nan,368.702048257,576.901053665,577.186331384,577.401082459,nan,nan
0,155,5022,6,1,275,193,0.279002393219,0.326185254474,0.630178474337,1,1.0,1.0,0.3252338944,0,0.0,0.0,0.293318998689,0.323044587612,0.0624524639449,0.385497051557,0.260592123667,nan,nan,0.0,0.0,0.0,nan,nan,368.702048257,577.901178822,578.226412717,578.401224438,nan,nan
0,156,5023,6,1,491,345,0.673033477965,0.292707709811,-1.0,1,1.0,1.0,0.36501815496,0,0.0,0.0,0.325176589657,0.32305862163,0.0622522191717,0.385310840801,0.260806402458,nan,nan,0.0,0.0,0.0,nan,nan,368.702048257,578.901295998,579.266314153,579.401359004,nan,nan
0,157,5024,6,1,9,6,0.918933560847,0.172916688009,-1.0,1,1.0,1.0,0.282856953796,0,0.0,0.0,0.324369667719,0.323325879804,0.0621433641394,0.385469243943,0.261182515664,nan,nan,0.0,0.0,0.0,nan,nan,368.702048257,579.951479487,580.23433644,580.451468938,nan,nan
0,158,5025,6,0,175,123,1.0,-0.155629953633,0.290361762956,0,0.0,1.0,0.386693287175,0,0.0,0.0,0.344856131977,0.323069747361,0.0620294748486,0.385099222209,0.261040272512,nan,nan,0.0,0.0,0.0,nan,nan,368.702048257,580.951574424,581.338267711,581.451625742,nan,nan
0,159,5026,6,1,386,271,-0.0833946583454,0.477495592553,-0.245424736514,1,1.0,1.0,0.266550783534,0,0.0,0.0,0.312033674835,0.32346989541,0.0620383379379,0.385508233348,0.261431557472,nan,nan,0.0,0.0,0.0,nan,nan,368.702048257,581.951714693,582.218265476,582.45172125,nan,nan
0,160,5027,6,1,442,310,0.273907262724,0.421095538958,-1.0,1,1.0,1.0,0.290409765672,0,0.0,0.0,0.314551278794,0.32311415096,0.0620066347821,0.385120785743,0.261107516178,nan,nan,0.0,0.0,0.0,nan,nan,368.702048257,582.951824455,583.242234221,583.451858382,nan,nan
0,161,5028,6,1,118,82,1.0,-0.308588151016,-0.261285249573,1,1.0,1.0,0.322263745125,0,0.0,0.0,0.293074764777,0.322911018133,0.0618671475149,0.384778165648,0.261043870618,nan,nan,0.0,0.0,0.0,nan,nan,368.702048257,583.951952179,584.274215924,584.452033717,nan,nan
0,162,5029,6,1,26,18,1.0,0.0920921692153,-1.0,1,1.0,1.0,0.250096933451,0,0.0,0.0,0.287590148083,0.32290702262,0.0616759247795,0.3845829474,0.261231097841,nan,nan,0.0,0.0,0.0,nan,nan,368.702048257,584.952088456,585.202185389,585.452134071,nan,nan
0,163,5030,6,1,268,188,0.35230222188,0.302367520405,0.645005310408,1,1.0,1.0,0.289969574194,0,0.0,0.0,0.28744341759,0.322460334957,0.0617487376834,0.38420907264,0.260711597273,nan,nan,0.0,0.0,0.0,nan,nan,368.702048257,585.952214754,586.242184328,586.452232715,nan,nan
0,164,5031,6,1,421,296,0.121471671064,0.452518040197,-0.712610339232,1,1.0,1.0,0.281821193639,0,0.0,0.0,0.273962567095,0.322262220562,0.0616121320282,0.38387435259,0.260650088533,nan,nan,0.0,0.0,0.0,nan,nan,368.702048257,586.95233535,587.234156544,587.452358728,nan,nan
0,165,5032,6,1,152,106,1.0,-0.259184487343,0.0830625546756,1,1.0,1.0,0.232045964804,0,0.0,0.0,0.267945577546,0.322017123429,0.0615052869874,0.383522410416,0.260511836441,nan,nan,0.0,0.0,0.0,nan,nan,368.702048257,587.994161197,588.226207161,588.494193128,nan,nan
0,166,5033,6,1,37,26,1.0,0.0358565504353,-1.0,1,1.0,1.0,0.279857439455,0,0.0,0.0,0.264574865966,0.321475128497,0.0617137093737,0.383188837871,0.259761419124,nan,nan,0.0,0.0,0.0,nan,nan,368.702048257,588.994263832,589.274121271,589.494315435,nan,nan
0,167,5034,6,1,460,323,0.415848916989,0.383334931935,-1.0,1,1.0,1.0,0.239713385701,0,1.0,0.0,0.250538929986,0.321225920779,0.0616123801661,0.382838300945,0.259613540612,nan,nan,0.0,0.0,0.0,nan,nan,368.702048257,589.994387849,590.234101235,590.494420066,nan,nan
0,168,5049,6,1,192,135,1.0,-0.0635997558896,0.421658406928,1,1.0,1.0,0.255597325508,1,0.0,0.0,0.258389383554,0.320740727117,0.0617479035742,0.382488630692,0.258992823543,-56.1717040823,208.0,0.97651257568,0.025020743352,0.522574479073,11.1717040823,12.0851533026,368.702048257,590.994505595,591.25010292,591.494572878,592.828072899,604.921255126
0,169,5050,6,1,4,2,0.879126049628,0.195014037372,-1.0,1,1.0,1.0,0.480065105017,0,0.0,0.0,0.325125272075,0.320355263203,0.0617673414999,0.382122604702,0.258587921703,nan,nan,0.0,0.0,0.0,nan,nan,368.702048257,606.129762844,606.609827949,606.629826421,nan,nan
0,170,5051,6,1,172,120,1.0,-0.170984061773,0.265024678188,1,1.0,1.0,0.287934545893,0,0.0,0.0,0.341198992139,0.32129473286,0.0627847277917,0.384079460652,0.258510005068,nan,nan,0.0,0.0,0.0,nan,nan,368.702048257,607.129907959,607.417842505,607.629930482,nan,nan
0,171,5052,6,1,280,196,0.228089347314,0.342018854333,0.61587222022,1,1.0,1.0,0.303755764384,0,0.0,0.0,0.357251805098,0.321099644048,0.0626525339297,0.383752177977,0.258447110118,nan,nan,0.0,0.0,0.0,nan,nan,368.702048257,608.130036823,608.433792588,608.630062482,nan,nan
0,172,5053,6,1,217,152,0.891250405156,0.0735373331823,0.568048345461,1,1.0,1.0,0.255607303698,0,0.0,0.0,0.282432537992,0.320998807538,0.0624840539007,0.383482861439,0.258514753637,nan,nan,0.0,0.0,0.0,nan,nan,368.702048257,609.130172815,609.385780119,609.630200754,nan,nan
0,173,5054,6,0,327,229,-0.128086156831,0.445480682368,0.344176439252,0,1.0,0.0,0.223433729727,0,0.0,0.0,0.260932265936,0.320620821967,0.0625001056337,0.3831209276,0.258120716333,nan,nan,0.0,0.0,0.0,nan,nan,368.702048257,610.130339882,610.353773612,610.630349006,nan,nan
0,174,5055,6,1,182,127,1.0,-0.118523835432,0.347089474713,1,1.0,1.0,0.223359889351,0,0.0,0.0,0.234133640925,0.320062275459,0.062751772504,0.382814047963,0.257310502955,nan,nan,0.0,0.0,0.0,nan,nan,368.702048257,611.130425982,611.353785871,611.630474734,nan,nan
0,175,5056,6,1,48,33,1.0,-0.0224273256894,-1.0,1,1.0,1.0,0.271206431091,0,0.0,0.0,0.239333350056,0.319509690396,0.0629953511619,0.382505041558,0.256514339234,nan,nan,0.0,0.0,0.0,nan,nan,368.702048257,612.130532323,612.401738754,612.630574233,nan,nan
0,176,5057,6,1,334,234,-0.152796554809,0.454467054946,0.285576400052,1,1.0,1.0,0.327004066668,0,0.0,0.0,0.273856795703,0.319235240059,0.0629209661598,0.382156206219,0.256314273899,nan,nan,0.0,0.0,0.0,nan,nan,368.702048257,613.130703097,613.457707163,613.630739875,nan,nan
0,177,5058,6,1,417,293,0.0945046041228,0.457053563907,-0.645720198395,1,1.0,1.0,0.278924314771,0,0.0,0.0,0.292378270843,0.319279131735,0.0627456734771,0.382024805212,0.256533458258,nan,nan,0.0,0.0,0.0,nan,nan,368.702048257,614.130801456,614.40972577,614.630828825,nan,nan
0,178,5059,6,1,163,114,1.0,-0.214247802105,0.185723682048,1,1.0,1.0,0.310717853718,0,0.0,0.0,0.305548745052,0.31905241928,0.0626418310226,0.381694250303,0.256410588257,nan,nan,0.0,0.0,0.0,nan,nan,368.702048257,615.130939728,615.441657582,615.630955694,nan,nan
0,179,5100,6,1,476,334,0.547545041103,0.340739382997,-1.0,1,1.0,1.0,0.262623846531,0,0.0,0.0,0.284088671673,0.319005857461,0.0624696975846,0.381475555046,0.256536159877,nan,nan,0.0,0.0,0.0,nan,nan,368.702048257,616.131086838,616.393710685,616.631089405,nan,nan
0,180,5101,6,1,400,281,-0.0107874812989,0.471427301814,-0.412692688905,1,1.0,1.0,0.286440918688,0,0.0,0.0,0.286594206312,0.318692624067,0.0624367310095,0.381129355077,0.256255893058,nan,nan,0.0,0.0,0.0,nan,nan,368.702048257,617.131183487,617.417624406,617.631243642,nan,nan
0,181,5102,6,0,149,104,1.0,-0.269478519393,0.0541436597792,0,0.0,1.0,0.398289355915,0,0.0,0.0,0.315784707045,0.318514437849,0.0623098918186,0.380824329668,0.256204546031,nan,nan,0.0,0.0,0.0,nan,nan,368.702048257,618.131333733,618.529623089,618.631362528,nan,nan
0,182,5103,6,1,496,348,0.714833717156,0.274923884212,-1.0,1,1.0,1.0,0.294126871042,0,0.0,0.0,0.326285715215,0.318952761575,0.0624176672761,0.381370428851,0.256535094299,nan,nan,0.0,0.0,0.0,nan,nan,368.702048257,619.131451764,619.425578635,619.631507643,nan,nan
0,183,5104,6,1,353,248,-0.175041255135,0.471490071959,0.108799216003,1,1.0,1.0,0.333987252321,0,0.0,0.0,0.342134493093,0.318817100971,0.0622737926614,0.381090893633,0.25654330831,nan,nan,0.0,0.0,0.0,nan,nan,368.702048257,620.131609423,620.465596675,620.631604006,nan,nan
0,184,5105,6,1,198,139,1.0,-0.0302354974571,0.462326941081,1,1.0,1.0,0.349893430714,0,0.0,0.0,0.326002518026,0.318899547446,0.062114353867,0.381013901313,0.256785193579,nan,nan,0.0,0.0,0.0,nan,nan,368.702048257,621.131679272,621.481572703,621.631755108,nan,nan
0,185,5106,6,1,458,322,0.399688045963,0.388050214986,-1.0,1,1.0,1.0,0.39633757621,0,0.0,0.0,0.360072753082,0.31906708195,0.0619879208904,0.38105500284,0.25707916106,nan,nan,0.0,0.0,0.0,nan,nan,368.702048257,622.165199934,622.56153751,622.665202214,nan,nan
0,186,5107,6,1,164,115,1.0,-0.209685835145,0.194761549991,1,1.0,1.0,0.332286358811,0,0.0,0.0,0.359505788578,0.319482514715,0.0620787550801,0.381561269795,0.257403759635,nan,nan,0.0,0.0,0.0,nan,nan,368.702048257,623.165285463,623.497571822,623.665314543,nan,nan
0,187,5108,6,1,68,47,1.0,-0.129018143495,-0.972903198114,1,1.0,1.0,0.348116985988,0,0.0,0.0,0.358913640336,0.319550984469,0.0619195882958,0.381470572765,0.257631396174,nan,nan,0.0,0.0,0.0,nan,nan,368.702048257,624.165404349,624.513521335,624.665443407,nan,nan
0,188,5109,6,1,259,182,0.44882283482,0.268906983076,0.655011783756,1,1.0,1.0,0.347943646368,0,0.0,0.0,0.342782330389,0.319702931286,0.0617896353322,0.381492566618,0.257913295954,nan,nan,0.0,0.0,0.0,nan,nan,368.702048257,625.16555488,625.513498527,625.665573697,nan,nan
0,189,5110,6,1,444,312,0.289241202529,0.417409780569,-1.0,1,1.0,1.0,0.277680717874,0,0.0,0.0,0.324580450077,0.319852353059,0.0616600003559,0.381512353415,0.258192352703,nan,nan,0.0,0.0,0.0,nan,nan,368.702048257,626.179790385,626.457471102,626.682376507,nan,nan
0,190,5111,6,1,355,249,-0.173737462994,0.472683863687,0.0888799762457,1,1.0,1.0,0.362974003889,0,0.0,0.0,0.329532789377,0.319630397084,0.0615731786816,0.381203575766,0.258057218403,nan,nan,0.0,0.0,0.0,nan,nan,368.702048257,627.182483704,627.545457708,627.682511644,nan,nan
0,191,5112,6,1,437,307,0.23613482661,0.429770237144,-1.0,1,1.0,1.0,0.298813879024,0,0.0,0.0,0.313156200262,0.319857326963,0.0614913919636,0.381348718926,0.258365934999,nan,nan,0.0,0.0,0.0,nan,nan,368.702048257,628.182616559,628.481430438,628.682633095,nan,nan
0,192,5113,6,1,112,78,1.0,-0.300501516081,-0.325324861792,1,1.0,1.0,0.250692502595,0,0.0,0.0,0.304160128503,0.319747725671,0.0613497510804,0.381097476752,0.258397974591,nan,nan,0.0,0.0,0.0,nan,nan,368.702048257,629.182706365,629.433398868,629.682751696,nan,nan
0,193,5114,6,1,347,243,-0.174938837379,0.46723881498,0.167157479366,1,1.0,1.0,0.290542336181,0,0.0,0.0,0.280016239267,0.319389926588,0.0613911257449,0.380781052333,0.257998800843,nan,nan,0.0,0.0,0.0,nan,nan,368.702048257,630.182850054,630.473392391,630.682872292,nan,nan
0,194,5115,6,1,14,9,0.95801504718,0.150023555696,-1.0,1,1.0,1.0,0.282397091389,0,0.0,0.0,0.274543976722,0.319241227669,0.0612675333907,0.380508761059,0.257973694278,nan,nan,0.0,0.0,0.0,nan,nan,368.702048257,631.18298291,631.465380001,631.683033943,nan,nan
0,195,5116,6,1,369,259,-0.147694689129,0.477999187239,-0.0564338676883,1,1.0,1.0,0.394264915492,0,0.0,0.0,0.322401447687,0.31905228338,0.0611668753393,0.380219158719,0.257885408041,nan,nan,0.0,0.0,0.0,nan,nan,368.702048257,632.183102366,632.577367282,632.683122893,nan,nan
0,196,5117,6,1,155,108,1.0,-0.2479831371,0.111611878621,1,1.0,1.0,0.298127077986,0,0.0,0.0,0.324929694956,0.319436021299,0.0612455109829,0.380681532282,0.258190510316,nan,nan,0.0,0.0,0.0,nan,nan,368.702048257,633.183232941,633.481360019,633.683268293,nan,nan
0,197,5118,6,1,265,186,0.384259149088,0.291568309415,0.649478858709,1,1.0,1.0,0.457941513974,0,0.0,1.0,0.383444502484,0.319327854074,0.0611086341813,0.380436488255,0.258219219893,nan,nan,0.0,0.0,0.0,nan,nan,368.702048257,634.183386608,634.641328122,634.683402574,nan,nan
0,198,5124,6,0,393,276,-0.0489456633786,0.475102171109,-0.327443230616,0,0.0,1.0,0.393834987655,1,0.0,0.0,0.383301193205,0.320027923063,0.0617410258629,0.381768948926,0.2582868972,167.714083919,401.0,-0.00506340639596,0.470796889516,-0.425203102762,5.957791081,2.95898981858,368.702048257,635.183490954,635.577325942,635.683540847,637.00036407,639.967386805
0,199,5125,6,1,436,306,0.228681708805,0.431413732101,-1.0,1,1.0,1.0,0.312977253925,0,0.0,0.0,0.388251251852,0.320398812835,0.0618064353576,0.382205248193,0.258592377478,nan,nan,0.0,0.0,0.0,nan,nan,368.702048257,641.184231353,641.497208607,641.684307475,nan,nan
0,200,5126,6,1,117,82,1.0,-0.307587969795,-0.271886539361,1,1.0,1.0,0.304828872904,0,0.0,0.0,0.337213704828,0.320361705041,0.0616539479275,0.382015652968,0.258707757113,nan,nan,0.0,0.0,0.0,nan,nan,368.702048257,642.184362214,642.489191086,642.684402127,nan,nan
0,201,5127,6,1,161,113,1.0,-0.223158351501,0.167490545043,1,1.0,1.0,0.216690595727,0,0.0,0.0,0.278165574186,0.320284427269,0.0615100981695,0.381794525438,0.258774329099,nan,nan,0.0,0.0,0.0,nan,nan,368.702048257,643.184503337,643.401193933,643.684560357,nan,nan
0,202,5128,6,0,319,224,-0.0891891826932,0.433308674125,0.406137099325,0,1.0,0.0,0.240471745376,0,0.0,0.0,0.253997071336,0.319771586519,0.061786941583,0.381558528102,0.257984644936,nan,nan,0.0,0.0,0.0,nan,nan,368.702048257,644.184683804,644.425155549,644.684699484,nan,nan
0,203,5129,6,1,27,18,1.0,0.0870912575778,-1.0,1,1.0,1.0,0.280326711014,0,0.0,0.0,0.245829684039,0.319380946907,0.0618841269621,0.381265073869,0.257496819945,nan,nan,0.0,0.0,0.0,nan,nan,368.702048257,645.184790145,645.465116856,645.684798128,nan,nan
0,204,5130,6,1,417,293,0.0945046041228,0.457053563907,-0.645720198395,1,1.0,1.0,0.264227236621,0,0.0,0.0,0.261675231004,0.319189504574,0.0617924945546,0.380981999129,0.25739701002,nan,nan,0.0,0.0,0.0,nan,nan,368.702048257,646.184923001,646.449150238,646.684914163,nan,nan
0,205,5131,6,1,13,9,0.950262168777,0.154664060346,-1.0,1,1.0,1.0,0.27206400549,0,0.0,0.0,0.272205984375,0.31892139595,0.0617604278242,0.380681823774,0.257160968126,nan,nan,0.0,0.0,0.0,nan,nan,368.702048257,647.185038751,647.457102756,647.685042172,nan,nan
0,206,5132,6,1,168,118,1.0,-0.190790017254,0.230361799274,1,1.0,1.0,0.271991590504,0,0.0,0.0,0.269427610872,0.31869393289,0.0616963594284,0.380390292318,0.256997573461,nan,nan,0.0,0.0,0.0,nan,nan,368.702048257,648.185131122,648.457122713,648.68516904,nan,nan
0,207,5133,6,1,319,224,-0.0891891826932,0.433308674125,0.406137099325,1,1.0,1.0,0.343768103514,0,0.0,0.0,0.295941233169,0.318468317709,0.0616322806587,0.380100598368,0.25683603705,nan,nan,0.0,0.0,0.0,nan,nan,368.702048257,649.185269395,649.529037498,649.685331546,nan,nan
0,208,5134,6,1,27,18,1.0,0.0870912575778,-1.0,1,1.0,1.0,0.351650488097,0,0.0,0.0,0.322470060705,0.318589951295,0.0615088475433,0.380098798838,0.257081103751,nan,nan,0.0,0.0,0.0,nan,nan,368.702048257,650.185386855,650.537037343,650.685456704,nan,nan
0,209,5135,6,1,331,232,-0.143297839787,0.450801753776,0.311166711333,1,1.0,1.0,0.311478779651,0,0.0,0.0,0.335632457087,0.318748135681,0.0614039157325,0.380152051414,0.257344219949,nan,nan,0.0,0.0,0.0,nan,nan,368.702048257,651.185527408,651.497006188,651.685551072,nan,nan
0,210,5136,6,0,166,116,1.0,-0.20036215083,0.21267421211,0,0.0,1.0,0.399326827377,0,0.0,0.0,0.354152031709,0.3187135197,0.0612595855731,0.379973105273,0.257453934127,nan,nan,0.0,0.0,0.0,nan,nan,368.702048257,652.185682216,652.585009044,652.685711011,nan,nan
0,211,5137,6,1,305,214,0.00361192545304,0.406859252708,0.500196907155,1,1.0,1.0,0.239217314869,0,0.0,0.0,0.316674307299,0.319095573291,0.0613645172778,0.380460090569,0.257731056013,nan,nan,0.0,0.0,0.0,nan,nan,368.702048257,653.185776299,653.424993614,653.685818208,nan,nan
0,212,5138,6,1,257,180,0.470472903111,0.261039853404,0.655841377839,1,1.0,1.0,0.255109808408,0,0.0,0.0,0.297884650218,0.318718789053,0.0614637828332,0.380182571886,0.25725500622,nan,nan,0.0,0.0,0.0,nan,nan,368.702048257,654.185895754,654.441005563,654.685933387,nan,nan
0,213,5139,6,0,212,149,0.93926288676,0.0467731277665,0.543851001166,0,1.0,0.0,0.262936313637,0,0.0,0.0,0.252421145638,0.318420155341,0.0614733037163,0.379893459057,0.256946851625,nan,nan,0.0,0.0,0.0,nan,nan,368.702048257,655.186037163,655.448973477,655.686091332,nan,nan
0,214,5140,6,1,389,273,-0.0691208065164,0.476626077068,-0.280234315682,1,1.0,1.0,0.270802447572,0,0.0,0.0,0.262949523206,0.318160885053,0.0614461262874,0.37960701134,0.256714758765,nan,nan,0.0,0.0,0.0,nan,nan,368.702048257,656.186146641,656.456949088,656.68620138,nan,nan
0,215,5141,6,1,445,312,0.296953900578,0.415520102116,-1.0,1,1.0,1.0,0.286666715983,0,0.0,0.0,0.273468492397,0.317940613251,0.0613876908773,0.379328304128,0.256552922373,nan,nan,0.0,0.0,0.0,nan,nan,368.702048257,657.186311142,657.472977858,657.686350486,nan,nan
0,216,5142,6,1,240,168,0.654373017221,0.188015059697,0.642463954019,1,1.0,1.0,0.254503119737,0,0.0,0.0,0.270657427764,0.317795826689,0.0612822090569,0.379078035746,0.256513617632,nan,nan,0.0,0.0,0.0,nan,nan,368.702048257,658.186410071,658.440913191,658.686477354,nan,nan
0,217,5143,6,1,42,29,1.0,0.00954878589686,-1.0,1,1.0,1.0,0.262348156888,0,0.0,0.0,0.267839330869,0.317504155229,0.06129093128,0.378795086509,0.256213223949,nan,nan,0.0,0.0,0.0,nan,nan,368.702048257,659.186545493,659.44889365,659.686590253,nan,nan
0,218,5144,6,1,94,66,1.0,-0.249439013202,-0.526745155233,1,1.0,1.0,0.302149808966,0,0.0,0.0,0.273000361864,0.317251146062,0.0612636695469,0.378514815609,0.255987476515,nan,nan,0.0,0.0,0.0,nan,nan,368.702048257,660.18669745,660.488847259,660.68672596,nan,nan
0,219,5145,6,1,396,278,-0.0330153705648,0.473684876347,-0.363523780775,1,1.0,1.0,0.310051009525,0,0.0,0.0,0.291516325126,0.317182190185,0.0611321168287,0.378314307013,0.256050073356,nan,nan,0.0,0.0,0.0,nan,nan,368.702048257,661.186809208,661.496860218,661.686857104,nan,nan
0,220,5146,6,1,180,126,1.0,-0.129278616986,0.331238955499,1,1.0,1.0,0.325858543627,0,0.0,0.0,0.312686454039,0.317149775727,0.0609949082311,0.378144683958,0.256154867496,nan,nan,0.0,0.0,0.0,nan,nan,368.702048257,662.186953182,662.512811726,662.68698996,nan,nan
0,221,5147,6,1,441,310,0.266287261384,0.422891888867,-1.0,1,1.0,1.0,0.405726417899,0,0.0,0.0,0.34721199035,0.317189181917,0.0608595609849,0.378048742902,0.256329620932,nan,nan,0.0,0.0,0.0,nan,nan,368.702048257,663.187094021,663.592820439,663.68707777,nan,nan
0,222,5148,6,1,141,99,1.0,-0.291952736687,-0.024586852943,1,1.0,1.0,0.405568473507,0,0.0,1.0,0.379051145011,0.317587998295,0.0610110894565,0.378599087752,0.256576908839,nan,nan,0.0,0.0,0.0,nan,nan,368.702048257,664.187217753,664.592786227,664.687238565,nan,nan
0,223,5154,6,1,216,151,0.900975005756,0.0682271079607,0.563426584804,1,1.0,1.0,0.349436704069,1,0.0,0.0,0.386910531825,0.317982529574,0.0611573075361,0.37913983711,0.256825222038,-62.5344999059,217.0,0.891250405156,0.0735373331823,0.568048345461,0.659499905921,3.16743338993,368.702048257,665.187327801,665.536764505,665.687371136,667.020836374,670.196282438
0,224,5155,6,1,173,121,1.0,-0.165909522591,0.273535192888,1,1.0,1.0,0.299543444533,0,0.0,0.0,0.35151620737,0.318122949996,0.0610566618935,0.379179611889,0.257066288102,nan,nan,0.0,0.0,0.0,nan,nan,368.702048257,671.41310532,671.712648764,671.913156067,nan,nan
0,225,5156,6,1,90,63,1.0,-0.233635786423,-0.574971871003,1,1.0,1.0,0.267392962705,0,0.0,0.0,0.305457703769,0.318040374416,0.0609333639389,0.378973738355,0.257107010477,nan,nan,0.0,0.0,0.0,nan,nan,368.702048257,672.41326469,672.680657652,672.913289208,nan,nan
0,226,5157,6,1,172,120,1.0,-0.170984061773,0.265024678188,1,1.0,1.0,0.291300125886,0,0.0,0.0,0.286078844375,0.317816270824,0.060891265676,0.3787075365,0.256925005148,nan,nan,0.0,0.0,0.0,nan,nan,368.702048257,673.413346798,673.704646924,673.913391558,nan,nan
0,227,5158,6,1,383,269,-0.0968787136249,0.478131214543,-0.211081409456,1,1.0,1.0,0.251138680615,0,0.0,0.0,0.269943923069,0.317699459613,0.0607823682486,0.378481827862,0.256917091365,nan,nan,0.0,0.0,0.0,nan,nan,368.702048257,674.413473666,674.664612347,674.913524413,nan,nan
0,228,5159,6,1,230,161,0.760023132926,0.140224214653,0.61781109556,1,1.0,1.0,0.219064605422,0,1.0,0.0,0.253834470641,0.317407526372,0.0608082102824,0.378215736654,0.25659931609,nan,nan,0.0,0.0,0.0,nan,nan,368.702048257,675.4136031,675.632667706,675.913675515,nan,nan
0,229,5205,6,1,486,341,0.631151757674,0.309603058574,-1.0,1,1.0,1.0,0.298837542068,1,0.0,0.0,0.256346942702,0.316978081302,0.0610208161571,0.377998897459,0.255957265145,115.322142479,476.0,0.547545041103,0.340739382997,-1.0,-7.0408924788,2.51725640101,368.702048257,676.413743939,676.712581481,676.91377644,678.247295277,680.77260113
0,230,5206,6,1,307,215,-0.0113868739462,0.411053355611,0.487957006857,1,1.0,1.0,0.345585317351,0,0.0,0.0,0.287829154947,0.316899209393,0.0608997147637,0.377798924156,0.255999494629,nan,nan,0.0,0.0,0.0,nan,nan,368.702048257,682.022889079,682.368474396,682.522852016,nan,nan
0,231,5207,6,1,389,273,-0.0691208065164,0.476626077068,-0.280234315682,1,1.0,1.0,0.281528683379,0,0.0,0.0,0.308650514266,0.317023391678,0.0607969311673,0.377820322845,0.256226460511,nan,nan,0.0,0.0,0.0,nan,nan,368.702048257,683.022923861,683.304452544,683.5229786,nan,nan
0,232,5208,6,1,23,16,1.0,0.106943944166,-1.0,1,1.0,1.0,0.265405545942,0,0.0,0.0,0.297506515558,0.316870397246,0.0607103099989,0.377580707245,0.256160087247,nan,nan,0.0,0.0,0.0,nan,nan,368.702048257,684.023047878,684.288453424,684.52308266,nan,nan
0,233,5209,6,1,416,292,0.087881616042,0.458117504295,-0.630165317015,1,1.0,1.0,0.289231455885,0,0.0,0.0,0.278721895069,0.316649518056,0.0606732381956,0.377322756251,0.25597627986,nan,nan,0.0,0.0,0.0,nan,nan,368.702048257,685.023179593,685.312411049,685.523231766,nan,nan
0,234,5210,6,1,63,44,1.0,-0.102744642793,-1.0,1,1.0,1.0,0.281141520012,0,0.0,0.0,0.278592840613,0.31653234685,0.0605698679935,0.377102214843,0.255962478856,nan,nan,0.0,0.0,0.0,nan,nan,368.702048257,686.023318721,686.304460241,686.523326134,nan,nan
0,235,5211,6,1,436,306,0.228681708805,0.431413732101,-1.0,1,1.0,1.0,0.272945242934,0,0.0,0.0,0.281106072944,0.316381747587,0.0604847462902,0.376866493877,0.255897001297,nan,nan,0.0,0.0,0.0,nan,nan,368.702048257,687.023443024,687.296388267,687.523499473,nan,nan
0,236,5212,6,0,251,176,0.535576518695,0.236509187076,0.655284151108,0,0.0,1.0,0.416781370994,0,0.0,0.0,0.323622711313,0.316197694601,0.0604223763397,0.376620070941,0.255775318261,nan,nan,0.0,0.0,0.0,nan,nan,368.702048257,688.023583862,688.440365233,688.523609236,nan,nan
0,237,5213,6,1,140,98,1.0,-0.294209249228,-0.0345777392028,1,1.0,1.0,0.304670073092,0,0.0,0.0,0.33146556234,0.316622098299,0.0606462450663,0.377268343365,0.255975853232,nan,nan,0.0,0.0,0.0,nan,nan,368.702048257,689.023686212,689.328356286,689.523714437,nan,nan
0,238,5214,6,1,235,165,0.707591924495,0.164537776567,0.631659631194,1,1.0,1.0,0.296513424721,0,0.0,0.0,0.339321622935,0.316571879705,0.0605236407497,0.377095520455,0.256048238956,nan,nan,0.0,0.0,0.0,nan,nan,368.702048257,690.023819068,690.320332493,690.52383988,nan,nan
0,239,5215,6,1,88,61,1.0,-0.225257592204,-0.599932847766,1,1.0,1.0,0.272355945781,0,0.0,0.0,0.291179814531,0.316487953116,0.0604107660852,0.376898719201,0.25607718703,nan,nan,0.0,0.0,0.0,nan,nan,368.702048257,691.023946792,691.296302738,691.523973306,nan,nan
0,240,5216,6,1,316,222,-0.0718215561597,0.428203514031,0.427892255365,1,1.0,1.0,0.328216587659,0,0.0,0.0,0.29902865272,0.316304069752,0.0603517680089,0.376655837761,0.255952301743,nan,nan,0.0,0.0,0.0,nan,nan,368.702048257,692.024084209,692.352300797,692.524092762,nan,nan
0,241,5217,6,1,421,296,0.121471671064,0.452518040197,-0.712610339232,1,1.0,1.0,0.24807102792,0,0.0,0.0,0.28288118712,0.316353499287,0.0602312947043,0.376584793991,0.256122204582,nan,nan,0.0,0.0,0.0,nan,nan,368.702048257,693.024201669,693.272272697,693.524221911,nan,nan
0,242,5218,6,1,233,163,0.728670395113,0.154909781369,0.626482233315,1,1.0,1.0,0.255930890329,0,0.0,0.0,0.277406168636,0.316071340314,0.0602661166356,0.37633745695,0.255805223678,nan,nan,0.0,0.0,0.0,nan,nan,368.702048257,694.024326542,694.280257432,694.524352201,nan,nan
0,243,5219,6,1,405,284,0.018463324075,0.468009379796,-0.476293327428,1,1.0,1.0,0.231822732836,0,1.0,0.0,0.245274883695,0.31582384875,0.0602650918393,0.376088940589,0.255558756911,nan,nan,0.0,0.0,0.0,nan,nan,368.702048257,695.024452555,695.256275288,695.524509005,nan,nan
0,244,5229,6,1,194,136,1.0,-0.0524864644427,0.435571704399,1,1.0,1.0,0.279640764929,1,0.0,0.0,0.255798129365,0.315479581882,0.0603804340531,0.375860015935,0.255099147829,-66.0634484521,222.0,0.841778467246,0.0997291618919,0.589484691865,19.6571984521,6.89283999614,368.702048257,696.024605083,696.304245848,696.524603657,697.858133043,704.759029903
0,245,5230,6,1,461,324,0.423959648591,0.380927367285,-1.0,1,1.0,1.0,0.320512389299,0,0.0,0.0,0.277325295688,0.315333300996,0.0603003909514,0.375633691948,0.255032910045,nan,nan,0.0,0.0,0.0,nan,nan,368.702048257,705.96753363,706.28804602,706.467569267,nan,nan
0,246,5231,6,1,97,68,1.0,-0.260369742894,-0.491718830742,1,1.0,1.0,0.344361962751,0,0.0,0.0,0.314838372326,0.315354354201,0.0601786066367,0.375532960837,0.255175747564,nan,nan,0.0,0.0,0.0,nan,nan,368.702048257,706.967675039,707.312037001,707.467668482,nan,nan
0,247,5232,6,1,47,33,1.0,-0.0170755915744,-1.0,1,1.0,1.0,0.352228381671,0,0.0,0.0,0.339034244573,0.315471793911,0.0600849045054,0.375556698417,0.255386889406,nan,nan,0.0,0.0,0.0,nan,nan,368.702048257,707.967772257,708.320000639,708.467798771,nan,nan
0,248,5233,6,1,351,246,-0.175686286722,0.4701852659,0.128489978773,1,1.0,1.0,0.320048250258,0,0.0,0.0,0.33887953156,0.315620005959,0.0600088686013,0.37562887456,0.255611137357,nan,nan,0.0,0.0,0.0,nan,nan,368.702048257,708.967936758,709.287985009,709.467956145,nan,nan
0,249,5234,6,0,411,288,0.0555201669072,0.463022710015,-0.557054760163,0,0.0,1.0,0.399923536461,0,0.0,0.0,0.35740005613,0.315637790072,0.0598889024885,0.375526692561,0.255748887584,nan,nan,0.0,0.0,0.0,nan,nan,368.702048257,709.968051083,710.367974619,710.468080163,nan,nan
0,250,5235,6,1,4,2,0.879126049628,0.195014037372,-1.0,1,1.0,1.0,0.279722588602,0,0.0,0.0,0.33323145844,0.315974933058,0.0600053047779,0.375980237836,0.25596962828,nan,nan,0.0,0.0,0.0,nan,nan,368.702048257,710.968253787,711.247976376,711.468178807,nan,nan
0,251,5236,6,0,469,329,0.489482198204,0.360453357602,-1.0,0,0.0,1.0,0.431631546468,0,0.0,0.0,0.37042589051,0.315830501407,0.0599291795473,0.375759680954,0.255901321859,nan,nan,0.0,0.0,0.0,nan,nan,368.702048257,711.96830482,712.399936366,712.468333045,nan,nan
0,252,5237,6,1,266,187,0.373577590308,0.295207490188,0.648113769863,1,1.0,1.0,0.279515892267,0,0.0,0.0,0.330290009112,0.316290029363,0.0602516157685,0.376541645132,0.256038413595,nan,nan,0.0,0.0,0.0,nan,nan,368.702048257,712.968411162,713.247927054,713.468435965,nan,nan
0,253,5238,6,1,472,331,0.51429864939,0.352212277195,-1.0,1,1.0,1.0,0.269979655277,0,0.0,0.0,0.327042364671,0.316144677043,0.0601766768681,0.376321353911,0.255968000175,nan,nan,0.0,0.0,0.0,nan,nan,368.702048257,714.001925266,714.271904921,714.501897896,nan,nan
0,254,5239,6,1,201,141,1.0,-0.0135712615467,0.48142235136,1,1.0,1.0,0.261902833823,0,0.0,0.0,0.270466127122,0.315962924989,0.0601276406654,0.376090565654,0.255835284323,nan,nan,0.0,0.0,0.0,nan,nan,368.702048257,715.001991123,715.263893957,715.502061257,nan,nan
0,255,5240,6,1,274,192,0.289344050657,0.322900892411,0.632670269059,1,1.0,1.0,0.309766482096,0,0.0,0.0,0.280549657065,0.315750924631,0.0601046687816,0.375855593413,0.25564625585,nan,nan,0.0,0.0,0.0,nan,nan,368.702048257,716.002114,716.311880482,716.502202095,nan,nan
0,256,5241,6,1,448,315,0.32026743599,0.409662251776,-1.0,1,1.0,1.0,0.349572124891,0,0.0,0.0,0.30708048027,0.315727547902,0.0599883234745,0.375715871377,0.255739224428,nan,nan,0.0,0.0,0.0,nan,nan,368.702048257,717.002282208,717.351854333,717.502297604,nan,nan
0,257,5242,6,1,379,266,-0.113535935895,0.478614986251,-0.165970515924,1,1.0,1.0,0.357438544277,0,0.0,0.0,0.338925717088,0.315859238864,0.0599085662078,0.375767805071,0.255950672656,nan,nan,0.0,0.0,0.0,nan,nan,368.702048257,718.002394822,718.359833366,718.502411928,nan,nan
0,258,5243,6,1,153,107,1.0,-0.255547855702,0.0926213922694,1,1.0,1.0,0.293292674236,0,0.0,0.0,0.333434447801,0.316020398962,0.0598481433632,0.375868542325,0.256172255599,nan,nan,0.0,0.0,0.0,nan,nan,368.702048257,719.002513423,719.295806097,719.50256531,nan,nan
0,259,5244,6,1,306,215,-0.00395437407881,0.408974006242,0.494128827808,1,1.0,1.0,0.242797289044,0,0.0,0.0,0.297842835852,0.315932647129,0.0597491223241,0.375681769453,0.256183524805,nan,nan,0.0,0.0,0.0,nan,nan,368.702048257,720.060981569,720.303778858,720.561041725,nan,nan
0,260,5245,6,1,155,108,1.0,-0.2479831371,0.111611878621,1,1.0,1.0,0.298674181104,0,0.0,0.0,0.278254714794,0.31565135729,0.0598056863633,0.375457043654,0.255845670927,nan,nan,0.0,0.0,0.0,nan,nan,368.702048257,721.061111859,721.35978604,721.561136662,nan,nan
0,261,5246,6,1,245,172,0.600577697281,0.210610106048,0.650172825369,1,1.0,1.0,0.330497655086,0,0.0,0.0,0.290656375078,0.315586310638,0.0597002201862,0.375286530824,0.255886090452,nan,nan,0.0,0.0,0.0,nan,nan,368.702048257,722.061263531,722.391761186,722.561265526,nan,nan
0,262,5247,6,1,393,276,-0.0489456633786,0.475102171109,-0.327443230616,1,1.0,1.0,0.327716241125,0,0.0,0.0,0.318962692438,0.315643224167,0.0595932732031,0.37523649737,0.256049950964,nan,nan,0.0,0.0,0.0,nan,nan,368.702048257,723.128041709,723.45575795,723.628071929,nan,nan
0,263,5248,6,1,499,350,0.739831889234,0.263827757734,-1.0,1,1.0,1.0,0.399573721923,0,0.0,0.0,0.352595872711,0.315689129174,0.0594845110308,0.375173640205,0.256204618143,nan,nan,0.0,0.0,0.0,nan,nan,368.702048257,724.128150331,724.527724053,724.628194806,nan,nan
0,264,5249,6,0,372,261,-0.138660017671,0.478458869494,-0.0888123791441,0,0.0,1.0,0.495387402363,0,0.0,0.0,0.407559121804,0.316006873844,0.0595949403563,0.3756018142,0.256411933487,nan,nan,0.0,0.0,0.0,nan,nan,368.702048257,725.128316543,725.623703945,725.636682454,nan,nan
0,265,5250,6,1,431,303,0.191957257768,0.43918128748,-0.982298765802,1,1.0,1.0,0.303282217123,0,0.0,0.0,0.399414447136,0.316683781498,0.0604906659197,0.377174447418,0.256193115579,nan,nan,0.0,0.0,0.0,nan,nan,368.702048257,726.128406064,726.431688281,726.628481044,nan,nan
0,266,5251,6,1,492,345,0.681403316433,0.289222019555,-1.0,1,1.0,1.0,0.247113099322,0,0.0,0.0,0.348594239602,0.316633399677,0.0603824248236,0.377015824501,0.256250974854,nan,nan,0.0,0.0,0.0,nan,nan,368.702048257,727.128552604,727.375665703,727.628605918,nan,nan
0,267,5252,6,1,287,201,0.159501648714,0.36255249221,0.590751920292,1,1.0,1.0,0.34296498308,0,0.0,0.0,0.297786766508,0.316373024021,0.0604186664518,0.376791690473,0.255954357569,nan,nan,0.0,0.0,0.0,nan,nan,368.702048257,728.128700285,728.471665268,728.628735352,nan,nan
0,268,5253,6,1,86,60,1.0,-0.21659106269,-0.625617802914,1,1.0,1.0,0.310802527703,0,0.0,0.0,0.300293536702,0.316472247749,0.0603276305794,0.376799878328,0.256144617169,nan,nan,0.0,0.0,0.0,nan,nan,368.702048257,729.12881689,729.439619417,729.62886108,nan,nan
0,269,5254,6,1,202,142,1.0,-0.00802826454356,0.487596984314,1,1.0,1.0,0.30266013369,0,0.0,0.0,0.318809214824,0.316451170722,0.0602163816113,0.376667552334,0.256234789111,nan,nan,0.0,0.0,0.0,nan,nan,368.702048257,730.128951741,730.431611875,730.628964855,nan,nan
0,270,5255,6,1,287,201,0.159501648714,0.36255249221,0.590751920292,1,1.0,1.0,0.310508876573,0,0.0,0.0,0.307990512655,0.316400092807,0.0601106042763,0.376510697084,0.256289488531,nan,nan,0.0,0.0,0.0,nan,nan,368.702048257,731.129095715,731.439604592,731.629088303,nan,nan
0,271,5256,6,1,237,166,0.686387300223,0.174031846447,0.636349816437,1,1.0,1.0,0.334414899349,0,0.0,0.0,0.315861303204,0.316378354002,0.0600006598951,0.376379013897,0.256377694107,nan,nan,0.0,0.0,0.0,nan,nan,368.702048257,732.129172977,732.463587876,732.629212605,nan,nan
0,272,5257,6,1,425,298,0.149162615564,0.447529597292,-0.791715667876,1,1.0,1.0,0.34224938741,0,0.0,0.0,0.329057721111,0.316444664831,0.0599002105484,0.376344875379,0.256544454282,nan,nan,0.0,0.0,0.0,nan,nan,368.702048257,733.129310394,733.471559782,733.629347172,nan,nan
0,273,5258,6,1,504,354,0.78128615449,0.244628286196,-1.0,1,1.0,1.0,0.278096960392,0,0.0,0.0,0.31825374905,0.316539187624,0.0598107217602,0.376349909384,0.256728465864,nan,nan,0.0,0.0,0.0,nan,nan,368.702048257,734.129478032,734.407574992,734.629476036,nan,nan
0,274,5259,6,0,269,189,0.34171296506,0.305888347675,0.643262349404,0,0.0,1.0,0.437942757271,0,0.0,0.0,0.352763035024,0.316398887525,0.0597464666767,0.376145354201,0.256652420848,nan,nan,0.0,0.0,0.0,nan,nan,368.702048257,735.129597487,735.567540245,735.629624287,nan,nan
0,275,5300,6,1,374,262,-0.132039125116,0.478634076427,-0.110628443238,1,1.0,1.0,0.357809741516,0,0.0,0.0,0.357949819726,0.316840865233,0.0600848076217,0.376925672854,0.256756057611,nan,nan,0.0,0.0,0.0,nan,nan,368.702048257,736.129712952,736.487522694,736.629744313,nan,nan
0,276,5301,6,1,419,294,0.107894673663,0.454841969249,-0.678098861371,1,1.0,1.0,0.309681237675,0,0.0,0.0,0.368477912154,0.31698930319,0.0600263528147,0.377015656005,0.256962950376,nan,nan,0.0,0.0,0.0,nan,nan,368.702048257,737.129827847,737.439509084,737.629854931,nan,nan
0,277,5302,6,1,196,137,1.0,-0.0413610816081,0.449130757868,1,1.0,1.0,0.309514170513,0,0.0,0.0,0.325668383234,0.316962920282,0.0599195071359,0.376882427418,0.257043413146,nan,nan,0.0,0.0,0.0,nan,nan,368.702048257,738.129970395,738.439484566,738.629974102,nan,nan
0,278,5303,6,1,400,281,-0.0107874812989,0.471427301814,-0.412692688905,1,1.0,1.0,0.285384060815,0,0.0,0.0,0.301526489668,0.316936126218,0.0598133035477,0.376749429766,0.257122822671,nan,nan,0.0,0.0,0.0,nan,nan,368.702048257,739.130081299,739.41546536,739.630118076,nan,nan
0,279,5304,6,1,37,26,1.0,0.0358565504353,-1.0,1,1.0,1.0,0.341245558113,0,0.0,0.0,0.312047929813,0.316823036378,0.0597357820642,0.376558818442,0.257087254314,nan,nan,0.0,0.0,0.0,nan,nan,368.702048257,740.130211588,740.471457147,740.63023126,nan,nan
0,280,5305,6,1,343,241,-0.171388175652,0.463836419185,0.204822810802,1,1.0,1.0,0.324740389828,0,0.0,0.0,0.317123336252,0.31691025967,0.0596468113795,0.37655707105,0.257263448291,nan,nan,0.0,0.0,0.0,nan,nan,368.702048257,741.138687261,741.463427651,741.638732022,nan,nan
0,281,5306,6,1,86,60,1.0,-0.21659106269,-0.625617802914,1,1.0,1.0,0.482551442925,0,0.0,1.0,0.382845796955,0.316938124902,0.0595424093879,0.37648053429,0.257395715514,nan,nan,0.0,0.0,0.0,nan,nan,368.702048257,742.188845947,742.67139739,742.688866474,nan,nan
0,282,5312,6,1,264,185,0.394966959701,0.287889713878,0.650717615019,1,1.0,1.0,0.394508103374,1,0.0,0.0,0.400599978709,0.317525406172,0.0602465205265,0.377771926698,0.257278885645,-95.0350846795,263.0,0.405698801511,0.284171736334,0.651829885785,-0.589915320543,2.80066758487,368.702048257,743.188934613,743.583442716,743.68895799,745.014130589,747.822812844
0,283,5313,6,1,373,262,-0.135407706169,0.478559568072,-0.0996974893599,1,1.0,1.0,0.423529921565,0,0.0,0.0,0.433529822621,0.317797429837,0.0603132220963,0.378110651933,0.25748420774,nan,nan,0.0,0.0,0.0,nan,nan,368.702048257,749.039753756,749.463283677,749.539706144,nan,nan
0,284,5314,6,1,241,169,0.64365311028,0.192605941253,0.644254782112,1,1.0,1.0,0.287488082889,0,0.0,0.0,0.36850870261,0.318169727343,0.0605318209542,0.378701548297,0.257637906388,nan,nan,0.0,0.0,0.0,nan,nan,368.702048257,750.039790533,750.327278616,750.539830447,nan,nan
0,285,5315,6,1,507,356,0.805995650865,0.232688349973,-1.0,1,1.0,1.0,0.223313703667,0,0.0,0.0,0.311443902707,0.31806207245,0.0604527608273,0.378514833277,0.257609311623,nan,nan,0.0,0.0,0.0,nan,nan,368.702048257,751.039936218,751.263249922,751.539961877,nan,nan
0,286,5316,6,1,107,75,1.0,-0.290089771429,-0.379592780214,1,1.0,1.0,0.247146741021,0,1.0,0.0,0.252649509193,0.317730784447,0.0606055891716,0.378336373619,0.257125195276,nan,nan,0.0,0.0,0.0,nan,nan,368.702048257,752.040090171,752.287236912,752.540090741,nan,nan
0,287,5321,6,1,4,2,0.879126049628,0.195014037372,-1.0,1,1.0,1.0,0.247033557389,1,0.0,0.0,0.239164667359,0.317484847014,0.0606427091434,0.378127556157,0.25684213787,77.499811559,18.0,0.988682696815,0.131162580546,-1.0,9.68768844105,1.9506803574,368.702048257,753.040179121,753.287212679,753.540214473,754.873712498,756.832305461
0,288,5322,6,1,204,143,1.0,0.00303256528985,0.499654420455,1,1.0,1.0,0.366300810128,0,0.0,0.0,0.28682703618,0.31724022448,0.0606790167624,0.377919241243,0.256561207718,nan,nan,0.0,0.0,0.0,nan,nan,368.702048257,758.040826008,758.407126818,758.540884738,nan,nan
0,289,5323,6,1,464,326,0.448404880525,0.373503555275,-1.0,1,1.0,1.0,0.366160256788,0,0.0,0.0,0.326498208102,0.317409984292,0.0606424149024,0.378052399195,0.25676756939,nan,nan,0.0,0.0,0.0,nan,nan,368.702048257,759.040941473,759.40710173,759.540974544,nan,nan
0,290,5324,6,1,336,236,-0.158211608236,0.456758111158,0.268135266647,1,1.0,1.0,0.261991499923,0,0.0,0.0,0.331484188947,0.31757808868,0.0606051839183,0.378183272598,0.256972904762,nan,nan,0.0,0.0,0.0,nan,nan,368.702048257,760.041089153,760.303080653,760.541139901,nan,nan
0,291,5325,6,1,260,182,0.438016636947,0.272781976488,0.654406567654,1,1.0,1.0,0.221857708879,0,0.0,0.0,0.28333648853,0.317387069475,0.0605883485702,0.377975418045,0.256798720904,nan,nan,0.0,0.0,0.0,nan,nan,368.702048257,761.041221154,761.263078863,761.5412528,nan,nan
0,292,5326,6,1,139,97,1.0,-0.296335611021,-0.0445992895203,1,1.0,1.0,0.229702745564,0,1.0,0.0,0.237850651455,0.31705991413,0.0607414368702,0.377801351,0.25631847726,nan,nan,0.0,0.0,0.0,nan,nan,368.702048257,762.041366269,762.271069014,762.541372826,nan,nan
0,293,5327,6,0,481,338,0.589289488337,0.325611856148,-1.0,0,1.0,0.0,0.237530676182,0,0.0,0.0,0.229697043542,0.316761766797,0.0608513462651,0.377613113062,0.255910420532,nan,nan,0.0,0.0,0.0,nan,nan,368.702048257,763.041501405,763.279032081,763.541518796,nan,nan
0,294,5328,6,1,125,87,1.0,-0.311567427947,-0.187805059354,1,1.0,1.0,0.261417882983,0,0.0,0.0,0.242883768243,0.316492273292,0.060922665145,0.377414938437,0.255569608147,nan,nan,0.0,0.0,0.0,nan,nan,368.702048257,764.041620576,764.303038459,764.541620576,nan,nan
0,295,5329,6,1,442,310,0.273907262724,0.421095538958,-1.0,1,1.0,1.0,0.261277044658,0,0.0,0.0,0.253408534608,0.316305580443,0.0609035029528,0.377209083396,0.25540207749,nan,nan,0.0,0.0,0.0,nan,nan,368.702048257,765.041708671,765.302985716,765.541753431,nan,nan
0,296,5330,6,1,498,350,0.731507943485,0.267561876527,-1.0,1,1.0,1.0,0.293140147347,0,0.0,0.0,0.271945024996,0.316119673228,0.0608843256291,0.377003998857,0.255235347599,nan,nan,0.0,0.0,0.0,nan,nan,368.702048257,766.041834114,766.334974261,766.541874883,nan,nan
0,297,5331,6,0,164,115,1.0,-0.209685835145,0.194761549991,0,1.0,0.0,0.28497152403,0,0.0,0.0,0.279796238678,0.316042301087,0.0607963152458,0.376838616333,0.255245985841,nan,nan,0.0,0.0,0.0,nan,nan,368.702048257,767.042001182,767.326972706,767.542031117,nan,nan
0,298,5332,6,1,237,166,0.686387300223,0.174031846447,0.636349816437,1,1.0,1.0,0.324824493844,0,0.0,0.0,0.30097872174,0.315938036734,0.0607208145712,0.376658851305,0.255217222163,nan,nan,0.0,0.0,0.0,nan,nan,368.702048257,768.042118357,768.36694285,768.542162832,nan,nan
0,299,5333,6,1,128,90,1.0,-0.310663006781,-0.156689791083,1,1.0,1.0,0.276675178204,0,0.0,0.0,0.295490398693,0.315967757326,0.060621360823,0.376589118149,0.255346396504,nan,nan,0.0,0.0,0.0,nan,nan,368.702048257,769.042265182,769.31894036,769.54228913,nan,nan
0,300,5334,6,1,417,293,0.0945046041228,0.457053563907,-0.645720198395,1,1.0,1.0,0.316529002506,0,0.0,0.0,0.306009558185,0.315836782063,0.0605626019762,0.376399384039,0.255274180087,nan,nan,0.0,0.0,0.0,nan,nan,368.702048257,770.042385778,770.358914781,770.542409727,nan,nan
0,301,5335,6,1,27,18,1.0,0.0870912575778,-1.0,1,1.0,1.0,0.276402339339,0,0.0,0.0,0.289868840016,0.315839081798,0.0604619290725,0.376301010871,0.255377152726,nan,nan,0.0,0.0,0.0,nan,nan,368.702048257,771.042518064,771.318920403,771.542524336,nan,nan
0,302,5336,6,1,448,315,0.32026743599,0.409662251776,-1.0,1,1.0,1.0,0.308246340137,0,0.0,0.0,0.300392560661,0.315708496558,0.0604042456025,0.376112742161,0.255304250956,nan,nan,0.0,0.0,0.0,nan,nan,368.702048257,772.042642082,772.350888422,772.542637805,nan,nan
0,303,5337,6,1,314,220,-0.0594438881467,0.42463230952,0.441925406839,1,1.0,1.0,0.284112810157,0,0.0,0.0,0.289587163211,0.31568386898,0.0603060049284,0.375989873908,0.255377864051,nan,nan,0.0,0.0,0.0,nan,nan,368.702048257,773.042781494,773.326894304,773.542771801,nan,nan
0,304,5338,6,1,97,68,1.0,-0.260369742894,-0.491718830742,1,1.0,1.0,0.290628720541,0,0.0,0.0,0.294329290278,0.315580016812,0.0602338689055,0.375813885718,0.255346147907,nan,nan,0.0,0.0,0.0,nan,nan,368.702048257,774.076275642,774.366904362,774.576232592,nan,nan
0,305,5339,6,1,323,227,-0.11001989341,0.43965344528,0.375855360355,1,1.0,1.0,0.290576262865,0,0.0,0.0,0.288439264521,0.315498209284,0.0601519575968,0.37565016688,0.255346251687,nan,nan,0.0,0.0,0.0,nan,nan,368.702048257,775.07631527,775.366891533,775.576391676,nan,nan
0,306,5340,6,1,75,52,1.0,-0.164714458691,-0.791355921409,1,1.0,1.0,0.298365705181,0,0.0,0.0,0.293190229529,0.315416765014,0.060070431551,0.375487196565,0.255346333463,nan,nan,0.0,0.0,0.0,nan,nan,368.702048257,776.07647578,776.374841486,776.576512273,nan,nan
0,307,5341,6,1,179,125,1.0,-0.13461441766,0.323204131591,1,1.0,1.0,0.298221446108,0,0.0,0.0,0.295721138051,0.315361224103,0.0599803864823,0.375341610585,0.25538083762,nan,nan,0.0,0.0,0.0,nan,nan,368.702048257,777.076592385,777.374813831,777.576626027,nan,nan
0,308,5342,6,1,245,172,0.600577697281,0.210610106048,0.650172825369,1,1.0,1.0,0.266047301237,0,0.0,0.0,0.287544817509,0.315305575473,0.0598908740932,0.375196449566,0.25541470138,nan,nan,0.0,0.0,0.0,nan,nan,368.702048257,778.076732654,778.342779955,778.576753751,nan,nan
0,309,5343,6,1,141,99,1.0,-0.291952736687,-0.024586852943,1,1.0,1.0,0.289917401504,0,0.0,0.0,0.284728716283,0.315146163582,0.0598592983349,0.375005461917,0.255286865247,nan,nan,0.0,0.0,0.0,nan,nan,368.702048257,779.076834719,779.36675212,779.576886321,nan,nan
0,310,5344,6,1,264,185,0.394966959701,0.287889713878,0.650717615019,1,1.0,1.0,0.369760186877,0,0.0,0.0,0.308574963206,0.315064780479,0.0597797931325,0.374844573611,0.255284987346,nan,nan,0.0,0.0,0.0,nan,nan,368.702048257,780.07699751,780.446757697,780.577002641,nan,nan
0,311,5345,6,1,201,141,1.0,-0.0135712615467,0.48142235136,1,1.0,1.0,0.34562123986,0,0.0,0.0,0.335099609413,0.315240649953,0.0597638790399,0.375004528993,0.255476770913,nan,nan,0.0,0.0,0.0,nan,nan,368.702048257,781.077095868,781.422717108,781.577158875,nan,nan
0,312,5346,6,1,363,255,-0.162287729338,0.476365729747,0.00704812682028,1,1.0,1.0,0.329482707195,0,0.0,0.0,0.348288044644,0.315338023638,0.0596927315659,0.375030755204,0.255645292072,nan,nan,0.0,0.0,0.0,nan,nan,368.702048257,782.077225873,782.40670858,782.577284318,nan,nan
0,313,5347,6,1,421,296,0.121471671064,0.452518040197,-0.712610339232,1,1.0,1.0,0.313299699686,0,0.0,0.0,0.329467882247,0.315383214321,0.0596026448323,0.374985859153,0.255780569488,nan,nan,0.0,0.0,0.0,nan,nan,368.702048257,783.077377545,783.390677244,783.577410901,nan,nan
0,314,5348,6,1,54,37,1.0,-0.0546292063271,-1.0,1,1.0,1.0,0.257240914274,0,0.0,0.0,0.300007773718,0.315376578924,0.0595077762684,0.374884355192,0.255868802655,nan,nan,0.0,0.0,0.0,nan,nan,368.702048257,784.077488163,784.334729077,784.577505269,nan,nan
0,315,5349,6,1,217,152,0.891250405156,0.0735373331823,0.568048345461,1,1.0,1.0,0.31305251969,0,0.0,0.0,0.29453104455,0.315192021258,0.059503184206,0.374695205464,0.255688837052,nan,nan,0.0,0.0,0.0,nan,nan,368.702048257,785.077609329,785.390661849,785.57766977,nan,nan
0,316,5350,6,1,109,76,1.0,-0.294638327523,-0.357773695079,1,1.0,1.0,0.280892059673,0,0.0,0.0,0.283728497879,0.315185250683,0.0594090805225,0.374594331206,0.255776170161,nan,nan,0.0,0.0,0.0,nan,nan,368.702048257,786.077740475,786.358632534,786.577776682,nan,nan
0,317,5351,6,0,398,279,-0.0220377755791,0.472608796233,-0.387943383198,0,0.0,1.0,0.400720384903,0,0.0,0.0,0.331554988089,0.31507707027,0.0593464667913,0.374423537062,0.255730603479,nan,nan,0.0,0.0,0.0,nan,nan,368.702048257,787.0778873,787.478607685,787.577922082,nan,nan
0,318,5352,6,1,340,239,-0.166837174664,0.460980112934,0.232376404312,1,1.0,1.0,0.264671418816,0,0.0,0.0,0.315427954464,0.31534638887,0.0594467866595,0.374793175529,0.25589960221,nan,nan,0.0,0.0,0.0,nan,nan,368.702048257,788.077975395,788.342646814,788.578051516,nan,nan
0,319,5353,6,1,447,314,0.312467642152,0.411646472288,-1.0,1,1.0,1.0,0.240456635598,0,0.0,0.0,0.301949479772,0.315187533164,0.0594210997594,0.374608632924,0.255766433405,nan,nan,0.0,0.0,0.0,nan,nan,368.702048257,789.07811994,789.318576575,789.578178385,nan,nan
0,320,5354,6,1,137,96,1.0,-0.300190217086,-0.0647316600203,1,1.0,1.0,0.23830699781,0,1.0,0.0,0.247811684075,0.314953999109,0.0594746232297,0.374428622339,0.25547937588,nan,nan,0.0,0.0,0.0,nan,nan,368.702048257,790.128309131,790.366616128,790.628291455,nan,nan
0,321,5359,6,1,345,242,-0.173519535469,0.465595146217,0.186119282857,1,1.0,1.0,0.22223403817,1,0.0,0.0,0.233665890526,0.314715223404,0.0595353325819,0.374250555986,0.255179890822,-149.036243468,340.0,-0.166837174664,0.460980112934,0.232376404312,-3.54188153207,1.6089196275,368.702048257,791.128372137,791.350606175,791.628405209,792.953583794,794.570461927
0,322,5400,6,1,253,177,0.513865899396,0.244839928328,0.655977188727,1,1.0,1.0,0.330439780373,0,0.0,0.0,0.263660272118,0.314428014754,0.0596651247076,0.374093139462,0.254762890047,nan,nan,0.0,0.0,0.0,nan,nan,368.702048257,795.803996387,796.134436168,796.304038867,nan,nan
0,323,5401,6,1,122,85,1.0,-0.311159539646,-0.219144224573,1,1.0,1.0,0.274302308448,0,0.0,0.0,0.275658708997,0.314477586784,0.0595793331497,0.374056919934,0.254898253635,nan,nan,0.0,0.0,0.0,nan,nan,368.702048257,796.804132664,797.078434973,797.304191109,nan,nan
0,324,5402,6,1,490,344,0.664660387652,0.296157848571,-1.0,1,1.0,1.0,0.23422012059,0,0.0,0.0,0.279654069804,0.314353589012,0.0595290463001,0.373882635312,0.254824542712,nan,nan,0.0,0.0,0.0,nan,nan,368.702048257,797.804242997,798.038463118,798.304291463,nan,nan
0,325,5403,6,1,393,276,-0.0489456633786,0.475102171109,-0.327443230616,1,1.0,1.0,0.202031150926,0,1.0,0.0,0.236851193321,0.314107024493,0.0596028599518,0.373709884445,0.254504164542,nan,nan,0.0,0.0,0.0,nan,nan,368.702048257,798.804365589,799.00639674,799.304390107,nan,nan
0,326,5409,6,1,249,175,0.557275547736,0.228026269286,0.654084877906,1,1.0,1.0,0.233973225579,1,0.0,0.0,0.223408165698,0.31376323347,0.0598332362433,0.373596469714,0.253929997227,178.264295411,386.0,-0.0833946583454,0.477495592553,-0.245424736514,96.6575795889,2.79232533788,368.702048257,799.804471361,800.038444586,800.304524103,801.629682732,804.430071776
0,327,5409,6,1,23,16,1.0,0.106943944166,-1.0,1,1.0,1.0,0.303386847954,0,0.0,0.0,0.246463741486,0.31351922733,0.0599039048024,0.373423132132,0.253615322528,nan,nan,0.0,0.0,0.0,nan,nan,368.702048257,805.6469015,805.950288348,806.146933716,nan,nan
0,328,5411,6,1,105,73,1.0,-0.285049837405,-0.401580786678,1,1.0,1.0,0.255256063305,0,0.0,0.0,0.264205378946,0.313488335929,0.05981512667,0.373303462599,0.253673209259,nan,nan,0.0,0.0,0.0,nan,nan,368.702048257,806.647017535,806.902273598,807.147058304,nan,nan
0,329,5412,6,1,477,335,0.555879874869,0.337784025865,-1.0,1,1.0,1.0,0.223072796129,0,0.0,0.0,0.260571902463,0.31331133814,0.0598101171352,0.373121455275,0.253501221005,nan,nan,0.0,0.0,0.0,nan,nan,368.702048257,807.64716493,807.870237726,808.14718004,nan,nan
0,330,5412,6,1,429,301,0.177531820842,0.442080780324,-0.901885199234,1,1.0,1.0,0.166939599905,0,1.0,0.0,0.215089486446,0.313037888013,0.0599250442277,0.372962932241,0.253112843785,nan,nan,0.0,0.0,0.0,nan,nan,368.702048257,808.647311756,808.814251356,809.14733827,nan,nan
0,331,5417,6,1,57,40,1.0,-0.0707313323512,-1.0,1,1.0,1.0,0.214816077612,1,0.0,0.0,0.201609491215,0.312596503457,0.0603693022804,0.372965805737,0.252227201176,79.8493517197,14.0,0.95801504718,0.150023555696,-1.0,-29.9274767197,1.80048654787,368.702048257,809.647420378,809.862236456,810.147501916,811.472627758,813.281163758
0,332,5418,6,1,217,152,0.891250405156,0.0735373331823,0.568048345461,1,1.0,1.0,0.372419294436,0,0.0,0.0,0.251391657318,0.312301984102,0.0605160051315,0.372817989233,0.25178597897,nan,nan,0.0,0.0,0.0,nan,nan,368.702048257,814.489712815,814.86213211,814.989736478,nan,nan
0,333,5419,6,1,114,80,1.0,-0.303747463913,-0.303859371662,1,1.0,1.0,0.324240898713,0,0.0,0.0,0.303825423587,0.312482516565,0.0605145424923,0.372997059057,0.251967974073,nan,nan,0.0,0.0,0.0,nan,nan,368.702048257,815.489859641,815.814100539,815.989882163,nan,nan
0,334,5420,6,1,11,7,0.934659501434,0.163852895862,-1.0,1,1.0,1.0,0.26016430743,0,0.0,0.0,0.318941500193,0.312517721302,0.0604272989887,0.372945020291,0.252090422313,nan,nan,0.0,0.0,0.0,nan,nan,368.702048257,816.489935477,816.750099784,816.990010458,nan,nan
0,335,5421,6,1,432,303,0.199227897075,0.437687328843,-1.0,1,1.0,1.0,0.427993983496,0,0.0,0.0,0.337466396547,0.312361442455,0.0604046016058,0.372766044061,0.251956840849,nan,nan,0.0,0.0,0.0,nan,nan,368.702048257,817.490067192,817.918061175,817.990124497,nan,nan
0,336,5422,6,0,249,175,0.557275547736,0.228026269286,0.654084877906,0,1.0,0.0,0.219832659233,0,0.0,0.0,0.302663650053,0.312705586922,0.060642662256,0.373348249178,0.252062924666,nan,nan,0.0,0.0,0.0,nan,nan,368.702048257,818.490232834,818.710065493,818.990261344,nan,nan
0,337,5423,6,1,92,64,1.0,-0.241703663401,-0.55060883727,1,1.0,1.0,0.251682362519,0,0.0,0.0,0.299836335083,0.3124299996,0.0607629704614,0.373192970061,0.251667029138,nan,nan,0.0,0.0,0.0,nan,nan,368.702048257,819.490348013,819.742030376,819.990385361,nan,nan
0,338,5424,6,1,23,16,1.0,0.106943944166,-1.0,1,1.0,1.0,0.259523122571,0,0.0,0.0,0.243679381441,0.312250272863,0.0607626593005,0.373012932163,0.251487613562,nan,nan,0.0,0.0,0.0,nan,nan,368.702048257,820.490491703,820.750014825,820.990518217,nan,nan
0,339,5425,6,1,118,82,1.0,-0.308588151016,-0.261285249573,1,1.0,1.0,0.275435002055,0,0.0,0.0,0.262213495715,0.312094735546,0.0607403198886,0.372835055435,0.251354415658,nan,nan,0.0,0.0,0.0,nan,nan,368.702048257,821.49061515,821.766050152,821.990657344,nan,nan
0,340,5426,6,1,216,151,0.900975005756,0.0682271079607,0.563426584804,1,1.0,1.0,0.275255390909,0,0.0,0.0,0.270071171845,0.311986912801,0.0606834116616,0.372670324462,0.251303501139,nan,nan,0.0,0.0,0.0,nan,nan,368.702048257,822.490729189,822.76598458,822.99074829,nan,nan
0,341,5427,6,1,499,350,0.739831889234,0.263827757734,-1.0,1,1.0,1.0,0.251120149158,0,0.0,0.0,0.267270180707,0.311879195728,0.0606269115886,0.372506107316,0.251252284139,nan,nan,0.0,0.0,0.0,nan,nan,368.702048257,823.490851781,823.74197193,823.990872308,nan,nan
0,342,5428,6,1,217,152,0.891250405156,0.0735373331823,0.568048345461,1,1.0,1.0,0.280934539158,0,0.0,0.0,0.269103359741,0.311701537697,0.0606270380691,0.372328575766,0.251074499628,nan,nan,0.0,0.0,0.0,nan,nan,368.702048257,824.541047529,824.821982068,825.041038121,nan,nan
0,343,5429,6,1,509,357,0.822386376617,0.224555004187,-1.0,1,1.0,1.0,0.32883154368,0,0.0,0.0,0.286962077332,0.311611837993,0.0605613188812,0.372173156874,0.251050519111,nan,nan,0.0,0.0,0.0,nan,nan,368.702048257,825.541131063,825.869962607,826.041159573,nan,nan
0,344,5430,6,1,387,272,-0.0787219327085,0.477231755363,-0.256974454483,1,1.0,1.0,0.344686403871,0,0.0,0.0,0.318150828903,0.311661895277,0.0604803353949,0.372142230671,0.251181559882,nan,nan,0.0,0.0,0.0,nan,nan,368.702048257,826.541247953,826.885934357,827.041303832,nan,nan
0,345,5431,6,1,58,40,1.0,-0.0760896648475,-1.0,1,1.0,1.0,0.328522212803,0,0.0,0.0,0.334013386785,0.31175761849,0.0604187098015,0.372176328291,0.251338908688,nan,nan,0.0,0.0,0.0,nan,nan,368.702048257,827.541365698,827.869887911,828.041421292,nan,nan
0,346,5432,6,1,155,108,1.0,-0.2479831371,0.111611878621,1,0.0,0.0,0.40040335618,0,0.0,0.0,0.357870657618,0.311806071075,0.0603380484114,0.372144119486,0.251468022663,nan,nan,0.0,0.0,0.0,nan,nan,368.702048257,828.541485155,828.941888511,829.041519651,nan,nan
0,347,5433,6,1,95,66,1.0,-0.253175017597,-0.514975443931,1,1.0,1.0,0.424219288398,0,0.0,1.0,0.384381619127,0.312061394663,0.0604379351009,0.372499329764,0.251623459562,nan,nan,0.0,0.0,0.0,nan,nan,368.702048257,829.541643098,829.965862387,830.041674174,nan,nan
0,348,5438,6,1,330,232,-0.139766326074,0.449518327743,0.319540245599,1,1.0,1.0,0.416059503332,1,0.0,0.0,0.41356071597,0.312383687461,0.0606489193408,0.373032606802,0.25173476812,-142.27874172,330.0,-0.139766326074,0.449518327743,0.319540245599,0.247491720391,1.91720217559,368.702048257,830.541772818,830.957832322,831.041770252,832.375271413,834.300529028
0,349,5439,6,1,177,124,1.0,-0.145192147526,0.306921212481,1,1.0,1.0,0.344648770988,0,0.0,0.0,0.394975854239,0.312680752836,0.0608149829198,0.373495735756,0.251865769916,nan,nan,0.0,0.0,0.0,nan,nan,368.702048257,835.509123986,835.853772757,836.009096046,nan,nan
0,350,5440,6,1,481,338,0.589289488337,0.325611856148,-1.0,1,1.0,1.0,0.256617690437,0,0.0,0.0,0.339108654919,0.312772090031,0.0607520093449,0.373524099375,0.252020080686,nan,nan,0.0,0.0,0.0,nan,nan,368.702048257,836.50916447,836.76578216,837.009199537,nan,nan
0,351,5441,6,1,337,236,-0.160643365934,0.457858386897,0.259303564052,1,1.0,1.0,0.272430356592,0,0.0,0.0,0.291232272672,0.312612105986,0.0607391943796,0.373351300366,0.251872911607,nan,nan,0.0,0.0,0.0,nan,nan,368.702048257,837.509292193,837.78172255,838.009356055,nan,nan
0,352,5442,6,1,277,194,0.258470646878,0.33263615818,0.624824240443,1,1.0,1.0,0.255944289733,0,0.0,0.0,0.261664112254,0.312497953289,0.0606905489759,0.373188502265,0.251807404313,nan,nan,0.0,0.0,0.0,nan,nan,368.702048257,838.517784687,838.773728977,839.017818899,nan,nan
0,353,5443,6,1,458,322,0.399688045963,0.388050214986,-1.0,1,1.0,1.0,0.231808193028,0,0.0,0.0,0.253394279784,0.31233774461,0.0606790166137,0.373016761224,0.251658727997,nan,nan,0.0,0.0,0.0,nan,nan,368.702048257,839.517876489,839.749684682,840.017943772,nan,nan
0,354,5444,6,1,207,145,0.985653507947,0.0195431921708,0.51699622314,1,1.0,1.0,0.287633482832,0,0.0,0.0,0.258461988531,0.312110260001,0.0607438027491,0.372854062751,0.251366457252,nan,nan,0.0,0.0,0.0,nan,nan,368.702048257,840.518042701,840.805676184,841.018042986,nan,nan
0,355,5445,6,0,119,83,1.0,-0.309446327048,-0.250710895617,0,0.0,1.0,0.455493949354,0,0.0,0.0,0.324978541738,0.312041311333,0.0606720580656,0.372713369399,0.251369253268,nan,nan,0.0,0.0,0.0,nan,nan,368.702048257,841.518166148,841.973660097,842.01819922,nan,nan
0,356,5446,6,1,433,304,0.206536295144,0.436163724167,-1.0,1,1.0,1.0,0.303373448551,0,0.0,0.0,0.348833626912,0.312444268182,0.06106063637,0.373504904552,0.251383631812,nan,nan,0.0,0.0,0.0,nan,nan,368.702048257,842.51825738,842.821630828,843.018336922,nan,nan
0,357,5447,6,1,219,153,0.871627318206,0.0840881726889,0.576959667802,1,1.0,1.0,0.279177766759,0,0.0,0.0,0.346015054888,0.312418859723,0.0609769418936,0.373395801617,0.25144191783,nan,nan,0.0,0.0,0.0,nan,nan,368.702048257,843.51843471,843.797612477,844.018459229,nan,nan
0,358,5448,6,1,89,62,1.0,-0.229484098413,-0.587370487375,1,1.0,1.0,0.287037628237,0,0.0,0.0,0.289862947849,0.312326007508,0.0609169872189,0.373242994727,0.251409020289,nan,nan,0.0,0.0,0.0,nan,nan,368.702048257,844.518541907,844.805579536,845.018553596,nan,nan
0,359,5449,6,0,185,130,1.0,-0.102214474652,0.370299946716,0,1.0,0.0,0.302899330389,0,0.0,0.0,0.289704908462,0.31225556634,0.0608466843929,0.373102250733,0.251408881948,nan,nan,0.0,0.0,0.0,nan,nan,368.702048257,845.518680465,845.821579795,846.018714391,nan,nan
0,360,5450,6,1,68,47,1.0,-0.129018143495,-0.972903198114,1,1.0,1.0,0.278806854505,0,0.0,0.0,0.289581271044,0.312229576796,0.0607641117027,0.372993688499,0.251465465093,nan,nan,0.0,0.0,0.0,nan,nan,368.702048257,846.51881161,846.797618464,847.01881275,nan,nan
0,361,5451,6,1,253,177,0.513865899396,0.244839928328,0.655977188727,1,1.0,1.0,0.414609781001,0,0.0,0.0,0.332105321965,0.312136993078,0.0607053143003,0.372842307378,0.251431678778,nan,nan,0.0,0.0,0.0,nan,nan,368.702048257,847.51892964,847.933539421,848.018974401,nan,nan
0,362,5452,6,1,119,83,1.0,-0.309446327048,-0.250710895617,1,1.0,1.0,0.326443849131,0,0.0,0.0,0.339953494879,0.312420067078,0.0608595309208,0.373279597999,0.251560536157,nan,nan,0.0,0.0,0.0,nan,nan,368.702048257,848.519071334,848.845515183,849.019069908,nan,nan
0,363,5453,6,1,221,155,0.851781464038,0.0945411604707,0.585422935822,1,1.0,1.0,0.278378637042,0,0.0,0.0,0.339810755725,0.312458700086,0.0607800893321,0.373238789418,0.251678610754,nan,nan,0.0,0.0,0.0,nan,nan,368.702048257,849.519178531,849.797557168,850.019218159,nan,nan
0,364,5454,6,1,450,316,0.335949728395,0.405598329481,-1.0,1,1.0,1.0,0.214243601076,0,0.0,0.0,0.273022029083,0.312365073539,0.0607227497557,0.373087823295,0.251642323784,nan,nan,0.0,0.0,0.0,nan,nan,368.702048257,850.519319369,850.73356297,851.01932279,nan,nan
0,365,5455,6,1,8,5,0.91102658764,0.177400941622,-1.0,1,1.0,1.0,0.286023250315,0,0.0,0.0,0.259548496145,0.312096247587,0.060856023593,0.37295227118,0.251240223994,nan,nan,0.0,0.0,0.0,nan,nan,368.702048257,851.519431127,851.805454378,852.019446808,nan,nan
0,366,5456,6,1,431,303,0.191957257768,0.43918128748,-0.982298765802,1,1.0,1.0,0.341901853215,0,0.0,0.0,0.280722901536,0.31202500989,0.0607880677589,0.372813077649,0.251236942131,nan,nan,0.0,0.0,0.0,nan,nan,368.702048257,852.519561987,852.861463841,853.019579378,nan,nan
0,367,5457,6,1,502,352,0.764740937618,0.25241357569,-1.0,1,1.0,1.0,0.301722161938,0,0.0,0.0,0.309882421823,0.312106418182,0.0607251689333,0.372831587116,0.251381249249,nan,nan,0.0,0.0,0.0,nan,nan,368.702048257,853.519720502,853.821442664,854.019736182,nan,nan
0,368,5458,6,0,115,80,1.0,-0.305166285737,-0.293172749504,0,1.0,0.0,0.253567714244,0,0.0,0.0,0.299063909799,0.312078200095,0.0606450151599,0.372723215255,0.251433184935,nan,nan,0.0,0.0,0.0,nan,nan,368.702048257,854.51986077,854.773428484,855.019864191,nan,nan
0,369,5459,6,1,417,293,0.0945046041228,0.457053563907,-0.645720198395,1,1.0,1.0,0.309439760167,0,0.0,0.0,0.288243212116,0.311919635092,0.0606391247474,0.37255875984,0.251280510345,nan,nan,0.0,0.0,0.0,nan,nan,368.702048257,855.519961694,855.829401454,856.019995051,nan,nan
0,370,5500,6,1,217,152,0.891250405156,0.0735373331823,0.568048345461,1,1.0,1.0,0.325304313563,0,0.0,0.0,0.296103929325,0.311912932728,0.0605572614044,0.372470194132,0.251355671323,nan,nan,0.0,0.0,0.0,nan,nan,368.702048257,856.52008115,856.845385464,857.020099397,nan,nan
0,371,5501,6,1,113,79,1.0,-0.302191989669,-0.314576349441,1,1.0,1.0,0.33319011936,0,0.0,0.0,0.32264473103,0.311949028094,0.0604795782506,0.372428606344,0.251469449843,nan,nan,0.0,0.0,0.0,nan,nan,368.702048257,857.520174948,857.853365067,858.020213436,nan,nan
0,372,5502,6,1,456,320,0.383612429175,0.392633185378,-1.0,1,1.0,1.0,0.309034635779,0,0.0,0.0,0.322509689567,0.312006127802,0.0604082464967,0.372414374298,0.251597881305,nan,nan,0.0,0.0,0.0,nan,nan,368.702048257,858.520321773,858.829356409,859.0203423,nan,nan
0,373,5503,6,1,351,246,-0.175686286722,0.4701852659,0.128489978773,1,1.0,1.0,0.308845330961,0,0.0,0.0,0.317023362033,0.311998161335,0.0603274116213,0.372325572956,0.251670749714,nan,nan,0.0,0.0,0.0,nan,nan,368.702048257,859.520476581,859.829321912,860.020524478,nan,nan
0,374,5504,6,1,397,279,-0.0275613476434,0.473159987783,-0.37569455347,1,1.0,1.0,0.300748267677,0,0.0,0.0,0.306209411472,0.311989731307,0.0602469260077,0.372236657315,0.2517428053,nan,nan,0.0,0.0,0.0,nan,nan,368.702048257,860.520566672,860.82131494,861.020603735,nan,nan
0,375,5505,6,1,273,191,0.299732959835,0.319577193062,0.635038033336,1,1.0,1.0,0.324607534334,0,0.0,0.0,0.311400377657,0.311959754071,0.0601693360761,0.372129090147,0.251790417995,nan,nan,0.0,0.0,0.0,nan,nan,368.702048257,861.520686698,861.845294232,862.020734595,nan,nan
0,376,5506,6,0,196,137,1.0,-0.0413610816081,0.449130757868,0,1.0,0.0,0.276416879147,0,0.0,0.0,0.300590893719,0.311993391784,0.060092800958,0.372086192742,0.251900590826,nan,nan,0.0,0.0,0.0,nan,nan,368.702048257,862.520870871,862.797287751,863.020881705,nan,nan
0,377,5507,6,1,3,2,0.871087178923,0.199335109687,-1.0,1,1.0,1.0,0.268280757591,0,0.0,0.0,0.289768390357,0.311899024377,0.0600409397978,0.371939964175,0.251858084579,nan,nan,0.0,0.0,0.0,nan,nan,368.702048257,863.520966949,863.789247707,864.020981774,nan,nan
0,378,5508,6,1,361,253,-0.166047812515,0.475607712818,0.0278173107143,1,1.0,1.0,0.420147235971,0,0.0,0.0,0.32161495757,0.311783632137,0.0600033127022,0.371786944839,0.251780319434,nan,nan,0.0,0.0,0.0,nan,nan,368.702048257,864.521090112,864.941237348,865.02113031,nan,nan
0,379,5509,6,1,65,45,1.0,-0.113312155659,-1.0,1,1.0,1.0,0.356025314424,0,0.0,0.0,0.348151102662,0.312069551936,0.0601813871167,0.372250939052,0.251888164819,nan,nan,0.0,0.0,0.0,nan,nan,368.702048257,865.521195883,865.877221197,866.021237792,nan,nan
0,380,5510,6,1,240,168,0.654373017221,0.188015059697,0.642463954019,1,1.0,1.0,0.291851790156,0,0.0,0.0,0.356008113517,0.312185224995,0.0601443216074,0.372329546602,0.252040903387,nan,nan,0.0,0.0,0.0,nan,nan,368.702048257,866.521340427,866.813192218,867.021368937,nan,nan
0,381,5511,6,1,2,1,0.863024578927,0.203622855609,-1.0,1,1.0,1.0,0.283715098165,0,0.0,0.0,0.310530734248,0.312131856399,0.0600743490274,0.372206205427,0.252057507372,nan,nan,0.0,0.0,0.0,nan,nan,368.702048257,867.521454182,867.80516928,868.021526026,nan,nan
0,382,5512,6,0,122,85,1.0,-0.311159539646,-0.219144224573,0,0.0,1.0,0.371540623251,0,0.0,0.0,0.315702503858,0.31205746698,0.0600132346194,0.372070701599,0.252044232361,nan,nan,0.0,0.0,0.0,nan,nan,368.702048257,868.521631797,868.893172421,869.021648618,nan,nan
0,383,5513,6,1,241,169,0.64365311028,0.192605941253,0.644254782112,1,1.0,1.0,0.30742753949,0,0.0,0.0,0.320894420302,0.312212775482,0.0600116557325,0.372224431215,0.252201119749,nan,nan,0.0,0.0,0.0,nan,nan,368.702048257,869.521721603,869.829149143,870.02178461,nan,nan
0,384,5514,6,1,136,95,1.0,-0.301914900238,-0.074841205769,1,1.0,1.0,0.475270614959,0,0.0,0.0,0.384746259234,0.31220031393,0.0599339607999,0.37213427473,0.25226635313,nan,nan,0.0,0.0,0.0,nan,nan,368.702048257,870.521852748,870.997123363,871.021891521,nan,nan
0,385,5515,6,1,370,260,-0.144805996584,0.478178727438,-0.0671803333712,1,1.0,1.0,0.3231444126,0,0.0,0.0,0.368614189016,0.312623873153,0.0604288019722,0.373052675126,0.252195071181,nan,nan,0.0,0.0,0.0,nan,nan,368.702048257,871.521979332,871.845123744,872.022010122,nan,nan
0,386,5516,6,1,323,227,-0.11001989341,0.43965344528,0.375855360355,1,1.0,1.0,0.320642963983,0,0.0,1.0,0.373019330514,0.312651128437,0.0603528449843,0.373003973421,0.252298283453,nan,nan,0.0,0.0,0.0,nan,nan,368.702048257,872.5804375,872.901080464,873.080500791,nan,nan
