block,trial,freq_trials,correct_response,actual_response,acc,rts,probe_trials,fast_rt_trigger,slow_rt_trigger,rt_triggered,rts_runningavg,rts_runningstd,rts_runningfastthresh,rts_runningslowthresh,rts_runningstd,rts_trailingavg,trials_colorind,trials_colorrgb0,trials_colorrgb1,trials_colorrgb2,wm_respdeg,wm_respdeg_in_colorspace,wm_respcolorminusorigcolor,wm_resptexind,wm_resptexrgb0,wm_resptexrgb1,wm_resptexrgb2,wm_rts,time_blockstart,time_encarray_offset,time_encarray_onset,time_response,time_iti_offset,time_iti_onset,time_memprobe_offset,time_memprobe_onset
1,1,1,1,1.0,1.0,0.465356053319,0,nan,nan,nan,nan,nan,nan,nan,nan,nan,325,-0.119404900653,0.442631039184,0.360186421743,nan,nan,nan,nan,0.0,0.0,0.0,nan,368.702048257,369.724657369,370.224679037,370.190013423,nan,nan,nan,nan
1,2,1,1,1.0,1.0,0.312812467106,0,nan,nan,nan,nan,nan,nan,nan,nan,nan,441,0.266287261384,0.422891888867,-1.0,nan,nan,nan,nan,0.0,0.0,0.0,nan,368.702048257,370.733192343,371.233149863,371.04600481,nan,nan,nan,nan
1,3,1,1,1.0,1.0,0.280721856281,0,nan,nan,nan,nan,nan,nan,nan,nan,nan,167,1.0,-0.195605812978,0.221546716301,nan,nan,nan,nan,0.0,0.0,0.0,nan,368.702048257,371.733256775,372.233277017,372.013978631,nan,nan,nan,nan
1,4,1,1,1.0,1.0,0.228264141828,0,nan,nan,nan,nan,nan,nan,nan,nan,nan,326,-0.12383419111,0.444071765824,0.352223541474,nan,nan,nan,nan,0.0,0.0,0.0,nan,368.702048257,372.77768642,373.283410614,373.005950562,nan,nan,nan,nan
1,5,1,1,1.0,1.0,0.278433660977,0,nan,nan,nan,nan,nan,nan,nan,nan,nan,42,1.0,0.00954878589686,-1.0,nan,nan,nan,nan,0.0,0.0,0.0,nan,368.702048257,373.783514675,374.28354404,374.061948336,nan,nan,nan,nan
1,6,1,1,1.0,1.0,0.334305421915,0,nan,nan,nan,nan,nan,nan,nan,nan,nan,154,1.0,-0.251813147593,0.102138173725,nan,nan,nan,nan,0.0,0.0,0.0,nan,368.702048257,374.783642113,375.283692291,375.117947535,nan,nan,nan,nan
1,7,1,1,1.0,1.0,0.326151623856,0,nan,nan,nan,nan,nan,nan,nan,nan,nan,305,0.00361192545304,0.406859252708,0.500196907155,nan,nan,nan,nan,0.0,0.0,0.0,nan,368.702048257,375.783762425,376.283798632,376.109914049,nan,nan,nan,nan
1,8,1,1,1.0,1.0,0.334012056235,0,nan,nan,nan,nan,nan,nan,nan,nan,nan,206,0.994723455659,0.014051917983,0.511316161583,nan,nan,nan,nan,0.0,0.0,0.0,nan,368.702048257,376.783889293,377.283918658,377.117901349,nan,nan,nan,nan
1,9,1,1,1.0,1.0,0.341852246318,1,nan,nan,nan,nan,nan,nan,nan,nan,nan,250,0.546428449327,0.232286661223,0.654747725831,-75.2947279439,165.294727944,-10.4865220561,235.0,0.707591924495,0.164537776567,0.631659631194,2.09223627346,368.702048257,377.784024145,378.28405579,378.125876391,381.717824145,382.727534862,379.609226108,381.709471634
1,10,1,1,1.0,1.0,0.343459057622,0,nan,nan,nan,nan,nan,nan,nan,nan,nan,41,1.0,0.0148395037771,-1.0,nan,nan,nan,nan,0.0,0.0,0.0,nan,368.702048257,382.926324165,383.426358092,383.269783223,nan,nan,nan,nan
1,11,1,1,1.0,1.0,0.319332084153,0,nan,nan,nan,nan,nan,nan,nan,nan,nan,246,0.589768841079,0.215019897151,0.651339528662,nan,nan,nan,nan,0.0,0.0,0.0,nan,368.702048257,383.926448468,384.426501781,384.245780552,nan,nan,nan,nan
1,12,1,1,1.0,1.0,0.335166132078,0,nan,nan,nan,nan,nan,nan,nan,nan,nan,126,1.0,-0.311411754845,-0.177408431044,nan,nan,nan,nan,0.0,0.0,0.0,nan,368.702048257,384.926576477,385.426650317,385.261742609,nan,nan,nan,nan
1,13,1,1,1.0,1.0,0.327012334485,0,nan,nan,nan,nan,nan,nan,nan,nan,nan,484,0.614398947124,0.316112737715,-1.0,nan,nan,nan,nan,0.0,0.0,0.0,nan,368.702048257,385.926719881,386.426773765,386.253732216,nan,nan,nan,nan
1,14,0,0,0.0,1.0,0.430832987186,0,nan,nan,nan,nan,nan,nan,nan,nan,nan,262,0.416452475899,0.2804144186,0.652815538838,nan,nan,nan,nan,0.0,0.0,0.0,nan,368.702048257,386.926874119,387.426900348,387.357707107,nan,nan,nan,nan
1,15,1,1,1.0,1.0,0.390707179438,0,nan,nan,nan,nan,nan,nan,nan,nan,nan,62,1.0,-0.0974372467467,-1.0,nan,nan,nan,nan,0.0,0.0,0.0,nan,368.702048257,387.926986448,388.427027787,388.317693627,nan,nan,nan,nan
1,16,1,1,1.0,1.0,0.350570252631,0,nan,nan,nan,nan,nan,nan,nan,nan,nan,184,1.0,-0.107671891867,0.362640045218,nan,nan,nan,nan,0.0,0.0,0.0,nan,368.702048257,388.927098776,389.427158932,389.277669029,nan,nan,nan,nan
1,17,1,1,1.0,1.0,0.398395412602,1,nan,nan,nan,nan,nan,nan,nan,nan,nan,250,0.546428449327,0.232286661223,0.654747725831,-82.120721845,172.120721845,-3.66052815497,245.0,0.600577697281,0.210610106048,0.650172825369,2.11727356398,368.702048257,389.927263563,390.427284375,390.325658975,393.894358142,394.895334317,391.76075389,393.886033571
1,18,1,1,1.0,1.0,0.431027994491,0,nan,nan,nan,nan,nan,nan,nan,nan,nan,45,1.0,-0.0063957592436,-1.0,nan,nan,nan,nan,0.0,0.0,0.0,nan,368.702048257,395.094538723,395.594571794,395.525566718,nan,nan,nan,nan
1,19,0,0,0.0,1.0,0.454848487861,0,nan,nan,nan,nan,nan,nan,nan,nan,nan,285,0.178734351563,0.356878681702,0.598527012995,nan,nan,nan,nan,0.0,0.0,0.0,nan,368.702048257,396.094702084,396.594731164,396.549550572,nan,nan,nan,nan
1,20,1,1,1.0,1.0,0.294709610753,0,nan,nan,nan,nan,nan,nan,nan,nan,nan,208,0.97651257568,0.025020743352,0.522574479073,nan,nan,nan,nan,0.0,0.0,0.0,nan,368.702048257,397.094825532,397.594856322,397.389535143,nan,nan,nan,nan
1,21,1,1,1.0,1.0,0.358598892111,0,nan,nan,nan,nan,nan,nan,nan,nan,nan,378,-0.117450136118,0.478670924818,-0.154810124165,nan,nan,nan,nan,0.0,0.0,0.0,nan,368.702048257,398.094917048,398.5949658,398.45351594,nan,nan,nan,nan
1,22,1,1,1.0,1.0,0.302457999438,0,nan,nan,nan,nan,nan,nan,nan,nan,nan,161,1.0,-0.223158351501,0.167490545043,nan,nan,nan,nan,0.0,0.0,0.0,nan,368.702048257,399.095044487,399.595116331,399.397502486,nan,nan,nan,nan
1,23,1,1,1.0,1.0,0.270282429177,0,nan,nan,nan,nan,nan,nan,nan,nan,nan,371,-0.14179360683,0.478331938097,-0.0779732583494,nan,nan,nan,nan,0.0,0.0,0.0,nan,368.702048257,400.095178198,400.595253748,400.365460627,nan,nan,nan,nan
1,24,0,0,0.0,1.0,0.374147557653,0,nan,nan,nan,nan,nan,nan,nan,nan,nan,447,0.312467642152,0.411646472288,-1.0,nan,nan,nan,nan,0.0,0.0,0.0,nan,368.702048257,401.095320461,401.595373489,401.469468019,nan,nan,nan,nan
1,25,1,1,1.0,1.0,0.277963534929,0,nan,nan,nan,nan,nan,nan,nan,nan,nan,113,1.0,-0.302191989669,-0.314576349441,nan,nan,nan,nan,0.0,0.0,0.0,nan,368.702048257,402.095480116,402.595465861,402.373443651,nan,nan,nan,nan
1,26,1,1,1.0,1.0,0.355799802113,0,nan,nan,nan,nan,nan,nan,nan,nan,nan,444,0.289241202529,0.417409780569,-1.0,nan,nan,nan,nan,0.0,0.0,0.0,nan,368.702048257,403.14561856,403.64560459,403.501418362,nan,nan,nan,nan
1,27,1,1,1.0,1.0,0.347709866241,0,nan,nan,nan,nan,nan,nan,nan,nan,nan,309,-0.0258396312562,0.415106541901,0.475305697888,nan,nan,nan,nan,0.0,0.0,0.0,nan,368.702048257,404.145693541,404.645730033,404.493403407,nan,nan,nan,nan
1,28,0,0,0.0,1.0,0.411539562512,0,nan,nan,nan,nan,nan,nan,nan,nan,nan,431,0.191957257768,0.43918128748,-0.982298765802,nan,nan,nan,nan,0.0,0.0,0.0,nan,368.702048257,405.145862604,405.645886552,405.557402166,nan,nan,nan,nan
1,29,1,1,1.0,1.0,0.291404471733,0,nan,nan,nan,nan,nan,nan,nan,nan,nan,250,0.546428449327,0.232286661223,0.654747725831,nan,nan,nan,nan,0.0,0.0,0.0,nan,368.702048257,406.145972081,406.645990612,406.437376553,nan,nan,nan,nan
1,30,1,1,1.0,1.0,0.323259877041,0,nan,nan,nan,nan,nan,nan,nan,nan,nan,382,-0.1011887567,0.478291136399,-0.199732273247,nan,nan,nan,nan,0.0,0.0,0.0,nan,368.702048257,407.146095528,407.646116341,407.469355405,nan,nan,nan,nan
1,31,1,1,1.0,1.0,0.299106104299,0,nan,nan,nan,nan,nan,nan,nan,nan,nan,187,1.0,-0.0912463489427,0.385383214542,nan,nan,nan,nan,0.0,0.0,0.0,nan,368.702048257,408.146222112,408.64624606,408.445328216,nan,nan,nan,nan
1,32,1,1,1.0,1.0,0.354996966664,0,nan,nan,nan,nan,nan,nan,nan,nan,nan,21,1.0,0.116713997928,-1.0,nan,nan,nan,nan,0.0,0.0,0.0,nan,368.702048257,409.146339857,409.646364375,409.501336824,nan,nan,nan,nan
1,33,1,1,1.0,1.0,0.322808281984,0,nan,nan,nan,nan,nan,nan,nan,nan,nan,456,0.383612429175,0.392633185378,-1.0,nan,nan,nan,nan,0.0,0.0,0.0,nan,368.702048257,410.14649324,410.646533153,410.469301522,nan,nan,nan,nan
1,34,1,1,1.0,1.0,0.338699919637,0,nan,nan,nan,nan,nan,nan,nan,nan,nan,189,1.0,-0.0802194643608,0.400143472992,nan,nan,nan,nan,0.0,0.0,0.0,nan,368.702048257,411.146589603,411.646644912,411.485289522,nan,nan,nan,nan
1,35,1,1,1.0,1.0,0.306542595848,0,nan,nan,nan,nan,nan,nan,nan,nan,nan,240,0.654373017221,0.188015059697,0.642463954019,nan,nan,nan,nan,0.0,0.0,0.0,nan,368.702048257,412.146709344,412.646751823,412.45325194,nan,nan,nan,nan
1,36,1,1,1.0,1.0,0.322389758192,0,nan,nan,nan,nan,nan,nan,nan,nan,nan,42,1.0,0.00954878589686,-1.0,nan,nan,nan,nan,0.0,0.0,0.0,nan,368.702048257,413.146872135,413.646897223,413.469261893,nan,nan,nan,nan
1,37,1,1,1.0,1.0,0.314236816019,1,nan,nan,nan,nan,nan,nan,nan,nan,nan,487,0.639529740128,0.306295026098,-1.0,111.662790935,338.337209065,-4.08466593541,481.0,0.589289488337,0.325611856148,-1.0,1.54228086257,368.702048257,414.147004705,414.647029509,414.461241521,417.530729839,418.528962803,415.972166755,417.522409544
1,38,1,1,1.0,1.0,0.338278830517,0,nan,nan,nan,nan,nan,nan,nan,nan,nan,189,1.0,-0.0802194643608,0.400143472992,nan,nan,nan,nan,0.0,0.0,0.0,nan,368.702048257,418.730881055,419.230929236,419.069159885,nan,nan,nan,nan
1,39,1,1,1.0,1.0,0.274107871577,1,nan,nan,nan,nan,nan,nan,nan,nan,nan,343,-0.171388175652,0.463836419185,0.204822810802,-148.815025341,238.815025341,-2.35684965874,340.0,-0.166837174664,0.460980112934,0.232376404312,2.61741867848,368.702048257,419.731008209,420.231050688,420.00511608,424.189910787,425.190056472,421.556215589,424.181587642
1,40,1,1,1.0,1.0,0.382987870835,0,nan,nan,nan,nan,nan,nan,nan,nan,nan,101,1.0,-0.273572672894,-0.446152610616,nan,nan,nan,nan,0.0,0.0,0.0,nan,368.702048257,425.390058297,425.890106764,425.773046168,nan,nan,nan,nan
1,41,1,1,1.0,1.0,0.31082077371,0,nan,nan,nan,nan,nan,nan,nan,nan,nan,377,-0.121259861678,0.478700828387,-0.143695900877,nan,nan,nan,nan,0.0,0.0,0.0,nan,368.702048257,426.390191438,426.890230211,426.701012211,nan,nan,nan,nan
1,42,1,1,1.0,1.0,0.326706709806,0,nan,nan,nan,nan,nan,nan,nan,nan,nan,296,0.0772713571413,0.386205321608,0.550001308524,nan,nan,nan,nan,0.0,0.0,0.0,nan,368.702048257,427.390318876,427.890355369,427.717025586,nan,nan,nan,nan
1,43,1,1,1.0,1.0,0.398478090763,0,nan,nan,nan,nan,nan,nan,nan,nan,nan,389,-0.0691208065164,0.476626077068,-0.280234315682,nan,nan,nan,nan,0.0,0.0,0.0,nan,368.702048257,428.390486514,428.890514453,428.788964604,nan,nan,nan,nan
1,44,1,1,1.0,1.0,0.28634997271,0,nan,nan,nan,nan,nan,nan,nan,nan,nan,188,1.0,-0.0857393506835,0.392804289229,nan,nan,nan,nan,0.0,0.0,0.0,nan,368.702048257,429.390628492,429.890641892,429.676978465,nan,nan,nan,nan
1,45,1,1,1.0,1.0,0.270209444221,0,nan,nan,nan,nan,nan,nan,nan,nan,nan,507,0.805995650865,0.232688349973,-1.0,nan,nan,nan,nan,0.0,0.0,0.0,nan,368.702048257,430.390725996,430.890759353,430.66093544,nan,nan,nan,nan
1,46,1,1,1.0,1.0,0.235750240739,0,nan,nan,nan,nan,nan,nan,nan,nan,nan,460,0.415848916989,0.383334931935,-1.0,nan,nan,nan,nan,0.0,0.0,0.0,nan,368.702048257,431.417168534,431.915900989,431.652918775,nan,nan,nan,nan
1,47,1,1,1.0,1.0,0.268936482724,0,nan,nan,nan,nan,nan,nan,nan,nan,nan,49,1.0,-0.027785429985,-1.0,nan,nan,nan,nan,0.0,0.0,0.0,nan,368.702048257,432.415969127,432.916031279,432.68490561,nan,nan,nan,nan
1,48,1,1,1.0,1.0,0.32476861449,0,nan,nan,nan,nan,nan,nan,nan,nan,nan,349,-0.175656888649,0.468768509344,0.147945183432,nan,nan,nan,nan,0.0,0.0,0.0,nan,368.702048257,433.416122795,433.916162139,433.74089141,nan,nan,nan,nan
1,49,1,1,1.0,1.0,0.268631428014,0,nan,nan,nan,nan,nan,nan,nan,nan,nan,254,0.503011129055,0.248947817922,0.65613358125,nan,nan,nan,nan,0.0,0.0,0.0,nan,368.702048257,434.416249379,434.916262778,434.684880807,nan,nan,nan,nan
1,50,1,1,1.0,1.0,0.265811525285,0,nan,nan,nan,nan,nan,nan,nan,nan,nan,122,1.0,-0.311159539646,-0.219144224573,nan,nan,nan,nan,0.0,0.0,0.0,nan,368.702048257,435.483017578,435.983087997,435.748829104,nan,nan,nan,nan
1,51,1,1,1.0,1.0,0.281669521239,0,nan,nan,nan,nan,nan,nan,nan,nan,nan,180,1.0,-0.129278616986,0.331238955499,nan,nan,nan,nan,0.0,0.0,0.0,nan,368.702048257,436.483150434,436.983215151,436.764819955,nan,nan,nan,nan
1,52,0,0,0.0,1.0,0.393541052006,0,nan,nan,nan,nan,nan,nan,nan,nan,nan,95,1.0,-0.253175017597,-0.514975443931,nan,nan,nan,nan,0.0,0.0,0.0,nan,368.702048257,437.483302391,437.983336317,437.876843443,nan,nan,nan,nan
1,53,1,1,1.0,1.0,0.289368588012,0,nan,nan,nan,nan,nan,nan,nan,nan,nan,460,0.415848916989,0.383334931935,-1.0,nan,nan,nan,nan,0.0,0.0,0.0,nan,368.702048257,438.483429545,438.983469458,438.772798133,nan,nan,nan,nan
1,54,1,1,1.0,1.0,0.241248067003,0,nan,nan,nan,nan,nan,nan,nan,nan,nan,174,1.0,-0.160790688716,0.281981279739,nan,nan,nan,nan,0.0,0.0,0.0,nan,368.702048257,439.48353332,439.983566676,439.724781387,nan,nan,nan,nan
1,55,1,1,1.0,1.0,0.249103652779,0,nan,nan,nan,nan,nan,nan,nan,nan,nan,507,0.805995650865,0.232688349973,-1.0,nan,nan,nan,nan,0.0,0.0,0.0,nan,368.702048257,440.483651065,440.98369269,440.732754718,nan,nan,nan,nan
1,56,1,1,1.0,1.0,0.273024785332,0,nan,nan,nan,nan,nan,nan,nan,nan,nan,452,0.351738073422,0.401406211611,-1.0,nan,nan,nan,nan,0.0,0.0,0.0,nan,368.702048257,441.483778789,441.983849493,441.756803575,nan,nan,nan,nan
1,57,1,1,1.0,1.0,0.288819490001,0,nan,nan,nan,nan,nan,nan,nan,nan,nan,31,1.0,0.0668515730764,-1.0,nan,nan,nan,nan,0.0,0.0,0.0,nan,368.702048257,442.483919912,442.983941295,442.772739402,nan,nan,nan,nan
1,58,0,0,1.0,0.0,0.248627824243,0,0.0,0.0,0.0,nan,nan,nan,nan,nan,nan,229,0.770397026975,0.135265939772,0.614681466938,nan,nan,nan,nan,0.0,0.0,0.0,nan,368.702048257,443.484088121,443.98410038,443.732715945,nan,nan,nan,nan
1,59,1,1,1.0,1.0,0.320586799644,0,nan,nan,nan,nan,nan,nan,nan,nan,nan,460,0.415848916989,0.383334931935,-1.0,nan,nan,nan,nan,0.0,0.0,0.0,nan,368.702048257,444.484156544,444.984209287,444.804743343,nan,nan,nan,nan
1,60,1,1,1.0,1.0,0.264376627747,0,nan,nan,nan,nan,nan,nan,nan,nan,nan,45,1.0,-0.0063957592436,-1.0,nan,nan,nan,nan,0.0,0.0,0.0,nan,368.702048257,445.484297382,445.984328743,445.74867401,nan,nan,nan,nan
1,61,1,1,1.0,1.0,0.256220549345,0,nan,nan,nan,nan,nan,nan,nan,nan,nan,318,-0.0835627602325,0.431640264478,0.413481556053,nan,nan,nan,nan,0.0,0.0,0.0,nan,368.702048257,446.484422825,446.98445162,446.740643375,nan,nan,nan,nan
1,62,1,1,1.0,1.0,0.256081991829,0,nan,nan,nan,nan,nan,nan,nan,nan,nan,212,0.93926288676,0.0467731277665,0.543851001166,nan,nan,nan,nan,0.0,0.0,0.0,nan,368.702048257,447.484554255,447.984591888,447.740636247,nan,nan,nan,nan
1,63,1,1,1.0,1.0,0.255954552907,0,nan,nan,nan,nan,nan,nan,nan,nan,nan,469,0.489482198204,0.360453357602,-1.0,nan,nan,nan,nan,0.0,0.0,0.0,nan,368.702048257,448.484677133,448.984725599,448.740631686,nan,nan,nan,nan
1,64,1,1,1.0,1.0,0.295767324045,0,nan,nan,nan,nan,nan,nan,nan,nan,nan,37,1.0,0.0358565504353,-1.0,nan,nan,nan,nan,0.0,0.0,0.0,nan,368.702048257,449.484831655,449.984872425,449.780598979,nan,nan,nan,nan
1,65,1,1,1.0,1.0,0.31162132835,0,nan,nan,nan,nan,nan,nan,nan,nan,nan,105,1.0,-0.285049837405,-0.401580786678,nan,nan,nan,nan,0.0,0.0,0.0,nan,368.702048257,450.484963941,450.984965651,450.796585269,nan,nan,nan,nan
1,66,1,1,1.0,1.0,0.28487573145,0,nan,nan,nan,nan,nan,nan,nan,nan,nan,178,1.0,-0.139919655122,0.315097826042,nan,nan,nan,nan,0.0,0.0,0.0,nan,368.702048257,451.551733851,452.051800564,451.836609582,nan,nan,nan,nan
1,67,0,0,0.0,1.0,0.372647942975,0,nan,nan,nan,nan,nan,nan,nan,nan,nan,273,0.299732959835,0.319577193062,0.635038033336,nan,nan,nan,nan,0.0,0.0,0.0,nan,368.702048257,452.551894931,453.051919165,452.924542874,nan,nan,nan,nan
1,68,1,1,1.0,1.0,0.26851054607,0,nan,nan,nan,nan,nan,nan,nan,nan,nan,1,0.854939129564,0.207877072944,-1.0,nan,nan,nan,nan,0.0,0.0,0.0,nan,368.702048257,453.552024651,454.05202351,453.820535197,nan,nan,nan,nan
1,69,1,1,1.0,1.0,0.292414858472,0,nan,nan,nan,nan,nan,nan,nan,nan,nan,275,0.279002393219,0.326185254474,0.630178474337,nan,nan,nan,nan,0.0,0.0,0.0,nan,368.702048257,454.552116167,455.05216663,454.844531026,nan,nan,nan,nan
1,70,1,1,1.0,1.0,0.268210337963,0,nan,nan,nan,nan,nan,nan,nan,nan,nan,142,1.0,-0.289568116499,-0.0146273521697,nan,nan,nan,nan,0.0,0.0,0.0,nan,368.702048257,455.55227069,456.052279813,455.820481028,nan,nan,nan,nan
1,71,1,1,1.0,1.0,0.300062607508,0,nan,nan,nan,nan,nan,nan,nan,nan,nan,79,1.0,-0.184296021705,-0.724170777997,nan,nan,nan,nan,0.0,0.0,0.0,nan,368.702048257,456.552409533,457.052408963,456.85247214,nan,nan,nan,nan
1,72,1,1,1.0,1.0,0.451960731763,0,nan,nan,nan,nan,nan,nan,nan,nan,nan,280,0.228089347314,0.342018854333,0.61587222022,nan,nan,nan,nan,0.0,0.0,0.0,nan,368.702048257,457.552491071,458.052537827,458.004451802,nan,nan,nan,nan
1,73,0,0,0.0,1.0,0.395760538056,0,nan,nan,nan,nan,nan,nan,nan,nan,nan,410,0.0492046846968,0.463921527344,-0.54316189137,nan,nan,nan,nan,0.0,0.0,0.0,nan,368.702048257,458.552685223,459.052688358,458.948445761,nan,nan,nan,nan
1,74,1,1,1.0,1.0,0.315650900826,0,nan,nan,nan,nan,nan,nan,nan,nan,nan,126,1.0,-0.311411754845,-0.177408431044,nan,nan,nan,nan,0.0,0.0,0.0,nan,368.702048257,459.552781301,460.052784436,459.868432201,nan,nan,nan,nan
1,75,1,1,1.0,1.0,0.275501715019,0,nan,nan,nan,nan,nan,nan,nan,nan,nan,421,0.121471671064,0.452518040197,-0.712610339232,nan,nan,nan,nan,0.0,0.0,0.0,nan,368.702048257,460.55291102,461.052924134,460.828412735,nan,nan,nan,nan
1,76,0,0,0.0,1.0,0.411386750173,0,nan,nan,nan,nan,nan,nan,nan,nan,nan,510,0.830554458933,0.220436700166,-1.0,nan,nan,nan,nan,0.0,0.0,0.0,nan,368.702048257,461.553019357,462.053070675,461.964406107,nan,nan,nan,nan
1,77,1,1,1.0,1.0,0.259264823981,0,nan,nan,nan,nan,nan,nan,nan,nan,nan,45,1.0,-0.0063957592436,-1.0,nan,nan,nan,nan,0.0,0.0,0.0,nan,368.702048257,462.553142805,463.053167608,462.812407629,nan,nan,nan,nan
1,78,1,1,1.0,1.0,0.283063649666,0,nan,nan,nan,nan,nan,nan,nan,nan,nan,253,0.513865899396,0.244839928328,0.655977188727,nan,nan,nan,nan,0.0,0.0,0.0,nan,368.702048257,463.553281362,464.053299608,463.836345012,nan,nan,nan,nan
1,79,1,1,1.0,1.0,0.282919105608,0,nan,nan,nan,nan,nan,nan,nan,nan,nan,389,-0.0691208065164,0.476626077068,-0.280234315682,nan,nan,nan,nan,0.0,0.0,0.0,nan,368.702048257,464.553400818,465.053419064,464.836319923,nan,nan,nan,nan
1,80,1,1,1.0,1.0,0.250783734024,0,nan,nan,nan,nan,nan,nan,nan,nan,nan,302,0.027086081288,0.400300843718,0.517770016443,nan,nan,nan,nan,0.0,0.0,0.0,nan,368.702048257,465.553535099,466.053557337,465.804318833,nan,nan,nan,nan
1,81,1,1,1.0,1.0,0.217295288108,0,1.0,0.0,0.0,0.318009743502,0.0550487530577,0.262960990444,0.37305849656,0.0550487530577,0.250332709247,217,0.891250405156,0.0735373331823,0.568048345461,nan,nan,nan,nan,0.0,0.0,0.0,nan,368.702048257,466.587024115,467.087057186,466.804319403,nan,nan,nan,nan
1,82,1,1,1.0,1.0,0.233181509189,1,0.0,0.0,1.0,0.316766355164,0.0558268256465,0.260939529517,0.37259318081,0.0558268256465,0.23375351044,287,0.159501648714,0.36255249221,0.590751920292,-120.579226872,210.579226872,8.78235187249,299.0,0.0516645560415,0.393417669654,0.534378752182,2.3338230364,368.702048257,467.58714072,468.087176357,467.820322229,471.762620425,472.769264345,469.41233413,471.75427048
1,83,1,1,1.0,1.0,0.28908092482,0,0.0,0.0,0.0,0.315747027774,0.0562386701388,0.259508357635,0.371985697913,0.0562386701388,0.246519240706,23,1.0,0.106943944166,-1.0,nan,nan,nan,nan,0.0,0.0,0.0,nan,368.702048257,472.971119876,473.471166062,473.2602008,nan,nan,nan,nan
1,84,1,1,1.0,1.0,0.256925025955,0,0.0,0.0,0.0,0.315425749425,0.0559745134948,0.25945123593,0.37140026292,0.0559745134948,0.259729153321,422,0.128328379107,0.451313674078,-0.730894888444,nan,nan,nan,nan,0.0,0.0,0.0,nan,368.702048257,473.971250451,474.471290364,474.228175477,nan,nan,nan,nan
1,85,1,1,1.0,1.0,0.160810852423,0,1.0,0.0,0.0,0.314729312241,0.0560009272807,0.25872838496,0.370730239521,0.0560009272807,0.235605601066,509,0.822386376617,0.224555004187,-1.0,nan,nan,nan,nan,0.0,0.0,0.0,nan,368.702048257,474.971373898,475.471426641,475.13218475,nan,nan,nan,nan
1,86,1,1,1.0,1.0,0.200621912256,1,0.0,0.0,1.0,0.312918506831,0.0580917023357,0.254826804495,0.371010209167,0.0580917023357,0.206119263545,391,-0.0591907973189,0.475916278612,-0.303718712187,-170.286748975,260.286748975,-14.6351260249,370.0,-0.144805996584,0.478178727438,-0.0671803333712,18.911033229,368.702048257,475.971530417,476.471578598,476.172152329,496.72411939,497.728799841,477.796722686,496.715782559
1,87,1,1,1.0,1.0,0.327085034456,0,0.0,0.0,0.0,0.311612732476,0.0589943622613,0.252618370214,0.370607094737,0.0589943622613,0.229505933045,487,0.639529740128,0.306295026098,-1.0,nan,nan,nan,nan,0.0,0.0,0.0,nan,368.702048257,497.93266132,498.432680422,498.259746354,nan,nan,nan,nan
1,88,1,1,1.0,1.0,0.414569582324,0,0.0,0.0,0.0,0.311790575027,0.0586775164461,0.253113058581,0.370468091473,0.0586775164461,0.314092176345,335,-0.155595990888,0.455627721073,0.276893227044,nan,nan,nan,nan,0.0,0.0,0.0,nan,368.702048257,498.941144405,499.441158946,499.355713988,nan,nan,nan,nan
1,89,1,1,1.0,1.0,0.422466221265,0,0.0,1.0,0.0,0.312958518292,0.0593515064284,0.253607011863,0.37231002472,0.0593515064284,0.388040279349,105,1.0,-0.285049837405,-0.401580786678,nan,nan,nan,nan,0.0,0.0,0.0,nan,368.702048257,499.941241054,500.441291231,500.363707275,nan,nan,nan,nan
1,90,0,0,1.0,0.0,0.550283558201,0,0.0,0.0,0.0,0.314188941921,0.0601352512944,0.254053690626,0.374324193215,0.0601352512944,0.462439787264,28,1.0,0.082066132397,-1.0,nan,nan,nan,nan,0.0,0.0,0.0,nan,368.702048257,500.941392726,501.441429218,501.491676284,nan,nan,nan,nan
1,91,1,1,1.0,1.0,0.390173761174,0,0.0,0.0,0.0,0.316812215435,0.0647188311061,0.252093384329,0.381531046541,0.0647188311061,0.45430784688,266,0.373577590308,0.295207490188,0.648113769863,nan,nan,nan,nan,0.0,0.0,0.0,nan,368.702048257,501.941501633,502.441539266,502.331675394,nan,nan,nan,nan
1,92,1,1,1.0,1.0,0.325948064215,0,0.0,0.0,0.0,0.317618386267,0.0648150550134,0.252803331254,0.382433441281,0.0648150550134,0.422135127864,475,0.539218753276,0.343659807328,-1.0,nan,nan,nan,nan,0.0,0.0,0.0,nan,368.702048257,502.941714316,503.441668415,503.26766238,nan,nan,nan,nan
1,93,1,1,1.0,1.0,0.317927977536,0,0.0,0.0,0.0,0.317708926245,0.0644676227127,0.253241303532,0.382176548958,0.0644676227127,0.344683267642,169,1.0,-0.185917379452,0.239118302078,nan,nan,nan,nan,0.0,0.0,0.0,nan,368.702048257,503.941757651,504.441818662,504.259685629,nan,nan,nan,nan
1,94,1,1,1.0,1.0,0.357756143436,0,0.0,0.0,0.0,0.317711281635,0.0641200898067,0.253591191829,0.381831371442,0.0641200898067,0.333877395062,230,0.760023132926,0.140224214653,0.61781109556,nan,nan,nan,nan,0.0,0.0,0.0,nan,368.702048257,504.941867128,505.441942109,505.299623272,nan,nan,nan,nan
1,95,1,1,1.0,1.0,0.333565307781,0,0.0,0.0,0.0,0.318137290803,0.0639102946576,0.254226996146,0.382047585461,0.0639102946576,0.336416476251,333,-0.149813480994,0.453275949072,0.294183738108,nan,nan,nan,nan,0.0,0.0,0.0,nan,368.702048257,505.942040753,506.442054152,506.275606061,nan,nan,nan,nan
1,96,1,1,1.0,1.0,0.324772321153,0,0.0,0.0,0.0,0.318299690982,0.0635925301752,0.254707160807,0.381892221157,0.0635925301752,0.338697924123,43,1.0,0.00424534395127,-1.0,nan,nan,nan,nan,0.0,0.0,0.0,nan,368.702048257,506.9588199,507.458825602,507.283592221,nan,nan,nan,nan
1,97,1,1,1.0,1.0,0.332597970963,0,0.0,0.0,0.0,0.318367114213,0.0632638652847,0.255103248928,0.381630979498,0.0632638652847,0.330311866632,187,1.0,-0.0912463489427,0.385383214542,nan,nan,nan,nan,0.0,0.0,0.0,nan,368.702048257,507.958957888,508.45895019,508.291555859,nan,nan,nan,nan
1,98,1,1,1.0,1.0,0.380502672866,0,0.0,0.0,0.0,0.318513824076,0.062953331426,0.25556049265,0.381467155502,0.062953331426,0.345957654994,432,0.199227897075,0.437687328843,-1.0,nan,nan,nan,nan,0.0,0.0,0.0,nan,368.702048257,508.959051685,509.459121249,509.339554358,nan,nan,nan,nan
1,99,1,1,1.0,1.0,0.380356132519,0,0.0,0.0,0.0,0.31914636335,0.0629403860276,0.256205977322,0.382086749377,0.0629403860276,0.364485592116,229,0.770397026975,0.135265939772,0.614681466938,nan,nan,nan,nan,0.0,0.0,0.0,nan,368.702048257,509.959205068,510.459209629,510.3395612,nan,nan,nan,nan
1,100,1,1,1.0,1.0,0.316213969141,0,0.0,0.0,0.0,0.319764643846,0.0629201053428,0.256844538504,0.382684749189,0.0629201053428,0.359024258175,389,-0.0691208065164,0.476626077068,-0.280234315682,nan,nan,nan,nan,0.0,0.0,0.0,nan,368.702048257,510.959298865,511.459342485,511.275512834,nan,nan,nan,nan
1,101,1,1,1.0,1.0,0.436113284435,0,0.0,0.0,0.0,0.319729137099,0.0626057111769,0.257123425922,0.382334848276,0.0626057111769,0.377561128698,54,1.0,-0.0546292063271,-1.0,nan,nan,nan,nan,0.0,0.0,0.0,nan,368.702048257,511.959427444,512.45945909,512.395540728,nan,nan,nan,nan
1,102,0,0,0.0,1.0,0.491865303833,0,0.0,0.0,0.0,0.32088145539,0.063351812384,0.257529643006,0.384233267774,0.063351812384,0.41473085247,492,0.681403316433,0.289222019555,-1.0,nan,nan,nan,nan,0.0,0.0,0.0,nan,368.702048257,512.95960734,513.467953009,513.451472644,nan,nan,nan,nan
1,103,1,1,1.0,1.0,0.315755817108,0,0.0,0.0,0.0,0.322557767629,0.0652527153275,0.257305052302,0.387810482957,0.0652527153275,0.414578135125,415,0.0813077335083,0.459153678902,-0.614968023274,nan,nan,nan,nan,0.0,0.0,0.0,nan,368.702048257,513.959699997,514.459722805,514.275455814,nan,nan,nan,nan
1,104,1,1,1.0,1.0,0.299610442482,0,0.0,0.0,0.0,0.322491729275,0.0649386070651,0.25755312221,0.38743033634,0.0649386070651,0.369077187808,250,0.546428449327,0.232286661223,0.654747725831,nan,nan,nan,nan,0.0,0.0,0.0,nan,368.702048257,514.959828577,515.459880179,515.259439019,nan,nan,nan,nan
1,105,1,1,1.0,1.0,0.30746032577,0,0.0,0.0,0.0,0.322271716902,0.0646642107602,0.257607506142,0.386935927662,0.0646642107602,0.307608861787,54,1.0,-0.0546292063271,-1.0,nan,nan,nan,nan,0.0,0.0,0.0,nan,368.702048257,515.959942331,516.460012179,516.267402656,nan,nan,nan,nan
1,106,1,1,1.0,1.0,0.307333742268,0,0.0,0.0,0.0,0.322130656034,0.0643716252143,0.25775903082,0.386502281248,0.0643716252143,0.304801503507,281,0.218083397074,0.345068392493,0.612644422055,nan,nan,nan,nan,0.0,0.0,0.0,nan,368.702048257,516.960084309,517.460126218,517.267418052,nan,nan,nan,nan
1,107,0,0,0.0,1.0,0.419160797726,0,0.0,0.0,0.0,0.321991062508,0.0640832320693,0.257907830439,0.386074294577,0.0640832320693,0.344651621922,465,0.456588679398,0.37096152752,-1.0,nan,nan,nan,nan,0.0,0.0,0.0,nan,368.702048257,517.960229424,518.460255083,518.379390222,nan,nan,nan,nan
1,108,1,1,1.0,1.0,0.27507891506,0,0.0,0.0,0.0,0.322899190874,0.0644647075719,0.258434483302,0.387363898446,0.0644647075719,0.333857818351,393,-0.0489456633786,0.475102171109,-0.327443230616,nan,nan,nan,nan,0.0,0.0,0.0,nan,368.702048257,518.960338616,519.460356007,519.235417531,nan,nan,nan,nan
1,109,1,1,1.0,1.0,0.298889144789,0,0.0,0.0,0.0,0.322456410543,0.0643288244527,0.25812758609,0.386785234995,0.0643288244527,0.331042952525,95,1.0,-0.253175017597,-0.514975443931,nan,nan,nan,nan,0.0,0.0,0.0,nan,368.702048257,519.960468336,520.460522505,520.259357481,nan,nan,nan,nan
1,110,1,1,1.0,1.0,0.306819425896,0,0.0,0.0,0.0,0.322240197095,0.0640724695238,0.258167727572,0.386312666619,0.0640724695238,0.293595828582,162,1.0,-0.218739557155,0.176632971453,nan,nan,nan,nan,0.0,0.0,0.0,nan,368.702048257,520.960569546,521.460627421,521.267388972,nan,nan,nan,nan
1,111,1,1,1.0,1.0,0.482611598447,0,0.0,0.0,0.0,0.322100008266,0.0637973571418,0.258302651125,0.385897365408,0.0637973571418,0.362773389711,277,0.258470646878,0.33263615818,0.624824240443,nan,nan,nan,nan,0.0,0.0,0.0,nan,368.702048257,521.960700691,522.460759421,522.443312289,nan,nan,nan,nan
1,112,1,1,1.0,1.0,0.46645767102,0,0.0,1.0,0.0,0.323546058628,0.06529511442,0.258250944208,0.388841173048,0.06529511442,0.418629565121,77,1.0,-0.174593022316,-0.756267193339,nan,nan,nan,nan,0.0,0.0,0.0,nan,368.702048257,522.960833831,523.460878592,523.427291502,nan,nan,nan,nan
1,113,1,1,1.0,1.0,0.384247433394,1,0.0,0.0,1.0,0.324822055168,0.0663785506572,0.25844350451,0.391200605825,0.0663785506572,0.444438900954,161,1.0,-0.223158351501,0.167490545043,-19.5677685813,109.567768581,-3.63535641871,156.0,1.0,-0.244060613314,0.121041471254,1.51711584767,368.702048257,524.011021026,524.510998504,524.39526846,527.369689483,528.366683696,525.836169106,527.361364626
1,114,0,0,0.0,1.0,0.441300353967,0,0.0,0.0,0.0,0.32534794347,0.0663181302411,0.259029813229,0.391666073712,0.0663181302411,0.430668486127,206,0.994723455659,0.014051917983,0.511316161583,nan,nan,nan,nan,0.0,0.0,0.0,nan,368.702048257,528.569907412,529.069943334,529.011207766,nan,nan,nan,nan
1,115,1,1,1.0,1.0,0.345151968766,0,0.0,0.0,0.0,0.326365069878,0.0669060411016,0.259459028777,0.39327111098,0.0669060411016,0.390233252042,497,0.723174939644,0.271260599794,-1.0,nan,nan,nan,nan,0.0,0.0,0.0,nan,368.702048257,529.570024587,530.070048535,529.915176556,nan,nan,nan,nan
1,116,1,1,1.0,1.0,0.297010350507,0,0.0,0.0,0.0,0.326528434216,0.0666373422373,0.259891091979,0.393165776454,0.0666373422373,0.361154224413,105,1.0,-0.285049837405,-0.401580786678,nan,nan,nan,nan,0.0,0.0,0.0,nan,368.702048257,530.570148889,531.070203913,530.86715924,nan,nan,nan,nan
1,117,0,0,1.0,0.0,0.280853286386,0,0.0,0.0,0.0,0.326273967978,0.0664055833925,0.259868384585,0.39267955137,0.0664055833925,0.307671868553,4,0.879126049628,0.195014037372,-1.0,nan,nan,nan,nan,0.0,0.0,0.0,nan,368.702048257,531.570306263,532.070331637,531.85115955,nan,nan,nan,nan
1,118,1,1,1.0,1.0,0.312721806113,0,0.0,0.0,0.0,0.325885757024,0.0662532553738,0.25963250165,0.392139012398,0.0662532553738,0.296861814335,230,0.760023132926,0.140224214653,0.61781109556,nan,nan,nan,nan,0.0,0.0,0.0,nan,368.702048257,532.570384095,533.070432562,532.883105902,nan,nan,nan,nan
1,119,1,1,1.0,1.0,0.312533926684,0,0.0,0.0,0.0,0.325774198118,0.0659829588439,0.259791239274,0.391757156962,0.0659829588439,0.302036339728,125,1.0,-0.311567427947,-0.187805059354,nan,nan,nan,nan,0.0,0.0,0.0,nan,368.702048257,533.57055715,534.07055658,533.883091076,nan,nan,nan,nan
1,120,1,1,1.0,1.0,0.311078787316,0,0.0,0.0,0.0,0.325662935333,0.065716249788,0.259946685545,0.391379185121,0.065716249788,0.312111506704,425,0.149162615564,0.447529597292,-0.791715667876,nan,nan,nan,nan,0.0,0.0,0.0,nan,368.702048257,534.604017941,535.104039038,534.915096728,nan,nan,nan,nan
1,121,1,1,1.0,1.0,0.262973091565,0,0.0,0.0,0.0,0.325541400766,0.0654552873948,0.260086113371,0.390996688161,0.0654552873948,0.295528601855,250,0.546428449327,0.232286661223,0.654747725831,nan,nan,nan,nan,0.0,0.0,0.0,nan,368.702048257,535.604138252,536.104143384,535.867111343,nan,nan,nan,nan
1,122,1,1,1.0,1.0,0.286794154905,0,0.0,0.0,0.0,0.325024307301,0.0654299068151,0.259594400486,0.390454214116,0.0654299068151,0.286948677928,322,-0.105067232891,0.43811622051,0.383559350674,nan,nan,nan,nan,0.0,0.0,0.0,nan,368.702048257,536.604246304,537.104267687,536.891040459,nan,nan,nan,nan
1,123,1,1,1.0,1.0,0.342642822769,0,0.0,0.0,0.0,0.324710945396,0.06525230742,0.259458637976,0.389963252817,0.06525230742,0.297470023079,481,0.589289488337,0.325611856148,-1.0,nan,nan,nan,nan,0.0,0.0,0.0,nan,368.702048257,537.604374883,538.104426771,537.947017706,nan,nan,nan,nan
1,124,1,1,1.0,1.0,0.270505375694,0,0.0,0.0,0.0,0.324856733017,0.0650064599707,0.259850273047,0.389863192988,0.0650064599707,0.299980784456,368,-0.150457169737,0.477793263397,-0.0457341785459,nan,nan,nan,nan,0.0,0.0,0.0,nan,368.702048257,538.604512871,539.104538244,538.875018246,nan,nan,nan,nan
1,125,1,1,1.0,1.0,0.286340564489,0,0.0,0.0,0.0,0.32441841562,0.064926046451,0.259492369169,0.389344462071,0.064926046451,0.299829587651,12,0.942476689623,0.159273951266,-1.0,nan,nan,nan,nan,0.0,0.0,0.0,nan,368.702048257,539.604654849,540.10468735,539.890995414,nan,nan,nan,nan
1,126,1,1,1.0,1.0,0.214251298923,0,1.0,0.0,0.0,0.324113792811,0.0647547292683,0.259359063542,0.388868522079,0.0647547292683,0.257032413036,359,-0.169222339917,0.474741883077,0.0483828026834,nan,nan,nan,nan,0.0,0.0,0.0,nan,368.702048257,540.604740949,541.104785139,540.818992248,nan,nan,nan,nan
1,127,1,1,1.0,1.0,0.278090403415,1,0.0,0.0,1.0,0.323241868256,0.0652298041532,0.258012064103,0.388471672409,0.0652298041532,0.259560755609,312,-0.0464483572634,0.420925197877,0.455573212045,-126.46923439,216.46923439,-2.90576560995,308.0,-0.0186828559465,0.413097475488,0.481682330771,5.15108759142,368.702048257,541.60489148,542.104941087,541.882981884,548.605770722,549.613551897,543.438409462,548.597434747
1,128,1,1,1.0,1.0,0.42056091316,0,0.0,0.0,0.0,0.322886344911,0.0650949305851,0.257791414326,0.387981275496,0.0650949305851,0.304300871833,30,1.0,0.071945658744,-1.0,nan,nan,nan,nan,0.0,0.0,0.0,nan,368.702048257,549.814267606,550.314288419,550.23482852,nan,nan,nan,nan
1,129,1,1,1.0,1.0,0.340397962369,0,0.0,0.0,0.0,0.323649427475,0.0654079288475,0.258241498628,0.389057356323,0.0654079288475,0.346349759648,98,1.0,-0.263822910468,-0.480217789416,nan,nan,nan,nan,0.0,0.0,0.0,nan,368.702048257,550.814390484,551.31442498,551.154788446,nan,nan,nan,nan
1,130,1,1,1.0,1.0,0.324259429704,0,0.0,0.0,0.0,0.323779261079,0.0651704726311,0.258608788448,0.38894973371,0.0651704726311,0.361739435078,215,0.910639861846,0.0628947364355,0.558695148714,nan,nan,nan,nan,0.0,0.0,0.0,nan,368.702048257,551.81452391,552.314545292,552.138783339,nan,nan,nan,nan
1,131,1,1,1.0,1.0,0.292138313409,0,0.0,0.0,0.0,0.323782954684,0.0649193466287,0.258863608055,0.388702301313,0.0649193466287,0.318931901827,324,-0.114799643766,0.441158325109,0.368064040095,nan,nan,nan,nan,0.0,0.0,0.0,nan,368.702048257,552.814635953,553.314677292,553.106774266,nan,nan,nan,nan
1,132,1,1,1.0,1.0,0.339989131782,0,0.0,0.0,0.0,0.323541392537,0.0647297106556,0.258811681881,0.388271103192,0.0647297106556,0.318795624965,199,1.0,-0.0246761787097,0.468786302982,nan,nan,nan,nan,0.0,0.0,0.0,nan,368.702048257,553.814761111,554.31480074,554.154750243,nan,nan,nan,nan
1,133,1,1,1.0,1.0,0.371779534966,0,0.0,0.0,0.0,0.323665996622,0.0644998250829,0.259166171539,0.388165821705,0.0644998250829,0.334635660052,264,0.394966959701,0.287889713878,0.650717615019,nan,nan,nan,nan,0.0,0.0,0.0,nan,368.702048257,554.814929319,555.31496353,555.186708854,nan,nan,nan,nan
1,134,1,1,1.0,1.0,0.315759808291,0,0.0,0.0,0.0,0.324027752549,0.0643911641495,0.2596365884,0.388418916699,0.0643911641495,0.34250949168,72,1.0,-0.149607777062,-0.853203742106,nan,nan,nan,nan,0.0,0.0,0.0,nan,368.702048257,555.815014848,556.315082986,556.130774656,nan,nan,nan,nan
1,135,1,1,1.0,1.0,0.275525663514,0,0.0,0.0,0.0,0.323966051473,0.0641543950107,0.259811656462,0.388120446483,0.0641543950107,0.321021668923,133,1.0,-0.306259573676,-0.105336427414,nan,nan,nan,nan,0.0,0.0,0.0,nan,368.702048257,556.815184481,557.315193034,557.090710144,nan,nan,nan,nan
1,136,1,1,1.0,1.0,0.291390501894,0,0.0,0.0,0.0,0.323607233784,0.0640511640053,0.259556069779,0.387658397789,0.0640511640053,0.294225324566,279,0.238157575771,0.338930353633,0.618978422254,nan,nan,nan,nan,0.0,0.0,0.0,nan,368.702048257,557.815301086,558.315308499,558.106691588,nan,nan,nan,nan
1,137,1,1,1.0,1.0,0.267266379204,0,0.0,0.0,0.0,0.32337034605,0.0638745757136,0.259495770336,0.387244921763,0.0638745757136,0.278060848204,160,1.0,-0.227501418013,0.158297521075,nan,nan,nan,nan,0.0,0.0,0.0,nan,368.702048257,558.815398305,559.315457605,559.082664684,nan,nan,nan,nan
1,138,1,1,1.0,1.0,0.275129377842,0,0.0,0.0,0.0,0.322960828043,0.0638199699305,0.259140858113,0.386780797974,0.0638199699305,0.27792875298,208,0.97651257568,0.025020743352,0.522574479073,nan,nan,nan,nan,0.0,0.0,0.0,nan,368.702048257,559.815526028,560.31557364,560.090655406,nan,nan,nan,nan
1,139,1,1,1.0,1.0,0.362945778761,0,0.0,0.0,0.0,0.322614223332,0.0637176005766,0.258896622755,0.386331823908,0.0637176005766,0.301780511936,404,0.0124894593597,0.468746268022,-0.463349101315,nan,nan,nan,nan,0.0,0.0,0.0,nan,368.702048257,560.815670858,561.315723886,561.178616637,nan,nan,nan,nan
1,140,1,1,1.0,1.0,0.274787545204,0,0.0,0.0,0.0,0.322904378407,0.063579420337,0.25932495807,0.386483798744,0.063579420337,0.304287567269,39,1.0,0.0253789930673,-1.0,nan,nan,nan,nan,0.0,0.0,0.0,nan,368.702048257,561.815814547,562.315827947,562.090602092,nan,nan,nan,nan
1,141,1,1,1.0,1.0,0.306662907358,0,0.0,0.0,0.0,0.322560686741,0.0634813992019,0.259079287539,0.386042085943,0.0634813992019,0.314798743774,313,-0.0530221528698,0.42279583272,0.448797959603,nan,nan,nan,nan,0.0,0.0,0.0,nan,368.702048257,562.815930582,563.315982185,563.122593489,nan,nan,nan,nan
1,142,1,1,1.0,1.0,0.274576002732,0,0.0,0.0,0.0,0.322447936533,0.0632699537196,0.259177982813,0.385717890252,0.0632699537196,0.285342151765,269,0.34171296506,0.305888347675,0.643262349404,nan,nan,nan,nan,0.0,0.0,0.0,nan,368.702048257,563.816059446,564.316101356,564.090635449,nan,nan,nan,nan
1,143,1,1,1.0,1.0,0.280344386585,0,0.0,0.0,0.0,0.322110810238,0.0631737407738,0.258937069465,0.385284551012,0.0631737407738,0.287194432225,115,1.0,-0.305166285737,-0.293172749504,nan,nan,nan,nan,0.0,0.0,0.0,nan,368.702048257,564.866223834,565.366212715,565.146568221,nan,nan,nan,nan
1,144,0,0,1.0,0.0,0.336217002943,0,0.0,0.0,0.0,0.321818737346,0.0630486043845,0.258770132961,0.38486734173,0.0630486043845,0.29704579742,298,0.0600896634305,0.391050340636,0.53969689008,nan,nan,nan,nan,0.0,0.0,0.0,nan,368.702048257,565.866334737,566.366361821,566.20255174,nan,nan,nan,nan
1,145,1,1,1.0,1.0,0.39206880657,0,0.0,0.0,0.0,0.321918725301,0.0628406804956,0.259078044806,0.384759405797,0.0628406804956,0.336210065366,73,1.0,-0.1546788618,-0.830916872461,nan,nan,nan,nan,0.0,0.0,0.0,nan,368.702048257,566.866457899,567.366466167,567.258526706,nan,nan,nan,nan
1,146,1,1,1.0,1.0,0.383931259159,0,0.0,0.0,0.0,0.322402518965,0.0628921385229,0.259510380442,0.385294657488,0.0628921385229,0.370739022891,347,-0.174938837379,0.46723881498,0.167157479366,nan,nan,nan,nan,0.0,0.0,0.0,nan,368.702048257,567.866579351,568.366615558,568.25051061,nan,nan,nan,nan
1,147,1,1,1.0,1.0,0.335805891547,0,0.0,0.0,0.0,0.322823948693,0.0628814885313,0.259942460161,0.385705437224,0.0628814885313,0.370601985759,1,0.854939129564,0.207877072944,-1.0,nan,nan,nan,nan,0.0,0.0,0.0,nan,368.702048257,568.866685407,569.366731023,569.202491299,nan,nan,nan,nan
1,148,1,1,1.0,1.0,0.31966450857,0,0.0,0.0,0.0,0.322912261229,0.0626763253137,0.260235935915,0.385588586543,0.0626763253137,0.346467219759,425,0.149162615564,0.447529597292,-0.791715667876,nan,nan,nan,nan,0.0,0.0,0.0,nan,368.702048257,569.866857321,570.366854185,570.18652183,nan,nan,nan,nan
1,149,1,1,1.0,1.0,0.311520689167,0,0.0,0.0,0.0,0.322890316954,0.0624647887077,0.260425528247,0.385355105662,0.0624647887077,0.322330363095,371,-0.14179360683,0.478331938097,-0.0779732583494,nan,nan,nan,nan,0.0,0.0,0.0,nan,368.702048257,570.86694171,571.366975352,571.178462399,nan,nan,nan,nan
1,150,1,1,1.0,1.0,0.311393250246,0,0.0,0.0,0.0,0.322814010727,0.0622617432092,0.260552267518,0.385075753937,0.0622617432092,0.314192815994,471,0.506014005179,0.354993781952,-1.0,nan,nan,nan,nan,0.0,0.0,0.0,nan,368.702048257,571.867083119,572.367146695,572.178476369,nan,nan,nan,nan
1,151,0,0,0.0,1.0,0.391189279966,0,0.0,0.0,0.0,0.322737872324,0.0620608163907,0.260677055934,0.384798688715,0.0620608163907,0.33803440646,308,-0.0186828559465,0.413097475488,0.481682330771,nan,nan,nan,nan,0.0,0.0,0.0,nan,368.702048257,572.867223957,573.367260735,573.258413237,nan,nan,nan,nan
1,152,1,1,1.0,1.0,0.269729909487,0,0.0,0.0,0.0,0.323191192905,0.0621036467794,0.261087546125,0.385294839684,0.0621036467794,0.324104146566,461,0.423959648591,0.380927367285,-1.0,nan,nan,nan,nan,0.0,0.0,0.0,nan,368.702048257,573.900697007,574.400697292,574.170426917,nan,nan,nan,nan
1,153,1,1,1.0,1.0,0.445587940048,0,0.0,0.0,0.0,0.322839473935,0.0620497259163,0.260789748019,0.384889199851,0.0620497259163,0.368835709834,87,1.0,-0.220959007447,-0.612675615602,nan,nan,nan,nan,0.0,0.0,0.0,nan,368.702048257,574.900795651,575.400824731,575.346383591,nan,nan,nan,nan
1,154,1,1,1.0,1.0,0.269445382059,0,0.0,0.0,0.0,0.323641751491,0.0626325688163,0.261009182675,0.386274320307,0.0626325688163,0.328254410531,180,1.0,-0.129278616986,0.331238955499,nan,nan,nan,nan,0.0,0.0,0.0,nan,368.702048257,575.900921094,576.400947038,576.170366476,nan,nan,nan,nan
1,155,1,1,1.0,1.0,0.285277719609,0,0.0,0.0,0.0,0.323289827014,0.0625804672101,0.260709359804,0.385870294224,0.0625804672101,0.333437013905,135,1.0,-0.303502321856,-0.0849788702499,nan,nan,nan,nan,0.0,0.0,0.0,nan,368.702048257,576.901053665,577.401082459,577.186331384,nan,nan,nan,nan
1,156,1,1,1.0,1.0,0.3252338944,0,0.0,0.0,0.0,0.323044587612,0.0624524639449,0.260592123667,0.385497051557,0.0624524639449,0.293318998689,275,0.279002393219,0.326185254474,0.630178474337,nan,nan,nan,nan,0.0,0.0,0.0,nan,368.702048257,577.901178822,578.401224438,578.226412717,nan,nan,nan,nan
1,157,1,1,1.0,1.0,0.36501815496,0,0.0,0.0,0.0,0.32305862163,0.0622522191717,0.260806402458,0.385310840801,0.0622522191717,0.325176589657,491,0.673033477965,0.292707709811,-1.0,nan,nan,nan,nan,0.0,0.0,0.0,nan,368.702048257,578.901295998,579.401359004,579.266314153,nan,nan,nan,nan
1,158,1,1,1.0,1.0,0.282856953796,0,0.0,0.0,0.0,0.323325879804,0.0621433641394,0.261182515664,0.385469243943,0.0621433641394,0.324369667719,9,0.918933560847,0.172916688009,-1.0,nan,nan,nan,nan,0.0,0.0,0.0,nan,368.702048257,579.951479487,580.451468938,580.23433644,nan,nan,nan,nan
1,159,0,0,0.0,1.0,0.386693287175,0,0.0,0.0,0.0,0.323069747361,0.0620294748486,0.261040272512,0.385099222209,0.0620294748486,0.344856131977,175,1.0,-0.155629953633,0.290361762956,nan,nan,nan,nan,0.0,0.0,0.0,nan,368.702048257,580.951574424,581.451625742,581.338267711,nan,nan,nan,nan
1,160,1,1,1.0,1.0,0.266550783534,0,0.0,0.0,0.0,0.32346989541,0.0620383379379,0.261431557472,0.385508233348,0.0620383379379,0.312033674835,386,-0.0833946583454,0.477495592553,-0.245424736514,nan,nan,nan,nan,0.0,0.0,0.0,nan,368.702048257,581.951714693,582.45172125,582.218265476,nan,nan,nan,nan
1,161,1,1,1.0,1.0,0.290409765672,0,0.0,0.0,0.0,0.32311415096,0.0620066347821,0.261107516178,0.385120785743,0.0620066347821,0.314551278794,442,0.273907262724,0.421095538958,-1.0,nan,nan,nan,nan,0.0,0.0,0.0,nan,368.702048257,582.951824455,583.451858382,583.242234221,nan,nan,nan,nan
1,162,1,1,1.0,1.0,0.322263745125,0,0.0,0.0,0.0,0.322911018133,0.0618671475149,0.261043870618,0.384778165648,0.0618671475149,0.293074764777,118,1.0,-0.308588151016,-0.261285249573,nan,nan,nan,nan,0.0,0.0,0.0,nan,368.702048257,583.951952179,584.452033717,584.274215924,nan,nan,nan,nan
1,163,1,1,1.0,1.0,0.250096933451,0,0.0,0.0,0.0,0.32290702262,0.0616759247795,0.261231097841,0.3845829474,0.0616759247795,0.287590148083,26,1.0,0.0920921692153,-1.0,nan,nan,nan,nan,0.0,0.0,0.0,nan,368.702048257,584.952088456,585.452134071,585.202185389,nan,nan,nan,nan
1,164,1,1,1.0,1.0,0.289969574194,0,0.0,0.0,0.0,0.322460334957,0.0617487376834,0.260711597273,0.38420907264,0.0617487376834,0.28744341759,268,0.35230222188,0.302367520405,0.645005310408,nan,nan,nan,nan,0.0,0.0,0.0,nan,368.702048257,585.952214754,586.452232715,586.242184328,nan,nan,nan,nan
1,165,1,1,1.0,1.0,0.281821193639,0,0.0,0.0,0.0,0.322262220562,0.0616121320282,0.260650088533,0.38387435259,0.0616121320282,0.273962567095,421,0.121471671064,0.452518040197,-0.712610339232,nan,nan,nan,nan,0.0,0.0,0.0,nan,368.702048257,586.95233535,587.452358728,587.234156544,nan,nan,nan,nan
1,166,1,1,1.0,1.0,0.232045964804,0,0.0,0.0,0.0,0.322017123429,0.0615052869874,0.260511836441,0.383522410416,0.0615052869874,0.267945577546,152,1.0,-0.259184487343,0.0830625546756,nan,nan,nan,nan,0.0,0.0,0.0,nan,368.702048257,587.994161197,588.494193128,588.226207161,nan,nan,nan,nan
1,167,1,1,1.0,1.0,0.279857439455,0,0.0,0.0,0.0,0.321475128497,0.0617137093737,0.259761419124,0.383188837871,0.0617137093737,0.264574865966,37,1.0,0.0358565504353,-1.0,nan,nan,nan,nan,0.0,0.0,0.0,nan,368.702048257,588.994263832,589.494315435,589.274121271,nan,nan,nan,nan
1,168,1,1,1.0,1.0,0.239713385701,0,1.0,0.0,0.0,0.321225920779,0.0616123801661,0.259613540612,0.382838300945,0.0616123801661,0.250538929986,460,0.415848916989,0.383334931935,-1.0,nan,nan,nan,nan,0.0,0.0,0.0,nan,368.702048257,589.994387849,590.494420066,590.234101235,nan,nan,nan,nan
1,169,1,1,1.0,1.0,0.255597325508,1,0.0,0.0,1.0,0.320740727117,0.0617479035742,0.258992823543,0.382488630692,0.0617479035742,0.258389383554,192,1.0,-0.0635997558896,0.421658406928,-56.1717040823,146.171704082,11.1717040823,208.0,0.97651257568,0.025020743352,0.522574479073,12.0851533026,368.702048257,590.994505595,591.494572878,591.25010292,604.929585685,605.928573872,592.828072899,604.921255126
1,170,1,1,1.0,1.0,0.480065105017,0,0.0,0.0,0.0,0.320355263203,0.0617673414999,0.258587921703,0.382122604702,0.0617673414999,0.325125272075,4,0.879126049628,0.195014037372,-1.0,nan,nan,nan,nan,0.0,0.0,0.0,nan,368.702048257,606.129762844,606.629826421,606.609827949,nan,nan,nan,nan
1,171,1,1,1.0,1.0,0.287934545893,0,0.0,0.0,0.0,0.32129473286,0.0627847277917,0.258510005068,0.384079460652,0.0627847277917,0.341198992139,172,1.0,-0.170984061773,0.265024678188,nan,nan,nan,nan,0.0,0.0,0.0,nan,368.702048257,607.129907959,607.629930482,607.417842505,nan,nan,nan,nan
1,172,1,1,1.0,1.0,0.303755764384,0,0.0,0.0,0.0,0.321099644048,0.0626525339297,0.258447110118,0.383752177977,0.0626525339297,0.357251805098,280,0.228089347314,0.342018854333,0.61587222022,nan,nan,nan,nan,0.0,0.0,0.0,nan,368.702048257,608.130036823,608.630062482,608.433792588,nan,nan,nan,nan
1,173,1,1,1.0,1.0,0.255607303698,0,0.0,0.0,0.0,0.320998807538,0.0624840539007,0.258514753637,0.383482861439,0.0624840539007,0.282432537992,217,0.891250405156,0.0735373331823,0.568048345461,nan,nan,nan,nan,0.0,0.0,0.0,nan,368.702048257,609.130172815,609.630200754,609.385780119,nan,nan,nan,nan
1,174,0,0,1.0,0.0,0.223433729727,0,0.0,0.0,0.0,0.320620821967,0.0625001056337,0.258120716333,0.3831209276,0.0625001056337,0.260932265936,327,-0.128086156831,0.445480682368,0.344176439252,nan,nan,nan,nan,0.0,0.0,0.0,nan,368.702048257,610.130339882,610.630349006,610.353773612,nan,nan,nan,nan
1,175,1,1,1.0,1.0,0.223359889351,0,0.0,0.0,0.0,0.320062275459,0.062751772504,0.257310502955,0.382814047963,0.062751772504,0.234133640925,182,1.0,-0.118523835432,0.347089474713,nan,nan,nan,nan,0.0,0.0,0.0,nan,368.702048257,611.130425982,611.630474734,611.353785871,nan,nan,nan,nan
1,176,1,1,1.0,1.0,0.271206431091,0,0.0,0.0,0.0,0.319509690396,0.0629953511619,0.256514339234,0.382505041558,0.0629953511619,0.239333350056,48,1.0,-0.0224273256894,-1.0,nan,nan,nan,nan,0.0,0.0,0.0,nan,368.702048257,612.130532323,612.630574233,612.401738754,nan,nan,nan,nan
1,177,1,1,1.0,1.0,0.327004066668,0,0.0,0.0,0.0,0.319235240059,0.0629209661598,0.256314273899,0.382156206219,0.0629209661598,0.273856795703,334,-0.152796554809,0.454467054946,0.285576400052,nan,nan,nan,nan,0.0,0.0,0.0,nan,368.702048257,613.130703097,613.630739875,613.457707163,nan,nan,nan,nan
1,178,1,1,1.0,1.0,0.278924314771,0,0.0,0.0,0.0,0.319279131735,0.0627456734771,0.256533458258,0.382024805212,0.0627456734771,0.292378270843,417,0.0945046041228,0.457053563907,-0.645720198395,nan,nan,nan,nan,0.0,0.0,0.0,nan,368.702048257,614.130801456,614.630828825,614.40972577,nan,nan,nan,nan
1,179,1,1,1.0,1.0,0.310717853718,0,0.0,0.0,0.0,0.31905241928,0.0626418310226,0.256410588257,0.381694250303,0.0626418310226,0.305548745052,163,1.0,-0.214247802105,0.185723682048,nan,nan,nan,nan,0.0,0.0,0.0,nan,368.702048257,615.130939728,615.630955694,615.441657582,nan,nan,nan,nan
1,180,1,1,1.0,1.0,0.262623846531,0,0.0,0.0,0.0,0.319005857461,0.0624696975846,0.256536159877,0.381475555046,0.0624696975846,0.284088671673,476,0.547545041103,0.340739382997,-1.0,nan,nan,nan,nan,0.0,0.0,0.0,nan,368.702048257,616.131086838,616.631089405,616.393710685,nan,nan,nan,nan
1,181,1,1,1.0,1.0,0.286440918688,0,0.0,0.0,0.0,0.318692624067,0.0624367310095,0.256255893058,0.381129355077,0.0624367310095,0.286594206312,400,-0.0107874812989,0.471427301814,-0.412692688905,nan,nan,nan,nan,0.0,0.0,0.0,nan,368.702048257,617.131183487,617.631243642,617.417624406,nan,nan,nan,nan
1,182,0,0,0.0,1.0,0.398289355915,0,0.0,0.0,0.0,0.318514437849,0.0623098918186,0.256204546031,0.380824329668,0.0623098918186,0.315784707045,149,1.0,-0.269478519393,0.0541436597792,nan,nan,nan,nan,0.0,0.0,0.0,nan,368.702048257,618.131333733,618.631362528,618.529623089,nan,nan,nan,nan
1,183,1,1,1.0,1.0,0.294126871042,0,0.0,0.0,0.0,0.318952761575,0.0624176672761,0.256535094299,0.381370428851,0.0624176672761,0.326285715215,496,0.714833717156,0.274923884212,-1.0,nan,nan,nan,nan,0.0,0.0,0.0,nan,368.702048257,619.131451764,619.631507643,619.425578635,nan,nan,nan,nan
1,184,1,1,1.0,1.0,0.333987252321,0,0.0,0.0,0.0,0.318817100971,0.0622737926614,0.25654330831,0.381090893633,0.0622737926614,0.342134493093,353,-0.175041255135,0.471490071959,0.108799216003,nan,nan,nan,nan,0.0,0.0,0.0,nan,368.702048257,620.131609423,620.631604006,620.465596675,nan,nan,nan,nan
1,185,1,1,1.0,1.0,0.349893430714,0,0.0,0.0,0.0,0.318899547446,0.062114353867,0.256785193579,0.381013901313,0.062114353867,0.326002518026,198,1.0,-0.0302354974571,0.462326941081,nan,nan,nan,nan,0.0,0.0,0.0,nan,368.702048257,621.131679272,621.631755108,621.481572703,nan,nan,nan,nan
1,186,1,1,1.0,1.0,0.39633757621,0,0.0,0.0,0.0,0.31906708195,0.0619879208904,0.25707916106,0.38105500284,0.0619879208904,0.360072753082,458,0.399688045963,0.388050214986,-1.0,nan,nan,nan,nan,0.0,0.0,0.0,nan,368.702048257,622.165199934,622.665202214,622.56153751,nan,nan,nan,nan
1,187,1,1,1.0,1.0,0.332286358811,0,0.0,0.0,0.0,0.319482514715,0.0620787550801,0.257403759635,0.381561269795,0.0620787550801,0.359505788578,164,1.0,-0.209685835145,0.194761549991,nan,nan,nan,nan,0.0,0.0,0.0,nan,368.702048257,623.165285463,623.665314543,623.497571822,nan,nan,nan,nan
1,188,1,1,1.0,1.0,0.348116985988,0,0.0,0.0,0.0,0.319550984469,0.0619195882958,0.257631396174,0.381470572765,0.0619195882958,0.358913640336,68,1.0,-0.129018143495,-0.972903198114,nan,nan,nan,nan,0.0,0.0,0.0,nan,368.702048257,624.165404349,624.665443407,624.513521335,nan,nan,nan,nan
1,189,1,1,1.0,1.0,0.347943646368,0,0.0,0.0,0.0,0.319702931286,0.0617896353322,0.257913295954,0.381492566618,0.0617896353322,0.342782330389,259,0.44882283482,0.268906983076,0.655011783756,nan,nan,nan,nan,0.0,0.0,0.0,nan,368.702048257,625.16555488,625.665573697,625.513498527,nan,nan,nan,nan
1,190,1,1,1.0,1.0,0.277680717874,0,0.0,0.0,0.0,0.319852353059,0.0616600003559,0.258192352703,0.381512353415,0.0616600003559,0.324580450077,444,0.289241202529,0.417409780569,-1.0,nan,nan,nan,nan,0.0,0.0,0.0,nan,368.702048257,626.179790385,626.682376507,626.457471102,nan,nan,nan,nan
1,191,1,1,1.0,1.0,0.362974003889,0,0.0,0.0,0.0,0.319630397084,0.0615731786816,0.258057218403,0.381203575766,0.0615731786816,0.329532789377,355,-0.173737462994,0.472683863687,0.0888799762457,nan,nan,nan,nan,0.0,0.0,0.0,nan,368.702048257,627.182483704,627.682511644,627.545457708,nan,nan,nan,nan
1,192,1,1,1.0,1.0,0.298813879024,0,0.0,0.0,0.0,0.319857326963,0.0614913919636,0.258365934999,0.381348718926,0.0614913919636,0.313156200262,437,0.23613482661,0.429770237144,-1.0,nan,nan,nan,nan,0.0,0.0,0.0,nan,368.702048257,628.182616559,628.682633095,628.481430438,nan,nan,nan,nan
1,193,1,1,1.0,1.0,0.250692502595,0,0.0,0.0,0.0,0.319747725671,0.0613497510804,0.258397974591,0.381097476752,0.0613497510804,0.304160128503,112,1.0,-0.300501516081,-0.325324861792,nan,nan,nan,nan,0.0,0.0,0.0,nan,368.702048257,629.182706365,629.682751696,629.433398868,nan,nan,nan,nan
1,194,1,1,1.0,1.0,0.290542336181,0,0.0,0.0,0.0,0.319389926588,0.0613911257449,0.257998800843,0.380781052333,0.0613911257449,0.280016239267,347,-0.174938837379,0.46723881498,0.167157479366,nan,nan,nan,nan,0.0,0.0,0.0,nan,368.702048257,630.182850054,630.682872292,630.473392391,nan,nan,nan,nan
1,195,1,1,1.0,1.0,0.282397091389,0,0.0,0.0,0.0,0.319241227669,0.0612675333907,0.257973694278,0.380508761059,0.0612675333907,0.274543976722,14,0.95801504718,0.150023555696,-1.0,nan,nan,nan,nan,0.0,0.0,0.0,nan,368.702048257,631.18298291,631.683033943,631.465380001,nan,nan,nan,nan
1,196,1,1,1.0,1.0,0.394264915492,0,0.0,0.0,0.0,0.31905228338,0.0611668753393,0.257885408041,0.380219158719,0.0611668753393,0.322401447687,369,-0.147694689129,0.477999187239,-0.0564338676883,nan,nan,nan,nan,0.0,0.0,0.0,nan,368.702048257,632.183102366,632.683122893,632.577367282,nan,nan,nan,nan
1,197,1,1,1.0,1.0,0.298127077986,0,0.0,0.0,0.0,0.319436021299,0.0612455109829,0.258190510316,0.380681532282,0.0612455109829,0.324929694956,155,1.0,-0.2479831371,0.111611878621,nan,nan,nan,nan,0.0,0.0,0.0,nan,368.702048257,633.183232941,633.683268293,633.481360019,nan,nan,nan,nan
1,198,1,1,1.0,1.0,0.457941513974,0,0.0,1.0,0.0,0.319327854074,0.0611086341813,0.258219219893,0.380436488255,0.0611086341813,0.383444502484,265,0.384259149088,0.291568309415,0.649478858709,nan,nan,nan,nan,0.0,0.0,0.0,nan,368.702048257,634.183386608,634.683402574,634.641328122,nan,nan,nan,nan
1,199,0,0,0.0,1.0,0.393834987655,1,0.0,0.0,1.0,0.320027923063,0.0617410258629,0.2582868972,0.381768948926,0.0617410258629,0.383301193205,393,-0.0489456633786,0.475102171109,-0.327443230616,167.714083919,282.285916081,5.957791081,401.0,-0.00506340639596,0.470796889516,-0.425203102762,2.95898981858,368.702048257,635.183490954,635.683540847,635.577325942,639.975718218,640.981180978,637.00036407,639.967386805
1,200,1,1,1.0,1.0,0.312977253925,0,0.0,0.0,0.0,0.320398812835,0.0618064353576,0.258592377478,0.382205248193,0.0618064353576,0.388251251852,436,0.228681708805,0.431413732101,-1.0,nan,nan,nan,nan,0.0,0.0,0.0,nan,368.702048257,641.184231353,641.684307475,641.497208607,nan,nan,nan,nan
1,201,1,1,1.0,1.0,0.304828872904,0,0.0,0.0,0.0,0.320361705041,0.0616539479275,0.258707757113,0.382015652968,0.0616539479275,0.337213704828,117,1.0,-0.307587969795,-0.271886539361,nan,nan,nan,nan,0.0,0.0,0.0,nan,368.702048257,642.184362214,642.684402127,642.489191086,nan,nan,nan,nan
1,202,1,1,1.0,1.0,0.216690595727,0,0.0,0.0,0.0,0.320284427269,0.0615100981695,0.258774329099,0.381794525438,0.0615100981695,0.278165574186,161,1.0,-0.223158351501,0.167490545043,nan,nan,nan,nan,0.0,0.0,0.0,nan,368.702048257,643.184503337,643.684560357,643.401193933,nan,nan,nan,nan
1,203,0,0,1.0,0.0,0.240471745376,0,0.0,0.0,0.0,0.319771586519,0.061786941583,0.257984644936,0.381558528102,0.061786941583,0.253997071336,319,-0.0891891826932,0.433308674125,0.406137099325,nan,nan,nan,nan,0.0,0.0,0.0,nan,368.702048257,644.184683804,644.684699484,644.425155549,nan,nan,nan,nan
1,204,1,1,1.0,1.0,0.280326711014,0,0.0,0.0,0.0,0.319380946907,0.0618841269621,0.257496819945,0.381265073869,0.0618841269621,0.245829684039,27,1.0,0.0870912575778,-1.0,nan,nan,nan,nan,0.0,0.0,0.0,nan,368.702048257,645.184790145,645.684798128,645.465116856,nan,nan,nan,nan
1,205,1,1,1.0,1.0,0.264227236621,0,0.0,0.0,0.0,0.319189504574,0.0617924945546,0.25739701002,0.380981999129,0.0617924945546,0.261675231004,417,0.0945046041228,0.457053563907,-0.645720198395,nan,nan,nan,nan,0.0,0.0,0.0,nan,368.702048257,646.184923001,646.684914163,646.449150238,nan,nan,nan,nan
1,206,1,1,1.0,1.0,0.27206400549,0,0.0,0.0,0.0,0.31892139595,0.0617604278242,0.257160968126,0.380681823774,0.0617604278242,0.272205984375,13,0.950262168777,0.154664060346,-1.0,nan,nan,nan,nan,0.0,0.0,0.0,nan,368.702048257,647.185038751,647.685042172,647.457102756,nan,nan,nan,nan
1,207,1,1,1.0,1.0,0.271991590504,0,0.0,0.0,0.0,0.31869393289,0.0616963594284,0.256997573461,0.380390292318,0.0616963594284,0.269427610872,168,1.0,-0.190790017254,0.230361799274,nan,nan,nan,nan,0.0,0.0,0.0,nan,368.702048257,648.185131122,648.68516904,648.457122713,nan,nan,nan,nan
1,208,1,1,1.0,1.0,0.343768103514,0,0.0,0.0,0.0,0.318468317709,0.0616322806587,0.25683603705,0.380100598368,0.0616322806587,0.295941233169,319,-0.0891891826932,0.433308674125,0.406137099325,nan,nan,nan,nan,0.0,0.0,0.0,nan,368.702048257,649.185269395,649.685331546,649.529037498,nan,nan,nan,nan
1,209,1,1,1.0,1.0,0.351650488097,0,0.0,0.0,0.0,0.318589951295,0.0615088475433,0.257081103751,0.380098798838,0.0615088475433,0.322470060705,27,1.0,0.0870912575778,-1.0,nan,nan,nan,nan,0.0,0.0,0.0,nan,368.702048257,650.185386855,650.685456704,650.537037343,nan,nan,nan,nan
1,210,1,1,1.0,1.0,0.311478779651,0,0.0,0.0,0.0,0.318748135681,0.0614039157325,0.257344219949,0.380152051414,0.0614039157325,0.335632457087,331,-0.143297839787,0.450801753776,0.311166711333,nan,nan,nan,nan,0.0,0.0,0.0,nan,368.702048257,651.185527408,651.685551072,651.497006188,nan,nan,nan,nan
1,211,0,0,0.0,1.0,0.399326827377,0,0.0,0.0,0.0,0.3187135197,0.0612595855731,0.257453934127,0.379973105273,0.0612595855731,0.354152031709,166,1.0,-0.20036215083,0.21267421211,nan,nan,nan,nan,0.0,0.0,0.0,nan,368.702048257,652.185682216,652.685711011,652.585009044,nan,nan,nan,nan
1,212,1,1,1.0,1.0,0.239217314869,0,0.0,0.0,0.0,0.319095573291,0.0613645172778,0.257731056013,0.380460090569,0.0613645172778,0.316674307299,305,0.00361192545304,0.406859252708,0.500196907155,nan,nan,nan,nan,0.0,0.0,0.0,nan,368.702048257,653.185776299,653.685818208,653.424993614,nan,nan,nan,nan
1,213,1,1,1.0,1.0,0.255109808408,0,0.0,0.0,0.0,0.318718789053,0.0614637828332,0.25725500622,0.380182571886,0.0614637828332,0.297884650218,257,0.470472903111,0.261039853404,0.655841377839,nan,nan,nan,nan,0.0,0.0,0.0,nan,368.702048257,654.185895754,654.685933387,654.441005563,nan,nan,nan,nan
1,214,0,0,1.0,0.0,0.262936313637,0,0.0,0.0,0.0,0.318420155341,0.0614733037163,0.256946851625,0.379893459057,0.0614733037163,0.252421145638,212,0.93926288676,0.0467731277665,0.543851001166,nan,nan,nan,nan,0.0,0.0,0.0,nan,368.702048257,655.186037163,655.686091332,655.448973477,nan,nan,nan,nan
1,215,1,1,1.0,1.0,0.270802447572,0,0.0,0.0,0.0,0.318160885053,0.0614461262874,0.256714758765,0.37960701134,0.0614461262874,0.262949523206,389,-0.0691208065164,0.476626077068,-0.280234315682,nan,nan,nan,nan,0.0,0.0,0.0,nan,368.702048257,656.186146641,656.68620138,656.456949088,nan,nan,nan,nan
1,216,1,1,1.0,1.0,0.286666715983,0,0.0,0.0,0.0,0.317940613251,0.0613876908773,0.256552922373,0.379328304128,0.0613876908773,0.273468492397,445,0.296953900578,0.415520102116,-1.0,nan,nan,nan,nan,0.0,0.0,0.0,nan,368.702048257,657.186311142,657.686350486,657.472977858,nan,nan,nan,nan
1,217,1,1,1.0,1.0,0.254503119737,0,0.0,0.0,0.0,0.317795826689,0.0612822090569,0.256513617632,0.379078035746,0.0612822090569,0.270657427764,240,0.654373017221,0.188015059697,0.642463954019,nan,nan,nan,nan,0.0,0.0,0.0,nan,368.702048257,658.186410071,658.686477354,658.440913191,nan,nan,nan,nan
1,218,1,1,1.0,1.0,0.262348156888,0,0.0,0.0,0.0,0.317504155229,0.06129093128,0.256213223949,0.378795086509,0.06129093128,0.267839330869,42,1.0,0.00954878589686,-1.0,nan,nan,nan,nan,0.0,0.0,0.0,nan,368.702048257,659.186545493,659.686590253,659.44889365,nan,nan,nan,nan
1,219,1,1,1.0,1.0,0.302149808966,0,0.0,0.0,0.0,0.317251146062,0.0612636695469,0.255987476515,0.378514815609,0.0612636695469,0.273000361864,94,1.0,-0.249439013202,-0.526745155233,nan,nan,nan,nan,0.0,0.0,0.0,nan,368.702048257,660.18669745,660.68672596,660.488847259,nan,nan,nan,nan
1,220,1,1,1.0,1.0,0.310051009525,0,0.0,0.0,0.0,0.317182190185,0.0611321168287,0.256050073356,0.378314307013,0.0611321168287,0.291516325126,396,-0.0330153705648,0.473684876347,-0.363523780775,nan,nan,nan,nan,0.0,0.0,0.0,nan,368.702048257,661.186809208,661.686857104,661.496860218,nan,nan,nan,nan
1,221,1,1,1.0,1.0,0.325858543627,0,0.0,0.0,0.0,0.317149775727,0.0609949082311,0.256154867496,0.378144683958,0.0609949082311,0.312686454039,180,1.0,-0.129278616986,0.331238955499,nan,nan,nan,nan,0.0,0.0,0.0,nan,368.702048257,662.186953182,662.68698996,662.512811726,nan,nan,nan,nan
1,222,1,1,1.0,1.0,0.405726417899,0,0.0,0.0,0.0,0.317189181917,0.0608595609849,0.256329620932,0.378048742902,0.0608595609849,0.34721199035,441,0.266287261384,0.422891888867,-1.0,nan,nan,nan,nan,0.0,0.0,0.0,nan,368.702048257,663.187094021,663.68707777,663.592820439,nan,nan,nan,nan
1,223,1,1,1.0,1.0,0.405568473507,0,0.0,1.0,0.0,0.317587998295,0.0610110894565,0.256576908839,0.378599087752,0.0610110894565,0.379051145011,141,1.0,-0.291952736687,-0.024586852943,nan,nan,nan,nan,0.0,0.0,0.0,nan,368.702048257,664.187217753,664.687238565,664.592786227,nan,nan,nan,nan
1,224,1,1,1.0,1.0,0.349436704069,1,0.0,0.0,1.0,0.317982529574,0.0611573075361,0.256825222038,0.37913983711,0.0611573075361,0.386910531825,216,0.900975005756,0.0682271079607,0.563426584804,-62.5344999059,152.534499906,0.659499905921,217.0,0.891250405156,0.0735373331823,0.568048345461,3.16743338993,368.702048257,665.187327801,665.687371136,665.536764505,670.20459247,671.213485526,667.020836374,670.196282438
1,225,1,1,1.0,1.0,0.299543444533,0,0.0,0.0,0.0,0.318122949996,0.0610566618935,0.257066288102,0.379179611889,0.0610566618935,0.35151620737,173,1.0,-0.165909522591,0.273535192888,nan,nan,nan,nan,0.0,0.0,0.0,nan,368.702048257,671.41310532,671.913156067,671.712648764,nan,nan,nan,nan
1,226,1,1,1.0,1.0,0.267392962705,0,0.0,0.0,0.0,0.318040374416,0.0609333639389,0.257107010477,0.378973738355,0.0609333639389,0.305457703769,90,1.0,-0.233635786423,-0.574971871003,nan,nan,nan,nan,0.0,0.0,0.0,nan,368.702048257,672.41326469,672.913289208,672.680657652,nan,nan,nan,nan
1,227,1,1,1.0,1.0,0.291300125886,0,0.0,0.0,0.0,0.317816270824,0.060891265676,0.256925005148,0.3787075365,0.060891265676,0.286078844375,172,1.0,-0.170984061773,0.265024678188,nan,nan,nan,nan,0.0,0.0,0.0,nan,368.702048257,673.413346798,673.913391558,673.704646924,nan,nan,nan,nan
1,228,1,1,1.0,1.0,0.251138680615,0,0.0,0.0,0.0,0.317699459613,0.0607823682486,0.256917091365,0.378481827862,0.0607823682486,0.269943923069,383,-0.0968787136249,0.478131214543,-0.211081409456,nan,nan,nan,nan,0.0,0.0,0.0,nan,368.702048257,674.413473666,674.913524413,674.664612347,nan,nan,nan,nan
1,229,1,1,1.0,1.0,0.219064605422,0,1.0,0.0,0.0,0.317407526372,0.0608082102824,0.25659931609,0.378215736654,0.0608082102824,0.253834470641,230,0.760023132926,0.140224214653,0.61781109556,nan,nan,nan,nan,0.0,0.0,0.0,nan,368.702048257,675.4136031,675.913675515,675.632667706,nan,nan,nan,nan
1,230,1,1,1.0,1.0,0.298837542068,1,0.0,0.0,1.0,0.316978081302,0.0610208161571,0.255957265145,0.377998897459,0.0610208161571,0.256346942702,486,0.631151757674,0.309603058574,-1.0,115.322142479,334.677857521,-7.0408924788,476.0,0.547545041103,0.340739382997,-1.0,2.51725640101,368.702048257,676.413743939,676.91377644,676.712581481,680.780939671,681.790109843,678.247295277,680.77260113
1,231,1,1,1.0,1.0,0.345585317351,0,0.0,0.0,0.0,0.316899209393,0.0608997147637,0.255999494629,0.377798924156,0.0608997147637,0.287829154947,307,-0.0113868739462,0.411053355611,0.487957006857,nan,nan,nan,nan,0.0,0.0,0.0,nan,368.702048257,682.022889079,682.522852016,682.368474396,nan,nan,nan,nan
1,232,1,1,1.0,1.0,0.281528683379,0,0.0,0.0,0.0,0.317023391678,0.0607969311673,0.256226460511,0.377820322845,0.0607969311673,0.308650514266,389,-0.0691208065164,0.476626077068,-0.280234315682,nan,nan,nan,nan,0.0,0.0,0.0,nan,368.702048257,683.022923861,683.5229786,683.304452544,nan,nan,nan,nan
1,233,1,1,1.0,1.0,0.265405545942,0,0.0,0.0,0.0,0.316870397246,0.0607103099989,0.256160087247,0.377580707245,0.0607103099989,0.297506515558,23,1.0,0.106943944166,-1.0,nan,nan,nan,nan,0.0,0.0,0.0,nan,368.702048257,684.023047878,684.52308266,684.288453424,nan,nan,nan,nan
1,234,1,1,1.0,1.0,0.289231455885,0,0.0,0.0,0.0,0.316649518056,0.0606732381956,0.25597627986,0.377322756251,0.0606732381956,0.278721895069,416,0.087881616042,0.458117504295,-0.630165317015,nan,nan,nan,nan,0.0,0.0,0.0,nan,368.702048257,685.023179593,685.523231766,685.312411049,nan,nan,nan,nan
1,235,1,1,1.0,1.0,0.281141520012,0,0.0,0.0,0.0,0.31653234685,0.0605698679935,0.255962478856,0.377102214843,0.0605698679935,0.278592840613,63,1.0,-0.102744642793,-1.0,nan,nan,nan,nan,0.0,0.0,0.0,nan,368.702048257,686.023318721,686.523326134,686.304460241,nan,nan,nan,nan
1,236,1,1,1.0,1.0,0.272945242934,0,0.0,0.0,0.0,0.316381747587,0.0604847462902,0.255897001297,0.376866493877,0.0604847462902,0.281106072944,436,0.228681708805,0.431413732101,-1.0,nan,nan,nan,nan,0.0,0.0,0.0,nan,368.702048257,687.023443024,687.523499473,687.296388267,nan,nan,nan,nan
1,237,0,0,0.0,1.0,0.416781370994,0,0.0,0.0,0.0,0.316197694601,0.0604223763397,0.255775318261,0.376620070941,0.0604223763397,0.323622711313,251,0.535576518695,0.236509187076,0.655284151108,nan,nan,nan,nan,0.0,0.0,0.0,nan,368.702048257,688.023583862,688.523609236,688.440365233,nan,nan,nan,nan
1,238,1,1,1.0,1.0,0.304670073092,0,0.0,0.0,0.0,0.316622098299,0.0606462450663,0.255975853232,0.377268343365,0.0606462450663,0.33146556234,140,1.0,-0.294209249228,-0.0345777392028,nan,nan,nan,nan,0.0,0.0,0.0,nan,368.702048257,689.023686212,689.523714437,689.328356286,nan,nan,nan,nan
1,239,1,1,1.0,1.0,0.296513424721,0,0.0,0.0,0.0,0.316571879705,0.0605236407497,0.256048238956,0.377095520455,0.0605236407497,0.339321622935,235,0.707591924495,0.164537776567,0.631659631194,nan,nan,nan,nan,0.0,0.0,0.0,nan,368.702048257,690.023819068,690.52383988,690.320332493,nan,nan,nan,nan
1,240,1,1,1.0,1.0,0.272355945781,0,0.0,0.0,0.0,0.316487953116,0.0604107660852,0.25607718703,0.376898719201,0.0604107660852,0.291179814531,88,1.0,-0.225257592204,-0.599932847766,nan,nan,nan,nan,0.0,0.0,0.0,nan,368.702048257,691.023946792,691.523973306,691.296302738,nan,nan,nan,nan
1,241,1,1,1.0,1.0,0.328216587659,0,0.0,0.0,0.0,0.316304069752,0.0603517680089,0.255952301743,0.376655837761,0.0603517680089,0.29902865272,316,-0.0718215561597,0.428203514031,0.427892255365,nan,nan,nan,nan,0.0,0.0,0.0,nan,368.702048257,692.024084209,692.524092762,692.352300797,nan,nan,nan,nan
1,242,1,1,1.0,1.0,0.24807102792,0,0.0,0.0,0.0,0.316353499287,0.0602312947043,0.256122204582,0.376584793991,0.0602312947043,0.28288118712,421,0.121471671064,0.452518040197,-0.712610339232,nan,nan,nan,nan,0.0,0.0,0.0,nan,368.702048257,693.024201669,693.524221911,693.272272697,nan,nan,nan,nan
1,243,1,1,1.0,1.0,0.255930890329,0,0.0,0.0,0.0,0.316071340314,0.0602661166356,0.255805223678,0.37633745695,0.0602661166356,0.277406168636,233,0.728670395113,0.154909781369,0.626482233315,nan,nan,nan,nan,0.0,0.0,0.0,nan,368.702048257,694.024326542,694.524352201,694.280257432,nan,nan,nan,nan
1,244,1,1,1.0,1.0,0.231822732836,0,1.0,0.0,0.0,0.31582384875,0.0602650918393,0.255558756911,0.376088940589,0.0602650918393,0.245274883695,405,0.018463324075,0.468009379796,-0.476293327428,nan,nan,nan,nan,0.0,0.0,0.0,nan,368.702048257,695.024452555,695.524509005,695.256275288,nan,nan,nan,nan
1,245,1,1,1.0,1.0,0.279640764929,1,0.0,0.0,1.0,0.315479581882,0.0603804340531,0.255099147829,0.375860015935,0.0603804340531,0.255798129365,194,1.0,-0.0524864644427,0.435571704399,-66.0634484521,156.063448452,19.6571984521,222.0,0.841778467246,0.0997291618919,0.589484691865,6.89283999614,368.702048257,696.024605083,696.524603657,696.304245848,704.767351909,705.766878076,697.858133043,704.759029903
1,246,1,1,1.0,1.0,0.320512389299,0,0.0,0.0,0.0,0.315333300996,0.0603003909514,0.255032910045,0.375633691948,0.0603003909514,0.277325295688,461,0.423959648591,0.380927367285,-1.0,nan,nan,nan,nan,0.0,0.0,0.0,nan,368.702048257,705.96753363,706.467569267,706.28804602,nan,nan,nan,nan
1,247,1,1,1.0,1.0,0.344361962751,0,0.0,0.0,0.0,0.315354354201,0.0601786066367,0.255175747564,0.375532960837,0.0601786066367,0.314838372326,97,1.0,-0.260369742894,-0.491718830742,nan,nan,nan,nan,0.0,0.0,0.0,nan,368.702048257,706.967675039,707.467668482,707.312037001,nan,nan,nan,nan
1,248,1,1,1.0,1.0,0.352228381671,0,0.0,0.0,0.0,0.315471793911,0.0600849045054,0.255386889406,0.375556698417,0.0600849045054,0.339034244573,47,1.0,-0.0170755915744,-1.0,nan,nan,nan,nan,0.0,0.0,0.0,nan,368.702048257,707.967772257,708.467798771,708.320000639,nan,nan,nan,nan
1,249,1,1,1.0,1.0,0.320048250258,0,0.0,0.0,0.0,0.315620005959,0.0600088686013,0.255611137357,0.37562887456,0.0600088686013,0.33887953156,351,-0.175686286722,0.4701852659,0.128489978773,nan,nan,nan,nan,0.0,0.0,0.0,nan,368.702048257,708.967936758,709.467956145,709.287985009,nan,nan,nan,nan
1,250,0,0,0.0,1.0,0.399923536461,0,0.0,0.0,0.0,0.315637790072,0.0598889024885,0.255748887584,0.375526692561,0.0598889024885,0.35740005613,411,0.0555201669072,0.463022710015,-0.557054760163,nan,nan,nan,nan,0.0,0.0,0.0,nan,368.702048257,709.968051083,710.468080163,710.367974619,nan,nan,nan,nan
1,251,1,1,1.0,1.0,0.279722588602,0,0.0,0.0,0.0,0.315974933058,0.0600053047779,0.25596962828,0.375980237836,0.0600053047779,0.33323145844,4,0.879126049628,0.195014037372,-1.0,nan,nan,nan,nan,0.0,0.0,0.0,nan,368.702048257,710.968253787,711.468178807,711.247976376,nan,nan,nan,nan
1,252,0,0,0.0,1.0,0.431631546468,0,0.0,0.0,0.0,0.315830501407,0.0599291795473,0.255901321859,0.375759680954,0.0599291795473,0.37042589051,469,0.489482198204,0.360453357602,-1.0,nan,nan,nan,nan,0.0,0.0,0.0,nan,368.702048257,711.96830482,712.468333045,712.399936366,nan,nan,nan,nan
1,253,1,1,1.0,1.0,0.279515892267,0,0.0,0.0,0.0,0.316290029363,0.0602516157685,0.256038413595,0.376541645132,0.0602516157685,0.330290009112,266,0.373577590308,0.295207490188,0.648113769863,nan,nan,nan,nan,0.0,0.0,0.0,nan,368.702048257,712.968411162,713.468435965,713.247927054,nan,nan,nan,nan
1,254,1,1,1.0,1.0,0.269979655277,0,0.0,0.0,0.0,0.316144677043,0.0601766768681,0.255968000175,0.376321353911,0.0601766768681,0.327042364671,472,0.51429864939,0.352212277195,-1.0,nan,nan,nan,nan,0.0,0.0,0.0,nan,368.702048257,714.001925266,714.501897896,714.271904921,nan,nan,nan,nan
1,255,1,1,1.0,1.0,0.261902833823,0,0.0,0.0,0.0,0.315962924989,0.0601276406654,0.255835284323,0.376090565654,0.0601276406654,0.270466127122,201,1.0,-0.0135712615467,0.48142235136,nan,nan,nan,nan,0.0,0.0,0.0,nan,368.702048257,715.001991123,715.502061257,715.263893957,nan,nan,nan,nan
1,256,1,1,1.0,1.0,0.309766482096,0,0.0,0.0,0.0,0.315750924631,0.0601046687816,0.25564625585,0.375855593413,0.0601046687816,0.280549657065,274,0.289344050657,0.322900892411,0.632670269059,nan,nan,nan,nan,0.0,0.0,0.0,nan,368.702048257,716.002114,716.502202095,716.311880482,nan,nan,nan,nan
1,257,1,1,1.0,1.0,0.349572124891,0,0.0,0.0,0.0,0.315727547902,0.0599883234745,0.255739224428,0.375715871377,0.0599883234745,0.30708048027,448,0.32026743599,0.409662251776,-1.0,nan,nan,nan,nan,0.0,0.0,0.0,nan,368.702048257,717.002282208,717.502297604,717.351854333,nan,nan,nan,nan
1,258,1,1,1.0,1.0,0.357438544277,0,0.0,0.0,0.0,0.315859238864,0.0599085662078,0.255950672656,0.375767805071,0.0599085662078,0.338925717088,379,-0.113535935895,0.478614986251,-0.165970515924,nan,nan,nan,nan,0.0,0.0,0.0,nan,368.702048257,718.002394822,718.502411928,718.359833366,nan,nan,nan,nan
1,259,1,1,1.0,1.0,0.293292674236,0,0.0,0.0,0.0,0.316020398962,0.0598481433632,0.256172255599,0.375868542325,0.0598481433632,0.333434447801,153,1.0,-0.255547855702,0.0926213922694,nan,nan,nan,nan,0.0,0.0,0.0,nan,368.702048257,719.002513423,719.50256531,719.295806097,nan,nan,nan,nan
1,260,1,1,1.0,1.0,0.242797289044,0,0.0,0.0,0.0,0.315932647129,0.0597491223241,0.256183524805,0.375681769453,0.0597491223241,0.297842835852,306,-0.00395437407881,0.408974006242,0.494128827808,nan,nan,nan,nan,0.0,0.0,0.0,nan,368.702048257,720.060981569,720.561041725,720.303778858,nan,nan,nan,nan
1,261,1,1,1.0,1.0,0.298674181104,0,0.0,0.0,0.0,0.31565135729,0.0598056863633,0.255845670927,0.375457043654,0.0598056863633,0.278254714794,155,1.0,-0.2479831371,0.111611878621,nan,nan,nan,nan,0.0,0.0,0.0,nan,368.702048257,721.061111859,721.561136662,721.35978604,nan,nan,nan,nan
1,262,1,1,1.0,1.0,0.330497655086,0,0.0,0.0,0.0,0.315586310638,0.0597002201862,0.255886090452,0.375286530824,0.0597002201862,0.290656375078,245,0.600577697281,0.210610106048,0.650172825369,nan,nan,nan,nan,0.0,0.0,0.0,nan,368.702048257,722.061263531,722.561265526,722.391761186,nan,nan,nan,nan
1,263,1,1,1.0,1.0,0.327716241125,0,0.0,0.0,0.0,0.315643224167,0.0595932732031,0.256049950964,0.37523649737,0.0595932732031,0.318962692438,393,-0.0489456633786,0.475102171109,-0.327443230616,nan,nan,nan,nan,0.0,0.0,0.0,nan,368.702048257,723.128041709,723.628071929,723.45575795,nan,nan,nan,nan
1,264,1,1,1.0,1.0,0.399573721923,0,0.0,0.0,0.0,0.315689129174,0.0594845110308,0.256204618143,0.375173640205,0.0594845110308,0.352595872711,499,0.739831889234,0.263827757734,-1.0,nan,nan,nan,nan,0.0,0.0,0.0,nan,368.702048257,724.128150331,724.628194806,724.527724053,nan,nan,nan,nan
1,265,0,0,0.0,1.0,0.495387402363,0,0.0,0.0,0.0,0.316006873844,0.0595949403563,0.256411933487,0.3756018142,0.0595949403563,0.407559121804,372,-0.138660017671,0.478458869494,-0.0888123791441,nan,nan,nan,nan,0.0,0.0,0.0,nan,368.702048257,725.128316543,725.636682454,725.623703945,nan,nan,nan,nan
1,266,1,1,1.0,1.0,0.303282217123,0,0.0,0.0,0.0,0.316683781498,0.0604906659197,0.256193115579,0.377174447418,0.0604906659197,0.399414447136,431,0.191957257768,0.43918128748,-0.982298765802,nan,nan,nan,nan,0.0,0.0,0.0,nan,368.702048257,726.128406064,726.628481044,726.431688281,nan,nan,nan,nan
1,267,1,1,1.0,1.0,0.247113099322,0,0.0,0.0,0.0,0.316633399677,0.0603824248236,0.256250974854,0.377015824501,0.0603824248236,0.348594239602,492,0.681403316433,0.289222019555,-1.0,nan,nan,nan,nan,0.0,0.0,0.0,nan,368.702048257,727.128552604,727.628605918,727.375665703,nan,nan,nan,nan
1,268,1,1,1.0,1.0,0.34296498308,0,0.0,0.0,0.0,0.316373024021,0.0604186664518,0.255954357569,0.376791690473,0.0604186664518,0.297786766508,287,0.159501648714,0.36255249221,0.590751920292,nan,nan,nan,nan,0.0,0.0,0.0,nan,368.702048257,728.128700285,728.628735352,728.471665268,nan,nan,nan,nan
1,269,1,1,1.0,1.0,0.310802527703,0,0.0,0.0,0.0,0.316472247749,0.0603276305794,0.256144617169,0.376799878328,0.0603276305794,0.300293536702,86,1.0,-0.21659106269,-0.625617802914,nan,nan,nan,nan,0.0,0.0,0.0,nan,368.702048257,729.12881689,729.62886108,729.439619417,nan,nan,nan,nan
1,270,1,1,1.0,1.0,0.30266013369,0,0.0,0.0,0.0,0.316451170722,0.0602163816113,0.256234789111,0.376667552334,0.0602163816113,0.318809214824,202,1.0,-0.00802826454356,0.487596984314,nan,nan,nan,nan,0.0,0.0,0.0,nan,368.702048257,730.128951741,730.628964855,730.431611875,nan,nan,nan,nan
1,271,1,1,1.0,1.0,0.310508876573,0,0.0,0.0,0.0,0.316400092807,0.0601106042763,0.256289488531,0.376510697084,0.0601106042763,0.307990512655,287,0.159501648714,0.36255249221,0.590751920292,nan,nan,nan,nan,0.0,0.0,0.0,nan,368.702048257,731.129095715,731.629088303,731.439604592,nan,nan,nan,nan
1,272,1,1,1.0,1.0,0.334414899349,0,0.0,0.0,0.0,0.316378354002,0.0600006598951,0.256377694107,0.376379013897,0.0600006598951,0.315861303204,237,0.686387300223,0.174031846447,0.636349816437,nan,nan,nan,nan,0.0,0.0,0.0,nan,368.702048257,732.129172977,732.629212605,732.463587876,nan,nan,nan,nan
1,273,1,1,1.0,1.0,0.34224938741,0,0.0,0.0,0.0,0.316444664831,0.0599002105484,0.256544454282,0.376344875379,0.0599002105484,0.329057721111,425,0.149162615564,0.447529597292,-0.791715667876,nan,nan,nan,nan,0.0,0.0,0.0,nan,368.702048257,733.129310394,733.629347172,733.471559782,nan,nan,nan,nan
1,274,1,1,1.0,1.0,0.278096960392,0,0.0,0.0,0.0,0.316539187624,0.0598107217602,0.256728465864,0.376349909384,0.0598107217602,0.31825374905,504,0.78128615449,0.244628286196,-1.0,nan,nan,nan,nan,0.0,0.0,0.0,nan,368.702048257,734.129478032,734.629476036,734.407574992,nan,nan,nan,nan
1,275,0,0,0.0,1.0,0.437942757271,0,0.0,0.0,0.0,0.316398887525,0.0597464666767,0.256652420848,0.376145354201,0.0597464666767,0.352763035024,269,0.34171296506,0.305888347675,0.643262349404,nan,nan,nan,nan,0.0,0.0,0.0,nan,368.702048257,735.129597487,735.629624287,735.567540245,nan,nan,nan,nan
1,276,1,1,1.0,1.0,0.357809741516,0,0.0,0.0,0.0,0.316840865233,0.0600848076217,0.256756057611,0.376925672854,0.0600848076217,0.357949819726,374,-0.132039125116,0.478634076427,-0.110628443238,nan,nan,nan,nan,0.0,0.0,0.0,nan,368.702048257,736.129712952,736.629744313,736.487522694,nan,nan,nan,nan
1,277,1,1,1.0,1.0,0.309681237675,0,0.0,0.0,0.0,0.31698930319,0.0600263528147,0.256962950376,0.377015656005,0.0600263528147,0.368477912154,419,0.107894673663,0.454841969249,-0.678098861371,nan,nan,nan,nan,0.0,0.0,0.0,nan,368.702048257,737.129827847,737.629854931,737.439509084,nan,nan,nan,nan
1,278,1,1,1.0,1.0,0.309514170513,0,0.0,0.0,0.0,0.316962920282,0.0599195071359,0.257043413146,0.376882427418,0.0599195071359,0.325668383234,196,1.0,-0.0413610816081,0.449130757868,nan,nan,nan,nan,0.0,0.0,0.0,nan,368.702048257,738.129970395,738.629974102,738.439484566,nan,nan,nan,nan
1,279,1,1,1.0,1.0,0.285384060815,0,0.0,0.0,0.0,0.316936126218,0.0598133035477,0.257122822671,0.376749429766,0.0598133035477,0.301526489668,400,-0.0107874812989,0.471427301814,-0.412692688905,nan,nan,nan,nan,0.0,0.0,0.0,nan,368.702048257,739.130081299,739.630118076,739.41546536,nan,nan,nan,nan
1,280,1,1,1.0,1.0,0.341245558113,0,0.0,0.0,0.0,0.316823036378,0.0597357820642,0.257087254314,0.376558818442,0.0597357820642,0.312047929813,37,1.0,0.0358565504353,-1.0,nan,nan,nan,nan,0.0,0.0,0.0,nan,368.702048257,740.130211588,740.63023126,740.471457147,nan,nan,nan,nan
1,281,1,1,1.0,1.0,0.324740389828,0,0.0,0.0,0.0,0.31691025967,0.0596468113795,0.257263448291,0.37655707105,0.0596468113795,0.317123336252,343,-0.171388175652,0.463836419185,0.204822810802,nan,nan,nan,nan,0.0,0.0,0.0,nan,368.702048257,741.138687261,741.638732022,741.463427651,nan,nan,nan,nan
1,282,1,1,1.0,1.0,0.482551442925,0,0.0,1.0,0.0,0.316938124902,0.0595424093879,0.257395715514,0.37648053429,0.0595424093879,0.382845796955,86,1.0,-0.21659106269,-0.625617802914,nan,nan,nan,nan,0.0,0.0,0.0,nan,368.702048257,742.188845947,742.688866474,742.67139739,nan,nan,nan,nan
1,283,1,1,1.0,1.0,0.394508103374,1,0.0,0.0,1.0,0.317525406172,0.0602465205265,0.257278885645,0.377771926698,0.0602465205265,0.400599978709,264,0.394966959701,0.287889713878,0.650717615019,-95.0350846795,185.035084679,-0.589915320543,263.0,0.405698801511,0.284171736334,0.651829885785,2.80066758487,368.702048257,743.188934613,743.68895799,743.583442716,747.831161649,748.837788177,745.014130589,747.822812844
1,284,1,1,1.0,1.0,0.423529921565,0,0.0,0.0,0.0,0.317797429837,0.0603132220963,0.25748420774,0.378110651933,0.0603132220963,0.433529822621,373,-0.135407706169,0.478559568072,-0.0996974893599,nan,nan,nan,nan,0.0,0.0,0.0,nan,368.702048257,749.039753756,749.539706144,749.463283677,nan,nan,nan,nan
1,285,1,1,1.0,1.0,0.287488082889,0,0.0,0.0,0.0,0.318169727343,0.0605318209542,0.257637906388,0.378701548297,0.0605318209542,0.36850870261,241,0.64365311028,0.192605941253,0.644254782112,nan,nan,nan,nan,0.0,0.0,0.0,nan,368.702048257,750.039790533,750.539830447,750.327278616,nan,nan,nan,nan
1,286,1,1,1.0,1.0,0.223313703667,0,0.0,0.0,0.0,0.31806207245,0.0604527608273,0.257609311623,0.378514833277,0.0604527608273,0.311443902707,507,0.805995650865,0.232688349973,-1.0,nan,nan,nan,nan,0.0,0.0,0.0,nan,368.702048257,751.039936218,751.539961877,751.263249922,nan,nan,nan,nan
1,287,1,1,1.0,1.0,0.247146741021,0,1.0,0.0,0.0,0.317730784447,0.0606055891716,0.257125195276,0.378336373619,0.0606055891716,0.252649509193,107,1.0,-0.290089771429,-0.379592780214,nan,nan,nan,nan,0.0,0.0,0.0,nan,368.702048257,752.040090171,752.540090741,752.287236912,nan,nan,nan,nan
1,288,1,1,1.0,1.0,0.247033557389,1,0.0,0.0,1.0,0.317484847014,0.0606427091434,0.25684213787,0.378127556157,0.0606427091434,0.239164667359,4,0.879126049628,0.195014037372,-1.0,77.499811559,12.500188441,9.68768844105,18.0,0.988682696815,0.131162580546,-1.0,1.9506803574,368.702048257,753.040179121,753.540214473,753.287212679,756.840629747,757.838836482,754.873712498,756.832305461
1,289,1,1,1.0,1.0,0.366300810128,0,0.0,0.0,0.0,0.31724022448,0.0606790167624,0.256561207718,0.377919241243,0.0606790167624,0.28682703618,204,1.0,0.00303256528985,0.499654420455,nan,nan,nan,nan,0.0,0.0,0.0,nan,368.702048257,758.040826008,758.540884738,758.407126818,nan,nan,nan,nan
1,290,1,1,1.0,1.0,0.366160256788,0,0.0,0.0,0.0,0.317409984292,0.0606424149024,0.25676756939,0.378052399195,0.0606424149024,0.326498208102,464,0.448404880525,0.373503555275,-1.0,nan,nan,nan,nan,0.0,0.0,0.0,nan,368.702048257,759.040941473,759.540974544,759.40710173,nan,nan,nan,nan
1,291,1,1,1.0,1.0,0.261991499923,0,0.0,0.0,0.0,0.31757808868,0.0606051839183,0.256972904762,0.378183272598,0.0606051839183,0.331484188947,336,-0.158211608236,0.456758111158,0.268135266647,nan,nan,nan,nan,0.0,0.0,0.0,nan,368.702048257,760.041089153,760.541139901,760.303080653,nan,nan,nan,nan
1,292,1,1,1.0,1.0,0.221857708879,0,0.0,0.0,0.0,0.317387069475,0.0605883485702,0.256798720904,0.377975418045,0.0605883485702,0.28333648853,260,0.438016636947,0.272781976488,0.654406567654,nan,nan,nan,nan,0.0,0.0,0.0,nan,368.702048257,761.041221154,761.5412528,761.263078863,nan,nan,nan,nan
1,293,1,1,1.0,1.0,0.229702745564,0,1.0,0.0,0.0,0.31705991413,0.0607414368702,0.25631847726,0.377801351,0.0607414368702,0.237850651455,139,1.0,-0.296335611021,-0.0445992895203,nan,nan,nan,nan,0.0,0.0,0.0,nan,368.702048257,762.041366269,762.541372826,762.271069014,nan,nan,nan,nan
1,294,0,0,1.0,0.0,0.237530676182,0,0.0,0.0,0.0,0.316761766797,0.0608513462651,0.255910420532,0.377613113062,0.0608513462651,0.229697043542,481,0.589289488337,0.325611856148,-1.0,nan,nan,nan,nan,0.0,0.0,0.0,nan,368.702048257,763.041501405,763.541518796,763.279032081,nan,nan,nan,nan
1,295,1,1,1.0,1.0,0.261417882983,0,0.0,0.0,0.0,0.316492273292,0.060922665145,0.255569608147,0.377414938437,0.060922665145,0.242883768243,125,1.0,-0.311567427947,-0.187805059354,nan,nan,nan,nan,0.0,0.0,0.0,nan,368.702048257,764.041620576,764.541620576,764.303038459,nan,nan,nan,nan
1,296,1,1,1.0,1.0,0.261277044658,0,0.0,0.0,0.0,0.316305580443,0.0609035029528,0.25540207749,0.377209083396,0.0609035029528,0.253408534608,442,0.273907262724,0.421095538958,-1.0,nan,nan,nan,nan,0.0,0.0,0.0,nan,368.702048257,765.041708671,765.541753431,765.302985716,nan,nan,nan,nan
1,297,1,1,1.0,1.0,0.293140147347,0,0.0,0.0,0.0,0.316119673228,0.0608843256291,0.255235347599,0.377003998857,0.0608843256291,0.271945024996,498,0.731507943485,0.267561876527,-1.0,nan,nan,nan,nan,0.0,0.0,0.0,nan,368.702048257,766.041834114,766.541874883,766.334974261,nan,nan,nan,nan
1,298,0,0,1.0,0.0,0.28497152403,0,0.0,0.0,0.0,0.316042301087,0.0607963152458,0.255245985841,0.376838616333,0.0607963152458,0.279796238678,164,1.0,-0.209685835145,0.194761549991,nan,nan,nan,nan,0.0,0.0,0.0,nan,368.702048257,767.042001182,767.542031117,767.326972706,nan,nan,nan,nan
1,299,1,1,1.0,1.0,0.324824493844,0,0.0,0.0,0.0,0.315938036734,0.0607208145712,0.255217222163,0.376658851305,0.0607208145712,0.30097872174,237,0.686387300223,0.174031846447,0.636349816437,nan,nan,nan,nan,0.0,0.0,0.0,nan,368.702048257,768.042118357,768.542162832,768.36694285,nan,nan,nan,nan
1,300,1,1,1.0,1.0,0.276675178204,0,0.0,0.0,0.0,0.315967757326,0.060621360823,0.255346396504,0.376589118149,0.060621360823,0.295490398693,128,1.0,-0.310663006781,-0.156689791083,nan,nan,nan,nan,0.0,0.0,0.0,nan,368.702048257,769.042265182,769.54228913,769.31894036,nan,nan,nan,nan
1,301,1,1,1.0,1.0,0.316529002506,0,0.0,0.0,0.0,0.315836782063,0.0605626019762,0.255274180087,0.376399384039,0.0605626019762,0.306009558185,417,0.0945046041228,0.457053563907,-0.645720198395,nan,nan,nan,nan,0.0,0.0,0.0,nan,368.702048257,770.042385778,770.542409727,770.358914781,nan,nan,nan,nan
1,302,1,1,1.0,1.0,0.276402339339,0,0.0,0.0,0.0,0.315839081798,0.0604619290725,0.255377152726,0.376301010871,0.0604619290725,0.289868840016,27,1.0,0.0870912575778,-1.0,nan,nan,nan,nan,0.0,0.0,0.0,nan,368.702048257,771.042518064,771.542524336,771.318920403,nan,nan,nan,nan
1,303,1,1,1.0,1.0,0.308246340137,0,0.0,0.0,0.0,0.315708496558,0.0604042456025,0.255304250956,0.376112742161,0.0604042456025,0.300392560661,448,0.32026743599,0.409662251776,-1.0,nan,nan,nan,nan,0.0,0.0,0.0,nan,368.702048257,772.042642082,772.542637805,772.350888422,nan,nan,nan,nan
1,304,1,1,1.0,1.0,0.284112810157,0,0.0,0.0,0.0,0.31568386898,0.0603060049284,0.255377864051,0.375989873908,0.0603060049284,0.289587163211,314,-0.0594438881467,0.42463230952,0.441925406839,nan,nan,nan,nan,0.0,0.0,0.0,nan,368.702048257,773.042781494,773.542771801,773.326894304,nan,nan,nan,nan
1,305,1,1,1.0,1.0,0.290628720541,0,0.0,0.0,0.0,0.315580016812,0.0602338689055,0.255346147907,0.375813885718,0.0602338689055,0.294329290278,97,1.0,-0.260369742894,-0.491718830742,nan,nan,nan,nan,0.0,0.0,0.0,nan,368.702048257,774.076275642,774.576232592,774.366904362,nan,nan,nan,nan
1,306,1,1,1.0,1.0,0.290576262865,0,0.0,0.0,0.0,0.315498209284,0.0601519575968,0.255346251687,0.37565016688,0.0601519575968,0.288439264521,323,-0.11001989341,0.43965344528,0.375855360355,nan,nan,nan,nan,0.0,0.0,0.0,nan,368.702048257,775.07631527,775.576391676,775.366891533,nan,nan,nan,nan
1,307,1,1,1.0,1.0,0.298365705181,0,0.0,0.0,0.0,0.315416765014,0.060070431551,0.255346333463,0.375487196565,0.060070431551,0.293190229529,75,1.0,-0.164714458691,-0.791355921409,nan,nan,nan,nan,0.0,0.0,0.0,nan,368.702048257,776.07647578,776.576512273,776.374841486,nan,nan,nan,nan
1,308,1,1,1.0,1.0,0.298221446108,0,0.0,0.0,0.0,0.315361224103,0.0599803864823,0.25538083762,0.375341610585,0.0599803864823,0.295721138051,179,1.0,-0.13461441766,0.323204131591,nan,nan,nan,nan,0.0,0.0,0.0,nan,368.702048257,777.076592385,777.576626027,777.374813831,nan,nan,nan,nan
1,309,1,1,1.0,1.0,0.266047301237,0,0.0,0.0,0.0,0.315305575473,0.0598908740932,0.25541470138,0.375196449566,0.0598908740932,0.287544817509,245,0.600577697281,0.210610106048,0.650172825369,nan,nan,nan,nan,0.0,0.0,0.0,nan,368.702048257,778.076732654,778.576753751,778.342779955,nan,nan,nan,nan
1,310,1,1,1.0,1.0,0.289917401504,0,0.0,0.0,0.0,0.315146163582,0.0598592983349,0.255286865247,0.375005461917,0.0598592983349,0.284728716283,141,1.0,-0.291952736687,-0.024586852943,nan,nan,nan,nan,0.0,0.0,0.0,nan,368.702048257,779.076834719,779.576886321,779.36675212,nan,nan,nan,nan
1,311,1,1,1.0,1.0,0.369760186877,0,0.0,0.0,0.0,0.315064780479,0.0597797931325,0.255284987346,0.374844573611,0.0597797931325,0.308574963206,264,0.394966959701,0.287889713878,0.650717615019,nan,nan,nan,nan,0.0,0.0,0.0,nan,368.702048257,780.07699751,780.577002641,780.446757697,nan,nan,nan,nan
1,312,1,1,1.0,1.0,0.34562123986,0,0.0,0.0,0.0,0.315240649953,0.0597638790399,0.255476770913,0.375004528993,0.0597638790399,0.335099609413,201,1.0,-0.0135712615467,0.48142235136,nan,nan,nan,nan,0.0,0.0,0.0,nan,368.702048257,781.077095868,781.577158875,781.422717108,nan,nan,nan,nan
1,313,1,1,1.0,1.0,0.329482707195,0,0.0,0.0,0.0,0.315338023638,0.0596927315659,0.255645292072,0.375030755204,0.0596927315659,0.348288044644,363,-0.162287729338,0.476365729747,0.00704812682028,nan,nan,nan,nan,0.0,0.0,0.0,nan,368.702048257,782.077225873,782.577284318,782.40670858,nan,nan,nan,nan
1,314,1,1,1.0,1.0,0.313299699686,0,0.0,0.0,0.0,0.315383214321,0.0596026448323,0.255780569488,0.374985859153,0.0596026448323,0.329467882247,421,0.121471671064,0.452518040197,-0.712610339232,nan,nan,nan,nan,0.0,0.0,0.0,nan,368.702048257,783.077377545,783.577410901,783.390677244,nan,nan,nan,nan
1,315,1,1,1.0,1.0,0.257240914274,0,0.0,0.0,0.0,0.315376578924,0.0595077762684,0.255868802655,0.374884355192,0.0595077762684,0.300007773718,54,1.0,-0.0546292063271,-1.0,nan,nan,nan,nan,0.0,0.0,0.0,nan,368.702048257,784.077488163,784.577505269,784.334729077,nan,nan,nan,nan
1,316,1,1,1.0,1.0,0.31305251969,0,0.0,0.0,0.0,0.315192021258,0.059503184206,0.255688837052,0.374695205464,0.059503184206,0.29453104455,217,0.891250405156,0.0735373331823,0.568048345461,nan,nan,nan,nan,0.0,0.0,0.0,nan,368.702048257,785.077609329,785.57766977,785.390661849,nan,nan,nan,nan
1,317,1,1,1.0,1.0,0.280892059673,0,0.0,0.0,0.0,0.315185250683,0.0594090805225,0.255776170161,0.374594331206,0.0594090805225,0.283728497879,109,1.0,-0.294638327523,-0.357773695079,nan,nan,nan,nan,0.0,0.0,0.0,nan,368.702048257,786.077740475,786.577776682,786.358632534,nan,nan,nan,nan
1,318,0,0,0.0,1.0,0.400720384903,0,0.0,0.0,0.0,0.31507707027,0.0593464667913,0.255730603479,0.374423537062,0.0593464667913,0.331554988089,398,-0.0220377755791,0.472608796233,-0.387943383198,nan,nan,nan,nan,0.0,0.0,0.0,nan,368.702048257,787.0778873,787.577922082,787.478607685,nan,nan,nan,nan
1,319,1,1,1.0,1.0,0.264671418816,0,0.0,0.0,0.0,0.31534638887,0.0594467866595,0.25589960221,0.374793175529,0.0594467866595,0.315427954464,340,-0.166837174664,0.460980112934,0.232376404312,nan,nan,nan,nan,0.0,0.0,0.0,nan,368.702048257,788.077975395,788.578051516,788.342646814,nan,nan,nan,nan
1,320,1,1,1.0,1.0,0.240456635598,0,0.0,0.0,0.0,0.315187533164,0.0594210997594,0.255766433405,0.374608632924,0.0594210997594,0.301949479772,447,0.312467642152,0.411646472288,-1.0,nan,nan,nan,nan,0.0,0.0,0.0,nan,368.702048257,789.07811994,789.578178385,789.318576575,nan,nan,nan,nan
1,321,1,1,1.0,1.0,0.23830699781,0,1.0,0.0,0.0,0.314953999109,0.0594746232297,0.25547937588,0.374428622339,0.0594746232297,0.247811684075,137,1.0,-0.300190217086,-0.0647316600203,nan,nan,nan,nan,0.0,0.0,0.0,nan,368.702048257,790.128309131,790.628291455,790.366616128,nan,nan,nan,nan
1,322,1,1,1.0,1.0,0.22223403817,1,0.0,0.0,1.0,0.314715223404,0.0595353325819,0.255179890822,0.374250555986,0.0595353325819,0.233665890526,345,-0.173519535469,0.465595146217,0.186119282857,-149.036243468,239.036243468,-3.54188153207,340.0,-0.166837174664,0.460980112934,0.232376404312,1.6089196275,368.702048257,791.128372137,791.628405209,791.350606175,794.578779086,795.574570757,792.953583794,794.570461927
1,323,1,1,1.0,1.0,0.330439780373,0,0.0,0.0,0.0,0.314428014754,0.0596651247076,0.254762890047,0.374093139462,0.0596651247076,0.263660272118,253,0.513865899396,0.244839928328,0.655977188727,nan,nan,nan,nan,0.0,0.0,0.0,nan,368.702048257,795.803996387,796.304038867,796.134436168,nan,nan,nan,nan
1,324,1,1,1.0,1.0,0.274302308448,0,0.0,0.0,0.0,0.314477586784,0.0595793331497,0.254898253635,0.374056919934,0.0595793331497,0.275658708997,122,1.0,-0.311159539646,-0.219144224573,nan,nan,nan,nan,0.0,0.0,0.0,nan,368.702048257,796.804132664,797.304191109,797.078434973,nan,nan,nan,nan
1,325,1,1,1.0,1.0,0.23422012059,0,0.0,0.0,0.0,0.314353589012,0.0595290463001,0.254824542712,0.373882635312,0.0595290463001,0.279654069804,490,0.664660387652,0.296157848571,-1.0,nan,nan,nan,nan,0.0,0.0,0.0,nan,368.702048257,797.804242997,798.304291463,798.038463118,nan,nan,nan,nan
1,326,1,1,1.0,1.0,0.202031150926,0,1.0,0.0,0.0,0.314107024493,0.0596028599518,0.254504164542,0.373709884445,0.0596028599518,0.236851193321,393,-0.0489456633786,0.475102171109,-0.327443230616,nan,nan,nan,nan,0.0,0.0,0.0,nan,368.702048257,798.804365589,799.304390107,799.00639674,nan,nan,nan,nan
1,327,1,1,1.0,1.0,0.233973225579,1,0.0,0.0,1.0,0.31376323347,0.0598332362433,0.253929997227,0.373596469714,0.0598332362433,0.223408165698,249,0.557275547736,0.228026269286,0.654084877906,178.264295411,271.735704589,96.6575795889,386.0,-0.0833946583454,0.477495592553,-0.245424736514,2.79232533788,368.702048257,799.804471361,800.304524103,800.038444586,804.438406611,805.449236052,801.629682732,804.430071776
1,328,1,1,1.0,1.0,0.303386847954,0,0.0,0.0,0.0,0.31351922733,0.0599039048024,0.253615322528,0.373423132132,0.0599039048024,0.246463741486,23,1.0,0.106943944166,-1.0,nan,nan,nan,nan,0.0,0.0,0.0,nan,368.702048257,805.6469015,806.146933716,805.950288348,nan,nan,nan,nan
1,329,1,1,1.0,1.0,0.255256063305,0,0.0,0.0,0.0,0.313488335929,0.05981512667,0.253673209259,0.373303462599,0.05981512667,0.264205378946,105,1.0,-0.285049837405,-0.401580786678,nan,nan,nan,nan,0.0,0.0,0.0,nan,368.702048257,806.647017535,807.147058304,806.902273598,nan,nan,nan,nan
1,330,1,1,1.0,1.0,0.223072796129,0,0.0,0.0,0.0,0.31331133814,0.0598101171352,0.253501221005,0.373121455275,0.0598101171352,0.260571902463,477,0.555879874869,0.337784025865,-1.0,nan,nan,nan,nan,0.0,0.0,0.0,nan,368.702048257,807.64716493,808.14718004,807.870237726,nan,nan,nan,nan
1,331,1,1,1.0,1.0,0.166939599905,0,1.0,0.0,0.0,0.313037888013,0.0599250442277,0.253112843785,0.372962932241,0.0599250442277,0.215089486446,429,0.177531820842,0.442080780324,-0.901885199234,nan,nan,nan,nan,0.0,0.0,0.0,nan,368.702048257,808.647311756,809.14733827,808.814251356,nan,nan,nan,nan
1,332,1,1,1.0,1.0,0.214816077612,1,0.0,0.0,1.0,0.312596503457,0.0603693022804,0.252227201176,0.372965805737,0.0603693022804,0.201609491215,57,1.0,-0.0707313323512,-1.0,79.8493517197,10.1506482803,-29.9274767197,14.0,0.95801504718,0.150023555696,-1.0,1.80048654787,368.702048257,809.647420378,810.147501916,809.862236456,813.289508571,814.294266854,811.472627758,813.281163758
1,333,1,1,1.0,1.0,0.372419294436,0,0.0,0.0,0.0,0.312301984102,0.0605160051315,0.25178597897,0.372817989233,0.0605160051315,0.251391657318,217,0.891250405156,0.0735373331823,0.568048345461,nan,nan,nan,nan,0.0,0.0,0.0,nan,368.702048257,814.489712815,814.989736478,814.86213211,nan,nan,nan,nan
1,334,1,1,1.0,1.0,0.324240898713,0,0.0,0.0,0.0,0.312482516565,0.0605145424923,0.251967974073,0.372997059057,0.0605145424923,0.303825423587,114,1.0,-0.303747463913,-0.303859371662,nan,nan,nan,nan,0.0,0.0,0.0,nan,368.702048257,815.489859641,815.989882163,815.814100539,nan,nan,nan,nan
1,335,1,1,1.0,1.0,0.26016430743,0,0.0,0.0,0.0,0.312517721302,0.0604272989887,0.252090422313,0.372945020291,0.0604272989887,0.318941500193,11,0.934659501434,0.163852895862,-1.0,nan,nan,nan,nan,0.0,0.0,0.0,nan,368.702048257,816.489935477,816.990010458,816.750099784,nan,nan,nan,nan
1,336,1,1,1.0,1.0,0.427993983496,0,0.0,0.0,0.0,0.312361442455,0.0604046016058,0.251956840849,0.372766044061,0.0604046016058,0.337466396547,432,0.199227897075,0.437687328843,-1.0,nan,nan,nan,nan,0.0,0.0,0.0,nan,368.702048257,817.490067192,817.990124497,817.918061175,nan,nan,nan,nan
1,337,0,0,1.0,0.0,0.219832659233,0,0.0,0.0,0.0,0.312705586922,0.060642662256,0.252062924666,0.373348249178,0.060642662256,0.302663650053,249,0.557275547736,0.228026269286,0.654084877906,nan,nan,nan,nan,0.0,0.0,0.0,nan,368.702048257,818.490232834,818.990261344,818.710065493,nan,nan,nan,nan
1,338,1,1,1.0,1.0,0.251682362519,0,0.0,0.0,0.0,0.3124299996,0.0607629704614,0.251667029138,0.373192970061,0.0607629704614,0.299836335083,92,1.0,-0.241703663401,-0.55060883727,nan,nan,nan,nan,0.0,0.0,0.0,nan,368.702048257,819.490348013,819.990385361,819.742030376,nan,nan,nan,nan
1,339,1,1,1.0,1.0,0.259523122571,0,0.0,0.0,0.0,0.312250272863,0.0607626593005,0.251487613562,0.373012932163,0.0607626593005,0.243679381441,23,1.0,0.106943944166,-1.0,nan,nan,nan,nan,0.0,0.0,0.0,nan,368.702048257,820.490491703,820.990518217,820.750014825,nan,nan,nan,nan
1,340,1,1,1.0,1.0,0.275435002055,0,0.0,0.0,0.0,0.312094735546,0.0607403198886,0.251354415658,0.372835055435,0.0607403198886,0.262213495715,118,1.0,-0.308588151016,-0.261285249573,nan,nan,nan,nan,0.0,0.0,0.0,nan,368.702048257,821.49061515,821.990657344,821.766050152,nan,nan,nan,nan
1,341,1,1,1.0,1.0,0.275255390909,0,0.0,0.0,0.0,0.311986912801,0.0606834116616,0.251303501139,0.372670324462,0.0606834116616,0.270071171845,216,0.900975005756,0.0682271079607,0.563426584804,nan,nan,nan,nan,0.0,0.0,0.0,nan,368.702048257,822.490729189,822.99074829,822.76598458,nan,nan,nan,nan
1,342,1,1,1.0,1.0,0.251120149158,0,0.0,0.0,0.0,0.311879195728,0.0606269115886,0.251252284139,0.372506107316,0.0606269115886,0.267270180707,499,0.739831889234,0.263827757734,-1.0,nan,nan,nan,nan,0.0,0.0,0.0,nan,368.702048257,823.490851781,823.990872308,823.74197193,nan,nan,nan,nan
1,343,1,1,1.0,1.0,0.280934539158,0,0.0,0.0,0.0,0.311701537697,0.0606270380691,0.251074499628,0.372328575766,0.0606270380691,0.269103359741,217,0.891250405156,0.0735373331823,0.568048345461,nan,nan,nan,nan,0.0,0.0,0.0,nan,368.702048257,824.541047529,825.041038121,824.821982068,nan,nan,nan,nan
1,344,1,1,1.0,1.0,0.32883154368,0,0.0,0.0,0.0,0.311611837993,0.0605613188812,0.251050519111,0.372173156874,0.0605613188812,0.286962077332,509,0.822386376617,0.224555004187,-1.0,nan,nan,nan,nan,0.0,0.0,0.0,nan,368.702048257,825.541131063,826.041159573,825.869962607,nan,nan,nan,nan
1,345,1,1,1.0,1.0,0.344686403871,0,0.0,0.0,0.0,0.311661895277,0.0604803353949,0.251181559882,0.372142230671,0.0604803353949,0.318150828903,387,-0.0787219327085,0.477231755363,-0.256974454483,nan,nan,nan,nan,0.0,0.0,0.0,nan,368.702048257,826.541247953,827.041303832,826.885934357,nan,nan,nan,nan
1,346,1,1,1.0,1.0,0.328522212803,0,0.0,0.0,0.0,0.31175761849,0.0604187098015,0.251338908688,0.372176328291,0.0604187098015,0.334013386785,58,1.0,-0.0760896648475,-1.0,nan,nan,nan,nan,0.0,0.0,0.0,nan,368.702048257,827.541365698,828.041421292,827.869887911,nan,nan,nan,nan
1,347,1,1,0.0,0.0,0.40040335618,0,0.0,0.0,0.0,0.311806071075,0.0603380484114,0.251468022663,0.372144119486,0.0603380484114,0.357870657618,155,1.0,-0.2479831371,0.111611878621,nan,nan,nan,nan,0.0,0.0,0.0,nan,368.702048257,828.541485155,829.041519651,828.941888511,nan,nan,nan,nan
1,348,1,1,1.0,1.0,0.424219288398,0,0.0,1.0,0.0,0.312061394663,0.0604379351009,0.251623459562,0.372499329764,0.0604379351009,0.384381619127,95,1.0,-0.253175017597,-0.514975443931,nan,nan,nan,nan,0.0,0.0,0.0,nan,368.702048257,829.541643098,830.041674174,829.965862387,nan,nan,nan,nan
1,349,1,1,1.0,1.0,0.416059503332,1,0.0,0.0,1.0,0.312383687461,0.0606489193408,0.25173476812,0.373032606802,0.0606489193408,0.41356071597,330,-0.139766326074,0.449518327743,0.319540245599,-142.27874172,232.27874172,0.247491720391,330.0,-0.139766326074,0.449518327743,0.319540245599,1.91720217559,368.702048257,830.541772818,831.041770252,830.957832322,834.308853029,835.307102813,832.375271413,834.300529028
1,350,1,1,1.0,1.0,0.344648770988,0,0.0,0.0,0.0,0.312680752836,0.0608149829198,0.251865769916,0.373495735756,0.0608149829198,0.394975854239,177,1.0,-0.145192147526,0.306921212481,nan,nan,nan,nan,0.0,0.0,0.0,nan,368.702048257,835.509123986,836.009096046,835.853772757,nan,nan,nan,nan
1,351,1,1,1.0,1.0,0.256617690437,0,0.0,0.0,0.0,0.312772090031,0.0607520093449,0.252020080686,0.373524099375,0.0607520093449,0.339108654919,481,0.589289488337,0.325611856148,-1.0,nan,nan,nan,nan,0.0,0.0,0.0,nan,368.702048257,836.50916447,837.009199537,836.76578216,nan,nan,nan,nan
1,352,1,1,1.0,1.0,0.272430356592,0,0.0,0.0,0.0,0.312612105986,0.0607391943796,0.251872911607,0.373351300366,0.0607391943796,0.291232272672,337,-0.160643365934,0.457858386897,0.259303564052,nan,nan,nan,nan,0.0,0.0,0.0,nan,368.702048257,837.509292193,838.009356055,837.78172255,nan,nan,nan,nan
1,353,1,1,1.0,1.0,0.255944289733,0,0.0,0.0,0.0,0.312497953289,0.0606905489759,0.251807404313,0.373188502265,0.0606905489759,0.261664112254,277,0.258470646878,0.33263615818,0.624824240443,nan,nan,nan,nan,0.0,0.0,0.0,nan,368.702048257,838.517784687,839.017818899,838.773728977,nan,nan,nan,nan
1,354,1,1,1.0,1.0,0.231808193028,0,0.0,0.0,0.0,0.31233774461,0.0606790166137,0.251658727997,0.373016761224,0.0606790166137,0.253394279784,458,0.399688045963,0.388050214986,-1.0,nan,nan,nan,nan,0.0,0.0,0.0,nan,368.702048257,839.517876489,840.017943772,839.749684682,nan,nan,nan,nan
1,355,1,1,1.0,1.0,0.287633482832,0,0.0,0.0,0.0,0.312110260001,0.0607438027491,0.251366457252,0.372854062751,0.0607438027491,0.258461988531,207,0.985653507947,0.0195431921708,0.51699622314,nan,nan,nan,nan,0.0,0.0,0.0,nan,368.702048257,840.518042701,841.018042986,840.805676184,nan,nan,nan,nan
1,356,0,0,0.0,1.0,0.455493949354,0,0.0,0.0,0.0,0.312041311333,0.0606720580656,0.251369253268,0.372713369399,0.0606720580656,0.324978541738,119,1.0,-0.309446327048,-0.250710895617,nan,nan,nan,nan,0.0,0.0,0.0,nan,368.702048257,841.518166148,842.01819922,841.973660097,nan,nan,nan,nan
1,357,1,1,1.0,1.0,0.303373448551,0,0.0,0.0,0.0,0.312444268182,0.06106063637,0.251383631812,0.373504904552,0.06106063637,0.348833626912,433,0.206536295144,0.436163724167,-1.0,nan,nan,nan,nan,0.0,0.0,0.0,nan,368.702048257,842.51825738,843.018336922,842.821630828,nan,nan,nan,nan
1,358,1,1,1.0,1.0,0.279177766759,0,0.0,0.0,0.0,0.312418859723,0.0609769418936,0.25144191783,0.373395801617,0.0609769418936,0.346015054888,219,0.871627318206,0.0840881726889,0.576959667802,nan,nan,nan,nan,0.0,0.0,0.0,nan,368.702048257,843.51843471,844.018459229,843.797612477,nan,nan,nan,nan
1,359,1,1,1.0,1.0,0.287037628237,0,0.0,0.0,0.0,0.312326007508,0.0609169872189,0.251409020289,0.373242994727,0.0609169872189,0.289862947849,89,1.0,-0.229484098413,-0.587370487375,nan,nan,nan,nan,0.0,0.0,0.0,nan,368.702048257,844.518541907,845.018553596,844.805579536,nan,nan,nan,nan
