block,trial,freq_trials,correct_response,actual_response,acc,rts,probe_trials,fast_rt_trigger,slow_rt_trigger,rt_triggered,rts_runningavg,rts_runningstd,rts_runningfastthresh,rts_runningslowthresh,rts_runningstd,rts_trailingavg,trials_colorind,trials_colorrgb0,trials_colorrgb1,trials_colorrgb2,wm_respdeg,wm_respdeg_in_colorspace,wm_respcolorminusorigcolor,wm_resptexind,wm_resptexrgb0,wm_resptexrgb1,wm_resptexrgb2,wm_rts,time_blockstart,time_encarray_offset,time_encarray_onset,time_response,time_iti_offset,time_iti_onset,time_memprobe_offset,time_memprobe_onset
1,1,1,1,1.0,1.0,0.401406615623,0,nan,nan,nan,nan,nan,nan,nan,nan,nan,349,-0.175656888649,0.468768509344,0.147945183432,nan,nan,nan,nan,nan,nan,nan,nan,266.050732872,267.065315341,nan,267.466721957,nan,nan,nan,nan
1,2,1,1,1.0,1.0,0.331654297188,0,nan,nan,nan,nan,nan,nan,nan,nan,nan,68,1.0,-0.129018143495,-0.972903198114,nan,nan,nan,nan,nan,nan,nan,nan,266.050732872,268.007060162,nan,268.33871446,nan,nan,nan,nan
1,3,1,1,1.0,1.0,0.277848355356,0,nan,nan,nan,nan,nan,nan,nan,nan,nan,467,0.473005185182,0.365775667588,-1.0,nan,nan,nan,nan,nan,nan,nan,nan,266.050732872,268.948867135,nan,269.226715491,nan,nan,nan,nan
1,4,1,1,nan,nan,nan,0,nan,nan,nan,nan,nan,nan,nan,nan,nan,7,0.9030914636,0.181853060355,-1.0,nan,nan,nan,nan,nan,nan,nan,nan,266.050732872,269.890649875,nan,nan,nan,nan,nan,nan
1,5,1,1,1.0,1.0,0.0102404286154,0,nan,nan,nan,nan,nan,nan,nan,nan,nan,410,0.0492046846968,0.463921527344,-0.54316189137,nan,nan,nan,nan,nan,nan,nan,nan,266.050732872,270.832441167,nan,270.842681596,nan,nan,nan,nan
1,6,0,0,0.0,1.0,0.580408989917,0,nan,nan,nan,nan,nan,nan,nan,nan,nan,479,0.572572153349,0.331768222426,-1.0,nan,nan,nan,nan,nan,nan,nan,nan,266.050732872,271.774216494,nan,272.354625484,nan,nan,nan,nan
1,7,1,1,1.0,1.0,0.350617863936,0,nan,nan,nan,nan,nan,nan,nan,nan,nan,98,1.0,-0.263822910468,-0.480217789416,nan,nan,nan,nan,nan,nan,nan,nan,266.050732872,272.716008072,nan,273.066625936,nan,nan,nan,nan
1,8,1,1,1.0,1.0,0.48080978042,0,nan,nan,nan,nan,nan,nan,nan,nan,nan,150,1.0,-0.266152531622,0.0638227105866,nan,nan,nan,nan,nan,nan,nan,nan,266.050732872,273.657793377,nan,274.138603157,nan,nan,nan,nan
1,9,1,1,1.0,1.0,0.419012261438,0,nan,nan,nan,nan,nan,nan,nan,nan,nan,212,0.93926288676,0.0467731277665,0.543851001166,nan,nan,nan,nan,nan,nan,nan,nan,266.050732872,274.599575546,nan,275.018587808,nan,nan,nan,nan
1,10,1,1,1.0,1.0,0.357214457472,0,nan,nan,nan,nan,nan,nan,nan,nan,nan,413,0.0683106243366,0.461143133648,-0.585495598612,nan,nan,nan,nan,nan,nan,nan,nan,266.050732872,275.541365128,nan,275.898579586,nan,nan,nan,nan
1,11,0,0,1.0,0.0,0.415396935889,0,0.0,0.0,0.0,nan,nan,nan,nan,nan,nan,479,0.572572153349,0.331768222426,-1.0,nan,nan,nan,nan,nan,nan,nan,nan,266.050732872,276.483157561,nan,276.898554497,nan,nan,nan,nan
1,12,1,1,1.0,1.0,0.513578354032,0,nan,nan,nan,nan,nan,nan,nan,nan,nan,140,1.0,-0.294209249228,-0.0345777392028,nan,nan,nan,nan,nan,nan,nan,nan,266.050732872,277.424937164,nan,277.938515518,nan,nan,nan,nan
1,13,1,1,1.0,1.0,0.419745818246,0,nan,nan,nan,nan,nan,nan,nan,nan,nan,222,0.841778467246,0.0997291618919,0.589484691865,nan,nan,nan,nan,nan,nan,nan,nan,266.050732872,278.366760388,nan,278.786506206,nan,nan,nan,nan
1,14,1,1,1.0,1.0,0.382007419365,0,nan,nan,nan,nan,nan,nan,nan,nan,nan,321,-0.0999433513493,0.43654647086,0.391174984052,nan,nan,nan,nan,nan,nan,nan,nan,266.050732872,279.308509201,nan,279.69051662,nan,nan,nan,nan
1,15,1,1,1.0,1.0,0.328185226885,0,nan,nan,nan,nan,nan,nan,nan,nan,nan,197,1.0,-0.035797595552,0.455774741445,nan,nan,nan,nan,nan,nan,nan,nan,266.050732872,280.250300208,nan,280.578485435,nan,nan,nan,nan
1,16,1,1,1.0,1.0,0.322393749724,0,nan,nan,nan,nan,nan,nan,nan,nan,nan,112,1.0,-0.300501516081,-0.325324861792,nan,nan,nan,nan,nan,nan,nan,nan,266.050732872,281.192087794,nan,281.514481544,nan,nan,nan,nan
1,17,1,1,1.0,1.0,0.39658561151,0,nan,nan,nan,nan,nan,nan,nan,nan,nan,435,0.221263830514,0.433027056876,-1.0,nan,nan,nan,nan,nan,nan,nan,nan,266.050732872,282.13387424,nan,282.530459851,nan,nan,nan,nan
1,18,0,0,0.0,1.0,0.438804322504,0,nan,nan,nan,nan,nan,nan,nan,nan,nan,253,0.513865899396,0.244839928328,0.655977188727,nan,nan,nan,nan,nan,nan,nan,nan,266.050732872,283.07564358,nan,283.514447902,nan,nan,nan,nan
1,19,1,1,1.0,1.0,0.320985936676,0,nan,nan,nan,nan,nan,nan,nan,nan,nan,382,-0.1011887567,0.478291136399,-0.199732273247,nan,nan,nan,nan,nan,nan,nan,nan,266.050732872,284.017425179,nan,284.338411116,nan,nan,nan,nan
1,20,1,1,1.0,1.0,0.41919016256,0,nan,nan,nan,nan,nan,nan,nan,nan,nan,151,1.0,-0.262720288689,0.0734626651272,nan,nan,nan,nan,nan,nan,nan,nan,266.050732872,284.959224454,nan,285.378414617,nan,nan,nan,nan
1,21,1,1,1.0,1.0,0.34931810305,0,nan,nan,nan,nan,nan,nan,nan,nan,nan,194,1.0,-0.0524864644427,0.435571704399,nan,nan,nan,nan,nan,nan,nan,nan,266.050732872,285.901075902,nan,286.250394005,nan,nan,nan,nan
1,22,1,1,1.0,1.0,0.383533262997,0,nan,nan,nan,nan,nan,nan,nan,nan,nan,13,0.950262168777,0.154664060346,-1.0,nan,nan,nan,nan,nan,nan,nan,nan,266.050732872,286.842834408,nan,287.226367671,nan,nan,nan,nan
1,23,1,1,1.0,1.0,0.417749563232,0,nan,nan,nan,nan,nan,nan,nan,nan,nan,247,0.578947625354,0.219392674348,0.6523805853,nan,nan,nan,nan,nan,nan,nan,nan,266.050732872,287.784598616,nan,288.20234818,nan,nan,nan,nan
1,24,1,1,0.0,0.0,0.547937203199,0,0.0,0.0,0.0,nan,nan,nan,nan,nan,nan,146,1.0,-0.278792578557,0.0248813210997,nan,nan,nan,nan,nan,nan,nan,nan,266.050732872,288.726386203,nan,289.274323406,nan,nan,nan,nan
1,25,1,1,1.0,1.0,0.502117421478,0,nan,nan,nan,nan,nan,nan,nan,nan,nan,244,0.611372359265,0.206163547436,0.648880721676,nan,nan,nan,nan,nan,nan,nan,nan,266.050732872,289.668172078,nan,290.1702895,nan,nan,nan,nan
1,26,1,1,1.0,1.0,0.344324614736,0,nan,nan,nan,nan,nan,nan,nan,nan,nan,472,0.51429864939,0.352212277195,-1.0,nan,nan,nan,nan,nan,nan,nan,nan,266.050732872,290.609960805,nan,290.954285419,nan,nan,nan,nan
1,27,1,1,1.0,1.0,0.32252403954,0,nan,nan,nan,nan,nan,nan,nan,nan,nan,130,1.0,-0.309333154106,-0.136071487739,nan,nan,nan,nan,nan,nan,nan,nan,266.050732872,291.551752667,nan,291.874276707,nan,nan,nan,nan
1,28,1,1,1.0,1.0,0.436716836295,0,nan,nan,nan,nan,nan,nan,nan,nan,nan,90,1.0,-0.233635786423,-0.574971871003,nan,nan,nan,nan,nan,nan,nan,nan,266.050732872,292.493531701,nan,292.930248537,nan,nan,nan,nan
1,29,1,1,1.0,1.0,0.254955285229,1,nan,nan,nan,nan,nan,nan,nan,nan,nan,20,1.0,0.121558187834,-1.0,60.5050441823,29.4949558177,15.4324558177,42.0,1.0,0.00954878589686,-1.0,1.12546356907,266.050732872,293.435306172,294.243724997,293.690261457,296.402302678,297.410932589,295.260489319,296.393968128
1,30,0,0,0.0,1.0,0.569669925142,0,nan,nan,nan,nan,nan,nan,nan,nan,nan,117,1.0,-0.307587969795,-0.271886539361,nan,nan,nan,nan,nan,nan,nan,nan,266.050732872,297.552495347,nan,298.122165272,nan,nan,nan,nan
1,31,1,1,1.0,1.0,0.507877537981,0,nan,nan,nan,nan,nan,nan,nan,nan,nan,195,1.0,-0.0469245268387,0.442396054288,nan,nan,nan,nan,nan,nan,nan,nan,266.050732872,298.494284644,nan,299.002162182,nan,nan,nan,nan
1,32,1,1,1.0,1.0,0.470091242692,0,nan,nan,nan,nan,nan,nan,nan,nan,nan,297,0.0686262056446,0.388646276542,0.544904663634,nan,nan,nan,nan,nan,nan,nan,nan,266.050732872,299.436065958,nan,299.906157201,nan,nan,nan,nan
1,33,1,1,1.0,1.0,0.248270881712,0,nan,nan,nan,nan,nan,nan,nan,nan,nan,15,0.965734432428,0.145352784795,-1.0,nan,nan,nan,nan,nan,nan,nan,nan,266.050732872,300.377854684,nan,300.626125566,nan,nan,nan,nan
1,34,0,0,1.0,0.0,0.282475492917,0,0.0,0.0,0.0,nan,nan,nan,nan,nan,nan,91,1.0,-0.237709898716,-0.562722318432,nan,nan,nan,nan,nan,nan,nan,nan,266.050732872,301.319640275,nan,301.602115768,nan,nan,nan,nan
1,35,1,1,1.0,1.0,0.500680813682,0,nan,nan,nan,nan,nan,nan,nan,nan,nan,414,0.0747837862165,0.460162189034,-0.600089175003,nan,nan,nan,nan,nan,nan,nan,nan,266.050732872,302.261418453,nan,302.762099267,nan,nan,nan,nan
1,36,1,1,1.0,1.0,0.390889071859,1,nan,nan,nan,nan,nan,nan,nan,nan,nan,232,0.739158239773,0.150046616059,0.623712016981,165.136208379,284.863791621,121.738791621,405.0,0.018463324075,0.468009379796,-0.476293327428,1.34212907637,266.050732872,303.203202618,304.011636553,303.59409169,306.378542625,307.379167845,305.020040951,306.370214348
1,37,1,1,1.0,1.0,0.51358975796,0,nan,nan,nan,nan,nan,nan,nan,nan,nan,107,1.0,-0.290089771429,-0.379592780214,nan,nan,nan,nan,nan,nan,nan,nan,266.050732872,307.520431821,nan,308.034021578,nan,nan,nan,nan
1,38,1,1,1.0,1.0,0.315764655126,0,nan,nan,nan,nan,nan,nan,nan,nan,nan,332,-0.146647089803,0.45205423783,0.302714191958,nan,nan,nan,nan,nan,nan,nan,nan,266.050732872,308.462205152,nan,308.777969807,nan,nan,nan,nan
1,39,1,1,1.0,1.0,0.341968566179,0,nan,nan,nan,nan,nan,nan,nan,nan,nan,205,1.0,0.00854800403903,0.505535240796,nan,nan,nan,nan,nan,nan,nan,nan,266.050732872,309.403994734,nan,309.7459633,nan,nan,nan,nan
1,40,1,1,1.0,1.0,0.304165450274,0,nan,nan,nan,nan,nan,nan,nan,nan,nan,407,0.0305886347219,0.46645515455,-0.502577406972,nan,nan,nan,nan,nan,nan,nan,nan,266.050732872,310.345789162,nan,310.649954612,nan,nan,nan,nan
1,41,1,1,1.0,1.0,0.330341991968,0,nan,nan,nan,nan,nan,nan,nan,nan,nan,309,-0.0258396312562,0.415106541901,0.475305697888,nan,nan,nan,nan,nan,nan,nan,nan,266.050732872,311.287598131,nan,311.617940123,nan,nan,nan,nan
1,42,1,1,1.0,1.0,0.364561428316,0,nan,nan,nan,nan,nan,nan,nan,nan,nan,477,0.555879874869,0.337784025865,-1.0,nan,nan,nan,nan,nan,nan,nan,nan,266.050732872,312.229364905,nan,312.593926333,nan,nan,nan,nan
1,43,1,1,1.0,1.0,0.438712520991,0,nan,nan,nan,nan,nan,nan,nan,nan,nan,356,-0.17284377641,0.473239407326,0.0788368070227,nan,nan,nan,nan,nan,nan,nan,nan,266.050732872,313.171185277,nan,313.609897798,nan,nan,nan,nan
1,44,1,1,1.0,1.0,0.456945097074,0,nan,nan,nan,nan,nan,nan,nan,nan,nan,107,1.0,-0.290089771429,-0.379592780214,nan,nan,nan,nan,nan,nan,nan,nan,266.050732872,314.112936086,nan,314.569881183,nan,nan,nan,nan
1,45,1,1,1.0,1.0,0.427148098126,0,nan,nan,nan,nan,nan,nan,nan,nan,nan,29,1.0,0.0770173926463,-1.0,nan,nan,nan,nan,nan,nan,nan,nan,266.050732872,315.054719395,nan,315.481867493,nan,nan,nan,nan
1,46,1,1,1.0,1.0,0.349355735932,0,nan,nan,nan,nan,nan,nan,nan,nan,nan,259,0.44882283482,0.268906983076,0.655011783756,nan,nan,nan,nan,nan,nan,nan,nan,266.050732872,315.996506126,nan,316.345861862,nan,nan,nan,nan
1,47,1,1,1.0,1.0,0.311547202989,0,nan,nan,nan,nan,nan,nan,nan,nan,nan,490,0.664660387652,0.296157848571,-1.0,nan,nan,nan,nan,nan,nan,nan,nan,266.050732872,316.938296563,nan,317.249843766,nan,nan,nan,nan
1,48,0,0,1.0,0.0,0.273753780406,0,0.0,0.0,0.0,nan,nan,nan,nan,nan,nan,223,0.83172397378,0.104890589731,0.593432239612,nan,nan,nan,nan,nan,nan,nan,nan,266.050732872,317.880083864,nan,318.153837645,nan,nan,nan,nan
1,49,1,1,1.0,1.0,0.427936678636,0,nan,nan,nan,nan,nan,nan,nan,nan,nan,177,1.0,-0.145192147526,0.306921212481,nan,nan,nan,nan,nan,nan,nan,nan,266.050732872,318.821861187,nan,319.249797866,nan,nan,nan,nan
1,50,1,1,1.0,1.0,0.526127789984,0,nan,nan,nan,nan,nan,nan,nan,nan,nan,114,1.0,-0.303747463913,-0.303859371662,nan,nan,nan,nan,nan,nan,nan,nan,266.050732872,319.763646777,nan,320.289774567,nan,nan,nan,nan
1,51,1,1,1.0,1.0,0.448314615758,0,nan,nan,nan,nan,nan,nan,nan,nan,nan,39,1.0,0.0253789930673,-1.0,nan,nan,nan,nan,nan,nan,nan,nan,266.050732872,320.705435504,nan,321.15375012,nan,nan,nan,nan
1,52,1,1,1.0,1.0,0.418528735521,0,nan,nan,nan,nan,nan,nan,nan,nan,nan,120,1.0,-0.310161497659,-0.240162905937,nan,nan,nan,nan,nan,nan,nan,nan,266.050732872,321.647216533,nan,322.065745268,nan,nan,nan,nan
1,53,1,1,1.0,1.0,0.508738533361,0,nan,nan,nan,nan,nan,nan,nan,nan,nan,25,1.0,0.0970682892709,-1.0,nan,nan,nan,nan,nan,nan,nan,nan,266.050732872,322.589009821,nan,323.097748354,nan,nan,nan,nan
1,54,1,1,1.0,1.0,0.398917996674,1,nan,nan,nan,nan,nan,nan,nan,nan,nan,219,0.871627318206,0.0840881726889,0.576959667802,-53.9726266149,143.972626615,-10.0117483851,205.0,1.0,0.00854800403903,0.505535240796,1.2337471433,266.050732872,323.530803394,324.3392245,323.929721391,326.614453091,327.612037172,325.364325082,326.606121963
1,55,1,1,1.0,1.0,0.621295723948,0,nan,nan,nan,nan,nan,nan,nan,nan,nan,59,1.0,-0.0814409933332,-1.0,nan,nan,nan,nan,nan,nan,nan,nan,266.050732872,327.756332593,nan,328.377628317,nan,nan,nan,nan
1,56,1,1,1.0,1.0,0.455515901558,0,nan,nan,nan,nan,nan,nan,nan,nan,nan,510,0.830554458933,0.220436700166,-1.0,nan,nan,nan,nan,nan,nan,nan,nan,266.050732872,328.698107635,nan,329.153623536,nan,nan,nan,nan
1,57,1,1,1.0,1.0,0.30570982513,0,nan,nan,nan,nan,nan,nan,nan,nan,nan,95,1.0,-0.253175017597,-0.514975443931,nan,nan,nan,nan,nan,nan,nan,nan,266.050732872,329.639911186,nan,329.945621011,nan,nan,nan,nan
1,58,1,1,1.0,1.0,0.299900957034,0,nan,nan,nan,nan,nan,nan,nan,nan,nan,386,-0.0833946583454,0.477495592553,-0.245424736514,nan,nan,nan,nan,nan,nan,nan,nan,266.050732872,330.581699913,nan,330.88160087,nan,nan,nan,nan
1,59,1,1,1.0,1.0,0.390089372522,1,nan,nan,nan,nan,nan,nan,nan,nan,nan,328,-0.132159558243,0.44685796506,0.336046158271,-132.510447078,222.510447078,-8.114552922,316.0,-0.0718215561597,0.428203514031,0.427892255365,1.30057321768,266.050732872,331.523484078,332.331891213,331.91357345,334.673842389,335.677109325,333.356986094,334.665502992
1,60,1,1,1.0,1.0,0.561466520419,0,nan,nan,nan,nan,nan,nan,nan,nan,nan,192,1.0,-0.0635997558896,0.421658406928,nan,nan,nan,nan,nan,nan,nan,nan,266.050732872,335.824022228,nan,336.385488749,nan,nan,nan,nan
1,61,1,1,1.0,1.0,0.355676354724,0,nan,nan,nan,nan,nan,nan,nan,nan,nan,273,0.299732959835,0.319577193062,0.635038033336,nan,nan,nan,nan,nan,nan,nan,nan,266.050732872,336.76581124,nan,337.121487595,nan,nan,nan,nan
1,62,1,1,1.0,1.0,0.31786497077,0,nan,nan,nan,nan,nan,nan,nan,nan,nan,165,1.0,-0.205056383665,0.203745440608,nan,nan,nan,nan,nan,nan,nan,nan,266.050732872,337.707604243,nan,338.025469214,nan,nan,nan,nan
1,63,1,1,1.0,1.0,0.256035520928,0,nan,nan,nan,nan,nan,nan,nan,nan,nan,328,-0.132159558243,0.44685796506,0.336046158271,nan,nan,nan,nan,nan,nan,nan,nan,266.050732872,338.64939297,nan,338.905428491,nan,nan,nan,nan
1,64,0,0,1.0,0.0,0.330274708918,0,0.0,0.0,0.0,nan,nan,nan,nan,nan,nan,493,0.689769084006,0.285700779988,-1.0,nan,nan,nan,nan,nan,nan,nan,nan,266.050732872,339.591156893,nan,339.921431602,nan,nan,nan,nan
1,65,1,1,1.0,1.0,0.396454181289,0,nan,nan,nan,nan,nan,nan,nan,nan,nan,332,-0.146647089803,0.45205423783,0.302714191958,nan,nan,nan,nan,nan,nan,nan,nan,266.050732872,340.532965576,nan,340.929419757,nan,nan,nan,nan
1,66,1,1,1.0,1.0,0.350666045444,0,nan,nan,nan,nan,nan,nan,nan,nan,nan,67,1.0,-0.12380466598,-1.0,nan,nan,nan,nan,nan,nan,nan,nan,266.050732872,341.474738907,nan,341.825404953,nan,nan,nan,nan
1,67,1,1,1.0,1.0,0.384844998014,0,nan,nan,nan,nan,nan,nan,nan,nan,nan,145,1.0,-0.281667413287,0.0150551701241,nan,nan,nan,nan,nan,nan,nan,nan,266.050732872,342.416538183,nan,342.801383181,nan,nan,nan,nan
1,68,1,1,1.0,1.0,0.33104276238,0,nan,nan,nan,nan,nan,nan,nan,nan,nan,393,-0.0489456633786,0.475102171109,-0.327443230616,nan,nan,nan,nan,nan,nan,nan,nan,266.050732872,343.358324343,nan,343.689367106,nan,nan,nan,nan
1,69,1,1,1.0,1.0,0.397251314833,0,nan,nan,nan,nan,nan,nan,nan,nan,nan,197,1.0,-0.035797595552,0.455774741445,nan,nan,nan,nan,nan,nan,nan,nan,266.050732872,344.300108223,nan,344.697359538,nan,nan,nan,nan
1,70,1,1,1.0,1.0,0.439447218203,0,nan,nan,nan,nan,nan,nan,nan,nan,nan,13,0.950262168777,0.154664060346,-1.0,nan,nan,nan,nan,nan,nan,nan,nan,266.050732872,345.24189809,nan,345.681345308,nan,nan,nan,nan
1,71,1,1,1.0,1.0,0.385632723221,0,nan,nan,nan,nan,nan,nan,nan,nan,nan,230,0.760023132926,0.140224214653,0.61781109556,nan,nan,nan,nan,nan,nan,nan,nan,266.050732872,346.183688242,nan,346.569320965,nan,nan,nan,nan
1,72,1,1,1.0,1.0,0.491829666658,0,nan,nan,nan,nan,nan,nan,nan,nan,nan,494,0.698129958021,0.282143999684,-1.0,nan,nan,nan,nan,nan,nan,nan,nan,266.050732872,347.125469271,nan,347.617298938,nan,nan,nan,nan
1,73,1,1,1.0,1.0,0.526025724947,0,nan,nan,nan,nan,nan,nan,nan,nan,nan,4,0.879126049628,0.195014037372,-1.0,nan,nan,nan,nan,nan,nan,nan,nan,266.050732872,348.067256287,nan,348.593282012,nan,nan,nan,nan
1,74,1,1,1.0,1.0,0.400202362332,0,nan,nan,nan,nan,nan,nan,nan,nan,nan,275,0.279002393219,0.326185254474,0.630178474337,nan,nan,nan,nan,nan,nan,nan,nan,266.050732872,349.009041877,nan,349.40924424,nan,nan,nan,nan
1,75,1,1,1.0,1.0,0.362434028415,0,nan,nan,nan,nan,nan,nan,nan,nan,nan,14,0.95801504718,0.150023555696,-1.0,nan,nan,nan,nan,nan,nan,nan,nan,266.050732872,349.95081806,nan,350.313252088,nan,nan,nan,nan
1,76,1,1,1.0,1.0,0.548609463847,0,nan,nan,nan,nan,nan,nan,nan,nan,nan,128,1.0,-0.310663006781,-0.156689791083,nan,nan,nan,nan,nan,nan,nan,nan,266.050732872,350.892616765,nan,351.441226228,nan,nan,nan,nan
1,77,1,1,1.0,1.0,0.534817286534,0,nan,nan,nan,nan,nan,nan,nan,nan,nan,21,1.0,0.116713997928,-1.0,nan,nan,nan,nan,nan,nan,nan,nan,266.050732872,351.8344015,nan,352.369218786,nan,nan,nan,nan
1,78,1,1,1.0,1.0,0.400368004222,0,nan,nan,nan,nan,nan,nan,nan,nan,nan,371,-0.14179360683,0.478331938097,-0.0779732583494,nan,nan,nan,nan,nan,nan,nan,nan,266.050732872,352.792847352,nan,353.193215356,nan,nan,nan,nan
1,79,1,1,1.0,1.0,0.330538994633,0,nan,nan,nan,nan,nan,nan,nan,nan,nan,287,0.159501648714,0.36255249221,0.590751920292,nan,nan,nan,nan,nan,nan,nan,nan,266.050732872,353.734648337,nan,354.065187332,nan,nan,nan,nan
1,80,1,1,1.0,1.0,0.30073572346,0,nan,nan,nan,nan,nan,nan,nan,nan,nan,358,-0.170583909915,0.474268316859,0.0585874414746,nan,nan,nan,nan,nan,nan,nan,nan,266.050732872,354.676423379,nan,354.977159103,nan,nan,nan,nan
1,81,1,1,1.0,1.0,0.32694818743,0,0.0,0.0,0.0,0.396536289529,0.0961096909327,0.300426598596,0.492645980461,0.0961096909327,0.319407635174,43,1.0,0.00424534395127,-1.0,nan,nan,nan,nan,nan,nan,nan,nan,266.050732872,355.618192434,nan,355.945140622,nan,nan,nan,nan
1,82,1,1,1.0,1.0,0.321105107549,0,0.0,0.0,0.0,0.395666438252,0.0958195384079,0.299846899844,0.49148597666,0.0958195384079,0.316263006146,150,1.0,-0.266152531622,0.0638227105866,nan,nan,nan,nan,nan,nan,nan,nan,266.050732872,356.559992565,nan,356.881097672,nan,nan,nan,nan
1,83,0,0,0.0,1.0,0.507306201966,0,0.0,0.0,0.0,0.394745927997,0.0955814869739,0.299164441023,0.490327414971,0.0955814869739,0.385119832315,409,0.0429436170054,0.464793150178,-0.529461854507,nan,nan,nan,nan,nan,nan,nan,nan,266.050732872,357.501783572,nan,358.009089774,nan,nan,nan,nan
1,84,1,1,1.0,1.0,0.285536018084,0,0.0,0.0,0.0,0.396118614265,0.095796836482,0.300321777783,0.491915450747,0.095796836482,0.371315775866,458,0.399688045963,0.388050214986,-1.0,nan,nan,nan,nan,nan,nan,nan,nan,266.050732872,358.443570588,nan,358.729106606,nan,nan,nan,nan
1,85,1,1,1.0,1.0,0.335721217562,0,0.0,0.0,0.0,0.394786293829,0.0959792872536,0.298807006575,0.490765581082,0.0959792872536,0.376187812537,296,0.0772713571413,0.386205321608,0.550001308524,nan,nan,nan,nan,nan,nan,nan,nan,266.050732872,359.385369578,nan,359.721090796,nan,nan,nan,nan
1,86,1,1,1.0,1.0,0.41791206901,0,0.0,0.0,0.0,0.394083138159,0.0956210967814,0.298462041377,0.48970423494,0.0956210967814,0.346389768218,104,1.0,-0.282351481576,-0.412644567278,nan,nan,nan,nan,nan,nan,nan,nan,266.050732872,360.327139773,nan,360.745051842,nan,nan,nan,nan
1,87,1,1,1.0,1.0,0.276096999412,0,0.0,0.0,0.0,0.394363478522,0.0950916738056,0.299271804716,0.489455152327,0.0950916738056,0.343243428661,314,-0.0594438881467,0.42463230952,0.441925406839,nan,nan,nan,nan,nan,nan,nan,nan,266.050732872,361.268927359,nan,361.545024359,nan,nan,nan,nan
1,88,1,1,1.0,1.0,0.262304251781,0,0.0,0.0,0.0,0.392988286904,0.0953835932042,0.2976046937,0.488371880108,0.0953835932042,0.318771106734,34,1.0,0.0514419701458,-1.0,nan,nan,nan,nan,nan,nan,nan,nan,266.050732872,362.210710099,nan,362.473014351,nan,nan,nan,nan
1,89,1,1,1.0,1.0,0.232507252949,0,1.0,0.0,0.0,0.391486171558,0.0958514524716,0.295634719086,0.48733762403,0.0958514524716,0.256969501381,285,0.178734351563,0.356878681702,0.598527012995,nan,nan,nan,nan,nan,nan,nan,nan,266.050732872,363.152527335,nan,363.385034588,nan,nan,nan,nan
1,90,1,1,1.0,1.0,0.418690385995,1,0.0,0.0,1.0,0.389679592938,0.0967834784986,0.292896114439,0.486463071436,0.0967834784986,0.304500630242,127,1.0,-0.31111021432,-0.167036648065,-14.7691985303,104.76919853,15.4723235303,149.0,1.0,-0.269478519393,0.0541436597792,1.25044190162,266.050732872,364.094288977,364.902701245,364.512979363,367.194659947,368.202554591,365.927814657,367.186278926
1,91,1,1,1.0,1.0,0.360150109744,0,0.0,0.0,0.0,0.390005556904,0.0962867813945,0.29371877551,0.486292338299,0.0962867813945,0.337115916229,263,0.405698801511,0.284171736334,0.651829885785,nan,nan,nan,nan,nan,nan,nan,nan,266.050732872,368.344828668,nan,368.704978777,nan,nan,nan,nan
1,92,1,1,1.0,1.0,0.242293520714,0,0.0,0.0,0.0,0.389673829714,0.0958014894345,0.293872340279,0.485475319148,0.0958014894345,0.340378005484,48,1.0,-0.0224273256894,-1.0,nan,nan,nan,nan,nan,nan,nan,nan,266.050732872,369.286623951,nan,369.528917472,nan,nan,nan,nan
1,93,1,1,1.0,1.0,0.308490099153,0,0.0,0.0,0.0,0.388054265879,0.0965046003385,0.29154966554,0.484558866217,0.0965046003385,0.303644576537,121,1.0,-0.310732805591,-0.229640808446,nan,nan,nan,nan,nan,nan,nan,nan,266.050732872,370.228404695,nan,370.536894794,nan,nan,nan,nan
1,94,1,1,1.0,1.0,0.206707895617,0,1.0,0.0,0.0,0.387189437979,0.0963325983804,0.290856839599,0.48352203636,0.0963325983804,0.252497171828,190,1.0,-0.0746884387243,0.407399635172,nan,nan,nan,nan,nan,nan,nan,nan,266.050732872,371.170199979,nan,371.376907875,nan,nan,nan,nan
1,95,0,0,1.0,0.0,0.0808936562389,0,0.0,0.0,0.0,0.385248776234,0.0976046738092,0.287644102424,0.482853450043,0.0976046738092,0.198697217003,426,0.156193047225,0.446210853967,-0.81485970128,nan,nan,nan,nan,nan,nan,nan,nan,266.050732872,372.111977587,nan,372.192871243,nan,nan,nan,nan
1,96,1,1,1.0,1.0,0.23509109451,0,0.0,0.0,0.0,0.382010955808,0.101981804819,0.280029150989,0.483992760628,0.101981804819,0.174230882122,468,0.481236483515,0.363131620867,-1.0,nan,nan,nan,nan,nan,nan,nan,nan,266.050732872,373.053766598,nan,373.288857693,nan,nan,nan,nan
1,97,1,1,1.0,1.0,0.17330326885,0,0.0,0.0,0.0,0.380464430952,0.102545771591,0.277918659361,0.483010202543,0.102545771591,0.163096006533,346,-0.174317561957,0.466431294057,0.176670174816,nan,nan,nan,nan,nan,nan,nan,nan,266.050732872,373.995538789,nan,374.168842058,nan,nan,nan,nan
1,98,0,0,1.0,0.0,0.167469312088,0,0.0,0.0,0.0,0.37830650218,0.104156035732,0.274150466449,0.482462537912,0.104156035732,0.191954558482,62,1.0,-0.0974372467467,-1.0,nan,nan,nan,nan,nan,nan,nan,nan,266.050732872,374.93733835,nan,375.104807662,nan,nan,nan,nan
1,99,1,1,1.0,1.0,0.409645087318,0,0.0,0.0,0.0,0.376132922901,0.105783678715,0.270349244186,0.481916601616,0.105783678715,0.250139222752,445,0.296953900578,0.415520102116,-1.0,nan,nan,nan,nan,nan,nan,nan,nan,266.050732872,375.879114817,nan,376.288759904,nan,nan,nan,nan
1,100,1,1,1.0,1.0,0.363847543369,0,0.0,0.0,0.0,0.376474883763,0.105296457753,0.271178426009,0.481771341516,0.105296457753,0.313653980925,64,1.0,-0.108036866323,-1.0,nan,nan,nan,nan,nan,nan,nan,nan,266.050732872,376.82092293,nan,377.184770473,nan,nan,nan,nan
1,101,1,1,1.0,1.0,0.326041861437,0,0.0,0.0,0.0,0.37634733487,0.104770916652,0.271576418218,0.481118251522,0.104770916652,0.366511497375,468,0.481236483515,0.363131620867,-1.0,nan,nan,nan,nan,nan,nan,nan,nan,266.050732872,377.762692555,nan,378.088734417,nan,nan,nan,nan
1,102,1,1,1.0,1.0,0.320243256865,0,0.0,0.0,0.0,0.375844280135,0.104365841485,0.271478438651,0.48021012162,0.104365841485,0.336710887224,192,1.0,-0.0635997558896,0.421658406928,nan,nan,nan,nan,nan,nan,nan,nan,266.050732872,378.704477005,nan,379.024720262,nan,nan,nan,nan
1,103,1,1,1.0,1.0,0.402457771357,0,0.0,0.0,0.0,0.375293774954,0.103993704685,0.27130007027,0.479287479639,0.103993704685,0.34958096322,250,0.546428449327,0.232286661223,0.654747725831,nan,nan,nan,nan,nan,nan,nan,nan,266.050732872,379.646272574,nan,380.048730345,nan,nan,nan,nan
1,104,1,1,1.0,1.0,0.356662507984,0,0.0,0.0,0.0,0.375560088645,0.103517280957,0.272042807688,0.479077369601,0.103517280957,0.359787845402,349,-0.175656888649,0.468768509344,0.147945183432,nan,nan,nan,nan,nan,nan,nan,nan,266.050732872,380.588062156,nan,380.944724664,nan,nan,nan,nan
1,105,1,1,1.0,1.0,0.446834957926,0,0.0,0.0,0.0,0.375376616988,0.103030208218,0.27234640877,0.478406825206,0.103030208218,0.401985079089,260,0.438016636947,0.272781976488,0.654406567654,nan,nan,nan,nan,nan,nan,nan,nan,266.050732872,381.529849172,nan,381.97668413,nan,nan,nan,nan
1,106,1,1,1.0,1.0,0.393046977231,0,0.0,0.0,0.0,0.37606371642,0.102770527028,0.273293189392,0.478834243448,0.102770527028,0.398848147714,457,0.391639248186,0.390358177281,-1.0,nan,nan,nan,nan,nan,nan,nan,nan,266.050732872,382.471631911,nan,382.864678889,nan,nan,nan,nan
1,107,1,1,1.0,1.0,0.33124803286,0,0.0,0.0,0.0,0.376225461761,0.102293272676,0.273932189085,0.478518734437,0.102293272676,0.390376656006,400,-0.0107874812989,0.471427301814,-0.412692688905,nan,nan,nan,nan,nan,nan,nan,nan,266.050732872,383.413420638,nan,383.744668671,nan,nan,nan,nan
1,108,1,1,1.0,1.0,0.293440925423,0,0.0,0.0,0.0,0.375801146394,0.101902414295,0.273898732099,0.477703560689,0.101902414295,0.339245311838,347,-0.174938837379,0.46723881498,0.167157479366,nan,nan,nan,nan,nan,nan,nan,nan,266.050732872,384.355209079,nan,384.648650005,nan,nan,nan,nan
1,109,1,1,1.0,1.0,0.439648497151,0,0.0,0.0,0.0,0.375031424703,0.101734243663,0.27329718104,0.476765668365,0.101734243663,0.354779151812,199,1.0,-0.0246761787097,0.468786302982,nan,nan,nan,nan,nan,nan,nan,nan,266.050732872,385.296992674,nan,385.736641171,nan,nan,nan,nan
1,110,1,1,1.0,1.0,0.313824564451,0,0.0,0.0,0.0,0.375629730929,0.101451107224,0.274178623705,0.477080838153,0.101451107224,0.348971329009,274,0.289344050657,0.322900892411,0.632670269059,nan,nan,nan,nan,nan,nan,nan,nan,266.050732872,386.238772563,nan,386.552597127,nan,nan,nan,nan
1,111,1,1,1.0,1.0,0.292031401768,0,0.0,0.0,0.0,0.375062711053,0.101156440148,0.273906270905,0.476219151201,0.101156440148,0.34850148779,337,-0.160643365934,0.457858386897,0.259303564052,nan,nan,nan,nan,nan,nan,nan,nan,266.050732872,387.180559864,nan,387.472591265,nan,nan,nan,nan
1,112,1,1,1.0,1.0,0.246260371874,0,0.0,0.0,0.0,0.374307880969,0.101003496366,0.273304384603,0.475311377334,0.101003496366,0.284038779365,34,1.0,0.0514419701458,-1.0,nan,nan,nan,nan,nan,nan,nan,nan,266.050732872,388.122345169,nan,388.368605541,nan,nan,nan,nan
1,113,1,1,1.0,1.0,0.512451077229,0,0.0,0.0,0.0,0.373154299806,0.101272807107,0.271881492699,0.474427106912,0.101272807107,0.350247616957,270,0.331159066004,0.309369715406,0.641393874915,nan,nan,nan,nan,nan,nan,nan,nan,266.050732872,389.064125913,nan,389.57657699,nan,nan,nan,nan
1,114,1,1,1.0,1.0,0.458619761514,0,0.0,0.0,0.0,0.374398021033,0.101667634609,0.273619687616,0.476667004723,0.101667634609,0.405777070206,443,0.281558783006,0.419268214519,-1.0,nan,nan,nan,nan,nan,nan,nan,nan,266.050732872,390.005924333,nan,390.464544094,nan,nan,nan,nan
1,115,1,1,nan,nan,nan,0,0.0,0.0,0.0,0.37514334617,0.101523658554,0.273619687616,0.476667004723,0.101523658554,0.485535419371,163,1.0,-0.214247802105,0.185723682048,nan,nan,nan,nan,nan,nan,nan,nan,266.050732872,390.947711919,nan,nan,nan,nan,nan,nan
1,116,1,1,1.0,1.0,0.686985968612,0,0.0,0.0,0.0,0.37514334617,0.101523658554,0.273619687616,0.476667004723,0.101523658554,0.572802865063,398,-0.0220377755791,0.472608796233,-0.387943383198,nan,nan,nan,nan,nan,nan,nan,nan,266.050732872,391.889494943,nan,392.576480912,nan,nan,nan,nan
1,117,1,1,1.0,1.0,0.473214489291,0,0.0,0.0,0.0,0.37787880777,0.105176952167,0.272701855603,0.483055759937,0.105176952167,0.580100228952,30,1.0,0.071945658744,-1.0,nan,nan,nan,nan,nan,nan,nan,nan,266.050732872,392.831283385,nan,393.304497874,nan,nan,nan,nan
1,118,1,1,1.0,1.0,0.563434550655,0,0.0,1.0,0.0,0.378707813696,0.105092078169,0.273615735528,0.483799891865,0.105092078169,0.574545002853,226,0.801265930663,0.120208988367,0.60458276857,nan,nan,nan,nan,nan,nan,nan,nan,266.050732872,393.773045312,nan,394.336479863,nan,nan,nan,nan
1,119,0,0,0.0,1.0,0.573591160588,1,0.0,0.0,1.0,0.380300285567,0.106022503223,0.274277782344,0.48632278879,0.106022503223,0.536746733511,291,0.122027637739,0.373441943191,0.573791926984,-148.104326145,238.104326145,33.4949511447,339.0,-0.164955840019,0.45996923152,0.241423096872,1.16711350996,266.050732872,394.714857702,395.52327054,395.288448862,397.731831856,398.731246265,396.54835088,397.723507285
1,120,1,1,1.0,1.0,0.526663488825,0,0.0,0.0,0.0,0.381952344327,0.107057436956,0.274894907372,0.489009781283,0.107057436956,0.554563066689,167,1.0,-0.195605812978,0.221546716301,nan,nan,nan,nan,nan,nan,nan,nan,266.050732872,398.873715634,nan,399.400379123,nan,nan,nan,nan
1,121,1,1,1.0,1.0,0.280864975415,0,0.0,0.0,0.0,0.383178709959,0.107424997054,0.275753712905,0.490603707012,0.107424997054,0.460373208276,384,-0.0924750057551,0.477945316949,-0.222479273925,nan,nan,nan,nan,nan,nan,nan,nan,266.050732872,399.815505216,nan,400.096370192,nan,nan,nan,nan
1,122,1,1,1.0,1.0,0.275074923644,0,0.0,0.0,0.0,0.382318930677,0.107379616867,0.27493931381,0.489698547544,0.107379616867,0.360867795961,445,0.296953900578,0.415520102116,-1.0,nan,nan,nan,nan,nan,nan,nan,nan,266.050732872,400.757288811,nan,401.032363735,nan,nan,nan,nan
1,123,1,1,1.0,1.0,0.365258207312,0,0.0,0.0,0.0,0.381425230618,0.107374768342,0.274050462277,0.48879999896,0.107374768342,0.307066035457,3,0.871087178923,0.199335109687,-1.0,nan,nan,nan,nan,nan,nan,nan,nan,266.050732872,401.699076682,nan,402.06433489,nan,nan,nan,nan
1,124,1,1,1.0,1.0,0.551469850354,0,0.0,0.0,0.0,0.381291618855,0.106940167009,0.274351451847,0.488231785864,0.106940167009,0.397267660437,101,1.0,-0.273572672894,-0.446152610616,nan,nan,nan,nan,nan,nan,nan,nan,266.050732872,402.640863983,nan,403.192333834,nan,nan,nan,nan
1,125,1,1,1.0,1.0,0.385609630379,0,0.0,0.0,0.0,0.382686522392,0.107600634024,0.275085888368,0.490287156416,0.107600634024,0.434112562682,289,0.140592130943,0.368073254824,0.582505265782,nan,nan,nan,nan,nan,nan,nan,nan,266.050732872,403.582708304,nan,403.968317934,nan,nan,nan,nan
1,126,1,1,1.0,1.0,0.323854590999,0,0.0,0.0,0.0,0.382710287498,0.107162661903,0.275547625595,0.489872949401,0.107162661903,0.420311357244,403,0.00657627305109,0.469456436931,-0.450524507496,nan,nan,nan,nan,nan,nan,nan,nan,266.050732872,404.524449419,nan,404.84830401,nan,nan,nan,nan
1,127,1,1,1.0,1.0,0.326057826984,0,0.0,0.0,0.0,0.382235644784,0.106859415432,0.275376229352,0.489095060216,0.106859415432,0.345174016121,175,1.0,-0.155629953633,0.290361762956,nan,nan,nan,nan,nan,nan,nan,nan,266.050732872,405.46622332,nan,405.792281147,nan,nan,nan,nan
1,128,0,0,0.0,1.0,0.424240955617,0,0.0,0.0,0.0,0.381786222242,0.106548715554,0.275237506688,0.488334937796,0.106548715554,0.358051124533,475,0.539218753276,0.343659807328,-1.0,nan,nan,nan,nan,nan,nan,nan,nan,266.050732872,406.408010622,nan,406.832251577,nan,nan,nan,nan
1,129,1,1,1.0,1.0,0.154428937589,0,0.0,0.0,0.0,0.38212316457,0.106191900936,0.275931263634,0.488315065506,0.106191900936,0.30157590673,402,0.000724920831492,0.470139955471,-0.437811562499,nan,nan,nan,nan,nan,nan,nan,nan,266.050732872,407.349799918,nan,407.504228856,nan,nan,nan,nan
1,130,1,1,1.0,1.0,0.164640571456,0,0.0,0.0,0.0,0.380330296641,0.107670506902,0.272659789739,0.488000803544,0.107670506902,0.247770154887,217,0.891250405156,0.0735373331823,0.568048345461,nan,nan,nan,nan,nan,nan,nan,nan,266.050732872,408.291583798,nan,408.45622437,nan,nan,nan,nan
1,131,1,1,1.0,1.0,0.19082623627,0,1.0,0.0,0.0,0.378645220663,0.10891731874,0.269727901923,0.487562539404,0.10891731874,0.169965248439,160,1.0,-0.227501418013,0.158297521075,nan,nan,nan,nan,nan,nan,nan,nan,266.050732872,409.233373095,nan,409.424199331,nan,nan,nan,nan
1,132,1,1,1.0,1.0,0.265024370165,1,0.0,0.0,1.0,0.377189259544,0.109737680558,0.267451578986,0.486926940102,0.109737680558,0.20683039263,372,-0.138660017671,0.478458869494,-0.0888123791441,-177.084677883,267.084677883,5.52217788336,380.0,-0.109519508899,0.478533032186,-0.177177385375,0.950414361199,266.050732872,410.175160681,410.9835758,410.440185051,412.975445095,413.972161053,412.008647017,412.9671114
1,133,1,1,1.0,1.0,0.330802710028,0,0.0,0.0,0.0,0.376326452702,0.109753164899,0.266573287803,0.486079617602,0.109753164899,0.262217772154,437,0.23613482661,0.429770237144,-1.0,nan,nan,nan,nan,nan,nan,nan,nan,266.050732872,414.117324311,nan,414.448127021,nan,nan,nan,nan
1,134,1,1,1.0,1.0,0.284987204825,0,0.0,0.0,0.0,0.375978943216,0.109405228531,0.266573714686,0.485384171747,0.109405228531,0.293604761673,62,1.0,-0.0974372467467,-1.0,nan,nan,nan,nan,nan,nan,nan,nan,266.050732872,415.059111327,nan,415.344098532,nan,nan,nan,nan
1,135,1,1,1.0,1.0,0.19119201682,0,0.0,0.0,0.0,0.375289611865,0.109275222486,0.266014389379,0.484564834351,0.109275222486,0.268993977224,256,0.481312611765,0.257047908656,0.656065722404,nan,nan,nan,nan,nan,nan,nan,nan,266.050732872,416.000882663,nan,416.19207468,nan,nan,nan,nan
1,136,1,1,1.0,1.0,0.0973908418091,0,1.0,0.0,0.0,0.373905419421,0.110019099467,0.259680326825,0.484003428769,0.110019099467,0.191190021151,178,1.0,-0.139919655122,0.315097826042,nan,nan,nan,nan,nan,nan,nan,nan,266.050732872,416.942682793,nan,417.040073635,nan,nan,nan,nan
1,137,1,1,nan,nan,nan,0,0.0,0.0,0.0,0.371841877797,0.112161550972,0.259680326825,0.484003428769,0.112161550972,0.144291429315,46,1.0,-0.0117313672748,-1.0,nan,nan,nan,nan,nan,nan,nan,nan,266.050732872,417.884438448,nan,nan,nan,nan,nan,nan
1,138,1,1,1.0,1.0,0.0298004200449,0,0.0,0.0,0.0,0.371841877797,0.112161550972,0.259680326825,0.484003428769,0.112161550972,0.063595630927,329,-0.136053278316,0.448203788942,0.3278337444,nan,nan,nan,nan,nan,nan,nan,nan,266.050732872,418.826258821,nan,418.856059241,nan,nan,nan,nan
1,139,1,1,1.0,1.0,0.263975780341,0,0.0,0.0,0.0,0.369308237369,0.115530158319,0.25377807905,0.484838395688,0.115530158319,0.146888100193,167,1.0,-0.195605812978,0.221546716301,nan,nan,nan,nan,nan,nan,nan,nan,266.050732872,419.768042986,nan,420.032018766,nan,nan,nan,nan
1,140,1,1,1.0,1.0,0.290183112607,0,1.0,0.0,0.0,0.368533734009,0.115455864566,0.253077869443,0.483989598575,0.115455864566,0.194653104331,459,0.407758158413,0.385709174134,-1.0,nan,nan,nan,nan,nan,nan,nan,nan,266.050732872,420.709831998,nan,421.00001511,nan,nan,nan,nan
1,141,1,1,1.0,1.0,0.436378710205,1,0.0,0.0,1.0,0.367961831663,0.11522690142,0.252734930243,0.483188733083,0.11522690142,0.330179201051,97,1.0,-0.260369742894,-0.491718830742,54.732725033,35.267274967,-32.935850033,50.0,1.0,-0.033148730948,-1.0,2.50060782849,266.050732872,421.651607324,422.460032706,422.087986035,425.993786578,426.99796155,423.476810143,425.985454594
1,142,1,1,1.0,1.0,0.471900758566,0,0.0,0.0,0.0,0.368457606145,0.114955210781,0.253502395364,0.483412816926,0.114955210781,0.399487527126,154,1.0,-0.251813147593,0.102138173725,nan,nan,nan,nan,nan,nan,nan,nan,266.050732872,427.143976396,nan,427.615877155,nan,nan,nan,nan
1,143,1,1,1.0,1.0,0.306104400544,0,0.0,0.0,0.0,0.369201801486,0.114874099707,0.25432770178,0.484075901193,0.114874099707,0.404794623105,333,-0.149813480994,0.453275949072,0.294183738108,nan,nan,nan,nan,nan,nan,nan,nan,266.050732872,428.085765693,nan,428.391870093,nan,nan,nan,nan
1,144,1,1,1.0,1.0,0.292305380804,0,0.0,0.0,0.0,0.368751105765,0.114586368398,0.254164737367,0.483337474163,0.114586368398,0.356770179972,42,1.0,0.00954878589686,-1.0,nan,nan,nan,nan,nan,nan,nan,nan,266.050732872,429.02755499,nan,429.31986037,nan,nan,nan,nan
1,145,1,1,1.0,1.0,0.270493686781,0,0.0,0.0,0.0,0.368208937503,0.114359378717,0.253849558786,0.48256831622,0.114359378717,0.289634489377,141,1.0,-0.291952736687,-0.024586852943,nan,nan,nan,nan,nan,nan,nan,nan,266.050732872,429.96934058,nan,430.239834267,nan,nan,nan,nan
1,146,1,1,1.0,1.0,0.232037981856,0,0.0,0.0,0.0,0.367520801935,0.114248572169,0.253272229765,0.481769374104,0.114248572169,0.264945683147,351,-0.175686286722,0.4701852659,0.128489978773,nan,nan,nan,nan,nan,nan,nan,nan,266.050732872,430.927794415,nan,431.159832397,nan,nan,nan,nan
1,147,1,1,1.0,1.0,0.21822328167,0,1.0,0.0,0.0,0.366573369626,0.114406824709,0.252166544918,0.480980194335,0.114406824709,0.240251650102,142,1.0,-0.289568116499,-0.0146273521697,nan,nan,nan,nan,nan,nan,nan,nan,266.050732872,431.869581431,nan,432.087804712,nan,nan,nan,nan
1,148,1,1,1.0,1.0,0.212412703084,1,0.0,0.0,1.0,0.365543160682,0.114672562143,0.250870598539,0.480215722825,0.114672562143,0.220891322203,27,1.0,0.0870912575778,-1.0,80.6650015369,9.33499846314,-9.64937653686,13.0,0.950262168777,0.154664060346,-1.0,1.47550553549,266.050732872,432.811391825,433.619759617,433.023804528,436.136740613,437.137804028,434.644866186,436.128412906
1,149,1,1,1.0,1.0,0.297122393618,0,0.0,0.0,0.0,0.364487088561,0.114976996723,0.249510091837,0.479464085284,0.114976996723,0.242586126124,209,0.967301840512,0.0304835193525,0.52804999659,nan,nan,nan,nan,nan,nan,nan,nan,266.050732872,437.278601299,nan,437.575723692,nan,nan,nan,nan
1,150,1,1,1.0,1.0,0.283296574722,0,0.0,0.0,0.0,0.364025686541,0.114717187608,0.249308498933,0.478742874149,0.114717187608,0.264277223808,355,-0.173737462994,0.472683863687,0.0888799762457,nan,nan,nan,nan,nan,nan,nan,nan,266.050732872,438.2203886,nan,438.503685174,nan,nan,nan,nan
1,151,0,0,1.0,0.0,0.229477233253,0,0.0,0.0,0.0,0.363476508909,0.114518741366,0.248957767543,0.477995250275,0.114518741366,0.269965400531,75,1.0,-0.164714458691,-0.791355921409,nan,nan,nan,nan,nan,nan,nan,nan,266.050732872,439.162176186,nan,439.391653419,nan,nan,nan,nan
1,152,1,1,1.0,1.0,0.36771632079,0,0.0,0.0,0.0,0.362571108398,0.114657898182,0.247913210216,0.47722900658,0.114657898182,0.293496709589,148,1.0,-0.272695592461,0.0444264621409,nan,nan,nan,nan,nan,nan,nan,nan,266.050732872,440.103940109,nan,440.47165643,nan,nan,nan,nan
1,153,1,1,1.0,1.0,0.377885189955,0,0.0,0.0,0.0,0.362605640025,0.114273264579,0.248332375445,0.476878904604,0.114273264579,0.325026248,216,0.900975005756,0.0682271079607,0.563426584804,nan,nan,nan,nan,nan,nan,nan,nan,266.050732872,441.045754209,nan,441.423639399,nan,nan,nan,nan
1,154,0,0,0.0,1.0,0.516083793715,0,0.0,0.0,0.0,0.362707503691,0.113898503908,0.248808999783,0.476606007599,0.113898503908,0.420561768153,320,-0.0946500390753,0.43494401576,0.398701238857,nan,nan,nan,nan,nan,nan,nan,nan,266.050732872,441.987536949,nan,442.503620742,nan,nan,nan,nan
1,155,1,1,1.0,1.0,0.334005499026,0,0.0,0.0,0.0,0.363723240711,0.114200325768,0.249522914943,0.477923566479,0.114200325768,0.409324827565,54,1.0,-0.0546292063271,-1.0,nan,nan,nan,nan,nan,nan,nan,nan,266.050732872,442.937653668,nan,443.271659167,nan,nan,nan,nan
1,156,1,1,1.0,1.0,0.336145158159,0,0.0,0.0,0.0,0.363527729253,0.113849398712,0.249678330541,0.477377127965,0.113849398712,0.395411483633,193,1.0,-0.0580453890011,0.428658791268,nan,nan,nan,nan,nan,nan,nan,nan,266.050732872,443.87944382,nan,444.215588978,nan,nan,nan,nan
1,157,1,1,1.0,1.0,0.354350649868,0,0.0,0.0,0.0,0.3633487582,0.113498182121,0.249850576079,0.476846940321,0.113498182121,0.341500435684,419,0.107894673663,0.454841969249,-0.678098861371,nan,nan,nan,nan,nan,nan,nan,nan,266.050732872,444.821231691,nan,445.175582341,nan,nan,nan,nan
1,158,0,0,1.0,0.0,0.252534804633,0,0.0,0.0,0.0,0.363290328925,0.113131389938,0.250158938987,0.476421718863,0.113131389938,0.314343537553,159,1.0,-0.231765974528,0.149055008463,nan,nan,nan,nan,nan,nan,nan,nan,266.050732872,445.763005022,nan,446.015539827,nan,nan,nan,nan
1,159,1,1,1.0,1.0,0.414738930296,0,0.0,0.0,0.0,0.362575777155,0.113113964785,0.24946181237,0.47568974194,0.113113964785,0.340541461599,39,1.0,0.0253789930673,-1.0,nan,nan,nan,nan,nan,nan,nan,nan,266.050732872,446.704792323,nan,447.119531254,nan,nan,nan,nan
1,160,1,1,1.0,1.0,0.576921673375,0,0.0,0.0,0.0,0.362910156342,0.112827663906,0.250082492436,0.475737820248,0.112827663906,0.414731802768,455,0.375608248681,0.394875365091,-1.0,nan,nan,nan,nan,nan,nan,nan,nan,266.050732872,447.646580195,nan,448.223501868,nan,nan,nan,nan
1,161,1,1,1.0,1.0,0.611137403524,0,0.0,1.0,0.0,0.364273287024,0.113749136081,0.250524150943,0.478022423105,0.113749136081,0.534266002399,266,0.373577590308,0.295207490188,0.648113769863,nan,nan,nan,nan,nan,nan,nan,nan,266.050732872,448.588371202,nan,449.199508605,nan,nan,nan,nan
1,162,1,1,1.0,1.0,0.565322183305,1,0.0,0.0,1.0,0.365835718141,0.115066247826,0.250769470315,0.480901965967,0.115066247826,0.584460420068,352,-0.17544712699,0.470851603012,0.118673592819,-105.185837262,195.185837262,-52.3141627378,278.0,0.248285521772,0.335802812283,0.621962573991,2.69230902998,266.050732872,449.530169622,450.338579323,450.095491805,454.072339296,455.077492439,451.363658809,454.064005887
1,163,1,1,1.0,1.0,0.440817113151,0,0.0,0.0,0.0,0.367090349997,0.115782889078,0.251307460919,0.482873239076,0.115782889078,0.539092233327,88,1.0,-0.225257592204,-0.599932847766,nan,nan,nan,nan,nan,nan,nan,nan,266.050732872,455.222550496,nan,455.66336761,nan,nan,nan,nan
1,164,1,1,1.0,1.0,0.307009586133,0,0.0,0.0,0.0,0.367551142267,0.115566657443,0.251984484824,0.48311779971,0.115566657443,0.437716294196,425,0.149162615564,0.447529597292,-0.791715667876,nan,nan,nan,nan,nan,nan,nan,nan,266.050732872,456.164341219,nan,456.471350805,nan,nan,nan,nan
1,165,1,1,1.0,1.0,0.293205434573,0,0.0,0.0,0.0,0.367175107757,0.115305343601,0.251869764156,0.482480451357,0.115305343601,0.347010711286,374,-0.132039125116,0.478634076427,-0.110628443238,nan,nan,nan,nan,nan,nan,nan,nan,266.050732872,457.106124243,nan,457.399329678,nan,nan,nan,nan
1,166,1,1,1.0,1.0,0.247424426256,0,0.0,0.0,0.0,0.366718504836,0.115094824623,0.251623680213,0.481813329459,0.115094824623,0.282546482321,486,0.631151757674,0.309603058574,-1.0,nan,nan,nan,nan,nan,nan,nan,nan,266.050732872,458.047902706,nan,458.295327133,nan,nan,nan,nan
1,167,1,1,1.0,1.0,0.265657287324,0,0.0,0.0,0.0,0.365986639323,0.115118727511,0.250867911812,0.481105366834,0.115118727511,0.268762382717,348,-0.175384772129,0.468017843042,0.157582163916,nan,nan,nan,nan,nan,nan,nan,nan,266.050732872,458.989681454,nan,459.255338742,nan,nan,nan,nan
1,168,0,0,0.0,1.0,0.491826815647,0,0.0,0.0,0.0,0.365374874982,0.1150326834,0.250342191582,0.480407558381,0.1150326834,0.334969509742,216,0.900975005756,0.0682271079607,0.563426584804,nan,nan,nan,nan,nan,nan,nan,nan,266.050732872,459.931483866,nan,460.423310681,nan,nan,nan,nan
1,169,1,1,1.0,1.0,0.325997956446,0,0.0,0.0,0.0,0.36614125038,0.1151027519,0.25103849848,0.481244002279,0.1151027519,0.361160686472,264,0.394966959701,0.287889713878,0.650717615019,nan,nan,nan,nan,nan,nan,nan,nan,266.050732872,460.87326689,nan,461.199264847,nan,nan,nan,nan
1,170,1,1,1.0,1.0,0.328226280981,0,0.0,0.0,0.0,0.365899423308,0.114797568112,0.251101855196,0.48069699142,0.114797568112,0.382017017691,181,1.0,-0.123914391386,0.3392011262,nan,nan,nan,nan,nan,nan,nan,nan,266.050732872,461.815045924,nan,462.143272205,nan,nan,nan,nan
1,171,1,1,1.0,1.0,0.314416712732,0,0.0,0.0,0.0,0.365673835629,0.114490245382,0.251183590247,0.480164081011,0.114490245382,0.32288031672,93,1.0,-0.245614297951,-0.538619881923,nan,nan,nan,nan,nan,nan,nan,nan,266.050732872,462.756842918,nan,463.071259631,nan,nan,nan,nan
1,172,1,1,1.0,1.0,0.356611760566,0,0.0,0.0,0.0,0.365368733707,0.114217065015,0.251151668692,0.479585798722,0.114217065015,0.333084918093,314,-0.0594438881467,0.42463230952,0.441925406839,nan,nan,nan,nan,nan,nan,nan,nan,266.050732872,463.698632215,nan,464.055243975,nan,nan,nan,nan
1,173,0,0,0.0,1.0,0.44680160156,0,0.0,0.0,0.0,0.365316917298,0.113880623806,0.251436293492,0.479197541104,0.113880623806,0.372610024953,478,0.56422249903,0.334793662244,-1.0,nan,nan,nan,nan,nan,nan,nan,nan,266.050732872,464.640417235,nan,465.087218837,nan,nan,nan,nan
1,174,1,1,1.0,1.0,0.304992519086,0,0.0,0.0,0.0,0.36579623897,0.113716036979,0.252080201991,0.479512275949,0.113716036979,0.369468627071,253,0.513865899396,0.244839928328,0.655977188727,nan,nan,nan,nan,nan,nan,nan,nan,266.050732872,465.582205391,nan,465.88719791,nan,nan,nan,nan
1,175,1,1,1.0,1.0,0.299177948968,0,0.0,0.0,0.0,0.365440661661,0.113477791659,0.251962870002,0.47891845332,0.113477791659,0.350324023205,475,0.539218753276,0.343659807328,-1.0,nan,nan,nan,nan,nan,nan,nan,nan,266.050732872,466.523991552,nan,466.823169501,nan,nan,nan,nan
1,176,1,1,1.0,1.0,0.373382925172,0,0.0,0.0,0.0,0.365055413331,0.113259528904,0.251795884427,0.478314942236,0.113259528904,0.325851131075,167,1.0,-0.195605812978,0.221546716301,nan,nan,nan,nan,nan,nan,nan,nan,266.050732872,467.465782559,nan,467.839165484,nan,nan,nan,nan
1,177,1,1,1.0,1.0,0.359581339522,0,0.0,0.0,0.0,0.365103549238,0.112933479302,0.252170069936,0.47803702854,0.112933479302,0.344047404554,119,1.0,-0.309446327048,-0.250710895617,nan,nan,nan,nan,nan,nan,nan,nan,266.050732872,468.407563588,nan,468.767144928,nan,nan,nan,nan
1,178,1,1,1.0,1.0,0.489776677219,0,0.0,0.0,0.0,0.3650718124,0.112609263895,0.252462548505,0.477681076296,0.112609263895,0.407580313971,332,-0.146647089803,0.45205423783,0.302714191958,nan,nan,nan,nan,nan,nan,nan,nan,266.050732872,469.34935431,nan,469.839130988,nan,nan,nan,nan
1,179,1,1,1.0,1.0,0.475979938172,0,0.0,0.0,0.0,0.365784411628,0.112679816865,0.253104594763,0.478464228493,0.112679816865,0.441779318304,80,1.0,-0.189075709245,-0.708965549488,nan,nan,nan,nan,nan,nan,nan,nan,266.050732872,470.291139331,nan,470.767119269,nan,nan,nan,nan
1,180,1,1,1.0,1.0,0.518177837133,0,0.0,1.0,0.0,0.366410522574,0.11266411658,0.253746405995,0.479074639154,0.11266411658,0.494644817508,469,0.489482198204,0.360453357602,-1.0,nan,nan,nan,nan,nan,nan,nan,nan,266.050732872,471.232923211,nan,471.751101048,nan,nan,nan,nan
1,181,1,1,1.0,1.0,0.480347922072,1,0.0,0.0,1.0,0.367267965029,0.112919824139,0.25434814089,0.480187789169,0.112919824139,0.491501899126,332,-0.146647089803,0.45205423783,0.302714191958,-138.408574422,228.408574422,-5.02892557751,325.0,-0.119404900653,0.442631039184,0.360186421743,1.30879714945,266.050732872,472.174712222,472.983113656,472.655060144,475.325035751,476.324350376,473.999874272,475.316703197
1,182,0,0,0.0,1.0,0.468099264195,0,0.0,0.0,0.0,0.367903245687,0.11291893737,0.254984308317,0.480822183057,0.11291893737,0.4888750078,21,1.0,0.116713997928,-1.0,nan,nan,nan,nan,nan,nan,nan,nan,266.050732872,476.466922951,nan,476.935022215,nan,nan,nan,nan
1,183,1,1,1.0,1.0,0.28628668061,0,0.0,0.0,0.0,0.36846299998,0.11285045573,0.25561254425,0.48131345571,0.11285045573,0.411577955626,468,0.481236483515,0.363131620867,-1.0,nan,nan,nan,nan,nan,nan,nan,nan,266.050732872,477.408710252,nan,477.694996932,nan,nan,nan,nan
1,184,1,1,1.0,1.0,0.120480629383,0,0.0,0.0,0.0,0.368006464873,0.112702183018,0.255304281855,0.48070864789,0.112702183018,0.291622191396,373,-0.135407706169,0.478559568072,-0.0996974893599,nan,nan,nan,nan,nan,nan,nan,nan,266.050732872,478.350496412,nan,478.470977042,nan,nan,nan,nan
1,185,1,1,1.0,1.0,0.226682989509,0,1.0,0.0,0.0,0.36663891882,0.113878177288,0.252760741532,0.480517096108,0.113878177288,0.211150099834,63,1.0,-0.102744642793,-1.0,nan,nan,nan,nan,nan,nan,nan,nan,266.050732872,479.292291696,nan,479.518974686,nan,nan,nan,nan
1,186,0,0,0.0,1.0,0.500880097039,1,0.0,0.0,1.0,0.365869930198,0.114035162886,0.251834767312,0.479905093083,0.114035162886,0.282681238644,370,-0.144805996584,0.478178727438,-0.0671803333712,-164.01787604,254.01787604,-6.13837395968,361.0,-0.166047812515,0.475607712818,0.0278173107143,0.975333336391,266.050732872,480.234067878,481.042485848,480.734947975,483.05935195,484.061782124,482.067564763,483.051017115
1,187,1,1,1.0,1.0,0.469638792565,0,0.0,0.0,0.0,0.366607690672,0.114157868931,0.252449821741,0.480765559603,0.114157868931,0.399067293038,259,0.44882283482,0.268906983076,0.655011783756,nan,nan,nan,nan,nan,nan,nan,nan,266.050732872,484.201229456,nan,484.670868248,nan,nan,nan,nan
1,188,0,0,0.0,1.0,0.487827178324,0,0.0,0.0,0.0,0.367167642313,0.114098955899,0.253068686414,0.481266598212,0.114098955899,0.486115355976,445,0.296953900578,0.415520102116,-1.0,nan,nan,nan,nan,nan,nan,nan,nan,266.050732872,485.143015616,nan,485.630842795,nan,nan,nan,nan
1,189,1,1,1.0,1.0,0.386027583736,0,0.0,0.0,0.0,0.367819856021,0.114133568681,0.25368628734,0.481953424702,0.114133568681,0.447831184875,145,1.0,-0.281667413287,0.0150551701241,nan,nan,nan,nan,nan,nan,nan,nan,266.050732872,486.084811756,nan,486.470839339,nan,nan,nan,nan
1,190,1,1,1.0,1.0,0.348231595242,0,0.0,0.0,0.0,0.36791774703,0.113834131512,0.254083615519,0.481751878542,0.113834131512,0.407362119101,4,0.879126049628,0.195014037372,-1.0,nan,nan,nan,nan,nan,nan,nan,nan,266.050732872,487.026599342,nan,487.374830937,nan,nan,nan,nan
1,191,1,1,1.0,1.0,0.358435531496,0,0.0,0.0,0.0,0.367812473491,0.113538432292,0.254274041199,0.481350905784,0.113538432292,0.364231570158,268,0.35230222188,0.302367520405,0.645005310408,nan,nan,nan,nan,nan,nan,nan,nan,266.050732872,487.968385787,nan,488.326821319,nan,nan,nan,nan
1,192,1,1,1.0,1.0,0.320294289384,0,0.0,0.0,0.0,0.36776259614,0.113238119896,0.254524476245,0.481000716036,0.113238119896,0.342320472041,448,0.32026743599,0.409662251776,-1.0,nan,nan,nan,nan,nan,nan,nan,nan,266.050732872,488.918508494,nan,489.238802783,nan,nan,nan,nan
1,193,1,1,1.0,1.0,0.346487936913,0,0.0,0.0,0.0,0.367511441078,0.112990640062,0.254520801016,0.48050208114,0.112990640062,0.341739252598,385,-0.0879796604702,0.477733444059,-0.233926720364,nan,nan,nan,nan,nan,nan,nan,nan,266.050732872,489.860294939,nan,490.206782876,nan,nan,nan,nan
1,194,1,1,1.0,1.0,0.356677618227,0,0.0,0.0,0.0,0.367400791056,0.112703170404,0.254697620652,0.480103961461,0.112703170404,0.341153281508,51,1.0,-0.0385160204876,-1.0,nan,nan,nan,nan,nan,nan,nan,nan,266.050732872,490.802079389,nan,491.158757008,nan,nan,nan,nan
1,195,1,1,1.0,1.0,0.318867374794,0,0.0,0.0,0.0,0.36734464879,0.112410412545,0.254934236245,0.479755061335,0.112410412545,0.340677643311,400,-0.0107874812989,0.471427301814,-0.412692688905,nan,nan,nan,nan,nan,nan,nan,nan,266.050732872,491.743858423,nan,492.062725797,nan,nan,nan,nan
1,196,1,1,1.0,1.0,0.4250646031,0,0.0,0.0,0.0,0.367092162988,0.112171582398,0.25492058059,0.479263745385,0.112171582398,0.366869865373,254,0.503011129055,0.248947817922,0.65613358125,nan,nan,nan,nan,nan,nan,nan,nan,266.050732872,492.685638881,nan,493.110703485,nan,nan,nan,nan
1,197,1,1,1.0,1.0,0.355260111857,0,0.0,0.0,0.0,0.367392538325,0.111957996811,0.255434541514,0.479350535137,0.111957996811,0.36639736325,443,0.281558783006,0.419268214519,-1.0,nan,nan,nan,nan,nan,nan,nan,nan,266.050732872,493.627441293,nan,493.982701404,nan,nan,nan,nan
1,198,1,1,1.0,1.0,0.43746721372,0,0.0,0.0,0.0,0.367330000045,0.111672452179,0.255657547865,0.479002452224,0.111672452179,0.405930642892,145,1.0,-0.281667413287,0.0150551701241,nan,nan,nan,nan,nan,nan,nan,nan,266.050732872,494.569227738,nan,495.006694952,nan,nan,nan,nan
1,199,1,1,1.0,1.0,0.311646131915,0,0.0,0.0,0.0,0.367689678063,0.111498347639,0.256191330424,0.479188025702,0.111498347639,0.368124485831,28,1.0,0.082066132397,-1.0,nan,nan,nan,nan,nan,nan,nan,nan,266.050732872,495.511013329,nan,495.822659461,nan,nan,nan,nan
1,200,1,1,1.0,1.0,0.633854853222,0,0.0,0.0,0.0,0.367403741603,0.111285204285,0.256118537318,0.478688945889,0.111285204285,0.460989399619,496,0.714833717156,0.274923884212,-1.0,nan,nan,nan,nan,nan,nan,nan,nan,266.050732872,496.452802911,nan,497.086657764,nan,nan,nan,nan
1,201,1,1,1.0,1.0,0.564056634088,0,0.0,1.0,0.0,0.368756285317,0.112605901872,0.256150383445,0.48136218719,0.112605901872,0.503185873075,414,0.0747837862165,0.460162189034,-0.600089175003,nan,nan,nan,nan,nan,nan,nan,nan,266.050732872,497.394588786,nan,497.95864542,nan,nan,nan,nan
1,202,1,1,1.0,1.0,0.358249362442,1,0.0,0.0,1.0,0.369742650715,0.113171166256,0.256571484459,0.482913816971,0.113171166256,0.518720283251,158,1.0,-0.235949227405,0.139764106,-31.357085224,121.357085224,10.263335224,173.0,1.0,-0.165909522591,0.273535192888,0.975418865681,266.050732872,498.336373807,499.144786074,498.694623169,501.153337868,502.157495165,500.161531295,501.144993055
1,203,1,1,1.0,1.0,0.318984835059,0,0.0,0.0,0.0,0.369684895498,0.112889383767,0.256795511731,0.482574279265,0.112889383767,0.41376361053,32,1.0,0.061735800531,-1.0,nan,nan,nan,nan,nan,nan,nan,nan,266.050732872,502.303533673,nan,502.622518508,nan,nan,nan,nan
1,204,0,0,1.0,0.0,0.281191697577,0,0.0,0.0,0.0,0.369431395195,0.112663574951,0.256767820245,0.482094970146,0.112663574951,0.319475298359,325,-0.119404900653,0.442631039184,0.360186421743,nan,nan,nan,nan,nan,nan,nan,nan,266.050732872,503.245327247,nan,503.526518944,nan,nan,nan,nan
1,205,1,1,1.0,1.0,0.45142417762,0,0.0,0.0,0.0,0.368992391725,0.112554325874,0.256438065851,0.481546717598,0.112554325874,0.350533570085,154,1.0,-0.251813147593,0.102138173725,nan,nan,nan,nan,nan,nan,nan,nan,266.050732872,504.187116543,nan,504.638540721,nan,nan,nan,nan
1,206,1,1,1.0,1.0,0.365617145551,0,0.0,0.0,0.0,0.369400469873,0.112424344012,0.256976125861,0.481824813885,0.112424344012,0.366077673583,474,0.530901762182,0.346545376391,-1.0,nan,nan,nan,nan,nan,nan,nan,nan,266.050732872,505.128902704,nan,505.49451985,nan,nan,nan,nan
1,207,1,1,1.0,1.0,0.359817685676,0,0.0,0.0,0.0,0.369381832807,0.112147407715,0.257234425092,0.481529240522,0.112147407715,0.392286336282,31,1.0,0.0668515730764,-1.0,nan,nan,nan,nan,nan,nan,nan,nan,266.050732872,506.070679742,nan,506.430497427,nan,nan,nan,nan
1,208,1,1,1.0,1.0,0.370000809664,0,0.0,0.0,0.0,0.369334949733,0.111874193153,0.25746075658,0.481209142886,0.111874193153,0.36514521363,166,1.0,-0.20036215083,0.21267421211,nan,nan,nan,nan,nan,nan,nan,nan,266.050732872,507.012476166,nan,507.382476975,nan,nan,nan,nan
1,209,1,1,1.0,1.0,0.276190796518,0,0.0,0.0,0.0,0.36933819783,0.111601005335,0.257737192495,0.480939203165,0.111601005335,0.335336430619,480,0.580928072941,0.32870764083,-1.0,nan,nan,nan,nan,nan,nan,nan,nan,266.050732872,507.954263752,nan,508.230454548,nan,nan,nan,nan
1,210,1,1,1.0,1.0,0.270389055833,0,0.0,0.0,0.0,0.368886025979,0.111517883978,0.257368142001,0.480403909957,0.111517883978,0.305526887338,230,0.760023132926,0.140224214653,0.61781109556,nan,nan,nan,nan,nan,nan,nan,nan,266.050732872,508.896047347,nan,509.166436403,nan,nan,nan,nan
1,211,1,1,1.0,1.0,0.416606035782,0,0.0,0.0,0.0,0.368410195205,0.111457621879,0.256952573327,0.479867817084,0.111457621879,0.321061962711,422,0.128328379107,0.451313674078,-0.730894888444,nan,nan,nan,nan,nan,nan,nan,nan,266.050732872,509.83784149,nan,510.254447526,nan,nan,nan,nan
1,212,1,1,1.0,1.0,0.258800114389,0,0.0,0.0,0.0,0.368641905977,0.111239337796,0.257402568182,0.479881243773,0.111239337796,0.315265068668,465,0.456588679398,0.37096152752,-1.0,nan,nan,nan,nan,nan,nan,nan,nan,266.050732872,510.779617958,nan,511.038418072,nan,nan,nan,nan
1,213,1,1,1.0,1.0,0.628973123268,0,0.0,0.0,0.0,0.368116347166,0.111231451176,0.25688489599,0.479347798342,0.111231451176,0.434793091146,361,-0.166047812515,0.475607712818,0.0278173107143,nan,nan,nan,nan,nan,nan,nan,nan,266.050732872,511.721407824,nan,512.350380948,nan,nan,nan,nan
1,214,1,1,1.0,1.0,0.503173709032,0,0.0,0.0,0.0,0.36935852229,0.112409991412,0.256948530878,0.481768513702,0.112409991412,0.46364898223,154,1.0,-0.251813147593,0.102138173725,nan,nan,nan,nan,nan,nan,nan,nan,266.050732872,512.663197691,nan,513.1663714,nan,nan,nan,nan
1,215,1,1,1.0,1.0,0.297370999004,0,0.0,0.0,0.0,0.369992717488,0.112519254483,0.257473463005,0.482511971971,0.112519254483,0.476505943768,277,0.258470646878,0.33263615818,0.624824240443,nan,nan,nan,nan,nan,nan,nan,nan,266.050732872,513.604982997,nan,513.902353996,nan,nan,nan,nan
1,216,0,0,1.0,0.0,0.267561740824,0,0.0,0.0,0.0,0.369650162212,0.112363795364,0.257286366848,0.482013957577,0.112363795364,0.356035482953,356,-0.17284377641,0.473239407326,0.0788368070227,nan,nan,nan,nan,nan,nan,nan,nan,266.050732872,514.546769728,nan,514.814331468,nan,nan,nan,nan
1,217,1,1,1.0,1.0,0.325760754989,0,0.0,0.0,0.0,0.369170873849,0.112316727876,0.256854145973,0.481487601725,0.112316727876,0.296897831606,234,0.71814774995,0.15974031316,0.62913160129,nan,nan,nan,nan,nan,nan,nan,nan,266.050732872,515.488555888,nan,515.814316643,nan,nan,nan,nan
1,218,1,1,1.0,1.0,0.367949815933,0,0.0,0.0,0.0,0.368968022826,0.1120931005,0.256874922326,0.481061123326,0.1120931005,0.320424103915,508,0.814199817736,0.228638933499,-1.0,nan,nan,nan,nan,nan,nan,nan,nan,266.050732872,516.430328934,nan,516.79827875,nan,nan,nan,nan
1,219,1,1,1.0,1.0,0.410142298089,0,0.0,0.0,0.0,0.36896328698,0.111832136505,0.257131150475,0.480795423485,0.111832136505,0.367950956337,232,0.739158239773,0.150046616059,0.623712016981,nan,nan,nan,nan,nan,nan,nan,nan,266.050732872,517.372118231,nan,517.782260529,nan,nan,nan,nan
1,220,1,1,1.0,1.0,0.468353001168,0,0.0,0.0,0.0,0.36915393055,0.11160797821,0.25754595234,0.48076190876,0.11160797821,0.415481705063,11,0.934659501434,0.163852895862,-1.0,nan,nan,nan,nan,nan,nan,nan,nan,266.050732872,518.313900115,nan,518.782253117,nan,nan,nan,nan
1,221,1,1,1.0,1.0,0.43854773452,0,0.0,0.0,0.0,0.369611069124,0.111553023509,0.258058045616,0.481164092633,0.111553023509,0.439014344593,353,-0.175041255135,0.471490071959,0.108799216003,nan,nan,nan,nan,nan,nan,nan,nan,266.050732872,519.255697965,nan,519.6942457,nan,nan,nan,nan
1,222,1,1,1.0,1.0,0.392774138716,0,0.0,0.0,0.0,0.36992729236,0.111394315429,0.258881242992,0.481181988727,0.111394315429,0.433224958135,507,0.805995650865,0.232688349973,-1.0,nan,nan,nan,nan,nan,nan,nan,nan,266.050732872,520.197491253,nan,520.590265392,nan,nan,nan,nan
1,223,1,1,nan,nan,nan,0,0.0,0.0,0.0,0.37003161586,0.111150372867,0.258881242992,0.481181988727,0.111150372867,0.415660936618,27,1.0,0.0870912575778,-1.0,nan,nan,nan,nan,nan,nan,nan,nan,266.050732872,521.139263729,nan,nan,nan,nan,nan,nan
1,224,1,1,1.0,1.0,0.797074212111,0,0.0,0.0,0.0,0.37003161586,0.111150372867,0.258881242992,0.481181988727,0.111150372867,0.594924175413,323,-0.11001989341,0.43965344528,0.375855360355,nan,nan,nan,nan,nan,nan,nan,nan,266.050732872,522.0810784,nan,522.878152612,nan,nan,nan,nan
1,225,1,1,1.0,1.0,0.72696409584,0,0.0,0.0,0.0,0.37197271857,0.114557473181,0.257415245388,0.486530191751,0.114557473181,0.762019153975,428,0.170378320166,0.443486568519,-0.86866140055,nan,nan,nan,nan,nan,nan,nan,nan,266.050732872,523.031176872,nan,523.758140968,nan,nan,nan,nan
1,226,1,1,1.0,1.0,0.641189850052,0,0.0,1.0,0.0,0.373579014395,0.116754758686,0.256824255709,0.49033377308,0.116754758686,0.721742719334,12,0.942476689623,0.159273951266,-1.0,nan,nan,nan,nan,nan,nan,nan,nan,266.050732872,523.972957331,nan,524.614147181,nan,nan,nan,nan
1,227,1,1,1.0,1.0,0.667045941809,1,0.0,0.0,1.0,0.374784468609,0.117861822615,0.256922645994,0.492646291224,0.117861822615,0.678399962567,206,0.994723455659,0.014051917983,0.511316161583,-42.6663535762,132.666353576,-12.1773964238,189.0,1.0,-0.0802194643608,0.400143472992,0.975416584988,266.050732872,524.923088305,525.731494871,525.590134247,527.748376938,528.755083009,526.756584619,527.740040108
1,228,1,1,1.0,1.0,0.531481356826,0,0.0,0.0,0.0,0.376095058175,0.119207521187,0.256887536988,0.495302579362,0.119207521187,0.613239049562,101,1.0,-0.273572672894,-0.446152610616,nan,nan,nan,nan,nan,nan,nan,nan,266.050732872,528.898584432,nan,529.430065789,nan,nan,nan,nan
1,229,1,1,1.0,1.0,0.501684357878,0,0.0,0.0,0.0,0.376788747008,0.119391382478,0.25739736453,0.496180129486,0.119391382478,0.566737218838,424,0.142174562463,0.448819569244,-0.770229420881,nan,nan,nan,nan,nan,nan,nan,nan,266.050732872,529.840354342,nan,530.3420387,nan,nan,nan,nan
1,230,1,1,1.0,1.0,0.391913143219,0,0.0,0.0,0.0,0.377343838612,0.119415116857,0.257928721755,0.496758955469,0.119415116857,0.475026285974,352,-0.17544712699,0.470851603012,0.118673592819,nan,nan,nan,nan,nan,nan,nan,nan,266.050732872,530.78214535,nan,531.174058493,nan,nan,nan,nan
1,231,1,1,1.0,1.0,0.378077631001,0,0.0,0.0,0.0,0.377408304562,0.11915455505,0.258253749512,0.496562859612,0.11915455505,0.4238917107,202,1.0,-0.00802826454356,0.487596984314,nan,nan,nan,nan,nan,nan,nan,nan,266.050732872,531.723951182,nan,532.102028813,nan,nan,nan,nan
1,232,1,1,1.0,1.0,0.356284183217,0,0.0,0.0,0.0,0.377411253136,0.118891818661,0.258519434476,0.496303071797,0.118891818661,0.375424985813,459,0.407758158413,0.385709174134,-1.0,nan,nan,nan,nan,nan,nan,nan,nan,266.050732872,532.665726794,nan,533.022010977,nan,nan,nan,nan
1,233,1,1,1.0,1.0,0.294442759245,0,0.0,0.0,0.0,0.377318590549,0.118639019183,0.258679571366,0.495957609732,0.118639019183,0.342934857821,391,-0.0591907973189,0.475916278612,-0.303718712187,nan,nan,nan,nan,nan,nan,nan,nan,266.050732872,533.607526069,nan,533.901968829,nan,nan,nan,nan
1,234,1,1,1.0,1.0,0.280663126148,0,0.0,0.0,0.0,0.376956687356,0.118505759766,0.25845092759,0.495462447121,0.118505759766,0.310463356203,84,1.0,-0.20765784414,-0.652191087791,nan,nan,nan,nan,nan,nan,nan,nan,266.050732872,534.549314796,nan,534.829977922,nan,nan,nan,nan
1,235,1,1,1.0,1.0,0.242856018711,0,0.0,0.0,0.0,0.376538019698,0.118417463318,0.25812055638,0.494955483016,0.118417463318,0.272653968035,423,0.135229581944,0.450080889006,-0.750039916123,nan,nan,nan,nan,nan,nan,nan,nan,266.050732872,535.49109668,nan,535.733952699,nan,nan,nan,nan
1,236,1,1,1.0,1.0,0.22904844617,0,1.0,0.0,0.0,0.375959309737,0.118486368452,0.257472941285,0.494445678189,0.118486368452,0.250855863676,278,0.248285521772,0.335802812283,0.621962573991,nan,nan,nan,nan,nan,nan,nan,nan,266.050732872,536.432888543,nan,536.661936989,nan,nan,nan,nan
1,237,1,1,1.0,1.0,0.175258469768,1,0.0,0.0,1.0,0.375326073256,0.118621814283,0.255380066708,0.493554761319,0.118621814283,0.215720978216,172,1.0,-0.170984061773,0.265024678188,161.647729012,288.352270988,167.414770988,410.0,0.0492046846968,0.463921527344,-0.54316189137,2.56738115987,266.050732872,537.374672423,538.183089537,537.549930892,541.791832118,542.794815382,539.208169592,541.783496998
1,238,1,1,nan,nan,nan,0,0.0,0.0,0.0,0.374467414014,0.119087347305,0.255380066708,0.493554761319,0.119087347305,0.202153457969,102,1.0,-0.276610342793,-0.434926949461,nan,nan,nan,nan,nan,nan,nan,nan,266.050732872,542.933709054,nan,nan,nan,nan,nan,nan
1,239,1,1,1.0,1.0,0.386269916897,0,0.0,0.0,0.0,0.374467414014,0.119087347305,0.255380066708,0.493554761319,0.119087347305,0.280764193332,437,0.23613482661,0.429770237144,-1.0,nan,nan,nan,nan,nan,nan,nan,nan,266.050732872,543.87550947,nan,544.261779387,nan,nan,nan,nan
1,240,1,1,1.0,1.0,0.468523204676,0,0.0,0.0,0.0,0.37451785206,0.118835108753,0.255682743307,0.493352960814,0.118835108753,0.427396560786,273,0.299732959835,0.319577193062,0.635038033336,nan,nan,nan,nan,nan,nan,nan,nan,266.050732872,544.817272823,nan,545.285796027,nan,nan,nan,nan
1,241,1,1,1.0,1.0,0.334721949766,0,0.0,0.0,0.0,0.374917874837,0.118739777002,0.256178097836,0.493657651839,0.118739777002,0.39650502378,360,-0.167709501072,0.475188317955,0.0381258551808,nan,nan,nan,nan,nan,nan,nan,nan,266.050732872,545.759061549,nan,546.093783499,nan,nan,nan,nan
1,242,1,1,1.0,1.0,0.360913601588,0,0.0,0.0,0.0,0.374747553121,0.118516706738,0.256230846383,0.493264259859,0.118516706738,0.388052918677,63,1.0,-0.102744642793,-1.0,nan,nan,nan,nan,nan,nan,nan,nan,266.050732872,546.700857118,nan,547.06177072,nan,nan,nan,nan
1,243,0,0,0.0,1.0,0.363088613027,0,0.0,0.0,0.0,0.374689182018,0.118269806645,0.256419375372,0.492958988663,0.118269806645,0.352908054794,13,0.950262168777,0.154664060346,-1.0,nan,nan,nan,nan,nan,nan,nan,nan,266.050732872,547.642645274,nan,548.005733887,nan,nan,nan,nan
1,244,1,1,1.0,1.0,0.261298996862,0,0.0,0.0,0.0,0.374640440131,0.11802346451,0.256616975621,0.492663904641,0.11802346451,0.328433737159,300,0.0433537089178,0.395748422077,0.528951029102,nan,nan,nan,nan,nan,nan,nan,nan,266.050732872,548.584429724,nan,548.845728721,nan,nan,nan,nan
1,245,1,1,1.0,1.0,0.231487172889,0,0.0,0.0,0.0,0.374166208151,0.118003308553,0.256162899598,0.492169516704,0.118003308553,0.285291594259,55,1.0,-0.0599996532909,-1.0,nan,nan,nan,nan,nan,nan,nan,nan,266.050732872,549.526205907,nan,549.75769308,nan,nan,nan,nan
1,246,1,1,1.0,1.0,0.201707564993,0,1.0,0.0,0.0,0.373571712171,0.118115323294,0.255456388877,0.491687035464,0.118115323294,0.231497911581,244,0.611372359265,0.206163547436,0.648880721676,nan,nan,nan,nan,nan,nan,nan,nan,266.050732872,550.467994063,nan,550.669701628,nan,nan,nan,nan
1,247,0,0,1.0,0.0,0.211887552869,0,0.0,0.0,0.0,0.372858582929,0.118386627086,0.254471955843,0.491245210016,0.118386627086,0.21502743025,449,0.328095008353,0.407646248688,-1.0,nan,nan,nan,nan,nan,nan,nan,nan,266.050732872,551.409789347,nan,551.6216769,nan,nan,nan,nan
1,248,1,1,1.0,1.0,0.270080580027,0,0.0,0.0,0.0,0.372193413383,0.118592197046,0.253601216337,0.49078561043,0.118592197046,0.227891899296,138,1.0,-0.29832987918,-0.0546508148191,nan,nan,nan,nan,nan,nan,nan,nan,266.050732872,552.351579784,nan,552.621660364,nan,nan,nan,nan
1,249,1,1,1.0,1.0,0.34428099473,0,0.0,0.0,0.0,0.371773195962,0.11852833086,0.253244865102,0.490301526822,0.11852833086,0.275416375875,399,-0.0164460389312,0.472031251936,-0.400274523968,nan,nan,nan,nan,nan,nan,nan,nan,266.050732872,553.293369366,nan,553.637650361,nan,nan,nan,nan
1,250,1,1,1.0,1.0,0.322484410834,0,0.0,0.0,0.0,0.371660523006,0.118298235078,0.253362287928,0.489958758084,0.118298235078,0.312281995197,337,-0.160643365934,0.457858386897,0.259303564052,nan,nan,nan,nan,nan,nan,nan,nan,266.050732872,554.235154101,nan,554.557638512,nan,nan,nan,nan
1,251,1,1,1.0,1.0,0.380694258842,0,0.0,0.0,0.0,0.371459804181,0.1180981897,0.253361614481,0.489557993881,0.1180981897,0.349153221468,436,0.228681708805,0.431413732101,-1.0,nan,nan,nan,nan,nan,nan,nan,nan,266.050732872,555.176939977,nan,555.557634235,nan,nan,nan,nan
1,252,1,1,1.0,1.0,0.42285595031,0,0.0,0.0,0.0,0.371497342615,0.117859372918,0.253637969696,0.489356715533,0.117859372918,0.375344873328,247,0.578947625354,0.219392674348,0.6523805853,nan,nan,nan,nan,nan,nan,nan,nan,266.050732872,556.118721861,nan,556.541577811,nan,nan,nan,nan
1,253,1,1,1.0,1.0,0.377075512079,0,0.0,0.0,0.0,0.371705272201,0.117665752616,0.254039519585,0.489371024817,0.117665752616,0.393541907077,360,-0.167709501072,0.475188317955,0.0381258551808,nan,nan,nan,nan,nan,nan,nan,nan,266.050732872,557.060500609,nan,557.437576121,nan,nan,nan,nan
1,254,1,1,1.0,1.0,0.483261906775,0,0.0,0.0,0.0,0.371726926394,0.117428776798,0.254298149595,0.489155703192,0.117428776798,0.427731123054,115,1.0,-0.305166285737,-0.293172749504,nan,nan,nan,nan,nan,nan,nan,nan,266.050732872,558.002294182,nan,558.485556089,nan,nan,nan,nan
1,255,1,1,1.0,1.0,0.373462752555,0,0.0,0.0,0.0,0.372174858042,0.117404844177,0.254770013864,0.489579702219,0.117404844177,0.411266723803,479,0.572572153349,0.331768222426,-1.0,nan,nan,nan,nan,nan,nan,nan,nan,266.050732872,558.944083764,nan,559.317546517,nan,nan,nan,nan
1,256,1,1,1.0,1.0,0.543658170034,0,0.0,0.0,0.0,0.37218000962,0.117169827408,0.255010182212,0.489349837027,0.117169827408,0.466794276455,18,0.988682696815,0.131162580546,-1.0,nan,nan,nan,nan,nan,nan,nan,nan,266.050732872,559.885873916,nan,560.429532086,nan,nan,nan,nan
1,257,1,1,1.0,1.0,0.481863787048,0,0.0,0.0,0.0,0.372863189542,0.117434049013,0.255429140529,0.490297238554,0.117434049013,0.466328236546,466,0.464789014893,0.368385601135,-1.0,nan,nan,nan,nan,nan,nan,nan,nan,266.050732872,560.82765466,nan,561.309518447,nan,nan,nan,nan
1,258,1,1,1.0,1.0,0.379728917498,0,0.0,0.0,0.0,0.373295731595,0.117400983367,0.255894748229,0.490696714962,0.117400983367,0.468416958194,351,-0.175686286722,0.4701852659,0.128489978773,nan,nan,nan,nan,nan,nan,nan,nan,266.050732872,561.777767388,nan,562.157496305,nan,nan,nan,nan
1,259,1,1,1.0,1.0,0.429901572759,0,0.0,0.0,0.0,0.373321159208,0.117169431187,0.256151728021,0.490490590394,0.117169431187,0.430498092435,409,0.0429436170054,0.464793150178,-0.529461854507,nan,nan,nan,nan,nan,nan,nan,nan,266.050732872,562.719570939,nan,563.149472512,nan,nan,nan,nan
1,260,1,1,1.0,1.0,0.384102033102,0,0.0,0.0,0.0,0.373543916741,0.116992221079,0.256551695662,0.490536137821,0.116992221079,0.39791084112,313,-0.0530221528698,0.42279583272,0.448797959603,nan,nan,nan,nan,nan,nan,nan,nan,266.050732872,563.661351968,nan,564.045454001,nan,nan,nan,nan
1,261,1,1,1.0,1.0,0.490290993592,0,0.0,0.0,0.0,0.373585321119,0.116764463841,0.256820857278,0.49034978496,0.116764463841,0.434764866484,23,1.0,0.106943944166,-1.0,nan,nan,nan,nan,nan,nan,nan,nan,266.050732872,564.603128435,nan,565.093419429,nan,nan,nan,nan
1,262,1,1,1.0,1.0,0.596516446793,0,0.0,0.0,0.0,0.374041202652,0.116763344295,0.257277858358,0.490804546947,0.116763344295,0.490303157829,79,1.0,-0.184296021705,-0.724170777997,nan,nan,nan,nan,nan,nan,nan,nan,266.050732872,565.544914311,nan,566.141430758,nan,nan,nan,nan
1,263,1,1,1.0,1.0,0.518698140746,0,0.0,1.0,0.0,0.374906865081,0.117356160156,0.257550704925,0.492263025237,0.117356160156,0.535168527043,214,0.920243657418,0.0575410437433,0.553854850604,nan,nan,nan,nan,nan,nan,nan,nan,266.050732872,566.48671159,nan,567.005409731,nan,nan,nan,nan
1,264,1,1,1.0,1.0,0.600886141066,1,0.0,0.0,1.0,0.375464195607,0.117468784434,0.257995411173,0.492932980041,0.117468784434,0.572033576202,18,0.988682696815,0.131162580546,-1.0,90.7538483331,359.246151667,-13.4100983331,511.0,0.838703193994,0.216284169582,-1.0,1.33379908814,266.050732872,567.428500032,568.236912014,568.029386173,570.603823789,571.607535763,569.25365809,570.595490095
1,265,1,1,1.0,1.0,0.579581636004,0,0.0,0.0,0.0,0.376334550608,0.118072339059,0.258262211549,0.494406889668,0.118072339059,0.566388639272,318,-0.0835627602325,0.431640264478,0.413481556053,nan,nan,nan,nan,nan,nan,nan,nan,266.050732872,571.745714695,nan,572.325296331,nan,nan,nan,nan
1,266,0,0,0.0,1.0,0.41377558466,0,0.0,0.0,0.0,0.377116270168,0.118514677824,0.258601592344,0.495630947991,0.118514677824,0.53141445391,20,1.0,0.121558187834,-1.0,nan,nan,nan,nan,nan,nan,nan,nan,266.050732872,572.68749943,nan,573.101275014,nan,nan,nan,nan
1,267,1,1,1.0,1.0,0.280006260844,0,0.0,0.0,0.0,0.377256727311,0.118309099992,0.258947627319,0.495565827303,0.118309099992,0.424454493836,359,-0.169222339917,0.474741883077,0.0483828026834,nan,nan,nan,nan,nan,nan,nan,nan,266.050732872,573.629287016,nan,573.909293277,nan,nan,nan,nan
1,268,0,0,1.0,0.0,0.282219475135,0,0.0,0.0,0.0,0.376885542325,0.118235271586,0.258650270739,0.49512081391,0.118235271586,0.325333773547,305,0.00361192545304,0.406859252708,0.500196907155,nan,nan,nan,nan,nan,nan,nan,nan,266.050732872,574.571043526,nan,574.853263002,nan,nan,nan,nan
1,269,1,1,1.0,1.0,0.492438065354,0,0.0,0.0,0.0,0.376525595301,0.118154011188,0.258371584114,0.494679606489,0.118154011188,0.351554600444,453,0.359670421306,0.39926174925,-1.0,nan,nan,nan,nan,nan,nan,nan,nan,266.050732872,575.51283767,nan,576.005275735,nan,nan,nan,nan
1,270,1,1,1.0,1.0,0.43857795489,0,0.0,0.0,0.0,0.376964657688,0.118144784899,0.258819872789,0.495109442587,0.118144784899,0.404411831793,37,1.0,0.0358565504353,-1.0,nan,nan,nan,nan,nan,nan,nan,nan,266.050732872,576.454644072,nan,576.893222027,nan,nan,nan,nan
1,271,1,1,1.0,1.0,0.392787253251,0,0.0,0.0,0.0,0.377197160696,0.11798215544,0.259215005256,0.495179316137,0.11798215544,0.441267757832,368,-0.150457169737,0.477793263397,-0.0457341785459,nan,nan,nan,nan,nan,nan,nan,nan,266.050732872,577.396423676,nan,577.789210929,nan,nan,nan,nan
1,272,1,1,1.0,1.0,0.338960784255,0,0.0,0.0,0.0,0.377255770067,0.117764040602,0.259491729464,0.495019810669,0.117764040602,0.390108664132,16,0.973419431522,0.140652110383,-1.0,nan,nan,nan,nan,nan,nan,nan,nan,266.050732872,578.338212402,nan,578.677173187,nan,nan,nan,nan
1,273,1,1,1.0,1.0,0.349177549826,0,0.0,0.0,0.0,0.377112343153,0.117566575868,0.259545767285,0.494678919022,0.117566575868,0.360308529111,62,1.0,-0.0974372467467,-1.0,nan,nan,nan,nan,nan,nan,nan,nan,266.050732872,579.279993146,nan,579.629170696,nan,nan,nan,nan
1,274,1,1,1.0,1.0,0.287354942295,0,0.0,0.0,0.0,0.37700810885,0.117359389942,0.259648718908,0.494367498792,0.117359389942,0.325164425458,330,-0.139766326074,0.449518327743,0.319540245599,nan,nan,nan,nan,nan,nan,nan,nan,266.050732872,580.221785009,nan,580.509139951,nan,nan,nan,nan
1,275,1,1,1.0,1.0,0.249568076804,0,0.0,0.0,0.0,0.376674825703,0.117268041828,0.259406783875,0.493942867531,0.117268041828,0.295366856308,463,0.440238315199,0.376011795327,-1.0,nan,nan,nan,nan,nan,nan,nan,nan,266.050732872,581.163573735,nan,581.413141812,nan,nan,nan,nan
1,276,1,1,1.0,1.0,0.219799017534,0,1.0,0.0,0.0,0.376204059966,0.117305059341,0.258899000625,0.493509119308,0.117305059341,0.252240678878,53,1.0,-0.049257555853,-1.0,nan,nan,nan,nan,nan,nan,nan,nan,266.050732872,582.105352769,nan,582.325151786,nan,nan,nan,nan
1,277,1,1,1.0,1.0,0.317981005646,1,0.0,0.0,1.0,0.375626919588,0.117471847068,0.25815507252,0.493098766657,0.117471847068,0.262449366661,167,1.0,-0.195605812978,0.221546716301,-49.398705355,139.398705355,21.976830355,198.0,1.0,-0.0302354974571,0.462326941081,1.00042679149,266.050732872,583.047140925,583.855567162,583.365121931,585.880768954,586.879697842,584.863975552,585.8724632
1,278,1,1,1.0,1.0,0.790382110863,0,0.0,0.0,0.0,0.375414986081,0.117307600295,0.258107385787,0.492722586376,0.117307600295,0.442720711348,320,-0.0946500390753,0.43494401576,0.398701238857,nan,nan,nan,nan,nan,nan,nan,nan,266.050732872,587.022654443,nan,587.813036554,nan,nan,nan,nan
1,279,1,1,1.0,1.0,0.440568792983,0,0.0,0.0,0.0,0.376935012179,0.119746050482,0.257188961698,0.496681062661,0.119746050482,0.516310636497,267,0.362924526182,0.298807232282,0.646622522267,nan,nan,nan,nan,nan,nan,nan,nan,266.050732872,587.96442977,nan,588.404998563,nan,nan,nan,nan
1,280,1,1,1.0,1.0,0.346801259439,0,0.0,1.0,0.0,0.377167252255,0.119588914378,0.257578337877,0.496756166634,0.119588914378,0.525917387761,445,0.296953900578,0.415520102116,-1.0,nan,nan,nan,nan,nan,nan,nan,nan,266.050732872,588.906215931,nan,589.25301719,nan,nan,nan,nan
1,281,1,1,1.0,1.0,0.364973964868,1,0.0,0.0,1.0,0.377056830463,0.119385274768,0.257671555696,0.496442105231,0.119385274768,0.38411467243,28,1.0,0.082066132397,-1.0,56.5921754103,33.4078245897,13.7203245897,48.0,1.0,-0.0224273256894,-1.0,1.72551066719,266.050732872,589.848017202,590.65641892,590.212991167,593.415064797,594.414352908,591.673181532,593.40675334
1,282,1,1,1.0,1.0,0.487970867543,0,0.0,0.0,0.0,0.377013051965,0.119171012188,0.257842039776,0.496184064153,0.119171012188,0.39991536395,254,0.503011129055,0.248947817922,0.65613358125,nan,nan,nan,nan,nan,nan,nan,nan,266.050732872,594.55694943,nan,595.044920298,nan,nan,nan,nan
1,283,1,1,1.0,1.0,0.458147069439,0,0.0,0.0,0.0,0.377413621696,0.119141706586,0.25827191511,0.496555328282,0.119141706586,0.43703063395,380,-0.109519508899,0.478533032186,-0.177177385375,nan,nan,nan,nan,nan,nan,nan,nan,266.050732872,595.498729889,nan,595.956876959,nan,nan,nan,nan
1,284,0,0,0.0,1.0,0.476371947792,0,0.0,0.0,0.0,0.377704029781,0.119025406192,0.258678623589,0.496729435973,0.119025406192,0.474163294925,435,0.221263830514,0.433027056876,-1.0,nan,nan,nan,nan,nan,nan,nan,nan,266.050732872,596.440514624,nan,596.916886572,nan,nan,nan,nan
1,285,1,1,1.0,1.0,0.278562240186,0,0.0,0.0,0.0,0.378057678233,0.118958135749,0.259099542484,0.497015813982,0.118958135749,0.404360419139,487,0.639529740128,0.306295026098,-1.0,nan,nan,nan,nan,nan,nan,nan,nan,266.050732872,597.382312474,nan,597.660874714,nan,nan,nan,nan
1,286,0,0,0.0,1.0,0.448759653373,0,0.0,0.0,0.0,0.377702337383,0.1188937642,0.258808573182,0.496596101583,0.1188937642,0.40123128045,70,1.0,-0.13936984996,-0.906436913284,nan,nan,nan,nan,nan,nan,nan,nan,266.050732872,598.324092077,nan,598.772851731,nan,nan,nan,nan
1,287,1,1,1.0,1.0,0.266932815081,0,0.0,0.0,0.0,0.377955210394,0.118757427639,0.259197782754,0.496712638033,0.118757427639,0.331418236213,175,1.0,-0.155629953633,0.290361762956,nan,nan,nan,nan,nan,nan,nan,nan,266.050732872,599.265873106,nan,599.532805921,nan,nan,nan,nan
1,288,1,1,1.0,1.0,0.349147899658,0,0.0,0.0,0.0,0.377561513956,0.118730236029,0.258831277927,0.496291749986,0.118730236029,0.354946789371,136,1.0,-0.301914900238,-0.074841205769,nan,nan,nan,nan,nan,nan,nan,nan,266.050732872,600.207658697,nan,600.556806596,nan,nan,nan,nan
1,289,1,1,1.0,1.0,0.359344993485,0,0.0,0.0,0.0,0.377461112492,0.118532271462,0.258928841031,0.495993383954,0.118532271462,0.325141902741,432,0.199227897075,0.437687328843,-1.0,nan,nan,nan,nan,nan,nan,nan,nan,266.050732872,601.14945284,nan,601.508797834,nan,nan,nan,nan
1,290,1,1,1.0,1.0,0.313554576831,0,0.0,0.0,0.0,0.377397323341,0.118328269843,0.259069053498,0.495725593184,0.118328269843,0.340682489991,72,1.0,-0.149607777062,-0.853203742106,nan,nan,nan,nan,nan,nan,nan,nan,266.050732872,602.091233014,nan,602.404787591,nan,nan,nan,nan
1,291,1,1,1.0,1.0,0.291741172201,0,0.0,0.0,0.0,0.377173313704,0.118180803455,0.258992510249,0.495354117159,0.118180803455,0.321546914172,247,0.578947625354,0.219392674348,0.6523805853,nan,nan,nan,nan,nan,nan,nan,nan,266.050732872,603.033024306,nan,603.324765478,nan,nan,nan,nan
1,292,1,1,1.0,1.0,0.405931403278,0,0.0,0.0,0.0,0.376874599922,0.118081743762,0.25879285616,0.494956343685,0.118081743762,0.337075717437,117,1.0,-0.307587969795,-0.271886539361,nan,nan,nan,nan,nan,nan,nan,nan,266.050732872,603.974812748,nan,604.380744151,nan,nan,nan,nan
1,293,1,1,1.0,1.0,0.344131603488,0,0.0,0.0,0.0,0.37697584314,0.117888281196,0.259087561944,0.494864124336,0.117888281196,0.347268059656,210,0.958022500947,0.0359304984579,0.533421856807,nan,nan,nan,nan,nan,nan,nan,nan,266.050732872,604.916609457,nan,605.26074106,nan,nan,nan,nan
1,294,1,1,1.0,1.0,0.458330672351,0,0.0,0.0,0.0,0.376861800641,0.11769929379,0.259162506851,0.494561094431,0.11769929379,0.402797893039,469,0.489482198204,0.360453357602,-1.0,nan,nan,nan,nan,nan,nan,nan,nan,266.050732872,605.858385354,nan,606.316716027,nan,nan,nan,nan
1,295,0,0,0.0,1.0,0.500515456893,0,0.0,0.0,0.0,0.377143699851,0.117592838293,0.259550861558,0.494736538144,0.117592838293,0.434325910911,347,-0.174938837379,0.46723881498,0.167157479366,nan,nan,nan,nan,nan,nan,nan,nan,266.050732872,606.800168949,nan,607.300684406,nan,nan,nan,nan
1,296,1,1,1.0,1.0,0.254717798787,0,0.0,0.0,0.0,0.377569119703,0.117612484078,0.259956635625,0.495181603781,0.117612484078,0.404521309344,447,0.312467642152,0.411646472288,-1.0,nan,nan,nan,nan,nan,nan,nan,nan,266.050732872,607.741949123,nan,607.996666921,nan,nan,nan,nan
1,297,1,1,1.0,1.0,0.320900407271,0,0.0,0.0,0.0,0.377146950215,0.117630128895,0.25951682132,0.49477707911,0.117630128895,0.358711220984,250,0.546428449327,0.232286661223,0.654747725831,nan,nan,nan,nan,nan,nan,nan,nan,266.050732872,608.683749538,nan,609.004649945,nan,nan,nan,nan
1,298,0,0,0.0,1.0,0.435130266938,0,0.0,0.0,0.0,0.376954325068,0.11747450002,0.259479825048,0.494428825088,0.11747450002,0.336916157665,456,0.383612429175,0.392633185378,-1.0,nan,nan,nan,nan,nan,nan,nan,nan,266.050732872,609.625508044,nan,610.060638311,nan,nan,nan,nan
1,299,1,1,1.0,1.0,0.221288938657,0,0.0,0.0,0.0,0.377152877771,0.117322929835,0.259829947936,0.494475807606,0.117322929835,0.325773204289,174,1.0,-0.160790688716,0.281981279739,nan,nan,nan,nan,nan,nan,nan,nan,266.050732872,610.567326136,nan,610.788615075,nan,nan,nan,nan
1,300,1,1,1.0,1.0,0.223551189876,0,0.0,0.0,0.0,0.376622728318,0.117474258387,0.259148469931,0.494096986705,0.117474258387,0.293323465157,102,1.0,-0.276610342793,-0.434926949461,nan,nan,nan,nan,nan,nan,nan,nan,266.050732872,611.509069247,nan,611.732620437,nan,nan,nan,nan
1,301,1,1,1.0,1.0,0.257713321596,0,1.0,0.0,0.0,0.376103841747,0.117611983073,0.258491858674,0.49371582482,0.117611983073,0.234184483377,314,-0.0594438881467,0.42463230952,0.441925406839,nan,nan,nan,nan,nan,nan,nan,nan,266.050732872,612.450889334,nan,612.708602656,nan,nan,nan,nan
1,302,1,1,1.0,1.0,0.275902847759,1,0.0,0.0,1.0,0.375703873774,0.117613941861,0.258089931912,0.493317815635,0.117613941861,0.252389119744,186,1.0,-0.0967386681424,0.377881386018,-22.4220894839,112.422089484,-18.3591605161,160.0,1.0,-0.227501418013,0.158297521075,1.60880387772,266.050732872,613.392678346,614.20109603,613.668581194,616.851389624,617.860734275,615.22617523,616.843044525
1,303,1,1,1.0,1.0,0.338892645901,0,0.0,0.0,0.0,0.375367843383,0.117558014153,0.25780982923,0.492925857535,0.117558014153,0.290836271752,37,1.0,0.0358565504353,-1.0,nan,nan,nan,nan,nan,nan,nan,nan,266.050732872,618.001595122,nan,618.340487768,nan,nan,nan,nan
1,304,1,1,1.0,1.0,0.309081962216,0,0.0,0.0,0.0,0.375245443391,0.117379558761,0.257865884631,0.492625002152,0.117379558761,0.307959151959,338,-0.162891363375,0.458928707883,0.250399161362,nan,nan,nan,nan,nan,nan,nan,nan,266.050732872,618.943384134,nan,619.252466096,nan,nan,nan,nan
1,305,1,1,1.0,1.0,0.303301033564,0,0.0,0.0,0.0,0.375024160846,0.117245351874,0.257778808972,0.492269512719,0.117245351874,0.31709188056,74,1.0,-0.159715158178,-0.810443278181,nan,nan,nan,nan,nan,nan,nan,nan,266.050732872,619.885169154,nan,620.188470188,nan,nan,nan,nan
1,306,1,1,1.0,1.0,0.241490115179,0,0.0,0.0,0.0,0.374785083755,0.117122761066,0.257662322689,0.49190784482,0.117122761066,0.284624370319,171,1.0,-0.176011872558,0.256450910142,nan,nan,nan,nan,nan,nan,nan,nan,266.050732872,620.82695503,nan,621.068445145,nan,nan,nan,nan
1,307,0,0,1.0,0.0,0.107688575052,0,0.0,0.0,0.0,0.374342243328,0.117179347847,0.25716289548,0.491521591175,0.117179347847,0.217493241265,56,1.0,-0.0653675053377,-1.0,nan,nan,nan,nan,nan,nan,nan,nan,266.050732872,621.768733208,nan,621.876421783,nan,nan,nan,nan
1,308,1,1,1.0,1.0,0.421879490372,0,0.0,0.0,0.0,0.373459284161,0.117983886017,0.255475398144,0.491443170178,0.117983886017,0.257019393534,418,0.101175887384,0.455961754156,-0.661679309199,nan,nan,nan,nan,nan,nan,nan,nan,266.050732872,622.710513381,nan,623.132392872,nan,nan,nan,nan
1,309,1,1,1.0,1.0,0.288050295901,0,0.0,0.0,0.0,0.373619086822,0.117821764777,0.255797322045,0.491440851599,0.117821764777,0.272539453775,222,0.841778467246,0.0997291618919,0.589484691865,nan,nan,nan,nan,nan,nan,nan,nan,266.050732872,623.652346298,nan,623.940396594,nan,nan,nan,nan
1,310,1,1,1.0,1.0,0.466274638195,0,0.0,0.0,0.0,0.373337610536,0.117729818833,0.255607791703,0.491067429369,0.117729818833,0.392068141489,128,1.0,-0.310663006781,-0.156689791083,nan,nan,nan,nan,nan,nan,nan,nan,266.050732872,624.594100243,nan,625.060374881,nan,nan,nan,nan
1,311,1,1,1.0,1.0,0.308483826928,0,0.0,0.0,0.0,0.373642322102,0.117656673166,0.255906268374,0.490952503312,0.117656673166,0.354269587008,79,1.0,-0.184296021705,-0.724170777997,nan,nan,nan,nan,nan,nan,nan,nan,266.050732872,625.535888969,nan,625.844372796,nan,nan,nan,nan
1,312,0,0,nan,nan,nan,0,0.0,0.0,0.0,0.373429385843,0.117523117469,0.255906268374,0.490952503312,0.117523117469,0.387379232561,292,0.112881669716,0.376069582356,0.569261850688,nan,nan,nan,nan,nan,nan,nan,nan,266.050732872,626.477679691,nan,nan,nan,nan,nan,nan
1,313,1,1,1.0,1.0,0.688876737375,0,0.0,0.0,0.0,0.373429385843,0.117523117469,0.255906268374,0.490952503312,0.117523117469,0.498680282151,337,-0.160643365934,0.457858386897,0.259303564052,nan,nan,nan,nan,nan,nan,nan,nan,266.050732872,627.419428219,nan,628.108304957,nan,nan,nan,nan
1,314,1,1,1.0,1.0,0.491144006373,0,0.0,0.0,0.0,0.374456901646,0.118700317159,0.255756584487,0.493157218806,0.118700317159,0.590010371874,181,1.0,-0.123914391386,0.3392011262,nan,nan,nan,nan,nan,nan,nan,nan,266.050732872,628.361249447,nan,628.852393453,nan,nan,nan,nan
1,315,1,1,1.0,1.0,0.469286411535,0,0.0,1.0,0.0,0.374835755882,0.118693231382,0.2561425245,0.493528987265,0.118693231382,0.549769051761,126,1.0,-0.311411754845,-0.177408431044,nan,nan,nan,nan,nan,nan,nan,nan,266.050732872,629.303035608,nan,629.772322019,nan,nan,nan,nan
1,316,1,1,1.0,1.0,0.42347318714,1,0.0,0.0,1.0,0.375141421435,0.11862237375,0.256519047684,0.493763795185,0.11862237375,0.461301201683,296,0.0772713571413,0.386205321608,0.550001308524,-32.7202195204,122.72021952,-85.4047804796,175.0,1.0,-0.155629953633,0.290361762956,1.92555554165,266.050732872,630.244809794,631.053229474,630.668282981,634.011900838,635.020471164,632.069979256,634.003564008
1,317,1,1,1.0,1.0,0.362060835352,0,0.0,0.0,0.0,0.375297330356,0.118462599222,0.256834731135,0.493759929578,0.118462599222,0.418273478009,154,1.0,-0.251813147593,0.102138173725,nan,nan,nan,nan,nan,nan,nan,nan,266.050732872,635.162115745,nan,635.52417658,nan,nan,nan,nan
1,318,1,1,1.0,1.0,0.292278011446,0,0.0,0.0,0.0,0.375254769279,0.118274365482,0.256980403797,0.493529134761,0.118274365482,0.359270677979,404,0.0124894593597,0.468746268022,-0.463349101315,nan,nan,nan,nan,nan,nan,nan,nan,266.050732872,636.103938683,nan,636.396216695,nan,nan,nan,nan
1,319,1,1,1.0,1.0,0.270465177018,0,0.0,0.0,0.0,0.374988818132,0.118177775342,0.25681104279,0.493166593474,0.118177775342,0.308268007939,474,0.530901762182,0.346545376391,-1.0,nan,nan,nan,nan,nan,nan,nan,nan,266.050732872,637.045680939,nan,637.316146116,nan,nan,nan,nan
1,320,0,0,1.0,0.0,0.184629064868,0,0.0,0.0,0.0,0.374654876787,0.118136192879,0.256518683908,0.492791069666,0.118136192879,0.249124084444,404,0.0124894593597,0.468746268022,-0.463349101315,nan,nan,nan,nan,nan,nan,nan,nan,266.050732872,637.987491618,nan,638.172120683,nan,nan,nan,nan
1,321,1,1,1.0,1.0,0.258874524967,0,0.0,0.0,0.0,0.374049699042,0.118432879094,0.255616819948,0.492482578136,0.118432879094,0.237989588951,97,1.0,-0.260369742894,-0.491718830742,nan,nan,nan,nan,nan,nan,nan,nan,266.050732872,638.92925155,nan,639.188126075,nan,nan,nan,nan
1,322,1,1,1.0,1.0,0.245050701778,0,0.0,0.0,0.0,0.373684063569,0.118422114511,0.255261949058,0.49210617808,0.118422114511,0.229518097204,493,0.689769084006,0.285700779988,-1.0,nan,nan,nan,nan,nan,nan,nan,nan,266.050732872,639.871036285,nan,640.116086987,nan,nan,nan,nan
1,323,1,1,1.0,1.0,0.311241007992,0,0.0,0.0,0.0,0.373276995968,0.118455117534,0.254821878434,0.491732113502,0.118455117534,0.271722078246,415,0.0813077335083,0.459153678902,-0.614968023274,nan,nan,nan,nan,nan,nan,nan,nan,266.050732872,640.812819595,nan,641.124060603,nan,nan,nan,nan
1,324,1,1,1.0,1.0,0.313457073411,0,0.0,0.0,0.0,0.373081298845,0.118319284429,0.254762014416,0.491400583274,0.118319284429,0.28991626106,95,1.0,-0.253175017597,-0.514975443931,nan,nan,nan,nan,nan,nan,nan,nan,266.050732872,641.754605185,nan,642.068062259,nan,nan,nan,nan
1,325,1,1,1.0,1.0,0.259655978181,0,0.0,0.0,0.0,0.372893801281,0.118180260078,0.254713541203,0.491074061359,0.118180260078,0.294784686528,370,-0.144805996584,0.478178727438,-0.0671803333712,nan,nan,nan,nan,nan,nan,nan,nan,266.050732872,642.696376521,nan,642.956032499,nan,nan,nan,nan
1,326,1,1,1.0,1.0,0.269852501806,0,0.0,0.0,0.0,0.372538823779,0.118164556359,0.25437426742,0.490703380138,0.118164556359,0.280988517799,483,0.606025706087,0.319314454546,-1.0,nan,nan,nan,nan,nan,nan,nan,nan,266.050732872,643.638194042,nan,643.908046544,nan,nan,nan,nan
1,327,1,1,1.0,1.0,0.28008580301,0,0.0,0.0,0.0,0.372217929023,0.11811891027,0.254099018753,0.490336839293,0.11811891027,0.269864760999,13,0.950262168777,0.154664060346,-1.0,nan,nan,nan,nan,nan,nan,nan,nan,266.050732872,644.579949697,nan,644.8600355,nan,nan,nan,nan
1,328,1,1,1.0,1.0,0.38626906171,0,0.0,0.0,0.0,0.371930913054,0.118046488988,0.253884424066,0.489977402042,0.118046488988,0.312069122175,113,1.0,-0.302191989669,-0.314576349441,nan,nan,nan,nan,nan,nan,nan,nan,266.050732872,645.521747262,nan,645.908016324,nan,nan,nan,nan
1,329,1,1,1.0,1.0,0.364463924896,0,0.0,0.0,0.0,0.371975441466,0.117865744469,0.254109696997,0.489841185935,0.117865744469,0.343606263205,387,-0.0787219327085,0.477231755363,-0.256974454483,nan,nan,nan,nan,nan,nan,nan,nan,266.050732872,646.463551669,nan,646.828015594,nan,nan,nan,nan
1,330,1,1,1.0,1.0,0.422645833227,0,0.0,0.0,0.0,0.371952185997,0.117683888197,0.2542682978,0.489636074193,0.117683888197,0.391126273278,323,-0.11001989341,0.43965344528,0.375855360355,nan,nan,nan,nan,nan,nan,nan,nan,266.050732872,647.405336119,nan,647.827981952,nan,nan,nan,nan
1,331,1,1,1.0,1.0,0.400843832525,0,0.0,0.0,0.0,0.372108647871,0.117535778897,0.254572868973,0.489644426768,0.117535778897,0.395984530216,197,1.0,-0.035797595552,0.455774741445,nan,nan,nan,nan,nan,nan,nan,nan,266.050732872,648.34712285,nan,648.747966682,nan,nan,nan,nan
1,332,1,1,1.0,1.0,0.37103058293,0,0.0,0.0,0.0,0.372197063824,0.117365606156,0.254831457668,0.489562669979,0.117365606156,0.398173416227,326,-0.12383419111,0.444071765824,0.352223541474,nan,nan,nan,nan,nan,nan,nan,nan,266.050732872,649.288909296,nan,649.659939879,nan,nan,nan,nan
1,333,1,1,1.0,1.0,0.397221379681,0,0.0,0.0,0.0,0.372193485661,0.117185477056,0.255008008605,0.489378962717,0.117185477056,0.389698598379,463,0.440238315199,0.376011795327,-1.0,nan,nan,nan,nan,nan,nan,nan,nan,266.050732872,650.230696882,nan,650.627918261,nan,nan,nan,nan
1,334,1,1,1.0,1.0,0.359411706333,0,0.0,0.0,0.0,0.372270023563,0.117014317671,0.255255705892,0.489284341235,0.117014317671,0.375887889648,411,0.0555201669072,0.463022710015,-0.557054760163,nan,nan,nan,nan,nan,nan,nan,nan,266.050732872,651.172485893,nan,651.5318976,nan,nan,nan,nan
1,335,1,1,1.0,1.0,0.353630777798,0,0.0,0.0,0.0,0.372230821377,0.116837956616,0.255392864761,0.489068777993,0.116837956616,0.370087954604,507,0.805995650865,0.232688349973,-1.0,nan,nan,nan,nan,nan,nan,nan,nan,266.050732872,652.114255233,nan,652.467886011,nan,nan,nan,nan
1,336,1,1,1.0,1.0,0.507845036685,0,0.0,0.0,0.0,0.37217428629,0.116664749326,0.255509536964,0.488839035616,0.116664749326,0.406962506939,267,0.362924526182,0.298807232282,0.646622522267,nan,nan,nan,nan,nan,nan,nan,nan,266.050732872,653.056035977,nan,653.563881014,nan,nan,nan,nan
1,337,1,1,1.0,1.0,0.534005613066,0,0.0,0.0,0.0,0.372585409776,0.116726293992,0.255859115784,0.489311703768,0.116726293992,0.46516047585,72,1.0,-0.149607777062,-0.853203742106,nan,nan,nan,nan,nan,nan,nan,nan,266.050732872,653.99784466,nan,654.531850273,nan,nan,nan,nan
1,338,1,1,1.0,1.0,0.616213570233,0,0.0,1.0,0.0,0.373073084106,0.116886043421,0.256187040685,0.489959127527,0.116886043421,0.552688073328,136,1.0,-0.301914900238,-0.074841205769,nan,nan,nan,nan,nan,nan,nan,nan,266.050732872,654.939628825,nan,655.555842396,nan,nan,nan,nan
1,339,0,0,0.0,1.0,0.602393453242,1,0.0,0.0,1.0,0.373805434968,0.117467967146,0.256337467822,0.491273402114,0.117467967146,0.58420421218,319,-0.0891891826932,0.433308674125,0.406137099325,-151.044266863,241.044266863,16.7473918632,343.0,-0.171388175652,0.463836419185,0.204822810802,1.6838632921,266.050732872,655.881420403,656.689830104,656.483813856,659.406816917,660.416805319,657.706586444,659.398483508
1,340,1,1,1.0,1.0,0.510745621985,0,0.0,0.0,0.0,0.374491885473,0.117956470124,0.256535415349,0.492448355598,0.117956470124,0.57645088182,136,1.0,-0.301914900238,-0.074841205769,nan,nan,nan,nan,nan,nan,nan,nan,266.050732872,660.557011297,nan,661.067756919,nan,nan,nan,nan
1,341,1,1,1.0,1.0,0.496930636931,0,0.0,0.0,0.0,0.374899830792,0.118014781396,0.256885049396,0.492914612189,0.118014781396,0.536689904053,347,-0.174938837379,0.46723881498,0.167157479366,nan,nan,nan,nan,nan,nan,nan,nan,266.050732872,661.498797457,nan,661.995728094,nan,nan,nan,nan
1,342,1,1,1.0,1.0,0.323120749206,0,0.0,0.0,0.0,0.375264101855,0.118026410744,0.257237691111,0.4932905126,0.118026410744,0.443599002707,418,0.101175887384,0.455961754156,-0.661679309199,nan,nan,nan,nan,nan,nan,nan,nan,266.050732872,662.440584188,nan,662.763704937,nan,nan,nan,nan
1,343,1,1,1.0,1.0,0.309323154972,0,0.0,0.0,0.0,0.375108913306,0.117884869989,0.257224043317,0.492993783295,0.117884869989,0.37645818037,132,1.0,-0.307426825298,-0.115555361894,nan,nan,nan,nan,nan,nan,nan,nan,266.050732872,663.38235866,nan,663.691681815,nan,nan,nan,nan
1,344,1,1,1.0,1.0,0.207527836901,0,0.0,0.0,0.0,0.37491370334,0.117764211794,0.257149491547,0.492677915134,0.117764211794,0.27999058036,22,1.0,0.111842423158,-1.0,nan,nan,nan,nan,nan,nan,nan,nan,266.050732872,664.324153659,nan,664.531681495,nan,nan,nan,nan
1,345,1,1,1.0,1.0,0.249720889144,0,1.0,0.0,0.0,0.374418478883,0.117940777975,0.256477700908,0.492359256859,0.117940777975,0.255523960339,367,-0.15309091083,0.477560897992,-0.0350816338538,nan,nan,nan,nan,nan,nan,nan,nan,266.050732872,665.265941245,nan,665.515662134,nan,nan,nan,nan
1,346,1,1,1.0,1.0,0.219897946459,1,0.0,0.0,1.0,0.374050639386,0.117960705211,0.256089934175,0.492011344597,0.117960705211,0.225715557501,486,0.631151757674,0.309603058574,-1.0,103.485927397,346.514072603,4.79532260299,493.0,0.689769084006,0.285700779988,-1.0,1.26712097949,266.050732872,666.20772769,667.016138247,666.427625637,669.316386168,670.322634087,668.032892876,669.308048483
1,347,1,1,1.0,1.0,0.58494404098,0,0.0,0.0,0.0,0.373597249112,0.118082547704,0.255514701409,0.491679796816,0.118082547704,0.351520958861,413,0.0683106243366,0.461143133648,-0.585495598612,nan,nan,nan,nan,nan,nan,nan,nan,266.050732872,670.46660022,nan,671.051544261,nan,nan,nan,nan
1,348,1,1,1.0,1.0,0.36318697175,0,0.0,0.0,0.0,0.374217034426,0.118461823309,0.255755211117,0.492678857735,0.118461823309,0.389342986397,202,1.0,-0.00802826454356,0.487596984314,nan,nan,nan,nan,nan,nan,nan,nan,266.050732872,671.408380108,nan,671.77156708,nan,nan,nan,nan
1,349,1,1,1.0,1.0,0.309340545908,0,0.0,0.0,0.0,0.374184782781,0.118290006003,0.255894776778,0.492474788783,0.118290006003,0.419157186213,342,-0.170052622031,0.462913557708,0.21407524247,nan,nan,nan,nan,nan,nan,nan,nan,266.050732872,672.350169975,nan,672.659510521,nan,nan,nan,nan
1,350,1,1,1.0,1.0,0.255536884884,0,0.0,0.0,0.0,0.373995732527,0.118169175611,0.255826556916,0.492164908138,0.118169175611,0.309354800847,302,0.027086081288,0.400300843718,0.517770016443,nan,nan,nan,nan,nan,nan,nan,nan,266.050732872,673.291957846,nan,673.547494731,nan,nan,nan,nan
1,351,1,1,1.0,1.0,0.177763054031,0,1.0,0.0,0.0,0.373651375412,0.118169516966,0.255481858446,0.491820892378,0.118169516966,0.247546828274,208,0.97651257568,0.025020743352,0.522574479073,nan,nan,nan,nan,nan,nan,nan,nan,266.050732872,674.233749709,nan,674.411512763,nan,nan,nan,nan
1,352,1,1,1.0,1.0,0.30793016695,1,0.0,0.0,1.0,0.373083583176,0.118467129437,0.254616453739,0.491550712613,0.118467129437,0.247076701955,425,0.149162615564,0.447529597292,-0.791715667876,151.750264505,298.249735495,-0.578389505026,424.0,0.142174562463,0.448819569244,-0.770229420881,1.3004514809,266.050732872,675.175533304,675.983925044,675.483463471,678.31752656,679.323746824,677.000698775,678.309193435
1,353,1,1,1.0,1.0,0.463648887235,0,0.0,0.0,0.0,0.372895278505,0.118347505109,0.254547773395,0.491242783614,0.118347505109,0.316447369405,284,0.188465149253,0.353984098999,0.602236276499,nan,nan,nan,nan,nan,nan,nan,nan,266.050732872,679.467748594,nan,679.931397481,nan,nan,nan,nan
1,354,1,1,1.0,1.0,0.289871215587,0,0.0,0.0,0.0,0.373156816282,0.118276944364,0.254879871918,0.491433760646,0.118276944364,0.353816756591,190,1.0,-0.0746884387243,0.407399635172,nan,nan,nan,nan,nan,nan,nan,nan,266.050732872,680.409531904,nan,680.699403119,nan,nan,nan,nan
1,355,1,1,1.0,1.0,0.20405249449,0,0.0,0.0,0.0,0.372917489843,0.118190994622,0.254726495222,0.491108484465,0.118190994622,0.319190865771,235,0.707591924495,0.164537776567,0.631659631194,nan,nan,nan,nan,nan,nan,nan,nan,266.050732872,681.35132063,nan,681.555373125,nan,nan,nan,nan
1,356,0,0,1.0,0.0,0.2222203532,0,0.0,0.0,0.0,0.372433635989,0.118366198585,0.254067437404,0.490799834573,0.118366198585,0.238714687759,104,1.0,-0.282351481576,-0.412644567278,nan,nan,nan,nan,nan,nan,nan,nan,266.050732872,682.293113063,nan,682.515333416,nan,nan,nan,nan
1,357,1,1,1.0,1.0,0.272506192327,0,0.0,0.0,0.0,0.372004455181,0.118468608781,0.253535846399,0.490473063962,0.118468608781,0.232926346672,498,0.731507943485,0.267561876527,-1.0,nan,nan,nan,nan,nan,nan,nan,nan,266.050732872,683.234875275,nan,683.507381468,nan,nan,nan,nan
1,358,1,1,1.0,1.0,0.354637173004,0,0.0,0.0,0.0,0.371720984346,0.118418539719,0.253302444627,0.490139524065,0.118418539719,0.28312123951,85,1.0,-0.212156452387,-0.638781227021,nan,nan,nan,nan,nan,nan,nan,nan,266.050732872,684.176680823,nan,684.531317996,nan,nan,nan,nan
1,359,1,1,1.0,1.0,0.308843905572,0,0.0,0.0,0.0,0.371672450791,0.118253707781,0.25341874301,0.489926158573,0.118253707781,0.311995756968,378,-0.117450136118,0.478670924818,-0.154810124165,nan,nan,nan,nan,nan,nan,nan,nan,266.050732872,685.118466413,nan,685.427310319,nan,nan,nan,nan
1,360,1,1,1.0,1.0,0.399038593052,0,0.0,0.0,0.0,0.371494466244,0.118133296223,0.253361170021,0.489627762467,0.118133296223,0.354173223876,331,-0.143297839787,0.450801753776,0.311166711333,nan,nan,nan,nan,nan,nan,nan,nan,266.050732872,686.06025628,nan,686.459294873,nan,nan,nan,nan
1,361,1,1,1.0,1.0,0.353251597611,0,0.0,0.0,0.0,0.371572274512,0.117975381057,0.253596893455,0.489547655569,0.117975381057,0.353711365412,225,0.81146624694,0.115131125244,0.600981946568,nan,nan,nan,nan,nan,nan,nan,nan,266.050732872,687.002030467,nan,687.355282064,nan,nan,nan,nan
1,362,0,0,0.0,1.0,0.499479981605,0,0.0,0.0,0.0,0.371520666971,0.11781310278,0.253707564191,0.489333769752,0.11781310278,0.417256724089,182,1.0,-0.118523835432,0.347089474713,nan,nan,nan,nan,nan,nan,nan,nan,266.050732872,687.943784126,nan,688.443264108,nan,nan,nan,nan
1,363,1,1,1.0,1.0,0.237650417606,0,0.0,0.0,0.0,0.371880103248,0.117842278714,0.254037824535,0.489722381962,0.117842278714,0.363460665608,299,0.0516645560415,0.393417669654,0.534378752182,nan,nan,nan,nan,nan,nan,nan,nan,266.050732872,688.885615902,nan,689.12326632,nan,nan,nan,nan
1,364,1,1,1.0,1.0,0.199838178465,0,0.0,0.0,0.0,0.371504109731,0.117890763701,0.25361334603,0.489394873432,0.117890763701,0.312322859225,143,1.0,-0.287057525782,-0.00469998909502,nan,nan,nan,nan,nan,nan,nan,nan,266.050732872,689.827383817,nan,690.027221995,nan,nan,nan,nan
1,365,1,1,1.0,1.0,0.282032165793,0,1.0,0.0,0.0,0.371024595957,0.118074114579,0.252950481377,0.489098710536,0.118074114579,0.239840253955,86,1.0,-0.21659106269,-0.625617802914,nan,nan,nan,nan,nan,nan,nan,nan,266.050732872,690.769187939,nan,691.051220105,nan,nan,nan,nan
1,366,0,0,0.0,1.0,0.460212888196,1,0.0,0.0,1.0,0.370776706179,0.118002801432,0.252773904747,0.488779507611,0.118002801432,0.314027744151,243,0.622151010882,0.20168048164,0.647463484622,-68.8698074321,158.869807432,-11.9895675679,226.0,0.801265930663,0.120208988367,0.60458276857,1.25046242867,266.050732872,691.710972389,692.519387507,692.171185277,694.802964048,695.81266108,693.536133583,694.794654017
1,367,1,1,1.0,1.0,0.49791393918,0,0.0,0.0,0.0,0.371025140018,0.117932772317,0.253092367701,0.488957912334,0.117932772317,0.413386331056,171,1.0,-0.176011872558,0.256450910142,nan,nan,nan,nan,nan,nan,nan,nan,266.050732872,695.95317867,nan,696.451092609,nan,nan,nan,nan
1,368,0,0,0.0,1.0,0.604113733512,0,0.0,0.0,0.0,0.371376632536,0.117957996773,0.253418635764,0.489334629309,0.117957996773,0.520746853629,273,0.299732959835,0.319577193062,0.635038033336,nan,nan,nan,nan,nan,nan,nan,nan,266.050732872,696.894965115,nan,697.499078849,nan,nan,nan,nan
1,369,1,1,1.0,1.0,0.25435116305,0,0.0,0.0,0.0,0.372019552705,0.118426645323,0.253592907382,0.490446198028,0.118426645323,0.452126278581,69,1.0,-0.134207199312,-0.939648005704,nan,nan,nan,nan,nan,nan,nan,nan,266.050732872,697.836739017,nan,698.09109018,nan,nan,nan,nan
1,370,1,1,0.0,0.0,0.360208554775,0,0.0,0.0,0.0,0.371695397361,0.118424119489,0.253271277873,0.49011951685,0.118424119489,0.406224483779,380,-0.109519508899,0.478533032186,-0.177177385375,nan,nan,nan,nan,nan,nan,nan,nan,266.050732872,698.786861723,nan,699.147070278,nan,nan,nan,nan
1,371,1,1,1.0,1.0,0.490422138711,0,0.0,0.0,0.0,0.371663840102,0.118262865491,0.253400974611,0.489926705592,0.118262865491,0.368327285512,310,-0.032854544558,0.417080732083,0.468828018046,nan,nan,nan,nan,nan,nan,nan,nan,266.050732872,699.728655866,nan,700.219078005,nan,nan,nan,nan
1,372,1,1,1.0,1.0,0.380603882717,0,0.0,0.0,0.0,0.371989205303,0.118263778108,0.253725427195,0.490252983412,0.118263778108,0.410411525401,127,1.0,-0.31111021432,-0.167036648065,nan,nan,nan,nan,nan,nan,nan,nan,266.050732872,700.670445163,nan,701.051049046,nan,nan,nan,nan
