block,trial,time,setsize,freqtrials,colorind,colordeg,colorrgb,correctresp,actualresp,acc,rts,probe_trials,fast_rt_trigger,slow_rt_trigger,rt_trailingavg,rt_runningavg,rt_runningstd,rt_runningslowthresh,rt_runningfastthresh,wm_mousepos,wm_respdeg,wm_colorind,wm_colorrgb,wm_colorhsv,wm_degdiff,wm_rts,timeBlockStart,timeEncArrayOnset,timeResponse,timeProbeOnset,timeProbeOffset
0,0,19:25:06:434000,6,1,349,245.390625,[-0.17565689  0.46876851  0.14794518],1,1,1,0.401406616,0,nan,nan,nan,nan,nan,nan,nan,nan,nan,nan,[ nan  nan  nan],nan,nan,nan,266.0507329,267.0653153,267.466722,nan,nan
0,1,19:25:07:370000,6,1,68,47.8125,[ 1.         -0.12901814 -0.9729032 ],1,1,1,0.331654297,0,nan,nan,nan,nan,nan,nan,nan,nan,nan,nan,[ nan  nan  nan],nan,nan,nan,266.0507329,268.0070602,268.3387145,nan,nan
0,2,19:25:08:321000,6,1,467,328.359375,[ 0.47300519  0.36577567 -1.        ],1,1,1,0.277848355,0,nan,nan,nan,nan,nan,nan,nan,nan,nan,nan,[ nan  nan  nan],nan,nan,nan,266.0507329,268.9488671,269.2267155,nan,nan
0,3,19:25:09:257000,6,1,7,4.921875,[ 0.90309146  0.18185306 -1.        ],1,nan,nan,nan,0,nan,nan,nan,nan,nan,nan,nan,nan,nan,nan,[ nan  nan  nan],nan,nan,nan,266.0507329,269.8906499,nan,nan,nan
0,4,19:25:10:193000,6,1,410,288.28125,[ 0.04920468  0.46392153 -0.54316189],1,1,1,0.010240429,0,nan,nan,nan,nan,nan,nan,nan,nan,nan,nan,[ nan  nan  nan],nan,nan,nan,266.0507329,270.8324412,270.8426816,nan,nan
0,5,19:25:11:145000,6,0,479,336.796875,[ 0.57257215  0.33176822 -1.        ],0,0,1,0.58040899,0,nan,nan,nan,nan,nan,nan,nan,nan,nan,nan,[ nan  nan  nan],nan,nan,nan,266.0507329,271.7742165,272.3546255,nan,nan
0,6,19:25:12:081000,6,1,98,68.90625,[ 1.         -0.26382291 -0.48021779],1,1,1,0.350617864,0,nan,nan,nan,nan,nan,nan,nan,nan,nan,nan,[ nan  nan  nan],nan,nan,nan,266.0507329,272.7160081,273.0666259,nan,nan
0,7,19:25:13:017000,6,1,150,105.46875,[ 1.         -0.26615253  0.06382271],1,1,1,0.48080978,0,nan,nan,nan,nan,nan,nan,nan,nan,nan,nan,[ nan  nan  nan],nan,nan,nan,266.0507329,273.6577934,274.1386032,nan,nan
0,8,19:25:13:968000,6,1,212,149.0625,[ 0.93926289  0.04677313  0.543851  ],1,1,1,0.419012261,0,nan,nan,nan,nan,nan,nan,nan,nan,nan,nan,[ nan  nan  nan],nan,nan,nan,266.0507329,274.5995755,275.0185878,nan,nan
0,9,19:25:14:904000,6,1,413,290.390625,[ 0.06831062  0.46114313 -0.5854956 ],1,1,1,0.357214457,0,nan,nan,nan,nan,nan,nan,nan,nan,nan,nan,[ nan  nan  nan],nan,nan,nan,266.0507329,275.5413651,275.8985796,nan,nan
0,10,19:25:15:856000,6,0,479,336.796875,[ 0.57257215  0.33176822 -1.        ],0,1,0,0.415396936,0,0,0,nan,nan,nan,nan,nan,nan,nan,nan,[ nan  nan  nan],nan,nan,nan,266.0507329,276.4831576,276.8985545,nan,nan
0,11,19:25:16:792000,6,1,140,98.4375,[ 1.         -0.29420925 -0.03457774],1,1,1,0.513578354,0,nan,nan,nan,nan,nan,nan,nan,nan,nan,nan,[ nan  nan  nan],nan,nan,nan,266.0507329,277.4249372,277.9385155,nan,nan
0,12,19:25:17:728000,6,1,222,156.09375,[ 0.84177847  0.09972916  0.58948469],1,1,1,0.419745818,0,nan,nan,nan,nan,nan,nan,nan,nan,nan,nan,[ nan  nan  nan],nan,nan,nan,266.0507329,278.3667604,278.7865062,nan,nan
0,13,19:25:18:680000,6,1,321,225.703125,[-0.09994335  0.43654647  0.39117498],1,1,1,0.382007419,0,nan,nan,nan,nan,nan,nan,nan,nan,nan,nan,[ nan  nan  nan],nan,nan,nan,266.0507329,279.3085092,279.6905166,nan,nan
0,14,19:25:19:616000,6,1,197,138.515625,[ 1.         -0.0357976   0.45577474],1,1,1,0.328185227,0,nan,nan,nan,nan,nan,nan,nan,nan,nan,nan,[ nan  nan  nan],nan,nan,nan,266.0507329,280.2503002,280.5784854,nan,nan
0,15,19:25:20:552000,6,1,112,78.75,[ 1.         -0.30050152 -0.32532486],1,1,1,0.32239375,0,nan,nan,nan,nan,nan,nan,nan,nan,nan,nan,[ nan  nan  nan],nan,nan,nan,266.0507329,281.1920878,281.5144815,nan,nan
0,16,19:25:21:503000,6,1,435,305.859375,[ 0.22126383  0.43302706 -1.        ],1,1,1,0.396585612,0,nan,nan,nan,nan,nan,nan,nan,nan,nan,nan,[ nan  nan  nan],nan,nan,nan,266.0507329,282.1338742,282.5304599,nan,nan
0,17,19:25:22:439000,6,0,253,177.890625,[ 0.5138659   0.24483993  0.65597719],0,0,1,0.438804323,0,nan,nan,nan,nan,nan,nan,nan,nan,nan,nan,[ nan  nan  nan],nan,nan,nan,266.0507329,283.0756436,283.5144479,nan,nan
0,18,19:25:23:391000,6,1,382,268.59375,[-0.10118876  0.47829114 -0.19973227],1,1,1,0.320985937,0,nan,nan,nan,nan,nan,nan,nan,nan,nan,nan,[ nan  nan  nan],nan,nan,nan,266.0507329,284.0174252,284.3384111,nan,nan
0,19,19:25:24:327000,6,1,151,106.171875,[ 1.         -0.26272029  0.07346267],1,1,1,0.419190163,0,nan,nan,nan,nan,nan,nan,nan,nan,nan,nan,[ nan  nan  nan],nan,nan,nan,266.0507329,284.9592245,285.3784146,nan,nan
0,20,19:25:25:263000,6,1,194,136.40625,[ 1.         -0.05248646  0.4355717 ],1,1,1,0.349318103,0,nan,nan,nan,nan,nan,nan,nan,nan,nan,nan,[ nan  nan  nan],nan,nan,nan,266.0507329,285.9010759,286.250394,nan,nan
0,21,19:25:26:214000,6,1,13,9.140625,[ 0.95026217  0.15466406 -1.        ],1,1,1,0.383533263,0,nan,nan,nan,nan,nan,nan,nan,nan,nan,nan,[ nan  nan  nan],nan,nan,nan,266.0507329,286.8428344,287.2263677,nan,nan
0,22,19:25:27:150000,6,1,247,173.671875,[ 0.57894763  0.21939267  0.65238059],1,1,1,0.417749563,0,nan,nan,nan,nan,nan,nan,nan,nan,nan,nan,[ nan  nan  nan],nan,nan,nan,266.0507329,287.7845986,288.2023482,nan,nan
0,23,19:25:28:086000,6,1,146,102.65625,[ 1.         -0.27879258  0.02488132],1,0,0,0.547937203,0,0,0,nan,nan,nan,nan,nan,nan,nan,nan,[ nan  nan  nan],nan,nan,nan,266.0507329,288.7263862,289.2743234,nan,nan
0,24,19:25:29:038000,6,1,244,171.5625,[ 0.61137236  0.20616355  0.64888072],1,1,1,0.502117421,0,nan,nan,nan,nan,nan,nan,nan,nan,nan,nan,[ nan  nan  nan],nan,nan,nan,266.0507329,289.6681721,290.1702895,nan,nan
0,25,19:25:29:974000,6,1,472,331.875,[ 0.51429865  0.35221228 -1.        ],1,1,1,0.344324615,0,nan,nan,nan,nan,nan,nan,nan,nan,nan,nan,[ nan  nan  nan],nan,nan,nan,266.0507329,290.6099608,290.9542854,nan,nan
0,26,19:25:30:926000,6,1,130,91.40625,[ 1.         -0.30933315 -0.13607149],1,1,1,0.32252404,0,nan,nan,nan,nan,nan,nan,nan,nan,nan,nan,[ nan  nan  nan],nan,nan,nan,266.0507329,291.5517527,291.8742767,nan,nan
0,27,19:25:31:862000,6,1,90,63.28125,[ 1.         -0.23363579 -0.57497187],1,1,1,0.436716836,0,nan,nan,nan,nan,nan,nan,nan,nan,nan,nan,[ nan  nan  nan],nan,nan,nan,266.0507329,292.4935317,292.9302485,nan,nan
0,28,19:25:35:980000,6,1,20,14.0625,[ 1.          0.12155819 -1.        ],1,1,1,0.254955285,1,nan,nan,nan,nan,nan,nan,nan,nan,60.50504418,42,[ 1.          0.00954879 -1.        ],nan,15.43245582,1.125463569,266.0507329,293.4353062,293.6902615,295.2604893,296.3939681
0,29,19:25:36:916000,6,0,117,82.265625,[ 1.         -0.30758797 -0.27188654],0,0,1,0.569669925,0,nan,nan,nan,nan,nan,nan,nan,nan,nan,nan,[ nan  nan  nan],nan,nan,nan,266.0507329,297.5524953,298.1221653,nan,nan
0,30,19:25:37:868000,6,1,195,137.109375,[ 1.         -0.04692453  0.44239605],1,1,1,0.507877538,0,nan,nan,nan,nan,nan,nan,nan,nan,nan,nan,[ nan  nan  nan],nan,nan,nan,266.0507329,298.4942846,299.0021622,nan,nan
0,31,19:25:38:804000,6,1,297,208.828125,[ 0.06862621  0.38864628  0.54490466],1,1,1,0.470091243,0,nan,nan,nan,nan,nan,nan,nan,nan,nan,nan,[ nan  nan  nan],nan,nan,nan,266.0507329,299.436066,299.9061572,nan,nan
0,32,19:25:39:740000,6,1,15,10.546875,[ 0.96573443  0.14535278 -1.        ],1,1,1,0.248270882,0,nan,nan,nan,nan,nan,nan,nan,nan,nan,nan,[ nan  nan  nan],nan,nan,nan,266.0507329,300.3778547,300.6261256,nan,nan
0,33,19:25:40:691000,6,0,91,63.984375,[ 1.         -0.2377099  -0.56272232],0,1,0,0.282475493,0,0,0,nan,nan,nan,nan,nan,nan,nan,nan,[ nan  nan  nan],nan,nan,nan,266.0507329,301.3196403,301.6021158,nan,nan
0,34,19:25:41:627000,6,1,414,291.09375,[ 0.07478379  0.46016219 -0.60008918],1,1,1,0.500680814,0,nan,nan,nan,nan,nan,nan,nan,nan,nan,nan,[ nan  nan  nan],nan,nan,nan,266.0507329,302.2614185,302.7620993,nan,nan
0,35,19:25:45:949000,6,1,232,163.125,[ 0.73915824  0.15004662  0.62371202],1,1,1,0.390889072,1,nan,nan,nan,nan,nan,nan,nan,nan,165.1362084,405,[ 0.01846332  0.46800938 -0.47629333],nan,121.7387916,1.342129076,266.0507329,303.2032026,303.5940917,305.020041,306.3702143
0,36,19:25:46:885000,6,1,107,75.234375,[ 1.         -0.29008977 -0.37959278],1,1,1,0.513589758,0,nan,nan,nan,nan,nan,nan,nan,nan,nan,nan,[ nan  nan  nan],nan,nan,nan,266.0507329,307.5204318,308.0340216,nan,nan
0,37,19:25:47:836000,6,1,332,233.4375,[-0.14664709  0.45205424  0.30271419],1,1,1,0.315764655,0,nan,nan,nan,nan,nan,nan,nan,nan,nan,nan,[ nan  nan  nan],nan,nan,nan,266.0507329,308.4622052,308.7779698,nan,nan
0,38,19:25:48:772000,6,1,205,144.140625,[ 1.          0.008548    0.50553524],1,1,1,0.341968566,0,nan,nan,nan,nan,nan,nan,nan,nan,nan,nan,[ nan  nan  nan],nan,nan,nan,266.0507329,309.4039947,309.7459633,nan,nan
0,39,19:25:49:708000,6,1,407,286.171875,[ 0.03058863  0.46645515 -0.50257741],1,1,1,0.30416545,0,nan,nan,nan,nan,nan,nan,nan,nan,nan,nan,[ nan  nan  nan],nan,nan,nan,266.0507329,310.3457892,310.6499546,nan,nan
0,40,19:25:50:660000,6,1,309,217.265625,[-0.02583963  0.41510654  0.4753057 ],1,1,1,0.330341992,0,nan,nan,nan,nan,nan,nan,nan,nan,nan,nan,[ nan  nan  nan],nan,nan,nan,266.0507329,311.2875981,311.6179401,nan,nan
0,41,19:25:51:596000,6,1,477,335.390625,[ 0.55587987  0.33778403 -1.        ],1,1,1,0.364561428,0,nan,nan,nan,nan,nan,nan,nan,nan,nan,nan,[ nan  nan  nan],nan,nan,nan,266.0507329,312.2293649,312.5939263,nan,nan
0,42,19:25:52:532000,6,1,356,250.3125,[-0.17284378  0.47323941  0.07883681],1,1,1,0.438712521,0,nan,nan,nan,nan,nan,nan,nan,nan,nan,nan,[ nan  nan  nan],nan,nan,nan,266.0507329,313.1711853,313.6098978,nan,nan
0,43,19:25:53:483000,6,1,107,75.234375,[ 1.         -0.29008977 -0.37959278],1,1,1,0.456945097,0,nan,nan,nan,nan,nan,nan,nan,nan,nan,nan,[ nan  nan  nan],nan,nan,nan,266.0507329,314.1129361,314.5698812,nan,nan
0,44,19:25:54:419000,6,1,29,20.390625,[ 1.          0.07701739 -1.        ],1,1,1,0.427148098,0,nan,nan,nan,nan,nan,nan,nan,nan,nan,nan,[ nan  nan  nan],nan,nan,nan,266.0507329,315.0547194,315.4818675,nan,nan
0,45,19:25:55:371000,6,1,259,182.109375,[ 0.44882283  0.26890698  0.65501178],1,1,1,0.349355736,0,nan,nan,nan,nan,nan,nan,nan,nan,nan,nan,[ nan  nan  nan],nan,nan,nan,266.0507329,315.9965061,316.3458619,nan,nan
0,46,19:25:56:307000,6,1,490,344.53125,[ 0.66466039  0.29615785 -1.        ],1,1,1,0.311547203,0,nan,nan,nan,nan,nan,nan,nan,nan,nan,nan,[ nan  nan  nan],nan,nan,nan,266.0507329,316.9382966,317.2498438,nan,nan
0,47,19:25:57:243000,6,0,223,156.796875,[ 0.83172397  0.10489059  0.59343224],0,1,0,0.27375378,0,0,0,nan,nan,nan,nan,nan,nan,nan,nan,[ nan  nan  nan],nan,nan,nan,266.0507329,317.8800839,318.1538376,nan,nan
0,48,19:25:58:195000,6,1,177,124.453125,[ 1.         -0.14519215  0.30692121],1,1,1,0.427936679,0,nan,nan,nan,nan,nan,nan,nan,nan,nan,nan,[ nan  nan  nan],nan,nan,nan,266.0507329,318.8218612,319.2497979,nan,nan
0,49,19:25:59:131000,6,1,114,80.15625,[ 1.         -0.30374746 -0.30385937],1,1,1,0.52612779,0,nan,nan,nan,nan,nan,nan,nan,nan,nan,nan,[ nan  nan  nan],nan,nan,nan,266.0507329,319.7636468,320.2897746,nan,nan
0,50,19:26:00:067000,6,1,39,27.421875,[ 1.          0.02537899 -1.        ],1,1,1,0.448314616,0,nan,nan,nan,nan,nan,nan,nan,nan,nan,nan,[ nan  nan  nan],nan,nan,nan,266.0507329,320.7054355,321.1537501,nan,nan
0,51,19:26:01:018000,6,1,120,84.375,[ 1.         -0.3101615  -0.24016291],1,1,1,0.418528736,0,nan,nan,nan,nan,nan,nan,nan,nan,nan,nan,[ nan  nan  nan],nan,nan,nan,266.0507329,321.6472165,322.0657453,nan,nan
0,52,19:26:01:954000,6,1,25,17.578125,[ 1.          0.09706829 -1.        ],1,1,1,0.508738533,0,nan,nan,nan,nan,nan,nan,nan,nan,nan,nan,[ nan  nan  nan],nan,nan,nan,266.0507329,322.5890098,323.0977484,nan,nan
0,53,19:26:06:182000,6,1,219,153.984375,[ 0.87162732  0.08408817  0.57695967],1,1,1,0.398917997,1,nan,nan,nan,nan,nan,nan,nan,nan,-53.97262661,205,[ 1.          0.008548    0.50553524],nan,-10.01174839,1.233747143,266.0507329,323.5308034,323.9297214,325.3643251,326.606122
0,54,19:26:07:118000,6,1,59,41.484375,[ 1.         -0.08144099 -1.        ],1,1,1,0.621295724,0,nan,nan,nan,nan,nan,nan,nan,nan,nan,nan,[ nan  nan  nan],nan,nan,nan,266.0507329,327.7563326,328.3776283,nan,nan
0,55,19:26:08:069000,6,1,510,358.59375,[ 0.83055446  0.2204367  -1.        ],1,1,1,0.455515902,0,nan,nan,nan,nan,nan,nan,nan,nan,nan,nan,[ nan  nan  nan],nan,nan,nan,266.0507329,328.6981076,329.1536235,nan,nan
0,56,19:26:09:005000,6,1,95,66.796875,[ 1.         -0.25317502 -0.51497544],1,1,1,0.305709825,0,nan,nan,nan,nan,nan,nan,nan,nan,nan,nan,[ nan  nan  nan],nan,nan,nan,266.0507329,329.6399112,329.945621,nan,nan
0,57,19:26:09:941000,6,1,386,271.40625,[-0.08339466  0.47749559 -0.24542474],1,1,1,0.299900957,0,nan,nan,nan,nan,nan,nan,nan,nan,nan,nan,[ nan  nan  nan],nan,nan,nan,266.0507329,330.5816999,330.8816009,nan,nan
0,58,19:26:14:247000,6,1,328,230.625,[-0.13215956  0.44685797  0.33604616],1,1,1,0.390089373,1,nan,nan,nan,nan,nan,nan,nan,nan,-132.5104471,316,[-0.07182156  0.42820351  0.42789226],nan,-8.114552922,1.300573218,266.0507329,331.5234841,331.9135735,333.3569861,334.665503
0,59,19:26:15:199000,6,1,192,135,[ 1.         -0.06359976  0.42165841],1,1,1,0.56146652,0,nan,nan,nan,nan,nan,nan,nan,nan,nan,nan,[ nan  nan  nan],nan,nan,nan,266.0507329,335.8240222,336.3854887,nan,nan
0,60,19:26:16:135000,6,1,273,191.953125,[ 0.29973296  0.31957719  0.63503803],1,1,1,0.355676355,0,nan,nan,nan,nan,nan,nan,nan,nan,nan,nan,[ nan  nan  nan],nan,nan,nan,266.0507329,336.7658112,337.1214876,nan,nan
0,61,19:26:17:071000,6,1,165,116.015625,[ 1.         -0.20505638  0.20374544],1,1,1,0.317864971,0,nan,nan,nan,nan,nan,nan,nan,nan,nan,nan,[ nan  nan  nan],nan,nan,nan,266.0507329,337.7076042,338.0254692,nan,nan
0,62,19:26:18:022000,6,1,328,230.625,[-0.13215956  0.44685797  0.33604616],1,1,1,0.256035521,0,nan,nan,nan,nan,nan,nan,nan,nan,nan,nan,[ nan  nan  nan],nan,nan,nan,266.0507329,338.649393,338.9054285,nan,nan
0,63,19:26:18:958000,6,0,493,346.640625,[ 0.68976908  0.28570078 -1.        ],0,1,0,0.330274709,0,0,0,nan,nan,nan,nan,nan,nan,nan,nan,[ nan  nan  nan],nan,nan,nan,266.0507329,339.5911569,339.9214316,nan,nan
0,64,19:26:19:894000,6,1,332,233.4375,[-0.14664709  0.45205424  0.30271419],1,1,1,0.396454181,0,nan,nan,nan,nan,nan,nan,nan,nan,nan,nan,[ nan  nan  nan],nan,nan,nan,266.0507329,340.5329656,340.9294198,nan,nan
0,65,19:26:20:846000,6,1,67,47.109375,[ 1.         -0.12380467 -1.        ],1,1,1,0.350666045,0,nan,nan,nan,nan,nan,nan,nan,nan,nan,nan,[ nan  nan  nan],nan,nan,nan,266.0507329,341.4747389,341.825405,nan,nan
0,66,19:26:21:782000,6,1,145,101.953125,[ 1.         -0.28166741  0.01505517],1,1,1,0.384844998,0,nan,nan,nan,nan,nan,nan,nan,nan,nan,nan,[ nan  nan  nan],nan,nan,nan,266.0507329,342.4165382,342.8013832,nan,nan
0,67,19:26:22:733000,6,1,393,276.328125,[-0.04894566  0.47510217 -0.32744323],1,1,1,0.331042762,0,nan,nan,nan,nan,nan,nan,nan,nan,nan,nan,[ nan  nan  nan],nan,nan,nan,266.0507329,343.3583243,343.6893671,nan,nan
0,68,19:26:23:669000,6,1,197,138.515625,[ 1.         -0.0357976   0.45577474],1,1,1,0.397251315,0,nan,nan,nan,nan,nan,nan,nan,nan,nan,nan,[ nan  nan  nan],nan,nan,nan,266.0507329,344.3001082,344.6973595,nan,nan
0,69,19:26:24:605000,6,1,13,9.140625,[ 0.95026217  0.15466406 -1.        ],1,1,1,0.439447218,0,nan,nan,nan,nan,nan,nan,nan,nan,nan,nan,[ nan  nan  nan],nan,nan,nan,266.0507329,345.2418981,345.6813453,nan,nan
0,70,19:26:25:557000,6,1,230,161.71875,[ 0.76002313  0.14022421  0.6178111 ],1,1,1,0.385632723,0,nan,nan,nan,nan,nan,nan,nan,nan,nan,nan,[ nan  nan  nan],nan,nan,nan,266.0507329,346.1836882,346.569321,nan,nan
0,71,19:26:26:493000,6,1,494,347.34375,[ 0.69812996  0.282144   -1.        ],1,1,1,0.491829667,0,nan,nan,nan,nan,nan,nan,nan,nan,nan,nan,[ nan  nan  nan],nan,nan,nan,266.0507329,347.1254693,347.6172989,nan,nan
0,72,19:26:27:429000,6,1,4,2.8125,[ 0.87912605  0.19501404 -1.        ],1,1,1,0.526025725,0,nan,nan,nan,nan,nan,nan,nan,nan,nan,nan,[ nan  nan  nan],nan,nan,nan,266.0507329,348.0672563,348.593282,nan,nan
0,73,19:26:28:381000,6,1,275,193.359375,[ 0.27900239  0.32618525  0.63017847],1,1,1,0.400202362,0,nan,nan,nan,nan,nan,nan,nan,nan,nan,nan,[ nan  nan  nan],nan,nan,nan,266.0507329,349.0090419,349.4092442,nan,nan
0,74,19:26:29:317000,6,1,14,9.84375,[ 0.95801505  0.15002356 -1.        ],1,1,1,0.362434028,0,nan,nan,nan,nan,nan,nan,nan,nan,nan,nan,[ nan  nan  nan],nan,nan,nan,266.0507329,349.9508181,350.3132521,nan,nan
0,75,19:26:30:268000,6,1,128,90,[ 1.         -0.31066301 -0.15668979],1,1,1,0.548609464,0,nan,nan,nan,nan,nan,nan,nan,nan,nan,nan,[ nan  nan  nan],nan,nan,nan,266.0507329,350.8926168,351.4412262,nan,nan
0,76,19:26:31:220000,6,1,21,14.765625,[ 1.        0.116714 -1.      ],1,1,1,0.534817287,0,nan,nan,nan,nan,nan,nan,nan,nan,nan,nan,[ nan  nan  nan],nan,nan,nan,266.0507329,351.8344015,352.3692188,nan,nan
0,77,19:26:32:156000,6,1,371,260.859375,[-0.14179361  0.47833194 -0.07797326],1,1,1,0.400368004,0,nan,nan,nan,nan,nan,nan,nan,nan,nan,nan,[ nan  nan  nan],nan,nan,nan,266.0507329,352.7928474,353.1932154,nan,nan
0,78,19:26:33:107000,6,1,287,201.796875,[ 0.15950165  0.36255249  0.59075192],1,1,1,0.330538995,0,nan,nan,nan,nan,nan,nan,nan,nan,nan,nan,[ nan  nan  nan],nan,nan,nan,266.0507329,353.7346483,354.0651873,nan,nan
0,79,19:26:34:043000,6,1,358,251.71875,[-0.17058391  0.47426832  0.05858744],1,1,1,0.300735723,0,nan,nan,nan,nan,nan,nan,nan,nan,nan,nan,[ nan  nan  nan],nan,nan,nan,266.0507329,354.6764234,354.9771591,nan,nan
0,80,19:26:34:979000,6,1,43,30.234375,[ 1.          0.00424534 -1.        ],1,1,1,0.326948187,0,0,0,0.319407635,0.39653629,0.096109691,0.49264598,0.300426599,nan,nan,nan,[ nan  nan  nan],nan,nan,nan,266.0507329,355.6181924,355.9451406,nan,nan
0,81,19:26:35:931000,6,1,150,105.46875,[ 1.         -0.26615253  0.06382271],1,1,1,0.321105108,0,0,0,0.316263006,0.395666438,0.095819538,0.491485977,0.2998469,nan,nan,nan,[ nan  nan  nan],nan,nan,nan,266.0507329,356.5599926,356.8810977,nan,nan
0,82,19:26:36:867000,6,0,409,287.578125,[ 0.04294362  0.46479315 -0.52946185],0,0,1,0.507306202,0,0,0,0.385119832,0.394745928,0.095581487,0.490327415,0.299164441,nan,nan,nan,[ nan  nan  nan],nan,nan,nan,266.0507329,357.5017836,358.0090898,nan,nan
0,83,19:26:37:819000,6,1,458,322.03125,[ 0.39968805  0.38805021 -1.        ],1,1,1,0.285536018,0,0,0,0.371315776,0.396118614,0.095796836,0.491915451,0.300321778,nan,nan,nan,[ nan  nan  nan],nan,nan,nan,266.0507329,358.4435706,358.7291066,nan,nan
0,84,19:26:38:755000,6,1,296,208.125,[ 0.07727136  0.38620532  0.55000131],1,1,1,0.335721218,0,0,0,0.376187813,0.394786294,0.095979287,0.490765581,0.298807007,nan,nan,nan,[ nan  nan  nan],nan,nan,nan,266.0507329,359.3853696,359.7210908,nan,nan
0,85,19:26:39:691000,6,1,104,73.125,[ 1.         -0.28235148 -0.41264457],1,1,1,0.417912069,0,0,0,0.346389768,0.394083138,0.095621097,0.489704235,0.298462041,nan,nan,nan,[ nan  nan  nan],nan,nan,nan,266.0507329,360.3271398,360.7450518,nan,nan
0,86,19:26:40:642000,6,1,314,220.78125,[-0.05944389  0.42463231  0.44192541],1,1,1,0.276096999,0,0,0,0.343243429,0.394363479,0.095091674,0.489455152,0.299271805,nan,nan,nan,[ nan  nan  nan],nan,nan,nan,266.0507329,361.2689274,361.5450244,nan,nan
0,87,19:26:41:578000,6,1,34,23.90625,[ 1.          0.05144197 -1.        ],1,1,1,0.262304252,0,0,0,0.318771107,0.392988287,0.095383593,0.48837188,0.297604694,nan,nan,nan,[ nan  nan  nan],nan,nan,nan,266.0507329,362.2107101,362.4730144,nan,nan
0,88,19:26:42:514000,6,1,285,200.390625,[ 0.17873435  0.35687868  0.59852701],1,1,1,0.232507253,0,1,0,0.256969501,0.391486172,0.095851452,0.487337624,0.295634719,nan,nan,nan,[ nan  nan  nan],nan,nan,nan,266.0507329,363.1525273,363.3850346,nan,nan
0,89,19:26:46:773000,6,1,127,89.296875,[ 1.         -0.31111021 -0.16703665],1,1,1,0.418690386,1,0,0,0.30450063,0.389679593,0.096783478,0.486463071,0.292896114,nan,-14.76919853,149,[ 1.         -0.26947852  0.05414366],nan,15.47232353,1.250441902,266.0507329,364.094289,364.5129794,365.9278147,367.1862789
0,90,19:26:47:709000,6,1,263,184.921875,[ 0.4056988   0.28417174  0.65182989],1,1,1,0.36015011,0,0,0,0.337115916,0.390005557,0.096286781,0.486292338,0.293718776,nan,nan,nan,[ nan  nan  nan],nan,nan,nan,266.0507329,368.3448287,368.7049788,nan,nan
0,91,19:26:48:661000,6,1,48,33.75,[ 1.         -0.02242733 -1.        ],1,1,1,0.242293521,0,0,0,0.340378005,0.38967383,0.095801489,0.485475319,0.29387234,nan,nan,nan,[ nan  nan  nan],nan,nan,nan,266.0507329,369.286624,369.5289175,nan,nan
0,92,19:26:49:597000,6,1,121,85.078125,[ 1.         -0.31073281 -0.22964081],1,1,1,0.308490099,0,0,0,0.303644577,0.388054266,0.0965046,0.484558866,0.291549666,nan,nan,nan,[ nan  nan  nan],nan,nan,nan,266.0507329,370.2284047,370.5368948,nan,nan
0,93,19:26:50:533000,6,1,190,133.59375,[ 1.         -0.07468844  0.40739964],1,1,1,0.206707896,0,1,0,0.252497172,0.387189438,0.096332598,0.483522036,0.29085684,nan,nan,nan,[ nan  nan  nan],nan,nan,nan,266.0507329,371.1702,371.3769079,nan,nan
0,94,19:26:51:484000,6,0,426,299.53125,[ 0.15619305  0.44621085 -0.8148597 ],0,1,0,0.080893656,0,0,0,0.198697217,0.385248776,0.097604674,0.48285345,0.287644102,nan,nan,nan,[ nan  nan  nan],nan,nan,nan,266.0507329,372.1119776,372.1928712,nan,nan
0,95,19:26:52:420000,6,1,468,329.0625,[ 0.48123648  0.36313162 -1.        ],1,1,1,0.235091095,0,0,0,0.174230882,0.382010956,0.101981805,0.483992761,0.280029151,nan,nan,nan,[ nan  nan  nan],nan,nan,nan,266.0507329,373.0537666,373.2888577,nan,nan
0,96,19:26:53:356000,6,1,346,243.28125,[-0.17431756  0.46643129  0.17667017],1,1,1,0.173303269,0,0,0,0.163096007,0.380464431,0.102545772,0.483010203,0.277918659,nan,nan,nan,[ nan  nan  nan],nan,nan,nan,266.0507329,373.9955388,374.1688421,nan,nan
0,97,19:26:54:308000,6,0,62,43.59375,[ 1.         -0.09743725 -1.        ],0,1,0,0.167469312,0,0,0,0.191954558,0.378306502,0.104156036,0.482462538,0.274150466,nan,nan,nan,[ nan  nan  nan],nan,nan,nan,266.0507329,374.9373384,375.1048077,nan,nan
0,98,19:26:55:244000,6,1,445,312.890625,[ 0.2969539  0.4155201 -1.       ],1,1,1,0.409645087,0,0,0,0.250139223,0.376132923,0.105783679,0.481916602,0.270349244,nan,nan,nan,[ nan  nan  nan],nan,nan,nan,266.0507329,375.8791148,376.2887599,nan,nan
0,99,19:26:56:195000,6,1,64,45,[ 1.         -0.10803687 -1.        ],1,1,1,0.363847543,0,0,0,0.313653981,0.376474884,0.105296458,0.481771342,0.271178426,nan,nan,nan,[ nan  nan  nan],nan,nan,nan,266.0507329,376.8209229,377.1847705,nan,nan
0,100,19:26:57:131000,6,1,468,329.0625,[ 0.48123648  0.36313162 -1.        ],1,1,1,0.326041861,0,0,0,0.366511497,0.376347335,0.104770917,0.481118252,0.271576418,nan,nan,nan,[ nan  nan  nan],nan,nan,nan,266.0507329,377.7626926,378.0887344,nan,nan
0,101,19:26:58:067000,6,1,192,135,[ 1.         -0.06359976  0.42165841],1,1,1,0.320243257,0,0,0,0.336710887,0.37584428,0.104365841,0.480210122,0.271478439,nan,nan,nan,[ nan  nan  nan],nan,nan,nan,266.0507329,378.704477,379.0247203,nan,nan
0,102,19:26:59:019000,6,1,250,175.78125,[ 0.54642845  0.23228666  0.65474773],1,1,1,0.402457771,0,0,0,0.349580963,0.375293775,0.103993705,0.47928748,0.27130007,nan,nan,nan,[ nan  nan  nan],nan,nan,nan,266.0507329,379.6462726,380.0487303,nan,nan
0,103,19:26:59:955000,6,1,349,245.390625,[-0.17565689  0.46876851  0.14794518],1,1,1,0.356662508,0,0,0,0.359787845,0.375560089,0.103517281,0.47907737,0.272042808,nan,nan,nan,[ nan  nan  nan],nan,nan,nan,266.0507329,380.5880622,380.9447247,nan,nan
0,104,19:27:00:891000,6,1,260,182.8125,[ 0.43801664  0.27278198  0.65440657],1,1,1,0.446834958,0,0,0,0.401985079,0.375376617,0.103030208,0.478406825,0.272346409,nan,nan,nan,[ nan  nan  nan],nan,nan,nan,266.0507329,381.5298492,381.9766841,nan,nan
0,105,19:27:01:843000,6,1,457,321.328125,[ 0.39163925  0.39035818 -1.        ],1,1,1,0.393046977,0,0,0,0.398848148,0.376063716,0.102770527,0.478834243,0.273293189,nan,nan,nan,[ nan  nan  nan],nan,nan,nan,266.0507329,382.4716319,382.8646789,nan,nan
0,106,19:27:02:779000,6,1,400,281.25,[-0.01078748  0.4714273  -0.41269269],1,1,1,0.331248033,0,0,0,0.390376656,0.376225462,0.102293273,0.478518734,0.273932189,nan,nan,nan,[ nan  nan  nan],nan,nan,nan,266.0507329,383.4134206,383.7446687,nan,nan
0,107,19:27:03:730000,6,1,347,243.984375,[-0.17493884  0.46723881  0.16715748],1,1,1,0.293440925,0,0,0,0.339245312,0.375801146,0.101902414,0.477703561,0.273898732,nan,nan,nan,[ nan  nan  nan],nan,nan,nan,266.0507329,384.3552091,384.64865,nan,nan
0,108,19:27:04:666000,6,1,199,139.921875,[ 1.         -0.02467618  0.4687863 ],1,1,1,0.439648497,0,0,0,0.354779152,0.375031425,0.101734244,0.476765668,0.273297181,nan,nan,nan,[ nan  nan  nan],nan,nan,nan,266.0507329,385.2969927,385.7366412,nan,nan
0,109,19:27:05:602000,6,1,274,192.65625,[ 0.28934405  0.32290089  0.63267027],1,1,1,0.313824564,0,0,0,0.348971329,0.375629731,0.101451107,0.477080838,0.274178624,nan,nan,nan,[ nan  nan  nan],nan,nan,nan,266.0507329,386.2387726,386.5525971,nan,nan
0,110,19:27:06:554000,6,1,337,236.953125,[-0.16064337  0.45785839  0.25930356],1,1,1,0.292031402,0,0,0,0.348501488,0.375062711,0.10115644,0.476219151,0.273906271,nan,nan,nan,[ nan  nan  nan],nan,nan,nan,266.0507329,387.1805599,387.4725913,nan,nan
0,111,19:27:07:490000,6,1,34,23.90625,[ 1.          0.05144197 -1.        ],1,1,1,0.246260372,0,0,0,0.284038779,0.374307881,0.101003496,0.475311377,0.273304385,nan,nan,nan,[ nan  nan  nan],nan,nan,nan,266.0507329,388.1223452,388.3686055,nan,nan
0,112,19:27:08:426000,6,1,270,189.84375,[ 0.33115907  0.30936972  0.64139387],1,1,1,0.512451077,0,0,0,0.350247617,0.3731543,0.101272807,0.474427107,0.271881493,nan,nan,nan,[ nan  nan  nan],nan,nan,nan,266.0507329,389.0641259,389.576577,nan,nan
0,113,19:27:09:377000,6,1,443,311.484375,[ 0.28155878  0.41926821 -1.        ],1,1,1,0.458619762,0,0,0,0.40577707,0.374398021,0.101667635,0.476065656,0.272730386,nan,nan,nan,[ nan  nan  nan],nan,nan,nan,266.0507329,390.0059243,390.4645441,nan,nan
0,114,19:27:10:313000,6,1,163,114.609375,[ 1.         -0.2142478   0.18572368],1,nan,nan,nan,0,0,0,0.485535419,0.375143346,0.101523659,0.476667005,0.273619688,nan,nan,nan,[ nan  nan  nan],nan,nan,nan,266.0507329,390.9477119,nan,nan,nan
0,115,19:27:11:265000,6,1,398,279.84375,[-0.02203778  0.4726088  -0.38794338],1,1,1,0.686985969,0,0,0,0.572802865,0.375143346,0.101523659,0.476667005,0.273619688,nan,nan,nan,[ nan  nan  nan],nan,nan,nan,266.0507329,391.8894949,392.5764809,nan,nan
0,116,19:27:12:201000,6,1,30,21.09375,[ 1.          0.07194566 -1.        ],1,1,1,0.473214489,0,0,0,0.580100229,0.377878808,0.105176952,0.48305576,0.272701856,nan,nan,nan,[ nan  nan  nan],nan,nan,nan,266.0507329,392.8312834,393.3044979,nan,nan
0,117,19:27:13:137000,6,1,226,158.90625,[ 0.80126593  0.12020899  0.60458277],1,1,1,0.563434551,0,0,1,0.574545003,0.378707814,0.105092078,0.483799892,0.273615736,nan,nan,nan,[ nan  nan  nan],nan,nan,nan,266.0507329,393.7730453,394.3364799,nan,nan
0,118,19:27:17:302000,6,0,291,204.609375,[ 0.12202764  0.37344194  0.57379193],0,0,1,0.573591161,1,0,0,0.536746734,0.380300286,0.106022503,0.486322789,0.274277782,nan,-148.1043261,339,[-0.16495584  0.45996923  0.2414231 ],nan,33.49495114,1.16711351,266.0507329,394.7148577,395.2884489,396.5483509,397.7235073
0,119,19:27:18:238000,6,1,167,117.421875,[ 1.         -0.19560581  0.22154672],1,1,1,0.526663489,0,0,0,0.554563067,0.381952344,0.107057437,0.489009781,0.274894907,nan,nan,nan,[ nan  nan  nan],nan,nan,nan,266.0507329,398.8737156,399.4003791,nan,nan
0,120,19:27:19:190000,6,1,384,270,[-0.09247501  0.47794532 -0.22247927],1,1,1,0.280864975,0,0,0,0.460373208,0.38317871,0.107424997,0.490603707,0.275753713,nan,nan,nan,[ nan  nan  nan],nan,nan,nan,266.0507329,399.8155052,400.0963702,nan,nan
0,121,19:27:20:126000,6,1,445,312.890625,[ 0.2969539  0.4155201 -1.       ],1,1,1,0.275074924,0,0,0,0.360867796,0.382318931,0.107379617,0.489698548,0.274939314,nan,nan,nan,[ nan  nan  nan],nan,nan,nan,266.0507329,400.7572888,401.0323637,nan,nan
0,122,19:27:21:062000,6,1,3,2.109375,[ 0.87108718  0.19933511 -1.        ],1,1,1,0.365258207,0,0,0,0.307066035,0.381425231,0.107374768,0.488799999,0.274050462,nan,nan,nan,[ nan  nan  nan],nan,nan,nan,266.0507329,401.6990767,402.0643349,nan,nan
0,123,19:27:22:013000,6,1,101,71.015625,[ 1.         -0.27357267 -0.44615261],1,1,1,0.55146985,0,0,0,0.39726766,0.381291619,0.106940167,0.488231786,0.274351452,nan,nan,nan,[ nan  nan  nan],nan,nan,nan,266.0507329,402.640864,403.1923338,nan,nan
0,124,19:27:22:949000,6,1,289,203.203125,[ 0.14059213  0.36807325  0.58250527],1,1,1,0.38560963,0,0,0,0.434112563,0.382686522,0.107600634,0.490287156,0.275085888,nan,nan,nan,[ nan  nan  nan],nan,nan,nan,266.0507329,403.5827083,403.9683179,nan,nan
0,125,19:27:23:885000,6,1,403,283.359375,[ 0.00657627  0.46945644 -0.45052451],1,1,1,0.323854591,0,0,0,0.420311357,0.382710287,0.107162662,0.489872949,0.275547626,nan,nan,nan,[ nan  nan  nan],nan,nan,nan,266.0507329,404.5244494,404.848304,nan,nan
0,126,19:27:24:837000,6,1,175,123.046875,[ 1.         -0.15562995  0.29036176],1,1,1,0.326057827,0,0,0,0.345174016,0.382235645,0.106859415,0.48909506,0.275376229,nan,nan,nan,[ nan  nan  nan],nan,nan,nan,266.0507329,405.4662233,405.7922811,nan,nan
0,127,19:27:25:773000,6,0,475,333.984375,[ 0.53921875  0.34365981 -1.        ],0,0,1,0.424240956,0,0,0,0.358051125,0.381786222,0.106548716,0.488334938,0.275237507,nan,nan,nan,[ nan  nan  nan],nan,nan,nan,266.0507329,406.4080106,406.8322516,nan,nan
0,128,19:27:26:725000,6,1,402,282.65625,[ 0.00072492  0.47013996 -0.43781156],1,1,1,0.154428938,0,0,0,0.301575907,0.382123165,0.106191901,0.488315066,0.275931264,nan,nan,nan,[ nan  nan  nan],nan,nan,nan,266.0507329,407.3497999,407.5042289,nan,nan
0,129,19:27:27:661000,6,1,217,152.578125,[ 0.89125041  0.07353733  0.56804835],1,1,1,0.164640571,0,0,0,0.247770155,0.380330297,0.107670507,0.488000804,0.27265979,nan,nan,nan,[ nan  nan  nan],nan,nan,nan,266.0507329,408.2915838,408.4562244,nan,nan
0,130,19:27:28:597000,6,1,160,112.5,[ 1.         -0.22750142  0.15829752],1,1,1,0.190826236,0,1,0,0.169965248,0.378645221,0.108917319,0.487562539,0.269727902,nan,nan,nan,[ nan  nan  nan],nan,nan,nan,266.0507329,409.2333731,409.4241993,nan,nan
0,131,19:27:32:544000,6,1,372,261.5625,[-0.13866002  0.47845887 -0.08881238],1,1,1,0.26502437,1,0,0,0.206830393,0.37718926,0.109737681,0.48692694,0.267451579,nan,-177.0846779,380,[-0.10951951  0.47853303 -0.17717739],nan,5.522177883,0.950414361,266.0507329,410.1751607,410.4401851,412.008647,412.9671114
0,132,19:27:33:480000,6,1,437,307.265625,[ 0.23613483  0.42977024 -1.        ],1,1,1,0.33080271,0,0,0,0.262217772,0.376326453,0.109753165,0.486079618,0.266573288,nan,nan,nan,[ nan  nan  nan],nan,nan,nan,266.0507329,414.1173243,414.448127,nan,nan
0,133,19:27:34:431000,6,1,62,43.59375,[ 1.         -0.09743725 -1.        ],1,1,1,0.284987205,0,0,0,0.293604762,0.375978943,0.109405229,0.485384172,0.266573715,nan,nan,nan,[ nan  nan  nan],nan,nan,nan,266.0507329,415.0591113,415.3440985,nan,nan
0,134,19:27:35:367000,6,1,256,180,[ 0.48131261  0.25704791  0.65606572],1,1,1,0.191192017,0,0,0,0.268993977,0.375289612,0.109275222,0.484564834,0.266014389,nan,nan,nan,[ nan  nan  nan],nan,nan,nan,266.0507329,416.0008827,416.1920747,nan,nan
0,135,19:27:36:319000,6,1,178,125.15625,[ 1.         -0.13991966  0.31509783],1,1,1,0.097390842,0,1,0,0.191190021,0.373905419,0.110019099,0.483924519,0.26388632,nan,nan,nan,[ nan  nan  nan],nan,nan,nan,266.0507329,416.9426828,417.0400736,nan,nan
0,136,19:27:37:255000,6,1,46,32.34375,[ 1.         -0.01173137 -1.        ],1,nan,nan,nan,0,0,0,0.144291429,0.371841878,0.112161551,0.484003429,0.259680327,nan,nan,nan,[ nan  nan  nan],nan,nan,nan,266.0507329,417.8844384,nan,nan,nan
0,137,19:27:38:191000,6,1,329,231.328125,[-0.13605328  0.44820379  0.32783374],1,1,1,0.02980042,0,0,0,0.063595631,0.371841878,0.112161551,0.484003429,0.259680327,nan,nan,nan,[ nan  nan  nan],nan,nan,nan,266.0507329,418.8262588,418.8560592,nan,nan
0,138,19:27:39:142000,6,1,167,117.421875,[ 1.         -0.19560581  0.22154672],1,1,1,0.26397578,0,0,0,0.1468881,0.369308237,0.115530158,0.484838396,0.253778079,nan,nan,nan,[ nan  nan  nan],nan,nan,nan,266.0507329,419.768043,420.0320188,nan,nan
0,139,19:27:40:078000,6,1,459,322.734375,[ 0.40775816  0.38570917 -1.        ],1,1,1,0.290183113,0,1,0,0.194653104,0.368533734,0.115455865,0.483989599,0.253077869,nan,nan,nan,[ nan  nan  nan],nan,nan,nan,266.0507329,420.709832,421.0000151,nan,nan
0,140,19:27:45:570000,6,1,97,68.203125,[ 1.         -0.26036974 -0.49171883],1,1,1,0.43637871,1,0,0,0.330179201,0.367961832,0.115226901,0.483188733,0.25273493,nan,54.73272503,50,[ 1.         -0.03314873 -1.        ],nan,-32.93585003,2.500607828,266.0507329,421.6516073,422.087986,423.4768101,425.9854546
0,141,19:27:46:506000,6,1,154,108.28125,[ 1.         -0.25181315  0.10213817],1,1,1,0.471900759,0,0,0,0.399487527,0.368457606,0.114955211,0.483412817,0.253502395,nan,nan,nan,[ nan  nan  nan],nan,nan,nan,266.0507329,427.1439764,427.6158772,nan,nan
0,142,19:27:47:457000,6,1,333,234.140625,[-0.14981348  0.45327595  0.29418374],1,1,1,0.306104401,0,0,0,0.404794623,0.369201801,0.1148741,0.484075901,0.254327702,nan,nan,nan,[ nan  nan  nan],nan,nan,nan,266.0507329,428.0857657,428.3918701,nan,nan
0,143,19:27:48:393000,6,1,42,29.53125,[ 1.          0.00954879 -1.        ],1,1,1,0.292305381,0,0,0,0.35677018,0.368751106,0.114586368,0.483337474,0.254164737,nan,nan,nan,[ nan  nan  nan],nan,nan,nan,266.0507329,429.027555,429.3198604,nan,nan
0,144,19:27:49:345000,6,1,141,99.140625,[ 1.         -0.29195274 -0.02458685],1,1,1,0.270493687,0,0,0,0.289634489,0.368208938,0.114359379,0.482568316,0.253849559,nan,nan,nan,[ nan  nan  nan],nan,nan,nan,266.0507329,429.9693406,430.2398343,nan,nan
0,145,19:27:50:296000,6,1,351,246.796875,[-0.17568629  0.47018527  0.12848998],1,1,1,0.232037982,0,0,0,0.264945683,0.367520802,0.114248572,0.481769374,0.25327223,nan,nan,nan,[ nan  nan  nan],nan,nan,nan,266.0507329,430.9277944,431.1598324,nan,nan
0,146,19:27:51:232000,6,1,142,99.84375,[ 1.         -0.28956812 -0.01462735],1,1,1,0.218223282,0,1,0,0.24025165,0.36657337,0.114406825,0.480980194,0.252166545,nan,nan,nan,[ nan  nan  nan],nan,nan,nan,266.0507329,431.8695814,432.0878047,nan,nan
0,147,19:27:55:710000,6,1,27,18.984375,[ 1.          0.08709126 -1.        ],1,1,1,0.212412703,1,0,0,0.220891322,0.365543161,0.114672562,0.480215723,0.250870599,nan,80.66500154,13,[ 0.95026217  0.15466406 -1.        ],nan,-9.649376537,1.475505535,266.0507329,432.8113918,433.0238045,434.6448662,436.1284129
0,148,19:27:56:646000,6,1,209,146.953125,[ 0.96730184  0.03048352  0.52805   ],1,1,1,0.297122394,0,0,0,0.242586126,0.364487089,0.114976997,0.479464085,0.249510092,nan,nan,nan,[ nan  nan  nan],nan,nan,nan,266.0507329,437.2786013,437.5757237,nan,nan
0,149,19:27:57:597000,6,1,355,249.609375,[-0.17373746  0.47268386  0.08887998],1,1,1,0.283296575,0,0,0,0.264277224,0.364025687,0.114717188,0.478742874,0.249308499,nan,nan,nan,[ nan  nan  nan],nan,nan,nan,266.0507329,438.2203886,438.5036852,nan,nan
0,150,19:27:58:533000,6,0,75,52.734375,[ 1.         -0.16471446 -0.79135592],0,1,0,0.229477233,0,0,0,0.269965401,0.363476509,0.114518741,0.47799525,0.248957768,nan,nan,nan,[ nan  nan  nan],nan,nan,nan,266.0507329,439.1621762,439.3916534,nan,nan
0,151,19:27:59:469000,6,1,148,104.0625,[ 1.         -0.27269559  0.04442646],1,1,1,0.367716321,0,0,0,0.29349671,0.362571108,0.114657898,0.477229007,0.24791321,nan,nan,nan,[ nan  nan  nan],nan,nan,nan,266.0507329,440.1039401,440.4716564,nan,nan
0,152,19:28:00:421000,6,1,216,151.875,[ 0.90097501  0.06822711  0.56342658],1,1,1,0.37788519,0,0,0,0.325026248,0.36260564,0.114273265,0.476878905,0.248332375,nan,nan,nan,[ nan  nan  nan],nan,nan,nan,266.0507329,441.0457542,441.4236394,nan,nan
0,153,19:28:01:357000,6,0,320,225,[-0.09465004  0.43494402  0.39870124],0,0,1,0.516083794,0,0,0,0.420561768,0.362707504,0.113898504,0.476606008,0.248809,nan,nan,nan,[ nan  nan  nan],nan,nan,nan,266.0507329,441.9875369,442.5036207,nan,nan
0,154,19:28:02:308000,6,1,54,37.96875,[ 1.         -0.05462921 -1.        ],1,1,1,0.334005499,0,0,0,0.409324828,0.363723241,0.114200326,0.477923566,0.249522915,nan,nan,nan,[ nan  nan  nan],nan,nan,nan,266.0507329,442.9376537,443.2716592,nan,nan
0,155,19:28:03:244000,6,1,193,135.703125,[ 1.         -0.05804539  0.42865879],1,1,1,0.336145158,0,0,0,0.395411484,0.363527729,0.113849399,0.477377128,0.249678331,nan,nan,nan,[ nan  nan  nan],nan,nan,nan,266.0507329,443.8794438,444.215589,nan,nan
0,156,19:28:04:196000,6,1,419,294.609375,[ 0.10789467  0.45484197 -0.67809886],1,1,1,0.35435065,0,0,0,0.341500436,0.363348758,0.113498182,0.47684694,0.249850576,nan,nan,nan,[ nan  nan  nan],nan,nan,nan,266.0507329,444.8212317,445.1755823,nan,nan
0,157,19:28:05:132000,6,0,159,111.796875,[ 1.         -0.23176597  0.14905501],0,1,0,0.252534805,0,0,0,0.314343538,0.363290329,0.11313139,0.476421719,0.250158939,nan,nan,nan,[ nan  nan  nan],nan,nan,nan,266.0507329,445.763005,446.0155398,nan,nan
0,158,19:28:06:068000,6,1,39,27.421875,[ 1.          0.02537899 -1.        ],1,1,1,0.41473893,0,0,0,0.340541462,0.362575777,0.113113965,0.475689742,0.249461812,nan,nan,nan,[ nan  nan  nan],nan,nan,nan,266.0507329,446.7047923,447.1195313,nan,nan
0,159,19:28:07:020000,6,1,455,319.921875,[ 0.37560825  0.39487537 -1.        ],1,1,1,0.576921673,0,0,0,0.414731803,0.362910156,0.112827664,0.47573782,0.250082492,nan,nan,nan,[ nan  nan  nan],nan,nan,nan,266.0507329,447.6465802,448.2235019,nan,nan
0,160,19:28:07:956000,6,1,266,187.03125,[ 0.37357759  0.29520749  0.64811377],1,1,1,0.611137404,0,0,1,0.534266002,0.364273287,0.113749136,0.478022423,0.250524151,nan,nan,nan,[ nan  nan  nan],nan,nan,nan,266.0507329,448.5883712,449.1995086,nan,nan
0,161,19:28:13:650000,6,1,352,247.5,[-0.17544713  0.4708516   0.11867359],1,1,1,0.565322183,1,0,0,0.58446042,0.365835718,0.115066248,0.480901966,0.25076947,nan,-105.1858373,278,[ 0.24828552  0.33580281  0.62196257],nan,-52.31416274,2.69230903,266.0507329,449.5301696,450.0954918,451.3636588,454.0640059
0,162,19:28:14:586000,6,1,88,61.875,[ 1.         -0.22525759 -0.59993285],1,1,1,0.440817113,0,0,0,0.539092233,0.36709035,0.115782889,0.482873239,0.251307461,nan,nan,nan,[ nan  nan  nan],nan,nan,nan,266.0507329,455.2225505,455.6633676,nan,nan
0,163,19:28:15:537000,6,1,425,298.828125,[ 0.14916262  0.4475296  -0.79171567],1,1,1,0.307009586,0,0,0,0.437716294,0.367551142,0.115566657,0.4831178,0.251984485,nan,nan,nan,[ nan  nan  nan],nan,nan,nan,266.0507329,456.1643412,456.4713508,nan,nan
0,164,19:28:16:473000,6,1,374,262.96875,[-0.13203913  0.47863408 -0.11062844],1,1,1,0.293205435,0,0,0,0.347010711,0.367175108,0.115305344,0.482480451,0.251869764,nan,nan,nan,[ nan  nan  nan],nan,nan,nan,266.0507329,457.1061242,457.3993297,nan,nan
0,165,19:28:17:425000,6,1,486,341.71875,[ 0.63115176  0.30960306 -1.        ],1,1,1,0.247424426,0,0,0,0.282546482,0.366718505,0.115094825,0.481813329,0.25162368,nan,nan,nan,[ nan  nan  nan],nan,nan,nan,266.0507329,458.0479027,458.2953271,nan,nan
0,166,19:28:18:361000,6,1,348,244.6875,[-0.17538477  0.46801784  0.15758216],1,1,1,0.265657287,0,0,0,0.268762383,0.365986639,0.115118728,0.481105367,0.250867912,nan,nan,nan,[ nan  nan  nan],nan,nan,nan,266.0507329,458.9896815,459.2553387,nan,nan
0,167,19:28:19:297000,6,0,216,151.875,[ 0.90097501  0.06822711  0.56342658],0,0,1,0.491826816,0,0,0,0.33496951,0.365374875,0.115032683,0.480407558,0.250342192,nan,nan,nan,[ nan  nan  nan],nan,nan,nan,266.0507329,459.9314839,460.4233107,nan,nan
0,168,19:28:20:248000,6,1,264,185.625,[ 0.39496696  0.28788971  0.65071762],1,1,1,0.325997956,0,0,0,0.361160686,0.36614125,0.115102752,0.481244002,0.251038498,nan,nan,nan,[ nan  nan  nan],nan,nan,nan,266.0507329,460.8732669,461.1992648,nan,nan
0,169,19:28:21:184000,6,1,181,127.265625,[ 1.         -0.12391439  0.33920113],1,1,1,0.328226281,0,0,0,0.382017018,0.365899423,0.114797568,0.480696991,0.251101855,nan,nan,nan,[ nan  nan  nan],nan,nan,nan,266.0507329,461.8150459,462.1432722,nan,nan
0,170,19:28:22:120000,6,1,93,65.390625,[ 1.         -0.2456143  -0.53861988],1,1,1,0.314416713,0,0,0,0.322880317,0.365673836,0.114490245,0.480164081,0.25118359,nan,nan,nan,[ nan  nan  nan],nan,nan,nan,266.0507329,462.7568429,463.0712596,nan,nan
0,171,19:28:23:072000,6,1,314,220.78125,[-0.05944389  0.42463231  0.44192541],1,1,1,0.356611761,0,0,0,0.333084918,0.365368734,0.114217065,0.479585799,0.251151669,nan,nan,nan,[ nan  nan  nan],nan,nan,nan,266.0507329,463.6986322,464.055244,nan,nan
0,172,19:28:24:008000,6,0,478,336.09375,[ 0.5642225   0.33479366 -1.        ],0,0,1,0.446801602,0,0,0,0.372610025,0.365316917,0.113880624,0.479197541,0.251436293,nan,nan,nan,[ nan  nan  nan],nan,nan,nan,266.0507329,464.6404172,465.0872188,nan,nan
0,173,19:28:24:944000,6,1,253,177.890625,[ 0.5138659   0.24483993  0.65597719],1,1,1,0.304992519,0,0,0,0.369468627,0.365796239,0.113716037,0.479512276,0.252080202,nan,nan,nan,[ nan  nan  nan],nan,nan,nan,266.0507329,465.5822054,465.8871979,nan,nan
0,174,19:28:25:896000,6,1,475,333.984375,[ 0.53921875  0.34365981 -1.        ],1,1,1,0.299177949,0,0,0,0.350324023,0.365440662,0.113477792,0.478918453,0.25196287,nan,nan,nan,[ nan  nan  nan],nan,nan,nan,266.0507329,466.5239916,466.8231695,nan,nan
0,175,19:28:26:832000,6,1,167,117.421875,[ 1.         -0.19560581  0.22154672],1,1,1,0.373382925,0,0,0,0.325851131,0.365055413,0.113259529,0.478314942,0.251795884,nan,nan,nan,[ nan  nan  nan],nan,nan,nan,266.0507329,467.4657826,467.8391655,nan,nan
0,176,19:28:27:783000,6,1,119,83.671875,[ 1.         -0.30944633 -0.2507109 ],1,1,1,0.35958134,0,0,0,0.344047405,0.365103549,0.112933479,0.478037029,0.25217007,nan,nan,nan,[ nan  nan  nan],nan,nan,nan,266.0507329,468.4075636,468.7671449,nan,nan
0,177,19:28:28:719000,6,1,332,233.4375,[-0.14664709  0.45205424  0.30271419],1,1,1,0.489776677,0,0,0,0.407580314,0.365071812,0.112609264,0.477681076,0.252462549,nan,nan,nan,[ nan  nan  nan],nan,nan,nan,266.0507329,469.3493543,469.839131,nan,nan
0,178,19:28:29:655000,6,1,80,56.25,[ 1.         -0.18907571 -0.70896555],1,1,1,0.475979938,0,0,0,0.441779318,0.365784412,0.112679817,0.478464228,0.253104595,nan,nan,nan,[ nan  nan  nan],nan,nan,nan,266.0507329,470.2911393,470.7671193,nan,nan
0,179,19:28:30:607000,6,1,469,329.765625,[ 0.4894822   0.36045336 -1.        ],1,1,1,0.518177837,0,0,1,0.494644818,0.366410523,0.112664117,0.479074639,0.253746406,nan,nan,nan,[ nan  nan  nan],nan,nan,nan,266.0507329,471.2329232,471.751101,nan,nan
0,180,19:28:34:897000,6,1,332,233.4375,[-0.14664709  0.45205424  0.30271419],1,1,1,0.480347922,1,0,0,0.491501899,0.367267965,0.112919824,0.480187789,0.254348141,nan,-138.4085744,325,[-0.1194049   0.44263104  0.36018642],nan,-5.028925578,1.308797149,266.0507329,472.1747122,472.6550601,473.9998743,475.3167032
0,181,19:28:35:833000,6,0,21,14.765625,[ 1.        0.116714 -1.      ],0,0,1,0.468099264,0,0,0,0.488875008,0.367903246,0.112918937,0.480822183,0.254984308,nan,nan,nan,[ nan  nan  nan],nan,nan,nan,266.0507329,476.466923,476.9350222,nan,nan
0,182,19:28:36:784000,6,1,468,329.0625,[ 0.48123648  0.36313162 -1.        ],1,1,1,0.286286681,0,0,0,0.411577956,0.368463,0.112850456,0.481313456,0.255612544,nan,nan,nan,[ nan  nan  nan],nan,nan,nan,266.0507329,477.4087103,477.6949969,nan,nan
0,183,19:28:37:720000,6,1,373,262.265625,[-0.13540771  0.47855957 -0.09969749],1,1,1,0.120480629,0,0,0,0.291622191,0.368006465,0.112702183,0.480708648,0.255304282,nan,nan,nan,[ nan  nan  nan],nan,nan,nan,266.0507329,478.3504964,478.470977,nan,nan
0,184,19:28:38:656000,6,1,63,44.296875,[ 1.         -0.10274464 -1.        ],1,1,1,0.22668299,0,1,0,0.2111501,0.366638919,0.113878177,0.480517096,0.252760742,nan,nan,nan,[ nan  nan  nan],nan,nan,nan,266.0507329,479.2922917,479.5189747,nan,nan
0,185,19:28:42:634000,6,0,370,260.15625,[-0.144806    0.47817873 -0.06718033],0,0,1,0.500880097,1,0,0,0.282681239,0.36586993,0.114035163,0.479905093,0.251834767,nan,-164.017876,361,[-0.16604781  0.47560771  0.02781731],nan,-6.13837396,0.975333336,266.0507329,480.2340679,480.734948,482.0675648,483.0510171
0,186,19:28:43:570000,6,1,259,182.109375,[ 0.44882283  0.26890698  0.65501178],1,1,1,0.469638793,0,0,0,0.399067293,0.366607691,0.114157869,0.48076556,0.252449822,nan,nan,nan,[ nan  nan  nan],nan,nan,nan,266.0507329,484.2012295,484.6708682,nan,nan
0,187,19:28:44:506000,6,0,445,312.890625,[ 0.2969539  0.4155201 -1.       ],0,0,1,0.487827178,0,0,0,0.486115356,0.367167642,0.114098956,0.481266598,0.253068686,nan,nan,nan,[ nan  nan  nan],nan,nan,nan,266.0507329,485.1430156,485.6308428,nan,nan
0,188,19:28:45:458000,6,1,145,101.953125,[ 1.         -0.28166741  0.01505517],1,1,1,0.386027584,0,0,0,0.447831185,0.367819856,0.114133569,0.481953425,0.253686287,nan,nan,nan,[ nan  nan  nan],nan,nan,nan,266.0507329,486.0848118,486.4708393,nan,nan
0,189,19:28:46:394000,6,1,4,2.8125,[ 0.87912605  0.19501404 -1.        ],1,1,1,0.348231595,0,0,0,0.407362119,0.367917747,0.113834132,0.481751879,0.254083616,nan,nan,nan,[ nan  nan  nan],nan,nan,nan,266.0507329,487.0265993,487.3748309,nan,nan
0,190,19:28:47:346000,6,1,268,188.4375,[ 0.35230222  0.30236752  0.64500531],1,1,1,0.358435531,0,0,0,0.36423157,0.367812473,0.113538432,0.481350906,0.254274041,nan,nan,nan,[ nan  nan  nan],nan,nan,nan,266.0507329,487.9683858,488.3268213,nan,nan
0,191,19:28:48:282000,6,1,448,315,[ 0.32026744  0.40966225 -1.        ],1,1,1,0.320294289,0,0,0,0.342320472,0.367762596,0.11323812,0.481000716,0.254524476,nan,nan,nan,[ nan  nan  nan],nan,nan,nan,266.0507329,488.9185085,489.2388028,nan,nan
0,192,19:28:49:233000,6,1,385,270.703125,[-0.08797966  0.47773344 -0.23392672],1,1,1,0.346487937,0,0,0,0.341739253,0.367511441,0.11299064,0.480502081,0.254520801,nan,nan,nan,[ nan  nan  nan],nan,nan,nan,266.0507329,489.8602949,490.2067829,nan,nan
0,193,19:28:50:169000,6,1,51,35.859375,[ 1.         -0.03851602 -1.        ],1,1,1,0.356677618,0,0,0,0.341153282,0.367400791,0.11270317,0.480103961,0.254697621,nan,nan,nan,[ nan  nan  nan],nan,nan,nan,266.0507329,490.8020794,491.158757,nan,nan
0,194,19:28:51:121000,6,1,400,281.25,[-0.01078748  0.4714273  -0.41269269],1,1,1,0.318867375,0,0,0,0.340677643,0.367344649,0.112410413,0.479755061,0.254934236,nan,nan,nan,[ nan  nan  nan],nan,nan,nan,266.0507329,491.7438584,492.0627258,nan,nan
0,195,19:28:52:057000,6,1,254,178.59375,[ 0.50301113  0.24894782  0.65613358],1,1,1,0.425064603,0,0,0,0.366869865,0.367092163,0.112171582,0.479263745,0.254920581,nan,nan,nan,[ nan  nan  nan],nan,nan,nan,266.0507329,492.6856389,493.1107035,nan,nan
0,196,19:28:52:993000,6,1,443,311.484375,[ 0.28155878  0.41926821 -1.        ],1,1,1,0.355260112,0,0,0,0.366397363,0.367392538,0.111957997,0.479350535,0.255434542,nan,nan,nan,[ nan  nan  nan],nan,nan,nan,266.0507329,493.6274413,493.9827014,nan,nan
0,197,19:28:53:944000,6,1,145,101.953125,[ 1.         -0.28166741  0.01505517],1,1,1,0.437467214,0,0,0,0.405930643,0.36733,0.111672452,0.479002452,0.255657548,nan,nan,nan,[ nan  nan  nan],nan,nan,nan,266.0507329,494.5692277,495.006695,nan,nan
0,198,19:28:54:880000,6,1,28,19.6875,[ 1.          0.08206613 -1.        ],1,1,1,0.311646132,0,0,0,0.368124486,0.367689678,0.111498348,0.479188026,0.25619133,nan,nan,nan,[ nan  nan  nan],nan,nan,nan,266.0507329,495.5110133,495.8226595,nan,nan
0,199,19:28:55:816000,6,1,496,348.75,[ 0.71483372  0.27492388 -1.        ],1,1,1,0.633854853,0,0,0,0.4609894,0.367403742,0.111285204,0.478688946,0.256118537,nan,nan,nan,[ nan  nan  nan],nan,nan,nan,266.0507329,496.4528029,497.0866578,nan,nan
0,200,19:28:56:768000,6,1,414,291.09375,[ 0.07478379  0.46016219 -0.60008918],1,1,1,0.564056634,0,0,1,0.503185873,0.368756285,0.112605902,0.481362187,0.256150383,nan,nan,nan,[ nan  nan  nan],nan,nan,nan,266.0507329,497.3945888,497.9586454,nan,nan
0,201,19:29:00:730000,6,1,158,111.09375,[ 1.         -0.23594923  0.13976411],1,1,1,0.358249362,1,0,0,0.518720283,0.369742651,0.113171166,0.482913817,0.256571484,nan,-31.35708522,173,[ 1.         -0.16590952  0.27353519],nan,10.26333522,0.975418866,266.0507329,498.3363738,498.6946232,500.1615313,501.1449931
0,202,19:29:01:666000,6,1,32,22.5,[ 1.         0.0617358 -1.       ],1,1,1,0.318984835,0,0,0,0.413763611,0.369684895,0.112889384,0.482574279,0.256795512,nan,nan,nan,[ nan  nan  nan],nan,nan,nan,266.0507329,502.3035337,502.6225185,nan,nan
0,203,19:29:02:618000,6,0,325,228.515625,[-0.1194049   0.44263104  0.36018642],0,1,0,0.281191698,0,0,0,0.319475298,0.369431395,0.112663575,0.48209497,0.25676782,nan,nan,nan,[ nan  nan  nan],nan,nan,nan,266.0507329,503.2453272,503.5265189,nan,nan
0,204,19:29:03:554000,6,1,154,108.28125,[ 1.         -0.25181315  0.10213817],1,1,1,0.451424178,0,0,0,0.35053357,0.368992392,0.112554326,0.481546718,0.256438066,nan,nan,nan,[ nan  nan  nan],nan,nan,nan,266.0507329,504.1871165,504.6385407,nan,nan
0,205,19:29:04:506000,6,1,474,333.28125,[ 0.53090176  0.34654538 -1.        ],1,1,1,0.365617146,0,0,0,0.366077674,0.36940047,0.112424344,0.481824814,0.256976126,nan,nan,nan,[ nan  nan  nan],nan,nan,nan,266.0507329,505.1289027,505.4945199,nan,nan
0,206,19:29:05:442000,6,1,31,21.796875,[ 1.          0.06685157 -1.        ],1,1,1,0.359817686,0,0,0,0.392286336,0.369381833,0.112147408,0.481529241,0.257234425,nan,nan,nan,[ nan  nan  nan],nan,nan,nan,266.0507329,506.0706797,506.4304974,nan,nan
0,207,19:29:06:378000,6,1,166,116.71875,[ 1.         -0.20036215  0.21267421],1,1,1,0.37000081,0,0,0,0.365145214,0.36933495,0.111874193,0.481209143,0.257460757,nan,nan,nan,[ nan  nan  nan],nan,nan,nan,266.0507329,507.0124762,507.382477,nan,nan
0,208,19:29:07:329000,6,1,480,337.5,[ 0.58092807  0.32870764 -1.        ],1,1,1,0.276190797,0,0,0,0.335336431,0.369338198,0.111601005,0.480939203,0.257737192,nan,nan,nan,[ nan  nan  nan],nan,nan,nan,266.0507329,507.9542638,508.2304545,nan,nan
0,209,19:29:08:265000,6,1,230,161.71875,[ 0.76002313  0.14022421  0.6178111 ],1,1,1,0.270389056,0,0,0,0.305526887,0.368886026,0.111517884,0.48040391,0.257368142,nan,nan,nan,[ nan  nan  nan],nan,nan,nan,266.0507329,508.8960473,509.1664364,nan,nan
0,210,19:29:09:201000,6,1,422,296.71875,[ 0.12832838  0.45131367 -0.73089489],1,1,1,0.416606036,0,0,0,0.321061963,0.368410195,0.111457622,0.479867817,0.256952573,nan,nan,nan,[ nan  nan  nan],nan,nan,nan,266.0507329,509.8378415,510.2544475,nan,nan
0,211,19:29:10:153000,6,1,465,326.953125,[ 0.45658868  0.37096153 -1.        ],1,1,1,0.258800114,0,0,0,0.315265069,0.368641906,0.111239338,0.479881244,0.257402568,nan,nan,nan,[ nan  nan  nan],nan,nan,nan,266.0507329,510.779618,511.0384181,nan,nan
0,212,19:29:11:089000,6,1,361,253.828125,[-0.16604781  0.47560771  0.02781731],1,1,1,0.628973123,0,0,0,0.434793091,0.368116347,0.111231451,0.479347798,0.256884896,nan,nan,nan,[ nan  nan  nan],nan,nan,nan,266.0507329,511.7214078,512.3503809,nan,nan
0,213,19:29:12:040000,6,1,154,108.28125,[ 1.         -0.25181315  0.10213817],1,1,1,0.503173709,0,0,0,0.463648982,0.369358522,0.112409991,0.481768514,0.256948531,nan,nan,nan,[ nan  nan  nan],nan,nan,nan,266.0507329,512.6631977,513.1663714,nan,nan
0,214,19:29:12:976000,6,1,277,194.765625,[ 0.25847065  0.33263616  0.62482424],1,1,1,0.297370999,0,0,0,0.476505944,0.369992717,0.112519254,0.482511972,0.257473463,nan,nan,nan,[ nan  nan  nan],nan,nan,nan,266.0507329,513.604983,513.902354,nan,nan
0,215,19:29:13:912000,6,0,356,250.3125,[-0.17284378  0.47323941  0.07883681],0,1,0,0.267561741,0,0,0,0.356035483,0.369650162,0.112363795,0.482013958,0.257286367,nan,nan,nan,[ nan  nan  nan],nan,nan,nan,266.0507329,514.5467697,514.8143315,nan,nan
0,216,19:29:14:864000,6,1,234,164.53125,[ 0.71814775  0.15974031  0.6291316 ],1,1,1,0.325760755,0,0,0,0.296897832,0.369170874,0.112316728,0.481487602,0.256854146,nan,nan,nan,[ nan  nan  nan],nan,nan,nan,266.0507329,515.4885559,515.8143166,nan,nan
0,217,19:29:15:800000,6,1,508,357.1875,[ 0.81419982  0.22863893 -1.        ],1,1,1,0.367949816,0,0,0,0.320424104,0.368968023,0.112093101,0.481061123,0.256874922,nan,nan,nan,[ nan  nan  nan],nan,nan,nan,266.0507329,516.4303289,516.7982788,nan,nan
0,218,19:29:16:736000,6,1,232,163.125,[ 0.73915824  0.15004662  0.62371202],1,1,1,0.410142298,0,0,0,0.367950956,0.368963287,0.111832137,0.480795423,0.25713115,nan,nan,nan,[ nan  nan  nan],nan,nan,nan,266.0507329,517.3721182,517.7822605,nan,nan
0,219,19:29:17:688000,6,1,11,7.734375,[ 0.9346595  0.1638529 -1.       ],1,1,1,0.468353001,0,0,0,0.415481705,0.369153931,0.111607978,0.480761909,0.257545952,nan,nan,nan,[ nan  nan  nan],nan,nan,nan,266.0507329,518.3139001,518.7822531,nan,nan
0,220,19:29:18:624000,6,1,353,248.203125,[-0.17504126  0.47149007  0.10879922],1,1,1,0.438547735,0,0,0,0.439014345,0.369611069,0.111553024,0.481164093,0.258058046,nan,nan,nan,[ nan  nan  nan],nan,nan,nan,266.0507329,519.255698,519.6942457,nan,nan
0,221,19:29:19:575000,6,1,507,356.484375,[ 0.80599565  0.23268835 -1.        ],1,1,1,0.392774139,0,0,0,0.433224958,0.369927292,0.111394315,0.481321608,0.258532977,nan,nan,nan,[ nan  nan  nan],nan,nan,nan,266.0507329,520.1974913,520.5902654,nan,nan
0,222,19:29:20:511000,6,1,27,18.984375,[ 1.          0.08709126 -1.        ],1,nan,nan,nan,0,0,0,0.415660937,0.370031616,0.111150373,0.481181989,0.258881243,nan,nan,nan,[ nan  nan  nan],nan,nan,nan,266.0507329,521.1392637,nan,nan,nan
0,223,19:29:21:463000,6,1,323,227.109375,[-0.11001989  0.43965345  0.37585536],1,1,1,0.797074212,0,0,0,0.594924175,0.370031616,0.111150373,0.481181989,0.258881243,nan,nan,nan,[ nan  nan  nan],nan,nan,nan,266.0507329,522.0810784,522.8781526,nan,nan
0,224,19:29:22:399000,6,1,428,300.9375,[ 0.17037832  0.44348657 -0.8686614 ],1,1,1,0.726964096,0,0,0,0.762019154,0.371972719,0.114557473,0.486530192,0.257415245,nan,nan,nan,[ nan  nan  nan],nan,nan,nan,266.0507329,523.0311769,523.758141,nan,nan
0,225,19:29:23:350000,6,1,12,8.4375,[ 0.94247669  0.15927395 -1.        ],1,1,1,0.64118985,0,0,1,0.721742719,0.373579014,0.116754759,0.490333773,0.256824256,nan,nan,nan,[ nan  nan  nan],nan,nan,nan,266.0507329,523.9729573,524.6141472,nan,nan
0,226,19:29:27:329000,6,1,206,144.84375,[ 0.99472346  0.01405192  0.51131616],1,1,1,0.667045942,1,0,0,0.678399963,0.374784469,0.117861823,0.492646291,0.256922646,nan,-42.66635358,189,[ 1.         -0.08021946  0.40014347],nan,-12.17739642,0.975416585,266.0507329,524.9230883,525.5901342,526.7565846,527.7400401
0,227,19:29:28:265000,6,1,101,71.015625,[ 1.         -0.27357267 -0.44615261],1,1,1,0.531481357,0,0,0,0.61323905,0.376095058,0.119207521,0.495302579,0.256887537,nan,nan,nan,[ nan  nan  nan],nan,nan,nan,266.0507329,528.8985844,529.4300658,nan,nan
0,228,19:29:29:216000,6,1,424,298.125,[ 0.14217456  0.44881957 -0.77022942],1,1,1,0.501684358,0,0,0,0.566737219,0.376788747,0.119391382,0.496180129,0.257397365,nan,nan,nan,[ nan  nan  nan],nan,nan,nan,266.0507329,529.8403543,530.3420387,nan,nan
0,229,19:29:30:152000,6,1,352,247.5,[-0.17544713  0.4708516   0.11867359],1,1,1,0.391913143,0,0,0,0.475026286,0.377343839,0.119415117,0.496758955,0.257928722,nan,nan,nan,[ nan  nan  nan],nan,nan,nan,266.0507329,530.7821454,531.1740585,nan,nan
0,230,19:29:31:088000,6,1,202,142.03125,[ 1.         -0.00802826  0.48759698],1,1,1,0.378077631,0,0,0,0.423891711,0.377408305,0.119154555,0.49656286,0.25825375,nan,nan,nan,[ nan  nan  nan],nan,nan,nan,266.0507329,531.7239512,532.1020288,nan,nan
0,231,19:29:32:040000,6,1,459,322.734375,[ 0.40775816  0.38570917 -1.        ],1,1,1,0.356284183,0,0,0,0.375424986,0.377411253,0.118891819,0.496303072,0.258519434,nan,nan,nan,[ nan  nan  nan],nan,nan,nan,266.0507329,532.6657268,533.022011,nan,nan
0,232,19:29:32:976000,6,1,391,274.921875,[-0.0591908   0.47591628 -0.30371871],1,1,1,0.294442759,0,0,0,0.342934858,0.377318591,0.118639019,0.49595761,0.258679571,nan,nan,nan,[ nan  nan  nan],nan,nan,nan,266.0507329,533.6075261,533.9019688,nan,nan
0,233,19:29:33:927000,6,1,84,59.0625,[ 1.         -0.20765784 -0.65219109],1,1,1,0.280663126,0,0,0,0.310463356,0.376956687,0.11850576,0.495462447,0.258450928,nan,nan,nan,[ nan  nan  nan],nan,nan,nan,266.0507329,534.5493148,534.8299779,nan,nan
0,234,19:29:34:863000,6,1,423,297.421875,[ 0.13522958  0.45008089 -0.75003992],1,1,1,0.242856019,0,0,0,0.272653968,0.37653802,0.118417463,0.494955483,0.258120556,nan,nan,nan,[ nan  nan  nan],nan,nan,nan,266.0507329,535.4910967,535.7339527,nan,nan
0,235,19:29:35:799000,6,1,278,195.46875,[ 0.24828552  0.33580281  0.62196257],1,1,1,0.229048446,0,1,0,0.250855864,0.37595931,0.118486368,0.494445678,0.257472941,nan,nan,nan,[ nan  nan  nan],nan,nan,nan,266.0507329,536.4328885,536.661937,nan,nan
0,236,19:29:41:369000,6,1,172,120.9375,[ 1.         -0.17098406  0.26502468],1,1,1,0.17525847,1,0,0,0.215720978,0.375326073,0.118621814,0.493947888,0.256704259,nan,161.647729,410,[ 0.04920468  0.46392153 -0.54316189],nan,167.414771,2.56738116,266.0507329,537.3746724,537.5499309,539.2081696,541.783497
0,237,19:29:42:305000,6,1,102,71.71875,[ 1.         -0.27661034 -0.43492695],1,nan,nan,nan,0,0,0,0.202153458,0.374467414,0.119087347,0.493554761,0.255380067,nan,nan,nan,[ nan  nan  nan],nan,nan,nan,266.0507329,542.9337091,nan,nan,nan
0,238,19:29:43:241000,6,1,437,307.265625,[ 0.23613483  0.42977024 -1.        ],1,1,1,0.386269917,0,0,0,0.280764193,0.374467414,0.119087347,0.493554761,0.255380067,nan,nan,nan,[ nan  nan  nan],nan,nan,nan,266.0507329,543.8755095,544.2617794,nan,nan
0,239,19:29:44:192000,6,1,273,191.953125,[ 0.29973296  0.31957719  0.63503803],1,1,1,0.468523205,0,0,0,0.427396561,0.374517852,0.118835109,0.493352961,0.255682743,nan,nan,nan,[ nan  nan  nan],nan,nan,nan,266.0507329,544.8172728,545.285796,nan,nan
0,240,19:29:45:128000,6,1,360,253.125,[-0.1677095   0.47518832  0.03812586],1,1,1,0.33472195,0,0,0,0.396505024,0.374917875,0.118739777,0.493657652,0.256178098,nan,nan,nan,[ nan  nan  nan],nan,nan,nan,266.0507329,545.7590615,546.0937835,nan,nan
0,241,19:29:46:064000,6,1,63,44.296875,[ 1.         -0.10274464 -1.        ],1,1,1,0.360913602,0,0,0,0.388052919,0.374747553,0.118516707,0.49326426,0.256230846,nan,nan,nan,[ nan  nan  nan],nan,nan,nan,266.0507329,546.7008571,547.0617707,nan,nan
0,242,19:29:47:016000,6,0,13,9.140625,[ 0.95026217  0.15466406 -1.        ],0,0,1,0.363088613,0,0,0,0.352908055,0.374689182,0.118269807,0.492958989,0.256419375,nan,nan,nan,[ nan  nan  nan],nan,nan,nan,266.0507329,547.6426453,548.0057339,nan,nan
0,243,19:29:47:952000,6,1,300,210.9375,[ 0.04335371  0.39574842  0.52895103],1,1,1,0.261298997,0,0,0,0.328433737,0.37464044,0.118023465,0.492663905,0.256616976,nan,nan,nan,[ nan  nan  nan],nan,nan,nan,266.0507329,548.5844297,548.8457287,nan,nan
0,244,19:29:48:903000,6,1,55,38.671875,[ 1.         -0.05999965 -1.        ],1,1,1,0.231487173,0,0,0,0.285291594,0.374166208,0.118003309,0.492169517,0.2561629,nan,nan,nan,[ nan  nan  nan],nan,nan,nan,266.0507329,549.5262059,549.7576931,nan,nan
0,245,19:29:49:839000,6,1,244,171.5625,[ 0.61137236  0.20616355  0.64888072],1,1,1,0.201707565,0,1,0,0.231497912,0.373571712,0.118115323,0.491687035,0.255456389,nan,nan,nan,[ nan  nan  nan],nan,nan,nan,266.0507329,550.4679941,550.6697016,nan,nan
0,246,19:29:50:775000,6,0,449,315.703125,[ 0.32809501  0.40764625 -1.        ],0,1,0,0.211887553,0,0,0,0.21502743,0.372858583,0.118386627,0.49124521,0.254471956,nan,nan,nan,[ nan  nan  nan],nan,nan,nan,266.0507329,551.4097893,551.6216769,nan,nan
0,247,19:29:51:727000,6,1,138,97.03125,[ 1.         -0.29832988 -0.05465081],1,1,1,0.27008058,0,0,0,0.227891899,0.372193413,0.118592197,0.49078561,0.253601216,nan,nan,nan,[ nan  nan  nan],nan,nan,nan,266.0507329,552.3515798,552.6216604,nan,nan
0,248,19:29:52:663000,6,1,399,280.546875,[-0.01644604  0.47203125 -0.40027452],1,1,1,0.344280995,0,0,0,0.275416376,0.371773196,0.118528331,0.490301527,0.253244865,nan,nan,nan,[ nan  nan  nan],nan,nan,nan,266.0507329,553.2933694,553.6376504,nan,nan
0,249,19:29:53:599000,6,1,337,236.953125,[-0.16064337  0.45785839  0.25930356],1,1,1,0.322484411,0,0,0,0.312281995,0.371660523,0.118298235,0.489958758,0.253362288,nan,nan,nan,[ nan  nan  nan],nan,nan,nan,266.0507329,554.2351541,554.5576385,nan,nan
0,250,19:29:54:551000,6,1,436,306.5625,[ 0.22868171  0.43141373 -1.        ],1,1,1,0.380694259,0,0,0,0.349153221,0.371459804,0.11809819,0.489557994,0.253361614,nan,nan,nan,[ nan  nan  nan],nan,nan,nan,266.0507329,555.17694,555.5576342,nan,nan
0,251,19:29:55:487000,6,1,247,173.671875,[ 0.57894763  0.21939267  0.65238059],1,1,1,0.42285595,0,0,0,0.375344873,0.371497343,0.117859373,0.489356716,0.25363797,nan,nan,nan,[ nan  nan  nan],nan,nan,nan,266.0507329,556.1187219,556.5415778,nan,nan
0,252,19:29:56:438000,6,1,360,253.125,[-0.1677095   0.47518832  0.03812586],1,1,1,0.377075512,0,0,0,0.393541907,0.371705272,0.117665753,0.489371025,0.25403952,nan,nan,nan,[ nan  nan  nan],nan,nan,nan,266.0507329,557.0605006,557.4375761,nan,nan
0,253,19:29:57:374000,6,1,115,80.859375,[ 1.         -0.30516629 -0.29317275],1,1,1,0.483261907,0,0,0,0.427731123,0.371726926,0.117428777,0.489155703,0.25429815,nan,nan,nan,[ nan  nan  nan],nan,nan,nan,266.0507329,558.0022942,558.4855561,nan,nan
0,254,19:29:58:310000,6,1,479,336.796875,[ 0.57257215  0.33176822 -1.        ],1,1,1,0.373462753,0,0,0,0.411266724,0.372174858,0.117404844,0.489579702,0.254770014,nan,nan,nan,[ nan  nan  nan],nan,nan,nan,266.0507329,558.9440838,559.3175465,nan,nan
0,255,19:29:59:262000,6,1,18,12.65625,[ 0.9886827   0.13116258 -1.        ],1,1,1,0.54365817,0,0,0,0.466794276,0.37218001,0.117169827,0.489349837,0.255010182,nan,nan,nan,[ nan  nan  nan],nan,nan,nan,266.0507329,559.8858739,560.4295321,nan,nan
0,256,19:30:00:198000,6,1,466,327.65625,[ 0.46478901  0.3683856  -1.        ],1,1,1,0.481863787,0,0,0,0.466328237,0.37286319,0.117434049,0.490297239,0.255429141,nan,nan,nan,[ nan  nan  nan],nan,nan,nan,266.0507329,560.8276547,561.3095184,nan,nan
0,257,19:30:01:149000,6,1,351,246.796875,[-0.17568629  0.47018527  0.12848998],1,1,1,0.379728917,0,0,0,0.468416958,0.373295732,0.117400983,0.490696715,0.255894748,nan,nan,nan,[ nan  nan  nan],nan,nan,nan,266.0507329,561.7777674,562.1574963,nan,nan
0,258,19:30:02:085000,6,1,409,287.578125,[ 0.04294362  0.46479315 -0.52946185],1,1,1,0.429901573,0,0,0,0.430498092,0.373321159,0.117169431,0.49049059,0.256151728,nan,nan,nan,[ nan  nan  nan],nan,nan,nan,266.0507329,562.7195709,563.1494725,nan,nan
0,259,19:30:03:037000,6,1,313,220.078125,[-0.05302215  0.42279583  0.44879796],1,1,1,0.384102033,0,0,0,0.397910841,0.373543917,0.116992221,0.490536138,0.256551696,nan,nan,nan,[ nan  nan  nan],nan,nan,nan,266.0507329,563.661352,564.045454,nan,nan
0,260,19:30:03:973000,6,1,23,16.171875,[ 1.          0.10694394 -1.        ],1,1,1,0.490290994,0,0,0,0.434764866,0.373585321,0.116764464,0.490349785,0.256820857,nan,nan,nan,[ nan  nan  nan],nan,nan,nan,266.0507329,564.6031284,565.0934194,nan,nan
0,261,19:30:04:909000,6,1,79,55.546875,[ 1.         -0.18429602 -0.72417078],1,1,1,0.596516447,0,0,0,0.490303158,0.374041203,0.116763344,0.490804547,0.257277858,nan,nan,nan,[ nan  nan  nan],nan,nan,nan,266.0507329,565.5449143,566.1414308,nan,nan
0,262,19:30:05:861000,6,1,214,150.46875,[ 0.92024366  0.05754104  0.55385485],1,1,1,0.518698141,0,0,1,0.535168527,0.374906865,0.11735616,0.492263025,0.257550705,nan,nan,nan,[ nan  nan  nan],nan,nan,nan,266.0507329,566.4867116,567.0054097,nan,nan
0,263,19:30:10:182000,6,1,18,12.65625,[ 0.9886827   0.13116258 -1.        ],1,1,1,0.600886141,1,0,0,0.572033576,0.375464196,0.117468784,0.49293298,0.257995411,nan,90.75384833,511,[ 0.83870319  0.21628417 -1.        ],nan,-13.41009833,1.333799088,266.0507329,567.4285,568.0293862,569.2536581,570.5954901
0,264,19:30:11:118000,6,1,318,223.59375,[-0.08356276  0.43164026  0.41348156],1,1,1,0.579581636,0,0,0,0.566388639,0.376334551,0.118072339,0.49440689,0.258262212,nan,nan,nan,[ nan  nan  nan],nan,nan,nan,266.0507329,571.7457147,572.3252963,nan,nan
0,265,19:30:12:054000,6,0,20,14.0625,[ 1.          0.12155819 -1.        ],0,0,1,0.413775585,0,0,0,0.531414454,0.37711627,0.118514678,0.495630948,0.258601592,nan,nan,nan,[ nan  nan  nan],nan,nan,nan,266.0507329,572.6874994,573.101275,nan,nan
0,266,19:30:13:005000,6,1,359,252.421875,[-0.16922234  0.47474188  0.0483828 ],1,1,1,0.280006261,0,0,0,0.424454494,0.377256727,0.1183091,0.495565827,0.258947627,nan,nan,nan,[ nan  nan  nan],nan,nan,nan,266.0507329,573.629287,573.9092933,nan,nan
0,267,19:30:13:941000,6,0,305,214.453125,[ 0.00361193  0.40685925  0.50019691],0,1,0,0.282219475,0,0,0,0.325333774,0.376885542,0.118235272,0.495120814,0.258650271,nan,nan,nan,[ nan  nan  nan],nan,nan,nan,266.0507329,574.5710435,574.853263,nan,nan
0,268,19:30:14:877000,6,1,453,318.515625,[ 0.35967042  0.39926175 -1.        ],1,1,1,0.492438065,0,0,0,0.3515546,0.376525595,0.118154011,0.494679606,0.258371584,nan,nan,nan,[ nan  nan  nan],nan,nan,nan,266.0507329,575.5128377,576.0052757,nan,nan
0,269,19:30:15:829000,6,1,37,26.015625,[ 1.          0.03585655 -1.        ],1,1,1,0.438577955,0,0,0,0.404411832,0.376964658,0.118144785,0.495109443,0.258819873,nan,nan,nan,[ nan  nan  nan],nan,nan,nan,266.0507329,576.4546441,576.893222,nan,nan
0,270,19:30:16:765000,6,1,368,258.75,[-0.15045717  0.47779326 -0.04573418],1,1,1,0.392787253,0,0,0,0.441267758,0.377197161,0.117982155,0.495179316,0.259215005,nan,nan,nan,[ nan  nan  nan],nan,nan,nan,266.0507329,577.3964237,577.7892109,nan,nan
0,271,19:30:17:717000,6,1,16,11.25,[ 0.97341943  0.14065211 -1.        ],1,1,1,0.338960784,0,0,0,0.390108664,0.37725577,0.117764041,0.495019811,0.259491729,nan,nan,nan,[ nan  nan  nan],nan,nan,nan,266.0507329,578.3382124,578.6771732,nan,nan
0,272,19:30:18:653000,6,1,62,43.59375,[ 1.         -0.09743725 -1.        ],1,1,1,0.34917755,0,0,0,0.360308529,0.377112343,0.117566576,0.494678919,0.259545767,nan,nan,nan,[ nan  nan  nan],nan,nan,nan,266.0507329,579.2799931,579.6291707,nan,nan
0,273,19:30:19:589000,6,1,330,232.03125,[-0.13976633  0.44951833  0.31954025],1,1,1,0.287354942,0,0,0,0.325164425,0.377008109,0.11735939,0.494367499,0.259648719,nan,nan,nan,[ nan  nan  nan],nan,nan,nan,266.0507329,580.221785,580.50914,nan,nan
0,274,19:30:20:540000,6,1,463,325.546875,[ 0.44023832  0.3760118  -1.        ],1,1,1,0.249568077,0,0,0,0.295366856,0.376674826,0.117268042,0.493942868,0.259406784,nan,nan,nan,[ nan  nan  nan],nan,nan,nan,266.0507329,581.1635737,581.4131418,nan,nan
0,275,19:30:21:476000,6,1,53,37.265625,[ 1.         -0.04925756 -1.        ],1,1,1,0.219799018,0,1,0,0.252240679,0.37620406,0.117305059,0.493509119,0.258899001,nan,nan,nan,[ nan  nan  nan],nan,nan,nan,266.0507329,582.1053528,582.3251518,nan,nan
0,276,19:30:25:454000,6,1,167,117.421875,[ 1.         -0.19560581  0.22154672],1,1,1,0.317981006,1,0,0,0.262449367,0.37562692,0.117471847,0.493098767,0.258155073,nan,-49.39870536,198,[ 1.         -0.0302355   0.46232694],nan,21.97683036,1.000426791,266.0507329,583.0471409,583.3651219,584.8639756,585.8724632
0,277,19:30:26:390000,6,1,320,225,[-0.09465004  0.43494402  0.39870124],1,1,1,0.790382111,0,0,0,0.442720711,0.375414986,0.1173076,0.492722586,0.258107386,nan,nan,nan,[ nan  nan  nan],nan,nan,nan,266.0507329,587.0226544,587.8130366,nan,nan
0,278,19:30:27:342000,6,1,267,187.734375,[ 0.36292453  0.29880723  0.64662252],1,1,1,0.440568793,0,0,0,0.516310636,0.376935012,0.11974605,0.496681063,0.257188962,nan,nan,nan,[ nan  nan  nan],nan,nan,nan,266.0507329,587.9644298,588.4049986,nan,nan
0,279,19:30:28:278000,6,1,445,312.890625,[ 0.2969539  0.4155201 -1.       ],1,1,1,0.346801259,0,0,1,0.525917388,0.377167252,0.119588914,0.496756167,0.257578338,nan,nan,nan,[ nan  nan  nan],nan,nan,nan,266.0507329,588.9062159,589.2530172,nan,nan
0,280,19:30:32:989000,6,1,28,19.6875,[ 1.          0.08206613 -1.        ],1,1,1,0.364973965,1,0,0,0.384114672,0.37705683,0.119385275,0.496442105,0.257671556,nan,56.59217541,48,[ 1.         -0.02242733 -1.        ],nan,13.72032459,1.725510667,266.0507329,589.8480172,590.2129912,591.6731815,593.4067533
0,281,19:30:33:925000,6,1,254,178.59375,[ 0.50301113  0.24894782  0.65613358],1,1,1,0.487970868,0,0,0,0.399915364,0.377013052,0.119171012,0.496184064,0.25784204,nan,nan,nan,[ nan  nan  nan],nan,nan,nan,266.0507329,594.5569494,595.0449203,nan,nan
0,282,19:30:34:877000,6,1,380,267.1875,[-0.10951951  0.47853303 -0.17717739],1,1,1,0.458147069,0,0,0,0.437030634,0.377413622,0.119141707,0.496555328,0.258271915,nan,nan,nan,[ nan  nan  nan],nan,nan,nan,266.0507329,595.4987299,595.956877,nan,nan
0,283,19:30:35:813000,6,0,435,305.859375,[ 0.22126383  0.43302706 -1.        ],0,0,1,0.476371948,0,0,0,0.474163295,0.37770403,0.119025406,0.496729436,0.258678624,nan,nan,nan,[ nan  nan  nan],nan,nan,nan,266.0507329,596.4405146,596.9168866,nan,nan
0,284,19:30:36:749000,6,1,487,342.421875,[ 0.63952974  0.30629503 -1.        ],1,1,1,0.27856224,0,0,0,0.404360419,0.378057678,0.118958136,0.497015814,0.259099542,nan,nan,nan,[ nan  nan  nan],nan,nan,nan,266.0507329,597.3823125,597.6608747,nan,nan
0,285,19:30:37:700000,6,0,70,49.21875,[ 1.         -0.13936985 -0.90643691],0,0,1,0.448759653,0,0,0,0.40123128,0.377702337,0.118893764,0.496596102,0.258808573,nan,nan,nan,[ nan  nan  nan],nan,nan,nan,266.0507329,598.3240921,598.7728517,nan,nan
0,286,19:30:38:636000,6,1,175,123.046875,[ 1.         -0.15562995  0.29036176],1,1,1,0.266932815,0,0,0,0.331418236,0.37795521,0.118757428,0.496712638,0.259197783,nan,nan,nan,[ nan  nan  nan],nan,nan,nan,266.0507329,599.2658731,599.5328059,nan,nan
0,287,19:30:39:572000,6,1,136,95.625,[ 1.         -0.3019149  -0.07484121],1,1,1,0.3491479,0,0,0,0.354946789,0.377561514,0.118730236,0.49629175,0.258831278,nan,nan,nan,[ nan  nan  nan],nan,nan,nan,266.0507329,600.2076587,600.5568066,nan,nan
0,288,19:30:40:524000,6,1,432,303.75,[ 0.1992279   0.43768733 -1.        ],1,1,1,0.359344993,0,0,0,0.325141903,0.377461112,0.118532271,0.495993384,0.258928841,nan,nan,nan,[ nan  nan  nan],nan,nan,nan,266.0507329,601.1494528,601.5087978,nan,nan
0,289,19:30:41:460000,6,1,72,50.625,[ 1.         -0.14960778 -0.85320374],1,1,1,0.313554577,0,0,0,0.34068249,0.377397323,0.11832827,0.495725593,0.259069053,nan,nan,nan,[ nan  nan  nan],nan,nan,nan,266.0507329,602.091233,602.4047876,nan,nan
0,290,19:30:42:411000,6,1,247,173.671875,[ 0.57894763  0.21939267  0.65238059],1,1,1,0.291741172,0,0,0,0.321546914,0.377173314,0.118180803,0.495354117,0.25899251,nan,nan,nan,[ nan  nan  nan],nan,nan,nan,266.0507329,603.0330243,603.3247655,nan,nan
0,291,19:30:43:347000,6,1,117,82.265625,[ 1.         -0.30758797 -0.27188654],1,1,1,0.405931403,0,0,0,0.337075717,0.3768746,0.118081744,0.494956344,0.258792856,nan,nan,nan,[ nan  nan  nan],nan,nan,nan,266.0507329,603.9748127,604.3807442,nan,nan
0,292,19:30:44:283000,6,1,210,147.65625,[ 0.9580225   0.0359305   0.53342186],1,1,1,0.344131603,0,0,0,0.34726806,0.376975843,0.117888281,0.494864124,0.259087562,nan,nan,nan,[ nan  nan  nan],nan,nan,nan,266.0507329,604.9166095,605.2607411,nan,nan
0,293,19:30:45:235000,6,1,469,329.765625,[ 0.4894822   0.36045336 -1.        ],1,1,1,0.458330672,0,0,0,0.402797893,0.376861801,0.117699294,0.494561094,0.259162507,nan,nan,nan,[ nan  nan  nan],nan,nan,nan,266.0507329,605.8583854,606.316716,nan,nan
0,294,19:30:46:171000,6,0,347,243.984375,[-0.17493884  0.46723881  0.16715748],0,0,1,0.500515457,0,0,0,0.434325911,0.3771437,0.117592838,0.494736538,0.259550862,nan,nan,nan,[ nan  nan  nan],nan,nan,nan,266.0507329,606.8001689,607.3006844,nan,nan
0,295,19:30:47:107000,6,1,447,314.296875,[ 0.31246764  0.41164647 -1.        ],1,1,1,0.254717799,0,0,0,0.404521309,0.37756912,0.117612484,0.495181604,0.259956636,nan,nan,nan,[ nan  nan  nan],nan,nan,nan,266.0507329,607.7419491,607.9966669,nan,nan
0,296,19:30:48:059000,6,1,250,175.78125,[ 0.54642845  0.23228666  0.65474773],1,1,1,0.320900407,0,0,0,0.358711221,0.37714695,0.117630129,0.494777079,0.259516821,nan,nan,nan,[ nan  nan  nan],nan,nan,nan,266.0507329,608.6837495,609.0046499,nan,nan
0,297,19:30:48:995000,6,0,456,320.625,[ 0.38361243  0.39263319 -1.        ],0,0,1,0.435130267,0,0,0,0.336916158,0.376954325,0.1174745,0.494428825,0.259479825,nan,nan,nan,[ nan  nan  nan],nan,nan,nan,266.0507329,609.625508,610.0606383,nan,nan
0,298,19:30:49:946000,6,1,174,122.34375,[ 1.         -0.16079069  0.28198128],1,1,1,0.221288939,0,0,0,0.325773204,0.377152878,0.11732293,0.494475808,0.259829948,nan,nan,nan,[ nan  nan  nan],nan,nan,nan,266.0507329,610.5673261,610.7886151,nan,nan
0,299,19:30:50:882000,6,1,102,71.71875,[ 1.         -0.27661034 -0.43492695],1,1,1,0.22355119,0,0,0,0.293323465,0.376622728,0.117474258,0.494096987,0.25914847,nan,nan,nan,[ nan  nan  nan],nan,nan,nan,266.0507329,611.5090692,611.7326204,nan,nan
0,300,19:30:51:818000,6,1,314,220.78125,[-0.05944389  0.42463231  0.44192541],1,1,1,0.257713322,0,1,0,0.234184483,0.376103842,0.117611983,0.493715825,0.258491859,nan,nan,nan,[ nan  nan  nan],nan,nan,nan,266.0507329,612.4508893,612.7086027,nan,nan
0,301,19:30:56:436000,6,1,186,130.78125,[ 1.         -0.09673867  0.37788139],1,1,1,0.275902848,1,0,0,0.25238912,0.375703874,0.117613942,0.493317816,0.258089932,nan,-22.42208948,160,[ 1.         -0.22750142  0.15829752],nan,-18.35916052,1.608803878,266.0507329,613.3926783,613.6685812,615.2261752,616.8430445
0,302,19:30:57:372000,6,1,37,26.015625,[ 1.          0.03585655 -1.        ],1,1,1,0.338892646,0,0,0,0.290836272,0.375367843,0.117558014,0.492925858,0.257809829,nan,nan,nan,[ nan  nan  nan],nan,nan,nan,266.0507329,618.0015951,618.3404878,nan,nan
0,303,19:30:58:323000,6,1,338,237.65625,[-0.16289136  0.45892871  0.25039916],1,1,1,0.309081962,0,0,0,0.307959152,0.375245443,0.117379559,0.492625002,0.257865885,nan,nan,nan,[ nan  nan  nan],nan,nan,nan,266.0507329,618.9433841,619.2524661,nan,nan
0,304,19:30:59:259000,6,1,74,52.03125,[ 1.         -0.15971516 -0.81044328],1,1,1,0.303301034,0,0,0,0.317091881,0.375024161,0.117245352,0.492269513,0.257778809,nan,nan,nan,[ nan  nan  nan],nan,nan,nan,266.0507329,619.8851692,620.1884702,nan,nan
0,305,19:31:00:195000,6,1,171,120.234375,[ 1.         -0.17601187  0.25645091],1,1,1,0.241490115,0,0,0,0.28462437,0.374785084,0.117122761,0.491907845,0.257662323,nan,nan,nan,[ nan  nan  nan],nan,nan,nan,266.0507329,620.826955,621.0684451,nan,nan
0,306,19:31:01:147000,6,0,56,39.375,[ 1.         -0.06536751 -1.        ],0,1,0,0.107688575,0,0,0,0.217493241,0.374342243,0.117179348,0.491521591,0.257162895,nan,nan,nan,[ nan  nan  nan],nan,nan,nan,266.0507329,621.7687332,621.8764218,nan,nan
0,307,19:31:02:083000,6,1,418,293.90625,[ 0.10117589  0.45596175 -0.66167931],1,1,1,0.42187949,0,0,0,0.257019394,0.373459284,0.117983886,0.49144317,0.255475398,nan,nan,nan,[ nan  nan  nan],nan,nan,nan,266.0507329,622.7105134,623.1323929,nan,nan
0,308,19:31:03:019000,6,1,222,156.09375,[ 0.84177847  0.09972916  0.58948469],1,1,1,0.288050296,0,0,0,0.272539454,0.373619087,0.117821765,0.491440852,0.255797322,nan,nan,nan,[ nan  nan  nan],nan,nan,nan,266.0507329,623.6523463,623.9403966,nan,nan
0,309,19:31:03:971000,6,1,128,90,[ 1.         -0.31066301 -0.15668979],1,1,1,0.466274638,0,0,0,0.392068141,0.373337611,0.117729819,0.491067429,0.255607792,nan,nan,nan,[ nan  nan  nan],nan,nan,nan,266.0507329,624.5941002,625.0603749,nan,nan
0,310,19:31:04:907000,6,1,79,55.546875,[ 1.         -0.18429602 -0.72417078],1,1,1,0.308483827,0,0,0,0.354269587,0.373642322,0.117656673,0.491298995,0.255985649,nan,nan,nan,[ nan  nan  nan],nan,nan,nan,266.0507329,625.535889,625.8443728,nan,nan
0,311,19:31:05:843000,6,0,292,205.3125,[ 0.11288167  0.37606958  0.56926185],0,nan,nan,nan,0,0,0,0.387379233,0.373429386,0.117523117,0.490952503,0.255906268,nan,nan,nan,[ nan  nan  nan],nan,nan,nan,266.0507329,626.4776797,nan,nan,nan
0,312,19:31:06:794000,6,1,337,236.953125,[-0.16064337  0.45785839  0.25930356],1,1,1,0.688876737,0,0,0,0.498680282,0.373429386,0.117523117,0.490952503,0.255906268,nan,nan,nan,[ nan  nan  nan],nan,nan,nan,266.0507329,627.4194282,628.108305,nan,nan
0,313,19:31:07:730000,6,1,181,127.265625,[ 1.         -0.12391439  0.33920113],1,1,1,0.491144006,0,0,0,0.590010372,0.374456902,0.118700317,0.493157219,0.255756584,nan,nan,nan,[ nan  nan  nan],nan,nan,nan,266.0507329,628.3612494,628.8523935,nan,nan
0,314,19:31:08:682000,6,1,126,88.59375,[ 1.         -0.31141175 -0.17740843],1,1,1,0.469286412,0,0,1,0.549769052,0.374835756,0.118693231,0.493528987,0.256142525,nan,nan,nan,[ nan  nan  nan],nan,nan,nan,266.0507329,629.3030356,629.772322,nan,nan
0,315,19:31:13:596000,6,1,296,208.125,[ 0.07727136  0.38620532  0.55000131],1,1,1,0.423473187,1,0,0,0.461301202,0.375141421,0.118622374,0.493763795,0.256519048,nan,-32.72021952,175,[ 1.         -0.15562995  0.29036176],nan,-85.40478048,1.925555542,266.0507329,630.2448098,630.668283,632.0699793,634.003564
0,316,19:31:14:532000,6,1,154,108.28125,[ 1.         -0.25181315  0.10213817],1,1,1,0.362060835,0,0,0,0.418273478,0.37529733,0.118462599,0.49375993,0.256834731,nan,nan,nan,[ nan  nan  nan],nan,nan,nan,266.0507329,635.1621157,635.5241766,nan,nan
0,317,19:31:15:483000,6,1,404,284.0625,[ 0.01248946  0.46874627 -0.4633491 ],1,1,1,0.292278011,0,0,0,0.359270678,0.375254769,0.118274365,0.493529135,0.256980404,nan,nan,nan,[ nan  nan  nan],nan,nan,nan,266.0507329,636.1039387,636.3962167,nan,nan
0,318,19:31:16:419000,6,1,474,333.28125,[ 0.53090176  0.34654538 -1.        ],1,1,1,0.270465177,0,0,0,0.308268008,0.374988818,0.118177775,0.493166593,0.256811043,nan,nan,nan,[ nan  nan  nan],nan,nan,nan,266.0507329,637.0456809,637.3161461,nan,nan
0,319,19:31:17:355000,6,0,404,284.0625,[ 0.01248946  0.46874627 -0.4633491 ],0,1,0,0.184629065,0,0,0,0.249124084,0.374654877,0.118136193,0.49279107,0.256518684,nan,nan,nan,[ nan  nan  nan],nan,nan,nan,266.0507329,637.9874916,638.1721207,nan,nan
0,320,19:31:18:307000,6,1,97,68.203125,[ 1.         -0.26036974 -0.49171883],1,1,1,0.258874525,0,0,0,0.237989589,0.374049699,0.118432879,0.492482578,0.25561682,nan,nan,nan,[ nan  nan  nan],nan,nan,nan,266.0507329,638.9292516,639.1881261,nan,nan
0,321,19:31:19:243000,6,1,493,346.640625,[ 0.68976908  0.28570078 -1.        ],1,1,1,0.245050702,0,0,0,0.229518097,0.373684064,0.118422115,0.492106178,0.255261949,nan,nan,nan,[ nan  nan  nan],nan,nan,nan,266.0507329,639.8710363,640.116087,nan,nan
0,322,19:31:20:179000,6,1,415,291.796875,[ 0.08130773  0.45915368 -0.61496802],1,1,1,0.311241008,0,0,0,0.271722078,0.373276996,0.118455118,0.491732114,0.254821878,nan,nan,nan,[ nan  nan  nan],nan,nan,nan,266.0507329,640.8128196,641.1240606,nan,nan
0,323,19:31:21:131000,6,1,95,66.796875,[ 1.         -0.25317502 -0.51497544],1,1,1,0.313457073,0,0,0,0.289916261,0.373081299,0.118319284,0.491400583,0.254762014,nan,nan,nan,[ nan  nan  nan],nan,nan,nan,266.0507329,641.7546052,642.0680623,nan,nan
0,324,19:31:22:067000,6,1,370,260.15625,[-0.144806    0.47817873 -0.06718033],1,1,1,0.259655978,0,0,0,0.294784687,0.372893801,0.11818026,0.491074061,0.254713541,nan,nan,nan,[ nan  nan  nan],nan,nan,nan,266.0507329,642.6963765,642.9560325,nan,nan
0,325,19:31:23:018000,6,1,483,339.609375,[ 0.60602571  0.31931445 -1.        ],1,1,1,0.269852502,0,0,0,0.280988518,0.372538824,0.118164556,0.49070338,0.254374267,nan,nan,nan,[ nan  nan  nan],nan,nan,nan,266.0507329,643.638194,643.9080465,nan,nan
0,326,19:31:23:954000,6,1,13,9.140625,[ 0.95026217  0.15466406 -1.        ],1,1,1,0.280085803,0,0,0,0.269864761,0.372217929,0.11811891,0.490336839,0.254099019,nan,nan,nan,[ nan  nan  nan],nan,nan,nan,266.0507329,644.5799497,644.8600355,nan,nan
0,327,19:31:24:890000,6,1,113,79.453125,[ 1.         -0.30219199 -0.31457635],1,1,1,0.386269062,0,0,0,0.312069122,0.371930913,0.118046489,0.489977402,0.253884424,nan,nan,nan,[ nan  nan  nan],nan,nan,nan,266.0507329,645.5217473,645.9080163,nan,nan
0,328,19:31:25:842000,6,1,387,272.109375,[-0.07872193  0.47723176 -0.25697445],1,1,1,0.364463925,0,0,0,0.343606263,0.371975441,0.117865744,0.489841186,0.254109697,nan,nan,nan,[ nan  nan  nan],nan,nan,nan,266.0507329,646.4635517,646.8280156,nan,nan
0,329,19:31:26:778000,6,1,323,227.109375,[-0.11001989  0.43965345  0.37585536],1,1,1,0.422645833,0,0,0,0.391126273,0.371952186,0.117683888,0.489636074,0.254268298,nan,nan,nan,[ nan  nan  nan],nan,nan,nan,266.0507329,647.4053361,647.827982,nan,nan
0,330,19:31:27:714000,6,1,197,138.515625,[ 1.         -0.0357976   0.45577474],1,1,1,0.400843833,0,0,0,0.39598453,0.372108648,0.117535779,0.489644427,0.254572869,nan,nan,nan,[ nan  nan  nan],nan,nan,nan,266.0507329,648.3471229,648.7479667,nan,nan
0,331,19:31:28:666000,6,1,326,229.21875,[-0.12383419  0.44407177  0.35222354],1,1,1,0.371030583,0,0,0,0.398173416,0.372197064,0.117365606,0.48956267,0.254831458,nan,nan,nan,[ nan  nan  nan],nan,nan,nan,266.0507329,649.2889093,649.6599399,nan,nan
0,332,19:31:29:602000,6,1,463,325.546875,[ 0.44023832  0.3760118  -1.        ],1,1,1,0.39722138,0,0,0,0.389698598,0.372193486,0.117185477,0.489378963,0.255008009,nan,nan,nan,[ nan  nan  nan],nan,nan,nan,266.0507329,650.2306969,650.6279183,nan,nan
0,333,19:31:30:553000,6,1,411,288.984375,[ 0.05552017  0.46302271 -0.55705476],1,1,1,0.359411706,0,0,0,0.37588789,0.372270024,0.117014318,0.489284341,0.255255706,nan,nan,nan,[ nan  nan  nan],nan,nan,nan,266.0507329,651.1724859,651.5318976,nan,nan
0,334,19:31:31:489000,6,1,507,356.484375,[ 0.80599565  0.23268835 -1.        ],1,1,1,0.353630778,0,0,0,0.370087955,0.372230821,0.116837957,0.489068778,0.255392865,nan,nan,nan,[ nan  nan  nan],nan,nan,nan,266.0507329,652.1142552,652.467886,nan,nan
0,335,19:31:32:425000,6,1,267,187.734375,[ 0.36292453  0.29880723  0.64662252],1,1,1,0.507845037,0,0,0,0.406962507,0.372174286,0.116664749,0.488839036,0.255509537,nan,nan,nan,[ nan  nan  nan],nan,nan,nan,266.0507329,653.056036,653.563881,nan,nan
0,336,19:31:33:377000,6,1,72,50.625,[ 1.         -0.14960778 -0.85320374],1,1,1,0.534005613,0,0,0,0.465160476,0.37258541,0.116726294,0.489311704,0.255859116,nan,nan,nan,[ nan  nan  nan],nan,nan,nan,266.0507329,653.9978447,654.5318503,nan,nan
0,337,19:31:34:313000,6,1,136,95.625,[ 1.         -0.3019149  -0.07484121],1,1,1,0.61621357,0,0,1,0.552688073,0.373073084,0.116886043,0.489959128,0.256187041,nan,nan,nan,[ nan  nan  nan],nan,nan,nan,266.0507329,654.9396288,655.5558424,nan,nan
0,338,19:31:38:993000,6,0,319,224.296875,[-0.08918918  0.43330867  0.4061371 ],0,0,1,0.602393453,1,0,0,0.584204212,0.373805435,0.117467967,0.491273402,0.256337468,nan,-151.0442669,343,[-0.17138818  0.46383642  0.20482281],nan,16.74739186,1.683863292,266.0507329,655.8814204,656.4838139,657.7065864,659.3984835
0,339,19:31:39:929000,6,1,136,95.625,[ 1.         -0.3019149  -0.07484121],1,1,1,0.510745622,0,0,0,0.576450882,0.374491885,0.11795647,0.492448356,0.256535415,nan,nan,nan,[ nan  nan  nan],nan,nan,nan,266.0507329,660.5570113,661.0677569,nan,nan
0,340,19:31:40:865000,6,1,347,243.984375,[-0.17493884  0.46723881  0.16715748],1,1,1,0.496930637,0,0,0,0.536689904,0.374899831,0.118014781,0.492914612,0.256885049,nan,nan,nan,[ nan  nan  nan],nan,nan,nan,266.0507329,661.4987975,661.9957281,nan,nan
0,341,19:31:41:816000,6,1,418,293.90625,[ 0.10117589  0.45596175 -0.66167931],1,1,1,0.323120749,0,0,0,0.443599003,0.375264102,0.118026411,0.493290513,0.257237691,nan,nan,nan,[ nan  nan  nan],nan,nan,nan,266.0507329,662.4405842,662.7637049,nan,nan
0,342,19:31:42:752000,6,1,132,92.8125,[ 1.         -0.30742683 -0.11555536],1,1,1,0.309323155,0,0,0,0.37645818,0.375108913,0.11788487,0.492993783,0.257224043,nan,nan,nan,[ nan  nan  nan],nan,nan,nan,266.0507329,663.3823587,663.6916818,nan,nan
0,343,19:31:43:704000,6,1,22,15.46875,[ 1.          0.11184242 -1.        ],1,1,1,0.207527837,0,0,0,0.27999058,0.374913703,0.117764212,0.492677915,0.257149492,nan,nan,nan,[ nan  nan  nan],nan,nan,nan,266.0507329,664.3241537,664.5316815,nan,nan
0,344,19:31:44:640000,6,1,367,258.046875,[-0.15309091  0.4775609  -0.03508163],1,1,1,0.249720889,0,1,0,0.25552396,0.374418479,0.117940778,0.492359257,0.256477701,nan,nan,nan,[ nan  nan  nan],nan,nan,nan,266.0507329,665.2659412,665.5156621,nan,nan
0,345,19:31:48:899000,6,1,486,341.71875,[ 0.63115176  0.30960306 -1.        ],1,1,1,0.219897946,1,0,0,0.225715558,0.374050639,0.117960705,0.492011345,0.256089934,nan,103.4859274,493,[ 0.68976908  0.28570078 -1.        ],nan,4.795322603,1.267120979,266.0507329,666.2077277,666.4276256,668.0328929,669.3080485
0,346,19:31:49:835000,6,1,413,290.390625,[ 0.06831062  0.46114313 -0.5854956 ],1,1,1,0.584944041,0,0,0,0.351520959,0.373597249,0.118082548,0.491679797,0.255514701,nan,nan,nan,[ nan  nan  nan],nan,nan,nan,266.0507329,670.4666002,671.0515443,nan,nan
0,347,19:31:50:786000,6,1,202,142.03125,[ 1.         -0.00802826  0.48759698],1,1,1,0.363186972,0,0,0,0.389342986,0.374217034,0.118461823,0.492678858,0.255755211,nan,nan,nan,[ nan  nan  nan],nan,nan,nan,266.0507329,671.4083801,671.7715671,nan,nan
0,348,19:31:51:722000,6,1,342,240.46875,[-0.17005262  0.46291356  0.21407524],1,1,1,0.309340546,0,0,0,0.419157186,0.374184783,0.118290006,0.492474789,0.255894777,nan,nan,nan,[ nan  nan  nan],nan,nan,nan,266.0507329,672.35017,672.6595105,nan,nan
0,349,19:31:52:658000,6,1,302,212.34375,[ 0.02708608  0.40030084  0.51777002],1,1,1,0.255536885,0,0,0,0.309354801,0.373995733,0.118169176,0.492164908,0.255826557,nan,nan,nan,[ nan  nan  nan],nan,nan,nan,266.0507329,673.2919578,673.5474947,nan,nan
0,350,19:31:53:610000,6,1,208,146.25,[ 0.97651258  0.02502074  0.52257448],1,1,1,0.177763054,0,1,0,0.247546828,0.373651375,0.118169517,0.491820892,0.255481858,nan,nan,nan,[ nan  nan  nan],nan,nan,nan,266.0507329,674.2337497,674.4115128,nan,nan
0,351,19:31:57:900000,6,1,425,298.828125,[ 0.14916262  0.4475296  -0.79171567],1,1,1,0.307930167,1,0,0,0.247076702,0.373083583,0.118467129,0.491550713,0.254616454,nan,151.7502645,424,[ 0.14217456  0.44881957 -0.77022942],nan,-0.578389505,1.300451481,266.0507329,675.1755333,675.4834635,677.0006988,678.3091934
0,352,19:31:58:836000,6,1,284,199.6875,[ 0.18846515  0.3539841   0.60223628],1,1,1,0.463648887,0,0,0,0.316447369,0.372895279,0.118347505,0.491242784,0.254547773,nan,nan,nan,[ nan  nan  nan],nan,nan,nan,266.0507329,679.4677486,679.9313975,nan,nan
0,353,19:31:59:788000,6,1,190,133.59375,[ 1.         -0.07468844  0.40739964],1,1,1,0.289871216,0,0,0,0.353816757,0.373156816,0.118276944,0.491433761,0.254879872,nan,nan,nan,[ nan  nan  nan],nan,nan,nan,266.0507329,680.4095319,680.6994031,nan,nan
0,354,19:32:00:724000,6,1,235,165.234375,[ 0.70759192  0.16453778  0.63165963],1,1,1,0.204052494,0,0,0,0.319190866,0.37291749,0.118190995,0.491108484,0.254726495,nan,nan,nan,[ nan  nan  nan],nan,nan,nan,266.0507329,681.3513206,681.5553731,nan,nan
0,355,19:32:01:660000,6,0,104,73.125,[ 1.         -0.28235148 -0.41264457],0,1,0,0.222220353,0,0,0,0.238714688,0.372433636,0.118366199,0.490799835,0.254067437,nan,nan,nan,[ nan  nan  nan],nan,nan,nan,266.0507329,682.2931131,682.5153334,nan,nan
0,356,19:32:02:611000,6,1,498,350.15625,[ 0.73150794  0.26756188 -1.        ],1,1,1,0.272506192,0,0,0,0.232926347,0.372004455,0.118468609,0.490473064,0.253535846,nan,nan,nan,[ nan  nan  nan],nan,nan,nan,266.0507329,683.2348753,683.5073815,nan,nan
0,357,19:32:03:547000,6,1,85,59.765625,[ 1.         -0.21215645 -0.63878123],1,1,1,0.354637173,0,0,0,0.28312124,0.371720984,0.11841854,0.490139524,0.253302445,nan,nan,nan,[ nan  nan  nan],nan,nan,nan,266.0507329,684.1766808,684.531318,nan,nan
0,358,19:32:04:499000,6,1,378,265.78125,[-0.11745014  0.47867092 -0.15481012],1,1,1,0.308843906,0,0,0,0.311995757,0.371672451,0.118253708,0.489926159,0.253418743,nan,nan,nan,[ nan  nan  nan],nan,nan,nan,266.0507329,685.1184664,685.4273103,nan,nan
0,359,19:32:05:435000,6,1,331,232.734375,[-0.14329784  0.45080175  0.31116671],1,1,1,0.399038593,0,0,0,0.354173224,0.371494466,0.118133296,0.489627762,0.25336117,nan,nan,nan,[ nan  nan  nan],nan,nan,nan,266.0507329,686.0602563,686.4592949,nan,nan
0,360,19:32:06:371000,6,1,225,158.203125,[ 0.81146625  0.11513113  0.60098195],1,1,1,0.353251598,0,0,0,0.353711365,0.371572275,0.117975381,0.489547656,0.253596893,nan,nan,nan,[ nan  nan  nan],nan,nan,nan,266.0507329,687.0020305,687.3552821,nan,nan
0,361,19:32:07:322000,6,0,182,127.96875,[ 1.         -0.11852384  0.34708947],0,0,1,0.499479982,0,0,0,0.417256724,0.371520667,0.117813103,0.48933377,0.253707564,nan,nan,nan,[ nan  nan  nan],nan,nan,nan,266.0507329,687.9437841,688.4432641,nan,nan
0,362,19:32:08:258000,6,1,299,210.234375,[ 0.05166456  0.39341767  0.53437875],1,1,1,0.237650418,0,0,0,0.363460666,0.371880103,0.117842279,0.489722382,0.254037825,nan,nan,nan,[ nan  nan  nan],nan,nan,nan,266.0507329,688.8856159,689.1232663,nan,nan
0,363,19:32:09:194000,6,1,143,100.546875,[ 1.         -0.28705753 -0.00469999],1,1,1,0.199838178,0,0,0,0.312322859,0.37150411,0.117890764,0.489394873,0.253613346,nan,nan,nan,[ nan  nan  nan],nan,nan,nan,266.0507329,689.8273838,690.027222,nan,nan
0,364,19:32:10:146000,6,1,86,60.46875,[ 1.         -0.21659106 -0.6256178 ],1,1,1,0.282032166,0,1,0,0.239840254,0.371024596,0.118074115,0.489098711,0.252950481,nan,nan,nan,[ nan  nan  nan],nan,nan,nan,266.0507329,690.7691879,691.0512201,nan,nan
0,365,19:32:14:389000,6,0,243,170.859375,[ 0.62215101  0.20168048  0.64746348],0,0,1,0.460212888,1,0,0,0.314027744,0.370776706,0.118002801,0.488779508,0.252773905,nan,-68.86980743,226,[ 0.80126593  0.12020899  0.60458277],nan,-11.98956757,1.250462429,266.0507329,691.7109724,692.1711853,693.5361336,694.794654
0,366,19:32:15:325000,6,1,171,120.234375,[ 1.         -0.17601187  0.25645091],1,1,1,0.497913939,0,0,0,0.413386331,0.37102514,0.117932772,0.488957912,0.253092368,nan,nan,nan,[ nan  nan  nan],nan,nan,nan,266.0507329,695.9531787,696.4510926,nan,nan
0,367,19:32:16:261000,6,0,273,191.953125,[ 0.29973296  0.31957719  0.63503803],0,0,1,0.604113734,0,0,0,0.520746854,0.371376633,0.117957997,0.489334629,0.253418636,nan,nan,nan,[ nan  nan  nan],nan,nan,nan,266.0507329,696.8949651,697.4990788,nan,nan
0,368,19:32:17:228000,6,1,69,48.515625,[ 1.         -0.1342072  -0.93964801],1,1,1,0.254351163,0,0,0,0.452126279,0.372019553,0.118426645,0.490446198,0.253592907,nan,nan,nan,[ nan  nan  nan],nan,nan,nan,266.0507329,697.836739,698.0910902,nan,nan
0,369,19:32:18:164000,6,1,380,267.1875,[-0.10951951  0.47853303 -0.17717739],1,0,0,0.360208555,0,0,0,0.406224484,0.371695397,0.118424119,0.490119517,0.253271278,nan,nan,nan,[ nan  nan  nan],nan,nan,nan,266.0507329,698.7868617,699.1470703,nan,nan
0,370,19:32:19:100000,6,1,310,217.96875,[-0.03285454  0.41708073  0.46882802],1,1,1,0.490422139,0,0,0,0.368327286,0.37166384,0.118262865,0.489926706,0.253400975,nan,nan,nan,[ nan  nan  nan],nan,nan,nan,266.0507329,699.7286559,700.219078,nan,nan
0,371,19:32:20:036000,6,1,127,89.296875,[ 1.         -0.31111021 -0.16703665],1,1,1,0.380603883,0,0,0,0.410411525,0.371989205,0.118263778,0.490252983,0.253725427,nan,nan,nan,[ nan  nan  nan],nan,nan,nan,266.0507329,700.6704452,701.051049,nan,nan
0,372,19:32:20:988000,6,1,23,16.171875,[ 1.          0.10694394 -1.        ],1,1,1,0.262800322,0,0,0,0.377942115,0.372012743,0.118102961,0.490115704,0.253909782,nan,nan,nan,[ nan  nan  nan],nan,nan,nan,266.0507329,701.6122216,701.875022,nan,nan
0,373,19:32:21:924000,6,1,85,59.765625,[ 1.         -0.21215645 -0.63878123],1,1,1,0.600953709,0,0,0,0.414785971,0.371715161,0.118079271,0.489794432,0.25363589,nan,nan,nan,[ nan  nan  nan],nan,nan,nan,266.0507329,702.5540203,703.154974,nan,nan
0,374,19:32:22:876000,6,1,336,236.25,[-0.15821161  0.45675811  0.26813527],1,1,1,0.315169086,0,0,0,0.392974372,0.372338092,0.118521045,0.490859137,0.253817047,nan,nan,nan,[ nan  nan  nan],nan,nan,nan,266.0507329,703.4958056,703.8109747,nan,nan
0,375,19:32:23:812000,6,1,197,138.515625,[ 1.         -0.0357976   0.45577474],1,1,1,0.341347623,0,0,0,0.419156806,0.372183162,0.118397647,0.49058081,0.253785515,nan,nan,nan,[ nan  nan  nan],nan,nan,nan,266.0507329,704.4375921,704.7789397,nan,nan
0,376,19:32:24:748000,6,1,21,14.765625,[ 1.        0.116714 -1.      ],1,1,1,0.311589683,0,0,0,0.32270213,0.372099823,0.118248379,0.490348203,0.253851444,nan,nan,nan,[ nan  nan  nan],nan,nan,nan,266.0507329,705.3793723,705.6909619,nan,nan
0,377,19:32:25:699000,6,0,112,78.75,[ 1.         -0.30050152 -0.32532486],0,0,1,0.601767949,0,0,0,0.418235085,0.371936723,0.118130575,0.490067298,0.253806148,nan,nan,nan,[ nan  nan  nan],nan,nan,nan,266.0507329,706.3211459,706.9229138,nan,nan
0,378,19:32:26:635000,6,1,255,179.296875,[ 0.49215936  0.25301719  0.65616311],1,1,1,0.21998262,0,0,0,0.377780084,0.372554549,0.118570374,0.491124923,0.253984175,nan,nan,nan,[ nan  nan  nan],nan,nan,nan,266.0507329,707.2629494,707.482932,nan,nan
0,379,19:32:27:571000,6,1,488,343.125,[ 0.64790771  0.30295149 -1.        ],1,1,1,0.350164558,0,0,0,0.390638376,0.372145509,0.118673851,0.49081936,0.253471658,nan,nan,nan,[ nan  nan  nan],nan,nan,nan,266.0507329,708.2047387,708.5549033,nan,nan
0,380,19:32:28:523000,6,1,280,196.875,[ 0.22808935  0.34201885  0.61587222],1,1,1,0.328361988,0,0,0,0.299503055,0.372086736,0.118520525,0.490607262,0.253566211,nan,nan,nan,[ nan  nan  nan],nan,nan,nan,266.0507329,709.1465277,709.4748897,nan,nan
0,381,19:32:29:459000,6,1,57,40.078125,[ 1.         -0.07073133 -1.        ],1,1,1,0.298591218,0,0,0,0.325705921,0.371970137,0.11838387,0.490354007,0.253586267,nan,nan,nan,[ nan  nan  nan],nan,nan,nan,266.0507329,710.0882842,710.3868755,nan,nan
0,382,19:32:30:410000,6,1,389,273.515625,[-0.06912081  0.47662608 -0.28023432],1,1,1,0.292756406,0,0,0,0.30656987,0.37177498,0.118286727,0.490061707,0.253488254,nan,nan,nan,[ nan  nan  nan],nan,nan,nan,266.0507329,711.0300981,711.3228545,nan,nan
0,383,19:32:31:346000,6,1,203,142.734375,[ 1.         -0.00249325  0.49367467],1,1,1,0.310959331,0,0,0,0.300768985,0.371565382,0.118199638,0.48976502,0.253365744,nan,nan,nan,[ nan  nan  nan],nan,nan,nan,266.0507329,711.9718845,712.2828438,nan,nan
0,384,19:32:32:282000,6,1,143,100.546875,[ 1.         -0.28705753 -0.00469999],1,1,1,0.521153118,0,0,0,0.374956285,0.371405048,0.118084229,0.489489278,0.253320819,nan,nan,nan,[ nan  nan  nan],nan,nan,nan,266.0507329,712.9136715,713.4348246,nan,nan
0,385,19:32:33:234000,6,1,187,131.484375,[ 1.         -0.09124635  0.38538321],1,1,1,0.243346102,0,0,0,0.358486184,0.371800162,0.118178278,0.48997844,0.253621884,nan,nan,nan,[ nan  nan  nan],nan,nan,nan,266.0507329,713.8554594,714.0988055,nan,nan
0,386,19:32:34:170000,6,0,386,271.40625,[-0.08339466  0.47749559 -0.24542474],0,0,1,0.517539788,0,0,0,0.427346336,0.371462125,0.118206008,0.489668134,0.253256117,nan,nan,nan,[ nan  nan  nan],nan,nan,nan,266.0507329,714.797241,715.3147808,nan,nan
0,387,19:32:35:106000,6,1,284,199.6875,[ 0.18846515  0.3539841   0.60223628],1,nan,nan,nan,0,0,0,0.380442945,0.371845531,0.118287137,0.490132668,0.253558394,nan,nan,nan,[ nan  nan  nan],nan,nan,nan,266.0507329,715.7390263,nan,nan,nan
0,388,19:32:36:058000,6,1,97,68.203125,[ 1.         -0.26036974 -0.49171883],1,1,1,0.569898003,0,0,0,0.543718896,0.371845531,0.118287137,0.490132668,0.253558394,nan,nan,nan,[ nan  nan  nan],nan,nan,nan,266.0507329,716.6808048,717.2507028,nan,nan
0,389,19:32:36:994000,6,1,505,355.078125,[ 0.78953796  0.24068314 -1.        ],1,1,1,0.524136667,0,0,0,0.547017335,0.372363993,0.118564889,0.490928882,0.253799104,nan,nan,nan,[ nan  nan  nan],nan,nan,nan,266.0507329,717.6226077,718.1467444,nan,nan
0,390,19:32:37:945000,6,1,151,106.171875,[ 1.         -0.26272029  0.07346267],1,1,1,0.35032849,0,0,0,0.481454387,0.372760266,0.118663032,0.491423299,0.254097234,nan,nan,nan,[ nan  nan  nan],nan,nan,nan,266.0507329,718.5643933,718.9147218,nan,nan
0,391,19:32:38:881000,6,1,398,279.84375,[-0.02203778  0.4726088  -0.38794338],1,1,1,0.272568058,0,0,0,0.382344405,0.37270185,0.118513937,0.491215787,0.254187914,nan,nan,nan,[ nan  nan  nan],nan,nan,nan,266.0507329,719.5061761,719.7787441,nan,nan
0,392,19:32:39:817000,6,1,102,71.71875,[ 1.         -0.27661034 -0.43492695],1,1,1,0.434727709,0,0,0,0.352541419,0.372441762,0.118469604,0.490911367,0.253972158,nan,nan,nan,[ nan  nan  nan],nan,nan,nan,266.0507329,720.4479634,720.8826911,nan,nan
0,393,19:32:40:769000,6,1,356,250.3125,[-0.17284378  0.47323941  0.07883681],1,1,1,0.396892662,0,0,0,0.36806281,0.372603125,0.118358403,0.490961528,0.254244722,nan,nan,nan,[ nan  nan  nan],nan,nan,nan,266.0507329,721.3897732,721.7866659,nan,nan
0,394,19:32:41:705000,6,1,312,219.375,[-0.04644836  0.4209252   0.45557321],1,1,1,0.391110023,0,0,0,0.407576798,0.372665889,0.118211818,0.490877706,0.254454071,nan,nan,nan,[ nan  nan  nan],nan,nan,nan,266.0507329,722.3315346,722.7226446,nan,nan
0,395,19:32:42:641000,6,1,508,357.1875,[ 0.81419982  0.22863893 -1.        ],1,1,1,0.321289851,0,0,0,0.369764178,0.372713425,0.118063088,0.490776513,0.254650337,nan,nan,nan,[ nan  nan  nan],nan,nan,nan,266.0507329,723.2733247,723.5946146,nan,nan
0,396,19:32:43:592000,6,1,404,284.0625,[ 0.01248946  0.46874627 -0.4633491 ],1,1,1,0.291512524,0,0,0,0.334637466,0.372581231,0.117939987,0.490521218,0.254641244,nan,nan,nan,[ nan  nan  nan],nan,nan,nan,266.0507329,724.2151086,724.5066211,nan,nan
0,397,19:32:44:528000,6,1,240,168.75,[ 0.65437302  0.18801506  0.64246395],1,1,1,0.261681028,0,0,0,0.291494468,0.372373362,0.117860013,0.490233376,0.254513349,nan,nan,nan,[ nan  nan  nan],nan,nan,nan,266.0507329,725.1568967,725.4185778,nan,nan
0,398,19:32:45:480000,6,1,294,206.71875,[ 0.0948762   0.38121213  0.55985823],1,1,1,0.279898494,0,0,0,0.277697349,0.372090262,0.117841898,0.489932159,0.254248364,nan,nan,nan,[ nan  nan  nan],nan,nan,nan,266.0507329,726.0986806,726.3785791,nan,nan
0,399,19:32:46:416000,6,1,462,324.84375,[ 0.43208968  0.37848636 -1.        ],1,1,1,0.314091131,0,0,0,0.285223551,0.371855079,0.117783336,0.489638415,0.254071743,nan,nan,nan,[ nan  nan  nan],nan,nan,nan,266.0507329,727.0404711,727.3545622,nan,nan
0,400,19:32:47:352000,6,1,34,23.90625,[ 1.          0.05144197 -1.        ],1,1,1,0.260295738,0,0,0,0.284761787,0.371708097,0.117669379,0.489377476,0.254038717,nan,nan,nan,[ nan  nan  nan],nan,nan,nan,266.0507329,727.9822575,728.2425532,nan,nan
0,401,19:32:48:304000,6,1,449,315.703125,[ 0.32809501  0.40764625 -1.        ],1,1,1,0.182491401,0,1,0,0.252292757,0.371425324,0.11765358,0.489078904,0.253771744,nan,nan,nan,[ nan  nan  nan],nan,nan,nan,266.0507329,728.924044,729.1065354,nan,nan
0,402,19:32:52:952000,6,1,188,132.1875,[ 1.         -0.08573935  0.39280429],1,1,1,0.168689816,1,0,0,0.203825652,0.37094701,0.117887496,0.488834507,0.253059514,nan,-76.8907918,237,[ 0.6863873   0.17403185  0.63634982],nan,34.7032918,1.66718678,266.0507329,729.8658298,730.0345196,731.6909842,733.366203
0,403,19:32:53:888000,6,1,503,353.671875,[ 0.7730202   0.24853846 -1.        ],1,nan,nan,nan,0,0,0,0.175590609,0.37043626,0.118175333,0.488611593,0.252260927,nan,nan,nan,[ nan  nan  nan],nan,nan,nan,266.0507329,734.5164513,nan,nan,nan
0,404,19:32:54:840000,6,0,418,293.90625,[ 0.10117589  0.45596175 -0.66167931],0,0,1,0.792181078,0,0,0,0.480435447,0.37043626,0.118175333,0.488611593,0.252260927,nan,nan,nan,[ nan  nan  nan],nan,nan,nan,266.0507329,735.458199,736.25038,nan,nan
0,405,19:32:55:776000,6,1,505,355.078125,[ 0.78953796  0.24068314 -1.        ],1,1,1,0.602381764,0,0,0,0.697281421,0.371498589,0.119904693,0.491403282,0.251593896,nan,nan,nan,[ nan  nan  nan],nan,nan,nan,266.0507329,736.3999783,737.00236,nan,nan
0,406,19:32:56:712000,6,1,175,123.046875,[ 1.         -0.15562995  0.29036176],1,1,1,0.308596726,0,0,0,0.567719856,0.372078698,0.120310485,0.492389182,0.251768213,nan,nan,nan,[ nan  nan  nan],nan,nan,nan,266.0507329,737.3417644,737.6503612,nan,nan
0,407,19:32:57:664000,6,1,231,162.421875,[ 0.74960968  0.14515127  0.62082146],1,1,1,0.24680776,0,0,0,0.38592875,0.371919595,0.12020154,0.492121136,0.251718055,nan,nan,nan,[ nan  nan  nan],nan,nan,nan,266.0507329,738.2835566,738.5303643,nan,nan
0,408,19:32:58:600000,6,1,156,109.6875,[ 1.         -0.24406061  0.12104147],1,1,1,0.241000887,0,0,0,0.265468458,0.371606816,0.120213659,0.491820475,0.251393156,nan,nan,nan,[ nan  nan  nan],nan,nan,nan,266.0507329,739.2253502,739.466351,nan,nan
0,409,19:32:59:536000,6,1,268,188.4375,[ 0.35230222  0.30236752  0.64500531],1,1,1,0.091122966,0,1,0,0.192977204,0.371281115,0.120240251,0.491521366,0.251040864,nan,nan,nan,[ nan  nan  nan],nan,nan,nan,266.0507329,740.1671965,740.2583194,nan,nan
0,410,19:33:00:487000,6,0,315,221.484375,[-0.06571114  0.42643481  0.43495652],0,nan,nan,nan,0,0,0,0.166061927,0.370584204,0.120898772,0.491482976,0.249685432,nan,nan,nan,[ nan  nan  nan],nan,nan,nan,266.0507329,741.1089074,nan,nan,nan
0,411,19:33:01:423000,6,1,450,316.40625,[ 0.33594973  0.40559833 -1.        ],1,1,1,0.407592953,0,0,0,0.24935796,0.370584204,0.120898772,0.491482976,0.249685432,nan,nan,nan,[ nan  nan  nan],nan,nan,nan,266.0507329,742.0506984,742.4582913,nan,nan
