block,trial,freq_trials,correct_response,actual_response,acc,rts,probe_trials,trials_colorind0,trials_colorind1,trials_colorind2,trials_colorind3,trials_colorind4,trials_colorind5,wholereport_resp0,wholereport_resp1,wholereport_resp2,wholereport_resp3,wholereport_resp4,wholereport_resp5,wholereport_respacc0,wholereport_respacc1,wholereport_respacc2,wholereport_respacc3,wholereport_respacc4,wholereport_respacc5,wholereport_respacc_total,wholereport_respcolorind0,wholereport_respcolorind1,wholereport_respcolorind2,wholereport_respcolorind3,wholereport_respcolorind4,wholereport_respcolorind5,wholereport_resporder0,wholereport_resporder1,wholereport_resporder2,wholereport_resporder3,wholereport_resporder4,wholereport_resporder5,wholereport_rts0,wholereport_rts1,wholereport_rts2,wholereport_rts3,wholereport_rts4,wholereport_rts5,time_blockstart,time_encarray_offset,time_encarray_onset,time_response,time_iti_offset,time_iti_onset,time_memprobe_offset,time_memprobe_onset
1,1,1,1,1.0,1.0,0.3166285534389317,0,5,4,7,0,6,8,nan,nan,nan,nan,nan,nan,nan,nan,nan,nan,nan,nan,0.0,nan,nan,nan,nan,nan,nan,nan,nan,nan,nan,nan,nan,nan,nan,nan,nan,nan,nan,445.4842885567341,446.50369903235696,nan,446.8203275857959,nan,nan,nan,nan
1,2,1,1,1.0,1.0,0.25253917346708477,0,7,1,3,6,5,4,nan,nan,nan,nan,nan,nan,nan,nan,nan,nan,nan,nan,0.0,nan,nan,nan,nan,nan,nan,nan,nan,nan,nan,nan,nan,nan,nan,nan,nan,nan,nan,445.4842885567341,447.5038318890147,nan,447.7563710624818,nan,nan,nan,nan
1,3,1,1,1.0,1.0,0.33203964377753437,0,4,0,7,8,2,6,nan,nan,nan,nan,nan,nan,nan,nan,nan,nan,nan,nan,0.0,nan,nan,nan,nan,nan,nan,nan,nan,nan,nan,nan,nan,nan,nan,nan,nan,nan,nan,445.4842885567341,448.51231732568704,nan,448.84435696946457,nan,nan,nan,nan
1,4,1,1,1.0,1.0,0.3558549170847982,0,3,4,1,0,5,7,nan,nan,nan,nan,nan,nan,nan,nan,nan,nan,nan,nan,0.0,nan,nan,nan,nan,nan,nan,nan,nan,nan,nan,nan,nan,nan,nan,nan,nan,nan,nan,445.4842885567341,449.51245616946835,nan,449.86831108655315,nan,nan,nan,nan
1,5,1,1,1.0,1.0,0.3713626563549042,1,8,5,4,1,0,2,1.0,1.0,1.0,1.0,1.0,1.0,0.0,0.0,0.0,0.0,0.0,0.0,0.0,5.0,0.0,5.0,8.0,8.0,8.0,1.0,4.0,5.0,6.0,3.0,2.0,2.2710812338627875,9.694501472404227,10.454661231138743,11.574950414011255,7.663629684597254,6.248403795412742,445.4842885567341,450.52092136396095,451.32933831959963,450.89228402031586,463.9477382861078,464.9493562296266,452.3378377261106,463.93943246256094
1,6,1,1,1.0,1.0,0.47193773183971643,0,7,3,8,4,1,0,nan,nan,nan,nan,nan,nan,nan,nan,nan,nan,nan,nan,0.0,nan,nan,nan,nan,nan,nan,nan,nan,nan,nan,nan,nan,nan,nan,nan,nan,nan,nan,445.4842885567341,465.1562357539078,nan,465.62817348574754,nan,nan,nan,nan
1,7,1,1,1.0,1.0,0.4477281649596989,0,8,6,5,2,4,3,nan,nan,nan,nan,nan,nan,nan,nan,nan,nan,nan,nan,0.0,nan,nan,nan,nan,nan,nan,nan,nan,nan,nan,nan,nan,nan,nan,nan,nan,nan,nan,445.4842885567341,466.156409950112,nan,466.6041381150717,nan,nan,nan,nan
1,8,1,1,1.0,1.0,0.383603717549704,0,7,0,2,4,3,6,nan,nan,nan,nan,nan,nan,nan,nan,nan,nan,nan,nan,0.0,nan,nan,nan,nan,nan,nan,nan,nan,nan,nan,nan,nan,nan,nan,nan,nan,nan,nan,445.4842885567341,467.1565333985491,nan,467.5401371160988,nan,nan,nan,nan
1,9,1,1,1.0,1.0,0.3435043772915378,0,1,4,3,6,8,0,nan,nan,nan,nan,nan,nan,nan,nan,nan,nan,nan,nan,0.0,nan,nan,nan,nan,nan,nan,nan,nan,nan,nan,nan,nan,nan,nan,nan,nan,nan,nan,445.4842885567341,468.15662976237945,nan,468.500134139671,nan,nan,nan,nan
1,10,0,0,0.0,1.0,0.42331617698073387,0,2,6,7,3,4,1,nan,nan,nan,nan,nan,nan,nan,nan,nan,nan,nan,nan,0.0,nan,nan,nan,nan,nan,nan,nan,nan,nan,nan,nan,nan,nan,nan,nan,nan,nan,nan,445.4842885567341,469.1568088053027,nan,469.58012498228345,nan,nan,nan,nan
1,11,1,1,1.0,1.0,0.3431668187258765,0,1,7,0,5,6,3,nan,nan,nan,nan,nan,nan,nan,nan,nan,nan,nan,nan,0.0,nan,nan,nan,nan,nan,nan,nan,nan,nan,nan,nan,nan,nan,nan,nan,nan,nan,nan,445.4842885567341,470.1569447980728,nan,470.5001116167987,nan,nan,nan,nan
1,12,1,1,1.0,1.0,0.45501247455831617,0,4,8,5,6,3,0,nan,nan,nan,nan,nan,nan,nan,nan,nan,nan,nan,nan,0.0,nan,nan,nan,nan,nan,nan,nan,nan,nan,nan,nan,nan,nan,nan,nan,nan,nan,nan,445.4842885567341,471.1570882034721,nan,471.6121006780304,nan,nan,nan,nan
1,13,1,1,1.0,1.0,0.4708629042143002,0,8,6,1,0,7,3,nan,nan,nan,nan,nan,nan,nan,nan,nan,nan,nan,nan,0.0,nan,nan,nan,nan,nan,nan,nan,nan,nan,nan,nan,nan,nan,nan,nan,nan,nan,nan,445.4842885567341,472.1572170687141,nan,472.6280799729284,nan,nan,nan,nan
1,14,1,1,1.0,1.0,0.46271730691660196,0,7,1,2,3,5,0,nan,nan,nan,nan,nan,nan,nan,nan,nan,nan,nan,nan,0.0,nan,nan,nan,nan,nan,nan,nan,nan,nan,nan,nan,nan,nan,nan,nan,nan,nan,nan,445.4842885567341,473.15735648269765,nan,473.62007378961425,nan,nan,nan,nan
1,15,1,1,1.0,1.0,0.43851828877814114,0,1,2,4,6,8,7,nan,nan,nan,nan,nan,nan,nan,nan,nan,nan,nan,nan,0.0,nan,nan,nan,nan,nan,nan,nan,nan,nan,nan,nan,nan,nan,nan,nan,nan,nan,nan,445.4842885567341,474.1575540571939,nan,474.59607234597206,nan,nan,nan,nan
1,16,1,1,1.0,1.0,0.41441763017792255,0,3,5,8,2,1,6,nan,nan,nan,nan,nan,nan,nan,nan,nan,nan,nan,nan,0.0,nan,nan,nan,nan,nan,nan,nan,nan,nan,nan,nan,nan,nan,nan,nan,nan,nan,nan,445.4842885567341,475.15763987228274,nan,475.57205750246067,nan,nan,nan,nan
1,17,1,1,1.0,1.0,0.4783607537392527,0,7,1,2,8,3,4,nan,nan,nan,nan,nan,nan,nan,nan,nan,nan,nan,nan,0.0,nan,nan,nan,nan,nan,nan,nan,nan,nan,nan,nan,nan,nan,nan,nan,nan,nan,nan,445.4842885567341,476.15776360582095,nan,476.6361243595602,nan,nan,nan,nan
1,18,1,1,1.0,1.0,0.3981463926611468,0,1,0,8,2,6,7,nan,nan,nan,nan,nan,nan,nan,nan,nan,nan,nan,nan,0.0,nan,nan,nan,nan,nan,nan,nan,nan,nan,nan,nan,nan,nan,nan,nan,nan,nan,nan,445.4842885567341,477.15790587081574,nan,477.5560522634769,nan,nan,nan,nan
1,19,1,1,1.0,1.0,0.30199208052363247,0,5,8,7,3,4,1,nan,nan,nan,nan,nan,nan,nan,nan,nan,nan,nan,nan,0.0,nan,nan,nan,nan,nan,nan,nan,nan,nan,nan,nan,nan,nan,nan,nan,nan,nan,nan,445.4842885567341,478.15803701686673,nan,478.46002909739036,nan,nan,nan,nan
1,20,1,1,1.0,1.0,0.36584397207479924,0,2,6,5,7,3,4,nan,nan,nan,nan,nan,nan,nan,nan,nan,nan,nan,nan,0.0,nan,nan,nan,nan,nan,nan,nan,nan,nan,nan,nan,nan,nan,nan,nan,nan,nan,nan,445.4842885567341,479.1581764308503,nan,479.5240204029251,nan,nan,nan,nan
1,21,1,1,1.0,1.0,0.28570231155026704,0,6,5,0,3,8,1,nan,nan,nan,nan,nan,nan,nan,nan,nan,nan,nan,nan,0.0,nan,nan,nan,nan,nan,nan,nan,nan,nan,nan,nan,nan,nan,nan,nan,nan,nan,nan,445.4842885567341,480.1583178405417,nan,480.444020152092,nan,nan,nan,nan
1,22,1,1,1.0,1.0,0.2615608836058527,0,3,4,6,2,5,0,nan,nan,nan,nan,nan,nan,nan,nan,nan,nan,nan,nan,0.0,nan,nan,nan,nan,nan,nan,nan,nan,nan,nan,nan,nan,nan,nan,nan,nan,nan,nan,445.4842885567341,481.1584489865927,nan,481.42000987019856,nan,nan,nan,nan
1,23,1,1,1.0,1.0,0.27740589634049684,0,8,7,4,5,1,3,nan,nan,nan,nan,nan,nan,nan,nan,nan,nan,nan,nan,0.0,nan,nan,nan,nan,nan,nan,nan,nan,nan,nan,nan,nan,nan,nan,nan,nan,nan,nan,445.4842885567341,482.15858583466616,nan,482.43599173100665,nan,nan,nan,nan
1,24,1,1,1.0,1.0,0.3012459733290598,0,7,4,2,0,6,5,nan,nan,nan,nan,nan,nan,nan,nan,nan,nan,nan,nan,0.0,nan,nan,nan,nan,nan,nan,nan,nan,nan,nan,nan,nan,nan,nan,nan,nan,nan,nan,445.4842885567341,483.15873807820026,nan,483.4599840515293,nan,nan,nan,nan
1,25,0,0,1.0,0.0,0.26112268457654864,0,2,6,8,3,4,7,nan,nan,nan,nan,nan,nan,nan,nan,nan,nan,nan,nan,0.0,nan,nan,nan,nan,nan,nan,nan,nan,nan,nan,nan,nan,nan,nan,nan,nan,nan,nan,445.4842885567341,484.1588595309295,nan,484.419982215506,nan,nan,nan,nan
1,26,1,1,1.0,1.0,0.4529303879244253,0,8,5,6,4,0,2,nan,nan,nan,nan,nan,nan,nan,nan,nan,nan,nan,nan,0.0,nan,nan,nan,nan,nan,nan,nan,nan,nan,nan,nan,nan,nan,nan,nan,nan,nan,nan,445.4842885567341,485.15900179592427,nan,485.6119321838487,nan,nan,nan,nan
1,27,1,1,1.0,1.0,0.4528077949071303,0,6,4,1,3,2,8,nan,nan,nan,nan,nan,nan,nan,nan,nan,nan,nan,nan,0.0,nan,nan,nan,nan,nan,nan,nan,nan,nan,nan,nan,nan,nan,nan,nan,nan,nan,nan,445.4842885567341,486.1591509032296,nan,486.61195869813673,nan,nan,nan,nan
1,28,0,0,0.0,1.0,0.6203375073382631,0,2,1,6,5,8,7,nan,nan,nan,nan,nan,nan,nan,nan,nan,nan,nan,nan,0.0,nan,nan,nan,nan,nan,nan,nan,nan,nan,nan,nan,nan,nan,nan,nan,nan,nan,nan,445.4842885567341,487.1676084001083,nan,487.78794590744656,nan,nan,nan,nan
1,29,1,1,1.0,1.0,0.5481806474272162,0,6,0,5,1,4,3,nan,nan,nan,nan,nan,nan,nan,nan,nan,nan,nan,nan,0.0,nan,nan,nan,nan,nan,nan,nan,nan,nan,nan,nan,nan,nan,nan,nan,nan,nan,nan,445.4842885567341,488.1677632095525,nan,488.7159438569797,nan,nan,nan,nan
1,30,1,1,1.0,1.0,0.5560348723083735,0,1,7,3,8,2,6,nan,nan,nan,nan,nan,nan,nan,nan,nan,nan,nan,nan,0.0,nan,nan,nan,nan,nan,nan,nan,nan,nan,nan,nan,nan,nan,nan,nan,nan,nan,nan,445.4842885567341,489.16788665787317,nan,489.72392153018154,nan,nan,nan,nan
1,31,1,1,1.0,1.0,0.5478801517747343,0,2,3,6,1,7,0,nan,nan,nan,nan,nan,nan,nan,nan,nan,nan,nan,nan,0.0,nan,nan,nan,nan,nan,nan,nan,nan,nan,nan,nan,nan,nan,nan,nan,nan,nan,nan,445.4842885567341,490.1680457438342,nan,490.71592589560896,nan,nan,nan,nan
1,32,0,0,0.0,1.0,0.5957336468854919,0,3,2,8,4,1,5,nan,nan,nan,nan,nan,nan,nan,nan,nan,nan,nan,nan,0.0,nan,nan,nan,nan,nan,nan,nan,nan,nan,nan,nan,nan,nan,nan,nan,nan,nan,nan,445.4842885567341,491.16818116640206,nan,491.76391481328756,nan,nan,nan,nan
1,33,1,1,1.0,1.0,0.4755861589219421,0,0,6,3,5,8,1,nan,nan,nan,nan,nan,nan,nan,nan,nan,nan,nan,nan,0.0,nan,nan,nan,nan,nan,nan,nan,nan,nan,nan,nan,nan,nan,nan,nan,nan,nan,nan,445.4842885567341,492.1683066104306,nan,492.64389276935253,nan,nan,nan,nan
1,34,1,1,1.0,1.0,0.5634357879171148,0,3,5,8,4,6,0,nan,nan,nan,nan,nan,nan,nan,nan,nan,nan,nan,nan,0.0,nan,nan,nan,nan,nan,nan,nan,nan,nan,nan,nan,nan,nan,nan,nan,nan,nan,nan,445.4842885567341,493.16844117769506,nan,493.7318769656122,nan,nan,nan,nan
1,35,1,1,1.0,1.0,0.45930636837147176,1,0,6,1,8,5,2,1.0,1.0,1.0,1.0,1.0,1.0,1.0,1.0,1.0,1.0,0.0,0.0,4.0,0.0,6.0,1.0,8.0,8.0,8.0,3.0,1.0,2.0,6.0,5.0,4.0,3.7823188852053136,1.343340729828924,2.5182325842324644,8.206480384105816,7.182910011848435,5.84771858563181,445.4842885567341,494.16856491123326,494.9769966920139,494.62787127960473,504.2365872482769,505.2438193844864,495.9938079091953,504.2282494935207
1,36,1,1,1.0,1.0,0.5026860713260248,0,6,2,8,1,7,3,nan,nan,nan,nan,nan,nan,nan,nan,nan,nan,nan,nan,0.0,nan,nan,nan,nan,nan,nan,nan,nan,nan,nan,nan,nan,nan,nan,nan,nan,nan,nan,445.4842885567341,505.4451132261893,nan,505.9477992975153,nan,nan,nan,nan
1,37,1,1,1.0,1.0,0.5104789996985346,0,5,0,4,6,8,7,nan,nan,nan,nan,nan,nan,nan,nan,nan,nan,nan,nan,0.0,nan,nan,nan,nan,nan,nan,nan,nan,nan,nan,nan,nan,nan,nan,nan,nan,nan,nan,445.4842885567341,506.4452780140564,nan,506.9557570137549,nan,nan,nan,nan
1,38,1,1,1.0,1.0,0.3903372136410326,0,6,4,5,8,3,0,nan,nan,nan,nan,nan,nan,nan,nan,nan,nan,nan,nan,0.0,nan,nan,nan,nan,nan,nan,nan,nan,nan,nan,nan,nan,nan,nan,nan,nan,nan,nan,445.4842885567341,507.4454142919276,nan,507.8357515055686,nan,nan,nan,nan
1,39,1,1,1.0,1.0,0.46220555203035474,0,2,8,0,7,5,1,nan,nan,nan,nan,nan,nan,nan,nan,nan,nan,nan,nan,0.0,nan,nan,nan,nan,nan,nan,nan,nan,nan,nan,nan,nan,nan,nan,nan,nan,nan,nan,445.4842885567341,508.44552747672424,nan,508.9077330287546,nan,nan,nan,nan
1,40,1,1,1.0,1.0,0.4380575668765232,0,1,7,6,3,0,5,nan,nan,nan,nan,nan,nan,nan,nan,nan,nan,nan,nan,0.0,nan,nan,nan,nan,nan,nan,nan,nan,nan,nan,nan,nan,nan,nan,nan,nan,nan,nan,445.4842885567341,509.44566518010106,nan,509.8837227469776,nan,nan,nan,nan
1,41,0,0,0.0,1.0,0.4459152129711583,0,5,4,8,1,7,0,nan,nan,nan,nan,nan,nan,nan,nan,nan,nan,nan,nan,0.0,nan,nan,nan,nan,nan,nan,nan,nan,nan,nan,nan,nan,nan,nan,nan,nan,nan,nan,445.4842885567341,510.44580373878125,nan,510.8917189517524,nan,nan,nan,nan
1,42,1,1,1.0,1.0,0.39779001753777266,0,0,5,2,4,8,3,nan,nan,nan,nan,nan,nan,nan,nan,nan,nan,nan,nan,0.0,nan,nan,nan,nan,nan,nan,nan,nan,nan,nan,nan,nan,nan,nan,nan,nan,nan,nan,445.4842885567341,511.44593117851764,nan,511.8437211960554,nan,nan,nan,nan
1,43,1,1,1.0,1.0,0.3656620782567188,0,2,3,6,7,1,0,nan,nan,nan,nan,nan,nan,nan,nan,nan,nan,nan,nan,0.0,nan,nan,nan,nan,nan,nan,nan,nan,nan,nan,nan,nan,nan,nan,nan,nan,nan,nan,445.4842885567341,512.4460380910896,nan,512.8117001693463,nan,nan,nan,nan
1,44,1,1,1.0,1.0,0.30949050036724657,0,8,5,3,2,6,4,nan,nan,nan,nan,nan,nan,nan,nan,nan,nan,nan,nan,0.0,nan,nan,nan,nan,nan,nan,nan,nan,nan,nan,nan,nan,nan,nan,nan,nan,nan,nan,445.4842885567341,513.4462134276982,nan,513.7557039280655,nan,nan,nan,nan
1,45,1,1,1.0,1.0,0.3893253931310028,0,7,4,1,0,3,2,nan,nan,nan,nan,nan,nan,nan,nan,nan,nan,nan,nan,0.0,nan,nan,nan,nan,nan,nan,nan,nan,nan,nan,nan,nan,nan,nan,nan,nan,nan,nan,445.4842885567341,514.4463613947155,nan,514.8356867878465,nan,nan,nan,nan
1,46,1,1,1.0,1.0,0.39718189870473,1,5,7,8,1,2,6,1.0,1.0,1.0,1.0,1.0,1.0,0.0,0.0,1.0,0.0,0.0,1.0,2.0,2.0,0.0,8.0,4.0,5.0,6.0,2.0,4.0,6.0,5.0,1.0,3.0,2.783960492000915,5.144646431552246,10.136198343127035,7.152644917136058,1.6407928749686107,3.753462755586952,445.4842885567341,515.4464845580515,516.2549149133265,515.8436664567562,527.4481116246898,528.4564083251171,517.2717252752045,527.4397761507425
1,47,1,1,1.0,1.0,0.2909415974281728,0,7,3,5,6,4,1,nan,nan,nan,nan,nan,nan,nan,nan,nan,nan,nan,nan,0.0,nan,nan,nan,nan,nan,nan,nan,nan,nan,nan,nan,nan,nan,nan,nan,nan,nan,nan,445.4842885567341,528.6566259135725,nan,528.9475675110007,nan,nan,nan,nan
1,48,1,1,1.0,1.0,0.3148007761919871,0,6,0,8,7,1,2,nan,nan,nan,nan,nan,nan,nan,nan,nan,nan,nan,nan,0.0,nan,nan,nan,nan,nan,nan,nan,nan,nan,nan,nan,nan,nan,nan,nan,nan,nan,nan,445.4842885567341,529.6567322559422,nan,529.9715330321342,nan,nan,nan,nan
1,49,1,1,1.0,1.0,0.3626240505836904,0,1,6,7,2,3,5,nan,nan,nan,nan,nan,nan,nan,nan,nan,nan,nan,nan,0.0,nan,nan,nan,nan,nan,nan,nan,nan,nan,nan,nan,nan,nan,nan,nan,nan,nan,nan,445.4842885567341,530.6569047415396,nan,531.0195287921233,nan,nan,nan,nan
1,50,1,1,1.0,1.0,0.36247836449183524,1,8,7,0,5,2,6,1.0,1.0,1.0,1.0,1.0,1.0,1.0,0.0,0.0,1.0,0.0,1.0,3.0,8.0,1.0,3.0,5.0,1.0,6.0,1.0,6.0,5.0,4.0,3.0,2.0,1.149634544388391,7.278171675396152,6.509902527090162,5.558846815372817,3.887568463338539,2.1738096141489223,445.4842885567341,531.6570569849573,532.4654673832702,532.0195353494491,540.7915951897157,541.7942967989948,533.4739428414032,540.7832708347123
1,51,1,1,1.0,1.0,0.3873123007360846,0,4,8,7,3,5,1,nan,nan,nan,nan,nan,nan,nan,nan,nan,nan,nan,nan,0.0,nan,nan,nan,nan,nan,nan,nan,nan,nan,nan,nan,nan,nan,nan,nan,nan,nan,nan,445.4842885567341,542.0001314312685,nan,542.3874437320046,nan,nan,nan,nan
1,52,0,0,0.0,1.0,0.5791456631850451,0,1,7,6,5,2,8,nan,nan,nan,nan,nan,nan,nan,nan,nan,nan,nan,nan,0.0,nan,nan,nan,nan,nan,nan,nan,nan,nan,nan,nan,nan,nan,nan,nan,nan,nan,nan,445.4842885567341,543.0002768322593,nan,543.5794224954443,nan,nan,nan,nan
1,53,1,1,1.0,1.0,0.6026932273525745,0,2,0,1,4,6,3,nan,nan,nan,nan,nan,nan,nan,nan,nan,nan,nan,nan,0.0,nan,nan,nan,nan,nan,nan,nan,nan,nan,nan,nan,nan,nan,nan,nan,nan,nan,nan,445.4842885567341,544.0087157976814,nan,544.6114090250339,nan,nan,nan,nan
1,54,1,1,1.0,1.0,0.6025238778674975,0,8,4,6,7,2,1,nan,nan,nan,nan,nan,nan,nan,nan,nan,nan,nan,nan,0.0,nan,nan,nan,nan,nan,nan,nan,nan,nan,nan,nan,nan,nan,nan,nan,nan,nan,nan,445.4842885567341,545.008870321908,nan,545.6113941997755,nan,nan,nan,nan
1,55,1,1,1.0,1.0,0.6423754661809653,0,4,1,8,6,3,0,nan,nan,nan,nan,nan,nan,nan,nan,nan,nan,nan,nan,0.0,nan,nan,nan,nan,nan,nan,nan,nan,nan,nan,nan,nan,nan,nan,nan,nan,nan,nan,445.4842885567341,546.0090120167006,nan,546.6513874828815,nan,nan,nan,nan
1,56,1,1,1.0,1.0,0.7862236172659323,0,1,3,2,5,4,7,nan,nan,nan,nan,nan,nan,nan,nan,nan,nan,nan,nan,0.0,nan,nan,nan,nan,nan,nan,nan,nan,nan,nan,nan,nan,nan,nan,nan,nan,nan,nan,445.4842885567341,547.0091448733583,nan,547.7953684906242,nan,nan,nan,nan
1,57,1,1,1.0,1.0,0.7460815118392929,0,3,2,1,4,7,0,nan,nan,nan,nan,nan,nan,nan,nan,nan,nan,nan,nan,0.0,nan,nan,nan,nan,nan,nan,nan,nan,nan,nan,nan,nan,nan,nan,nan,nan,nan,nan,445.4842885567341,548.0092777301325,nan,548.7553592419717,nan,nan,nan,nan
1,58,1,1,nan,nan,nan,1,8,6,0,3,1,2,1.0,1.0,1.0,1.0,1.0,1.0,1.0,0.0,0.0,1.0,0.0,1.0,3.0,8.0,2.0,5.0,3.0,8.0,2.0,1.0,3.0,6.0,5.0,4.0,2.0,0.8144585135160014,3.7564417673274875,11.21244182891678,9.900723840924911,8.205559795722365,2.6289312820881605,445.4842885567341,549.0094177143183,549.8178443632787,nan,562.0945061481325,563.1037083265837,550.8429904842051,562.0861735250801
1,59,1,1,1.0,1.0,0.3798603522591293,0,6,4,3,1,2,7,nan,nan,nan,nan,nan,nan,nan,nan,nan,nan,nan,nan,0.0,nan,nan,nan,nan,nan,nan,nan,nan,nan,nan,nan,nan,nan,nan,nan,nan,nan,nan,445.4842885567341,563.3113787188195,nan,563.6912390710786,nan,nan,nan,nan
1,60,1,1,1.0,1.0,0.3156751785427332,0,3,1,2,8,5,4,nan,nan,nan,nan,nan,nan,nan,nan,nan,nan,nan,nan,0.0,nan,nan,nan,nan,nan,nan,nan,nan,nan,nan,nan,nan,nan,nan,nan,nan,nan,nan,445.4842885567341,564.3115224093199,nan,564.6271975878626,nan,nan,nan,nan
1,61,1,1,1.0,1.0,0.2595737352967262,0,1,0,3,2,4,8,nan,nan,nan,nan,nan,nan,nan,nan,nan,nan,nan,nan,0.0,nan,nan,nan,nan,nan,nan,nan,nan,nan,nan,nan,nan,nan,nan,nan,nan,nan,nan,445.4842885567341,565.3116641041124,nan,565.5712378394092,nan,nan,nan,nan
1,62,1,1,1.0,1.0,0.2753942294511944,0,8,6,7,3,2,0,nan,nan,nan,nan,nan,nan,nan,nan,nan,nan,nan,nan,0.0,nan,nan,nan,nan,nan,nan,nan,nan,nan,nan,nan,nan,nan,nan,nan,nan,nan,nan,445.4842885567341,566.3118000968825,nan,566.5871943263337,nan,nan,nan,nan
1,63,1,1,1.0,1.0,0.3792610715609044,0,4,7,1,0,6,3,nan,nan,nan,nan,nan,nan,nan,nan,nan,nan,nan,nan,0.0,nan,nan,nan,nan,nan,nan,nan,nan,nan,nan,nan,nan,nan,nan,nan,nan,nan,nan,445.4842885567341,567.3119301026454,nan,567.6911911742063,nan,nan,nan,nan
1,64,1,1,1.0,1.0,0.4430813171202317,0,1,6,3,2,8,5,nan,nan,nan,nan,nan,nan,nan,nan,nan,nan,nan,nan,0.0,nan,nan,nan,nan,nan,nan,nan,nan,nan,nan,nan,nan,nan,nan,nan,nan,nan,nan,445.4842885567341,568.3120908990968,nan,568.755172216217,nan,nan,nan,nan
1,65,1,1,1.0,1.0,0.4589023814769462,0,4,0,6,3,7,2,nan,nan,nan,nan,nan,nan,nan,nan,nan,nan,nan,nan,0.0,nan,nan,nan,nan,nan,nan,nan,nan,nan,nan,nan,nan,nan,nan,nan,nan,nan,nan,445.4842885567341,569.3122898989823,nan,569.7711922804592,nan,nan,nan,nan
1,66,1,1,1.0,1.0,0.5308157657273114,0,1,3,7,4,8,0,nan,nan,nan,nan,nan,nan,nan,nan,nan,nan,nan,nan,0.0,nan,nan,nan,nan,nan,nan,nan,nan,nan,nan,nan,nan,nan,nan,nan,nan,nan,nan,445.4842885567341,570.3123363703489,nan,570.8431521360762,nan,nan,nan,nan
1,67,1,1,1.0,1.0,0.5386813945369795,0,4,5,0,8,6,2,nan,nan,nan,nan,nan,nan,nan,nan,nan,nan,nan,nan,0.0,nan,nan,nan,nan,nan,nan,nan,nan,nan,nan,nan,nan,nan,nan,nan,nan,nan,nan,445.4842885567341,571.3124783502426,nan,571.8511597447796,nan,nan,nan,nan
1,68,0,0,1.0,0.0,0.7385326293297112,0,2,7,3,4,5,1,nan,nan,nan,nan,nan,nan,nan,nan,nan,nan,nan,nan,0.0,nan,nan,nan,nan,nan,nan,nan,nan,nan,nan,nan,nan,nan,nan,nan,nan,nan,nan,445.4842885567341,572.312615198316,nan,573.0511478276458,nan,nan,nan,nan
1,69,1,1,1.0,1.0,0.5463491639820859,0,6,5,7,2,3,8,nan,nan,nan,nan,nan,nan,nan,nan,nan,nan,nan,nan,0.0,nan,nan,nan,nan,nan,nan,nan,nan,nan,nan,nan,nan,nan,nan,nan,nan,nan,nan,445.4842885567341,573.3127497655805,nan,573.8590989295626,nan,nan,nan,nan
1,70,1,1,1.0,1.0,0.5142865125089884,0,5,7,4,1,0,2,nan,nan,nan,nan,nan,nan,nan,nan,nan,nan,nan,nan,0.0,nan,nan,nan,nan,nan,nan,nan,nan,nan,nan,nan,nan,nan,nan,nan,nan,nan,nan,445.4842885567341,574.3128677970963,nan,574.8271543096052,nan,nan,nan,nan
1,71,1,1,1.0,1.0,0.5137513795634732,0,4,1,8,6,2,0,nan,nan,nan,nan,nan,nan,nan,nan,nan,nan,nan,nan,0.0,nan,nan,nan,nan,nan,nan,nan,nan,nan,nan,nan,nan,nan,nan,nan,nan,nan,nan,445.4842885567341,575.3213660632027,nan,575.8351174427662,nan,nan,nan,nan
1,72,1,1,1.0,1.0,0.5696207511937246,0,1,6,0,4,7,2,nan,nan,nan,nan,nan,nan,nan,nan,nan,nan,nan,nan,0.0,nan,nan,nan,nan,nan,nan,nan,nan,nan,nan,nan,nan,nan,nan,nan,nan,nan,nan,445.4842885567341,576.3214940732578,nan,576.8911148244515,nan,nan,nan,nan
1,73,1,1,1.0,1.0,0.6334258863935247,0,7,1,5,0,6,3,nan,nan,nan,nan,nan,nan,nan,nan,nan,nan,nan,nan,0.0,nan,nan,nan,nan,nan,nan,nan,nan,nan,nan,nan,nan,nan,nan,nan,nan,nan,nan,445.4842885567341,577.3216597164283,nan,577.9550856028218,nan,nan,nan,nan
1,74,0,0,0.0,1.0,0.7293216127436608,0,1,0,2,6,4,5,nan,nan,nan,nan,nan,nan,nan,nan,nan,nan,nan,nan,0.0,nan,nan,nan,nan,nan,nan,nan,nan,nan,nan,nan,nan,nan,nan,nan,nan,nan,nan,445.4842885567341,578.3217572206631,nan,579.0510788334068,nan,nan,nan,nan
1,75,1,1,1.0,1.0,0.5851393241900951,0,5,2,7,8,3,1,nan,nan,nan,nan,nan,nan,nan,nan,nan,nan,nan,nan,0.0,nan,nan,nan,nan,nan,nan,nan,nan,nan,nan,nan,nan,nan,nan,nan,nan,nan,nan,445.4842885567341,579.3219351231819,nan,579.907074447372,nan,nan,nan,nan
1,76,1,1,1.0,1.0,0.5610497845336795,0,6,5,2,3,0,7,nan,nan,nan,nan,nan,nan,nan,nan,nan,nan,nan,nan,0.0,nan,nan,nan,nan,nan,nan,nan,nan,nan,nan,nan,nan,nan,nan,nan,nan,nan,nan,445.4842885567341,580.3220095343422,nan,580.8830593188759,nan,nan,nan,nan
1,77,1,1,1.0,1.0,0.6968806334771216,0,4,7,1,8,3,0,nan,nan,nan,nan,nan,nan,nan,nan,nan,nan,nan,nan,0.0,nan,nan,nan,nan,nan,nan,nan,nan,nan,nan,nan,nan,nan,nan,nan,nan,nan,nan,445.4842885567341,581.3221831603441,nan,582.0190637938213,nan,nan,nan,nan
1,78,1,1,1.0,1.0,0.7207355357240885,0,5,2,6,7,1,4,nan,nan,nan,nan,nan,nan,nan,nan,nan,nan,nan,nan,0.0,nan,nan,nan,nan,nan,nan,nan,nan,nan,nan,nan,nan,nan,nan,nan,nan,nan,nan,445.4842885567341,582.3223239998333,nan,583.0430595355574,nan,nan,nan,nan
1,79,1,1,nan,nan,nan,0,8,0,5,2,6,7,nan,nan,nan,nan,nan,nan,nan,nan,nan,nan,nan,nan,0.0,nan,nan,nan,nan,nan,nan,nan,nan,nan,nan,nan,nan,nan,nan,nan,nan,nan,nan,445.4842885567341,583.3224597075023,nan,nan,nan,nan,nan,nan
1,80,1,1,nan,nan,nan,0,1,4,3,6,2,0,nan,nan,nan,nan,nan,nan,nan,nan,nan,nan,nan,nan,0.0,nan,nan,nan,nan,nan,nan,nan,nan,nan,nan,nan,nan,nan,nan,nan,nan,nan,nan,445.4842885567341,584.3225959853735,nan,nan,nan,nan,nan,nan
1,81,1,1,nan,nan,nan,1,6,5,0,7,8,1,1.0,1.0,1.0,1.0,1.0,1.0,1.0,0.0,0.0,0.0,0.0,0.0,1.0,6.0,1.0,4.0,8.0,0.0,2.0,1.0,2.0,6.0,5.0,4.0,3.0,1.4449940542690456,2.3811156483134255,6.07561512500979,5.1002027346985415,4.475983303389512,3.332821388496086,445.4842885567341,585.3227359695593,586.131162333535,nan,593.2571355586406,594.2566662837053,587.1396360810613,593.2488049314125
1,82,1,1,1.0,1.0,0.33761905424762517,0,7,8,5,2,0,3,nan,nan,nan,nan,nan,nan,nan,nan,nan,nan,nan,nan,0.0,nan,nan,nan,nan,nan,nan,nan,nan,nan,nan,nan,nan,nan,nan,nan,nan,nan,nan,445.4842885567341,594.4573240668979,nan,594.7949431211455,nan,nan,nan,nan
1,83,1,1,1.0,1.0,0.2894642084138468,0,2,5,1,4,6,7,nan,nan,nan,nan,nan,nan,nan,nan,nan,nan,nan,nan,0.0,nan,nan,nan,nan,nan,nan,nan,nan,nan,nan,nan,nan,nan,nan,nan,nan,nan,nan,445.4842885567341,595.4574574937578,nan,595.7469217021717,nan,nan,nan,nan
1,84,1,1,1.0,1.0,0.2733135683229193,0,4,3,5,0,1,6,nan,nan,nan,nan,nan,nan,nan,nan,nan,nan,nan,nan,0.0,nan,nan,nan,nan,nan,nan,nan,nan,nan,nan,nan,nan,nan,nan,nan,nan,nan,nan,445.4842885567341,596.4575920610223,nan,596.7309056293452,nan,nan,nan,nan
1,85,1,1,1.0,1.0,0.28915259381756186,1,3,5,6,4,2,7,1.0,1.0,1.0,1.0,1.0,1.0,1.0,0.0,0.0,1.0,0.0,0.0,2.0,3.0,8.0,4.0,4.0,7.0,4.0,2.0,3.0,6.0,1.0,5.0,4.0,2.3328079887432978,5.684959169360809,9.244665846927091,1.4608681470854208,8.276219309307635,6.8205818951828405,445.4842885567341,597.4577445896575,598.2661515667569,597.7468971834751,608.5592317007249,609.5601155111799,599.2746270248899,608.5508982223691
1,86,1,1,1.0,1.0,0.29106989270076156,1,5,1,0,3,6,4,1.0,1.0,1.0,1.0,1.0,1.0,0.0,0.0,0.0,1.0,0.0,1.0,2.0,4.0,2.0,1.0,3.0,5.0,4.0,3.0,6.0,5.0,1.0,4.0,2.0,5.838384690810926,14.030582126113586,12.6707375170663,1.7037478414131328,9.503377154120244,5.040986001840793,445.4842885567341,609.7677576785209,610.5761817616876,610.0588275712216,625.6532454807311,626.6575644633267,611.584658075124,625.6449128577951
1,87,1,1,1.0,1.0,0.4448717462364584,1,3,7,6,2,0,1,1.0,1.0,1.0,1.0,1.0,1.0,0.0,0.0,0.0,1.0,0.0,0.0,1.0,5.0,1.0,0.0,2.0,4.0,6.0,3.0,4.0,5.0,1.0,6.0,2.0,6.81808641331736,8.144716281094588,9.12889806786552,2.1072509813820943,11.120010639890097,5.296050877775997,445.4842885567341,626.8617711735424,627.6701955416938,627.3066429197788,639.8385192580754,640.8378372985171,628.6786804081639,639.8301931924652
1,88,1,1,1.0,1.0,0.3238048101775348,0,0,6,4,7,3,2,nan,nan,nan,nan,nan,nan,nan,nan,nan,nan,nan,nan,0.0,nan,nan,nan,nan,nan,nan,nan,nan,nan,nan,nan,nan,nan,nan,nan,nan,nan,nan,445.4842885567341,641.0387066259282,nan,641.3625114361057,nan,nan,nan,nan
1,89,1,1,1.0,1.0,0.7076377483317629,0,4,7,6,0,2,3,nan,nan,nan,nan,nan,nan,nan,nan,nan,nan,nan,nan,0.0,nan,nan,nan,nan,nan,nan,nan,nan,nan,nan,nan,nan,nan,nan,nan,nan,nan,nan,445.4842885567341,642.0388454697095,nan,642.7464832180412,nan,nan,nan,nan
1,90,1,1,nan,nan,nan,0,3,2,0,5,1,6,nan,nan,nan,nan,nan,nan,nan,nan,nan,nan,nan,nan,0.0,nan,nan,nan,nan,nan,nan,nan,nan,nan,nan,nan,nan,nan,nan,nan,nan,nan,nan,445.4842885567341,643.0389854538953,nan,nan,nan,nan,nan,nan
1,91,1,1,nan,nan,nan,0,4,1,3,7,0,2,nan,nan,nan,nan,nan,nan,nan,nan,nan,nan,nan,nan,0.0,nan,nan,nan,nan,nan,nan,nan,nan,nan,nan,nan,nan,nan,nan,nan,nan,nan,nan,445.4842885567341,644.0391026301077,nan,nan,nan,nan,nan,nan
1,92,1,1,1.0,1.0,0.0032179257832467556,0,5,2,0,6,4,3,nan,nan,nan,nan,nan,nan,nan,nan,nan,nan,nan,nan,0.0,nan,nan,nan,nan,nan,nan,nan,nan,nan,nan,nan,nan,nan,nan,nan,nan,nan,nan,445.4842885567341,645.0392688434804,nan,645.0424867692636,nan,nan,nan,nan
1,93,1,1,nan,nan,nan,0,6,8,5,1,3,2,nan,nan,nan,nan,nan,nan,nan,nan,nan,nan,nan,nan,0.0,nan,nan,nan,nan,nan,nan,nan,nan,nan,nan,nan,nan,nan,nan,nan,nan,nan,nan,445.4842885567341,646.0394019853557,nan,nan,nan,nan,nan,nan
1,94,0,0,0.0,1.0,0.48286248557269573,0,7,1,0,2,5,8,nan,nan,nan,nan,nan,nan,nan,nan,nan,nan,nan,nan,0.0,nan,nan,nan,nan,nan,nan,nan,nan,nan,nan,nan,nan,nan,nan,nan,nan,nan,nan,445.4842885567341,647.0395328463055,nan,647.5223953318782,nan,nan,nan,nan
1,95,1,1,1.0,1.0,0.46674833830911666,0,6,2,3,4,0,1,nan,nan,nan,nan,nan,nan,nan,nan,nan,nan,nan,nan,0.0,nan,nan,nan,nan,nan,nan,nan,nan,nan,nan,nan,nan,nan,nan,nan,nan,nan,nan,445.4842885567341,648.0396711198846,nan,648.5064194581937,nan,nan,nan,nan
1,96,1,1,nan,nan,nan,0,3,1,2,7,5,8,nan,nan,nan,nan,nan,nan,nan,nan,nan,nan,nan,nan,0.0,nan,nan,nan,nan,nan,nan,nan,nan,nan,nan,nan,nan,nan,nan,nan,nan,nan,nan,445.4842885567341,649.039817091194,nan,nan,nan,nan,nan,nan
1,97,1,1,1.0,1.0,0.5384171067271382,0,7,8,4,0,6,2,nan,nan,nan,nan,nan,nan,nan,nan,nan,nan,nan,nan,0.0,nan,nan,nan,nan,nan,nan,nan,nan,nan,nan,nan,nan,nan,nan,nan,nan,nan,nan,445.4842885567341,650.0399527988629,nan,650.5783699055901,nan,nan,nan,nan
1,98,0,0,0.0,1.0,0.6503103743307292,0,3,1,5,6,7,4,nan,nan,nan,nan,nan,nan,nan,nan,nan,nan,nan,nan,0.0,nan,nan,nan,nan,nan,nan,nan,nan,nan,nan,nan,nan,nan,nan,nan,nan,nan,nan,445.4842885567341,651.0400782428915,nan,651.6903886172222,nan,nan,nan,nan
1,99,1,1,1.0,1.0,0.5301597502548248,0,8,6,4,2,0,3,nan,nan,nan,nan,nan,nan,nan,nan,nan,nan,nan,nan,0.0,nan,nan,nan,nan,nan,nan,nan,nan,nan,nan,nan,nan,nan,nan,nan,nan,nan,nan,445.4842885567341,652.0402165164705,nan,652.5703762667254,nan,nan,nan,nan
1,100,1,1,1.0,1.0,0.72202703950461,0,2,4,8,3,1,0,nan,nan,nan,nan,nan,nan,nan,nan,nan,nan,nan,nan,0.0,nan,nan,nan,nan,nan,nan,nan,nan,nan,nan,nan,nan,nan,nan,nan,nan,nan,nan,445.4842885567341,653.0403547900496,nan,653.7623818295542,nan,nan,nan,nan
1,101,1,1,1.0,1.0,0.7778727477416396,0,8,6,7,5,0,3,nan,nan,nan,nan,nan,nan,nan,nan,nan,nan,nan,nan,0.0,nan,nan,nan,nan,nan,nan,nan,nan,nan,nan,nan,nan,nan,nan,nan,nan,nan,nan,445.4842885567341,654.0404902127339,nan,654.8183629604755,nan,nan,nan,nan
1,102,1,1,nan,nan,nan,0,3,1,5,8,2,4,nan,nan,nan,nan,nan,nan,nan,nan,nan,nan,nan,nan,0.0,nan,nan,nan,nan,nan,nan,nan,nan,nan,nan,nan,nan,nan,nan,nan,nan,nan,nan,445.4842885567341,655.0406336181331,nan,nan,nan,nan,nan,nan
1,103,1,1,nan,nan,nan,0,6,7,0,3,5,8,nan,nan,nan,nan,nan,nan,nan,nan,nan,nan,nan,nan,0.0,nan,nan,nan,nan,nan,nan,nan,nan,nan,nan,nan,nan,nan,nan,nan,nan,nan,nan,445.4842885567341,656.0407630535774,nan,nan,nan,nan,nan,nan
1,104,1,1,nan,nan,nan,0,8,2,6,0,4,5,nan,nan,nan,nan,nan,nan,nan,nan,nan,nan,nan,nan,0.0,nan,nan,nan,nan,nan,nan,nan,nan,nan,nan,nan,nan,nan,nan,nan,nan,nan,nan,445.4842885567341,657.0408765234752,nan,nan,nan,nan,nan,nan
1,105,1,1,nan,nan,nan,0,3,5,0,1,8,6,nan,nan,nan,nan,nan,nan,nan,nan,nan,nan,nan,nan,0.0,nan,nan,nan,nan,nan,nan,nan,nan,nan,nan,nan,nan,nan,nan,nan,nan,nan,nan,445.4842885567341,658.0410427368479,nan,nan,nan,nan,nan,nan
1,106,1,1,nan,nan,nan,0,5,7,8,0,6,4,nan,nan,nan,nan,nan,nan,nan,nan,nan,nan,nan,nan,0.0,nan,nan,nan,nan,nan,nan,nan,nan,nan,nan,nan,nan,nan,nan,nan,nan,nan,nan,445.4842885567341,659.0411775892135,nan,nan,nan,nan,nan,nan
1,107,1,1,1.0,1.0,0.07302099850494415,0,2,4,7,8,3,5,nan,nan,nan,nan,nan,nan,nan,nan,nan,nan,nan,nan,0.0,nan,nan,nan,nan,nan,nan,nan,nan,nan,nan,nan,nan,nan,nan,nan,nan,nan,nan,445.4842885567341,660.0413152925903,nan,660.1143362910952,nan,nan,nan,nan
1,108,1,1,1.0,1.0,0.016841437784023583,0,8,3,4,7,2,0,nan,nan,nan,nan,nan,nan,nan,nan,nan,nan,nan,nan,0.0,nan,nan,nan,nan,nan,nan,nan,nan,nan,nan,nan,nan,nan,nan,nan,nan,nan,nan,445.4842885567341,661.0414629745064,nan,661.0583044122905,nan,nan,nan,nan
1,109,1,1,1.0,1.0,0.08870806568302214,0,0,6,1,5,4,2,nan,nan,nan,nan,nan,nan,nan,nan,nan,nan,nan,nan,0.0,nan,nan,nan,nan,nan,nan,nan,nan,nan,nan,nan,nan,nan,nan,nan,nan,nan,nan,445.4842885567341,662.0415878483327,nan,662.1302959140157,nan,nan,nan,nan
1,110,1,1,1.0,1.0,0.1365447398275137,0,5,0,2,3,6,1,nan,nan,nan,nan,nan,nan,nan,nan,nan,nan,nan,nan,0.0,nan,nan,nan,nan,nan,nan,nan,nan,nan,nan,nan,nan,nan,nan,nan,nan,nan,nan,445.4842885567341,663.0417363855522,nan,663.1782811253797,nan,nan,nan,nan
1,111,1,1,1.0,1.0,0.3040450868429616,0,7,1,6,2,5,0,nan,nan,nan,nan,nan,nan,nan,nan,nan,nan,nan,nan,0.0,nan,nan,nan,nan,nan,nan,nan,nan,nan,nan,nan,nan,nan,nan,nan,nan,nan,nan,445.4842885567341,664.050203290768,nan,664.3542483776109,nan,nan,nan,nan
1,112,1,1,1.0,1.0,0.23991636303253472,0,0,5,8,6,3,4,nan,nan,nan,nan,nan,nan,nan,nan,nan,nan,nan,nan,0.0,nan,nan,nan,nan,nan,nan,nan,nan,nan,nan,nan,nan,nan,nan,nan,nan,nan,nan,445.4842885567341,665.0503387133358,nan,665.2902550763683,nan,nan,nan,nan
1,113,1,1,1.0,1.0,0.24739283020608127,0,8,3,0,5,2,1,nan,nan,nan,nan,nan,nan,nan,nan,nan,nan,nan,nan,0.0,nan,nan,nan,nan,nan,nan,nan,nan,nan,nan,nan,nan,nan,nan,nan,nan,nan,nan,445.4842885567341,666.0588349837344,nan,666.3062278139405,nan,nan,nan,nan
1,114,1,1,1.0,1.0,0.27928442135453224,0,1,7,8,4,6,0,nan,nan,nan,nan,nan,nan,nan,nan,nan,nan,nan,nan,0.0,nan,nan,nan,nan,nan,nan,nan,nan,nan,nan,nan,nan,nan,nan,nan,nan,nan,nan,445.4842885567341,667.0589575768681,nan,667.3382419982227,nan,nan,nan,nan
1,115,1,1,1.0,1.0,0.25514156790450215,0,3,0,4,7,8,6,nan,nan,nan,nan,nan,nan,nan,nan,nan,nan,nan,nan,0.0,nan,nan,nan,nan,nan,nan,nan,nan,nan,nan,nan,nan,nan,nan,nan,nan,nan,nan,445.4842885567341,668.0590910037281,nan,668.3142325716326,nan,nan,nan,nan
1,116,1,1,1.0,1.0,0.2709931379649788,0,4,8,7,3,0,2,nan,nan,nan,nan,nan,nan,nan,nan,nan,nan,nan,nan,0.0,nan,nan,nan,nan,nan,nan,nan,nan,nan,nan,nan,nan,nan,nan,nan,nan,nan,nan,445.4842885567341,669.059231273015,nan,669.33022441098,nan,nan,nan,nan
1,117,1,1,1.0,1.0,0.24685056961607188,0,2,5,6,7,1,0,nan,nan,nan,nan,nan,nan,nan,nan,nan,nan,nan,nan,0.0,nan,nan,nan,nan,nan,nan,nan,nan,nan,nan,nan,nan,nan,nan,nan,nan,nan,nan,445.4842885567341,670.0593572872458,nan,670.3062078568619,nan,nan,nan,nan
1,118,1,1,1.0,1.0,0.35870164236985147,0,6,2,0,8,4,5,nan,nan,nan,nan,nan,nan,nan,nan,nan,nan,nan,nan,0.0,nan,nan,nan,nan,nan,nan,nan,nan,nan,nan,nan,nan,nan,nan,nan,nan,nan,nan,445.4842885567341,671.0594947056379,nan,671.4181963480078,nan,nan,nan,nan
1,119,0,0,1.0,0.0,0.28659239422995597,0,7,4,2,0,8,6,nan,nan,nan,nan,nan,nan,nan,nan,nan,nan,nan,nan,0.0,nan,nan,nan,nan,nan,nan,nan,nan,nan,nan,nan,nan,nan,nan,nan,nan,nan,nan,445.4842885567341,672.0595970565919,nan,672.3461894508218,nan,nan,nan,nan
1,120,1,1,1.0,1.0,0.4464050150709227,0,3,2,4,8,0,1,nan,nan,nan,nan,nan,nan,nan,nan,nan,nan,nan,nan,0.0,nan,nan,nan,nan,nan,nan,nan,nan,nan,nan,nan,nan,nan,nan,nan,nan,nan,nan,445.4842885567341,673.0597795206122,nan,673.5061845356831,nan,nan,nan,nan
1,121,0,0,0.0,1.0,0.5022587061394006,0,4,5,8,6,7,0,nan,nan,nan,nan,nan,nan,nan,nan,nan,nan,nan,nan,0.0,nan,nan,nan,nan,nan,nan,nan,nan,nan,nan,nan,nan,nan,nan,nan,nan,nan,nan,445.4842885567341,674.0599052498583,nan,674.5621639559977,nan,nan,nan,nan
1,122,1,1,1.0,1.0,0.4621208773460239,0,0,8,3,4,2,1,nan,nan,nan,nan,nan,nan,nan,nan,nan,nan,nan,nan,0.0,nan,nan,nan,nan,nan,nan,nan,nan,nan,nan,nan,nan,nan,nan,nan,nan,nan,nan,445.4842885567341,675.0600420979317,nan,675.5221629752778,nan,nan,nan,nan
1,123,1,1,nan,nan,nan,0,4,6,0,7,8,5,nan,nan,nan,nan,nan,nan,nan,nan,nan,nan,nan,nan,0.0,nan,nan,nan,nan,nan,nan,nan,nan,nan,nan,nan,nan,nan,nan,nan,nan,nan,nan,445.4842885567341,676.0601772353984,nan,nan,nan,nan,nan,nan
1,124,1,1,1.0,1.0,0.5577836768934503,0,3,5,8,2,1,7,nan,nan,nan,nan,nan,nan,nan,nan,nan,nan,nan,nan,0.0,nan,nan,nan,nan,nan,nan,nan,nan,nan,nan,nan,nan,nan,nan,nan,nan,nan,nan,445.4842885567341,677.0603135132696,nan,677.6180971901631,nan,nan,nan,nan
1,125,1,1,1.0,1.0,0.48567357345018536,0,7,6,3,5,2,4,nan,nan,nan,nan,nan,nan,nan,nan,nan,nan,nan,nan,0.0,nan,nan,nan,nan,nan,nan,nan,nan,nan,nan,nan,nan,nan,nan,nan,nan,nan,nan,445.4842885567341,678.0604611951858,nan,678.546134768636,nan,nan,nan,nan
1,126,1,1,1.0,1.0,0.4375315570505336,0,2,1,6,3,4,8,nan,nan,nan,nan,nan,nan,nan,nan,nan,nan,nan,nan,0.0,nan,nan,nan,nan,nan,nan,nan,nan,nan,nan,nan,nan,nan,nan,nan,nan,nan,nan,445.4842885567341,679.0606023197761,nan,679.4981338768266,nan,nan,nan,nan
1,127,1,1,1.0,1.0,0.3413800959242508,0,7,6,2,0,3,1,nan,nan,nan,nan,nan,nan,nan,nan,nan,nan,nan,nan,0.0,nan,nan,nan,nan,nan,nan,nan,nan,nan,nan,nan,nan,nan,nan,nan,nan,nan,nan,445.4842885567341,680.0607346062316,nan,680.4021147021558,nan,nan,nan,nan
1,128,1,1,1.0,1.0,0.3732349092606455,0,5,4,3,7,6,2,nan,nan,nan,nan,nan,nan,nan,nan,nan,nan,nan,nan,0.0,nan,nan,nan,nan,nan,nan,nan,nan,nan,nan,nan,nan,nan,nan,nan,nan,nan,nan,445.4842885567341,681.060869173496,nan,681.4341040827567,nan,nan,nan,nan
1,129,1,1,1.0,1.0,0.32508034841157496,0,1,6,7,2,3,4,nan,nan,nan,nan,nan,nan,nan,nan,nan,nan,nan,nan,0.0,nan,nan,nan,nan,nan,nan,nan,nan,nan,nan,nan,nan,nan,nan,nan,nan,nan,nan,445.4842885567341,682.06101885112,nan,682.3860991995316,nan,nan,nan,nan
1,130,1,1,1.0,1.0,0.2689572374802083,0,5,0,4,6,2,7,nan,nan,nan,nan,nan,nan,nan,nan,nan,nan,nan,nan,0.0,nan,nan,nan,nan,nan,nan,nan,nan,nan,nan,nan,nan,nan,nan,nan,nan,nan,nan,445.4842885567341,683.0611400187481,nan,683.3300972562283,nan,nan,nan,nan
1,131,1,1,1.0,1.0,0.25244252453558147,0,2,3,6,8,4,0,nan,nan,nan,nan,nan,nan,nan,nan,nan,nan,nan,nan,0.0,nan,nan,nan,nan,nan,nan,nan,nan,nan,nan,nan,nan,nan,nan,nan,nan,nan,nan,445.4842885567341,684.0696437017759,nan,684.3220862263115,nan,nan,nan,nan
1,132,1,1,1.0,1.0,0.35630566044710577,0,8,6,5,3,2,1,nan,nan,nan,nan,nan,nan,nan,nan,nan,nan,nan,nan,0.0,nan,nan,nan,nan,nan,nan,nan,nan,nan,nan,nan,nan,nan,nan,nan,nan,nan,nan,445.4842885567341,685.069764869404,nan,685.4260705298511,nan,nan,nan,nan
1,133,1,1,1.0,1.0,0.30815024429466575,0,3,0,8,2,1,7,nan,nan,nan,nan,nan,nan,nan,nan,nan,nan,nan,nan,0.0,nan,nan,nan,nan,nan,nan,nan,nan,nan,nan,nan,nan,nan,nan,nan,nan,nan,nan,445.4842885567341,686.0699094152078,nan,686.3780596595025,nan,nan,nan,nan
1,134,1,1,1.0,1.0,0.30803877022117376,0,6,2,7,8,0,5,nan,nan,nan,nan,nan,nan,nan,nan,nan,nan,nan,nan,0.0,nan,nan,nan,nan,nan,nan,nan,nan,nan,nan,nan,nan,nan,nan,nan,nan,nan,nan,445.4842885567341,687.070022599888,nan,687.3780613701092,nan,nan,nan,nan
1,135,1,1,1.0,1.0,0.3635169843910262,0,7,0,6,3,8,2,nan,nan,nan,nan,nan,nan,nan,nan,nan,nan,nan,nan,0.0,nan,nan,nan,nan,nan,nan,nan,nan,nan,nan,nan,nan,nan,nan,nan,nan,nan,nan,445.4842885567341,688.0785063259536,nan,688.4420233103447,nan,nan,nan,nan
1,136,1,1,1.0,1.0,0.34740198182407767,0,5,2,4,8,6,1,nan,nan,nan,nan,nan,nan,nan,nan,nan,nan,nan,nan,0.0,nan,nan,nan,nan,nan,nan,nan,nan,nan,nan,nan,nan,nan,nan,nan,nan,nan,nan,445.4842885567341,689.0786306296941,nan,689.4260326115182,nan,nan,nan,nan
1,137,1,1,1.0,1.0,0.38723503856454045,0,4,7,8,0,5,3,nan,nan,nan,nan,nan,nan,nan,nan,nan,nan,nan,nan,0.0,nan,nan,nan,nan,nan,nan,nan,nan,nan,nan,nan,nan,nan,nan,nan,nan,nan,nan,445.4842885567341,690.0787865794264,nan,690.4660216179909,nan,nan,nan,nan
1,138,1,1,1.0,1.0,0.3147597217466682,0,2,4,7,8,0,5,nan,nan,nan,nan,nan,nan,nan,nan,nan,nan,nan,nan,0.0,nan,nan,nan,nan,nan,nan,nan,nan,nan,nan,nan,nan,nan,nan,nan,nan,nan,nan,445.4842885567341,691.0872902625706,nan,691.4020499843173,nan,nan,nan,nan
1,139,1,1,1.0,1.0,0.36231101059820503,0,0,6,3,4,5,2,nan,nan,nan,nan,nan,nan,nan,nan,nan,nan,nan,nan,0.0,nan,nan,nan,nan,nan,nan,nan,nan,nan,nan,nan,nan,nan,nan,nan,nan,nan,nan,445.4842885567341,692.0957041390939,nan,692.4580151496921,nan,nan,nan,nan
1,140,1,1,1.0,1.0,0.39412819070275873,0,2,1,4,0,3,6,nan,nan,nan,nan,nan,nan,nan,nan,nan,nan,nan,nan,0.0,nan,nan,nan,nan,nan,nan,nan,nan,nan,nan,nan,nan,nan,nan,nan,nan,nan,nan,445.4842885567341,693.0958617994329,nan,693.4899899901357,nan,nan,nan,nan
1,141,1,1,1.0,1.0,0.33000174770131707,0,6,2,8,1,0,5,nan,nan,nan,nan,nan,nan,nan,nan,nan,nan,nan,nan,0.0,nan,nan,nan,nan,nan,nan,nan,nan,nan,nan,nan,nan,nan,nan,nan,nan,nan,nan,445.4842885567341,694.0959935156861,nan,694.4259952633874,nan,nan,nan,nan
1,142,0,0,0.0,1.0,0.6258459278615192,0,1,0,3,6,5,8,nan,nan,nan,nan,nan,nan,nan,nan,nan,nan,nan,nan,0.0,nan,nan,nan,nan,nan,nan,nan,nan,nan,nan,nan,nan,nan,nan,nan,nan,nan,nan,445.4842885567341,695.0961229512468,nan,695.7219688791083,nan,nan,nan,nan
1,143,1,1,1.0,1.0,0.42569790384732187,0,6,8,7,0,1,5,nan,nan,nan,nan,nan,nan,nan,nan,nan,nan,nan,nan,0.0,nan,nan,nan,nan,nan,nan,nan,nan,nan,nan,nan,nan,nan,nan,nan,nan,nan,nan,445.4842885567341,696.0962769052712,nan,696.5219748091185,nan,nan,nan,nan
1,144,0,0,0.0,1.0,0.4812268659006804,0,8,3,5,7,4,0,nan,nan,nan,nan,nan,nan,nan,nan,nan,nan,nan,nan,0.0,nan,nan,nan,nan,nan,nan,nan,nan,nan,nan,nan,nan,nan,nan,nan,nan,nan,nan,445.4842885567341,697.1047278448241,nan,697.5859547107248,nan,nan,nan,nan
1,145,1,1,1.0,1.0,0.30476610525511205,0,1,7,3,0,2,6,nan,nan,nan,nan,nan,nan,nan,nan,nan,nan,nan,nan,0.0,nan,nan,nan,nan,nan,nan,nan,nan,nan,nan,nan,nan,nan,nan,nan,nan,nan,nan,445.4842885567341,698.113200737047,nan,698.4179668423021,nan,nan,nan,nan
1,146,1,1,1.0,1.0,0.36860117595642805,0,0,4,2,8,3,1,nan,nan,nan,nan,nan,nan,nan,nan,nan,nan,nan,nan,0.0,nan,nan,nan,nan,nan,nan,nan,nan,nan,nan,nan,nan,nan,nan,nan,nan,nan,nan,445.4842885567341,699.113348133862,nan,699.4819493098184,nan,nan,nan,nan
1,147,1,1,1.0,1.0,0.29608651529997587,0,8,5,1,3,0,2,nan,nan,nan,nan,nan,nan,nan,nan,nan,nan,nan,nan,0.0,nan,nan,nan,nan,nan,nan,nan,nan,nan,nan,nan,nan,nan,nan,nan,nan,nan,nan,445.4842885567341,700.1218392725568,nan,700.4179257878568,nan,nan,nan,nan
1,148,1,1,1.0,1.0,0.2959673434961587,0,5,0,6,4,3,1,nan,nan,nan,nan,nan,nan,nan,nan,nan,nan,nan,nan,0.0,nan,nan,nan,nan,nan,nan,nan,nan,nan,nan,nan,nan,nan,nan,nan,nan,nan,nan,445.4842885567341,701.1219664271921,nan,701.4179337706883,nan,nan,nan,nan
1,149,1,1,1.0,1.0,0.27148607606068254,0,2,7,1,0,5,6,nan,nan,nan,nan,nan,nan,nan,nan,nan,nan,nan,nan,0.0,nan,nan,nan,nan,nan,nan,nan,nan,nan,nan,nan,nan,nan,nan,nan,nan,nan,nan,445.4842885567341,702.1304242091719,nan,702.4019102852326,nan,nan,nan,nan
1,150,0,0,1.0,0.0,0.3033485871274024,0,5,1,8,4,0,7,nan,nan,nan,nan,nan,nan,nan,nan,nan,nan,nan,nan,0.0,nan,nan,nan,nan,nan,nan,nan,nan,nan,nan,nan,nan,nan,nan,nan,nan,nan,nan,445.4842885567341,703.1305596317397,nan,703.4339082188671,nan,nan,nan,nan
1,151,1,1,1.0,1.0,0.30316754849627614,0,6,4,3,5,7,2,nan,nan,nan,nan,nan,nan,nan,nan,nan,nan,nan,nan,0.0,nan,nan,nan,nan,nan,nan,nan,nan,nan,nan,nan,nan,nan,nan,nan,nan,nan,nan,445.4842885567341,704.1307090242626,nan,704.4338765727589,nan,nan,nan,nan
1,152,1,1,1.0,1.0,0.31903850531671196,0,2,3,1,0,4,8,nan,nan,nan,nan,nan,nan,nan,nan,nan,nan,nan,nan,0.0,nan,nan,nan,nan,nan,nan,nan,nan,nan,nan,nan,nan,nan,nan,nan,nan,nan,nan,445.4842885567341,705.1308367491001,nan,705.4498752544168,nan,nan,nan,nan
1,153,0,0,1.0,0.0,0.3348820925457403,0,8,4,7,6,1,3,nan,nan,nan,nan,nan,nan,nan,nan,nan,nan,nan,nan,0.0,nan,nan,nan,nan,nan,nan,nan,nan,nan,nan,nan,nan,nan,nan,nan,nan,nan,nan,445.4842885567341,706.1309855714208,nan,706.4658676639665,nan,nan,nan,nan
1,154,1,1,1.0,1.0,0.33474296366330236,0,0,2,1,8,7,5,nan,nan,nan,nan,nan,nan,nan,nan,nan,nan,nan,nan,0.0,nan,nan,nan,nan,nan,nan,nan,nan,nan,nan,nan,nan,nan,nan,nan,nan,nan,nan,445.4842885567341,707.1311058836291,nan,707.4658488472924,nan,nan,nan,nan
1,155,1,1,1.0,1.0,0.4702627683291212,0,3,1,4,2,8,6,nan,nan,nan,nan,nan,nan,nan,nan,nan,nan,nan,nan,0.0,nan,nan,nan,nan,nan,nan,nan,nan,nan,nan,nan,nan,nan,nan,nan,nan,nan,nan,445.4842885567341,708.139590464998,nan,708.6098532333272,nan,nan,nan,nan
1,156,1,1,1.0,1.0,0.35777934337966144,0,6,3,2,5,4,7,nan,nan,nan,nan,nan,nan,nan,nan,nan,nan,nan,nan,0.0,nan,nan,nan,nan,nan,nan,nan,nan,nan,nan,nan,nan,nan,nan,nan,nan,nan,nan,445.4842885567341,709.1480639274232,nan,709.5058432708029,nan,nan,nan,nan
1,157,1,1,1.0,1.0,0.3176360975485295,0,3,6,1,2,0,5,nan,nan,nan,nan,nan,nan,nan,nan,nan,nan,nan,nan,0.0,nan,nan,nan,nan,nan,nan,nan,nan,nan,nan,nan,nan,nan,nan,nan,nan,nan,nan,445.4842885567341,710.1481902268715,nan,710.46582632442,nan,nan,nan,nan
1,158,1,1,1.0,1.0,0.4534954564878717,0,2,0,4,1,5,3,nan,nan,nan,nan,nan,nan,nan,nan,nan,nan,nan,nan,0.0,nan,nan,nan,nan,nan,nan,nan,nan,nan,nan,nan,nan,nan,nan,nan,nan,nan,nan,445.4842885567341,711.1483410449,nan,711.6018365013879,nan,nan,nan,nan
1,159,1,1,1.0,1.0,0.3810127271572128,0,7,4,8,0,6,1,nan,nan,nan,nan,nan,nan,nan,nan,nan,nan,nan,nan,0.0,nan,nan,nan,nan,nan,nan,nan,nan,nan,nan,nan,nan,nan,nan,nan,nan,nan,nan,445.4842885567341,712.156802533078,nan,712.5378152602352,nan,nan,nan,nan
1,160,1,1,1.0,1.0,0.36486607848200947,0,8,5,2,1,0,3,nan,nan,nan,nan,nan,nan,nan,nan,nan,nan,nan,nan,0.0,nan,nan,nan,nan,nan,nan,nan,nan,nan,nan,nan,nan,nan,nan,nan,nan,nan,nan,445.4842885567341,713.156933679129,nan,713.521799757611,nan,nan,nan,nan
1,161,1,1,1.0,1.0,0.3643805527826771,0,7,1,0,5,2,6,nan,nan,nan,nan,nan,nan,nan,nan,nan,nan,nan,nan,0.0,nan,nan,nan,nan,nan,nan,nan,nan,nan,nan,nan,nan,nan,nan,nan,nan,nan,nan,445.4842885567341,714.1654077118728,nan,714.5297882646555,nan,nan,nan,nan
1,162,1,1,1.0,1.0,0.3482840817887336,0,0,2,8,7,4,1,nan,nan,nan,nan,nan,nan,nan,nan,nan,nan,nan,nan,0.0,nan,nan,nan,nan,nan,nan,nan,nan,nan,nan,nan,nan,nan,nan,nan,nan,nan,nan,445.4842885567341,715.1655074969167,nan,715.5137915787054,nan,nan,nan,nan
1,163,1,1,1.0,1.0,0.3160982672125101,0,3,5,2,6,1,7,nan,nan,nan,nan,nan,nan,nan,nan,nan,nan,nan,nan,0.0,nan,nan,nan,nan,nan,nan,nan,nan,nan,nan,nan,nan,nan,nan,nan,nan,nan,nan,445.4842885567341,716.1656799825141,nan,716.4817782497266,nan,nan,nan,nan
1,164,1,1,1.0,1.0,0.29160759155638516,0,4,7,6,8,0,3,nan,nan,nan,nan,nan,nan,nan,nan,nan,nan,nan,nan,0.0,nan,nan,nan,nan,nan,nan,nan,nan,nan,nan,nan,nan,nan,nan,nan,nan,nan,nan,445.4842885567341,717.174157436355,nan,717.4657650279114,nan,nan,nan,nan
1,165,1,1,1.0,1.0,0.33944939740467817,0,2,4,1,3,8,5,nan,nan,nan,nan,nan,nan,nan,nan,nan,nan,nan,nan,0.0,nan,nan,nan,nan,nan,nan,nan,nan,nan,nan,nan,nan,nan,nan,nan,nan,nan,nan,445.4842885567341,718.1743042629678,nan,718.5137536603725,nan,nan,nan,nan
1,166,1,1,1.0,1.0,0.35530895029660314,0,5,6,3,2,7,4,nan,nan,nan,nan,nan,nan,nan,nan,nan,nan,nan,nan,0.0,nan,nan,nan,nan,nan,nan,nan,nan,nan,nan,nan,nan,nan,nan,nan,nan,nan,nan,445.4842885567341,719.1744299920974,nan,719.529738942394,nan,nan,nan,nan
1,167,1,1,1.0,1.0,0.3311812070896849,0,1,5,0,4,6,2,nan,nan,nan,nan,nan,nan,nan,nan,nan,nan,nan,nan,0.0,nan,nan,nan,nan,nan,nan,nan,nan,nan,nan,nan,nan,nan,nan,nan,nan,nan,nan,445.4842885567341,720.1745662699686,nan,720.5057474770583,nan,nan,nan,nan
1,168,1,1,1.0,1.0,0.386701901210472,0,0,4,8,5,2,6,nan,nan,nan,nan,nan,nan,nan,nan,nan,nan,nan,nan,0.0,nan,nan,nan,nan,nan,nan,nan,nan,nan,nan,nan,nan,nan,nan,nan,nan,nan,nan,445.4842885567341,721.1830397325102,nan,721.5697416337207,nan,nan,nan,nan
1,169,1,1,1.0,1.0,0.3225389653816819,0,5,1,6,0,8,3,nan,nan,nan,nan,nan,nan,nan,nan,nan,nan,nan,nan,0.0,nan,nan,nan,nan,nan,nan,nan,nan,nan,nan,nan,nan,nan,nan,nan,nan,nan,nan,445.4842885567341,722.1831848483998,nan,722.5057238137815,nan,nan,nan,nan
1,170,1,1,1.0,1.0,0.34606372157577425,0,6,8,3,7,5,4,nan,nan,nan,nan,nan,nan,nan,nan,nan,nan,nan,nan,0.0,nan,nan,nan,nan,nan,nan,nan,nan,nan,nan,nan,nan,nan,nan,nan,nan,nan,nan,445.4842885567341,723.191645766492,nan,723.5377094880678,nan,nan,nan,nan
1,171,0,0,1.0,0.0,0.3619235595688224,0,4,7,6,2,0,5,nan,nan,nan,nan,nan,nan,nan,nan,nan,nan,nan,nan,0.0,nan,nan,nan,nan,nan,nan,nan,nan,nan,nan,nan,nan,nan,nan,nan,nan,nan,nan,445.4842885567341,724.1917817592621,nan,724.5537053188309,nan,nan,nan,nan
1,172,1,1,1.0,1.0,0.39341686584521085,0,3,8,7,0,4,2,nan,nan,nan,nan,nan,nan,nan,nan,nan,nan,nan,nan,0.0,nan,nan,nan,nan,nan,nan,nan,nan,nan,nan,nan,nan,nan,nan,nan,nan,nan,nan,445.4842885567341,725.200254651485,nan,725.5936715173302,nan,nan,nan,nan
1,173,1,1,1.0,1.0,0.40930207760538906,0,8,6,5,2,0,1,nan,nan,nan,nan,nan,nan,nan,nan,nan,nan,nan,nan,0.0,nan,nan,nan,nan,nan,nan,nan,nan,nan,nan,nan,nan,nan,nan,nan,nan,nan,nan,445.4842885567341,726.2003795254277,nan,726.6096816030331,nan,nan,nan,nan
1,174,1,1,1.0,1.0,0.4568413922097534,0,1,3,7,0,5,2,nan,nan,nan,nan,nan,nan,nan,nan,nan,nan,nan,nan,0.0,nan,nan,nan,nan,nan,nan,nan,nan,nan,nan,nan,nan,nan,nan,nan,nan,nan,nan,445.4842885567341,727.2088424391113,nan,727.6656838313211,nan,nan,nan,nan
1,175,0,0,0.0,1.0,0.4886651295237243,0,3,6,4,1,8,5,nan,nan,nan,nan,nan,nan,nan,nan,nan,nan,nan,nan,0.0,nan,nan,nan,nan,nan,nan,nan,nan,nan,nan,nan,nan,nan,nan,nan,nan,nan,nan,445.4842885567341,728.209007512196,nan,728.6976726417197,nan,nan,nan,nan
1,176,1,1,1.0,1.0,0.4801748462487012,0,0,1,5,2,4,3,nan,nan,nan,nan,nan,nan,nan,nan,nan,nan,nan,nan,0.0,nan,nan,nan,nan,nan,nan,nan,nan,nan,nan,nan,nan,nan,nan,nan,nan,nan,nan,445.4842885567341,729.2174792640144,nan,729.6976541102631,nan,nan,nan,nan
1,177,1,1,1.0,1.0,0.4720172747038305,0,2,8,7,4,1,6,nan,nan,nan,nan,nan,nan,nan,nan,nan,nan,nan,nan,0.0,nan,nan,nan,nan,nan,nan,nan,nan,nan,nan,nan,nan,nan,nan,nan,nan,nan,nan,445.4842885567341,730.2176269459305,nan,730.6896442206344,nan,nan,nan,nan
1,178,1,1,1.0,1.0,0.48789193795528263,0,4,3,8,5,2,0,nan,nan,nan,nan,nan,nan,nan,nan,nan,nan,nan,nan,0.0,nan,nan,nan,nan,nan,nan,nan,nan,nan,nan,nan,nan,nan,nan,nan,nan,nan,nan,445.4842885567341,731.2177486836445,nan,731.7056406215997,nan,nan,nan,nan
1,179,1,1,1.0,1.0,0.44740201043896377,1,6,0,3,4,5,8,1.0,1.0,1.0,1.0,1.0,1.0,0.0,0.0,0.0,1.0,0.0,0.0,1.0,7.0,6.0,5.0,4.0,1.0,5.0,2.0,3.0,4.0,1.0,5.0,6.0,3.5151355408597738,4.500001853099093,6.379524219082668,0.9406196195632219,7.163277443265542,8.034811017103493,445.4842885567341,732.2262158738449,733.0346473696409,732.6736178842839,742.1192283250857,743.126164242276,734.0431188363582,742.1108971276553
1,180,1,1,1.0,1.0,0.3377875484293327,0,8,2,4,0,1,7,nan,nan,nan,nan,nan,nan,nan,nan,nan,nan,nan,nan,0.0,nan,nan,nan,nan,nan,nan,nan,nan,nan,nan,nan,nan,nan,nan,nan,nan,nan,nan,445.4842885567341,743.3277203760808,nan,743.6655079245102,nan,nan,nan,nan
1,181,1,1,1.0,1.0,0.48129785584751517,0,1,8,2,7,4,6,nan,nan,nan,nan,nan,nan,nan,nan,nan,nan,nan,nan,0.0,nan,nan,nan,nan,nan,nan,nan,nan,nan,nan,nan,nan,nan,nan,nan,nan,nan,nan,445.4842885567341,744.3362200676929,nan,744.8175179235404,nan,nan,nan,nan
1,182,1,1,1.0,1.0,0.3928352614166215,0,8,1,4,3,5,2,nan,nan,nan,nan,nan,nan,nan,nan,nan,nan,nan,nan,0.0,nan,nan,nan,nan,nan,nan,nan,nan,nan,nan,nan,nan,nan,nan,nan,nan,nan,nan,445.4842885567341,745.3446587478975,nan,745.7374940093141,nan,nan,nan,nan
1,183,1,1,1.0,1.0,0.5286624040454626,0,3,8,1,6,2,5,nan,nan,nan,nan,nan,nan,nan,nan,nan,nan,nan,nan,0.0,nan,nan,nan,nan,nan,nan,nan,nan,nan,nan,nan,nan,nan,nan,nan,nan,nan,nan,445.4842885567341,746.344833799405,nan,746.8734962034505,nan,nan,nan,nan
1,184,1,1,1.0,1.0,0.4642137977061793,0,7,5,0,4,1,6,nan,nan,nan,nan,nan,nan,nan,nan,nan,nan,nan,nan,0.0,nan,nan,nan,nan,nan,nan,nan,nan,nan,nan,nan,nan,nan,nan,nan,nan,nan,nan,445.4842885567341,747.3532736201305,nan,747.8174874178367,nan,nan,nan,nan
1,185,1,1,1.0,1.0,0.44002304750029,0,6,3,4,7,8,2,nan,nan,nan,nan,nan,nan,nan,nan,nan,nan,nan,nan,0.0,nan,nan,nan,nan,nan,nan,nan,nan,nan,nan,nan,nan,nan,nan,nan,nan,nan,nan,445.4842885567341,748.3534466759302,nan,748.7934697234305,nan,nan,nan,nan
1,186,0,0,nan,nan,nan,0,4,0,2,6,1,3,nan,nan,nan,nan,nan,nan,nan,nan,nan,nan,nan,nan,0.0,nan,nan,nan,nan,nan,nan,nan,nan,nan,nan,nan,nan,nan,nan,nan,nan,nan,nan,445.4842885567341,749.3619070237037,nan,nan,nan,nan,nan,nan
1,187,1,1,1.0,1.0,0.6313597654225305,0,5,1,0,8,3,6,nan,nan,nan,nan,nan,nan,nan,nan,nan,nan,nan,nan,0.0,nan,nan,nan,nan,nan,nan,nan,nan,nan,nan,nan,nan,nan,nan,nan,nan,nan,nan,445.4842885567341,750.3620501440018,nan,750.9934099094244,nan,nan,nan,nan
1,188,1,1,1.0,1.0,0.6469222437590361,0,8,2,7,6,0,4,nan,nan,nan,nan,nan,nan,nan,nan,nan,nan,nan,nan,0.0,nan,nan,nan,nan,nan,nan,nan,nan,nan,nan,nan,nan,nan,nan,nan,nan,nan,nan,445.4842885567341,751.3705184747232,nan,752.0174407184822,nan,nan,nan,nan
1,189,1,1,1.0,1.0,0.5264369120122865,0,1,6,3,0,4,5,nan,nan,nan,nan,nan,nan,nan,nan,nan,nan,nan,nan,0.0,nan,nan,nan,nan,nan,nan,nan,nan,nan,nan,nan,nan,nan,nan,nan,nan,nan,nan,445.4842885567341,752.3789856649237,nan,752.905422576936,nan,nan,nan,nan
1,190,1,1,1.0,1.0,0.4379577817162499,0,4,0,8,2,5,1,nan,nan,nan,nan,nan,nan,nan,nan,nan,nan,nan,nan,0.0,nan,nan,nan,nan,nan,nan,nan,nan,nan,nan,nan,nan,nan,nan,nan,nan,nan,nan,445.4842885567341,753.3874705313938,nan,753.82542831311,nan,nan,nan,nan
1,191,1,1,1.0,1.0,0.40546491427812725,0,1,8,5,7,0,6,nan,nan,nan,nan,nan,nan,nan,nan,nan,nan,nan,nan,0.0,nan,nan,nan,nan,nan,nan,nan,nan,nan,nan,nan,nan,nan,nan,nan,nan,nan,nan,445.4842885567341,754.3959454193246,nan,754.8014103336027,nan,nan,nan,nan
1,192,1,1,1.0,1.0,0.4450031773885712,0,2,4,3,6,5,8,nan,nan,nan,nan,nan,nan,nan,nan,nan,nan,nan,nan,0.0,nan,nan,nan,nan,nan,nan,nan,nan,nan,nan,nan,nan,nan,nan,nan,nan,nan,nan,445.4842885567341,755.4043989247875,nan,755.8494021021761,nan,nan,nan,nan
1,193,1,1,1.0,1.0,0.42850984691176564,0,1,5,8,7,2,3,nan,nan,nan,nan,nan,nan,nan,nan,nan,nan,nan,nan,0.0,nan,nan,nan,nan,nan,nan,nan,nan,nan,nan,nan,nan,nan,nan,nan,nan,nan,nan,445.4842885567341,756.4128832210554,nan,756.8413930679671,nan,nan,nan,nan
1,194,1,1,1.0,1.0,0.4440349772339687,0,2,7,5,4,3,6,nan,nan,nan,nan,nan,nan,nan,nan,nan,nan,nan,nan,0.0,nan,nan,nan,nan,nan,nan,nan,nan,nan,nan,nan,nan,nan,nan,nan,nan,nan,nan,445.4842885567341,757.4213495559525,nan,757.8653845331864,nan,nan,nan,nan
1,195,0,0,1.0,0.0,0.7795539835933596,0,8,1,3,2,7,5,nan,nan,nan,nan,nan,nan,nan,nan,nan,nan,nan,nan,0.0,nan,nan,nan,nan,nan,nan,nan,nan,nan,nan,nan,nan,nan,nan,nan,nan,nan,nan,445.4842885567341,758.4298204524675,nan,759.2093744360609,nan,nan,nan,nan
1,196,1,1,nan,nan,nan,0,4,2,0,1,3,8,nan,nan,nan,nan,nan,nan,nan,nan,nan,nan,nan,nan,0.0,nan,nan,nan,nan,nan,nan,nan,nan,nan,nan,nan,nan,nan,nan,nan,nan,nan,nan,445.4842885567341,759.4382927744882,nan,nan,nan,nan,nan,nan
1,197,1,1,1.0,1.0,0.7945528188720345,0,1,5,3,4,8,2,nan,nan,nan,nan,nan,nan,nan,nan,nan,nan,nan,nan,0.0,nan,nan,nan,nan,nan,nan,nan,nan,nan,nan,nan,nan,nan,nan,nan,nan,nan,nan,445.4842885567341,760.4467605350073,nan,761.2413133538794,nan,nan,nan,nan
1,198,1,1,nan,nan,nan,0,8,3,7,2,6,5,nan,nan,nan,nan,nan,nan,nan,nan,nan,nan,nan,nan,0.0,nan,nan,nan,nan,nan,nan,nan,nan,nan,nan,nan,nan,nan,nan,nan,nan,nan,nan,445.4842885567341,761.4552385590505,nan,nan,nan,nan,nan,nan
1,199,1,1,1.0,1.0,0.7695934385992587,0,6,4,8,3,1,0,nan,nan,nan,nan,nan,nan,nan,nan,nan,nan,nan,nan,0.0,nan,nan,nan,nan,nan,nan,nan,nan,nan,nan,nan,nan,nan,nan,nan,nan,nan,nan,445.4842885567341,762.4637048939476,nan,763.2332983325468,nan,nan,nan,nan
1,200,1,1,1.0,1.0,0.7611296696122736,0,2,8,6,1,5,7,nan,nan,nan,nan,nan,nan,nan,nan,nan,nan,nan,nan,0.0,nan,nan,nan,nan,nan,nan,nan,nan,nan,nan,nan,nan,nan,nan,nan,nan,nan,nan,445.4842885567341,763.4721889051143,nan,764.2333185747266,nan,nan,nan,nan
1,201,1,1,1.0,1.0,0.7206577032338828,0,4,1,2,3,7,8,nan,nan,nan,nan,nan,nan,nan,nan,nan,nan,nan,nan,0.0,nan,nan,nan,nan,nan,nan,nan,nan,nan,nan,nan,nan,nan,nan,nan,nan,nan,nan,445.4842885567341,764.4806501083076,nan,765.2013078115415,nan,nan,nan,nan
1,202,1,1,1.0,1.0,0.6801774691557512,0,5,4,7,0,8,1,nan,nan,nan,nan,nan,nan,nan,nan,nan,nan,nan,nan,0.0,nan,nan,nan,nan,nan,nan,nan,nan,nan,nan,nan,nan,nan,nan,nan,nan,nan,nan,445.4842885567341,765.4891278472496,nan,766.1693053164054,nan,nan,nan,nan
1,203,1,1,1.0,1.0,0.6156886636745185,0,1,5,3,6,7,0,nan,nan,nan,nan,nan,nan,nan,nan,nan,nan,nan,nan,0.0,nan,nan,nan,nan,nan,nan,nan,nan,nan,nan,nan,nan,nan,nan,nan,nan,nan,nan,445.4842885567341,766.4976118584163,nan,767.1133005220909,nan,nan,nan,nan
1,204,1,1,1.0,1.0,0.6151951553765684,0,5,7,1,0,6,3,nan,nan,nan,nan,nan,nan,nan,nan,nan,nan,nan,nan,0.0,nan,nan,nan,nan,nan,nan,nan,nan,nan,nan,nan,nan,nan,nan,nan,nan,nan,nan,445.4842885567341,767.506072491291,nan,768.1212676466675,nan,nan,nan,nan
1,205,1,1,1.0,1.0,0.5667326863622293,0,8,3,2,7,1,5,nan,nan,nan,nan,nan,nan,nan,nan,nan,nan,nan,nan,0.0,nan,nan,nan,nan,nan,nan,nan,nan,nan,nan,nan,nan,nan,nan,nan,nan,nan,nan,445.4842885567341,768.5145362603944,nan,769.0812689467566,nan,nan,nan,nan
1,206,1,1,1.0,1.0,0.5342780222417787,0,5,2,3,1,4,6,nan,nan,nan,nan,nan,nan,nan,nan,nan,nan,nan,nan,0.0,nan,nan,nan,nan,nan,nan,nan,nan,nan,nan,nan,nan,nan,nan,nan,nan,nan,nan,445.4842885567341,769.5230080122128,nan,770.0572860344546,nan,nan,nan,nan
1,207,1,1,1.0,1.0,0.45377884607296437,0,2,3,5,4,1,7,nan,nan,nan,nan,nan,nan,nan,nan,nan,nan,nan,nan,0.0,nan,nan,nan,nan,nan,nan,nan,nan,nan,nan,nan,nan,nan,nan,nan,nan,nan,nan,445.4842885567341,770.5314831852447,nan,770.9852620313177,nan,nan,nan,nan
1,208,1,1,1.0,1.0,0.48529895185492933,0,6,8,3,1,7,2,nan,nan,nan,nan,nan,nan,nan,nan,nan,nan,nan,nan,0.0,nan,nan,nan,nan,nan,nan,nan,nan,nan,nan,nan,nan,nan,nan,nan,nan,nan,nan,445.4842885567341,771.539954651962,nan,772.025253603817,nan,nan,nan,nan
1,209,1,1,1.0,1.0,0.4688076169695705,0,5,1,0,4,2,8,nan,nan,nan,nan,nan,nan,nan,nan,nan,nan,nan,nan,0.0,nan,nan,nan,nan,nan,nan,nan,nan,nan,nan,nan,nan,nan,nan,nan,nan,nan,nan,445.4842885567341,772.5484303951962,nan,773.0172380121658,nan,nan,nan,nan
1,210,1,1,1.0,1.0,0.4843609721865505,0,6,7,2,8,5,1,nan,nan,nan,nan,nan,nan,nan,nan,nan,nan,nan,nan,0.0,nan,nan,nan,nan,nan,nan,nan,nan,nan,nan,nan,nan,nan,nan,nan,nan,nan,nan,445.4842885567341,773.5568673649104,nan,774.041228337097,nan,nan,nan,nan
1,211,1,1,1.0,1.0,0.7158722967142239,1,7,1,3,2,8,0,1.0,1.0,1.0,1.0,1.0,1.0,1.0,1.0,0.0,0.0,0.0,0.0,2.0,7.0,1.0,4.0,1.0,2.0,8.0,1.0,2.0,6.0,5.0,4.0,3.0,1.095683041610755,2.392591785872355,7.17437981441617,6.311252419371158,4.847215098678134,3.4791031546192244,445.4842885567341,774.5653445336502,775.3737897141837,775.2812168303644,783.6165807422949,784.6218391299481,776.3989421073347,783.6082441279432
1,212,1,1,1.0,1.0,0.3280528028262779,0,2,8,1,3,0,5,nan,nan,nan,nan,nan,nan,nan,nan,nan,nan,nan,nan,0.0,nan,nan,nan,nan,nan,nan,nan,nan,nan,nan,nan,nan,nan,nan,nan,nan,nan,nan,445.4842885567341,784.8250887588365,nan,785.1531415616628,nan,nan,nan,nan
1,213,1,1,1.0,1.0,0.24756645620800555,0,0,3,8,4,5,6,nan,nan,nan,nan,nan,nan,nan,nan,nan,nan,nan,nan,0.0,nan,nan,nan,nan,nan,nan,nan,nan,nan,nan,nan,nan,nan,nan,nan,nan,nan,nan,445.4842885567341,785.8335613659583,nan,786.0811278221663,nan,nan,nan,nan
1,214,1,1,1.0,1.0,0.22308775468263775,0,5,1,6,2,7,8,nan,nan,nan,nan,nan,nan,nan,nan,nan,nan,nan,nan,0.0,nan,nan,nan,nan,nan,nan,nan,nan,nan,nan,nan,nan,nan,nan,nan,nan,nan,nan,445.4842885567341,786.8420225691516,nan,787.0651103238342,nan,nan,nan,nan
1,215,1,1,1.0,1.0,0.20656790991779417,0,6,0,2,5,1,4,nan,nan,nan,nan,nan,nan,nan,nan,nan,nan,nan,nan,0.0,nan,nan,nan,nan,nan,nan,nan,nan,nan,nan,nan,nan,nan,nan,nan,nan,nan,nan,445.4842885567341,787.8505282478873,nan,788.0570961578051,nan,nan,nan,nan
1,216,1,1,1.0,1.0,0.198098438908346,0,8,6,5,3,4,0,nan,nan,nan,nan,nan,nan,nan,nan,nan,nan,nan,nan,0.0,nan,nan,nan,nan,nan,nan,nan,nan,nan,nan,nan,nan,nan,nan,nan,nan,nan,nan,445.4842885567341,788.8589985742001,nan,789.0570970131084,nan,nan,nan,nan
1,217,0,0,1.0,0.0,0.21359791012946516,0,7,2,3,5,8,4,nan,nan,nan,nan,nan,nan,nan,nan,nan,nan,nan,nan,0.0,nan,nan,nan,nan,nan,nan,nan,nan,nan,nan,nan,nan,nan,nan,nan,nan,nan,nan,445.4842885567341,789.8674820151646,nan,790.081079925294,nan,nan,nan,nan
1,218,1,1,1.0,1.0,0.28545627009589225,0,8,7,0,2,4,6,nan,nan,nan,nan,nan,nan,nan,nan,nan,nan,nan,nan,0.0,nan,nan,nan,nan,nan,nan,nan,nan,nan,nan,nan,nan,nan,nan,nan,nan,nan,nan,445.4842885567341,790.8676202887436,nan,791.1530765588395,nan,nan,nan,nan
1,219,0,0,1.0,0.0,0.3569807776948437,0,2,0,1,4,7,5,nan,nan,nan,nan,nan,nan,nan,nan,nan,nan,nan,nan,0.0,nan,nan,nan,nan,nan,nan,nan,nan,nan,nan,nan,nan,nan,nan,nan,nan,nan,nan,445.4842885567341,791.8760814919369,nan,792.2330622696318,nan,nan,nan,nan
1,220,1,1,1.0,1.0,0.39648882020264864,0,6,3,5,8,1,4,nan,nan,nan,nan,nan,nan,nan,nan,nan,nan,nan,nan,0.0,nan,nan,nan,nan,nan,nan,nan,nan,nan,nan,nan,nan,nan,nan,nan,nan,nan,nan,445.4842885567341,792.8845518182497,nan,793.2810406384524,nan,nan,nan,nan
1,221,1,1,1.0,1.0,0.5560132047394291,0,7,2,3,5,8,0,nan,nan,nan,nan,nan,nan,nan,nan,nan,nan,nan,nan,0.0,nan,nan,nan,nan,nan,nan,nan,nan,nan,nan,nan,nan,nan,nan,nan,nan,nan,nan,445.4842885567341,793.8930241402704,nan,794.4490373450099,nan,nan,nan,nan
1,222,1,1,1.0,1.0,0.45154651161283255,0,0,4,8,1,5,2,nan,nan,nan,nan,nan,nan,nan,nan,nan,nan,nan,nan,0.0,nan,nan,nan,nan,nan,nan,nan,nan,nan,nan,nan,nan,nan,nan,nan,nan,nan,nan,445.4842885567341,794.9014893348794,nan,795.3530358464923,nan,nan,nan,nan
1,223,1,1,1.0,1.0,0.3950638895621523,0,7,5,6,2,3,4,nan,nan,nan,nan,nan,nan,nan,nan,nan,nan,nan,nan,0.0,nan,nan,nan,nan,nan,nan,nan,nan,nan,nan,nan,nan,nan,nan,nan,nan,nan,nan,445.4842885567341,795.9099596611923,nan,796.3050235507544,nan,nan,nan,nan
1,224,1,1,1.0,1.0,0.31458552565891296,0,4,6,5,3,7,8,nan,nan,nan,nan,nan,nan,nan,nan,nan,nan,nan,nan,0.0,nan,nan,nan,nan,nan,nan,nan,nan,nan,nan,nan,nan,nan,nan,nan,nan,nan,nan,445.4842885567341,796.9184379703365,nan,797.2330234959954,nan,nan,nan,nan
1,225,1,1,1.0,1.0,0.31410655728541315,0,0,3,1,8,2,7,nan,nan,nan,nan,nan,nan,nan,nan,nan,nan,nan,nan,0.0,nan,nan,nan,nan,nan,nan,nan,nan,nan,nan,nan,nan,nan,nan,nan,nan,nan,nan,445.4842885567341,797.9269040202489,nan,798.2410105775343,nan,nan,nan,nan
1,226,1,1,1.0,1.0,0.337618769146502,0,6,0,7,4,5,1,nan,nan,nan,nan,nan,nan,nan,nan,nan,nan,nan,nan,0.0,nan,nan,nan,nan,nan,nan,nan,nan,nan,nan,nan,nan,nan,nan,nan,nan,nan,nan,445.4842885567341,798.9353811889887,nan,799.2729999581352,nan,nan,nan,nan
1,227,1,1,1.0,1.0,0.32913618348538876,0,5,4,6,3,1,7,nan,nan,nan,nan,nan,nan,nan,nan,nan,nan,nan,nan,0.0,nan,nan,nan,nan,nan,nan,nan,nan,nan,nan,nan,nan,nan,nan,nan,nan,nan,nan,445.4842885567341,799.9438543663127,nan,800.2729905497981,nan,nan,nan,nan
1,228,1,1,1.0,1.0,0.6806652755476534,0,1,5,2,4,0,6,nan,nan,nan,nan,nan,nan,nan,nan,nan,nan,nan,nan,0.0,nan,nan,nan,nan,nan,nan,nan,nan,nan,nan,nan,nan,nan,nan,nan,nan,nan,nan,445.4842885567341,800.9523138588993,nan,801.6329791344469,nan,nan,nan,nan
1,229,1,1,1.0,1.0,0.5601679696701467,1,6,4,0,8,7,2,1.0,1.0,1.0,1.0,1.0,1.0,0.0,0.0,0.0,0.0,1.0,0.0,1.0,1.0,1.0,3.0,6.0,7.0,4.0,3.0,4.0,5.0,2.0,1.0,6.0,4.4912042318610474,5.595259810332209,6.4195605523418635,2.9797028629109263,1.1238298419630155,7.298938372521661,445.4842885567341,801.9607990103541,802.769221097813,802.5209669800242,811.1287061955081,812.1399687930243,803.7943694995483,811.1203644493362
1,230,1,1,1.0,1.0,0.5032499994849786,0,5,3,1,6,8,7,nan,nan,nan,nan,nan,nan,nan,nan,nan,nan,nan,nan,0.0,nan,nan,nan,nan,nan,nan,nan,nan,nan,nan,nan,nan,nan,nan,nan,nan,nan,nan,445.4842885567341,812.3456297991797,nan,812.8488797986647,nan,nan,nan,nan
1,231,1,1,1.0,1.0,0.5107726528076455,0,2,5,4,1,7,6,nan,nan,nan,nan,nan,nan,nan,nan,nan,nan,nan,nan,0.0,nan,nan,nan,nan,nan,nan,nan,nan,nan,nan,nan,nan,nan,nan,nan,nan,nan,nan,445.4842885567341,813.3541061126161,nan,813.8648787654238,nan,nan,nan,nan
1,232,0,0,1.0,0.0,0.5743485674029216,0,7,4,3,8,6,0,nan,nan,nan,nan,nan,nan,nan,nan,nan,nan,nan,nan,0.0,nan,nan,nan,nan,nan,nan,nan,nan,nan,nan,nan,nan,nan,nan,nan,nan,nan,nan,445.4842885567341,814.3624968960648,nan,814.9368454634678,nan,nan,nan,nan
1,233,1,1,1.0,1.0,0.4302181671373546,0,6,3,8,0,4,7,nan,nan,nan,nan,nan,nan,nan,nan,nan,nan,nan,nan,0.0,nan,nan,nan,nan,nan,nan,nan,nan,nan,nan,nan,nan,nan,nan,nan,nan,nan,nan,445.4842885567341,815.3626323186327,nan,815.79285048577,nan,nan,nan,nan
1,234,1,1,nan,nan,nan,0,1,0,4,8,3,2,nan,nan,nan,nan,nan,nan,nan,nan,nan,nan,nan,nan,0.0,nan,nan,nan,nan,nan,nan,nan,nan,nan,nan,nan,nan,nan,nan,nan,nan,nan,nan,445.4842885567341,816.3711089171702,nan,nan,nan,nan,nan,nan
1,235,1,1,1.0,1.0,0.5815447811037302,0,0,8,7,3,5,6,nan,nan,nan,nan,nan,nan,nan,nan,nan,nan,nan,nan,0.0,nan,nan,nan,nan,nan,nan,nan,nan,nan,nan,nan,nan,nan,nan,nan,nan,nan,nan,445.4842885567341,817.3712554586818,nan,817.9528002397856,nan,nan,nan,nan
1,236,1,1,1.0,1.0,0.6450904750963673,0,2,1,3,0,6,4,nan,nan,nan,nan,nan,nan,nan,nan,nan,nan,nan,nan,0.0,nan,nan,nan,nan,nan,nan,nan,nan,nan,nan,nan,nan,nan,nan,nan,nan,nan,nan,445.4842885567341,818.3797169468598,nan,819.0248074219562,nan,nan,nan,nan
1,237,1,1,1.0,1.0,0.5646109709050506,0,1,3,4,6,0,2,nan,nan,nan,nan,nan,nan,nan,nan,nan,nan,nan,nan,0.0,nan,nan,nan,nan,nan,nan,nan,nan,nan,nan,nan,nan,nan,nan,nan,nan,nan,nan,445.4842885567341,819.388190409285,nan,819.9528013801901,nan,nan,nan,nan
1,238,1,1,1.0,1.0,0.5164906220743433,0,2,6,7,3,8,1,nan,nan,nan,nan,nan,nan,nan,nan,nan,nan,nan,nan,0.0,nan,nan,nan,nan,nan,nan,nan,nan,nan,nan,nan,nan,nan,nan,nan,nan,nan,nan,445.4842885567341,820.3883004579693,nan,820.9047910800437,nan,nan,nan,nan
1,239,1,1,1.0,1.0,0.6839884031796828,0,1,8,3,5,2,0,nan,nan,nan,nan,nan,nan,nan,nan,nan,nan,nan,nan,0.0,nan,nan,nan,nan,nan,nan,nan,nan,nan,nan,nan,nan,nan,nan,nan,nan,nan,nan,445.4842885567341,821.396803000709,nan,822.0807914038887,nan,nan,nan,nan
1,240,0,0,1.0,0.0,0.5475266276625916,0,2,7,6,3,8,4,nan,nan,nan,nan,nan,nan,nan,nan,nan,nan,nan,nan,0.0,nan,nan,nan,nan,nan,nan,nan,nan,nan,nan,nan,nan,nan,nan,nan,nan,nan,nan,445.4842885567341,822.4052445319248,nan,822.9527711595874,nan,nan,nan,nan
1,241,1,1,1.0,1.0,0.33900663687381893,0,1,8,3,5,7,6,nan,nan,nan,nan,nan,nan,nan,nan,nan,nan,nan,nan,0.0,nan,nan,nan,nan,nan,nan,nan,nan,nan,nan,nan,nan,nan,nan,nan,nan,nan,nan,445.4842885567341,823.41373738111,nan,823.7527440179838,nan,nan,nan,nan
1,242,1,1,1.0,1.0,0.6748537934618071,0,8,4,6,0,2,3,nan,nan,nan,nan,nan,nan,nan,nan,nan,nan,nan,nan,0.0,nan,nan,nan,nan,nan,nan,nan,nan,nan,nan,nan,nan,nan,nan,nan,nan,nan,nan,445.4842885567341,824.4138933309587,nan,825.0887471244205,nan,nan,nan,nan
1,243,1,1,1.0,1.0,0.7623883868800476,0,3,7,5,2,4,8,nan,nan,nan,nan,nan,nan,nan,nan,nan,nan,nan,nan,0.0,nan,nan,nan,nan,nan,nan,nan,nan,nan,nan,nan,nan,nan,nan,nan,nan,nan,nan,445.4842885567341,825.4223542489344,nan,826.1847426358145,nan,nan,nan,nan
1,244,0,0,0.0,1.0,0.7542345216497779,0,0,5,1,6,2,3,nan,nan,nan,nan,nan,nan,nan,nan,nan,nan,nan,nan,0.0,nan,nan,nan,nan,nan,nan,nan,nan,nan,nan,nan,nan,nan,nan,nan,nan,nan,nan,445.4842885567341,826.4224862504052,nan,827.176720772055,nan,nan,nan,nan
1,245,1,1,nan,nan,nan,0,2,6,3,8,4,1,nan,nan,nan,nan,nan,nan,nan,nan,nan,nan,nan,nan,0.0,nan,nan,nan,nan,nan,nan,nan,nan,nan,nan,nan,nan,nan,nan,nan,nan,nan,nan,445.4842885567341,827.4309665552573,nan,nan,nan,nan,nan,nan
1,246,0,0,nan,nan,nan,0,6,0,1,2,7,4,nan,nan,nan,nan,nan,nan,nan,nan,nan,nan,nan,nan,0.0,nan,nan,nan,nan,nan,nan,nan,nan,nan,nan,nan,nan,nan,nan,nan,nan,nan,nan,445.4842885567341,828.4311133818701,nan,nan,nan,nan,nan,nan
1,247,1,1,1.0,1.0,0.6891173555050045,0,0,4,2,6,8,7,nan,nan,nan,nan,nan,nan,nan,nan,nan,nan,nan,nan,0.0,nan,nan,nan,nan,nan,nan,nan,nan,nan,nan,nan,nan,nan,nan,nan,nan,nan,nan,445.4842885567341,829.4395640362054,nan,830.1286813917104,nan,nan,nan,nan
1,248,1,1,nan,nan,nan,0,7,1,5,4,0,3,nan,nan,nan,nan,nan,nan,nan,nan,nan,nan,nan,nan,0.0,nan,nan,nan,nan,nan,nan,nan,nan,nan,nan,nan,nan,nan,nan,nan,nan,nan,nan,445.4842885567341,830.4480474771699,nan,nan,nan,nan,nan,nan
1,249,0,0,1.0,0.0,0.11220060556661338,0,3,2,8,0,4,5,nan,nan,nan,nan,nan,nan,nan,nan,nan,nan,nan,nan,0.0,nan,nan,nan,nan,nan,nan,nan,nan,nan,nan,nan,nan,nan,nan,nan,nan,nan,nan,445.4842885567341,831.4565155227901,nan,831.5687161283568,nan,nan,nan,nan
1,250,1,1,1.0,1.0,0.44802039256319404,0,5,8,3,6,2,0,nan,nan,nan,nan,nan,nan,nan,nan,nan,nan,nan,nan,0.0,nan,nan,nan,nan,nan,nan,nan,nan,nan,nan,nan,nan,nan,nan,nan,nan,nan,nan,445.4842885567341,832.4566586430883,nan,832.9046790356515,nan,nan,nan,nan
1,251,0,0,0.0,1.0,0.4875406944192946,0,8,2,4,7,6,1,nan,nan,nan,nan,nan,nan,nan,nan,nan,nan,nan,nan,0.0,nan,nan,nan,nan,nan,nan,nan,nan,nan,nan,nan,nan,nan,nan,nan,nan,nan,nan,445.4842885567341,833.4651281140978,nan,833.952668808517,nan,nan,nan,nan
1,252,1,1,1.0,1.0,0.41540464700665325,0,4,8,2,0,7,5,nan,nan,nan,nan,nan,nan,nan,nan,nan,nan,nan,nan,0.0,nan,nan,nan,nan,nan,nan,nan,nan,nan,nan,nan,nan,nan,nan,nan,nan,nan,nan,445.4842885567341,834.4652586899465,nan,834.8806633369531,nan,nan,nan,nan
1,253,1,1,1.0,1.0,0.45523770374711603,0,8,1,6,3,5,2,nan,nan,nan,nan,nan,nan,nan,nan,nan,nan,nan,nan,0.0,nan,nan,nan,nan,nan,nan,nan,nan,nan,nan,nan,nan,nan,nan,nan,nan,nan,nan,445.4842885567341,835.4654032357503,nan,835.9206409394974,nan,nan,nan,nan
1,254,0,0,0.0,1.0,0.6231109618674964,0,5,2,4,0,3,1,nan,nan,nan,nan,nan,nan,nan,nan,nan,nan,nan,nan,0.0,nan,nan,nan,nan,nan,nan,nan,nan,nan,nan,nan,nan,nan,nan,nan,nan,nan,nan,445.4842885567341,836.4655275393743,nan,837.0886385012418,nan,nan,nan,nan
1,255,1,1,1.0,1.0,0.5269609262468293,0,3,6,7,5,1,0,nan,nan,nan,nan,nan,nan,nan,nan,nan,nan,nan,nan,0.0,nan,nan,nan,nan,nan,nan,nan,nan,nan,nan,nan,nan,nan,nan,nan,nan,nan,nan,445.4842885567341,837.4656735106837,nan,837.9926344369305,nan,nan,nan,nan
1,256,1,1,1.0,1.0,0.47081443713977933,0,6,8,1,4,5,3,nan,nan,nan,nan,nan,nan,nan,nan,nan,nan,nan,nan,0.0,nan,nan,nan,nan,nan,nan,nan,nan,nan,nan,nan,nan,nan,nan,nan,nan,nan,nan,445.4842885567341,838.4658035164466,nan,838.9366179535864,nan,nan,nan,nan
1,257,1,1,1.0,1.0,0.4546598056331277,0,1,3,2,6,0,8,nan,nan,nan,nan,nan,nan,nan,nan,nan,nan,nan,nan,0.0,nan,nan,nan,nan,nan,nan,nan,nan,nan,nan,nan,nan,nan,nan,nan,nan,nan,nan,445.4842885567341,839.465942645329,nan,839.9206024509622,nan,nan,nan,nan
1,258,1,1,0.0,0.0,0.5025306916795671,0,4,6,8,7,3,2,nan,nan,nan,nan,nan,nan,nan,nan,nan,nan,nan,nan,0.0,nan,nan,nan,nan,nan,nan,nan,nan,nan,nan,nan,nan,nan,nan,nan,nan,nan,nan,445.4842885567341,840.4660812040092,nan,840.9686118956888,nan,nan,nan,nan
1,259,1,1,1.0,1.0,0.5343912070384249,0,5,2,7,3,8,1,nan,nan,nan,nan,nan,nan,nan,nan,nan,nan,nan,nan,0.0,nan,nan,nan,nan,nan,nan,nan,nan,nan,nan,nan,nan,nan,nan,nan,nan,nan,nan,445.4842885567341,841.4662186222849,nan,842.0006098293234,nan,nan,nan,nan
1,260,1,1,1.0,1.0,0.5422314619645476,0,8,7,1,4,3,6,nan,nan,nan,nan,nan,nan,nan,nan,nan,nan,nan,nan,0.0,nan,nan,nan,nan,nan,nan,nan,nan,nan,nan,nan,nan,nan,nan,nan,nan,nan,nan,445.4842885567341,842.4663571809651,nan,843.0085886429297,nan,nan,nan,nan
1,261,1,1,1.0,1.0,0.4300816042814404,0,6,3,7,2,5,0,nan,nan,nan,nan,nan,nan,nan,nan,nan,nan,nan,nan,0.0,nan,nan,nan,nan,nan,nan,nan,nan,nan,nan,nan,nan,nan,nan,nan,nan,nan,nan,445.4842885567341,843.4664951694431,nan,843.8965767737245,nan,nan,nan,nan
1,262,1,1,1.0,1.0,0.4935936564579606,0,5,8,1,3,6,4,nan,nan,nan,nan,nan,nan,nan,nan,nan,nan,nan,nan,0.0,nan,nan,nan,nan,nan,nan,nan,nan,nan,nan,nan,nan,nan,nan,nan,nan,nan,nan,445.4842885567341,844.4749626447447,nan,844.9685563012026,nan,nan,nan,nan
1,263,1,1,1.0,1.0,0.4290868897223845,1,3,1,6,2,8,7,1.0,1.0,1.0,1.0,1.0,1.0,0.0,0.0,0.0,0.0,0.0,1.0,1.0,1.0,8.0,4.0,4.0,5.0,7.0,2.0,3.0,4.0,5.0,6.0,1.0,3.993876618333161,9.857707640505396,10.687767976312898,11.544103429769166,12.871966640930623,0.897471703006886,445.4842885567341,845.4834543536417,846.291863326449,845.9125412433641,860.2271073821466,861.2327475190395,847.3169977583457,860.2187730486039
1,264,1,1,1.0,1.0,0.4287821175530553,0,2,8,7,4,0,1,nan,nan,nan,nan,nan,nan,nan,nan,nan,nan,nan,nan,0.0,nan,nan,nan,nan,nan,nan,nan,nan,nan,nan,nan,nan,nan,nan,nan,nan,nan,nan,445.4842885567341,861.4356390620815,nan,861.8644211796345,nan,nan,nan,nan
1,265,1,1,1.0,1.0,0.35662440257146955,0,1,4,5,2,3,6,nan,nan,nan,nan,nan,nan,nan,nan,nan,nan,nan,nan,0.0,nan,nan,nan,nan,nan,nan,nan,nan,nan,nan,nan,nan,nan,nan,nan,nan,nan,nan,445.4842885567341,862.4357602295931,nan,862.7923846321646,nan,nan,nan,nan
1,266,1,1,1.0,1.0,0.29248912120237947,0,6,5,4,3,1,8,nan,nan,nan,nan,nan,nan,nan,nan,nan,nan,nan,nan,0.0,nan,nan,nan,nan,nan,nan,nan,nan,nan,nan,nan,nan,nan,nan,nan,nan,nan,nan,445.4842885567341,863.4358990734909,nan,863.7283881946933,nan,nan,nan,nan
1,267,1,1,1.0,1.0,0.27632850280497223,0,1,0,3,5,4,2,nan,nan,nan,nan,nan,nan,nan,nan,nan,nan,nan,nan,0.0,nan,nan,nan,nan,nan,nan,nan,nan,nan,nan,nan,nan,nan,nan,nan,nan,nan,nan,445.4842885567341,864.4360401979648,nan,864.7123687007697,nan,nan,nan,nan
1,268,1,1,1.0,1.0,0.24420113360974938,0,0,6,8,3,1,7,nan,nan,nan,nan,nan,nan,nan,nan,nan,nan,nan,nan,0.0,nan,nan,nan,nan,nan,nan,nan,nan,nan,nan,nan,nan,nan,nan,nan,nan,nan,nan,445.4842885567341,865.4361716292333,nan,865.680372762843,nan,nan,nan,nan
1,269,1,1,1.0,1.0,0.20408012566622347,0,1,2,6,7,5,4,nan,nan,nan,nan,nan,nan,nan,nan,nan,nan,nan,nan,0.0,nan,nan,nan,nan,nan,nan,nan,nan,nan,nan,nan,nan,nan,nan,nan,nan,nan,nan,445.4842885567341,866.4362776865019,nan,866.6403578121681,nan,nan,nan,nan
1,270,1,1,1.0,1.0,0.2439003528561443,0,6,3,7,5,4,0,nan,nan,nan,nan,nan,nan,nan,nan,nan,nan,nan,nan,0.0,nan,nan,nan,nan,nan,nan,nan,nan,nan,nan,nan,nan,nan,nan,nan,nan,nan,nan,445.4842885567341,867.4364513125038,nan,867.6803516653599,nan,nan,nan,nan
1,271,1,1,1.0,1.0,0.1957891273777932,0,8,7,4,2,3,1,nan,nan,nan,nan,nan,nan,nan,nan,nan,nan,nan,nan,0.0,nan,nan,nan,nan,nan,nan,nan,nan,nan,nan,nan,nan,nan,nan,nan,nan,nan,nan,445.4842885567341,868.4365525230533,nan,868.632341650431,nan,nan,nan,nan
1,272,1,1,1.0,1.0,0.22760203096549958,0,5,0,3,8,6,2,nan,nan,nan,nan,nan,nan,nan,nan,nan,nan,nan,nan,0.0,nan,nan,nan,nan,nan,nan,nan,nan,nan,nan,nan,nan,nan,nan,nan,nan,nan,nan,445.4842885567341,869.4367244384484,nan,869.6643264694139,nan,nan,nan,nan
1,273,1,1,1.0,1.0,0.29944984219036996,0,7,8,4,3,1,6,nan,nan,nan,nan,nan,nan,nan,nan,nan,nan,nan,nan,0.0,nan,nan,nan,nan,nan,nan,nan,nan,nan,nan,nan,nan,nan,nan,nan,nan,nan,nan,445.4842885567341,870.4368718352634,nan,870.7363216774538,nan,nan,nan,nan
1,274,1,1,1.0,1.0,0.32330588484182954,0,1,2,5,8,3,0,nan,nan,nan,nan,nan,nan,nan,nan,nan,nan,nan,nan,0.0,nan,nan,nan,nan,nan,nan,nan,nan,nan,nan,nan,nan,nan,nan,nan,nan,nan,nan,445.4842885567341,871.4370009856066,nan,871.7603068704484,nan,nan,nan,nan
1,275,1,1,1.0,1.0,0.3791812435956672,0,3,0,7,1,4,6,nan,nan,nan,nan,nan,nan,nan,nan,nan,nan,nan,nan,0.0,nan,nan,nan,nan,nan,nan,nan,nan,nan,nan,nan,nan,nan,nan,nan,nan,nan,nan,445.4842885567341,872.4371221532347,nan,872.8163033968303,nan,nan,nan,nan
1,276,1,1,1.0,1.0,0.3070112691493705,0,0,5,4,8,1,2,nan,nan,nan,nan,nan,nan,nan,nan,nan,nan,nan,nan,0.0,nan,nan,nan,nan,nan,nan,nan,nan,nan,nan,nan,nan,nan,nan,nan,nan,nan,nan,445.4842885567341,873.4372818092816,nan,873.7442930784309,nan,nan,nan,nan
1,277,1,1,1.0,1.0,0.3628974616294727,0,5,6,1,0,4,8,nan,nan,nan,nan,nan,nan,nan,nan,nan,nan,nan,nan,0.0,nan,nan,nan,nan,nan,nan,nan,nan,nan,nan,nan,nan,nan,nan,nan,nan,nan,nan,445.4842885567341,874.4373747520149,nan,874.8002722136443,nan,nan,nan,nan
1,278,1,1,1.0,1.0,0.3067007950739935,0,1,7,8,5,6,4,nan,nan,nan,nan,nan,nan,nan,nan,nan,nan,nan,nan,0.0,nan,nan,nan,nan,nan,nan,nan,nan,nan,nan,nan,nan,nan,nan,nan,nan,nan,nan,445.4842885567341,875.4375694753835,nan,875.7442702704575,nan,nan,nan,nan
1,279,1,1,1.0,1.0,0.3385787014849484,0,0,3,2,6,1,7,nan,nan,nan,nan,nan,nan,nan,nan,nan,nan,nan,nan,0.0,nan,nan,nan,nan,nan,nan,nan,nan,nan,nan,nan,nan,nan,nan,nan,nan,nan,nan,445.4842885567341,876.4376880771015,nan,876.7762667785864,nan,nan,nan,nan
1,280,1,1,1.0,1.0,0.4664082139497623,0,3,8,0,7,4,1,nan,nan,nan,nan,nan,nan,nan,nan,nan,nan,nan,nan,0.0,nan,nan,nan,nan,nan,nan,nan,nan,nan,nan,nan,nan,nan,nan,nan,nan,nan,nan,445.4842885567341,877.4378354738001,nan,877.9042436877498,nan,nan,nan,nan
1,281,0,0,1.0,0.0,0.5622728641610593,0,6,0,3,2,8,4,nan,nan,nan,nan,nan,nan,nan,nan,nan,nan,nan,nan,0.0,nan,nan,nan,nan,nan,nan,nan,nan,nan,nan,nan,nan,nan,nan,nan,nan,nan,nan,445.4842885567341,878.4379680454731,nan,879.0002409096342,nan,nan,nan,nan
1,282,1,1,1.0,1.0,0.43411719729192555,0,5,8,6,0,1,7,nan,nan,nan,nan,nan,nan,nan,nan,nan,nan,nan,nan,0.0,nan,nan,nan,nan,nan,nan,nan,nan,nan,nan,nan,nan,nan,nan,nan,nan,nan,nan,445.4842885567341,879.4380903533893,nan,879.8722075506812,nan,nan,nan,nan
1,283,1,1,1.0,1.0,0.7779836518457159,0,6,2,4,3,0,5,nan,nan,nan,nan,nan,nan,nan,nan,nan,nan,nan,nan,0.0,nan,nan,nan,nan,nan,nan,nan,nan,nan,nan,nan,nan,nan,nan,nan,nan,nan,nan,445.4842885567341,880.4382326183841,nan,881.2162162702298,nan,nan,nan,nan
1,284,1,1,1.0,1.0,0.63385154097341,0,0,6,2,1,8,4,nan,nan,nan,nan,nan,nan,nan,nan,nan,nan,nan,nan,0.0,nan,nan,nan,nan,nan,nan,nan,nan,nan,nan,nan,nan,nan,nan,nan,nan,nan,nan,445.4842885567341,881.4383686111541,nan,882.0722201521276,nan,nan,nan,nan
1,285,1,1,nan,nan,nan,1,1,0,3,4,7,5,1.0,1.0,1.0,1.0,1.0,1.0,1.0,0.0,0.0,0.0,0.0,0.0,1.0,1.0,1.0,4.0,8.0,2.0,3.0,1.0,5.0,6.0,2.0,3.0,4.0,1.228739295504056,8.324181712581776,9.084636550047435,2.478773293783888,4.676125910482369,7.277306396281347,445.4842885567341,882.4385060294298,883.2469423718285,nan,893.3983274312923,894.3980639987858,884.2720825057477,893.3899945232552
1,286,1,1,1.0,1.0,0.6656139817787334,0,2,1,5,3,6,7,nan,nan,nan,nan,nan,nan,nan,nan,nan,nan,nan,nan,0.0,nan,nan,nan,nan,nan,nan,nan,nan,nan,nan,nan,nan,nan,nan,nan,nan,nan,nan,445.4842885567341,894.5984874295536,nan,895.2641014113324,nan,nan,nan,nan
1,287,1,1,1.0,1.0,0.6414169593481347,0,0,2,4,8,3,1,nan,nan,nan,nan,nan,nan,nan,nan,nan,nan,nan,nan,0.0,nan,nan,nan,nan,nan,nan,nan,nan,nan,nan,nan,nan,nan,nan,nan,nan,nan,nan,445.4842885567341,895.5986487962073,nan,896.2400657555554,nan,nan,nan,nan
1,288,1,1,1.0,1.0,0.7452766740461811,0,5,0,2,1,4,6,nan,nan,nan,nan,nan,nan,nan,nan,nan,nan,nan,nan,0.0,nan,nan,nan,nan,nan,nan,nan,nan,nan,nan,nan,nan,nan,nan,nan,nan,nan,nan,445.4842885567341,896.5987919165054,nan,897.3440685905516,nan,nan,nan,nan
1,289,1,1,1.0,1.0,0.5931241249199957,0,3,2,7,5,6,4,nan,nan,nan,nan,nan,nan,nan,nan,nan,nan,nan,nan,0.0,nan,nan,nan,nan,nan,nan,nan,nan,nan,nan,nan,nan,nan,nan,nan,nan,nan,nan,445.4842885567341,897.5989293347811,nan,898.1920534597011,nan,nan,nan,nan
1,290,1,1,1.0,1.0,0.5530034020775929,0,1,0,8,3,4,7,nan,nan,nan,nan,nan,nan,nan,nan,nan,nan,nan,nan,0.0,nan,nan,nan,nan,nan,nan,nan,nan,nan,nan,nan,nan,nan,nan,nan,nan,nan,nan,445.4842885567341,898.599049932207,nan,899.1520533342846,nan,nan,nan,nan
1,291,1,1,1.0,1.0,0.4488697061315179,1,5,7,4,8,1,6,1.0,1.0,1.0,1.0,1.0,1.0,0.0,0.0,0.0,0.0,0.0,1.0,1.0,2.0,4.0,7.0,3.0,2.0,6.0,4.0,6.0,5.0,2.0,3.0,1.0,5.708630181965418,9.115688521182165,7.364364872337319,3.404758721124381,4.9959039656678215,1.5021144454367459,445.4842885567341,899.599221562501,900.4076313906116,900.0480912686326,910.5840097572654,911.589127590647,901.432767248014,910.5756751386216
1,292,1,1,1.0,1.0,0.47140858590137213,0,3,8,2,0,5,7,nan,nan,nan,nan,nan,nan,nan,nan,nan,nan,nan,nan,0.0,nan,nan,nan,nan,nan,nan,nan,nan,nan,nan,nan,nan,nan,nan,nan,nan,nan,nan,445.4842885567341,911.7925425776048,nan,912.2639511635061,nan,nan,nan,nan
1,293,1,1,1.0,1.0,0.10324161755852401,0,6,7,8,1,2,4,nan,nan,nan,nan,nan,nan,nan,nan,nan,nan,nan,nan,0.0,nan,nan,nan,nan,nan,nan,nan,nan,nan,nan,nan,nan,nan,nan,nan,nan,nan,nan,445.4842885567341,912.7926828468917,nan,912.8959244644502,nan,nan,nan,nan
1,294,1,1,1.0,1.0,0.35109374416060746,0,0,1,5,6,7,3,nan,nan,nan,nan,nan,nan,nan,nan,nan,nan,nan,nan,0.0,nan,nan,nan,nan,nan,nan,nan,nan,nan,nan,nan,nan,nan,nan,nan,nan,nan,nan,445.4842885567341,913.7928128525382,nan,914.1439065966988,nan,nan,nan,nan
1,295,1,1,1.0,1.0,0.3749839988304302,0,6,3,7,2,1,8,nan,nan,nan,nan,nan,nan,nan,nan,nan,nan,nan,nan,0.0,nan,nan,nan,nan,nan,nan,nan,nan,nan,nan,nan,nan,nan,nan,nan,nan,nan,nan,445.4842885567341,914.7929180545034,nan,915.1679020533338,nan,nan,nan,nan
1,296,1,1,1.0,1.0,0.39847596851177514,0,1,5,2,6,0,4,nan,nan,nan,nan,nan,nan,nan,nan,nan,nan,nan,nan,0.0,nan,nan,nan,nan,nan,nan,nan,nan,nan,nan,nan,nan,nan,nan,nan,nan,nan,nan,445.4842885567341,915.8014160356252,nan,916.1998920041369,nan,nan,nan,nan
1,297,1,1,1.0,1.0,0.3823139243759215,0,0,4,3,2,5,8,nan,nan,nan,nan,nan,nan,nan,nan,nan,nan,nan,nan,0.0,nan,nan,nan,nan,nan,nan,nan,nan,nan,nan,nan,nan,nan,nan,nan,nan,nan,nan,445.4842885567341,916.8015628622379,nan,917.1838767866138,nan,nan,nan,nan
1,298,1,1,1.0,1.0,0.35817563254386187,0,8,7,4,5,0,2,nan,nan,nan,nan,nan,nan,nan,nan,nan,nan,nan,nan,0.0,nan,nan,nan,nan,nan,nan,nan,nan,nan,nan,nan,nan,nan,nan,nan,nan,nan,nan,445.4842885567341,917.8016994252102,nan,918.1598750577541,nan,nan,nan,nan
1,299,1,1,1.0,1.0,0.3820673127193004,0,6,5,1,2,7,0,nan,nan,nan,nan,nan,nan,nan,nan,nan,nan,nan,nan,0.0,nan,nan,nan,nan,nan,nan,nan,nan,nan,nan,nan,nan,nan,nan,nan,nan,nan,nan,445.4842885567341,918.8018029165687,nan,919.183870229288,nan,nan,nan,nan
1,300,1,1,1.0,1.0,0.34987380041275173,0,4,6,3,7,2,1,nan,nan,nan,nan,nan,nan,nan,nan,nan,nan,nan,nan,0.0,nan,nan,nan,nan,nan,nan,nan,nan,nan,nan,nan,nan,nan,nan,nan,nan,nan,nan,445.4842885567341,919.8019825296942,nan,920.151856330107,nan,nan,nan,nan
1,301,1,1,1.0,1.0,0.30971915065310895,0,0,1,5,2,4,7,nan,nan,nan,nan,nan,nan,nan,nan,nan,nan,nan,nan,0.0,nan,nan,nan,nan,nan,nan,nan,nan,nan,nan,nan,nan,nan,nan,nan,nan,nan,nan,445.4842885567341,920.802129356307,nan,921.1118485069601,nan,nan,nan,nan
1,302,0,0,1.0,0.0,0.2775689736008644,0,1,6,3,7,5,2,nan,nan,nan,nan,nan,nan,nan,nan,nan,nan,nan,nan,0.0,nan,nan,nan,nan,nan,nan,nan,nan,nan,nan,nan,nan,nan,nan,nan,nan,nan,nan,445.4842885567341,921.8022493834142,nan,922.079818357015,nan,nan,nan,nan
1,303,1,1,1.0,1.0,0.36507249099668115,0,2,4,0,1,8,3,nan,nan,nan,nan,nan,nan,nan,nan,nan,nan,nan,nan,0.0,nan,nan,nan,nan,nan,nan,nan,nan,nan,nan,nan,nan,nan,nan,nan,nan,nan,nan,445.4842885567341,922.8107157184277,nan,923.1757882094244,nan,nan,nan,nan
1,304,1,1,1.0,1.0,0.35697422036901116,0,5,6,7,0,4,2,nan,nan,nan,nan,nan,nan,nan,nan,nan,nan,nan,nan,0.0,nan,nan,nan,nan,nan,nan,nan,nan,nan,nan,nan,nan,nan,nan,nan,nan,nan,nan,445.4842885567341,923.8108311839169,nan,924.1678054042859,nan,nan,nan,nan
1,305,1,1,1.0,1.0,0.4368128194473684,0,8,5,6,2,1,0,nan,nan,nan,nan,nan,nan,nan,nan,nan,nan,nan,nan,0.0,nan,nan,nan,nan,nan,nan,nan,nan,nan,nan,nan,nan,nan,nan,nan,nan,nan,nan,445.4842885567341,924.8109968272038,nan,925.2478096466511,nan,nan,nan,nan
1,306,1,1,1.0,1.0,0.500671838526614,0,3,8,5,0,7,4,nan,nan,nan,nan,nan,nan,nan,nan,nan,nan,nan,nan,0.0,nan,nan,nan,nan,nan,nan,nan,nan,nan,nan,nan,nan,nan,nan,nan,nan,nan,nan,445.4842885567341,925.8111296838615,nan,926.3118015223881,nan,nan,nan,nan
1,307,1,1,1.0,1.0,0.4845214835368097,0,7,0,4,1,6,8,nan,nan,nan,nan,nan,nan,nan,nan,nan,nan,nan,nan,0.0,nan,nan,nan,nan,nan,nan,nan,nan,nan,nan,nan,nan,nan,nan,nan,nan,nan,nan,445.4842885567341,926.8112679574406,nan,927.2957894409774,nan,nan,nan,nan
1,308,1,1,1.0,1.0,0.44437139539513737,0,2,3,7,6,5,4,nan,nan,nan,nan,nan,nan,nan,nan,nan,nan,nan,nan,0.0,nan,nan,nan,nan,nan,nan,nan,nan,nan,nan,nan,nan,nan,nan,nan,nan,nan,nan,445.4842885567341,927.8114039502107,nan,928.2557753456058,nan,nan,nan,nan
1,309,1,1,1.0,1.0,0.4042176010552794,0,6,5,1,3,0,7,nan,nan,nan,nan,nan,nan,nan,nan,nan,nan,nan,nan,0.0,nan,nan,nan,nan,nan,nan,nan,nan,nan,nan,nan,nan,nan,nan,nan,nan,nan,nan,445.4842885567341,928.8115430790931,nan,929.2157606801484,nan,nan,nan,nan
1,310,0,0,0.0,1.0,0.5557315257610753,0,0,1,4,2,7,3,nan,nan,nan,nan,nan,nan,nan,nan,nan,nan,nan,nan,0.0,nan,nan,nan,nan,nan,nan,nan,nan,nan,nan,nan,nan,nan,nan,nan,nan,nan,nan,445.4842885567341,929.8200225286419,nan,930.3757540544029,nan,nan,nan,nan
1,311,1,1,1.0,1.0,0.3955827718600631,0,4,2,0,6,1,8,nan,nan,nan,nan,nan,nan,nan,nan,nan,nan,nan,nan,0.0,nan,nan,nan,nan,nan,nan,nan,nan,nan,nan,nan,nan,nan,nan,nan,nan,nan,nan,445.4842885567341,930.8201545299962,nan,931.2157373018563,nan,nan,nan,nan
1,312,1,1,1.0,1.0,0.45147153036668897,0,2,1,8,3,4,7,nan,nan,nan,nan,nan,nan,nan,nan,nan,nan,nan,nan,0.0,nan,nan,nan,nan,nan,nan,nan,nan,nan,nan,nan,nan,nan,nan,nan,nan,nan,nan,445.4842885567341,931.8202594468603,nan,932.271730977227,nan,nan,nan,nan
1,313,1,1,nan,nan,nan,0,0,4,1,8,3,6,nan,nan,nan,nan,nan,nan,nan,nan,nan,nan,nan,nan,0.0,nan,nan,nan,nan,nan,nan,nan,nan,nan,nan,nan,nan,nan,nan,nan,nan,nan,nan,445.4842885567341,932.8204310771544,nan,nan,nan,nan,nan,nan
1,314,1,1,1.0,1.0,0.611123924725689,0,3,7,6,4,5,1,nan,nan,nan,nan,nan,nan,nan,nan,nan,nan,nan,nan,0.0,nan,nan,nan,nan,nan,nan,nan,nan,nan,nan,nan,nan,nan,nan,nan,nan,nan,nan,445.4842885567341,933.8205562361982,nan,934.4316801609239,nan,nan,nan,nan
1,315,0,0,0.0,1.0,0.5386936538852751,0,7,2,1,3,8,6,nan,nan,nan,nan,nan,nan,nan,nan,nan,nan,nan,nan,0.0,nan,nan,nan,nan,nan,nan,nan,nan,nan,nan,nan,nan,nan,nan,nan,nan,nan,nan,445.4842885567341,934.8210429021856,nan,935.3597365560709,nan,nan,nan,nan
1,316,1,1,1.0,1.0,0.43483422428835183,0,3,8,5,1,2,0,nan,nan,nan,nan,nan,nan,nan,nan,nan,nan,nan,nan,0.0,nan,nan,nan,nan,nan,nan,nan,nan,nan,nan,nan,nan,nan,nan,nan,nan,nan,nan,445.4842885567341,935.8208667102735,nan,936.2557009345619,nan,nan,nan,nan
1,317,1,1,1.0,1.0,0.3947217692621052,0,5,3,4,6,7,2,nan,nan,nan,nan,nan,nan,nan,nan,nan,nan,nan,nan,0.0,nan,nan,nan,nan,nan,nan,nan,nan,nan,nan,nan,nan,nan,nan,nan,nan,nan,nan,445.4842885567341,936.8209784695646,nan,937.2157002388267,nan,nan,nan,nan
1,318,1,1,1.0,1.0,0.49055477359797806,1,6,8,0,1,3,4,1.0,1.0,1.0,1.0,1.0,1.0,1.0,1.0,0.0,1.0,1.0,0.0,4.0,6.0,8.0,4.0,1.0,3.0,8.0,1.0,6.0,5.0,2.0,3.0,4.0,0.8549273436656222,11.55771895905491,9.510019133100286,3.102519173640758,4.261673498083837,6.349323556991294,445.4842885567341,937.8211193090538,938.6295368348947,938.3116740826517,951.2396016124403,952.2423719308572,939.6463440606603,951.231270700111
1,319,1,1,1.0,1.0,0.5033911240752786,0,7,5,3,8,2,6,nan,nan,nan,nan,nan,nan,nan,nan,nan,nan,nan,nan,0.0,nan,nan,nan,nan,nan,nan,nan,nan,nan,nan,nan,nan,nan,nan,nan,nan,nan,nan,445.4842885567341,952.4481404199032,nan,952.9515315439785,nan,nan,nan,nan
1,320,1,1,1.0,1.0,0.5353194932686165,0,3,2,1,5,7,8,nan,nan,nan,nan,nan,nan,nan,nan,nan,nan,nan,nan,0.0,nan,nan,nan,nan,nan,nan,nan,nan,nan,nan,nan,nan,nan,nan,nan,nan,nan,nan,445.4842885567341,953.4482230988797,nan,953.9835425921483,nan,nan,nan,nan
1,321,1,1,1.0,1.0,0.44714000332169235,0,1,5,6,2,3,0,nan,nan,nan,nan,nan,nan,nan,nan,nan,nan,nan,nan,0.0,nan,nan,nan,nan,nan,nan,nan,nan,nan,nan,nan,nan,nan,nan,nan,nan,nan,nan,445.4842885567341,954.4483750573127,nan,954.8955150606344,nan,nan,nan,nan
1,322,1,1,1.0,1.0,0.33497246936894953,0,4,8,1,7,0,5,nan,nan,nan,nan,nan,nan,nan,nan,nan,nan,nan,nan,0.0,nan,nan,nan,nan,nan,nan,nan,nan,nan,nan,nan,nan,nan,nan,nan,nan,nan,nan,445.4842885567341,955.4485387047753,nan,955.7835111741442,nan,nan,nan,nan
1,323,1,1,1.0,1.0,0.2948212408227846,0,5,6,8,4,2,0,nan,nan,nan,nan,nan,nan,nan,nan,nan,nan,nan,nan,0.0,nan,nan,nan,nan,nan,nan,nan,nan,nan,nan,nan,nan,nan,nan,nan,nan,nan,nan,445.4842885567341,956.4486729869386,nan,956.7434942277614,nan,nan,nan,nan
1,324,1,1,1.0,1.0,0.2466923389583826,0,4,2,3,8,1,6,nan,nan,nan,nan,nan,nan,nan,nan,nan,nan,nan,nan,0.0,nan,nan,nan,nan,nan,nan,nan,nan,nan,nan,nan,nan,nan,nan,nan,nan,nan,nan,445.4842885567341,957.4488047033083,nan,957.6954970422667,nan,nan,nan,nan
1,325,0,0,1.0,0.0,0.2625498960260302,0,7,0,1,3,6,4,nan,nan,nan,nan,nan,nan,nan,nan,nan,nan,nan,nan,0.0,nan,nan,nan,nan,nan,nan,nan,nan,nan,nan,nan,nan,nan,nan,nan,nan,nan,nan,445.4842885567341,958.4489435470896,nan,958.7114934431156,nan,nan,nan,nan
1,326,1,1,1.0,1.0,0.33437689498532563,0,0,5,4,2,3,7,nan,nan,nan,nan,nan,nan,nan,nan,nan,nan,nan,nan,0.0,nan,nan,nan,nan,nan,nan,nan,nan,nan,nan,nan,nan,nan,nan,nan,nan,nan,nan,445.4842885567341,959.4490920843091,nan,959.7834689792944,nan,nan,nan,nan
1,327,1,1,1.0,1.0,0.4462279677391052,0,7,4,6,3,1,5,nan,nan,nan,nan,nan,nan,nan,nan,nan,nan,nan,nan,0.0,nan,nan,nan,nan,nan,nan,nan,nan,nan,nan,nan,nan,nan,nan,nan,nan,nan,nan,445.4842885567341,960.4492240856634,nan,960.8954520534026,nan,nan,nan,nan
1,328,1,1,1.0,1.0,0.422088535502553,0,6,8,5,0,2,7,nan,nan,nan,nan,nan,nan,nan,nan,nan,nan,nan,nan,0.0,nan,nan,nan,nan,nan,nan,nan,nan,nan,nan,nan,nan,nan,nan,nan,nan,nan,nan,445.4842885567341,961.4493700569728,nan,961.8714585924754,nan,nan,nan,nan
1,329,1,1,1.0,1.0,0.3739331194665283,0,7,5,8,1,6,4,nan,nan,nan,nan,nan,nan,nan,nan,nan,nan,nan,nan,0.0,nan,nan,nan,nan,nan,nan,nan,nan,nan,nan,nan,nan,nan,nan,nan,nan,nan,nan,445.4842885567341,962.4495037689339,nan,962.8234368884005,nan,nan,nan,nan
1,330,1,1,1.0,1.0,0.30179707193747163,0,8,6,0,3,1,7,nan,nan,nan,nan,nan,nan,nan,nan,nan,nan,nan,nan,0.0,nan,nan,nan,nan,nan,nan,nan,nan,nan,nan,nan,nan,nan,nan,nan,nan,nan,nan,445.4842885567341,963.4496477445355,nan,963.7514448164729,nan,nan,nan,nan
1,331,1,1,1.0,1.0,0.26963777164928615,0,3,1,6,5,0,4,nan,nan,nan,nan,nan,nan,nan,nan,nan,nan,nan,nan,0.0,nan,nan,nan,nan,nan,nan,nan,nan,nan,nan,nan,nan,nan,nan,nan,nan,nan,nan,445.4842885567341,964.4497825969011,nan,964.7194203685503,nan,nan,nan,nan
1,332,1,1,1.0,1.0,0.22949452593456954,0,0,5,4,1,8,3,nan,nan,nan,nan,nan,nan,nan,nan,nan,nan,nan,nan,0.0,nan,nan,nan,nan,nan,nan,nan,nan,nan,nan,nan,nan,nan,nan,nan,nan,nan,nan,445.4842885567341,965.44991830457,nan,965.6794128305046,nan,nan,nan,nan
1,333,1,1,1.0,1.0,0.2533480026759207,0,2,7,5,3,4,6,nan,nan,nan,nan,nan,nan,nan,nan,nan,nan,nan,nan,0.0,nan,nan,nan,nan,nan,nan,nan,nan,nan,nan,nan,nan,nan,nan,nan,nan,nan,nan,445.4842885567341,966.4500591440592,nan,966.7034071467351,nan,nan,nan,nan
1,334,1,1,1.0,1.0,0.2852167858509347,0,5,0,1,8,6,3,nan,nan,nan,nan,nan,nan,nan,nan,nan,nan,nan,nan,0.0,nan,nan,nan,nan,nan,nan,nan,nan,nan,nan,nan,nan,nan,nan,nan,nan,nan,nan,445.4842885567341,967.4501834477996,nan,967.7354002336506,nan,nan,nan,nan
1,335,1,1,1.0,1.0,0.2850768016651273,0,7,4,5,6,1,2,nan,nan,nan,nan,nan,nan,nan,nan,nan,nan,nan,nan,0.0,nan,nan,nan,nan,nan,nan,nan,nan,nan,nan,nan,nan,nan,nan,nan,nan,nan,nan,445.4842885567341,968.4503185852664,nan,968.7353953869315,nan,nan,nan,nan
1,336,0,0,1.0,0.0,0.35692603839561343,0,0,8,7,5,2,3,nan,nan,nan,nan,nan,nan,nan,nan,nan,nan,nan,nan,0.0,nan,nan,nan,nan,nan,nan,nan,nan,nan,nan,nan,nan,nan,nan,nan,nan,nan,nan,445.4842885567341,969.4504562886432,nan,969.8073823270388,nan,nan,nan,nan
1,337,1,1,1.0,1.0,0.35676438664086163,0,1,2,4,8,3,5,nan,nan,nan,nan,nan,nan,nan,nan,nan,nan,nan,nan,0.0,nan,nan,nan,nan,nan,nan,nan,nan,nan,nan,nan,nan,nan,nan,nan,nan,nan,nan,445.4842885567341,970.4505996940425,nan,970.8073640806833,nan,nan,nan,nan
1,338,0,0,0.0,1.0,0.42864983109757304,0,2,5,6,3,0,8,nan,nan,nan,nan,nan,nan,nan,nan,nan,nan,nan,nan,0.0,nan,nan,nan,nan,nan,nan,nan,nan,nan,nan,nan,nan,nan,nan,nan,nan,nan,nan,445.4842885567341,971.4507083172211,nan,971.8793581483187,nan,nan,nan,nan
1,339,1,1,1.0,1.0,0.44452648994047195,1,7,8,2,4,5,1,1.0,1.0,1.0,1.0,1.0,1.0,1.0,0.0,0.0,1.0,1.0,0.0,3.0,7.0,3.0,1.0,4.0,5.0,8.0,2.0,6.0,5.0,4.0,1.0,3.0,2.1199866915121675,6.327196932048537,5.383946407935582,4.047542735817842,1.114233654923737,3.0311161186546087,445.4842885567341,972.4508337612497,973.2593023199588,972.8953602511901,980.6519690871937,981.6481276473496,974.2844421687769,980.6436455874937
1,340,1,1,1.0,1.0,0.33911668544169515,0,0,4,3,5,1,7,nan,nan,nan,nan,nan,nan,nan,nan,nan,nan,nan,nan,0.0,nan,nan,nan,nan,nan,nan,nan,nan,nan,nan,nan,nan,nan,nan,nan,nan,nan,nan,445.4842885567341,981.8521687143948,nan,982.1912853998365,nan,nan,nan,nan
1,341,1,1,1.0,1.0,0.4109553735470399,0,7,5,8,2,4,6,nan,nan,nan,nan,nan,nan,nan,nan,nan,nan,nan,nan,0.0,nan,nan,nan,nan,nan,nan,nan,nan,nan,nan,nan,nan,nan,nan,nan,nan,nan,nan,445.4842885567341,982.8522967243334,nan,983.2632520978805,nan,nan,nan,nan
1,342,1,1,1.0,1.0,0.4668039329117164,0,6,0,4,7,5,3,nan,nan,nan,nan,nan,nan,nan,nan,nan,nan,nan,nan,0.0,nan,nan,nan,nan,nan,nan,nan,nan,nan,nan,nan,nan,nan,nan,nan,nan,nan,nan,445.4842885567341,983.8524469721597,nan,984.3192509050714,nan,nan,nan,nan
1,343,1,1,1.0,1.0,0.4026620944496244,0,1,7,5,0,4,6,nan,nan,nan,nan,nan,nan,nan,nan,nan,nan,nan,nan,0.0,nan,nan,nan,nan,nan,nan,nan,nan,nan,nan,nan,nan,nan,nan,nan,nan,nan,nan,445.4842885567341,984.8525715608848,nan,985.2552336553345,nan,nan,nan,nan
1,344,1,1,1.0,1.0,0.33850286481902003,0,7,8,3,1,6,4,nan,nan,nan,nan,nan,nan,nan,nan,nan,nan,nan,nan,0.0,nan,nan,nan,nan,nan,nan,nan,nan,nan,nan,nan,nan,nan,nan,nan,nan,nan,nan,445.4842885567341,985.8527269405313,nan,986.1912298053503,nan,nan,nan,nan
1,345,1,1,1.0,1.0,0.2900346938986331,0,3,4,7,5,1,6,nan,nan,nan,nan,nan,nan,nan,nan,nan,nan,nan,nan,0.0,nan,nan,nan,nan,nan,nan,nan,nan,nan,nan,nan,nan,nan,nan,nan,nan,nan,nan,445.4842885567341,986.8611872883048,nan,987.1512219822034,nan,nan,nan,nan
1,346,1,1,1.0,1.0,0.2658869937295094,0,8,5,4,7,0,1,nan,nan,nan,nan,nan,nan,nan,nan,nan,nan,nan,nan,0.0,nan,nan,nan,nan,nan,nan,nan,nan,nan,nan,nan,nan,nan,nan,nan,nan,nan,nan,445.4842885567341,987.8613269873895,nan,988.127213981119,nan,nan,nan,nan
1,347,1,1,1.0,1.0,0.34541739942505956,0,0,2,1,8,4,3,nan,nan,nan,nan,nan,nan,nan,nan,nan,nan,nan,nan,0.0,nan,nan,nan,nan,nan,nan,nan,nan,nan,nan,nan,nan,nan,nan,nan,nan,nan,nan,445.4842885567341,988.8697859097738,nan,989.2152033091988,nan,nan,nan,nan
1,348,1,1,1.0,1.0,0.2732482802821323,0,5,6,8,0,3,1,nan,nan,nan,nan,nan,nan,nan,nan,nan,nan,nan,nan,0.0,nan,nan,nan,nan,nan,nan,nan,nan,nan,nan,nan,nan,nan,nan,nan,nan,nan,nan,445.4842885567341,989.8699278896675,nan,990.1431761699496,nan,nan,nan,nan
1,349,1,1,1.0,1.0,0.28876913408748806,0,4,8,1,5,0,3,nan,nan,nan,nan,nan,nan,nan,nan,nan,nan,nan,nan,0.0,nan,nan,nan,nan,nan,nan,nan,nan,nan,nan,nan,nan,nan,nan,nan,nan,nan,nan,445.4842885567341,990.8784061988117,nan,991.1671753328992,nan,nan,nan,nan
1,350,1,1,1.0,1.0,0.21661541040521115,0,7,3,8,1,5,2,nan,nan,nan,nan,nan,nan,nan,nan,nan,nan,nan,nan,0.0,nan,nan,nan,nan,nan,nan,nan,nan,nan,nan,nan,nan,nan,nan,nan,nan,nan,nan,445.4842885567341,991.8785430468852,nan,992.0951584572904,nan,nan,nan,nan
1,351,1,1,1.0,1.0,0.22445851634256542,0,1,8,4,3,6,0,nan,nan,nan,nan,nan,nan,nan,nan,nan,nan,nan,nan,0.0,nan,nan,nan,nan,nan,nan,nan,nan,nan,nan,nan,nan,nan,nan,nan,nan,nan,nan,445.4842885567341,992.8786867373856,nan,993.1031452537281,nan,nan,nan,nan
1,352,0,0,1.0,0.0,0.30434102087747306,0,3,5,0,6,2,1,nan,nan,nan,nan,nan,nan,nan,nan,nan,nan,nan,nan,0.0,nan,nan,nan,nan,nan,nan,nan,nan,nan,nan,nan,nan,nan,nan,nan,nan,nan,nan,445.4842885567341,993.8788127516164,nan,994.1831537724938,nan,nan,nan,nan
1,353,1,1,1.0,1.0,0.3201726338593289,0,5,6,2,7,4,3,nan,nan,nan,nan,nan,nan,nan,nan,nan,nan,nan,nan,0.0,nan,nan,nan,nan,nan,nan,nan,nan,nan,nan,nan,nan,nan,nan,nan,nan,nan,nan,445.4842885567341,994.8789667057572,nan,995.1991393396165,nan,nan,nan,nan
1,354,1,1,1.0,1.0,0.41604355652816594,0,3,4,1,2,7,6,nan,nan,nan,nan,nan,nan,nan,nan,nan,nan,nan,nan,0.0,nan,nan,nan,nan,nan,nan,nan,nan,nan,nan,nan,nan,nan,nan,nan,nan,nan,nan,445.4842885567341,995.8790907242801,nan,996.2951342808083,nan,nan,nan,nan
1,355,1,1,1.0,1.0,0.3838788392022252,0,2,7,0,4,6,3,nan,nan,nan,nan,nan,nan,nan,nan,nan,nan,nan,nan,0.0,nan,nan,nan,nan,nan,nan,nan,nan,nan,nan,nan,nan,nan,nan,nan,nan,nan,nan,445.4842885567341,996.8792506655445,nan,997.2631295047468,nan,nan,nan,nan
1,356,1,1,1.0,1.0,0.37572782521601766,0,6,0,4,8,2,7,nan,nan,nan,nan,nan,nan,nan,nan,nan,nan,nan,nan,0.0,nan,nan,nan,nan,nan,nan,nan,nan,nan,nan,nan,nan,nan,nan,nan,nan,nan,nan,445.4842885567341,997.8793721181573,nan,998.2550999433734,nan,nan,nan,nan
1,357,1,1,1.0,1.0,0.47959324182011187,0,0,6,8,3,4,5,nan,nan,nan,nan,nan,nan,nan,nan,nan,nan,nan,nan,0.0,nan,nan,nan,nan,nan,nan,nan,nan,nan,nan,nan,nan,nan,nan,nan,nan,nan,nan,445.4842885567341,998.8795064004371,nan,999.3590996422572,nan,nan,nan,nan
1,358,1,1,1.0,1.0,0.495456786127761,0,1,0,7,4,5,8,nan,nan,nan,nan,nan,nan,nan,nan,nan,nan,nan,nan,0.0,nan,nan,nan,nan,nan,nan,nan,nan,nan,nan,nan,nan,nan,nan,nan,nan,nan,nan,445.4842885567341,999.879637261387,nan,1000.3750940475147,nan,nan,nan,nan
1,359,1,1,1.0,1.0,0.4072784365853295,0,5,8,6,3,7,0,nan,nan,nan,nan,nan,nan,nan,nan,nan,nan,nan,nan,0.0,nan,nan,nan,nan,nan,nan,nan,nan,nan,nan,nan,nan,nan,nan,nan,nan,nan,nan,445.4842885567341,1000.8797980578383,nan,1001.2870764944237,nan,nan,nan,nan
1,360,1,1,1.0,1.0,0.6791419852524996,0,2,0,1,7,3,4,nan,nan,nan,nan,nan,nan,nan,nan,nan,nan,nan,nan,0.0,nan,nan,nan,nan,nan,nan,nan,nan,nan,nan,nan,nan,nan,nan,nan,nan,nan,nan,445.4842885567341,1001.8799232168822,nan,1002.5590652021347,nan,nan,nan,nan
1,361,1,1,1.0,1.0,0.43067033612169325,0,8,5,4,3,6,1,nan,nan,nan,nan,nan,nan,nan,nan,nan,nan,nan,nan,0.0,nan,nan,nan,nan,nan,nan,nan,nan,nan,nan,nan,nan,nan,nan,nan,nan,nan,nan,445.4842885567341,1002.8883998154197,nan,1003.3190701515414,nan,nan,nan,nan
1,362,1,1,1.0,1.0,0.334533415036276,0,3,8,0,6,2,5,nan,nan,nan,nan,nan,nan,nan,nan,nan,nan,nan,nan,0.0,nan,nan,nan,nan,nan,nan,nan,nan,nan,nan,nan,nan,nan,nan,nan,nan,nan,nan,445.4842885567341,1003.8885252594482,nan,1004.2230586744845,nan,nan,nan,nan
1,363,1,1,1.0,1.0,0.3263818306149915,0,7,2,5,3,4,8,nan,nan,nan,nan,nan,nan,nan,nan,nan,nan,nan,nan,0.0,nan,nan,nan,nan,nan,nan,nan,nan,nan,nan,nan,nan,nan,nan,nan,nan,nan,nan,445.4842885567341,1004.8886564056156,nan,1005.2150382362306,nan,nan,nan,nan
1,364,1,1,1.0,1.0,0.3262461229460314,0,4,8,3,6,2,1,nan,nan,nan,nan,nan,nan,nan,nan,nan,nan,nan,nan,0.0,nan,nan,nan,nan,nan,nan,nan,nan,nan,nan,nan,nan,nan,nan,nan,nan,nan,nan,445.4842885567341,1005.8887966749026,nan,1006.2150427978486,nan,nan,nan,nan
1,365,1,1,1.0,1.0,0.3101066017989069,0,5,1,2,0,6,3,nan,nan,nan,nan,nan,nan,nan,nan,nan,nan,nan,nan,0.0,nan,nan,nan,nan,nan,nan,nan,nan,nan,nan,nan,nan,nan,nan,nan,nan,nan,nan,445.4842885567341,1006.8889315272681,nan,1007.199038129067,nan,nan,nan,nan
1,366,0,0,1.0,0.0,0.2779575650347397,0,6,7,3,5,4,2,nan,nan,nan,nan,nan,nan,nan,nan,nan,nan,nan,nan,0.0,nan,nan,nan,nan,nan,nan,nan,nan,nan,nan,nan,nan,nan,nan,nan,nan,nan,nan,445.4842885567341,1007.889076358173,nan,1008.1670339232078,nan,nan,nan,nan
1,367,1,1,1.0,1.0,0.3174619013443589,0,4,5,0,6,2,8,nan,nan,nan,nan,nan,nan,nan,nan,nan,nan,nan,nan,0.0,nan,nan,nan,nan,nan,nan,nan,nan,nan,nan,nan,nan,nan,nan,nan,nan,nan,nan,445.4842885567341,1008.897546969587,nan,1009.2150088709313,nan,nan,nan,nan
1,368,1,1,1.0,1.0,0.40529584989417344,0,0,3,8,4,1,6,nan,nan,nan,nan,nan,nan,nan,nan,nan,nan,nan,nan,0.0,nan,nan,nan,nan,nan,nan,nan,nan,nan,nan,nan,nan,nan,nan,nan,nan,nan,nan,445.4842885567341,1009.8976912302896,nan,1010.3029870801838,nan,nan,nan,nan
1,369,1,1,1.0,1.0,0.6851670074975118,0,8,1,5,7,3,4,nan,nan,nan,nan,nan,nan,nan,nan,nan,nan,nan,nan,0.0,nan,nan,nan,nan,nan,nan,nan,nan,nan,nan,nan,nan,nan,nan,nan,nan,nan,nan,445.4842885567341,1010.897816389217,nan,1011.5829833967146,nan,nan,nan,nan
1,370,0,0,0.0,1.0,0.5810042311204597,0,6,7,0,4,8,5,nan,nan,nan,nan,nan,nan,nan,nan,nan,nan,nan,nan,0.0,nan,nan,nan,nan,nan,nan,nan,nan,nan,nan,nan,nan,nan,nan,nan,nan,nan,nan,445.4842885567341,1011.8979703433579,nan,1012.4789745744783,nan,nan,nan,nan
1,371,1,1,1.0,1.0,0.34887195844203234,0,4,1,3,6,2,8,nan,nan,nan,nan,nan,nan,nan,nan,nan,nan,nan,nan,0.0,nan,nan,nan,nan,nan,nan,nan,nan,nan,nan,nan,nan,nan,nan,nan,nan,nan,nan,445.4842885567341,1012.8981020596111,nan,1013.2469740180532,nan,nan,nan,nan
1,372,1,1,1.0,1.0,0.3807233504485339,0,6,3,5,4,8,7,nan,nan,nan,nan,nan,nan,nan,nan,nan,nan,nan,nan,0.0,nan,nan,nan,nan,nan,nan,nan,nan,nan,nan,nan,nan,nan,nan,nan,nan,nan,nan,445.4842885567341,1013.8982431842014,nan,1014.27896653465,nan,nan,nan,nan
1,373,1,1,1.0,1.0,0.3725768979638815,0,4,0,6,2,3,5,nan,nan,nan,nan,nan,nan,nan,nan,nan,nan,nan,nan,0.0,nan,nan,nan,nan,nan,nan,nan,nan,nan,nan,nan,nan,nan,nan,nan,nan,nan,nan,445.4842885567341,1014.8983791769715,nan,1015.2709560749354,nan,nan,nan,nan
1,374,1,1,1.0,1.0,0.3964343660045415,0,7,6,4,0,2,1,nan,nan,nan,nan,nan,nan,nan,nan,nan,nan,nan,nan,0.0,nan,nan,nan,nan,nan,nan,nan,nan,nan,nan,nan,nan,nan,nan,nan,nan,nan,nan,445.4842885567341,1015.8985114635434,nan,1016.2949458295479,nan,nan,nan,nan
1,375,1,1,1.0,1.0,0.34028958762064576,0,2,1,6,8,4,7,nan,nan,nan,nan,nan,nan,nan,nan,nan,nan,nan,nan,0.0,nan,nan,nan,nan,nan,nan,nan,nan,nan,nan,nan,nan,nan,nan,nan,nan,nan,nan,445.4842885567341,1016.898650877527,nan,1017.2389404651476,nan,nan,nan,nan
1,376,1,1,1.0,1.0,0.33214627124834806,0,0,2,5,4,3,8,nan,nan,nan,nan,nan,nan,nan,nan,nan,nan,nan,nan,0.0,nan,nan,nan,nan,nan,nan,nan,nan,nan,nan,nan,nan,nan,nan,nan,nan,nan,nan,445.4842885567341,1017.8987817384768,nan,1018.2309280097252,nan,nan,nan,nan
1,377,1,1,1.0,1.0,0.371987595804967,0,7,3,4,8,6,1,nan,nan,nan,nan,nan,nan,nan,nan,nan,nan,nan,nan,0.0,nan,nan,nan,nan,nan,nan,nan,nan,nan,nan,nan,nan,nan,nan,nan,nan,nan,nan,445.4842885567341,1018.8989297054941,nan,1019.270917301299,nan,nan,nan,nan
1,378,1,1,1.0,1.0,0.46783399977721274,0,2,1,5,0,4,3,nan,nan,nan,nan,nan,nan,nan,nan,nan,nan,nan,nan,0.0,nan,nan,nan,nan,nan,nan,nan,nan,nan,nan,nan,nan,nan,nan,nan,nan,nan,nan,445.4842885567341,1019.8990651280619,nan,1020.3668991278391,nan,nan,nan,nan
1,379,1,1,1.0,1.0,0.4357091967249289,0,1,8,4,3,7,0,nan,nan,nan,nan,nan,nan,nan,nan,nan,nan,nan,nan,0.0,nan,nan,nan,nan,nan,nan,nan,nan,nan,nan,nan,nan,nan,nan,nan,nan,nan,nan,445.4842885567341,1020.8991914273938,nan,1021.3349006241187,nan,nan,nan,nan
1,380,1,1,1.0,1.0,0.4435577195836231,0,0,3,2,1,6,8,nan,nan,nan,nan,nan,nan,nan,nan,nan,nan,nan,nan,0.0,nan,nan,nan,nan,nan,nan,nan,nan,nan,nan,nan,nan,nan,nan,nan,nan,nan,nan,445.4842885567341,1021.8993354029953,nan,1022.342893122579,nan,nan,nan,nan
1,381,1,1,1.0,1.0,0.39540629484690726,0,5,0,8,3,4,6,nan,nan,nan,nan,nan,nan,nan,nan,nan,nan,nan,nan,0.0,nan,nan,nan,nan,nan,nan,nan,nan,nan,nan,nan,nan,nan,nan,nan,nan,nan,nan,445.4842885567341,1022.899467974552,nan,1023.2948742693989,nan,nan,nan,nan
1,382,1,1,1.0,1.0,0.32329476601444185,0,0,8,2,5,6,3,nan,nan,nan,nan,nan,nan,nan,nan,nan,nan,nan,nan,0.0,nan,nan,nan,nan,nan,nan,nan,nan,nan,nan,nan,nan,nan,nan,nan,nan,nan,nan,445.4842885567341,1023.8996059630299,nan,1024.2229007290443,nan,nan,nan,nan
1,383,1,1,1.0,1.0,0.33909644337836653,0,6,2,7,1,5,0,nan,nan,nan,nan,nan,nan,nan,nan,nan,nan,nan,nan,0.0,nan,nan,nan,nan,nan,nan,nan,nan,nan,nan,nan,nan,nan,nan,nan,nan,nan,nan,445.4842885567341,1024.899753644946,nan,1025.2388500883244,nan,nan,nan,nan
1,384,1,1,1.0,1.0,0.3229688963619992,0,4,5,3,0,1,2,nan,nan,nan,nan,nan,nan,nan,nan,nan,nan,nan,nan,0.0,nan,nan,nan,nan,nan,nan,nan,nan,nan,nan,nan,nan,nan,nan,nan,nan,nan,nan,445.4842885567341,1025.8998822252033,nan,1026.2228511215653,nan,nan,nan,nan
1,385,1,1,1.0,1.0,0.3308162788162008,0,8,7,0,3,6,5,nan,nan,nan,nan,nan,nan,nan,nan,nan,nan,nan,nan,0.0,nan,nan,nan,nan,nan,nan,nan,nan,nan,nan,nan,nan,nan,nan,nan,nan,nan,nan,445.4842885567341,1026.9000162222655,nan,1027.2308325010817,nan,nan,nan,nan
1,386,1,1,1.0,1.0,0.3306594737805426,0,5,4,7,2,8,1,nan,nan,nan,nan,nan,nan,nan,nan,nan,nan,nan,nan,0.0,nan,nan,nan,nan,nan,nan,nan,nan,nan,nan,nan,nan,nan,nan,nan,nan,nan,nan,445.4842885567341,1027.9001667550765,nan,1028.230826228857,nan,nan,nan,nan
1,387,1,1,1.0,1.0,0.3065149097237736,0,1,5,8,6,4,2,nan,nan,nan,nan,nan,nan,nan,nan,nan,nan,nan,nan,0.0,nan,nan,nan,nan,nan,nan,nan,nan,nan,nan,nan,nan,nan,nan,nan,nan,nan,nan,445.4842885567341,1028.9002976161428,nan,1029.2068125258666,nan,nan,nan,nan
1,388,1,1,1.0,1.0,0.242364518227987,0,5,7,6,2,3,1,nan,nan,nan,nan,nan,nan,nan,nan,nan,nan,nan,nan,0.0,nan,nan,nan,nan,nan,nan,nan,nan,nan,nan,nan,nan,nan,nan,nan,nan,nan,nan,445.4842885567341,1029.900440736441,nan,1030.142805254669,nan,nan,nan,nan
