block,trial,time,setsize,freqtrials,trials_colorind,trials_colordeg,colorrgb0,colorrgb1,colorrgb2,correct_response,actual_response,acc,rts,probe_trials,rt_triggered_fast,rt_triggered_slow,rt_strailingavg,rts_runningavg,rts_runningstd,rts_runningslowthresh,rts_runningfastthresh,wm_respdeg,wm_respind,wm_resprgb0,wm_resprgb1,wm_resprgb2,wm_respcolorminusorigcolor,wm_rts,time_blockstart,time_encarray_onset,time_response,time_encarray_offest,time_memprobe_onset,time_memprobe_offset
0,0,3908,6,1,457,321,0.391639248186,0.390358177281,-1.0,1,1.0,1.0,0.647692422848,0,nan,nan,nan,nan,nan,nan,nan,nan,nan,0.0,0.0,0.0,nan,nan,176.579012926,177.603233496,178.250925919,178.103304342,nan,nan
0,1,3909,6,1,341,239,-0.168535884224,0.46196150489,0.223260112086,1,1.0,1.0,0.350935982773,0,nan,nan,nan,nan,nan,nan,nan,nan,nan,0.0,0.0,0.0,nan,nan,176.579012926,178.620053273,178.970989256,179.120065104,nan,nan
0,2,3910,6,1,100,70,1.0,-0.270427092546,-0.457439896749,1,1.0,1.0,0.190819812007,0,nan,nan,nan,nan,nan,nan,nan,nan,nan,0.0,0.0,0.0,nan,nan,176.579012926,179.620173868,179.81099368,180.120212214,nan,nan
0,3,3911,6,1,166,116,1.0,-0.20036215083,0.21267421211,1,1.0,1.0,0.150656132959,0,nan,nan,nan,nan,nan,nan,nan,nan,nan,0.0,0.0,0.0,nan,nan,176.579012926,180.620278784,180.770934917,181.120341362,nan,nan
0,4,3912,6,1,494,347,0.698129958021,0.282143999684,-1.0,1,1.0,1.0,0.00510349404067,0,nan,nan,nan,nan,nan,nan,nan,nan,nan,0.0,0.0,0.0,nan,nan,176.579012926,181.853788791,181.858892285,182.353863913,nan,nan
0,5,3913,6,1,142,99,1.0,-0.289568116499,-0.0146273521697,1,1.0,1.0,0.20492319949,0,nan,nan,nan,nan,nan,nan,nan,nan,nan,0.0,0.0,0.0,nan,nan,176.579012926,182.8539359,183.058859099,183.35399021,nan,nan
0,6,3914,6,1,188,132,1.0,-0.0857393506835,0.392804289229,1,1.0,1.0,0.252779324306,0,nan,nan,nan,nan,nan,nan,nan,nan,nan,0.0,0.0,0.0,nan,nan,176.579012926,183.854068469,184.106847794,184.354104249,nan,nan
0,7,3915,6,1,274,192,0.289344050657,0.322900892411,0.632670269059,1,1.0,1.0,0.196620079223,0,nan,nan,nan,nan,nan,nan,nan,nan,nan,0.0,0.0,0.0,nan,nan,176.579012926,184.854196192,185.050816271,185.354268749,nan,nan
0,8,3916,6,1,495,348,0.706485112283,0.278551693791,-1.0,1,1.0,1.0,0.132468182594,0,nan,nan,nan,nan,nan,nan,nan,nan,nan,0.0,0.0,0.0,nan,nan,176.579012926,185.854310515,185.986778698,186.354397612,nan,nan
0,9,3917,6,1,35,24,1.0,0.0462653595507,-1.0,1,1.0,1.0,0.0843497698661,0,nan,nan,nan,nan,nan,nan,nan,nan,nan,0.0,0.0,0.0,nan,nan,176.579012926,186.85444508,186.93879485,187.354528186,nan,nan
0,10,3918,6,1,163,114,1.0,-0.214247802105,0.185723682048,1,1.0,1.0,0.00415184511803,0,nan,nan,nan,nan,nan,nan,nan,nan,nan,0.0,0.0,0.0,nan,nan,176.579012926,187.854580216,187.858732061,188.354683563,nan,nan
0,11,3919,6,1,496,348,0.714833717156,0.274923884212,-1.0,1,1.0,1.0,0.0119614652358,0,nan,nan,nan,nan,nan,nan,nan,nan,nan,0.0,0.0,0.0,nan,nan,176.579012926,188.854734452,188.866695917,189.354800167,nan,nan
0,12,3920,6,1,83,58,1.0,-0.203097876184,-0.665876706514,1,1.0,1.0,0.731785321841,0,nan,nan,nan,nan,nan,nan,nan,nan,nan,0.0,0.0,0.0,nan,nan,176.579012926,189.85484564,190.586630961,190.354935872,nan,nan
0,13,3921,6,1,190,133,1.0,-0.0746884387243,0.407399635172,1,1.0,1.0,0.755637834081,0,nan,nan,nan,nan,nan,nan,nan,nan,nan,0.0,0.0,0.0,nan,nan,176.579012926,190.854981345,191.610619179,191.355069582,nan,nan
0,14,3922,6,1,137,96,1.0,-0.300190217086,-0.0647316600203,1,1.0,1.0,0.731472287094,0,nan,nan,nan,nan,nan,nan,nan,nan,nan,0.0,0.0,0.0,nan,nan,176.579012926,191.85511534,192.586587627,192.355206428,nan,nan
0,15,3926,6,1,288,202,0.150005133015,0.365331945294,0.586687239957,1,1.0,1.0,0.683339334792,1,nan,nan,nan,nan,nan,nan,nan,-32.3243341516,174.0,1.0,-0.160790688716,0.281981279739,-80.1756658484,1.13377477508,176.579012926,192.855245913,193.538585248,193.355340138,194.680497503,195.822319953
0,16,3927,6,0,94,66,1.0,-0.249439013202,-0.526745155233,0,0.0,1.0,0.547651568893,0,nan,nan,nan,nan,nan,nan,nan,nan,nan,0.0,0.0,0.0,nan,nan,176.579012926,197.030842768,197.578494337,197.53088539,nan,nan
0,17,3928,6,1,47,33,1.0,-0.0170755915744,-1.0,1,1.0,1.0,0.299501909642,0,nan,nan,nan,nan,nan,nan,nan,nan,nan,0.0,0.0,0.0,nan,nan,176.579012926,198.030942837,198.330444746,198.530994581,nan,nan
0,18,3929,6,1,484,340,0.614398947124,0.316112737715,-1.0,1,1.0,1.0,0.195396164432,0,nan,nan,nan,nan,nan,nan,nan,nan,nan,0.0,0.0,0.0,nan,nan,176.579012926,199.031076546,199.226472711,199.531132567,nan,nan
0,19,3930,6,0,181,127,1.0,-0.123914391386,0.3392011262,0,1.0,0.0,0.259151208214,0,0.0,0.0,nan,nan,nan,nan,nan,nan,nan,0.0,0.0,0.0,nan,nan,176.579012926,200.031245323,200.290396531,200.531282528,nan,nan
0,20,3931,6,1,58,40,1.0,-0.0760896648475,-1.0,1,1.0,1.0,0.219022880774,0,nan,nan,nan,nan,nan,nan,nan,nan,nan,0.0,0.0,0.0,nan,nan,176.579012926,201.031376752,201.250399633,201.531427641,nan,nan
0,21,3932,6,1,289,203,0.140592130943,0.368073254824,0.582505265782,1,1.0,1.0,0.218868929194,0,nan,nan,nan,nan,nan,nan,nan,nan,nan,0.0,0.0,0.0,nan,nan,176.579012926,202.031512742,202.250381672,202.531535122,nan,nan
0,22,3933,6,1,71,49,1.0,-0.144504067012,-0.877980773838,1,1.0,1.0,0.0747366358992,0,nan,nan,nan,nan,nan,nan,nan,nan,nan,0.0,0.0,0.0,nan,nan,176.579012926,203.03162564,203.106362276,203.531686223,nan,nan
0,23,3934,6,1,263,184,0.405698801511,0.284171736334,0.651829885785,1,1.0,1.0,0.0185699781869,0,nan,nan,nan,nan,nan,nan,nan,nan,nan,0.0,0.0,0.0,nan,nan,176.579012926,204.031755073,204.050325052,204.531821928,nan,nan
0,24,3935,6,1,7,4,0.9030914636,0.181853060355,-1.0,1,nan,nan,nan,0,nan,nan,nan,nan,nan,nan,nan,nan,nan,0.0,0.0,0.0,nan,nan,176.579012926,205.031897336,nan,205.531952502,nan,nan
0,25,3936,6,1,75,52,1.0,-0.164714458691,-0.791355921409,1,1.0,1.0,0.786192370346,0,nan,nan,nan,nan,nan,nan,nan,nan,nan,0.0,0.0,0.0,nan,nan,176.579012926,206.032025344,206.818217714,206.53208165,nan,nan
0,26,3937,6,1,146,102,1.0,-0.278792578557,0.0248813210997,1,1.0,1.0,0.714080038248,0,nan,nan,nan,nan,nan,nan,nan,nan,nan,0.0,0.0,0.0,nan,nan,176.579012926,207.03214651,207.746226548,207.532228759,nan,nan
0,27,3938,6,1,52,36,1.0,-0.0438860552364,-1.0,1,1.0,1.0,0.697911704192,0,nan,nan,nan,nan,nan,nan,nan,nan,nan,0.0,0.0,0.0,nan,nan,176.579012926,208.03228136,208.730193064,208.532356767,nan,nan
0,28,3939,6,1,373,262,-0.135407706169,0.478559568072,-0.0996974893599,1,1.0,1.0,0.689759684261,0,nan,nan,nan,nan,nan,nan,nan,nan,nan,0.0,0.0,0.0,nan,nan,176.579012926,209.032417065,209.722176749,209.532494754,nan,nan
0,29,3940,6,0,291,204,0.122027637739,0.373441943191,0.573791926984,0,0.0,1.0,0.46555234259,0,nan,nan,nan,nan,nan,nan,nan,nan,nan,0.0,0.0,0.0,nan,nan,176.579012926,210.032589833,210.498142176,210.532621906,nan,nan
0,30,3941,6,1,163,114,1.0,-0.214247802105,0.185723682048,1,1.0,1.0,0.361418657936,0,nan,nan,nan,nan,nan,nan,nan,nan,nan,0.0,0.0,0.0,nan,nan,176.579012926,211.032682489,211.394101147,211.532761603,nan,nan
0,31,3942,6,1,330,232,-0.139766326074,0.449518327743,0.319540245599,1,1.0,1.0,0.161272517871,0,nan,nan,nan,nan,nan,nan,nan,nan,nan,0.0,0.0,0.0,nan,nan,176.579012926,212.03282076,212.194093278,212.532859961,nan,nan
0,32,3943,6,0,493,346,0.689769084006,0.285700779988,-1.0,0,1.0,0.0,0.0570823843591,0,0.0,0.0,nan,nan,nan,nan,nan,nan,nan,0.0,0.0,0.0,nan,nan,176.579012926,213.032994668,213.090077053,213.533029308,nan,nan
0,33,3944,6,1,322,226,-0.105067232891,0.43811622051,0.383559350674,1,1.0,1.0,0.088954346953,0,nan,nan,nan,nan,nan,nan,nan,nan,nan,0.0,0.0,0.0,nan,nan,176.579012926,214.033077916,214.122032263,214.533158741,nan,nan
0,34,3945,6,1,507,356,0.805995650865,0.232688349973,-1.0,1,nan,nan,nan,0,nan,nan,nan,nan,nan,nan,nan,nan,nan,0.0,0.0,0.0,nan,nan,176.579012926,215.033213622,nan,215.533291881,nan,nan
0,35,3951,6,1,7,4,0.9030914636,0.181853060355,-1.0,1,1.0,1.0,0.744588959264,1,nan,nan,nan,nan,nan,nan,nan,80.967030301,13.0,0.950262168777,0.154664060346,-1.0,4.11109469897,2.20903997822,176.579012926,216.033347332,216.777936291,216.533426731,217.858570982,220.075534048
0,36,3952,6,1,248,174,0.568115903494,0.223728204869,0.653295769881,1,1.0,1.0,0.309491654858,0,nan,nan,nan,nan,nan,nan,nan,nan,nan,0.0,0.0,0.0,nan,nan,176.579012926,221.292388778,221.601880433,221.792435106,nan,nan
0,37,3953,6,1,148,104,1.0,-0.272695592461,0.0444264621409,1,1.0,1.0,0.22928204108,0,nan,nan,nan,nan,nan,nan,nan,nan,nan,0.0,0.0,0.0,nan,nan,176.579012926,222.292537313,222.521819354,222.792603312,nan,nan
0,38,3954,6,1,434,305,0.213881816697,0.43461034373,-1.0,1,1.0,1.0,0.117146867327,0,nan,nan,nan,nan,nan,nan,nan,nan,nan,0.0,0.0,0.0,nan,nan,176.579012926,223.292654487,223.409801354,223.792728754,nan,nan
0,39,3958,6,1,208,146,0.97651257568,0.025020743352,0.522574479073,1,1.0,1.0,0.100946032209,1,nan,nan,nan,nan,nan,nan,nan,-45.2010369978,192.0,1.0,-0.0635997558896,0.421658406928,-11.0489630022,1.88389287586,176.579012926,224.29282868,224.393774712,224.792861324,226.126361153,228.018286593
0,40,3959,6,1,354,248,-0.174470673547,0.472100788149,0.0988677247603,1,1.0,1.0,0.398857679451,0,nan,nan,nan,nan,nan,nan,nan,nan,nan,0.0,0.0,0.0,nan,nan,176.579012926,229.226784605,229.625642285,229.726827512,nan,nan
0,41,4000,6,1,219,153,0.871627318206,0.0840881726889,0.576959667802,1,1.0,1.0,0.238713284256,0,nan,nan,nan,nan,nan,nan,nan,nan,nan,0.0,0.0,0.0,nan,nan,176.579012926,230.226930574,230.465643858,230.726969489,nan,nan
0,42,4001,6,1,42,29,1.0,0.00954878589686,-1.0,1,1.0,1.0,0.18256002618,0,nan,nan,nan,nan,nan,nan,nan,nan,nan,0.0,0.0,0.0,nan,nan,176.579012926,231.22705174,231.409611766,231.72712173,nan,nan
0,43,4002,6,1,352,247,-0.17544712699,0.470851603012,0.118673592819,1,1.0,1.0,0.134413389023,0,nan,nan,nan,nan,nan,nan,nan,nan,nan,0.0,0.0,0.0,nan,nan,176.579012926,232.227201415,232.361614804,232.727258006,nan,nan
0,44,4003,6,1,203,142,1.0,-0.00249325098487,0.493674673203,1,1.0,1.0,0.0302269617096,0,nan,nan,nan,nan,nan,nan,nan,nan,nan,0.0,0.0,0.0,nan,nan,176.579012926,233.227348809,233.257575771,233.727396848,nan,nan
0,45,4004,6,1,490,344,0.664660387652,0.296157848571,-1.0,1,1.0,1.0,0.0220404453576,0,nan,nan,nan,nan,nan,nan,nan,nan,nan,0.0,0.0,0.0,nan,nan,176.579012926,234.227486225,234.24952667,234.727527706,nan,nan
0,46,4005,6,1,297,208,0.0686262056446,0.388646276542,0.544904663634,1,1.0,1.0,0.637874590466,0,nan,nan,nan,nan,nan,nan,nan,nan,nan,0.0,0.0,0.0,nan,nan,176.579012926,235.22761965,235.86549424,235.727662842,nan,nan
0,47,4006,6,1,42,29,1.0,0.00954878589686,-1.0,1,1.0,1.0,0.333721063333,0,nan,nan,nan,nan,nan,nan,nan,nan,nan,0.0,0.0,0.0,nan,nan,176.579012926,236.227729411,236.561450475,236.727782582,nan,nan
0,48,4007,6,1,415,291,0.0813077335083,0.459153678902,-0.614968023274,1,1.0,1.0,0.213560166769,0,nan,nan,nan,nan,nan,nan,nan,nan,nan,0.0,0.0,0.0,nan,nan,176.579012926,237.227903035,237.441463201,237.72789776,nan,nan
0,49,4008,6,1,216,151,0.900975005756,0.0682271079607,0.563426584804,1,1.0,1.0,0.16539699398,0,nan,nan,nan,nan,nan,nan,nan,nan,nan,0.0,0.0,0.0,nan,nan,176.579012926,238.227988278,238.393385272,238.72803147,nan,nan
0,50,4009,6,0,448,315,0.32026743599,0.409662251776,-1.0,0,1.0,0.0,0.213237723568,0,0.0,0.0,nan,nan,nan,nan,nan,nan,nan,0.0,0.0,0.0,nan,nan,176.579012926,239.228155629,239.441393353,239.728189128,nan,nan
0,51,4010,6,1,167,117,1.0,-0.195605812978,0.221546716301,1,1.0,1.0,0.229099580087,0,nan,nan,nan,nan,nan,nan,nan,nan,nan,0.0,0.0,0.0,nan,nan,176.579012926,240.228253702,240.457353282,240.728295753,nan,nan
0,52,4011,6,1,65,45,1.0,-0.113312155659,-1.0,1,1.0,1.0,0.212999668904,0,nan,nan,nan,nan,nan,nan,nan,nan,nan,0.0,0.0,0.0,nan,nan,176.579012926,241.228388267,241.441387936,241.728455692,nan,nan
0,53,4012,6,1,18,12,0.988682696815,0.131162580546,-1.0,1,1.0,1.0,0.22881334438,0,nan,nan,nan,nan,nan,nan,nan,nan,nan,0.0,0.0,0.0,nan,nan,176.579012926,242.228554478,242.457367822,242.728568305,nan,nan
0,54,4013,6,1,468,329,0.481236483515,0.363131620867,-1.0,1,1.0,1.0,0.156665090239,0,nan,nan,nan,nan,nan,nan,nan,nan,nan,0.0,0.0,0.0,nan,nan,176.579012926,243.228690753,243.385355843,243.728713133,nan,nan
0,55,4018,6,1,287,201,0.159501648714,0.36255249221,0.590751920292,1,nan,nan,nan,1,nan,nan,nan,nan,nan,nan,nan,-114.12840293,290.0,0.131265381085,0.370776544741,0.578206616232,2.33152793027,1.30045013712,176.579012926,244.228819902,nan,244.728865659,246.062341826,247.37084762
0,56,4019,6,0,141,99,1.0,-0.291952736687,-0.024586852943,0,0.0,1.0,0.43738690624,0,nan,nan,nan,nan,nan,nan,nan,nan,nan,0.0,0.0,0.0,nan,nan,176.579012926,248.587743404,249.02513031,249.087774622,nan,nan
0,57,4020,6,1,54,37,1.0,-0.0546292063271,-1.0,1,1.0,1.0,0.229231294245,0,nan,nan,nan,nan,nan,nan,nan,nan,nan,0.0,0.0,0.0,nan,nan,176.579012926,249.587872837,249.817104131,250.087882103,nan,nan
0,58,4021,6,1,334,234,-0.152796554809,0.454467054946,0.285576400052,1,1.0,1.0,0.18112713634,0,nan,nan,nan,nan,nan,nan,nan,nan,nan,0.0,0.0,0.0,nan,nan,176.579012926,250.587968059,250.769095195,251.088017808,nan,nan
0,59,4022,6,1,133,93,1.0,-0.306259573676,-0.105336427414,1,1.0,1.0,0.213034165557,0,nan,nan,nan,nan,nan,nan,nan,nan,nan,0.0,0.0,0.0,nan,nan,176.579012926,251.588107471,251.801141636,252.088149522,nan,nan
0,60,4023,6,1,486,341,0.631151757674,0.309603058574,-1.0,1,1.0,1.0,0.148812705651,0,nan,nan,nan,nan,nan,nan,nan,nan,nan,0.0,0.0,0.0,nan,nan,176.579012926,252.588269405,252.737082111,253.088313167,nan,nan
0,61,4024,6,1,262,184,0.416452475899,0.2804144186,0.652815538838,1,1.0,1.0,0.108679246856,0,nan,nan,nan,nan,nan,nan,nan,nan,nan,0.0,0.0,0.0,nan,nan,176.579012926,253.58840454,253.697083787,254.08844032,nan,nan
0,62,4025,6,1,470,330,0.497741612616,0.357740777197,-1.0,1,1.0,1.0,0.108488517813,0,nan,nan,nan,nan,nan,nan,nan,nan,nan,0.0,0.0,0.0,nan,nan,176.579012926,254.588519719,254.697008237,255.088571464,nan,nan
0,63,4026,6,1,136,95,1.0,-0.301914900238,-0.074841205769,1,1.0,1.0,0.172305142274,0,nan,nan,nan,nan,nan,nan,nan,nan,nan,0.0,0.0,0.0,nan,nan,176.579012926,255.588669394,255.760974536,256.088683791,nan,nan
0,64,4027,6,1,327,229,-0.128086156831,0.445480682368,0.344176439252,1,1.0,1.0,0.115995081607,0,nan,nan,nan,nan,nan,nan,nan,nan,nan,0.0,0.0,0.0,nan,nan,176.579012926,256.588983854,256.704978936,257.088851713,nan,nan
0,65,4028,6,1,27,18,1.0,0.0870912575778,-1.0,1,1.0,1.0,0.0840005280916,0,nan,nan,nan,nan,nan,nan,nan,nan,nan,0.0,0.0,0.0,nan,nan,176.579012926,257.588936528,257.672937057,258.088974589,nan,nan
0,66,4029,6,1,491,345,0.673033477965,0.292707709811,-1.0,1,1.0,1.0,0.115846261848,0,nan,nan,nan,nan,nan,nan,nan,nan,nan,0.0,0.0,0.0,nan,nan,176.579012926,258.589081072,258.704927334,259.089112575,nan,nan
0,67,4030,6,1,379,266,-0.113535935895,0.478614986251,-0.165970515924,1,1.0,1.0,0.171686200192,0,nan,nan,nan,nan,nan,nan,nan,nan,nan,0.0,0.0,0.0,nan,nan,176.579012926,259.589202237,259.760888438,260.089247995,nan,nan
0,68,4031,6,1,67,47,1.0,-0.12380466598,-1.0,1,1.0,1.0,0.20355901774,0,nan,nan,nan,nan,nan,nan,nan,nan,nan,0.0,0.0,0.0,nan,nan,176.579012926,260.589306012,260.79286503,261.089375718,nan,nan
0,69,4032,6,1,146,102,1.0,-0.278792578557,0.0248813210997,1,1.0,1.0,0.195406712824,0,nan,nan,nan,nan,nan,nan,nan,nan,nan,0.0,0.0,0.0,nan,nan,176.579012926,261.589436301,261.784843014,262.089511994,nan,nan
0,70,4033,6,1,88,61,1.0,-0.225257592204,-0.599932847766,1,1.0,1.0,0.10725975642,0,nan,nan,nan,nan,nan,nan,nan,nan,nan,0.0,0.0,0.0,nan,nan,176.579012926,262.589580844,262.696840601,263.089668226,nan,nan
0,71,4034,6,1,155,108,1.0,-0.2479831371,0.111611878621,1,1.0,1.0,0.0590945880394,0,nan,nan,nan,nan,nan,nan,nan,nan,nan,0.0,0.0,0.0,nan,nan,176.579012926,263.589723962,263.64881855,264.089795094,nan,nan
0,72,4035,6,1,259,182,0.44882283482,0.268906983076,0.655011783756,1,nan,nan,nan,0,nan,nan,nan,nan,nan,nan,nan,nan,nan,0.0,0.0,0.0,nan,nan,176.579012926,264.589842847,nan,265.089915119,nan,nan
0,73,4036,6,1,319,224,-0.0891891826932,0.433308674125,0.406137099325,1,1.0,1.0,0.114764039405,0,nan,nan,nan,nan,nan,nan,nan,nan,nan,0.0,0.0,0.0,nan,nan,176.579012926,265.58997057,265.704734609,266.09002488,nan,nan
0,74,4037,6,1,81,56,1.0,-0.193804253699,-0.694219169772,1,1.0,1.0,0.170542682288,0,nan,nan,nan,nan,nan,nan,nan,nan,nan,0.0,0.0,0.0,nan,nan,176.579012926,266.590140201,266.760682884,267.090165147,nan,nan
0,75,4038,6,1,475,333,0.539218753276,0.343659807328,-1.0,1,1.0,1.0,0.122453349177,0,nan,nan,nan,nan,nan,nan,nan,nan,nan,0.0,0.0,0.0,nan,nan,176.579012926,267.590238845,267.712692194,268.09030912,nan,nan
0,76,4039,6,1,423,297,0.135229581944,0.450080889006,-0.750039916123,1,1.0,1.0,0.130282925908,0,nan,nan,nan,nan,nan,nan,nan,nan,nan,0.0,0.0,0.0,nan,nan,176.579012926,268.590371129,268.720654055,269.090449673,nan,nan
0,77,4040,6,1,78,54,1.0,-0.179467652321,-0.739907630878,1,1.0,1.0,0.00208461796865,0,nan,nan,nan,nan,nan,nan,nan,nan,nan,0.0,0.0,0.0,nan,nan,176.579012926,269.590529357,269.592613975,270.090578821,nan,nan
0,78,4041,6,1,485,341,0.622774561467,0.312875618285,-1.0,1,1.0,1.0,0.0419469512999,0,nan,nan,nan,nan,nan,nan,nan,nan,nan,0.0,0.0,0.0,nan,nan,176.579012926,270.590651948,270.632598899,271.09071082,nan,nan
0,79,4042,6,1,110,77,1.0,-0.296722754836,-0.346921960777,1,1.0,1.0,0.0177642984781,0,nan,nan,nan,nan,nan,nan,nan,nan,nan,0.0,0.0,0.0,nan,nan,176.579012926,271.590787083,271.608551382,272.090846526,nan,nan
0,80,4043,6,0,405,284,0.018463324075,0.468009379796,-0.476293327428,0,1.0,0.0,0.113599709468,0,0.0,0.0,0.0577703197487,0.251857993407,0.216726659336,0.468584652743,0.0351313340717,nan,nan,0.0,0.0,0.0,nan,nan,176.579012926,272.590947022,272.704546731,273.090975959,nan,nan
0,81,4044,6,1,74,52,1.0,-0.159715158178,-0.810443278181,1,1.0,1.0,0.273440762889,0,0.0,0.0,0.134934923612,0.250062431278,0.215882992347,0.465945423625,0.0341794389315,nan,nan,0.0,0.0,0.0,nan,nan,176.579012926,273.591032265,273.864473028,274.091086576,nan,nan
0,82,4045,6,1,454,319,0.367627362238,0.397084843583,-1.0,1,1.0,1.0,0.217324282276,0,0.0,0.0,0.201454918211,0.250362153478,0.214510786621,0.4648729401,0.0358513668571,nan,nan,0.0,0.0,0.0,nan,nan,176.579012926,274.591170251,274.808494534,275.091244519,nan,nan
0,83,4046,6,1,191,134,1.0,-0.0691479807067,0.414571651978,1,1.0,1.0,0.217158356449,0,0.0,0.0,0.235974467204,0.249943952577,0.213180797324,0.463124749901,0.0367631552532,nan,nan,0.0,0.0,0.0,nan,nan,176.579012926,275.591342734,275.808501091,276.091379369,nan,nan
0,84,4047,6,0,436,306,0.228681708805,0.431413732101,-1.0,0,1.0,0.0,0.113004429964,0,0.0,0.0,0.182495689563,0.249534132626,0.211875541138,0.461409673763,0.0376585914879,nan,nan,0.0,0.0,0.0,nan,nan,176.579012926,276.591482716,276.704487146,277.091509372,nan,nan
0,85,4048,6,1,262,184,0.416452475899,0.2804144186,0.652815538838,1,1.0,1.0,0.216827075696,0,0.0,0.0,0.182329954036,0.247848580741,0.211102626332,0.458951207073,0.0367459544084,nan,nan,0.0,0.0,0.0,nan,nan,176.579012926,277.591566534,277.80839361,278.091616568,nan,nan
0,86,4049,6,0,492,345,0.681403316433,0.289222019555,-1.0,0,1.0,0.0,0.208633717149,0,0.0,0.0,0.179488407603,0.247470269704,0.20983909121,0.457309360914,0.0376311784934,nan,nan,0.0,0.0,0.0,nan,nan,176.579012926,278.591740727,278.800374445,279.091775937,nan,nan
0,87,4050,6,1,288,202,0.150005133015,0.365331945294,0.586687239957,1,1.0,1.0,0.280450690305,0,0.0,0.0,0.235303827717,0.247002359432,0.208614203509,0.455616562941,0.0383881559225,nan,nan,0.0,0.0,0.0,nan,nan,176.579012926,279.591879284,279.872329974,280.091884558,nan,nan
0,88,4051,6,1,364,255,-0.160194321586,0.476704516321,-0.00341124574885,1,1.0,1.0,0.200006728293,0,0.0,0.0,0.229697045249,0.247400553847,0.207400463852,0.454801017699,0.0400000899956,nan,nan,0.0,0.0,0.0,nan,nan,176.579012926,280.600315829,280.800322557,281.100348187,nan,nan
0,89,4052,6,1,75,52,1.0,-0.164714458691,-0.791355921409,1,1.0,1.0,0.311848824145,0,0.0,0.0,0.264102080915,0.246842979429,0.206240172706,0.453083152135,0.0406028067231,nan,nan,0.0,0.0,0.0,nan,nan,176.579012926,281.6004541,281.912302924,282.100491305,nan,nan
0,90,4053,6,0,130,91,1.0,-0.309333154106,-0.136071487739,0,1.0,0.0,0.255668196827,0,0.0,0.0,0.255841249755,0.247598861344,0.205155992105,0.452754853449,0.0424428692391,nan,nan,0.0,0.0,0.0,nan,nan,176.579012926,282.600611188,282.856279385,283.100646112,nan,nan
0,91,4054,6,1,68,47,1.0,-0.129018143495,-0.972903198114,1,1.0,1.0,0.327515675453,0,0.0,0.0,0.298344232142,0.247691612327,0.203975340521,0.451666952848,0.0437162718055,nan,nan,0.0,0.0,0.0,nan,nan,176.579012926,283.600742046,283.928257722,284.100748746,nan,nan
0,92,4055,6,1,196,137,1.0,-0.0413610816081,0.449130757868,1,1.0,1.0,0.335378608201,0,0.0,0.0,0.306187493494,0.248598703953,0.202989481741,0.451588185694,0.0456092222126,nan,nan,0.0,0.0,0.0,nan,nan,176.579012926,284.600845821,284.93622443,285.100887018,nan,nan
0,93,4056,6,1,336,236,-0.158211608236,0.456758111158,0.268135266647,1,1.0,1.0,0.311168871587,0,0.0,0.0,0.324687718414,0.249573759057,0.20205301201,0.451626771067,0.0475207470468,nan,nan,0.0,0.0,0.0,nan,nan,176.579012926,285.60102258,285.912191452,286.101025574,nan,nan
0,94,4057,6,1,467,328,0.473005185182,0.365775667588,-1.0,1,1.0,1.0,0.239037723048,0,0.0,0.0,0.295195067612,0.250258149196,0.201031068709,0.451289217905,0.0492270804876,nan,nan,0.0,0.0,0.0,nan,nan,176.579012926,286.601104973,286.840142696,287.101158428,nan,nan
0,95,4058,6,1,365,256,-0.157962026257,0.477016591838,-0.0139196855225,1,1.0,1.0,0.262904489879,0,0.0,0.0,0.271037028171,0.25013484781,0.199926873093,0.450061720903,0.0502079747167,nan,nan,0.0,0.0,0.0,nan,nan,176.579012926,287.601235547,287.864140037,288.101277028,nan,nan
0,96,4059,6,1,87,61,1.0,-0.220959007447,-0.612675615602,1,nan,nan,nan,0,0.0,0.0,0.250971106463,0.250273648267,0.198841753733,0.449115402001,0.0514318945341,nan,nan,0.0,0.0,0.0,nan,nan,176.579012926,288.601405464,nan,289.101444379,nan,nan
0,97,4100,6,1,399,280,-0.0164460389312,0.472031251936,-0.400274523968,1,1.0,1.0,0.278545682319,0,0.0,0.0,0.270725086099,0.250273648267,0.198841753733,0.449115402001,0.0514318945341,nan,nan,0.0,0.0,0.0,nan,nan,176.579012926,289.601535182,289.880080865,290.101582366,nan,nan
0,98,4101,6,1,48,33,1.0,-0.0224273256894,-1.0,1,1.0,1.0,0.214390649693,0,0.0,0.0,0.246468166006,0.250577648633,0.19779131698,0.448368965613,0.0527863316537,nan,nan,0.0,0.0,0.0,nan,nan,176.579012926,290.601670032,290.816060682,291.10171465,nan,nan
0,99,4102,6,1,201,141,1.0,-0.0135712615467,0.48142235136,1,1.0,1.0,0.246285705129,0,0.0,0.0,0.246407345713,0.25019268056,0.1967714475,0.446964128059,0.05342123306,nan,nan,0.0,0.0,0.0,nan,nan,176.579012926,291.601770386,291.848056091,292.101841802,nan,nan
0,100,4103,6,1,308,216,-0.0186828559465,0.413097475488,0.481682330771,1,1.0,1.0,0.262070870725,0,0.0,0.0,0.240915741849,0.250151554502,0.195733474629,0.445885029131,0.0544180798735,nan,nan,0.0,0.0,0.0,nan,nan,176.579012926,292.601934601,292.864005472,293.101959832,nan,nan
0,101,4104,6,1,432,303,0.199227897075,0.437687328843,-1.0,1,1.0,1.0,0.213952457998,0,0.0,0.0,0.240769677951,0.250275714046,0.194715121336,0.444990835382,0.0555605927104,nan,nan,0.0,0.0,0.0,nan,nan,176.579012926,293.602051205,293.816003663,294.102077861,nan,nan
0,102,4105,6,1,332,233,-0.146647089803,0.45205423783,0.302714191958,1,1.0,1.0,0.277797306888,0,0.0,0.0,0.251273545204,0.249901247489,0.193743578833,0.443644826322,0.0561576686567,nan,nan,0.0,0.0,0.0,nan,nan,176.579012926,294.60220145,294.879998757,295.102233239,nan,nan
0,103,4106,6,1,83,58,1.0,-0.203097876184,-0.665876706514,1,1.0,1.0,0.357635726221,0,0.0,0.0,0.283128497036,0.250185901157,0.192772943532,0.442958844689,0.0574129576246,nan,nan,0.0,0.0,0.0,nan,nan,176.579012926,295.60230608,295.959941807,296.102364097,nan,nan
0,104,4107,6,1,357,251,-0.1717918326,0.473767524415,0.068739031695,1,1.0,1.0,0.33345164801,0,0.0,0.0,0.322961560373,0.251271252925,0.192097586846,0.443368839771,0.0591736660789,nan,nan,0.0,0.0,0.0,nan,nan,176.579012926,296.602473431,296.935925079,297.102500373,nan,nan
0,105,4108,6,1,173,121,1.0,-0.165909522591,0.273535192888,1,1.0,1.0,0.365283126943,0,0.0,0.0,0.352123500391,0.252093056876,0.191309510623,0.443402567499,0.0607835462524,nan,nan,0.0,0.0,0.0,nan,nan,176.579012926,297.602600299,297.967883426,298.102632657,nan,nan
0,106,4109,6,1,14,9,0.95801504718,0.150023555696,-1.0,1,1.0,1.0,0.285179853905,0,0.0,0.0,0.327971542953,0.253213750639,0.190689681717,0.443903432356,0.0625240689217,nan,nan,0.0,0.0,0.0,nan,nan,176.579012926,298.602717758,298.887897612,299.102753252,nan,nan
0,107,4110,6,1,175,123,1.0,-0.155629953633,0.290361762956,1,1.0,1.0,0.252667852212,0,0.0,0.0,0.30104361102,0.253527143808,0.189778762832,0.44330590664,0.063748380976,nan,nan,0.0,0.0,0.0,nan,nan,176.579012926,299.611171409,299.863839261,300.111215456,nan,nan
0,108,4111,6,1,111,78,1.0,-0.298677811705,-0.336106236365,1,1.0,1.0,0.228495177813,0,0.0,0.0,0.255447627977,0.253518801171,0.188855278518,0.442374079689,0.0646635226537,nan,nan,0.0,0.0,0.0,nan,nan,176.579012926,300.611343321,300.839838499,301.111344604,nan,nan
0,109,4112,6,1,435,305,0.221263830514,0.433027056876,-1.0,1,1.0,1.0,0.212314869743,0,0.0,0.0,0.231159299922,0.253278189408,0.187960990527,0.441239179935,0.0653171988816,nan,nan,0.0,0.0,0.0,nan,nan,176.579012926,301.611465342,301.823780212,302.111476033,nan,nan
0,110,4113,6,1,42,29,1.0,0.00954878589686,-1.0,1,1.0,1.0,0.244185691699,0,0.0,0.0,0.228331913085,0.252888062554,0.187106100394,0.439994162948,0.0657819621604,nan,nan,0.0,0.0,0.0,nan,nan,176.579012926,302.611601903,302.855787595,303.11163084,nan,nan
0,111,4114,6,1,87,61,1.0,-0.220959007447,-0.612675615602,1,1.0,1.0,0.260017327964,0,0.0,0.0,0.238839296469,0.252805964716,0.186223333188,0.439029297904,0.0665826315283,nan,nan,0.0,0.0,0.0,nan,nan,176.579012926,303.611733617,303.871750945,304.1117808,nan,nan
0,112,4115,6,1,490,344,0.664660387652,0.296157848571,-1.0,1,1.0,1.0,0.267844624119,0,0.0,0.0,0.257349214594,0.252873360634,0.185352386768,0.438225747402,0.0675209738659,nan,nan,0.0,0.0,0.0,nan,nan,176.579012926,304.611868182,304.879712806,305.111904532,nan,nan
0,113,4116,6,1,98,68,1.0,-0.263822910468,-0.480217789416,1,1.0,1.0,0.243713573553,0,0.0,0.0,0.257191841879,0.253011983444,0.184497850595,0.437509834039,0.0685141328493,nan,nan,0.0,0.0,0.0,nan,nan,176.579012926,305.611967966,305.855681539,306.112016859,nan,nan
0,114,4117,6,1,372,261,-0.138660017671,0.478458869494,-0.0888123791441,1,1.0,1.0,0.227516445098,0,0.0,0.0,0.246358214257,0.252926676931,0.183651719885,0.436578396816,0.0692749570465,nan,nan,0.0,0.0,0.0,nan,nan,176.579012926,306.612131895,306.839648341,307.11216796,nan,nan
0,115,4118,6,1,49,34,1.0,-0.027785429985,-1.0,1,1.0,1.0,0.331360757817,0,0.0,0.0,0.267530258823,0.252695674824,0.182830940779,0.435526615603,0.0698647340446,nan,nan,0.0,0.0,0.0,nan,nan,176.579012926,307.612267316,307.943628074,308.112272875,nan,nan
0,116,4119,6,1,400,281,-0.0107874812989,0.471427301814,-0.412692688905,1,1.0,1.0,0.395227844128,0,0.0,0.0,0.318035015681,0.253404369265,0.182157225066,0.435561594331,0.0712471441992,nan,nan,0.0,0.0,0.0,nan,nan,176.579012926,308.612367384,309.007595228,309.112408296,nan,nan
0,117,4120,6,1,328,230,-0.132159558243,0.44685796506,0.336046158271,1,1.0,1.0,0.291030297754,0,0.0,0.0,0.3392062999,0.254670650291,0.181832280823,0.436502931113,0.0728383694682,nan,nan,0.0,0.0,0.0,nan,nan,176.579012926,309.612512783,309.903543081,310.112544001,nan,nan
0,118,4121,6,1,400,281,-0.0107874812989,0.471427301814,-0.412692688905,1,1.0,1.0,0.218887460418,0,0.0,0.0,0.301715200767,0.254992417083,0.181057950429,0.436050367512,0.0739344666532,nan,nan,0.0,0.0,0.0,nan,nan,176.579012926,310.612675288,310.831562748,311.112673149,nan,nan
0,119,4122,6,1,293,206,0.103830259013,0.378659598285,0.564617056734,1,1.0,1.0,0.226739560021,0,0.0,0.0,0.245552439398,0.254675706936,0.180293523661,0.434969230597,0.0743821832757,nan,nan,0.0,0.0,0.0,nan,nan,176.579012926,311.612794172,311.839533732,312.112844207,nan,nan
0,120,4123,6,1,172,120,1.0,-0.170984061773,0.265024678188,1,1.0,1.0,0.194609870901,0,0.0,0.0,0.213412297113,0.25443278392,0.17952666448,0.433959448399,0.0749061194401,nan,nan,0.0,0.0,0.0,nan,nan,176.579012926,312.612931018,312.807540889,313.112943705,nan,nan
0,121,4124,6,1,398,279,-0.0220377755791,0.472608796233,-0.387943383198,1,1.0,1.0,0.226441064849,0,0.0,0.0,0.215930165257,0.253917069152,0.1788367008,0.432753769953,0.0750803683519,nan,nan,0.0,0.0,0.0,nan,nan,176.579012926,313.613045056,313.839486121,314.113099937,nan,nan
0,122,4125,6,1,472,331,0.51429864939,0.352212277195,-1.0,1,1.0,1.0,0.226238647243,0,0.0,0.0,0.215763194331,0.253682231509,0.178088763103,0.431770994611,0.0755934684061,nan,nan,0.0,0.0,0.0,nan,nan,176.579012926,314.613195587,314.839434234,315.113218822,nan,nan
0,123,4126,6,1,175,123,1.0,-0.155629953633,0.290361762956,1,1.0,1.0,0.210091124987,0,0.0,0.0,0.22092361236,0.253449658761,0.177350386941,0.430800045701,0.07609927182,nan,nan,0.0,0.0,0.0,nan,nan,176.579012926,315.613305634,315.823396759,316.113343124,nan,nan
0,124,4127,6,1,358,251,-0.170583909915,0.474268316859,0.0585874414746,1,1.0,1.0,0.24200642202,0,0.0,0.0,0.22611206475,0.253085301334,0.176647991012,0.429733292346,0.0764373103217,nan,nan,0.0,0.0,0.0,nan,nan,176.579012926,316.613433356,316.855439778,317.113510475,nan,nan
0,125,4128,6,1,27,18,1.0,0.0870912575778,-1.0,1,1.0,1.0,0.22581670573,0,0.0,0.0,0.225971417579,0.25299297734,0.175913300933,0.428906278273,0.0770796764063,nan,nan,0.0,0.0,0.0,nan,nan,176.579012926,317.613561079,317.839377785,318.113611113,nan,nan
0,126,4129,6,0,241,169,0.64365311028,0.192605941253,0.644254782112,0,1.0,0.0,0.225709795021,0,0.0,0.0,0.231177640924,0.252768380054,0.1752021543,0.427970534354,0.0775662257532,nan,nan,0.0,0.0,0.0,nan,nan,176.579012926,318.613729,318.839438795,319.11376421,nan,nan
0,127,4130,6,1,480,337,0.580928072941,0.32870764083,-1.0,1,1.0,1.0,0.201484948397,0,0.0,0.0,0.217670483049,0.252546588373,0.17449969104,0.427046279413,0.0780468973331,nan,nan,0.0,0.0,0.0,nan,nan,176.579012926,319.613829354,319.815314302,320.113896209,nan,nan
0,128,4131,6,1,139,97,1.0,-0.296335611021,-0.0445992895203,1,1.0,1.0,0.233318993123,0,0.0,0.0,0.220171245513,0.252131453089,0.173849375014,0.425980828102,0.078282078075,nan,nan,0.0,0.0,0.0,nan,nan,176.579012926,320.613993284,320.847312277,321.114031629,nan,nan
0,129,4132,6,1,266,187,0.373577590308,0.295207490188,0.648113769863,1,1.0,1.0,0.209158577723,0,0.0,0.0,0.214654173081,0.251979739702,0.173155125613,0.425134865315,0.0788246140885,nan,nan,0.0,0.0,0.0,nan,nan,176.579012926,321.614096203,321.823254781,322.11416705,nan,nan
0,130,4133,6,1,104,73,1.0,-0.282351481576,-0.412644567278,1,1.0,1.0,0.240978082642,0,0.0,0.0,0.227818551163,0.251637170406,0.172503297961,0.424140468367,0.0791338724447,nan,nan,0.0,0.0,0.0,nan,nan,176.579012926,322.614261844,322.855239926,323.114280232,nan,nan
0,131,4134,6,1,271,190,0.320642857732,0.312811632898,0.639400143054,1,1.0,1.0,0.224862776464,0,0.0,0.0,0.224999812276,0.251552574471,0.171820000646,0.423372575118,0.0797325738252,nan,nan,0.0,0.0,0.0,nan,nan,176.579012926,323.614389281,323.839252058,324.114403964,nan,nan
0,132,4135,6,1,59,41,1.0,-0.0814409933332,-1.0,1,1.0,1.0,0.176683923462,0,0.0,0.0,0.214174927523,0.251342418582,0.171158464281,0.422500882863,0.0801839543003,nan,nan,0.0,0.0,0.0,nan,nan,176.579012926,324.614527268,324.791211191,325.114535678,nan,nan
0,133,4136,6,1,467,328,0.473005185182,0.365775667588,-1.0,1,1.0,1.0,0.200584616745,0,0.0,0.0,0.20071043889,0.250759149088,0.170615230296,0.421374379385,0.0801439187924,nan,nan,0.0,0.0,0.0,nan,nan,176.579012926,325.61462477,325.815209387,326.114699038,nan,nan
0,134,4137,6,0,154,108,1.0,-0.251813147593,0.102138173725,0,1.0,0.0,0.192324830918,0,0.0,0.0,0.189864457042,0.250370199225,0.170009603921,0.420379803146,0.0803605953044,nan,nan,0.0,0.0,0.0,nan,nan,176.579012926,326.614792406,326.807117237,327.114832747,nan,nan
0,135,4138,6,1,45,31,1.0,-0.0063957592436,-1.0,1,1.0,1.0,0.224182823673,0,0.0,0.0,0.205697423778,0.249923696392,0.169430371159,0.419354067551,0.0804933252334,nan,nan,0.0,0.0,0.0,nan,nan,176.579012926,327.614889054,327.839071878,328.114963891,nan,nan
0,136,4139,6,1,212,149,0.93926288676,0.0467731277665,0.543851001166,1,1.0,1.0,0.216043348191,0,0.0,0.0,0.210850334261,0.249727201181,0.168797320124,0.418524521304,0.080929881057,nan,nan,0.0,0.0,0.0,nan,nan,176.579012926,328.615023334,328.831066682,329.115067666,nan,nan
0,137,4140,6,1,502,352,0.764740937618,0.25241357569,-1.0,1,1.0,1.0,0.215907072648,0,0.0,0.0,0.218711081504,0.249472020476,0.168182083151,0.417654103627,0.081289937325,nan,nan,0.0,0.0,0.0,nan,nan,176.579012926,329.615154478,329.83106155,330.115200236,nan,nan
0,138,4141,6,1,122,85,1.0,-0.311159539646,-0.219144224573,1,1.0,1.0,0.271721637342,0,0.0,0.0,0.234557352727,0.249219652447,0.167573713177,0.416793365625,0.0816459392701,nan,nan,0.0,0.0,0.0,nan,nan,176.579012926,330.615290468,330.887012105,331.115356183,nan,nan
0,139,4142,6,1,487,342,0.639529740128,0.306295026098,-1.0,1,1.0,1.0,0.255599773955,0,0.0,0.0,0.247742827982,0.249387577708,0.166958499266,0.416346076974,0.0824290784413,nan,nan,0.0,0.0,0.0,nan,nan,176.579012926,331.615452117,331.871051891,332.115463379,nan,nan
0,140,4143,6,0,439,308,0.251144291643,0.426392204401,-1.0,0,1.0,0.0,0.247435780009,0,0.0,0.0,0.258252397102,0.249433593976,0.166339837982,0.415773431958,0.0830937559944,nan,nan,0.0,0.0,0.0,nan,nan,176.579012926,332.615592099,332.863027879,333.115623887,nan,nan
0,141,4144,6,1,26,18,1.0,0.0920921692153,-1.0,1,1.0,1.0,0.215227975044,0,0.0,0.0,0.239421176336,0.249418904168,0.165727254038,0.415146158205,0.0836916501302,nan,nan,0.0,0.0,0.0,nan,nan,176.579012926,333.615721533,333.830949508,334.115732509,nan,nan
0,142,4145,6,1,317,222,-0.077772836126,0.429938605076,0.420733606481,1,1.0,1.0,0.239044565242,0,0.0,0.0,0.233902773432,0.249169335342,0.165146950224,0.414316285566,0.0840223851184,nan,nan,0.0,0.0,0.0,nan,nan,176.579012926,334.615870923,334.854915488,335.115868784,nan,nan
0,143,4146,6,0,55,38,1.0,-0.0599996532909,-1.0,0,1.0,0.0,0.246929165674,0,0.0,0.0,0.233733901987,0.249095967443,0.164549744608,0.413645712051,0.0845462228348,nan,nan,0.0,0.0,0.0,nan,nan,176.579012926,335.615988667,335.862917833,336.116022451,nan,nan
0,144,4147,6,1,420,295,0.1146601879,0.45369410126,-0.695047497311,1,1.0,1.0,0.222747653257,0,0.0,0.0,0.236240461391,0.249080378941,0.163956872892,0.413037251833,0.0851235060488,nan,nan,0.0,0.0,0.0,nan,nan,176.579012926,336.616113254,336.838860907,337.116159012,nan,nan
0,145,4148,6,1,56,39,1.0,-0.0653675053377,-1.0,1,1.0,1.0,0.230600037612,0,0.0,0.0,0.233425618848,0.248892288043,0.16338531292,0.412277600963,0.0855069751229,nan,nan,0.0,0.0,0.0,nan,nan,176.579012926,337.616249529,337.846849567,338.116285309,nan,nan
0,146,4149,6,1,489,343,0.656284860842,0.299572439858,-1.0,1,1.0,1.0,0.214495564811,0,0.0,0.0,0.22261441856,0.24876255577,0.162812137755,0.411574693526,0.0859504180154,nan,nan,0.0,0.0,0.0,nan,nan,176.579012926,338.616350738,338.830846303,339.116391649,nan,nan
0,147,4150,6,1,427,300,0.163265173604,0.444863218481,-0.840208708629,1,1.0,1.0,0.190298942616,0,0.0,0.0,0.21179818168,0.248521238933,0.162263146079,0.410784385012,0.0862580928536,nan,nan,0.0,0.0,0.0,nan,nan,176.579012926,339.616484733,339.806783676,340.116527925,nan,nan
0,148,4151,6,1,349,245,-0.175656888649,0.468768509344,0.147945183432,1,1.0,1.0,0.214130927809,0,0.0,0.0,0.206308478412,0.248114090007,0.16176757021,0.409881660218,0.0863465197971,nan,nan,0.0,0.0,0.0,nan,nan,176.579012926,340.616619013,340.830749941,341.11666306,nan,nan
0,149,4152,6,1,472,331,0.51429864939,0.352212277195,-1.0,1,1.0,1.0,0.222014102619,0,0.0,0.0,0.208814657681,0.247878095826,0.161229598706,0.409107694532,0.0866484971194,nan,nan,0.0,0.0,0.0,nan,nan,176.579012926,341.616762701,341.838776804,342.116800476,nan,nan
0,150,4153,6,1,222,156,0.841778467246,0.0997291618919,0.589484691865,1,1.0,1.0,0.237803544616,0,0.0,0.0,0.224649525015,0.247699723459,0.160686929635,0.408386653094,0.0870127938232,nan,nan,0.0,0.0,0.0,nan,nan,176.579012926,342.616918363,342.854721908,343.116932475,nan,nan
0,151,4154,6,1,146,102,1.0,-0.278792578557,0.0248813210997,1,1.0,1.0,0.245644525159,0,0.0,0.0,0.235154057465,0.247631941412,0.160137766462,0.407769707874,0.0874941749494,nan,nan,0.0,0.0,0.0,nan,nan,176.579012926,343.617028125,343.86267265,344.117058203,nan,nan
0,152,4155,6,1,77,54,1.0,-0.174593022316,-0.756267193339,1,1.0,1.0,0.245528206462,0,0.0,0.0,0.242992092079,0.247618421573,0.15959223429,0.407210655863,0.0880261872836,nan,nan,0.0,0.0,0.0,nan,nan,176.579012926,344.61714815,344.862676357,345.117193338,nan,nan
0,153,4156,6,0,10,7,0.926811495151,0.168400576072,-1.0,0,1.0,0.0,0.245329779806,0,0.0,0.0,0.245500837142,0.247604298498,0.159052249671,0.406656548169,0.0885520488269,nan,nan,0.0,0.0,0.0,nan,nan,176.579012926,345.617317497,345.862647277,346.117350426,nan,nan
0,154,4157,6,1,115,80,1.0,-0.305166285737,-0.293172749504,1,1.0,1.0,0.253175321966,0,0.0,0.0,0.248011102745,0.247589033272,0.158517727531,0.406106760803,0.0890713057412,nan,nan,0.0,0.0,0.0,nan,nan,176.579012926,346.617448356,346.870623678,347.117460757,nan,nan
0,155,4158,6,1,284,199,0.188465149253,0.353984098999,0.602236276499,1,1.0,1.0,0.229022889398,0,0.0,0.0,0.24250933039,0.247626275197,0.157989105529,0.405615380725,0.0896371696679,nan,nan,0.0,0.0,0.0,nan,nan,176.579012926,347.617575508,347.846598398,348.117620981,nan,nan
0,156,4159,6,1,433,304,0.206536295144,0.436163724167,-1.0,1,1.0,1.0,0.204898966243,0,0.0,0.0,0.229032392536,0.247503073966,0.157472323099,0.404975397065,0.0900307508673,nan,nan,0.0,0.0,0.0,nan,nan,176.579012926,348.617706367,348.822605334,349.117750414,nan,nan
0,157,4200,6,1,280,196,0.228089347314,0.342018854333,0.61587222022,1,1.0,1.0,0.260694144759,0,0.0,0.0,0.2315386668,0.247222783784,0.156991253996,0.40421403778,0.0902315297878,nan,nan,0.0,0.0,0.0,nan,nan,176.579012926,349.617847204,349.878541349,350.117896954,nan,nan
0,158,4201,6,1,166,116,1.0,-0.20036215083,0.21267421211,1,1.0,1.0,0.276522074826,0,0.0,0.0,0.24737172861,0.247310831895,0.156481134902,0.403791966797,0.0908296969924,nan,nan,0.0,0.0,0.0,nan,nan,176.579012926,350.617986616,350.894508691,351.118003009,nan,nan
0,159,4202,6,1,294,206,0.0948761993654,0.381212130724,0.559858230992,1,1.0,1.0,0.268353234278,0,0.0,0.0,0.268523151288,0.24750051529,0.155989897892,0.403490413182,0.0915106173988,nan,nan,0.0,0.0,0.0,nan,nan,176.579012926,351.618108067,351.886461301,352.118123319,nan,nan
0,160,4203,6,1,18,12,0.988682696815,0.131162580546,-1.0,1,1.0,1.0,0.284217371605,0,0.0,0.0,0.276364226903,0.247635048961,0.155494853356,0.403129902317,0.0921401956057,nan,nan,0.0,0.0,0.0,nan,nan,176.579012926,352.618242632,352.902460003,353.118255033,nan,nan
0,161,4204,6,1,362,254,-0.164239727892,0.476000155386,0.0174578511848,1,1.0,1.0,0.268078402383,0,0.0,0.0,0.273549669422,0.24786955103,0.155023165097,0.402892716127,0.0928463859324,nan,nan,0.0,0.0,0.0,nan,nan,176.579012926,353.618365508,353.88644391,354.118385607,nan,nan
0,162,4205,6,1,481,338,0.589289488337,0.325611856148,-1.0,1,1.0,1.0,0.227944943355,0,0.0,0.0,0.260080239115,0.247998269828,0.154537034999,0.402535304827,0.0934612348294,nan,nan,0.0,0.0,0.0,nan,nan,176.579012926,354.618497507,354.846442451,355.118529866,nan,nan
0,163,4206,6,1,322,226,-0.105067232891,0.43811622051,0.383559350674,1,1.0,1.0,0.163734887261,0,0.0,0.0,0.219919411,0.24787135004,0.154055425974,0.401926776014,0.0938159240665,nan,nan,0.0,0.0,0.0,nan,nan,176.579012926,355.61862637,355.782361258,356.118651031,nan,nan
0,164,4207,6,1,221,155,0.851781464038,0.0945411604707,0.585422935822,1,1.0,1.0,0.163634818979,0,0.0,0.0,0.185104883198,0.247342189897,0.153714187068,0.401056376965,0.0936280028285,nan,nan,0.0,0.0,0.0,nan,nan,176.579012926,356.618756944,356.782391763,357.118783885,nan,nan
0,165,4208,6,1,465,326,0.456588679398,0.37096152752,-1.0,1,1.0,1.0,0.131460655248,0,0.0,0.0,0.152943453829,0.246819018829,0.153375016062,0.400194034891,0.0934440027663,nan,nan,0.0,0.0,0.0,nan,nan,176.579012926,357.618888088,357.750348743,358.118950096,nan,nan
0,166,4209,6,1,13,9,0.950262168777,0.154664060346,-1.0,1,1.0,1.0,0.211283109151,0,0.0,0.0,0.168792861126,0.246102507254,0.153166336424,0.399268843678,0.0929361708295,nan,nan,0.0,0.0,0.0,nan,nan,176.579012926,358.619007828,358.830290937,359.119048739,nan,nan
0,167,4210,6,1,195,137,1.0,-0.0469245268387,0.442396054288,1,1.0,1.0,0.307112818351,0,0.0,0.0,0.216618860917,0.245887572697,0.152717222168,0.398604794866,0.0931703505292,nan,nan,0.0,0.0,0.0,nan,nan,176.579012926,359.619143819,359.926256637,360.119198129,nan,nan
0,168,4211,6,0,247,173,0.578947625354,0.219392674348,0.6523805853,0,1.0,0.0,0.378930931911,0,0.0,0.0,0.299108953138,0.246263187701,0.152323087063,0.398586274765,0.093940100638,nan,nan,0.0,0.0,0.0,nan,nan,176.579012926,360.619315731,360.998246663,361.119340107,nan,nan
0,169,4212,6,1,50,35,1.0,-0.033148730948,-1.0,1,1.0,1.0,0.250799906673,0,0.0,0.0,0.312281218978,0.247072137361,0.152208778988,0.39928091635,0.0948633583728,nan,nan,0.0,0.0,0.0,nan,nan,176.579012926,361.619402115,361.870202022,362.119446447,nan,nan
0,170,4213,6,1,208,146,0.97651257568,0.025020743352,0.522574479073,1,1.0,1.0,0.258653431199,0,0.0,0.0,0.296128089928,0.247094729903,0.151747115111,0.398841845013,0.0953476147917,nan,nan,0.0,0.0,0.0,nan,nan,176.579012926,362.619558347,362.878211779,363.119577021,nan,nan
0,171,4214,6,1,80,56,1.0,-0.189075709245,-0.708965549488,1,1.0,1.0,0.338488429552,0,0.0,0.0,0.282647255808,0.247164360633,0.15129199894,0.398456359573,0.0958723616935,nan,nan,0.0,0.0,0.0,nan,nan,176.579012926,363.619680653,363.958169083,364.119710731,nan,nan
0,172,4215,6,0,23,16,1.0,0.106943944166,-1.0,0,0.0,1.0,0.442301381612,0,0.0,0.0,0.346481080788,0.247711211345,0.151002811361,0.398714022706,0.0967083999843,nan,nan,0.0,0.0,0.0,nan,nan,176.579012926,364.619835745,365.062137127,365.119870669,nan,nan
0,173,4216,6,1,480,337,0.580928072941,0.32870764083,-1.0,1,1.0,1.0,0.226192176575,0,0.0,0.0,0.33566066258,0.248869486168,0.151294980226,0.400164466394,0.0975745059427,nan,nan,0.0,0.0,0.0,nan,nan,176.579012926,365.619952919,365.846145096,366.120008941,nan,nan
0,174,4217,6,1,282,198,0.208142307666,0.34807905204,0.609295500931,1,1.0,1.0,0.250066926237,0,0.0,0.0,0.306186828141,0.248735300905,0.150856724071,0.399592024976,0.0978785768332,nan,nan,0.0,0.0,0.0,nan,nan,176.579012926,366.620067528,366.870134454,367.120113571,nan,nan
0,175,4218,6,1,343,241,-0.171388175652,0.463836419185,0.204822810802,1,1.0,1.0,0.345867270371,0,0.0,0.0,0.274042124394,0.248743133995,0.150412407873,0.399155541868,0.0983307261215,nan,nan,0.0,0.0,0.0,nan,nan,176.579012926,367.620197246,367.966064517,368.120250416,nan,nan
0,176,4219,6,1,64,45,1.0,-0.108036866323,-1.0,1,1.0,1.0,0.473690392682,0,0.0,0.0,0.356541529763,0.2493111114,0.150154689219,0.399465800619,0.0991564221819,nan,nan,0.0,0.0,0.0,nan,nan,176.579012926,368.620334092,369.094024485,369.120403228,nan,nan
0,177,4220,6,0,397,279,-0.0275613476434,0.473159987783,-0.37569455347,0,0.0,1.0,0.39349645935,0,0.0,0.0,0.404351374134,0.250615642106,0.150686278926,0.401301921032,0.0999293631794,nan,nan,0.0,0.0,0.0,nan,nan,176.579012926,369.620499732,370.013996192,370.120534087,nan,nan
0,178,4221,6,1,279,196,0.238157575771,0.338930353633,0.618978422254,1,1.0,1.0,0.209404045017,0,0.0,0.0,0.35886363235,0.251441542783,0.150640058761,0.402081601544,0.100801484022,nan,nan,0.0,0.0,0.0,nan,nan,176.579012926,370.620629166,370.830033211,371.120641568,nan,nan
0,179,4222,6,1,428,300,0.170378320166,0.443486568519,-0.86866140055,1,1.0,1.0,0.265231438912,0,0.0,0.0,0.289377314427,0.251199947969,0.150240170155,0.401440118123,0.100959777814,nan,nan,0.0,0.0,0.0,nan,nan,176.579012926,371.6207318,371.885963239,372.120772426,nan,nan
0,180,4223,6,1,168,118,1.0,-0.190790017254,0.230361799274,1,1.0,1.0,0.217081380775,0,0.0,0.0,0.230572288235,0.251280127917,0.149814030935,0.401094158852,0.101466096982,nan,nan,0.0,0.0,0.0,nan,nan,176.579012926,372.620861519,372.837942899,373.120911838,nan,nan
0,181,4224,6,1,431,303,0.191957257768,0.43918128748,-0.982298765802,1,1.0,1.0,0.344933297718,0,0.0,0.0,0.275748705802,0.251085816853,0.149409930026,0.400495746879,0.101675886828,nan,nan,0.0,0.0,0.0,nan,nan,176.579012926,373.621006632,373.96593993,374.12106579,nan,nan
0,182,4225,6,1,334,234,-0.152796554809,0.454467054946,0.285576400052,1,1.0,1.0,0.296786660561,0,0.0,0.0,0.286267113018,0.25161602861,0.149153225278,0.400769253888,0.102462803332,nan,nan,0.0,0.0,0.0,nan,nan,176.579012926,374.621139772,374.917926432,375.121175837,nan,nan
0,183,4226,6,1,435,305,0.221263830514,0.433027056876,-1.0,1,1.0,1.0,0.288629224058,0,0.0,0.0,0.310116394113,0.251869796205,0.148771978817,0.400641775022,0.103097817388,nan,nan,0.0,0.0,0.0,nan,nan,176.579012926,375.621259512,375.909888736,376.121302134,nan,nan
0,184,4227,6,1,220,154,0.861731547614,0.0893272636146,0.581247684387,1,1.0,1.0,0.280420755269,0,0.0,0.0,0.288612213296,0.252075156137,0.148381130234,0.400456286371,0.103694025903,nan,nan,0.0,0.0,0.0,nan,nan,176.579012926,376.621397213,376.901817968,377.121472621,nan,nan
0,185,4228,6,1,59,41,1.0,-0.0814409933332,-1.0,1,1.0,1.0,0.320237188134,0,0.0,0.0,0.296429055821,0.252232631688,0.147983385237,0.400216016925,0.10424924645,nan,nan,0.0,0.0,0.0,nan,nan,176.579012926,377.621557437,377.941794625,378.121571549,nan,nan
0,186,4229,6,1,283,198,0.19826868328,0.351050922538,0.605825948857,1,1.0,1.0,0.552103049355,0,0.0,0.0,0.384253664253,0.252608347469,0.147660089815,0.400268437284,0.104948257655,nan,nan,0.0,0.0,0.0,nan,nan,176.579012926,378.621664918,379.173767967,379.121728066,nan,nan
0,187,4230,6,1,442,310,0.273907262724,0.421095538958,-1.0,1,1.0,1.0,0.319954373408,0,0.0,0.0,0.397431536966,0.254253922754,0.148908817144,0.403162739898,0.10534510561,nan,nan,0.0,0.0,0.0,nan,nan,176.579012926,379.62178979,379.941744163,380.121829845,nan,nan
0,188,4231,6,1,292,205,0.112881669716,0.376069582356,0.569261850688,1,1.0,1.0,0.319781890605,0,0.0,0.0,0.397279771122,0.25461294161,0.148580369254,0.403193310864,0.106032572357,nan,nan,0.0,0.0,0.0,nan,nan,176.579012926,380.621955715,380.941737606,381.121974959,nan,nan
0,189,4232,6,1,510,358,0.830554458933,0.220436700166,-1.0,1,1.0,1.0,0.335625786101,0,0.0,0.0,0.325120683371,0.254967120681,0.148253509962,0.403220630644,0.106713610719,nan,nan,0.0,0.0,0.0,nan,nan,176.579012926,381.622070323,381.95769611,382.122091278,nan,nan
0,190,4233,6,1,359,252,-0.169222339917,0.474741883077,0.0483828026834,1,1.0,1.0,0.47149173636,0,0.0,0.0,0.375633137689,0.255403113467,0.147970516521,0.403373629988,0.107432596946,nan,nan,0.0,0.0,0.0,nan,nan,176.579012926,382.622186357,383.093678094,383.122268892,nan,nan
0,191,4234,6,0,55,38,1.0,-0.0599996532909,-1.0,0,0.0,1.0,0.42330575618,0,0.0,0.0,0.41014109288,0.256564880257,0.148415808179,0.404980688436,0.108149072078,nan,nan,0.0,0.0,0.0,nan,nan,176.579012926,383.622353993,384.04565975,384.122392909,nan,nan
0,192,4235,6,1,11,7,0.934659501434,0.163852895862,-1.0,1,1.0,1.0,0.215188632021,0,0.0,0.0,0.369995374853,0.257456542695,0.148517139884,0.405973682579,0.108939402811,nan,nan,0.0,0.0,0.0,nan,nan,176.579012926,384.622453492,384.837642124,385.122512649,nan,nan
0,193,4236,6,0,108,75,1.0,-0.292426609412,-0.368663285579,0,1.0,0.0,0.166976992972,0,0.0,0.0,0.268490460391,0.257231713383,0.148153525356,0.405385238739,0.109078188027,nan,nan,0.0,0.0,0.0,nan,nan,176.579012926,385.622629966,385.789606959,386.122661184,nan,nan
0,194,4237,6,1,223,156,0.83172397378,0.104890589731,0.593432239612,1,1.0,1.0,0.166839006823,0,0.0,0.0,0.183001543938,0.25675417518,0.147906066013,0.404660241192,0.108848109167,nan,nan,0.0,0.0,0.0,nan,nan,176.579012926,386.622756548,386.789595555,387.12276895,nan,nan
0,195,4238,6,1,487,342,0.639529740128,0.306295026098,-1.0,1,1.0,1.0,0.182695731521,0,0.0,0.0,0.172170577105,0.256280937451,0.147659722814,0.403940660266,0.108621214637,nan,nan,0.0,0.0,0.0,nan,nan,176.579012926,387.622849489,387.805545221,388.122894107,nan,nan
0,196,4239,6,1,119,83,1.0,-0.309446327048,-0.250710895617,1,1.0,1.0,0.158599462826,0,0.0,0.0,0.169378067056,0.255895674593,0.147368385575,0.403264060168,0.108527289018,nan,nan,0.0,0.0,0.0,nan,nan,176.579012926,388.622982914,388.781582377,389.123056041,nan,nan
0,197,4240,6,1,52,36,1.0,-0.0438860552364,-1.0,1,1.0,1.0,0.238376016496,0,0.0,0.0,0.193223736947,0.25538892349,0.147150866667,0.402539790157,0.108238056824,nan,nan,0.0,0.0,0.0,nan,nan,176.579012926,389.623140857,389.861516873,390.123193742,nan,nan
0,198,4241,6,1,209,146,0.967301840512,0.0304835193525,0.52804999659,1,1.0,1.0,0.36623990722,0,0.0,0.0,0.254405128847,0.255300773713,0.146774234143,0.402075007856,0.10852653957,nan,nan,0.0,0.0,0.0,nan,nan,176.579012926,390.623281979,390.989521886,391.1232921,nan,nan
0,199,4242,6,1,123,86,1.0,-0.311441137266,-0.208672863777,1,1.0,1.0,0.374049527338,0,0.0,0.0,0.326221817018,0.255872624917,0.14661086164,0.402483486556,0.109261763277,nan,nan,0.0,0.0,0.0,nan,nan,176.579012926,391.623377771,391.997427299,392.123423529,nan,nan
0,200,4243,6,1,172,120,1.0,-0.170984061773,0.265024678188,1,1.0,1.0,0.245888567064,0,0.0,0.0,0.328726000541,0.256478660314,0.146477873406,0.40295653372,0.110000786908,nan,nan,0.0,0.0,0.0,nan,nan,176.579012926,392.623511766,392.869400333,393.123556954,nan,nan
0,201,4244,6,1,413,290,0.0683106243366,0.461143133648,-0.585495598612,1,1.0,1.0,0.189769805409,0,0.0,0.0,0.26990263327,0.256424629226,0.146105675699,0.402530304925,0.110318953527,nan,nan,0.0,0.0,0.0,nan,nan,176.579012926,393.623675696,393.813445501,394.123718888,nan,nan
0,202,4245,6,1,135,94,1.0,-0.303502321856,-0.0849788702499,1,1.0,1.0,0.181576161645,0,0.0,0.0,0.205744844706,0.256086279866,0.14581133999,0.401897619856,0.110274939876,nan,nan,0.0,0.0,0.0,nan,nan,176.579012926,394.623809406,394.805385567,395.123852883,nan,nan
0,203,4246,6,1,272,191,0.310166696092,0.316214117232,0.637281430288,1,1.0,1.0,0.221438779961,0,0.0,0.0,0.197594915672,0.255709966138,0.145538537572,0.40124850371,0.110171428566,nan,nan,0.0,0.0,0.0,nan,nan,176.579012926,395.623908904,395.845347684,396.123982031,nan,nan
0,204,4247,6,1,194,136,1.0,-0.0524864644427,0.435571704399,1,1.0,1.0,0.205228822073,0,0.0,0.0,0.202747921227,0.255537749122,0.145192626583,0.400730375705,0.110345122539,nan,nan,0.0,0.0,0.0,nan,nan,176.579012926,396.624073974,396.829302796,397.124084095,nan,nan
0,205,4248,6,1,108,75,1.0,-0.292426609412,-0.368663285579,1,1.0,1.0,0.221111205174,0,0.0,0.0,0.215926269069,0.255286204487,0.144872654376,0.400158858863,0.110413550111,nan,nan,0.0,0.0,0.0,nan,nan,176.579012926,397.624222794,397.845333999,398.12421809,nan,nan
0,206,4249,6,1,491,345,0.673033477965,0.292707709811,-1.0,1,1.0,1.0,0.300943067297,0,0.0,0.0,0.242427698181,0.255116179614,0.144531828118,0.399648007732,0.110584351496,nan,nan,0.0,0.0,0.0,nan,nan,176.579012926,398.624332556,398.925275623,399.124353796,nan,nan
0,207,4250,6,1,133,93,1.0,-0.306259573676,-0.105336427414,1,1.0,1.0,0.236759525025,0,0.0,0.0,0.252937932499,0.255343045395,0.144209504916,0.399552550311,0.111133540479,nan,nan,0.0,0.0,0.0,nan,nan,176.579012926,399.624463415,399.86122294,400.124482088,nan,nan
0,208,4251,6,1,232,163,0.739158239773,0.150046616059,0.623712016981,1,1.0,1.0,0.188649095129,0,0.0,0.0,0.242117229151,0.25525150096,0.143859754336,0.399111255295,0.111391746624,nan,nan,0.0,0.0,0.0,nan,nan,176.579012926,400.624576312,400.813225408,401.124614088,nan,nan
0,209,4252,6,1,108,75,1.0,-0.292426609412,-0.368663285579,1,1.0,1.0,0.108489658218,0,0.0,0.0,0.177966092791,0.254925018578,0.143582093861,0.398507112439,0.111342924717,nan,nan,0.0,0.0,0.0,nan,nan,176.579012926,401.624706031,401.733195689,402.124780013,nan,nan
0,210,4253,6,1,422,296,0.128328379107,0.451313674078,-0.730894888444,1,1.0,1.0,0.100334502524,0,0.0,0.0,0.13249108529,0.254210699747,0.143594373139,0.397805072886,0.110616326608,nan,nan,0.0,0.0,0.0,nan,nan,176.579012926,402.624837175,402.725171678,403.124910017,nan,nan
0,211,4254,6,1,101,71,1.0,-0.273572672894,-0.446152610616,1,1.0,1.0,0.188200925011,0,0.0,0.0,0.132341695251,0.253463727916,0.143644120354,0.39710784827,0.109819607562,nan,nan,0.0,0.0,0.0,nan,nan,176.579012926,403.624980578,403.813181503,404.125024625,nan,nan
0,212,4255,6,1,38,26,1.0,0.0306259494545,-1.0,1,1.0,1.0,0.220014157705,0,0.0,0.0,0.169516528413,0.253148448675,0.143368164284,0.396516612959,0.109780284391,nan,nan,0.0,0.0,0.0,nan,nan,176.579012926,404.625109726,404.845123884,405.125149497,nan,nan
0,213,4256,6,1,279,196,0.238157575771,0.338930353633,0.618978422254,1,1.0,1.0,0.251818837831,0,0.0,0.0,0.220011306849,0.252989149199,0.143041476683,0.396030625882,0.109947672516,nan,nan,0.0,0.0,0.0,nan,nan,176.579012926,405.625255125,405.877073963,406.125303734,nan,nan
0,214,4257,6,1,127,89,1.0,-0.31111021432,-0.167036648065,1,1.0,1.0,0.163678153418,0,0.0,0.0,0.211837049651,0.252983549623,0.142698884727,0.39568243435,0.110284664896,nan,nan,0.0,0.0,0.0,nan,nan,176.579012926,406.625399098,406.789077251,407.125437729,nan,nan
0,215,4258,6,1,242,170,0.632911854383,0.197161183215,0.645921401967,1,1.0,1.0,0.0915498558898,0,0.0,0.0,0.169015615713,0.252558285832,0.142491412627,0.395049698459,0.110066873204,nan,nan,0.0,0.0,0.0,nan,nan,176.579012926,407.625497171,407.717047027,408.125571153,nan,nan
0,216,4259,6,1,460,323,0.415848916989,0.383334931935,-1.0,1,1.0,1.0,0.107384913368,0,0.0,0.0,0.120870974225,0.251795212704,0.142582800664,0.394378013368,0.10921241204,nan,nan,0.0,0.0,0.0,nan,nan,176.579012926,408.625633162,408.733018075,409.125700586,nan,nan
0,217,4300,6,0,305,214,0.00361192545304,0.406859252708,0.500196907155,0,1.0,0.0,0.211168500828,0,0.0,0.0,0.136701090029,0.251114032047,0.142589848861,0.393703880907,0.108524183186,nan,nan,0.0,0.0,0.0,nan,nan,176.579012926,409.625798802,409.836967303,410.125840853,nan,nan
0,218,4301,6,1,1,0,0.854939129564,0.207877072944,-1.0,1,1.0,1.0,0.227026080946,0,0.0,0.0,0.181859831714,0.250926494342,0.142280941646,0.393207435988,0.108645552695,nan,nan,0.0,0.0,0.0,nan,nan,176.579012926,410.625923389,410.85294947,411.125937501,nan,nan
0,219,4302,6,1,72,50,1.0,-0.149607777062,-0.853203742106,1,1.0,1.0,0.218901430257,0,0.0,0.0,0.21903200401,0.250814810167,0.141957478401,0.392772288568,0.108857331766,nan,nan,0.0,0.0,0.0,nan,nan,176.579012926,411.626063371,411.844964801,412.126071496,nan,nan
0,220,4303,6,0,445,312,0.296953900578,0.415520102116,-1.0,0,1.0,0.0,0.226703352761,0,0.0,0.0,0.224210287988,0.250666375842,0.141643604852,0.392309980693,0.10902277099,nan,nan,0.0,0.0,0.0,nan,nan,176.579012926,412.6261948,412.852898152,413.126238277,nan,nan
0,221,4304,6,1,50,35,1.0,-0.033148730948,-1.0,1,1.0,1.0,0.234551745933,0,0.0,0.0,0.226718842983,0.25055543592,0.141324708021,0.391880143941,0.109230727899,nan,nan,0.0,0.0,0.0,nan,nan,176.579012926,413.626325088,413.860876834,414.126331788,nan,nan
0,222,4305,6,1,156,109,1.0,-0.244060613314,0.121041471254,1,1.0,1.0,0.26638921164,0,0.0,0.0,0.242548103444,0.250481686196,0.14100286507,0.391484551266,0.109478821127,nan,nan,0.0,0.0,0.0,nan,nan,176.579012926,414.626452811,414.892842023,415.126499139,nan,nan
0,223,4306,6,1,300,210,0.0433537089178,0.395748422077,0.528951029102,1,1.0,1.0,0.258237477159,0,0.0,0.0,0.253059478244,0.250554656497,0.140683198912,0.391237855409,0.109871457585,nan,nan,0.0,0.0,0.0,nan,nan,176.579012926,415.626560292,415.884797769,416.126632279,nan,nan
0,224,4307,6,1,60,42,1.0,-0.0867837676833,-1.0,1,1.0,1.0,0.298136872472,0,0.0,0.0,0.274254520424,0.25058973787,0.140362592612,0.390952330482,0.110227145257,nan,nan,0.0,0.0,0.0,nan,nan,176.579012926,416.626701699,416.924838572,417.126736338,nan,nan
0,225,4308,6,1,271,190,0.320642857732,0.312811632898,0.639400143054,1,1.0,1.0,0.273906894261,0,0.0,0.0,0.276760414631,0.250805861209,0.140079740694,0.390885601902,0.110726120515,nan,nan,0.0,0.0,0.0,nan,nan,176.579012926,417.626855366,417.90076226,418.126861495,nan,nan
0,226,4309,6,1,464,326,0.448404880525,0.373503555275,-1.0,1,1.0,1.0,0.24146730639,0,0.0,0.0,0.271170357708,0.25091039077,0.139771058258,0.390681449028,0.111139332512,nan,nan,0.0,0.0,0.0,nan,nan,176.579012926,418.635287349,418.876754656,419.135339949,nan,nan
0,227,4310,6,1,333,234,-0.149813480994,0.453275949072,0.294183738108,1,1.0,1.0,0.257251617033,0,0.0,0.0,0.257541939228,0.250867854354,0.139457336929,0.390325191283,0.111410517425,nan,nan,0.0,0.0,0.0,nan,nan,176.579012926,419.635455556,419.892707173,420.135465676,nan,nan
0,228,4311,6,1,7,4,0.9030914636,0.181853060355,-1.0,1,1.0,1.0,0.257105648052,0,0.0,0.0,0.251941523825,0.250896481092,0.139144954718,0.390041435811,0.111751526374,nan,nan,0.0,0.0,0.0,nan,nan,176.579012926,420.635597818,420.892703466,421.13559568,nan,nan
0,229,4312,6,1,153,107,1.0,-0.255547855702,0.0926213922694,1,1.0,1.0,0.25655028224,0,0.0,0.0,0.256969182442,0.250924200588,0.138834632973,0.389758833561,0.112089567614,nan,nan,0.0,0.0,0.0,nan,nan,176.579012926,421.644122173,421.900672455,422.144068717,nan,nan
0,230,4313,6,1,473,332,0.522594813828,0.349396171415,-1.0,1,1.0,1.0,0.224439409561,0,0.0,0.0,0.246031779951,0.250949205395,0.138526273516,0.389475478911,0.112422931879,nan,nan,0.0,0.0,0.0,nan,nan,176.579012926,422.644190311,422.86862972,423.144200146,nan,nan
0,231,4314,6,1,24,16,1.0,0.102019060141,-1.0,1,1.0,1.0,0.248305606423,0,0.0,0.0,0.243098432741,0.250831905413,0.138230658233,0.389062563647,0.11260124718,nan,nan,0.0,0.0,0.0,nan,nan,176.579012926,423.644309765,423.892615372,424.144323022,nan,nan
0,232,4315,6,1,100,70,1.0,-0.270427092546,-0.457439896749,1,1.0,1.0,0.216145127313,0,0.0,0.0,0.229630047766,0.250820776343,0.137925950828,0.388746727171,0.112894825516,nan,nan,0.0,0.0,0.0,nan,nan,176.579012926,424.64442808,424.860573207,425.144485242,nan,nan
0,233,4316,6,1,323,227,-0.11001989341,0.43965344528,0.375855360355,1,nan,nan,nan,0,0.0,0.0,0.232225366868,0.250668690163,0.13764222378,0.388310913943,0.113026466383,nan,nan,0.0,0.0,0.0,nan,nan,176.579012926,425.644554092,nan,426.144625509,nan,nan
0,234,4317,6,1,392,275,-0.0541067903503,0.475522277549,-0.315549842675,1,1.0,1.0,0.279819488991,0,0.0,0.0,0.247982308152,0.250668690163,0.13764222378,0.388310913943,0.113026466383,nan,nan,0.0,0.0,0.0,nan,nan,176.579012926,426.644705763,426.924525252,427.144753231,nan,nan
0,235,4318,6,1,156,109,1.0,-0.244060613314,0.121041471254,1,1.0,1.0,0.223667371087,0,0.0,0.0,0.251743430039,0.250795986228,0.137354815788,0.388150802015,0.11344117044,nan,nan,0.0,0.0,0.0,nan,nan,176.579012926,427.644826358,427.86849373,428.144848453,nan,nan
0,236,4319,6,1,380,267,-0.109519508899,0.478533032186,-0.177177385375,1,1.0,1.0,0.0872144091409,0,0.0,0.0,0.196900423073,0.250678035727,0.137067515308,0.387745551035,0.113610520419,nan,nan,0.0,0.0,0.0,nan,nan,176.579012926,428.653307664,428.740522073,429.153323201,nan,nan
0,237,4320,6,1,138,97,1.0,-0.29832987918,-0.0546508148191,1,1.0,1.0,0.774984982563,0,0.0,0.0,0.361955587597,0.24997040098,0.13719090481,0.387161305791,0.11277949617,nan,nan,0.0,0.0,0.0,nan,nan,176.579012926,429.653406877,430.428391859,430.153489982,nan,nan
0,238,4321,6,1,274,192,0.289344050657,0.322900892411,0.632670269059,1,nan,nan,nan,0,0.0,0.0,0.431099695852,0.252233394866,0.141149571467,0.393382966333,0.111083823399,nan,nan,0.0,0.0,0.0,nan,nan,176.579012926,430.653546573,nan,431.153617135,nan,nan
0,239,4322,6,1,424,298,0.142174562463,0.448819569244,-0.770229420881,1,nan,nan,nan,0,0.0,0.0,0.774984982563,0.252233394866,0.141149571467,0.393382966333,0.111083823399,nan,nan,0.0,0.0,0.0,nan,nan,176.579012926,431.653687696,nan,432.153754266,nan,nan
0,240,4323,6,0,231,162,0.749609680972,0.145151270079,0.620821461523,0,1.0,0.0,0.190529870102,0,0.0,0.0,0.190529870102,0.252233394866,0.141149571467,0.393382966333,0.111083823399,nan,nan,0.0,0.0,0.0,nan,nan,176.579012926,432.653843928,432.844373798,433.153877712,nan,nan
0,241,4324,6,1,335,235,-0.155595990888,0.455627721073,0.276893227044,1,1.0,1.0,0.17436467181,0,0.0,0.0,0.182447270956,0.251968572872,0.140904096968,0.39287266984,0.111064475903,nan,nan,0.0,0.0,0.0,nan,nan,176.579012926,433.653982769,433.828347441,434.153986333,nan,nan
0,242,4325,6,1,89,62,1.0,-0.229484098413,-0.587370487375,1,1.0,1.0,0.214246391319,0,0.0,0.0,0.193046977744,0.251636932269,0.140693799292,0.392330731561,0.110943132977,nan,nan,0.0,0.0,0.0,nan,nan,176.579012926,434.654099944,434.868346335,435.154148267,nan,nan
0,243,4326,6,1,468,329,0.481236483515,0.363131620867,-1.0,1,1.0,1.0,0.230077742599,0,0.0,0.0,0.206229601909,0.251477823584,0.140415227256,0.39189305084,0.111062596328,nan,nan,0.0,0.0,0.0,nan,nan,176.579012926,435.654204859,435.884282602,436.154245485,nan,nan
0,244,4327,6,1,97,68,1.0,-0.260369742894,-0.491718830742,1,1.0,1.0,0.181984703522,0,0.0,0.0,0.20876961248,0.251387145275,0.140124316681,0.391511461956,0.111262828593,nan,nan,0.0,0.0,0.0,nan,nan,176.579012926,436.654340279,436.836324983,437.154418823,nan,nan
0,245,4328,6,1,507,356,0.805995650865,0.232688349973,-1.0,1,1.0,1.0,0.165800404269,0,0.0,0.0,0.19262095013,0.251094307968,0.139900731366,0.390995039333,0.111193576602,nan,nan,0.0,0.0,0.0,nan,nan,176.579012926,437.654466576,437.820266981,438.154544835,nan,nan
0,246,4329,6,0,408,286,0.036737934283,0.465637664749,-0.515938449969,0,1.0,0.0,0.181569604669,0,0.0,0.0,0.17645157082,0.250735930221,0.139715487485,0.390451417706,0.111020442736,nan,nan,0.0,0.0,0.0,nan,nan,176.579012926,438.654643906,438.83621351,439.154675979,nan,nan
0,247,4330,6,1,317,222,-0.077772836126,0.429938605076,0.420733606481,1,1.0,1.0,0.189483854454,0,0.0,0.0,0.178951287797,0.250446531369,0.13949435458,0.38994088595,0.110952176789,nan,nan,0.0,0.0,0.0,nan,nan,176.579012926,439.654732286,439.84421614,440.154803987,nan,nan
0,248,4331,6,1,54,37,1.0,-0.0546292063271,-1.0,1,1.0,1.0,0.197300031781,0,0.0,0.0,0.189451163635,0.250192520215,0.139258815971,0.389451336187,0.110933704244,nan,nan,0.0,0.0,0.0,nan,nan,176.579012926,440.654868276,440.852168308,441.154940548,nan,nan
0,249,4332,6,1,410,288,0.0492046846968,0.463921527344,-0.54316189137,1,1.0,1.0,0.197152922628,0,0.0,0.0,0.194645602955,0.249973049309,0.139011183244,0.388984232553,0.110961866065,nan,nan,0.0,0.0,0.0,nan,nan,176.579012926,441.655033916,441.852186839,442.155045178,nan,nan
0,250,4333,6,0,211,148,0.948675772315,0.0413606888024,0.538689155053,0,1.0,0.0,0.212952058064,0,0.0,0.0,0.202468337491,0.249754784323,0.138765047909,0.388519832232,0.110989736414,nan,nan,0.0,0.0,0.0,nan,nan,176.579012926,442.655165345,442.868117403,443.15520198,nan,nan
0,251,4334,6,1,20,14,1.0,0.121558187834,-1.0,1,1.0,1.0,0.332788801054,0,0.0,0.0,0.247631260582,0.249603332774,0.138499269641,0.388102602416,0.111104063133,nan,nan,0.0,0.0,0.0,nan,nan,176.579012926,443.655300196,443.988088997,444.15533683,nan,nan
0,252,4335,6,1,279,196,0.238157575771,0.338930353633,0.618978422254,1,1.0,1.0,0.244664937258,0,0.0,0.0,0.263468598792,0.249944256825,0.13831730347,0.388261560295,0.111626953355,nan,nan,0.0,0.0,0.0,nan,nan,176.579012926,444.655410813,444.90007575,445.155471966,nan,nan
0,253,4336,6,1,110,77,1.0,-0.296722754836,-0.346921960777,1,1.0,1.0,0.236484407913,0,0.0,0.0,0.271312715408,0.249922708582,0.138035145016,0.387957853598,0.111887563565,nan,nan,0.0,0.0,0.0,nan,nan,176.579012926,445.655546233,445.892030641,446.155581442,nan,nan
0,254,4337,6,1,480,337,0.580928072941,0.32870764083,-1.0,1,1.0,1.0,0.276357004419,0,0.0,0.0,0.25250211653,0.249868081343,0.137756953736,0.387625035079,0.112111127607,nan,nan,0.0,0.0,0.0,nan,nan,176.579012926,446.655657705,446.93201471,447.155702608,nan,nan
0,255,4338,6,1,432,303,0.199227897075,0.437687328843,-1.0,1,1.0,1.0,0.300150502007,0,0.0,0.0,0.27099730478,0.249975323947,0.137488100107,0.387463424054,0.112487223839,nan,nan,0.0,0.0,0.0,nan,nan,176.579012926,447.655822776,447.955973278,448.155839739,nan,nan
0,256,4339,6,1,5,3,0.88714030954,0.190659852496,-1.0,1,1.0,1.0,0.363305704901,0,0.0,0.0,0.313271070442,0.250177643213,0.137247464308,0.387425107521,0.112930178905,nan,nan,0.0,0.0,0.0,nan,nan,176.579012926,448.672628298,449.035934003,449.172639844,nan,nan
0,257,4340,6,1,319,224,-0.0891891826932,0.433308674125,0.406137099325,1,1.0,1.0,0.355161382584,0,0.0,0.0,0.339539196497,0.250631972778,0.13715832968,0.387790302458,0.113473643098,nan,nan,0.0,0.0,0.0,nan,nan,176.579012926,449.672756306,450.027917688,450.17279123,nan,nan
0,258,4341,6,1,207,145,0.985653507947,0.0195431921708,0.51699622314,1,1.0,1.0,0.275027604541,0,0.0,0.0,0.331164897342,0.251050090417,0.137042652261,0.388092742678,0.114007438156,nan,nan,0.0,0.0,0.0,nan,nan,176.579012926,450.672853523,450.947881128,451.17293948,nan,nan
0,259,4342,6,1,291,204,0.122027637739,0.373441943191,0.573791926984,1,1.0,1.0,0.202891609399,0,0.0,0.0,0.277693532174,0.251145618362,0.136777726533,0.387923344895,0.114367891829,nan,nan,0.0,0.0,0.0,nan,nan,176.579012926,451.673002058,451.875893668,452.173039548,nan,nan
0,260,4343,6,1,358,251,-0.170583909915,0.474268316859,0.0585874414746,1,1.0,1.0,0.114735244773,0,0.0,0.0,0.197551486238,0.250954134199,0.136539778128,0.387493912328,0.114414356071,nan,nan,0.0,0.0,0.0,nan,nan,176.579012926,452.673177107,452.787912352,453.1731935,nan,nan
0,261,4344,6,1,261,183,0.427225806086,0.276617811781,0.653674462902,1,1.0,1.0,0.146567293676,0,0.0,0.0,0.154731382616,0.250415719617,0.136537449704,0.386953169321,0.113878269912,nan,nan,0.0,0.0,0.0,nan,nan,176.579012926,453.673285443,453.819852737,454.173322933,nan,nan
0,262,4345,6,1,191,134,1.0,-0.0691479807067,0.414571651978,1,1.0,1.0,0.090370986145,0,0.0,0.0,0.117224508198,0.250006867546,0.136423499017,0.386430366564,0.113583368529,nan,nan,0.0,0.0,0.0,nan,nan,176.579012926,454.673419438,454.763790424,455.173456643,nan,nan
0,263,4346,6,1,450,316,0.335949728395,0.405598329481,-1.0,1,1.0,1.0,0.146245706128,0,0.0,0.0,0.127727995316,0.249380844482,0.136520801177,0.385901645659,0.112860043305,nan,nan,0.0,0.0,0.0,nan,nan,176.579012926,455.673554003,455.819799709,456.173590068,nan,nan
0,264,4347,6,0,48,33,1.0,-0.0224273256894,-1.0,0,1.0,0.0,0.218066100497,0,0.0,0.0,0.151560930923,0.248977972848,0.136405691448,0.385383664296,0.1125722814,nan,nan,0.0,0.0,0.0,nan,nan,176.579012926,456.673683151,456.891749252,457.173720641,nan,nan
0,265,4348,6,1,337,236,-0.160643365934,0.457858386897,0.259303564052,1,1.0,1.0,0.161914552795,0,0.0,0.0,0.175408786473,0.248857693189,0.136153653567,0.385011346756,0.112704039621,nan,nan,0.0,0.0,0.0,nan,nan,176.579012926,457.673780369,457.835694922,458.173848079,nan,nan
0,266,4349,6,1,469,329,0.489482198204,0.360453357602,-1.0,1,1.0,1.0,0.176369178109,0,0.0,0.0,0.1854499438,0.248520704272,0.135996877492,0.384517581764,0.112523826781,nan,nan,0.0,0.0,0.0,nan,nan,176.579012926,458.675314753,458.851683931,459.173948718,nan,nan
0,267,4350,6,1,17,11,0.981069150956,0.135921910835,-1.0,1,1.0,1.0,0.217621351592,0,0.0,0.0,0.185301694165,0.248242126951,0.135807816464,0.384049943416,0.112434310487,nan,nan,0.0,0.0,0.0,nan,nan,176.579012926,459.674046648,459.891668,460.174102954,nan,nan
0,268,4351,6,1,348,244,-0.175384772129,0.468017843042,0.157582163916,1,1.0,1.0,0.185485390713,0,0.0,0.0,0.193158640138,0.248124354738,0.135559646905,0.383684001643,0.112564707833,nan,nan,0.0,0.0,0.0,nan,nan,176.579012926,460.674214569,460.85969996,461.174222409,nan,nan
0,269,4352,6,1,304,213,0.0113092810281,0.404708921832,0.506160370659,1,1.0,1.0,0.225275594741,0,0.0,0.0,0.209460779016,0.247884358708,0.135355035526,0.383239394234,0.112529323181,nan,nan,0.0,0.0,0.0,nan,nan,176.579012926,461.674322905,461.8995985,462.174354694,nan,nan
0,270,4353,6,1,90,63,1.0,-0.233635786423,-0.574971871003,1,1.0,1.0,0.249166024383,0,0.0,0.0,0.219975669946,0.247798065715,0.135103670371,0.382901736086,0.112694395345,nan,nan,0.0,0.0,0.0,nan,nan,176.579012926,462.674438369,462.923604394,463.174485552,nan,nan
0,271,4354,6,1,474,333,0.530901762182,0.346545376391,-1.0,1,1.0,1.0,0.216989580076,0,0.0,0.0,0.2304770664,0.247803267079,0.134846600948,0.382649868028,0.112956666131,nan,nan,0.0,0.0,0.0,nan,nan,176.579012926,463.674571224,463.891560804,464.174616982,nan,nan
0,272,4355,6,1,75,52,1.0,-0.164714458691,-0.791355921409,1,1.0,1.0,0.264798379038,0,0.0,0.0,0.243651327832,0.247686548568,0.134604277039,0.382290825607,0.113082271529,nan,nan,0.0,0.0,0.0,nan,nan,176.579012926,464.674736864,464.939535243,465.174786898,nan,nan
0,273,4356,6,1,22,15,1.0,0.111842423158,-1.0,1,1.0,1.0,0.18471534783,0,0.0,0.0,0.222167768981,0.247751121513,0.134354163324,0.382105284836,0.113396958189,nan,nan,0.0,0.0,0.0,nan,nan,176.579012926,465.674865157,465.859580505,466.174878414,nan,nan
0,274,4357,6,1,134,94,1.0,-0.304950998219,-0.095144111098,1,1.0,1.0,0.208530797623,0,0.0,0.0,0.21934817483,0.24751414492,0.134156855919,0.38167100084,0.113357289001,nan,nan,0.0,0.0,0.0,nan,nan,176.579012926,466.674968362,466.883499159,467.175033221,nan,nan
0,275,4358,6,1,218,153,0.881467392804,0.0788246127756,0.572559633417,1,1.0,1.0,0.312323793303,0,0.0,0.0,0.235189979586,0.247368139874,0.13392656184,0.381294701714,0.113441578034,nan,nan,0.0,0.0,0.0,nan,nan,176.579012926,467.675137423,467.987461217,468.175176339,nan,nan
0,276,4359,6,1,152,106,1.0,-0.259184487343,0.0830625546756,1,1.0,1.0,0.3041828922,0,0.0,0.0,0.275012494375,0.247610511715,0.133735119028,0.381345630743,0.113875392687,nan,nan,0.0,0.0,0.0,nan,nan,176.579012926,468.675264576,468.979447468,469.175321167,nan,nan
0,277,4400,6,1,46,32,1.0,-0.0117313672748,-1.0,1,1.0,1.0,0.264059981797,0,0.0,0.0,0.293522222433,0.247820817962,0.133530700829,0.381351518791,0.114290117133,nan,nan,0.0,0.0,0.0,nan,nan,176.579012926,469.675367495,469.939427477,470.175407266,nan,nan
0,278,4401,6,0,306,215,-0.00395437407881,0.408974006242,0.494128827808,0,0.0,1.0,0.41585307545,0,0.0,0.0,0.328031983149,0.247880963014,0.133286842769,0.381167805782,0.114594120245,nan,nan,0.0,0.0,0.0,nan,nan,176.579012926,470.675535702,471.091388777,471.17556806,nan,nan
0,279,4402,6,1,505,355,0.789537956352,0.240683140511,-1.0,1,1.0,1.0,0.207752772141,0,0.0,0.0,0.295888609796,0.248500786307,0.133429968094,0.3819307544,0.115070818213,nan,nan,0.0,0.0,0.0,nan,nan,176.579012926,471.67565031,471.883403082,472.175704621,nan,nan
0,280,4403,6,0,124,87,1.0,-0.311577186586,-0.198226518473,0,1.0,0.0,0.255548456684,0,0.0,0.0,0.293051434758,0.248350977431,0.133207297493,0.381558274925,0.115143679938,nan,nan,0.0,0.0,0.0,nan,nan,176.579012926,472.675797989,472.931346446,473.175834054,nan,nan
0,281,4404,6,1,230,161,0.760023132926,0.140224214653,0.61781109556,1,1.0,1.0,0.183441541158,0,0.0,0.0,0.215580923328,0.248377341824,0.132963815214,0.381341157038,0.11541352661,nan,nan,0.0,0.0,0.0,nan,nan,176.579012926,473.67588922,473.859330761,474.175930701,nan,nan
0,282,4405,6,1,290,203,0.131265381085,0.370776544741,0.578206616232,1,1.0,1.0,0.231258893386,0,0.0,0.0,0.223416297076,0.248140349851,0.132778710582,0.380919060433,0.115361639268,nan,nan,0.0,0.0,0.0,nan,nan,176.579012926,474.67602521,474.907284104,475.176068117,nan,nan
0,283,4406,6,1,445,312,0.296953900578,0.415520102116,-1.0,1,1.0,1.0,0.255117677385,0,0.0,0.0,0.223272703976,0.248078962736,0.132540970089,0.380619932826,0.115537992647,nan,nan,0.0,0.0,0.0,nan,nan,176.579012926,475.676179447,475.931297125,476.176224065,nan,nan
0,284,4407,6,1,258,181,0.459642287315,0.26499291187,0.655490062901,1,1.0,1.0,0.302909655729,0,0.0,0.0,0.263095408833,0.248104465326,0.13230131769,0.380405783016,0.115803147636,nan,nan,0.0,0.0,0.0,nan,nan,176.579012926,476.67632285,476.979232506,477.176352073,nan,nan
0,285,4408,6,1,492,345,0.681403316433,0.289222019555,-1.0,1,1.0,1.0,0.278778320411,0,0.0,0.0,0.278935217842,0.248302317999,0.132103190117,0.380405508115,0.116199127882,nan,nan,0.0,0.0,0.0,nan,nan,176.579012926,477.676444016,477.955222336,478.17646383,nan,nan
0,286,4409,6,1,361,253,-0.166047812515,0.475607712818,0.0278173107143,1,1.0,1.0,0.19863912533,0,0.0,0.0,0.260109033824,0.248411943907,0.131878002297,0.380289946203,0.11653394161,nan,nan,0.0,0.0,0.0,nan,nan,176.579012926,478.676553777,478.875192903,479.176617781,nan,nan
0,287,4410,6,1,498,350,0.731507943485,0.267561876527,-1.0,1,1.0,1.0,0.0784608379472,0,0.0,0.0,0.18529276123,0.248233546707,0.131675049907,0.379908596615,0.1165584968,nan,nan,0.0,0.0,0.0,nan,nan,176.579012926,479.676699746,479.755160584,480.176757763,nan,nan
0,288,4411,6,1,226,158,0.801265930663,0.120208988367,0.60458276857,1,1.0,1.0,0.0543354894035,0,1.0,0.0,0.110478484227,0.247627215605,0.131829310236,0.379456525841,0.115797905368,nan,nan,0.0,0.0,0.0,nan,nan,176.579012926,480.676850562,480.731186051,481.176887482,nan,nan
0,289,4418,6,1,78,54,1.0,-0.179467652321,-0.739907630878,1,1.0,1.0,0.0541421948001,1,0.0,0.0,0.0623128407169,0.246939344693,0.132096959727,0.37903630442,0.114842384966,-123.917430537,304.0,0.0113092810281,0.404708921832,0.506160370659,159.073680537,3.65073866793,176.579012926,481.676979995,481.73112219,482.177019766,483.502159456,487.160985712
0,290,4419,6,1,311,218,-0.0397249783266,0.419020224334,0.462250212202,1,1.0,1.0,0.297431546496,0,0.0,0.0,0.1353030769,0.246255666856,0.132359633023,0.378615299879,0.113896033834,nan,nan,0.0,0.0,0.0,nan,nan,176.579012926,488.369497408,488.666928955,488.869565403,nan,nan
0,291,4420,6,1,202,142,1.0,-0.00802826454356,0.487596984314,1,1.0,1.0,0.241228111554,0,0.0,0.0,0.197600617617,0.246436500353,0.132160467678,0.378596968031,0.114276032676,nan,nan,0.0,0.0,0.0,nan,nan,176.579012926,489.369661053,489.610889164,489.86967545,nan,nan
0,292,4421,6,1,146,102,1.0,-0.278792578557,0.0248813210997,1,1.0,1.0,0.201152812224,0,0.0,0.0,0.246604156758,0.246418160956,0.131927946352,0.378346107308,0.114490214604,nan,nan,0.0,0.0,0.0,nan,nan,176.579012926,490.369761977,490.570914789,490.869835104,nan,nan
0,293,4422,6,1,86,60,1.0,-0.21659106269,-0.625617802914,1,1.0,1.0,0.200987741817,0,0.0,0.0,0.214456221865,0.246259335171,0.131723486864,0.377982822035,0.114535848307,nan,nan,0.0,0.0,0.0,nan,nan,176.579012926,491.369894261,491.570882003,491.869961971,nan,nan
0,294,4423,6,1,377,265,-0.121259861678,0.478700828387,-0.143695900877,1,1.0,1.0,0.192764163017,0,0.0,0.0,0.198301572353,0.246101042887,0.131520150463,0.37762119335,0.114580892424,nan,nan,0.0,0.0,0.0,nan,nan,176.579012926,492.370057906,492.562822069,492.870095396,nan,nan
0,295,4424,6,0,79,55,1.0,-0.184296021705,-0.724170777997,0,1.0,0.0,0.136591518298,0,0.0,0.0,0.176781141044,0.2459152001,0.131328433729,0.377243633829,0.114586766371,nan,nan,0.0,0.0,0.0,nan,nan,176.579012926,493.370192756,493.506784274,493.870223689,nan,nan
0,296,4425,6,1,296,208,0.0772713571413,0.386205321608,0.550001308524,1,1.0,1.0,0.208475488937,0,0.0,0.0,0.179277056751,0.245535603982,0.131257861837,0.376793465819,0.114277742145,nan,nan,0.0,0.0,0.0,nan,nan,176.579012926,494.370298526,494.578774015,494.870326608,nan,nan
0,297,4426,6,1,82,57,1.0,-0.198479155091,-0.679872484948,1,1.0,1.0,0.224323946051,0,0.0,0.0,0.189796984429,0.24540736829,0.131048646141,0.376456014431,0.114358722149,nan,nan,0.0,0.0,0.0,nan,nan,176.579012926,495.370466733,495.594790679,495.870461744,nan,nan
0,298,4427,6,0,352,247,-0.17544712699,0.470851603012,0.118673592819,0,1.0,0.0,0.232117600739,0,0.0,0.0,0.221639011909,0.245334666834,0.130828343052,0.376163009886,0.114506323782,nan,nan,0.0,0.0,0.0,nan,nan,176.579012926,496.370591034,496.602708635,496.870627669,nan,nan
0,299,4428,6,1,433,304,0.206536295144,0.436163724167,-1.0,1,1.0,1.0,0.199993043672,0,0.0,0.0,0.218811530154,0.245289247363,0.130605648941,0.375894896304,0.114683598422,nan,nan,0.0,0.0,0.0,nan,nan,176.579012926,497.3707122,497.570705244,497.870728023,nan,nan
0,300,4429,6,1,365,256,-0.157962026257,0.477016591838,-0.0139196855225,1,1.0,1.0,0.239811187144,0,0.0,0.0,0.223973943852,0.245134123378,0.13040866825,0.375542791627,0.114725455128,nan,nan,0.0,0.0,0.0,nan,nan,176.579012926,498.370847905,498.610659092,498.870856031,nan,nan
0,301,4430,6,1,63,44,1.0,-0.102744642793,-1.0,1,1.0,1.0,0.255671617808,0,0.0,0.0,0.231825282875,0.24511595636,0.130186307785,0.375302264145,0.114929648574,nan,nan,0.0,0.0,0.0,nan,nan,176.579012926,499.370975913,499.626647531,499.870990596,nan,nan
0,302,4431,6,1,483,339,0.606025706087,0.319314454546,-1.0,1,1.0,1.0,0.247590871993,0,0.0,0.0,0.247691225649,0.24515185997,0.129966166978,0.375118026948,0.115185692993,nan,nan,0.0,0.0,0.0,nan,nan,176.579012926,500.371081969,500.618672841,500.871143692,nan,nan
0,303,4432,6,1,237,166,0.686387300223,0.174031846447,0.636349816437,1,1.0,1.0,0.255342332646,0,0.0,0.0,0.252868274149,0.245160127808,0.12974577579,0.374905903597,0.115414352018,nan,nan,0.0,0.0,0.0,nan,nan,176.579012926,501.371248179,501.626590512,501.871266853,nan,nan
0,304,4433,6,1,145,101,1.0,-0.281667413287,0.0150551701241,1,1.0,1.0,0.255188951269,0,0.0,0.0,0.252707385303,0.245194527148,0.129527772718,0.374722299866,0.11566675443,nan,nan,0.0,0.0,0.0,nan,nan,176.579012926,502.371351099,502.62654005,502.871425366,nan,nan
0,305,4434,6,0,90,63,1.0,-0.233635786423,-0.574971871003,0,1.0,0.0,0.247026953148,0,0.0,0.0,0.252519412354,0.245228178408,0.129310824712,0.37453900312,0.115917353696,nan,nan,0.0,0.0,0.0,nan,nan,176.579012926,503.371514173,503.618541127,503.871546532,nan,nan
0,306,4435,6,1,177,124,1.0,-0.145192147526,0.306921212481,1,1.0,1.0,0.214902681299,0,0.0,0.0,0.239039528572,0.245234214565,0.12909371983,0.374327934395,0.116140494735,nan,nan,0.0,0.0,0.0,nan,nan,176.579012926,504.371605689,504.58650837,504.871657719,nan,nan
0,307,4436,6,1,287,201,0.159501648714,0.36255249221,0.590751920292,1,1.0,1.0,0.238701595459,0,0.0,0.0,0.233543743302,0.24513277131,0.128889560174,0.374022331484,0.116243211135,nan,nan,0.0,0.0,0.0,nan,nan,176.579012926,505.371773325,505.610474921,505.871791714,nan,nan
0,308,4437,6,1,469,329,0.489482198204,0.360453357602,-1.0,1,1.0,1.0,0.190588884521,0,0.0,0.0,0.21473105376,0.245111334057,0.12867509886,0.373786432917,0.116436235197,nan,nan,0.0,0.0,0.0,nan,nan,176.579012926,506.371883657,506.562472542,506.871940249,nan,nan
0,309,4438,6,1,387,272,-0.0787219327085,0.477231755363,-0.256974454483,1,1.0,1.0,0.198430435499,0,0.0,0.0,0.20924030516,0.244930196351,0.128499481512,0.373429677863,0.116430714838,nan,nan,0.0,0.0,0.0,nan,nan,176.579012926,507.372035043,507.570465478,507.87207795,nan,nan
0,310,4439,6,1,20,14,1.0,0.121558187834,-1.0,1,1.0,1.0,0.158220571,0,0.0,0.0,0.182413297007,0.244776223633,0.128314367289,0.373090590921,0.116461856344,nan,nan,0.0,0.0,0.0,nan,nan,176.579012926,508.372167042,508.530387613,508.872177163,nan,nan
0,311,4440,6,1,433,304,0.206536295144,0.436163724167,-1.0,1,1.0,1.0,0.206109196646,0,0.0,0.0,0.187586734382,0.244490561413,0.128198605266,0.372689166679,0.116291956147,nan,nan,0.0,0.0,0.0,nan,nan,176.579012926,509.372282791,509.578391988,509.872310873,nan,nan
0,312,4441,6,1,116,81,1.0,-0.306446923025,-0.282515442494,1,1.0,1.0,0.245952998754,0,0.0,0.0,0.2034275888,0.244364306923,0.128006445769,0.372370752693,0.116357861154,nan,nan,0.0,0.0,0.0,nan,nan,176.579012926,510.372419922,510.61837292,510.87245114,nan,nan
0,313,4442,6,1,435,305,0.221263830514,0.433027056876,-1.0,1,1.0,1.0,0.221793438774,0,0.0,0.0,0.224618544724,0.244369515749,0.127796459119,0.372165974868,0.11657305663,nan,nan,0.0,0.0,0.0,nan,nan,176.579012926,511.372566746,511.594360185,511.872575726,nan,nan
0,314,4443,6,1,379,266,-0.113535935895,0.478614986251,-0.165970515924,1,1.0,1.0,0.229650954949,0,0.0,0.0,0.232465797492,0.24429573772,0.127593976355,0.371889714075,0.116701761364,nan,nan,0.0,0.0,0.0,nan,nan,176.579012926,512.372696179,512.602347134,512.872737091,nan,nan
0,315,4444,6,1,510,358,0.830554458933,0.220436700166,-1.0,1,1.0,1.0,0.293450188125,0,0.0,0.0,0.248298193949,0.244248034844,0.127388732167,0.371636767012,0.116859302677,nan,nan,0.0,0.0,0.0,nan,nan,176.579012926,513.372809647,513.666259835,513.872835163,nan,nan
0,316,4445,6,1,268,188,0.35230222188,0.302367520405,0.645005310408,1,1.0,1.0,0.197365603875,0,0.0,0.0,0.240155582316,0.244407782095,0.127212560391,0.371620342486,0.117195221705,nan,nan,0.0,0.0,0.0,nan,nan,176.579012926,514.372928532,514.570294136,514.872998808,nan,nan
0,317,4446,6,1,99,69,1.0,-0.267176270739,-0.468793303331,1,1.0,1.0,0.237127868459,0,0.0,0.0,0.24264788682,0.244255542036,0.127034647891,0.371290189928,0.117220894145,nan,nan,0.0,0.0,0.0,nan,nan,176.579012926,515.37308733,515.610215199,515.873123395,nan,nan
0,318,4447,6,1,404,284,0.0124894593597,0.468746268022,-0.463349101315,1,1.0,1.0,0.212972585112,0,0.0,0.0,0.215822019149,0.244232549541,0.126830231783,0.371062781324,0.117402317758,nan,nan,0.0,0.0,0.0,nan,nan,176.579012926,516.373223036,516.586195621,516.873231161,nan,nan
0,319,4448,6,1,40,28,1.0,0.0201165467467,-1.0,1,1.0,1.0,0.212872231146,0,0.0,0.0,0.220990894906,0.244132035186,0.12663852688,0.370770562066,0.117493508306,nan,nan,0.0,0.0,0.0,nan,nan,176.579012926,517.373326811,517.586199042,517.873365441,nan,nan
0,320,4449,6,1,312,219,-0.0464483572634,0.420925197877,0.455573212045,1,1.0,1.0,0.228655686369,0,0.0,0.0,0.218166834209,0.244031843506,0.126447763004,0.370479606511,0.117584080502,nan,nan,0.0,0.0,0.0,nan,nan,176.579012926,518.373485609,518.602141295,518.873526805,nan,nan
0,321,4450,6,1,116,81,1.0,-0.306446923025,-0.282515442494,1,1.0,1.0,0.228490045993,0,0.0,0.0,0.223339321169,0.243982718404,0.126248590195,0.370231308599,0.117734128208,nan,nan,0.0,0.0,0.0,nan,nan,176.579012926,519.373628441,519.602118487,519.873627444,nan,nan
0,322,4451,6,1,383,269,-0.0968787136249,0.478131214543,-0.211081409456,1,1.0,1.0,0.26834952808,0,0.0,0.0,0.241831753481,0.243933378682,0.126050419611,0.369983798293,0.117882959071,nan,nan,0.0,0.0,0.0,nan,nan,176.579012926,520.373741624,520.642091152,520.873767711,nan,nan
0,323,4452,6,1,207,145,0.985653507947,0.0195431921708,0.51699622314,1,1.0,1.0,0.212240174646,0,0.0,0.0,0.236359916239,0.244010890268,0.125857675438,0.369868565706,0.118153214829,nan,nan,0.0,0.0,0.0,nan,nan,176.579012926,521.373865071,521.586105245,521.873926509,nan,nan
0,324,4453,6,1,7,4,0.9030914636,0.181853060355,-1.0,1,1.0,1.0,0.308049071813,0,0.0,0.0,0.262879591513,0.243910350029,0.125671044886,0.369581394914,0.118239305143,nan,nan,0.0,0.0,0.0,nan,nan,176.579012926,522.373984526,522.682033597,522.87403513,nan,nan
0,325,4454,6,1,362,254,-0.164239727892,0.476000155386,0.0174578511848,1,1.0,1.0,0.283910893835,0,0.0,0.0,0.268066713431,0.244112680381,0.125524208577,0.369636888958,0.118588471805,nan,nan,0.0,0.0,0.0,nan,nan,176.579012926,523.374110823,523.658021717,523.874190792,nan,nan
0,326,4455,6,1,59,41,1.0,-0.0814409933332,-1.0,1,1.0,1.0,0.283703344408,0,0.0,0.0,0.291887770019,0.244237831996,0.125346495318,0.369584327314,0.118891336677,nan,nan,0.0,0.0,0.0,nan,nan,176.579012926,524.374277319,524.657980663,524.874285444,nan,nan
0,327,4456,6,1,207,145,0.985653507947,0.0195431921708,0.51699622314,1,1.0,1.0,0.235515368404,0,0.0,0.0,0.267709868882,0.244361548336,0.12516931731,0.369530865646,0.119192231025,nan,nan,0.0,0.0,0.0,nan,nan,176.579012926,525.374425568,525.609940937,525.874450799,nan,nan
0,328,4457,6,1,506,355,0.797774742377,0.236703125255,-1.0,1,1.0,1.0,0.203440988204,0,0.0,0.0,0.240886567005,0.244333904023,0.12497456255,0.369308466573,0.119359341473,nan,nan,0.0,0.0,0.0,nan,nan,176.579012926,526.374510527,526.577951515,526.87455771,nan,nan
0,329,4458,6,1,1,0,0.854939129564,0.207877072944,-1.0,1,1.0,1.0,0.371252170764,0,0.0,0.0,0.270069509124,0.244206511762,0.124800554059,0.369007065821,0.119405957703,nan,nan,0.0,0.0,0.0,nan,nan,176.579012926,527.374642811,527.745894982,527.87467802,nan,nan
0,330,4459,6,1,258,181,0.459642287315,0.26499291187,0.655490062901,1,1.0,1.0,0.259095614543,0,0.0,0.0,0.27792959117,0.244601063498,0.124806965305,0.369408028804,0.119794098193,nan,nan,0.0,0.0,0.0,nan,nan,176.579012926,528.374770819,528.633866434,528.874824274,nan,nan
0,331,4500,6,1,359,252,-0.169222339917,0.474741883077,0.0483828026834,1,1.0,1.0,0.242947522318,0,0.0,0.0,0.291098435875,0.244645938269,0.12461621762,0.369262155889,0.120029720649,nan,nan,0.0,0.0,0.0,nan,nan,176.579012926,529.374902818,529.61785034,529.874948006,nan,nan
0,332,4501,6,0,487,342,0.639529740128,0.306295026098,-1.0,0,1.0,0.0,0.370749262162,0,0.0,0.0,0.290930799674,0.244640696245,0.124423795693,0.369064491938,0.120216900551,nan,nan,0.0,0.0,0.0,nan,nan,176.579012926,530.375073305,530.745822567,530.875102527,nan,nan
0,333,4502,6,1,287,201,0.159501648714,0.36255249221,0.590751920292,1,1.0,1.0,0.210580918938,0,0.0,0.0,0.274759234472,0.245028722601,0.124428409566,0.369457132167,0.120600313036,nan,nan,0.0,0.0,0.0,nan,nan,176.579012926,531.375184207,531.585765126,531.875217991,nan,nan
0,334,4503,6,1,463,325,0.440238315199,0.376011795327,-1.0,1,1.0,1.0,0.282479144633,0,0.0,0.0,0.287936441911,0.244923054492,0.124252025584,0.369175080076,0.120671028908,nan,nan,0.0,0.0,0.0,nan,nan,176.579012926,532.375321623,532.657800768,532.875358828,nan,nan
0,335,4504,6,1,367,258,-0.15309091083,0.477560897992,-0.0350816338538,1,1.0,1.0,0.386306066532,0,0.0,0.0,0.293122043367,0.245037904921,0.124079221728,0.369117126648,0.120958683193,nan,nan,0.0,0.0,0.0,nan,nan,176.579012926,533.375445925,533.761751991,533.875474577,nan,nan
0,336,4505,6,1,305,214,0.00361192545304,0.406859252708,0.500196907155,1,1.0,1.0,0.314135859953,0,0.0,0.0,0.327640357039,0.245468600535,0.124134497124,0.36960309766,0.121334103411,nan,nan,0.0,0.0,0.0,nan,nan,176.579012926,534.375575358,534.689711218,534.875610853,nan,nan
0,337,4506,6,1,471,331,0.506014005179,0.354993781952,-1.0,1,1.0,1.0,0.345966768684,0,0.0,0.0,0.34880289839,0.245677315609,0.12400332538,0.36968064099,0.121673990229,nan,nan,0.0,0.0,0.0,nan,nan,176.579012926,535.375709923,535.721676692,535.875740571,nan,nan
0,338,4507,6,1,198,139,1.0,-0.0302354974571,0.462326941081,1,1.0,1.0,0.305811357452,0,0.0,0.0,0.321971328696,0.245981223043,0.12393794664,0.369919169683,0.122043276403,nan,nan,0.0,0.0,0.0,nan,nan,176.579012926,536.375845914,536.681657271,536.875876562,nan,nan
0,339,4508,6,1,245,172,0.600577697281,0.210610106048,0.650172825369,1,1.0,1.0,0.241681698244,0,0.0,0.0,0.29781994146,0.246161978736,0.123794143204,0.36995612194,0.122367835533,nan,nan,0.0,0.0,0.0,nan,nan,176.579012926,537.375957957,537.617639655,537.876031369,nan,nan
0,340,4509,6,1,29,20,1.0,0.0770173926463,-1.0,1,1.0,1.0,0.23355904338,0,0.0,0.0,0.260350699692,0.246148483915,0.12360780947,0.369756293385,0.122540674446,nan,nan,0.0,0.0,0.0,nan,nan,176.579012926,538.37611818,538.609677223,538.8761551,nan,nan
0,341,4510,6,1,499,350,0.739831889234,0.263827757734,-1.0,1,1.0,1.0,0.065379232401,0,0.0,0.0,0.180206658008,0.246110677788,0.123423994978,0.369534672766,0.12268668281,nan,nan,0.0,0.0,0.0,nan,nan,176.579012926,539.376230508,539.44160974,539.876291091,nan,nan
0,342,4511,6,1,398,279,-0.0220377755791,0.472608796233,-0.387943383198,1,1.0,1.0,0.0972392212134,0,0.0,0.0,0.132059165665,0.245569565676,0.123634042557,0.369203608233,0.121935523119,nan,nan,0.0,0.0,0.0,nan,nan,176.579012926,540.376350818,540.473590039,540.876425371,nan,nan
0,343,4512,6,1,190,133,1.0,-0.0746884387243,0.407399635172,1,1.0,1.0,0.217071972555,0,0.0,0.0,0.12656347539,0.245126788528,0.123714306872,0.3688410954,0.121412481657,nan,nan,0.0,0.0,0.0,nan,nan,176.579012926,541.376500208,541.593572181,541.876525439,nan,nan
0,344,4513,6,1,315,221,-0.0657111424032,0.426434809442,0.434956515233,1,1.0,1.0,0.239135225769,0,0.0,0.0,0.184482139846,0.245043292052,0.123539523847,0.368582815899,0.121503768205,nan,nan,0.0,0.0,0.0,nan,nan,176.579012926,542.378382978,542.617518204,542.876659719,nan,nan
0,345,4514,6,1,25,17,1.0,0.0970682892709,-1.0,1,1.0,1.0,0.216406844789,0,0.0,0.0,0.224204681038,0.245025760698,0.123356513189,0.368382273887,0.121669247509,nan,nan,0.0,0.0,0.0,nan,nan,176.579012926,543.385121495,543.60152834,543.88512962,nan,nan
0,346,4515,6,1,331,232,-0.143297839787,0.450801753776,0.311166711333,1,1.0,1.0,0.240252514835,0,0.0,0.0,0.231931528465,0.244941089349,0.123183704986,0.368124794335,0.121757384363,nan,nan,0.0,0.0,0.0,nan,nan,176.579012926,544.385274591,544.625527106,544.885264755,nan,nan
0,347,4516,6,1,258,181,0.459642287315,0.26499291187,0.655490062901,1,1.0,1.0,0.184080725303,0,0.0,0.0,0.213580028309,0.244927258746,0.123002146739,0.367929405485,0.121925112007,nan,nan,0.0,0.0,0.0,nan,nan,176.579012926,545.385347005,545.569427731,545.885418137,nan,nan
0,348,4517,6,0,3,2,0.871087178923,0.199335109687,-1.0,0,1.0,0.0,0.199905804591,0,0.0,0.0,0.208079681577,0.244748298353,0.122865318878,0.367613617231,0.121882979475,nan,nan,0.0,0.0,0.0,nan,nan,176.579012926,546.385513786,546.585419591,546.88554586,nan,nan
0,349,4518,6,1,315,221,-0.0657111424032,0.426434809442,0.434956515233,1,1.0,1.0,0.1837913536,0,0.0,0.0,0.189259294498,0.244616795439,0.122708992117,0.367325787556,0.121907803322,nan,nan,0.0,0.0,0.0,nan,nan,176.579012926,547.38564493,547.569436284,547.885679854,nan,nan
0,350,4519,6,0,94,66,1.0,-0.249439013202,-0.526745155233,0,1.0,0.0,0.191585008288,0,0.0,0.0,0.19176072216,0.24443894327,0.122573468922,0.367012412192,0.121865474348,nan,nan,0.0,0.0,0.0,nan,nan,176.579012926,548.3857775,548.577362508,548.885812139,nan,nan
0,351,4520,6,1,429,301,0.177531820842,0.442080780324,-0.901885199234,1,1.0,1.0,0.0954476811457,0,0.0,0.0,0.156941347678,0.244284850165,0.122427829648,0.366712679813,0.121857020517,nan,nan,0.0,0.0,0.0,nan,nan,176.579012926,549.385906648,549.481354329,549.885945278,nan,nan
0,352,4521,6,0,489,343,0.656284860842,0.299572439858,-1.0,0,1.0,0.0,0.271292853635,0,0.0,0.0,0.186108514356,0.243852183976,0.122512087765,0.366364271741,0.121340096211,nan,nan,0.0,0.0,0.0,nan,nan,176.579012926,550.386024107,550.657316961,550.886074712,nan,nan
0,353,4522,6,1,291,204,0.122027637739,0.373441943191,0.573791926984,1,1.0,1.0,0.23113858304,0,0.0,0.0,0.199293039273,0.243931722149,0.122343299537,0.366275021686,0.121588422612,nan,nan,0.0,0.0,0.0,nan,nan,176.579012926,551.386144703,551.617283286,551.886206141,nan,nan
0,354,4523,6,0,171,120,1.0,-0.176011872558,0.256450910142,0,0.0,1.0,0.454959620722,0,0.0,0.0,0.319130352465,0.243894747759,0.122168305283,0.366063053041,0.121726442476,nan,nan,0.0,0.0,0.0,nan,nan,176.579012926,552.386304926,552.841264547,552.886332438,nan,nan
0,355,4524,6,1,328,230,-0.132159558243,0.44685796506,0.336046158271,1,1.0,1.0,0.286844811402,0,0.0,0.0,0.324314338388,0.244503003877,0.122515690994,0.367018694871,0.121987312882,nan,nan,0.0,0.0,0.0,nan,nan,176.579012926,553.386399578,553.673244389,553.886474415,nan,nan
0,356,4525,6,1,465,326,0.456588679398,0.37096152752,-1.0,1,1.0,1.0,0.206652873894,0,0.0,0.0,0.316152435339,0.244624675737,0.122360529121,0.366985204858,0.122264146616,nan,nan,0.0,0.0,0.0,nan,nan,176.579012926,554.386547542,554.593200416,554.886571633,nan,nan
0,357,4526,6,1,97,68,1.0,-0.260369742894,-0.491718830742,1,1.0,1.0,0.22249306296,0,0.0,0.0,0.238663582752,0.244515874013,0.12220195845,0.366717832463,0.122313915563,nan,nan,0.0,0.0,0.0,nan,nan,176.579012926,555.386676691,555.609169754,555.886714466,nan,nan
0,358,4527,6,0,257,180,0.470472903111,0.261039853404,0.655841377839,0,1.0,0.0,0.238332681824,0,0.0,0.0,0.222492872893,0.244452951696,0.122032920933,0.366485872628,0.122420030763,nan,nan,0.0,0.0,0.0,nan,nan,176.579012926,556.386827221,556.625159903,556.886863571,nan,nan
0,359,4528,6,1,485,341,0.622774561467,0.312875618285,-1.0,1,1.0,1.0,0.182189687155,0,0.0,0.0,0.214338477313,0.244435515029,0.121859397495,0.366294912524,0.122576117534,nan,nan,0.0,0.0,0.0,nan,nan,176.579012926,557.386939834,557.569129521,557.886999846,nan,nan
0,360,4529,6,1,104,73,1.0,-0.282351481576,-0.412644567278,1,1.0,1.0,0.222004979383,0,0.0,0.0,0.214175782787,0.244258680291,0.121731269721,0.365989950012,0.12252741057,nan,nan,0.0,0.0,0.0,nan,nan,176.579012926,558.387092645,558.609097624,558.887123293,nan,nan
0,361,4530,6,1,275,193,0.279002393219,0.326185254474,0.630178474337,1,1.0,1.0,0.25385584496,0,0.0,0.0,0.219350170499,0.244195638645,0.12156447756,0.365760116205,0.122631161086,nan,nan,0.0,0.0,0.0,nan,nan,176.579012926,559.387203832,559.641059677,559.887258143,nan,nan
0,362,4531,6,1,201,141,1.0,-0.0135712615467,0.48142235136,1,1.0,1.0,0.293694515014,0,0.0,0.0,0.256518446452,0.244222927364,0.121393737612,0.365616664976,0.122829189752,nan,nan,0.0,0.0,0.0,nan,nan,176.579012926,560.387342389,560.681036904,560.887361347,nan,nan
0,363,4532,6,1,88,61,1.0,-0.225257592204,-0.599932847766,1,1.0,1.0,0.333535180893,0,0.0,0.0,0.293695180289,0.244362283949,0.121250992595,0.365613276544,0.123111291353,nan,nan,0.0,0.0,0.0,nan,nan,176.579012926,561.387485506,561.721020687,561.887524137,nan,nan
0,364,4533,6,1,507,356,0.805995650865,0.232688349973,-1.0,1,1.0,1.0,0.365380629431,0,0.0,0.0,0.330870108446,0.244612769614,0.121172520791,0.365785290405,0.123440248824,nan,nan,0.0,0.0,0.0,nan,nan,176.579012926,562.387617506,562.752998135,562.887626771,nan,nan
0,365,4534,6,1,151,106,1.0,-0.262720288689,0.0734626651272,1,1.0,1.0,0.245248242514,0,0.0,0.0,0.314721350946,0.244951054936,0.121170916962,0.366121971898,0.123780137974,nan,nan,0.0,0.0,0.0,nan,nan,176.579012926,563.387713583,563.632961825,563.88775535,nan,nan
0,366,4535,6,1,473,332,0.522594813828,0.349396171415,-1.0,1,1.0,1.0,0.213167305104,0,0.0,0.0,0.274598725683,0.244951885069,0.121001566509,0.365953451578,0.12395031856,nan,nan,0.0,0.0,0.0,nan,nan,176.579012926,564.387844727,564.601012032,564.887928688,nan,nan
0,367,4536,6,1,40,28,1.0,0.0201165467467,-1.0,1,1.0,1.0,0.252935841912,0,0.0,0.0,0.237117129844,0.244863348634,0.120844534699,0.365707883333,0.124018813935,nan,nan,0.0,0.0,0.0,nan,nan,176.579012926,565.387977581,565.640913423,565.888052704,nan,nan
0,368,4537,6,1,219,153,0.871627318206,0.0840881726889,0.576959667802,1,1.0,1.0,0.396756811067,0,0.0,0.0,0.287619986028,0.244885772227,0.120677326262,0.365563098489,0.124208445965,nan,nan,0.0,0.0,0.0,nan,nan,176.579012926,566.388146358,566.784903169,566.888163606,nan,nan
0,369,4538,6,1,412,289,0.0618891196837,0.462096609288,-0.571158935758,1,1.0,1.0,0.300623760326,0,0.0,0.0,0.316772137769,0.245306467625,0.120774131207,0.366080598832,0.124532336418,nan,nan,0.0,0.0,0.0,nan,nan,176.579012926,567.388239584,567.688863344,567.888324115,nan,nan
0,370,4539,6,1,95,66,1.0,-0.253175017597,-0.514975443931,1,1.0,1.0,0.236478991108,0,0.0,0.0,0.311286520834,0.245459277826,0.120642142584,0.36610142041,0.124817135242,nan,nan,0.0,0.0,0.0,nan,nan,176.579012926,568.388369873,568.624848864,568.88841278,nan,nan
0,371,4540,6,1,211,148,0.948675772315,0.0413606888024,0.538689155053,1,1.0,1.0,0.180292376783,0,0.0,0.0,0.239131709406,0.245434538744,0.120476773715,0.365911312459,0.124957765029,nan,nan,0.0,0.0,0.0,nan,nan,176.579012926,569.388514701,569.568807078,569.888547345,nan,nan
0,372,4541,6,1,428,300,0.170378320166,0.443486568519,-0.86866140055,1,1.0,1.0,0.172133799875,0,0.0,0.0,0.196301722589,0.245255576761,0.120359476268,0.365615053029,0.124896100493,nan,nan,0.0,0.0,0.0,nan,nan,176.579012926,570.388684903,570.560818703,570.888697305,nan,nan
0,373,4542,6,1,153,107,1.0,-0.255547855702,0.0926213922694,1,1.0,1.0,0.219962270465,0,0.0,0.0,0.190796149041,0.245055243125,0.120255242583,0.365310485708,0.124800000543,nan,nan,0.0,0.0,0.0,nan,nan,176.579012926,571.388794665,571.608756935,571.88880393,nan,nan
0,374,4543,6,1,306,215,-0.00395437407881,0.408974006242,0.494128827808,1,1.0,1.0,0.203862644499,0,0.0,0.0,0.198652904946,0.244986683091,0.120097990119,0.36508467321,0.124888692972,nan,nan,0.0,0.0,0.0,nan,nan,176.579012926,572.38889958,572.592762225,572.888939636,nan,nan
0,375,4544,6,1,430,302,0.184725017221,0.440645728776,-0.941904167281,1,1.0,1.0,0.131696429104,0,0.0,0.0,0.185173781356,0.24487462849,0.119953414491,0.364828042981,0.124921213999,nan,nan,0.0,0.0,0.0,nan,nan,176.579012926,573.389059519,573.520755948,573.88910157,nan,nan
0,376,4545,6,1,151,106,1.0,-0.262720288689,0.0734626651272,1,1.0,1.0,0.195546694798,0,0.0,0.0,0.177035256134,0.244567079035,0.119935127865,0.3645022069,0.124631951169,nan,nan,0.0,0.0,0.0,nan,nan,176.579012926,574.389192658,574.584739353,574.889228153,nan,nan
0,377,4546,6,1,22,15,1.0,0.111842423158,-1.0,1,1.0,1.0,0.147367271595,0,0.0,0.0,0.158203465166,0.244434232465,0.11979961281,0.364233845275,0.124634619655,nan,nan,0.0,0.0,0.0,nan,nan,176.579012926,575.38931867,575.536685942,575.889363288,nan,nan
0,378,4547,6,1,166,116,1.0,-0.20036215083,0.21267421211,1,1.0,1.0,0.147171411198,0,0.0,0.0,0.16336179253,0.244171889328,0.119743702172,0.3639155915,0.124428187155,nan,nan,0.0,0.0,0.0,nan,nan,176.579012926,576.389463784,576.536635195,576.889496427,nan,nan
0,379,4548,6,1,290,203,0.131265381085,0.370776544741,0.578206616232,1,1.0,1.0,0.0910298416857,0,0.0,0.0,0.128522841493,0.243910432513,0.119687922917,0.36359835543,0.124222509596,nan,nan,0.0,0.0,0.0,nan,nan,176.579012926,577.389573831,577.480603673,577.88962358,nan,nan
0,380,4549,6,1,15,10,0.965734432428,0.145352784795,-1.0,1,1.0,1.0,0.0509003743064,0,1.0,0.0,0.0963672090632,0.243499463183,0.119788775064,0.363288238247,0.123710688119,nan,nan,0.0,0.0,0.0,nan,nan,176.579012926,578.389700983,578.440601358,578.889760141,nan,nan
0,381,4625,6,0,420,295,0.1146601879,0.45369410126,-0.695047497311,0,0.0,1.0,0.410697694169,1,0.0,0.0,0.184209303387,0.242983111738,0.120041920683,0.363025032422,0.122941191055,160.211859223,412.0,0.0618891196837,0.462096609288,-0.571158935758,-5.5243592233,33.5380700803,176.579012926,579.389814737,579.800512431,579.889887578,581.223374293,614.769435314
0,382,4626,6,1,317,222,-0.077772836126,0.429938605076,0.420733606481,1,nan,nan,nan,0,0.0,0.0,0.230799034238,0.243431546451,0.120193764766,0.363625311217,0.123237781685,nan,nan,0.0,0.0,0.0,nan,nan,176.579012926,615.977968393,nan,616.478031256,nan,nan
0,383,4627,6,1,219,153,0.871627318206,0.0840881726889,0.576959667802,1,1.0,1.0,0.149524589069,0,0.0,0.0,0.280111141619,0.243431546451,0.120193764766,0.363625311217,0.123237781685,nan,nan,0.0,0.0,0.0,nan,nan,176.579012926,616.978086992,617.127611581,617.478157839,nan,nan
0,384,4628,6,1,411,288,0.0555201669072,0.463022710015,-0.557054760163,1,1.0,1.0,0.453266153345,0,0.0,0.0,0.301395371207,0.243181127898,0.120131054745,0.363312182642,0.123050073153,nan,nan,0.0,0.0,0.0,nan,nan,176.579012926,617.978238378,618.431504532,618.478262183,nan,nan
0,385,4629,6,1,324,227,-0.114799643766,0.441158325109,0.368064040095,1,1.0,1.0,0.21311427746,0,0.0,0.0,0.271968339958,0.243739864668,0.120458120464,0.364197985132,0.123281744203,nan,nan,0.0,0.0,0.0,nan,nan,176.579012926,618.978384917,619.191499195,619.478399885,nan,nan
0,386,4630,6,1,447,314,0.312467642152,0.411646472288,-1.0,1,1.0,1.0,0.205009583384,0,0.0,0.0,0.290463338063,0.243658629688,0.120308568152,0.36396719784,0.123350061536,nan,nan,0.0,0.0,0.0,nan,nan,176.579012926,619.97848185,620.183491433,620.478528748,nan,nan
0,387,4631,6,1,281,197,0.218083397074,0.345068392493,0.612644422055,1,1.0,1.0,0.332855228102,0,0.0,0.0,0.250326362982,0.243556383534,0.120165724841,0.363722108375,0.123390658693,nan,nan,0.0,0.0,0.0,nan,nan,176.579012926,620.978614704,621.311469932,621.478658466,nan,nan
0,388,4632,6,0,62,43,1.0,-0.0974372467467,-1.0,0,0.0,1.0,0.524621842196,0,0.0,0.0,0.354162217894,0.243792000538,0.120094489872,0.36388649041,0.123697510667,nan,nan,0.0,0.0,0.0,nan,nan,176.579012926,621.978780915,622.503402757,622.478816694,nan,nan
0,389,4633,6,1,499,350,0.739831889234,0.263827757734,-1.0,1,1.0,1.0,0.292524483288,0,0.0,0.0,0.383333851195,0.244531026437,0.120796218593,0.36532724503,0.123734807844,nan,nan,0.0,0.0,0.0,nan,nan,176.579012926,622.978874426,623.271398909,623.478922465,nan,nan
0,390,4634,6,1,191,134,1.0,-0.0691479807067,0.414571651978,1,1.0,1.0,0.244395807153,0,0.0,0.0,0.353847377546,0.244656993516,0.12066257771,0.365319571225,0.123994415806,nan,nan,0.0,0.0,0.0,nan,nan,176.579012926,623.979003859,624.223399667,624.479080693,nan,nan
0,391,4635,6,1,458,322,0.399688045963,0.388050214986,-1.0,1,1.0,1.0,0.300210086862,0,0.0,0.0,0.279043459101,0.244656309782,0.120504539641,0.365160849423,0.12415177014,nan,nan,0.0,0.0,0.0,nan,nan,176.579012926,624.979159236,625.279369323,625.479184467,nan,nan
0,392,4636,6,0,178,125,1.0,-0.139919655122,0.315097826042,0,1.0,0.0,0.260056386003,0,0.0,0.0,0.268220760006,0.244801358808,0.120380506394,0.365181865202,0.124420852414,nan,nan,0.0,0.0,0.0,nan,nan,176.579012926,625.979302069,626.239358455,626.479335568,nan,nan
0,393,4637,6,1,35,24,1.0,0.0462653595507,-1.0,1,1.0,1.0,0.123887949623,0,0.0,0.0,0.228051474163,0.244841085441,0.120226172604,0.365067258045,0.124614912838,nan,nan,0.0,0.0,0.0,nan,nan,176.579012926,626.97940727,627.103295219,627.47947498,nan,nan
