block,trial,time,setsize,freqtrials,trials_colorind,trials_colordeg,colorrgb0,colorrgb1,colorrgb2,correct_response,actual_response,acc,rts,probe_trials,rt_triggered_fast,rt_triggered_slow,rt_strailingavg,rts_runningavg,rts_runningstd,rts_runningslowthresh,rts_runningfastthresh,wm_respdeg,wm_respind,wm_resprgb0,wm_resprgb1,wm_resprgb2,wm_respcolorminusorigcolor,wm_rts,time_blockstart,time_encarray_onset,time_response,time_encarray_offest,time_memprobe_onset,time_memprobe_offset
0,0,0915,6,1,173,121,1.0,-0.165909522591,0.273535192888,1,1.0,1.0,0.314666416496,0,nan,nan,nan,nan,nan,nan,nan,nan,nan,0.0,0.0,0.0,nan,nan,146.482976858,147.496278629,147.810945045,147.996334223,nan,nan
0,1,0916,6,1,124,87,1.0,-0.311577186586,-0.198226518473,1,1.0,1.0,0.312965242658,0,nan,nan,nan,nan,nan,nan,nan,nan,nan,0.0,0.0,0.0,nan,nan,146.482976858,148.521976133,148.834941376,149.02146809,nan,nan
0,2,0917,6,1,467,328,0.473005185182,0.365775667588,-1.0,1,1.0,1.0,0.321035483852,0,nan,nan,nan,nan,nan,nan,nan,nan,nan,0.0,0.0,0.0,nan,nan,146.482976858,149.529894988,149.850930471,150.029938607,nan,nan
0,3,0918,6,1,333,234,-0.149813480994,0.453275949072,0.294183738108,1,1.0,1.0,0.279213747941,0,nan,nan,nan,nan,nan,nan,nan,nan,nan,0.0,0.0,0.0,nan,nan,146.482976858,150.571714728,150.850928476,151.071730978,nan,nan
0,4,0919,6,1,41,28,1.0,0.0148395037771,-1.0,1,1.0,1.0,0.29472901253,0,nan,nan,nan,nan,nan,nan,nan,nan,nan,0.0,0.0,0.0,nan,nan,146.482976858,151.580147327,151.874876339,152.080198644,nan,nan
0,5,0920,6,1,290,203,0.131265381085,0.370776544741,0.578206616232,1,1.0,1.0,0.374273929279,0,nan,nan,nan,nan,nan,nan,nan,nan,nan,0.0,0.0,0.0,nan,nan,146.482976858,152.588630388,152.962904318,153.088679425,nan,nan
0,6,0921,6,1,363,255,-0.162287729338,0.476365729747,0.00704812682028,1,1.0,1.0,0.301729284693,0,nan,nan,nan,nan,nan,nan,nan,nan,nan,0.0,0.0,0.0,nan,nan,146.482976858,153.597111739,153.898841024,154.097135687,nan,nan
0,7,0922,6,1,263,184,0.405698801511,0.284171736334,0.651829885785,1,1.0,1.0,0.285236992408,0,nan,nan,nan,nan,nan,nan,nan,nan,nan,0.0,0.0,0.0,nan,nan,146.482976858,154.605581686,154.890818679,155.105600788,nan,nan
0,8,0923,6,1,388,272,-0.0739633693698,0.476941921698,-0.268577162136,1,1.0,1.0,0.236828090623,0,nan,nan,nan,nan,nan,nan,nan,nan,nan,0.0,0.0,0.0,nan,nan,146.482976858,155.614018847,155.850846938,156.114123763,nan,nan
0,9,0924,6,1,67,47,1.0,-0.12380466598,-1.0,1,1.0,1.0,0.212292641401,0,nan,nan,nan,nan,nan,nan,nan,nan,nan,0.0,0.0,0.0,nan,nan,146.482976858,156.622468268,156.834760909,157.122556647,nan,nan
0,10,0925,6,1,136,95,1.0,-0.301914900238,-0.074841205769,1,1.0,1.0,0.123140526004,0,nan,nan,nan,nan,nan,nan,nan,nan,nan,0.0,0.0,0.0,nan,nan,146.482976858,157.647638912,157.770779438,158.147704769,nan,nan
0,11,0926,6,0,463,325,0.440238315199,0.376011795327,-1.0,0,1.0,0.0,0.242632950656,0,0.0,0.0,nan,nan,nan,nan,nan,nan,nan,0.0,0.0,0.0,nan,nan,146.482976858,158.656107719,158.89874067,159.156158466,nan,nan
0,12,0927,6,1,159,111,1.0,-0.231765974528,0.149055008463,1,1.0,1.0,0.234176403377,0,nan,nan,nan,nan,nan,nan,nan,nan,nan,0.0,0.0,0.0,nan,nan,146.482976858,159.664549156,159.898725559,160.164586219,nan,nan
0,13,0928,6,0,39,27,1.0,0.0253789930673,-1.0,0,0.0,1.0,0.441679700278,0,nan,nan,nan,nan,nan,nan,nan,nan,nan,0.0,0.0,0.0,nan,nan,146.482976858,160.673002568,161.114682268,161.173081255,nan,nan
0,14,0929,6,1,300,210,0.0433537089178,0.395748422077,0.528951029102,1,1.0,1.0,0.281207716558,0,nan,nan,nan,nan,nan,nan,nan,nan,nan,0.0,0.0,0.0,nan,nan,146.482976858,161.681470519,161.962678235,162.181516135,nan,nan
0,15,0930,6,0,44,30,1.0,-0.00106984144607,-1.0,0,1.0,0.0,0.31271236157,0,0.0,0.0,nan,nan,nan,nan,nan,nan,nan,0.0,0.0,0.0,nan,nan,146.482976858,162.689933624,163.002645985,163.190004328,nan,nan
0,16,0931,6,1,275,193,0.279002393219,0.326185254474,0.630178474337,1,1.0,1.0,0.328225915786,0,nan,nan,nan,nan,nan,nan,nan,nan,nan,0.0,0.0,0.0,nan,nan,146.482976858,163.698406137,164.026632052,164.198474275,nan,nan
0,17,0932,6,1,381,267,-0.105403061426,0.478425078289,-0.188431136224,1,1.0,1.0,0.3520873948,0,nan,nan,nan,nan,nan,nan,nan,nan,nan,0.0,0.0,0.0,nan,nan,146.482976858,164.698538992,165.050626387,165.198572063,nan,nan
0,18,0933,6,1,265,186,0.384259149088,0.291568309415,0.649478858709,1,1.0,1.0,0.375584805384,0,nan,nan,nan,nan,nan,nan,nan,nan,nan,0.0,0.0,0.0,nan,nan,146.482976858,165.707000101,166.082584906,166.207059401,nan,nan
0,19,0934,6,1,311,218,-0.0397249783266,0.419020224334,0.462250212202,1,1.0,1.0,0.367082927376,0,nan,nan,nan,nan,nan,nan,nan,nan,nan,0.0,0.0,0.0,nan,nan,146.482976858,166.715486013,167.082568941,167.215511957,nan,nan
0,20,0935,6,1,507,356,0.805995650865,0.232688349973,-1.0,1,1.0,1.0,0.33461921569,0,nan,nan,nan,nan,nan,nan,nan,nan,nan,0.0,0.0,0.0,nan,nan,146.482976858,167.723908064,168.05852728,168.223962233,nan,nan
0,21,0936,6,1,221,155,0.851781464038,0.0945411604707,0.585422935822,1,1.0,1.0,0.310409917962,0,nan,nan,nan,nan,nan,nan,nan,nan,nan,0.0,0.0,0.0,nan,nan,146.482976858,168.724092237,169.034502155,169.224100505,nan,nan
0,22,0937,6,1,493,346,0.689769084006,0.285700779988,-1.0,1,1.0,1.0,0.309986833949,0,nan,nan,nan,nan,nan,nan,nan,nan,nan,0.0,0.0,0.0,nan,nan,146.482976858,169.732523411,170.042510245,170.232582141,nan,nan
0,23,0938,6,1,145,101,1.0,-0.281667413287,0.0150551701241,1,1.0,1.0,0.317818733864,0,nan,nan,nan,nan,nan,nan,nan,nan,nan,0.0,0.0,0.0,nan,nan,146.482976858,170.732678504,171.050497238,171.232681925,nan,nan
0,24,0939,6,1,374,262,-0.132039125116,0.478634076427,-0.110628443238,1,1.0,1.0,0.309655266348,0,nan,nan,nan,nan,nan,nan,nan,nan,nan,0.0,0.0,0.0,nan,nan,146.482976858,171.732780853,172.04243612,172.232813925,nan,nan
0,25,0940,6,1,204,143,1.0,0.00303256528985,0.499654420455,1,1.0,1.0,0.413549748715,0,nan,nan,nan,nan,nan,nan,nan,nan,nan,0.0,0.0,0.0,nan,nan,146.482976858,172.732890616,173.146440364,173.232955618,nan,nan
0,26,0941,6,0,300,210,0.0433537089178,0.395748422077,0.528951029102,0,0.0,1.0,0.469350645784,0,nan,nan,nan,nan,nan,nan,nan,nan,nan,0.0,0.0,0.0,nan,nan,146.482976858,173.733075644,174.20242629,174.233097026,nan,nan
0,27,0942,6,1,104,73,1.0,-0.282351481576,-0.412644567278,1,1.0,1.0,0.316897015553,0,nan,nan,nan,nan,nan,nan,nan,nan,nan,0.0,0.0,0.0,nan,nan,146.482976858,174.741511094,175.058408109,175.241539889,nan,nan
0,28,0943,6,1,452,317,0.351738073422,0.401406211611,-1.0,1,1.0,1.0,0.372445032001,0,nan,nan,nan,nan,nan,nan,nan,nan,nan,0.0,0.0,0.0,nan,nan,146.482976858,175.749965931,176.122410963,176.250008125,nan,nan
0,29,0944,6,1,293,206,0.103830259013,0.378659598285,0.564617056734,1,1.0,1.0,0.339961933903,0,nan,nan,nan,nan,nan,nan,nan,nan,nan,0.0,0.0,0.0,nan,nan,146.482976858,176.758408509,177.098370443,177.258462107,nan,nan
0,30,0945,6,1,423,297,0.135229581944,0.450080889006,-0.750039916123,1,1.0,1.0,0.339417683892,0,nan,nan,nan,nan,nan,nan,nan,nan,nan,0.0,0.0,0.0,nan,nan,146.482976858,177.766913238,178.106330921,178.266953436,nan,nan
0,31,0946,6,1,27,18,1.0,0.0870912575778,-1.0,1,1.0,1.0,0.314933837391,0,nan,nan,nan,nan,nan,nan,nan,nan,nan,0.0,0.0,0.0,nan,nan,146.482976858,178.775375772,179.09030961,179.275418252,nan,nan
0,32,0947,6,0,268,188,0.35230222188,0.302367520405,0.645005310408,0,0.0,1.0,0.450772584416,0,nan,nan,nan,nan,nan,nan,nan,nan,nan,0.0,0.0,0.0,nan,nan,146.482976858,179.77549979,180.226272374,180.275543409,nan,nan
0,33,0948,6,1,466,327,0.464789014893,0.368385601135,-1.0,1,1.0,1.0,0.248934164643,0,nan,nan,nan,nan,nan,nan,nan,nan,nan,0.0,0.0,0.0,nan,nan,146.482976858,180.817347184,181.066281348,181.317335495,nan,nan
0,34,0949,6,1,139,97,1.0,-0.296335611021,-0.0445992895203,1,1.0,1.0,0.28850905085,0,nan,nan,nan,nan,nan,nan,nan,nan,nan,0.0,0.0,0.0,nan,nan,146.482976858,181.825729891,182.114238942,182.325787196,nan,nan
0,35,0950,6,1,490,344,0.664660387652,0.296157848571,-1.0,1,1.0,1.0,0.304004928563,0,nan,nan,nan,nan,nan,nan,nan,nan,nan,0.0,0.0,0.0,nan,nan,146.482976858,182.834223216,183.138228145,183.334281376,nan,nan
0,36,0951,6,0,37,26,1.0,0.0358565504353,-1.0,0,0.0,1.0,0.463820049074,0,nan,nan,nan,nan,nan,nan,nan,nan,nan,0.0,0.0,0.0,nan,nan,146.482976858,183.834381445,184.298201494,184.334414231,nan,nan
0,37,0952,6,1,138,97,1.0,-0.29832987918,-0.0546508148191,1,1.0,1.0,0.247715660371,0,nan,nan,nan,nan,nan,nan,nan,nan,nan,0.0,0.0,0.0,nan,nan,146.482976858,184.834480659,185.082196319,185.334511164,nan,nan
0,38,0953,6,1,321,225,-0.0999433513493,0.43654647086,0.391174984052,1,1.0,1.0,0.255264743697,0,nan,nan,nan,nan,nan,nan,nan,nan,nan,0.0,0.0,0.0,nan,nan,146.482976858,185.842920671,186.098185414,186.342972273,nan,nan
0,39,0954,6,1,428,300,0.170378320166,0.443486568519,-0.86866140055,1,1.0,1.0,0.295069988351,0,nan,nan,nan,nan,nan,nan,nan,nan,nan,0.0,0.0,0.0,nan,nan,146.482976858,186.843068351,187.138138339,187.343107694,nan,nan
0,40,0955,6,1,491,345,0.673033477965,0.292707709811,-1.0,1,1.0,1.0,0.302569180261,0,nan,nan,nan,nan,nan,nan,nan,nan,nan,0.0,0.0,0.0,nan,nan,146.482976858,187.851547991,188.154117172,188.351579922,nan,nan
0,41,1000,6,1,123,86,1.0,-0.311441137266,-0.208672863777,1,1.0,1.0,0.310428734403,1,nan,nan,nan,nan,nan,nan,nan,-4.80560124347,135.0,1.0,-0.303502321856,-0.0849788702499,8.32122624347,2.10059134848,146.482976858,188.851683698,189.162112432,189.351713063,190.676870479,192.785483886
0,42,1001,6,1,398,279,-0.0220377755791,0.472608796233,-0.387943383198,1,1.0,1.0,0.327919436153,0,nan,nan,nan,nan,nan,nan,nan,nan,nan,0.0,0.0,0.0,nan,nan,146.482976858,193.994073689,194.321993125,194.494024367,nan,nan
0,43,1002,6,1,289,203,0.140592130943,0.368073254824,0.582505265782,1,1.0,1.0,0.36786950985,0,nan,nan,nan,nan,nan,nan,nan,nan,nan,0.0,0.0,0.0,nan,nan,146.482976858,194.994128142,195.361997652,195.494148669,nan,nan
0,44,1003,6,1,82,57,1.0,-0.198479155091,-0.679872484948,1,1.0,1.0,0.343722933903,0,nan,nan,nan,nan,nan,nan,nan,nan,nan,0.0,0.0,0.0,nan,nan,146.482976858,195.994243036,196.33796597,196.494303762,nan,nan
0,45,1004,6,1,418,293,0.101175887384,0.455961754156,-0.661679309199,1,1.0,1.0,0.319225687999,0,nan,nan,nan,nan,nan,nan,nan,nan,nan,0.0,0.0,0.0,nan,nan,146.482976858,197.002710987,197.321936675,197.502752041,nan,nan
0,46,1005,6,0,146,102,1.0,-0.278792578557,0.0248813210997,0,0.0,1.0,0.439067641739,0,nan,nan,nan,nan,nan,nan,nan,nan,nan,0.0,0.0,0.0,nan,nan,146.482976858,198.002839566,198.441907208,198.502903998,nan,nan
0,47,1006,6,1,373,262,-0.135407706169,0.478559568072,-0.0996974893599,1,1.0,1.0,0.262595728505,0,nan,nan,nan,nan,nan,nan,nan,nan,nan,0.0,0.0,0.0,nan,nan,146.482976858,199.011307233,199.273902961,199.511358265,nan,nan
0,48,1007,6,1,70,49,1.0,-0.13936984996,-0.906436913284,1,1.0,1.0,0.310402505565,0,nan,nan,nan,nan,nan,nan,nan,nan,nan,0.0,0.0,0.0,nan,nan,146.482976858,200.011445505,200.32184801,200.51150566,nan,nan
0,49,1012,6,1,454,319,0.367627362238,0.397084843583,-1.0,1,1.0,1.0,0.270279948134,1,nan,nan,nan,nan,nan,nan,nan,156.139824809,418.0,0.101175887384,0.455961754156,-0.661679309199,-25.3585748087,1.76722456329,146.482976858,201.01157893,201.281858878,201.511600597,202.836769988,204.612022313
0,50,1013,6,1,150,105,1.0,-0.266152531622,0.0638227105866,1,1.0,1.0,0.28492139047,0,nan,nan,nan,nan,nan,nan,nan,nan,nan,0.0,0.0,0.0,nan,nan,146.482976858,205.828852274,206.113773664,206.328891617,nan,nan
0,51,1014,6,1,431,303,0.191957257768,0.43918128748,-0.982298765802,1,1.0,1.0,0.316741637886,0,nan,nan,nan,nan,nan,nan,nan,nan,nan,0.0,0.0,0.0,nan,nan,146.482976858,206.828991686,207.145733324,207.329027609,nan,nan
0,52,1015,6,1,186,130,1.0,-0.0967386681424,0.377881386018,1,1.0,1.0,0.300599445123,0,nan,nan,nan,nan,nan,nan,nan,nan,nan,0.0,0.0,0.0,nan,nan,146.482976858,207.829121975,208.12972142,208.329163314,nan,nan
0,53,1016,6,1,251,176,0.535576518695,0.236509187076,0.655284151108,1,1.0,1.0,0.300462313462,0,nan,nan,nan,nan,nan,nan,nan,nan,nan,0.0,0.0,0.0,nan,nan,146.482976858,208.829238295,209.129700609,209.329293319,nan,nan
0,54,1017,6,1,169,118,1.0,-0.185917379452,0.239118302078,1,1.0,1.0,0.251958189066,0,nan,nan,nan,nan,nan,nan,nan,nan,nan,0.0,0.0,0.0,nan,nan,146.482976858,209.837711093,210.089669282,210.337743024,nan,nan
0,55,1018,6,1,377,265,-0.121259861678,0.478700828387,-0.143695900877,1,1.0,1.0,0.259806054179,0,nan,nan,nan,nan,nan,nan,nan,nan,nan,0.0,0.0,0.0,nan,nan,146.482976858,210.837839672,211.097645726,211.337874739,nan,nan
0,56,1019,6,1,21,14,1.0,0.116713997928,-1.0,1,1.0,1.0,0.315683642868,0,nan,nan,nan,nan,nan,nan,nan,nan,nan,0.0,0.0,0.0,nan,nan,146.482976858,211.837963974,212.153647617,212.338008449,nan,nan
0,57,1020,6,1,433,304,0.206536295144,0.436163724167,-1.0,1,1.0,1.0,0.291154466104,0,nan,nan,nan,nan,nan,nan,nan,nan,nan,0.0,0.0,0.0,nan,nan,146.482976858,212.846441334,213.1375958,213.346466422,nan,nan
0,58,1021,6,1,241,169,0.64365311028,0.192605941253,0.644254782112,1,1.0,1.0,0.299032837152,0,nan,nan,nan,nan,nan,nan,nan,nan,nan,0.0,0.0,0.0,nan,nan,146.482976858,213.846558508,214.145591346,214.346602984,nan,nan
0,59,1022,6,1,179,125,1.0,-0.13461441766,0.323204131591,1,1.0,1.0,0.265216055326,0,nan,nan,nan,nan,nan,nan,nan,nan,nan,0.0,0.0,0.0,nan,nan,146.482976858,214.88838338,215.153599435,215.388398775,nan,nan
0,60,1023,6,1,325,228,-0.119404900653,0.442631039184,0.360186421743,1,1.0,1.0,0.393066098914,0,nan,nan,nan,nan,nan,nan,nan,nan,nan,0.0,0.0,0.0,nan,nan,146.482976858,215.888484875,216.281550974,216.38852992,nan,nan
0,61,1024,6,1,490,344,0.664660387652,0.296157848571,-1.0,1,1.0,1.0,0.344917490147,0,nan,nan,nan,nan,nan,nan,nan,nan,nan,0.0,0.0,0.0,nan,nan,146.482976858,216.888623147,217.233540637,217.388666767,nan,nan
0,62,1025,6,1,309,217,-0.0258396312562,0.415106541901,0.475305697888,1,1.0,1.0,0.368748749141,0,nan,nan,nan,nan,nan,nan,nan,nan,nan,0.0,0.0,0.0,nan,nan,146.482976858,217.888746024,218.257494773,218.388791069,nan,nan
0,63,1026,6,1,190,133,1.0,-0.0746884387243,0.407399635172,1,1.0,1.0,0.424594121985,0,nan,nan,nan,nan,nan,nan,nan,nan,nan,0.0,0.0,0.0,nan,nan,146.482976858,218.888877453,219.313471575,219.388913376,nan,nan
0,64,1031,6,1,455,319,0.375608248681,0.394875365091,-1.0,1,1.0,1.0,0.392107317224,1,nan,nan,nan,nan,nan,nan,nan,145.400552025,433.0,0.206536295144,0.436163724167,-1.0,-15.3224270248,1.51726176869,146.482976858,219.897338563,220.28944588,220.397379046,221.722553568,223.247769258
0,65,1032,6,1,103,72,1.0,-0.279537473278,-0.423758835275,1,1.0,1.0,0.313096102327,0,nan,nan,nan,nan,nan,nan,nan,nan,nan,0.0,0.0,0.0,nan,nan,146.482976858,224.456275242,224.769371344,224.95632827,nan,nan
0,66,1033,6,1,336,236,-0.158211608236,0.456758111158,0.268135266647,1,1.0,1.0,0.360930248629,0,nan,nan,nan,nan,nan,nan,nan,nan,nan,0.0,0.0,0.0,nan,nan,146.482976858,225.456420926,225.817351175,225.956439458,nan,nan
0,67,1038,6,1,385,270,-0.0879796604702,0.477733444059,-0.233926720364,1,1.0,1.0,0.320797428023,1,nan,nan,nan,nan,nan,nan,nan,-159.353009175,355.0,-0.173737462994,0.472683863687,0.0888799762457,-21.350115825,1.89229947282,146.482976858,226.456527268,226.777324696,226.956566896,228.281738567,230.182006787
0,68,1039,6,1,440,309,0.258699398066,0.424657399123,-1.0,1,1.0,1.0,0.298685873859,0,nan,nan,nan,nan,nan,nan,nan,nan,nan,0.0,0.0,0.0,nan,nan,146.482976858,231.390517617,231.689203491,231.890545271,nan,nan
0,69,1040,6,1,506,355,0.797774742377,0.236703125255,-1.0,1,1.0,1.0,0.338558971416,0,nan,nan,nan,nan,nan,nan,nan,nan,nan,0.0,0.0,0.0,nan,nan,146.482976858,232.39064477,232.729203741,232.890694092,nan,nan
0,70,1041,6,1,271,190,0.320642857732,0.312811632898,0.639400143054,1,1.0,1.0,0.370423694141,0,nan,nan,nan,nan,nan,nan,nan,nan,nan,0.0,0.0,0.0,nan,nan,146.482976858,233.390772493,233.761196187,233.890833504,nan,nan
0,71,1042,6,1,50,35,1.0,-0.033148730948,-1.0,1,1.0,1.0,0.354274658952,0,nan,nan,nan,nan,nan,nan,nan,nan,nan,0.0,0.0,0.0,nan,nan,146.482976858,234.390895655,234.745170314,234.890924735,nan,nan
0,72,1043,6,1,116,81,1.0,-0.306446923025,-0.282515442494,1,1.0,1.0,0.297790954355,0,nan,nan,nan,nan,nan,nan,nan,nan,nan,0.0,0.0,0.0,nan,nan,146.482976858,235.399354483,235.697145438,235.89938898,nan,nan
0,73,1044,6,1,502,352,0.764740937618,0.25241357569,-1.0,1,1.0,1.0,0.305293282028,0,nan,nan,nan,nan,nan,nan,nan,nan,nan,0.0,0.0,0.0,nan,nan,146.482976858,236.407824431,236.713117713,236.907858357,nan,nan
0,74,1045,6,1,40,28,1.0,0.0201165467467,-1.0,1,1.0,1.0,0.313164525665,0,nan,nan,nan,nan,nan,nan,nan,nan,nan,0.0,0.0,0.0,nan,nan,146.482976858,237.407945312,237.721109837,237.908001761,nan,nan
0,75,1046,6,1,389,273,-0.0691208065164,0.476626077068,-0.280234315682,1,1.0,1.0,0.305008185562,0,nan,nan,nan,nan,nan,nan,nan,nan,nan,0.0,0.0,0.0,nan,nan,146.482976858,238.408077026,238.713085212,238.908122357,nan,nan
0,76,1047,6,1,110,77,1.0,-0.296722754836,-0.346921960777,1,1.0,1.0,0.272846391425,0,nan,nan,nan,nan,nan,nan,nan,nan,nan,0.0,0.0,0.0,nan,nan,146.482976858,239.408205035,239.681051427,239.9082478,nan,nan
0,77,1048,6,1,391,274,-0.0591907973189,0.475916278612,-0.303718712187,1,1.0,1.0,0.256713892333,0,nan,nan,nan,nan,nan,nan,nan,nan,nan,0.0,0.0,0.0,nan,nan,146.482976858,240.408335894,240.665049787,240.9083798,nan,nan
0,78,1049,6,1,120,84,1.0,-0.310161497659,-0.240162905937,1,1.0,1.0,0.264539519791,0,nan,nan,nan,nan,nan,nan,nan,nan,nan,0.0,0.0,0.0,nan,nan,146.482976858,241.408463333,241.673002853,241.908502391,nan,nan
0,79,1050,6,0,359,252,-0.169222339917,0.474741883077,0.0483828026834,0,1.0,0.0,0.280349574517,0,0.0,0.0,nan,nan,nan,nan,nan,nan,nan,0.0,0.0,0.0,nan,nan,146.482976858,242.408647221,242.688996795,242.908685994,nan,nan
0,80,1051,6,1,120,84,1.0,-0.310161497659,-0.240162905937,1,1.0,1.0,0.22392032342,0,0.0,0.0,0.256269805909,0.317627537466,0.058044469484,0.37567200695,0.259583067982,nan,nan,0.0,0.0,0.0,nan,nan,146.482976858,243.41707982,243.641000143,243.917131708,nan,nan
0,81,1052,6,1,48,33,1.0,-0.0224273256894,-1.0,1,1.0,1.0,0.303744635545,0,0.0,0.0,0.269338177827,0.31647065828,0.0586057626894,0.37507642097,0.257864895591,nan,nan,0.0,0.0,0.0,nan,nan,146.482976858,244.41719956,244.720944196,244.917248312,nan,nan
0,82,1053,6,1,418,293,0.101175887384,0.455961754156,-0.661679309199,1,1.0,1.0,0.335276934784,0,0.0,0.0,0.287647297916,0.316315462881,0.05826405888,0.374579521761,0.258051404001,nan,nan,0.0,0.0,0.0,nan,nan,146.482976858,245.42567692,245.760953855,245.925696877,nan,nan
0,83,1054,6,1,286,201,0.169078956243,0.359734776014,0.594698705761,1,1.0,1.0,0.287234952208,0,0.0,0.0,0.308752174179,0.31654391435,0.0579489442224,0.374492858572,0.258594970127,nan,nan,0.0,0.0,0.0,nan,nan,146.482976858,246.425802363,246.713037315,246.925848263,nan,nan
0,84,1055,6,1,169,118,1.0,-0.185917379452,0.239118302078,1,1.0,1.0,0.28664138075,0,0.0,0.0,0.303051089247,0.316194998134,0.0576906198757,0.373885618009,0.258504378258,nan,nan,0.0,0.0,0.0,nan,nan,146.482976858,247.434262617,247.720903997,247.934298539,nan,nan
0,85,1056,6,1,431,303,0.191957257768,0.43918128748,-0.982298765802,1,1.0,1.0,0.310489745345,0,0.0,0.0,0.294788692767,0.315847308517,0.0574387224412,0.373286030959,0.258408586076,nan,nan,0.0,0.0,0.0,nan,nan,146.482976858,248.434407731,248.744897476,248.93441828,nan,nan
0,86,1057,6,0,153,107,1.0,-0.255547855702,0.0926213922694,0,1.0,0.0,0.286298694089,0,0.0,0.0,0.294476606728,0.315785011271,0.0571066882771,0.372891699548,0.258678322994,nan,nan,0.0,0.0,0.0,nan,nan,146.482976858,249.434543152,249.720841846,249.934578504,nan,nan
0,87,1058,6,1,457,321,0.391639248186,0.390358177281,-1.0,1,1.0,1.0,0.197870153934,0,0.0,0.0,0.264886197789,0.315446088085,0.0568644688427,0.372310556928,0.258581619242,nan,nan,0.0,0.0,0.0,nan,nan,146.482976858,250.442989721,250.640859875,250.943045885,nan,nan
0,88,1059,6,1,290,203,0.131265381085,0.370776544741,0.578206616232,1,1.0,1.0,0.317693291698,0,0.0,0.0,0.267287379907,0.314109997924,0.0578975788768,0.372007576801,0.256212419048,nan,nan,0.0,0.0,0.0,nan,nan,146.482976858,251.443106611,251.760799902,251.943139397,nan,nan
0,89,1100,6,1,502,352,0.764740937618,0.25241357569,-1.0,1,1.0,1.0,0.389555413742,0,0.0,0.0,0.301706286458,0.314150259652,0.0575726316092,0.371722891261,0.256577628043,nan,nan,0.0,0.0,0.0,nan,nan,146.482976858,252.44323576,252.832791174,252.943296771,nan,nan
0,90,1101,6,1,187,131,1.0,-0.0912463489427,0.385383214542,1,1.0,1.0,0.309089634102,0,0.0,0.0,0.338779446514,0.314988094698,0.0577949309781,0.372783025676,0.257193163719,nan,nan,0.0,0.0,0.0,nan,nan,146.482976858,253.451682899,253.760772533,253.951734502,nan,nan
0,91,1102,6,1,40,28,1.0,0.0201165467467,-1.0,1,1.0,1.0,0.316908134613,0,0.0,0.0,0.338517727486,0.314923276449,0.0574797884897,0.372403064939,0.25744348796,nan,nan,0.0,0.0,0.0,nan,nan,146.482976858,254.451851106,254.768759241,254.95186194,nan,nan
0,92,1103,6,1,351,246,-0.175686286722,0.4701852659,0.128489978773,1,1.0,1.0,0.300787894055,0,0.0,0.0,0.308928554257,0.314944850995,0.057166915272,0.372111766267,0.257777935723,nan,nan,0.0,0.0,0.0,nan,nan,146.482976858,255.451953741,255.752741635,255.95199508,nan,nan
0,93,1104,6,1,247,173,0.578947625354,0.219392674348,0.6523805853,1,1.0,1.0,0.356626709457,0,0.0,0.0,0.324774246042,0.314792625651,0.0568774796165,0.371670105268,0.257915146035,nan,nan,0.0,0.0,0.0,nan,nan,146.482976858,256.452084886,256.808711595,256.95215559,nan,nan
0,94,1105,6,1,120,84,1.0,-0.310161497659,-0.240162905937,1,1.0,1.0,0.316488756333,0,0.0,0.0,0.324634453282,0.315237669096,0.0567366918994,0.371974360995,0.258500977196,nan,nan,0.0,0.0,0.0,nan,nan,146.482976858,257.452212895,257.768701651,257.952255659,nan,nan
0,95,1106,6,1,448,315,0.32026743599,0.409662251776,-1.0,1,1.0,1.0,0.308290221728,0,0.0,0.0,0.327135229173,0.315250838435,0.056437432172,0.371688270607,0.258813406263,nan,nan,0.0,0.0,0.0,nan,nan,146.482976858,258.452385664,258.760675885,258.952400488,nan,nan
0,96,1107,6,1,374,262,-0.132039125116,0.478634076427,-0.110628443238,1,1.0,1.0,0.268159396946,0,0.0,0.0,0.297646125002,0.315178332011,0.0561471654228,0.371325497434,0.259031166588,nan,nan,0.0,0.0,0.0,nan,nan,146.482976858,259.452486873,259.72064627,259.95252308,nan,nan
0,97,1108,6,1,464,326,0.448404880525,0.373503555275,-1.0,1,1.0,1.0,0.348015639,0,0.0,0.0,0.308155085891,0.314693600722,0.0560585473097,0.370752148032,0.258635053412,nan,nan,0.0,0.0,0.0,nan,nan,146.482976858,260.452625715,260.800641354,260.952669905,nan,nan
0,98,1109,6,0,216,151,0.900975005756,0.0682271079607,0.563426584804,0,0.0,1.0,0.44384529721,0,0.0,0.0,0.353340111052,0.315033621521,0.0558722502877,0.370905871808,0.259161371233,nan,nan,0.0,0.0,0.0,nan,nan,146.482976858,261.452768549,261.896613846,261.952800194,nan,nan
0,99,1110,6,1,27,18,1.0,0.0870912575778,-1.0,1,1.0,1.0,0.275715322699,0,0.0,0.0,0.35585875297,0.316334749558,0.0570621020749,0.373396851633,0.259272647483,nan,nan,0.0,0.0,0.0,nan,nan,146.482976858,262.452876315,262.728591638,262.952910812,nan,nan
0,100,1111,6,1,148,104,1.0,-0.272695592461,0.0444264621409,1,1.0,1.0,0.395570105407,0,0.0,0.0,0.371710241772,0.315928555289,0.0569197421188,0.372848297408,0.25900881317,nan,nan,0.0,0.0,0.0,nan,nan,146.482976858,263.452992065,263.84856217,263.953030268,nan,nan
0,101,1112,6,0,405,284,0.018463324075,0.468009379796,-0.476293327428,0,1.0,0.0,0.443408528809,0,0.0,0.0,0.371564652305,0.316717085488,0.0571835399208,0.373900625409,0.259533545568,nan,nan,0.0,0.0,0.0,nan,nan,146.482976858,264.45315571,264.896564239,264.95318536,nan,nan
0,102,1113,6,1,114,80,1.0,-0.303747463913,-0.303859371662,1,1.0,1.0,0.307309203316,0,0.0,0.0,0.382095945844,0.317959158462,0.0582556100823,0.376214768544,0.25970354838,nan,nan,0.0,0.0,0.0,nan,nan,146.482976858,265.453249507,265.76055871,265.953293982,nan,nan
0,103,1114,6,1,26,18,1.0,0.0920921692153,-1.0,1,1.0,1.0,0.363121218979,0,0.0,0.0,0.371279650368,0.317855760839,0.0579815306367,0.375837291476,0.259874230203,nan,nan,0.0,0.0,0.0,nan,nan,146.482976858,266.453382078,266.816503297,266.953426267,nan,nan
0,104,1115,6,1,157,110,1.0,-0.240048375319,0.130425901556,1,1.0,1.0,0.402962101158,0,0.0,0.0,0.357797507818,0.318291005629,0.0578709292744,0.376161934904,0.260420076355,nan,nan,0.0,0.0,0.0,nan,nan,146.482976858,267.453516643,267.856478744,267.953548859,nan,nan
0,105,1116,6,1,505,355,0.789537956352,0.240683140511,-1.0,1,1.0,1.0,0.346798560582,0,0.0,0.0,0.370960626906,0.319097397015,0.0581788326508,0.377276229666,0.260918564364,nan,nan,0.0,0.0,0.0,nan,nan,146.482976858,268.453659762,268.800458322,268.953691978,nan,nan
0,106,1117,6,1,404,284,0.0124894593597,0.468746268022,-0.463349101315,1,1.0,1.0,0.410317318514,0,0.0,1.0,0.386692660085,0.319358728747,0.0579656416592,0.377324370406,0.261393087088,nan,nan,0.0,0.0,0.0,nan,nan,146.482976858,269.462126003,269.872443321,269.962169053,nan,nan
0,107,1122,6,1,74,52,1.0,-0.159715158178,-0.810443278181,1,1.0,1.0,0.345839208923,1,0.0,0.0,0.367651696006,0.320208809025,0.0583542034879,0.378563012513,0.261854605537,27.8304148425,88.0,1.0,-0.225257592204,-0.599932847766,10.1383351575,2.33392643044,146.482976858,270.470587967,270.816427176,270.970634153,272.295779025,274.637744335
0,108,1123,6,1,218,153,0.881467392804,0.0788246127756,0.572559633417,1,1.0,1.0,0.306049074046,0,0.0,0.0,0.354068533828,0.320446127543,0.0581352695232,0.378581397066,0.26231085802,nan,nan,0.0,0.0,0.0,nan,nan,146.482976858,275.846264574,276.152313648,276.346345541,nan,nan
0,109,1124,6,1,109,76,1.0,-0.294638327523,-0.357773695079,1,1.0,1.0,0.337908380199,0,0.0,0.0,0.329932221056,0.320314044483,0.0578842570457,0.378198301529,0.262429787437,nan,nan,0.0,0.0,0.0,nan,nan,146.482976858,276.846398569,277.184306949,277.346441334,nan,nan
0,110,1125,6,0,339,238,-0.164955840019,0.45996923152,0.241423096872,0,0.0,1.0,0.457699301187,0,0.0,0.0,0.367218918477,0.32047399299,0.0576447389981,0.378118731988,0.262829253992,nan,nan,0.0,0.0,0.0,nan,nan,146.482976858,277.846560219,278.30425952,278.346588729,nan,nan
0,111,1126,6,1,411,288,0.0555201669072,0.463022710015,-0.557054760163,1,1.0,1.0,0.289590423927,0,0.0,0.0,0.361732701771,0.321710257027,0.0588310982339,0.380541355261,0.262879158794,nan,nan,0.0,0.0,0.0,nan,nan,146.482976858,278.84666599,279.136256414,279.346716452,nan,nan
0,112,1127,6,0,463,325,0.440238315199,0.376011795327,-1.0,0,0.0,1.0,0.481418231968,0,0.0,0.0,0.409569319027,0.321423472803,0.0586457558042,0.380069228608,0.262777716999,nan,nan,0.0,0.0,0.0,nan,nan,146.482976858,279.846821653,280.328239885,280.346847027,nan,nan
0,113,1128,6,1,412,289,0.0618891196837,0.462096609288,-0.571158935758,1,1.0,1.0,0.273311954923,0,0.0,0.0,0.348106870273,0.322839355628,0.0602778340656,0.383117189693,0.262561521562,nan,nan,0.0,0.0,0.0,nan,nan,146.482976858,280.846924573,281.120236528,281.346951942,nan,nan
0,114,1129,6,0,253,177,0.513865899396,0.244839928328,0.655977188727,0,1.0,0.0,0.305096280295,0,0.0,0.0,0.353275489062,0.322404904744,0.0601903121246,0.382595216869,0.26221459262,nan,nan,0.0,0.0,0.0,nan,nan,146.482976858,281.847092495,282.152188776,282.347116443,nan,nan
0,115,1130,6,1,141,99,1.0,-0.291952736687,-0.024586852943,1,1.0,1.0,0.353006262332,0,0.0,0.0,0.310471499184,0.322254394967,0.0599495862234,0.38220398119,0.262304808743,nan,nan,0.0,0.0,0.0,nan,nan,146.482976858,282.847199692,283.200205954,283.347217938,nan,nan
0,116,1131,6,1,376,264,-0.124962824795,0.478704673615,-0.132627625282,1,1.0,1.0,0.368828576524,0,0.0,0.0,0.34231037305,0.322519497271,0.0597582851791,0.382277782451,0.262761212092,nan,nan,0.0,0.0,0.0,nan,nan,146.482976858,283.847314871,284.216143447,284.347351648,nan,nan
0,117,1132,6,1,478,336,0.56422249903,0.334793662244,-1.0,1,1.0,1.0,0.312691549771,0,0.0,0.0,0.344842129542,0.322915301368,0.0596548698132,0.382570171181,0.263260431554,nan,nan,0.0,0.0,0.0,nan,nan,146.482976858,284.847434612,285.160126161,285.347470249,nan,nan
0,118,1133,6,1,73,51,1.0,-0.1546788618,-0.830916872461,1,1.0,1.0,0.296205244493,0,0.0,0.0,0.325908456929,0.322828659405,0.0594089495558,0.382237608961,0.263419709849,nan,nan,0.0,0.0,0.0,nan,nan,146.482976858,285.855905414,286.152110659,286.355933924,nan,nan
0,119,1134,6,1,452,317,0.351738073422,0.401406211611,-1.0,1,1.0,1.0,0.368031729944,0,0.0,0.0,0.325642841402,0.322604933229,0.0592087034946,0.381813636724,0.263396229735,nan,nan,0.0,0.0,0.0,nan,nan,146.482976858,286.856044542,287.224076272,287.356067064,nan,nan
0,120,1135,6,1,70,49,1.0,-0.13936984996,-0.906436913284,1,1.0,1.0,0.327886649873,0,0.0,0.0,0.33070787477,0.322983489869,0.0591059215178,0.382089411386,0.263877568351,nan,nan,0.0,0.0,0.0,nan,nan,146.482976858,287.856179392,288.184066042,288.356208472,nan,nan
0,121,1136,6,1,456,320,0.383612429175,0.392633185378,-1.0,1,1.0,1.0,0.303414492868,0,0.0,0.0,0.333110957562,0.323024011852,0.0588628492266,0.381886861079,0.264161162625,nan,nan,0.0,0.0,0.0,nan,nan,146.482976858,288.864625676,289.168040169,289.364667586,nan,nan
0,122,1137,6,1,404,284,0.0124894593597,0.468746268022,-0.463349101315,1,1.0,1.0,0.342275211122,0,0.0,0.0,0.324525451288,0.32286327809,0.0586477689981,0.381511047088,0.264215509092,nan,nan,0.0,0.0,0.0,nan,nan,146.482976858,289.889769807,290.232045018,290.389801738,nan,nan
0,123,1138,6,1,155,108,1.0,-0.2479831371,0.111611878621,1,1.0,1.0,0.358135442715,0,0.0,0.0,0.334608382235,0.323021098684,0.0584348833737,0.381455982057,0.26458621531,nan,nan,0.0,0.0,0.0,nan,nan,146.482976858,290.88989753,291.248032973,291.389931742,nan,nan
0,124,1139,6,1,250,175,0.546428449327,0.232286661223,0.654747725831,1,1.0,1.0,0.413930352777,0,0.0,0.0,0.371447002205,0.323304278877,0.0582834599762,0.381587738854,0.265020818901,nan,nan,0.0,0.0,0.0,nan,nan,146.482976858,291.89004122,292.303971572,292.390068874,nan,nan
0,125,1140,6,0,78,54,1.0,-0.179467652321,-0.739907630878,0,0.0,1.0,0.429777470417,0,0.0,0.0,0.40061442197,0.324029287469,0.0586085749515,0.38263786242,0.265420712517,nan,nan,0.0,0.0,0.0,nan,nan,146.482976858,292.890176355,293.319953826,293.39020572,nan,nan
0,126,1141,6,1,189,132,1.0,-0.0802194643608,0.400143472992,1,1.0,1.0,0.261363824364,0,0.0,0.0,0.368357215853,0.324868558762,0.0591248718253,0.383993430587,0.265743686937,nan,nan,0.0,0.0,0.0,nan,nan,146.482976858,293.898620644,294.159984468,294.398652859,nan,nan
0,127,1142,6,1,456,320,0.383612429175,0.392633185378,-1.0,1,1.0,1.0,0.293178369757,0,0.0,0.0,0.328106554846,0.324368521483,0.0591585122482,0.383527033731,0.265210009235,nan,nan,0.0,0.0,0.0,nan,nan,146.482976858,294.898734968,295.191913337,295.398772886,nan,nan
0,128,1143,6,1,147,103,1.0,-0.275801134503,0.0346720467303,1,1.0,1.0,0.308986998629,0,0.0,0.0,0.28784306425,0.324124848423,0.0589909209735,0.383115769396,0.265133927449,nan,nan,0.0,0.0,0.0,nan,nan,146.482976858,295.898892912,296.20787991,296.398902605,nan,nan
0,129,1144,6,1,67,47,1.0,-0.12380466598,-1.0,1,1.0,1.0,0.276896764524,0,0.0,0.0,0.29302071097,0.32400750075,0.058776825249,0.382784325999,0.265230675501,nan,nan,0.0,0.0,0.0,nan,nan,146.482976858,296.899008946,297.175905711,297.399030328,nan,nan
0,130,1145,6,0,229,161,0.770397026975,0.135265939772,0.614681466938,0,0.0,1.0,0.48469114583,0,0.0,0.0,0.356858302994,0.323645110471,0.0586948174907,0.382339927962,0.264950292981,nan,nan,0.0,0.0,0.0,nan,nan,146.482976858,297.899164894,298.38385604,298.399233032,nan,nan
0,131,1146,6,1,387,272,-0.0787219327085,0.477231755363,-0.256974454483,1,1.0,1.0,0.292280599475,0,0.0,0.0,0.351289503276,0.32487446952,0.0601269934769,0.385001462997,0.264747476043,nan,nan,0.0,0.0,0.0,nan,nan,146.482976858,298.907577537,299.199858136,299.407634556,nan,nan
0,132,1147,6,1,120,84,1.0,-0.310161497659,-0.240162905937,1,1.0,1.0,0.276113317814,0,0.0,0.0,0.351028354373,0.324627546262,0.0599654422146,0.384592988477,0.264662104047,nan,nan,0.0,0.0,0.0,nan,nan,146.482976858,299.907736621,300.183849939,300.407775679,nan,nan
0,133,1148,6,1,233,163,0.728670395113,0.154909781369,0.626482233315,1,1.0,1.0,0.315931962337,0,0.0,0.0,0.294775293209,0.324262777627,0.0598864022506,0.384149179878,0.264376375376,nan,nan,0.0,0.0,0.0,nan,nan,146.482976858,300.90786748,301.223799442,301.407890003,nan,nan
0,134,1149,6,1,83,58,1.0,-0.203097876184,-0.665876706514,1,1.0,1.0,0.29977751011,0,0.0,0.0,0.29727426342,0.324200607364,0.0596668350069,0.383867442371,0.264533772357,nan,nan,0.0,0.0,0.0,nan,nan,146.482976858,301.907986081,302.207763591,302.40801459,nan,nan
0,135,1150,6,0,259,182,0.44882283482,0.268906983076,0.655011783756,0,0.0,1.0,0.427615294699,0,0.0,0.0,0.347774922382,0.324019695532,0.0594823129652,0.383502008497,0.264537382567,nan,nan,0.0,0.0,0.0,nan,nan,146.482976858,302.90814545,303.335760744,303.408171679,nan,nan
0,136,1151,6,1,182,127,1.0,-0.118523835432,0.347089474713,1,1.0,1.0,0.275173638016,0,0.0,0.0,0.334188814275,0.324781427879,0.0599204611318,0.384701889011,0.264860966747,nan,nan,0.0,0.0,0.0,nan,nan,146.482976858,303.916563794,304.191737432,304.416617678,nan,nan
0,137,1152,6,1,413,290,0.0683106243366,0.461143133648,-0.585495598612,1,1.0,1.0,0.299032837152,0,0.0,0.0,0.333940589956,0.324419327223,0.059850528897,0.38426985612,0.264568798326,nan,nan,0.0,0.0,0.0,nan,nan,146.482976858,304.916702922,305.215735759,305.41675709,nan,nan
0,138,1153,6,1,26,18,1.0,0.0920921692153,-1.0,1,1.0,1.0,0.304769273847,0,0.0,0.0,0.292991916339,0.32423536715,0.0596721453022,0.383907512452,0.264563221848,nan,nan,0.0,0.0,0.0,nan,nan,146.482976858,305.966905654,306.271674928,306.466876004,nan,nan
0,139,1154,6,1,345,242,-0.173519535469,0.465595146217,0.186119282857,1,1.0,1.0,0.352680966724,0,0.0,0.0,0.318827692575,0.324095323313,0.0594798655448,0.383575188858,0.264615457768,nan,nan,0.0,0.0,0.0,nan,nan,146.482976858,306.966993749,307.319674716,307.467007434,nan,nan
0,140,1155,6,1,242,170,0.632911854383,0.197161183215,0.645921401967,1,1.0,1.0,0.328529828694,0,0.0,0.0,0.328660023088,0.324299506481,0.0593159256277,0.383615432108,0.264983580853,nan,nan,0.0,0.0,0.0,nan,nan,146.482976858,307.967115486,308.295645314,308.467167373,nan,nan
0,141,1156,6,1,93,65,1.0,-0.245614297951,-0.538619881923,1,1.0,1.0,0.336044130847,0,0.0,0.0,0.339084975421,0.324329508766,0.0591062772426,0.383435786008,0.265223231523,nan,nan,0.0,0.0,0.0,nan,nan,146.482976858,308.975572888,309.311617019,309.475595981,nan,nan
0,142,1157,6,1,321,225,-0.0999433513493,0.43654647086,0.391174984052,1,1.0,1.0,0.335921538994,0,0.0,0.0,0.333498499511,0.324412006104,0.0589059347593,0.383317940864,0.265506071345,nan,nan,0.0,0.0,0.0,nan,nan,146.482976858,309.975689778,310.311611317,310.475728266,nan,nan
0,143,1158,6,0,238,167,0.675741828754,0.178727669763,0.638511091232,0,0.0,1.0,0.503723081667,0,0.0,0.0,0.391896250503,0.324492492348,0.0587074435822,0.383199935931,0.265785048766,nan,nan,0.0,0.0,0.0,nan,nan,146.482976858,310.975854849,311.479577931,311.47590132,nan,nan
0,144,1159,6,1,420,295,0.1146601879,0.45369410126,-0.695047497311,1,1.0,1.0,0.311582522001,0,0.0,0.0,0.383742380887,0.325737149219,0.0603668855735,0.386104034792,0.265370263645,nan,nan,0.0,0.0,0.0,nan,nan,146.482976858,311.97596062,312.287543142,312.475992266,nan,nan
0,145,1200,6,1,93,65,1.0,-0.245614297951,-0.538619881923,1,1.0,1.0,0.287136878818,0,0.0,0.0,0.367480827495,0.3256395311,0.0601697677299,0.38580929883,0.26546976337,nan,nan,0.0,0.0,0.0,nan,nan,146.482976858,312.984408045,313.271544924,313.484459077,nan,nan
0,146,1201,6,1,189,132,1.0,-0.0802194643608,0.400143472992,1,1.0,1.0,0.23897287529,0,0.0,0.0,0.279230758703,0.325375814303,0.060047380721,0.385423195024,0.265328433582,nan,nan,0.0,0.0,0.0,nan,nan,146.482976858,313.984557435,314.223530311,314.48457169,nan,nan
0,147,1202,6,1,66,46,1.0,-0.118568705386,-1.0,1,1.0,1.0,0.269139274955,0,0.0,0.0,0.265083009688,0.324788039208,0.0602627534907,0.385050792699,0.264525285717,nan,nan,0.0,0.0,0.0,nan,nan,146.482976858,315.02636064,315.295499915,315.526384588,nan,nan
0,148,1203,6,1,191,134,1.0,-0.0691479807067,0.414571651978,1,1.0,1.0,0.276696626563,0,1.0,0.0,0.261602925602,0.324412034044,0.0602315902741,0.384643624318,0.26418044377,nan,nan,0.0,0.0,0.0,nan,nan,146.482976858,316.034799797,316.311496423,316.534859097,nan,nan
0,149,1208,6,0,441,310,0.266287261384,0.422891888867,-1.0,0,0.0,1.0,0.476505155209,1,0.0,0.0,0.340780352242,0.32409179641,0.0601554173334,0.384247213744,0.263936379077,148.642914776,429.0,0.177531820842,0.442080780324,-0.901885199234,-8.72103977599,1.76735570841,146.482976858,317.034977412,317.511482567,317.535006492,318.860151079,320.635413953
0,150,1209,6,1,193,135,1.0,-0.0580453890011,0.428658791268,1,1.0,1.0,0.267445228528,0,0.0,0.0,0.3402156701,0.325107885469,0.0612240381628,0.386331923632,0.263883847306,nan,nan,0.0,0.0,0.0,nan,nan,146.482976858,321.843907392,322.11135262,322.343939323,nan,nan
0,151,1210,6,1,434,305,0.213881816697,0.43461034373,-1.0,1,1.0,1.0,0.307259025984,0,0.0,0.0,0.350403136574,0.324726013568,0.0611999431676,0.385925956736,0.263526070401,nan,nan,0.0,0.0,0.0,nan,nan,146.482976858,322.844085862,323.151344888,323.344069612,nan,nan
0,152,1211,6,1,4,2,0.879126049628,0.195014037372,-1.0,1,1.0,1.0,0.267160131596,0,0.0,0.0,0.280621462036,0.324611099176,0.0610146379141,0.385625737091,0.263596461262,nan,nan,0.0,0.0,0.0,nan,nan,146.482976858,323.84415115,324.111311281,324.344220428,nan,nan
0,153,1212,6,1,451,317,0.343830962376,0.403518361206,-1.0,1,1.0,1.0,0.363017444033,0,0.0,0.0,0.312478867204,0.324235602656,0.0609908660838,0.38522646874,0.263244736573,nan,nan,0.0,0.0,0.0,nan,nan,146.482976858,324.844295694,325.207313138,325.344323633,nan,nan
0,154,1213,6,1,261,183,0.427225806086,0.276617811781,0.653674462902,1,1.0,1.0,0.370876428206,0,0.0,0.0,0.333684667945,0.324487432795,0.0608722733393,0.385359706134,0.263615159456,nan,nan,0.0,0.0,0.0,nan,nan,146.482976858,325.844411158,326.215287586,326.344455348,nan,nan
0,155,1214,6,1,382,268,-0.1011887567,0.478291136399,-0.199732273247,1,1.0,1.0,0.378402418923,0,0.0,0.0,0.370765430387,0.324786716637,0.0607891564656,0.385575873102,0.263997560171,nan,nan,0.0,0.0,0.0,nan,nan,146.482976858,326.852865139,327.231267558,327.352918168,nan,nan
0,156,1215,6,1,94,66,1.0,-0.249439013202,-0.526745155233,1,1.0,1.0,0.402217997704,0,0.0,0.0,0.383832281611,0.325130407036,0.0607448982567,0.385875305292,0.264385508779,nan,nan,0.0,0.0,0.0,nan,nan,146.482976858,327.853011394,328.255229392,328.353043325,nan,nan
0,157,1216,6,1,378,265,-0.117450136118,0.478670924818,-0.154810124165,1,1.0,1.0,0.330068497453,0,0.0,0.0,0.370229638026,0.325621410798,0.0608608992461,0.386482310044,0.264760511552,nan,nan,0.0,0.0,0.0,nan,nan,146.482976858,328.853149096,329.183217593,329.353178176,nan,nan
0,158,1217,6,1,287,201,0.159501648714,0.36255249221,0.590751920292,1,1.0,1.0,0.32990342658,0,0.0,0.0,0.354063307246,0.325649556916,0.0606690207981,0.386318577714,0.264980536118,nan,nan,0.0,0.0,0.0,nan,nan,146.482976858,329.853297061,330.183200488,330.353308465,nan,nan
0,159,1218,6,1,381,267,-0.105403061426,0.478425078289,-0.188431136224,1,1.0,1.0,0.289461845066,0,0.0,0.0,0.316477923033,0.325676310813,0.0604788717703,0.386155182584,0.265197439043,nan,nan,0.0,0.0,0.0,nan,nan,146.482976858,330.861720538,331.151182383,331.361770715,nan,nan
0,160,1219,6,1,148,104,1.0,-0.272695592461,0.0444264621409,1,1.0,1.0,0.345290967263,0,0.0,0.0,0.321552079637,0.325449970402,0.0603570949485,0.385807065351,0.265092875454,nan,nan,0.0,0.0,0.0,nan,nan,146.482976858,331.861868503,332.20715947,332.361909272,nan,nan
0,161,1220,6,1,289,203,0.140592130943,0.368073254824,0.582505265782,1,1.0,1.0,0.377090972848,0,0.0,0.0,0.337281261726,0.325573206408,0.0601895476848,0.385762754093,0.265383658723,nan,nan,0.0,0.0,0.0,nan,nan,146.482976858,332.862064935,333.239155908,333.362033289,nan,nan
0,162,1221,6,1,506,355,0.797774742377,0.236703125255,-1.0,1,1.0,1.0,0.296675654594,0,0.0,0.0,0.339685864902,0.325891217312,0.0601390129728,0.386030230285,0.265752204339,nan,nan,0.0,0.0,0.0,nan,nan,146.482976858,333.870465889,334.167141543,334.370508653,nan,nan
0,163,1222,6,1,297,208,0.0686262056446,0.388646276542,0.544904663634,1,1.0,1.0,0.312488560565,0,0.0,0.0,0.328751729336,0.325711980731,0.059997640822,0.385709621553,0.265714339909,nan,nan,0.0,0.0,0.0,nan,nan,146.482976858,334.870595893,335.183084453,335.370623547,nan,nan
0,164,1223,6,1,29,20,1.0,0.0770173926463,-1.0,1,1.0,1.0,0.336002221797,0,0.0,0.0,0.315055478985,0.32563135012,0.059823299157,0.385454649277,0.265808050963,nan,nan,0.0,0.0,0.0,nan,nan,146.482976858,335.879055006,336.215057228,336.379087222,nan,nan
0,165,1224,6,1,175,123,1.0,-0.155629953633,0.290361762956,1,1.0,1.0,0.319908210542,0,0.0,0.0,0.322799664301,0.325694203888,0.0596471722586,0.385341376146,0.266047031629,nan,nan,0.0,0.0,0.0,nan,nan,146.482976858,336.879189857,337.199098067,337.379238038,nan,nan
0,166,1225,6,1,66,46,1.0,-0.118568705386,-1.0,1,1.0,1.0,0.27943013655,0,0.0,0.0,0.31178018963,0.325659348506,0.0594689261366,0.385128274643,0.266190422369,nan,nan,0.0,0.0,0.0,nan,nan,146.482976858,337.887636711,338.167066848,338.387684893,nan,nan
0,167,1226,6,1,160,112,1.0,-0.227501418013,0.158297521075,1,1.0,1.0,0.263242328539,0,0.0,0.0,0.287526891877,0.325382526878,0.0593977846914,0.384780311569,0.265984742186,nan,nan,0.0,0.0,0.0,nan,nan,146.482976858,338.887765575,339.151007904,339.38782231,nan,nan
0,168,1227,6,1,472,331,0.51429864939,0.352212277195,-1.0,1,1.0,1.0,0.271079360042,0,0.0,0.0,0.271250608377,0.325012644745,0.0594133317212,0.384425976466,0.265599313023,nan,nan,0.0,0.0,0.0,nan,nan,146.482976858,339.887922664,340.159002024,340.387939484,nan,nan
0,169,1228,6,1,161,113,1.0,-0.223158351501,0.167490545043,1,1.0,1.0,0.294910049066,0,0.0,0.0,0.276410579216,0.324693512882,0.0593815352456,0.384075048128,0.265311977637,nan,nan,0.0,0.0,0.0,nan,nan,146.482976858,340.888055804,341.182965853,341.388076331,nan,nan
0,170,1229,6,1,296,208,0.0772713571413,0.386205321608,0.550001308524,1,1.0,1.0,0.414808737114,0,0.0,0.0,0.326932715407,0.324518316036,0.0592504164195,0.383768732456,0.265267899617,nan,nan,0.0,0.0,0.0,nan,nan,146.482976858,341.888159579,342.302968316,342.388213748,nan,nan
0,171,1230,6,1,431,303,0.191957257768,0.43918128748,-0.982298765802,1,1.0,1.0,0.310608915985,0,0.0,0.0,0.340109234055,0.325046330195,0.0594766994191,0.384523029614,0.265569630776,nan,nan,0.0,0.0,0.0,nan,nan,146.482976858,342.888315242,343.198924158,343.388335769,nan,nan
0,172,1231,6,1,149,104,1.0,-0.269478519393,0.0541436597792,1,1.0,1.0,0.390474281739,0,0.0,0.0,0.371963978279,0.32496239174,0.0593137071099,0.38427609885,0.26564868463,nan,nan,0.0,0.0,0.0,nan,nan,146.482976858,343.888444961,344.278919243,344.388453799,nan,nan
0,173,1232,6,1,4,2,0.879126049628,0.195014037372,-1.0,1,1.0,1.0,0.310344060883,0,0.0,0.0,0.337142419536,0.325341073185,0.0593501866794,0.384691259865,0.265990886506,nan,nan,0.0,0.0,0.0,nan,nan,146.482976858,344.888574395,345.198918456,345.388620866,nan,nan
0,174,1233,6,1,308,216,-0.0186828559465,0.413097475488,0.481682330771,1,1.0,1.0,0.27018073434,0,0.0,0.0,0.323666358987,0.325254883459,0.0591902515941,0.384445135053,0.266064631865,nan,nan,0.0,0.0,0.0,nan,nan,146.482976858,345.888688719,346.158869454,346.388721791,nan,nan
0,175,1234,6,1,185,130,1.0,-0.102214474652,0.370299946716,1,1.0,1.0,0.262042070273,0,0.0,0.0,0.280855621832,0.324940174036,0.0591667074979,0.384106881534,0.265773466538,nan,nan,0.0,0.0,0.0,nan,nan,146.482976858,346.888820434,347.150862504,347.388843242,nan,nan
0,176,1235,6,1,509,357,0.822386376617,0.224555004187,-1.0,1,1.0,1.0,0.277884340379,0,0.0,0.0,0.270035714998,0.324582798446,0.0591874941938,0.38377029264,0.265395304252,nan,nan,0.0,0.0,0.0,nan,nan,146.482976858,347.888933333,348.166817673,348.388974386,nan,nan
0,177,1236,6,1,399,280,-0.0164460389312,0.472031251936,-0.400274523968,1,1.0,1.0,0.269403275102,0,0.0,0.0,0.269776561918,0.32431896535,0.0591237566332,0.383442721983,0.265195208717,nan,nan,0.0,0.0,0.0,nan,nan,146.482976858,348.897395867,349.166799142,349.397446329,nan,nan
0,178,1237,6,1,138,97,1.0,-0.29832987918,-0.0546508148191,1,1.0,1.0,0.317276764661,0,0.0,0.0,0.288188126714,0.324010450236,0.0591001474663,0.383110597702,0.26491030277,nan,nan,0.0,0.0,0.0,nan,nan,146.482976858,349.897530718,350.214807482,350.397568066,nan,nan
0,179,1238,6,1,292,205,0.112881669716,0.376069582356,0.569261850688,1,1.0,1.0,0.357109378558,0,0.0,0.0,0.314596472774,0.323972831881,0.0589369690701,0.382909800951,0.265035862811,nan,nan,0.0,0.0,0.0,nan,nan,146.482976858,350.897663003,351.254772381,351.397696645,nan,nan
0,180,1239,6,1,366,257,-0.155593376329,0.477302029306,-0.0244766492797,1,1.0,1.0,0.356606182177,0,0.0,0.0,0.343664108465,0.324156923807,0.0588246123093,0.382981536116,0.265332311497,nan,nan,0.0,0.0,0.0,nan,nan,146.482976858,351.906140077,352.26274626,352.40616431,nan,nan
0,181,1240,6,1,470,330,0.497741612616,0.357740777197,-1.0,1,1.0,1.0,0.292110396083,0,0.0,0.0,0.335275318939,0.324336201477,0.058711178044,0.383047379521,0.265625023433,nan,nan,0.0,0.0,0.0,nan,nan,146.482976858,352.914601472,353.206711868,353.414633403,nan,nan
0,182,1241,6,1,330,232,-0.139766326074,0.449518327743,0.319540245599,1,1.0,1.0,0.355961007997,0,0.0,0.0,0.334892528752,0.324159136613,0.0585981020123,0.382757238625,0.2655610346,nan,nan,0.0,0.0,0.0,nan,nan,146.482976858,353.914740599,354.270701607,354.414778232,nan,nan
0,183,1242,6,1,153,107,1.0,-0.255547855702,0.0926213922694,1,1.0,1.0,0.307848606724,0,0.0,0.0,0.318640003602,0.324332917331,0.0584847870692,0.3828177044,0.265848130261,nan,nan,0.0,0.0,0.0,nan,nan,146.482976858,354.914889134,355.222737741,355.414887709,nan,nan
0,184,1243,6,1,379,266,-0.113535935895,0.478614986251,-0.165970515924,1,1.0,1.0,0.25936158793,0,0.0,0.0,0.307723734217,0.324243328686,0.058338234348,0.382581563034,0.265905094338,nan,nan,0.0,0.0,0.0,nan,nan,146.482976858,355.92332544,356.182687028,356.423355945,nan,nan
0,185,1244,6,1,256,180,0.481312611765,0.257047908656,0.656065722404,1,1.0,1.0,0.267225133721,0,0.0,0.0,0.278145109459,0.323892616574,0.0583745228327,0.382267139406,0.265518093741,nan,nan,0.0,0.0,0.0,nan,nan,146.482976858,356.923443185,357.190668319,357.423477112,nan,nan
0,186,1245,6,1,173,121,1.0,-0.165909522591,0.273535192888,1,1.0,1.0,0.243003291544,0,1.0,0.0,0.256530004398,0.323587952687,0.0583646835202,0.381952636208,0.265223269167,nan,nan,0.0,0.0,0.0,nan,nan,146.482976858,357.923594572,358.166597863,358.423610822,nan,nan
0,187,1251,6,1,129,90,1.0,-0.310070485259,-0.146368003411,1,1.0,1.0,0.250550094992,1,0.0,0.0,0.253592840085,0.323157018671,0.0585043674711,0.381661386142,0.264652651199,-2.57914750028,132.0,1.0,-0.307426825298,-0.115555361894,1.87602250028,2.21726558916,146.482976858,358.932033443,359.182583538,359.432071931,360.757247594,362.982536098
0,188,1252,6,1,262,184,0.416452475899,0.2804144186,0.652815538838,1,1.0,1.0,0.319507363718,0,0.0,0.0,0.271020250084,0.32277081163,0.0585870889092,0.381357900539,0.264183722721,nan,nan,0.0,0.0,0.0,nan,nan,146.482976858,364.191042936,364.5105503,364.691098815,nan,nan
0,189,1253,6,1,403,283,0.00657627305109,0.469456436931,-0.450524507496,1,1.0,1.0,0.303252272774,0,0.0,0.0,0.291103243828,0.32275354471,0.0584323706796,0.381185915389,0.26432117403,nan,nan,0.0,0.0,0.0,nan,nan,146.482976858,365.191204586,365.494456859,365.691224828,nan,nan
0,190,1254,6,1,218,153,0.881467392804,0.0788246127756,0.572559633417,1,1.0,1.0,0.335147215519,0,0.0,0.0,0.319302284004,0.322650906436,0.0582954780815,0.380946384518,0.264355428355,nan,nan,0.0,0.0,0.0,nan,nan,146.482976858,366.191306651,366.526453867,366.691370513,nan,nan
0,191,1255,6,0,500,351,0.748145934353,0.260058294274,-1.0,0,0.0,1.0,0.478944160044,0,0.0,0.0,0.372447882779,0.322716332138,0.058149665423,0.380865997561,0.264566666715,nan,nan,0.0,0.0,0.0,nan,nan,146.482976858,367.191475714,367.670419874,367.691501087,nan,nan
0,192,1256,6,1,215,151,0.910639861846,0.0628947364355,0.558695148714,1,1.0,1.0,0.366702893283,0,0.0,0.0,0.393598089616,0.323530018742,0.0590781738102,0.382608192552,0.264451844932,nan,nan,0.0,0.0,0.0,nan,nan,146.482976858,368.191704361,368.558407255,368.691602867,nan,nan
0,193,1257,6,1,57,40,1.0,-0.0707313323512,-1.0,1,1.0,1.0,0.32668952737,0,0.0,0.0,0.390778860232,0.323753712392,0.0590063893433,0.382760101736,0.264747323049,nan,nan,0.0,0.0,0.0,nan,nan,146.482976858,369.191707497,369.518397025,369.691740854,nan,nan
0,194,1258,6,1,2,1,0.863024578927,0.203622855609,-1.0,1,1.0,1.0,0.318527770694,0,0.0,0.0,0.337306730449,0.323768845459,0.0588544900303,0.38262333549,0.264914355429,nan,nan,0.0,0.0,0.0,nan,nan,146.482976858,370.191855463,370.510383233,370.691865441,nan,nan
0,195,1259,6,1,126,88,1.0,-0.311411754845,-0.177408431044,1,1.0,1.0,0.326419255696,0,0.0,0.0,0.323878851254,0.323741968153,0.058704580757,0.38244654891,0.265037387396,nan,nan,0.0,0.0,0.0,nan,nan,146.482976858,371.1919638,371.518383055,371.691998581,nan,nan
0,196,1300,6,1,330,232,-0.139766326074,0.449518327743,0.319540245599,1,1.0,1.0,0.406225036364,0,0.0,0.0,0.350390687585,0.323755627783,0.0585549433534,0.382310571137,0.26520068443,nan,nan,0.0,0.0,0.0,nan,nan,146.482976858,372.192089812,372.598314849,372.6921417,nan,nan
0,197,1301,6,1,250,175,0.546428449327,0.232286661223,0.654747725831,1,1.0,1.0,0.39006402716,0,0.0,0.0,0.374236106407,0.324174254223,0.0586994509671,0.38287370519,0.265474803255,nan,nan,0.0,0.0,0.0,nan,nan,146.482976858,373.192241199,373.582305226,373.692254313,nan,nan
0,198,1302,6,1,125,87,1.0,-0.311567427947,-0.187805059354,1,1.0,1.0,0.373913281132,0,0.0,1.0,0.390067448219,0.324507030854,0.0587370345779,0.383244065431,0.265769996276,nan,nan,0.0,0.0,0.0,nan,nan,146.482976858,374.192372629,374.56628591,374.69242024,nan,nan
0,199,1306,6,1,317,222,-0.077772836126,0.429938605076,0.420733606481,1,1.0,1.0,0.397755659651,1,0.0,0.0,0.387244322648,0.324755303468,0.0586933295195,0.383448632988,0.266061973949,-146.456281529,336.0,-0.158211608236,0.456758111158,0.268135266647,13.5656565287,1.80050137173,146.482976858,375.192501207,375.590256867,375.692523445,377.017713077,378.826247912
0,200,1307,6,1,51,35,1.0,-0.0385160204876,-1.0,1,1.0,1.0,0.28338386165,0,0.0,0.0,0.351684267477,0.325120305249,0.0587723951285,0.383892700378,0.26634791012,nan,nan,0.0,0.0,0.0,nan,nan,146.482976858,380.034782976,380.318166838,380.534813481,nan,nan
0,201,1308,6,1,494,347,0.698129958021,0.282143999684,-1.0,1,1.0,1.0,0.299256352708,0,0.0,0.0,0.32679862467,0.324912661251,0.0586995109708,0.383612172222,0.26621315028,nan,nan,0.0,0.0,0.0,nan,nan,146.482976858,381.034901291,381.334157644,381.534947477,nan,nan
0,202,1309,6,1,22,15,1.0,0.111842423158,-1.0,1,1.0,1.0,0.299116940703,0,0.0,0.0,0.293919051687,0.324785649823,0.0585817165474,0.38336736637,0.266203933275,nan,nan,0.0,0.0,0.0,nan,nan,146.482976858,382.035028444,382.334145385,382.5350752,nan,nan
0,203,1310,6,0,496,348,0.714833717156,0.274923884212,-1.0,0,0.0,1.0,0.458880743477,0,0.0,0.0,0.352418012296,0.32465920298,0.0584648761828,0.383124079162,0.266194326797,nan,nan,0.0,0.0,0.0,nan,nan,146.482976858,383.035215468,383.494096211,383.535225731,nan,nan
0,204,1311,6,1,250,175,0.546428449327,0.232286661223,0.654747725831,1,1.0,1.0,0.266435415018,0,0.0,0.0,0.341477699733,0.325317151708,0.0590699936141,0.384387145322,0.266247158093,nan,nan,0.0,0.0,0.0,nan,nan,146.482976858,384.043623264,384.310058679,384.543666313,nan,nan
0,205,1312,6,1,7,4,0.9030914636,0.181853060355,-1.0,1,1.0,1.0,0.298305269331,0,0.0,0.0,0.341207142609,0.325029923724,0.0590683784056,0.384098302129,0.265961545318,nan,nan,0.0,0.0,0.0,nan,nan,146.482976858,385.043752413,385.342057682,385.543804015,nan,nan
0,206,1313,6,1,89,62,1.0,-0.229484098413,-0.587370487375,1,1.0,1.0,0.321843448561,0,0.0,0.0,0.295528044303,0.324900192392,0.0589541031065,0.383854295498,0.265946089285,nan,nan,0.0,0.0,0.0,nan,nan,146.482976858,386.052203258,386.374046707,386.552256857,nan,nan
0,207,1314,6,1,355,249,-0.173737462994,0.472683863687,0.0888799762457,1,1.0,1.0,0.384321602993,0,0.0,0.0,0.334823440295,0.324885425513,0.0588119113934,0.383697336907,0.26607351412,nan,nan,0.0,0.0,0.0,nan,nan,146.482976858,387.085703583,387.470025185,387.585723824,nan,nan
0,208,1315,6,0,489,343,0.656284860842,0.299572439858,-1.0,0,0.0,1.0,0.536157428287,0,0.0,0.0,0.41410749328,0.325171176367,0.0588142343632,0.38398541073,0.266356942003,nan,nan,0.0,0.0,0.0,nan,nan,146.482976858,388.085847557,388.622004985,388.585911418,nan,nan
0,209,1316,6,1,268,188,0.35230222188,0.302367520405,0.645005310408,1,1.0,1.0,0.264042310417,0,0.0,0.0,0.394840447232,0.326180679964,0.0604527556124,0.386633435577,0.265727924352,nan,nan,0.0,0.0,0.0,nan,nan,146.482976858,389.085939643,389.349981953,389.585982692,nan,nan
0,210,1317,6,1,69,48,1.0,-0.134207199312,-0.939648005704,1,1.0,1.0,0.24790011812,0,0.0,0.0,0.349366618941,0.325884782966,0.0604601696353,0.386344952602,0.265424613331,nan,nan,0.0,0.0,0.0,nan,nan,146.482976858,390.086066796,390.333966914,390.586138356,nan,nan
0,211,1318,6,1,304,213,0.0113092810281,0.404708921832,0.506160370659,1,1.0,1.0,0.29568522796,0,0.0,0.0,0.269209218832,0.325515187398,0.0605540582879,0.386069245686,0.26496112911,nan,nan,0.0,0.0,0.0,nan,nan,146.482976858,391.086234433,391.381919661,391.586256956,nan,nan
0,212,1319,6,1,220,154,0.861731547614,0.0893272636146,0.581247684387,1,1.0,1.0,0.335230178665,0,0.0,0.0,0.292938508249,0.325374480043,0.0604456389932,0.385820119036,0.264928841049,nan,nan,0.0,0.0,0.0,nan,nan,146.482976858,392.094671594,392.429901773,392.59471778,nan,nan
0,213,1320,6,1,468,329,0.481236483515,0.363131620867,-1.0,1,1.0,1.0,0.303129395936,0,0.0,0.0,0.31134826752,0.325420750928,0.0603073441561,0.385728095084,0.265113406772,nan,nan,0.0,0.0,0.0,nan,nan,146.482976858,393.094791905,393.397921301,393.594832674,nan,nan
0,214,1321,6,1,98,68,1.0,-0.263822910468,-0.480217789416,1,1.0,1.0,0.278949463274,0,0.0,0.0,0.305769679292,0.325316585718,0.0601854773066,0.385502063025,0.265131108411,nan,nan,0.0,0.0,0.0,nan,nan,146.482976858,394.094948423,394.373897886,394.594965244,nan,nan
0,215,1322,6,1,332,233,-0.146647089803,0.45205423783,0.302714191958,1,1.0,1.0,0.262777335476,0,0.0,0.0,0.281618731562,0.325100924683,0.060128170455,0.385229095138,0.264972754228,nan,nan,0.0,0.0,0.0,nan,nan,146.482976858,395.095094963,395.357872298,395.595097244,nan,nan
0,216,1323,6,1,217,152,0.891250405156,0.0735373331823,0.568048345461,1,1.0,1.0,0.318333904259,0,0.0,0.0,0.286686901003,0.324812389548,0.0601378269183,0.384950216466,0.26467456263,nan,nan,0.0,0.0,0.0,nan,nan,146.482976858,396.103515874,396.421849778,396.6035632,nan,nan
0,217,1324,6,1,342,240,-0.170052622031,0.462913557708,0.21407524247,1,1.0,1.0,0.294177064206,0,0.0,0.0,0.29176276798,0.324782534777,0.060000704845,0.384783239622,0.264781829932,nan,nan,0.0,0.0,0.0,nan,nan,146.482976858,397.103661273,397.397838337,397.603686362,nan,nan
0,218,1325,6,1,105,73,1.0,-0.285049837405,-0.401580786678,1,1.0,1.0,0.325979636051,0,0.0,0.0,0.312830201505,0.32464214271,0.0598986434553,0.384540786166,0.264743499255,nan,nan,0.0,0.0,0.0,nan,nan,146.482976858,398.103802966,398.429782602,398.603823493,nan,nan
0,219,1326,6,1,45,31,1.0,-0.0063957592436,-1.0,1,1.0,1.0,0.333808114752,0,0.0,0.0,0.31798827167,0.324648249986,0.0597618001208,0.384410050107,0.264886449865,nan,nan,0.0,0.0,0.0,nan,nan,146.482976858,399.103949221,399.437757336,399.60394694,nan,nan
0,220,1327,6,1,245,172,0.600577697281,0.210610106048,0.650172825369,1,1.0,1.0,0.277369740885,0,0.0,0.0,0.312385830563,0.324689885735,0.0596290066236,0.384318892358,0.265060879111,nan,nan,0.0,0.0,0.0,nan,nan,146.482976858,400.112363004,400.389732745,400.612407479,nan,nan
0,221,1328,6,1,390,274,-0.0641960347588,0.476284203309,-0.291947553613,1,1.0,1.0,0.309222774114,0,0.0,0.0,0.306800209917,0.324475767432,0.0595786532424,0.384054420675,0.26489711419,nan,nan,0.0,0.0,0.0,nan,nan,146.482976858,401.112526935,401.421749709,401.61254347,nan,nan
0,222,1329,6,1,173,121,1.0,-0.165909522591,0.273535192888,1,1.0,1.0,0.293093125802,0,0.0,0.0,0.293228546934,0.324407060255,0.0594530901695,0.383860150425,0.264953970086,nan,nan,0.0,0.0,0.0,nan,nan,146.482976858,402.112638122,402.405731248,402.612671764,nan,nan
0,223,1330,6,1,286,201,0.169078956243,0.359734776014,0.594698705761,1,1.0,1.0,0.30891943071,0,0.0,0.0,0.303745110209,0.324266639024,0.0593565229439,0.383623161968,0.264910116081,nan,nan,0.0,0.0,0.0,nan,nan,146.482976858,403.112802909,403.421722339,403.612800628,nan,nan
0,224,1331,6,1,37,26,1.0,0.0358565504353,-1.0,1,1.0,1.0,0.29274160089,0,0.0,0.0,0.298251385801,0.324198124702,0.0592327195741,0.383430844276,0.264965405127,nan,nan,0.0,0.0,0.0,nan,nan,146.482976858,404.112912956,404.405654557,404.612937189,nan,nan
0,225,1332,6,1,355,249,-0.173737462994,0.472683863687,0.0888799762457,1,1.0,1.0,0.292630983517,0,0.0,0.0,0.298097338372,0.324058317929,0.0591379738998,0.383196291829,0.264920344029,nan,nan,0.0,0.0,0.0,nan,nan,146.482976858,405.113017302,405.405648285,405.613058926,nan,nan
0,226,1333,6,1,279,196,0.238157575771,0.338930353633,0.618978422254,1,1.0,1.0,0.3324601762,0,0.0,0.0,0.305944253535,0.323919258927,0.0590438489155,0.382963107843,0.264875410012,nan,nan,0.0,0.0,0.0,nan,nan,146.482976858,406.113180092,406.445640268,406.613193206,nan,nan
0,227,1334,6,1,27,18,1.0,0.0870912575778,-1.0,1,1.0,1.0,0.316338225733,0,0.0,0.0,0.31380979515,0.323956884113,0.0589163680887,0.382873252202,0.265040516025,nan,nan,0.0,0.0,0.0,nan,nan,146.482976858,407.113285007,407.429623233,407.613323781,nan,nan
0,228,1335,6,1,374,262,-0.132039125116,0.478634076427,-0.110628443238,1,1.0,1.0,0.34816531511,0,0.0,0.0,0.332321239014,0.323923468945,0.0587891792729,0.382712648218,0.265134289672,nan,nan,0.0,0.0,0.0,nan,nan,146.482976858,408.11343953,408.461604845,408.613460057,nan,nan
0,229,1336,6,1,300,210,0.0433537089178,0.395748422077,0.528951029102,1,1.0,1.0,0.348043863662,0,0.0,0.0,0.337515801502,0.324029328535,0.0586824521497,0.382711780685,0.265346876386,nan,nan,0.0,0.0,0.0,nan,nan,146.482976858,409.113539884,409.461583748,409.613591487,nan,nan
0,230,1337,6,1,123,86,1.0,-0.311441137266,-0.208672863777,1,1.0,1.0,0.339855877683,0,0.0,0.0,0.345355018818,0.324133739558,0.0585760562485,0.382709795806,0.265557683309,nan,nan,0.0,0.0,0.0,nan,nan,146.482976858,410.113664757,410.453520635,410.613704385,nan,nan
0,231,1338,6,1,252,177,0.524721685615,0.240693665738,0.655694012224,1,1.0,1.0,0.331690129358,0,0.0,0.0,0.339863290234,0.324201800762,0.0584582442334,0.382660044995,0.265743556528,nan,nan,0.0,0.0,0.0,nan,nan,146.482976858,411.113826122,411.445516251,411.613837241,nan,nan
0,232,1339,6,1,49,34,1.0,-0.027785429985,-1.0,1,1.0,1.0,0.323573417496,0,0.0,0.0,0.331706474846,0.32423407804,0.0583341833975,0.382568261438,0.265899894643,nan,nan,0.0,0.0,0.0,nan,nan,146.482976858,412.113949283,412.437522701,412.613991763,nan,nan
0,233,1340,6,1,459,322,0.407758158413,0.385709174134,-1.0,1,1.0,1.0,0.323450255208,0,0.0,0.0,0.326237934021,0.324231242587,0.0582088841653,0.382440126752,0.266022358422,nan,nan,0.0,0.0,0.0,nan,nan,146.482976858,413.114074156,413.437524411,413.614123763,nan,nan
0,234,1341,6,1,416,292,0.087881616042,0.458117504295,-0.630165317015,1,1.0,1.0,0.283302039374,0,0.0,0.0,0.310108570692,0.324227905034,0.0580843953826,0.382312300417,0.266143509652,nan,nan,0.0,0.0,0.0,nan,nan,146.482976858,414.114182208,414.397484247,414.614225543,nan,nan
0,235,1342,6,0,245,172,0.600577697281,0.210610106048,0.650172825369,0,1.0,0.0,0.291088893544,0,0.0,0.0,0.299280396042,0.324053752414,0.0580218702011,0.382075622615,0.266031882213,nan,nan,0.0,0.0,0.0,nan,nan,146.482976858,415.114360109,415.405449002,415.614401163,nan,nan
0,236,1343,6,1,127,89,1.0,-0.31111021432,-0.167036648065,1,1.0,1.0,0.266966835596,0,0.0,0.0,0.280452589504,0.323914070809,0.0579383940579,0.381852464867,0.265975676751,nan,nan,0.0,0.0,0.0,nan,nan,146.482976858,416.114443927,416.381410763,416.614485266,nan,nan
0,237,1344,6,0,456,320,0.383612429175,0.392633185378,-1.0,0,1.0,0.0,0.290794388857,0,0.0,0.0,0.282950039332,0.323673787116,0.0579337492833,0.381607536399,0.265740037833,nan,nan,0.0,0.0,0.0,nan,nan,146.482976858,417.114607858,417.405402246,417.614638363,nan,nan
0,238,1345,6,1,504,354,0.78128615449,0.244628286196,-1.0,1,1.0,1.0,0.250649878755,0,0.0,0.0,0.269470367736,0.323535638384,0.0578510180219,0.381386656406,0.265684620362,nan,nan,0.0,0.0,0.0,nan,nan,146.482976858,418.114733871,418.365383749,418.614764946,nan,nan
0,239,1346,6,1,102,71,1.0,-0.276610342793,-0.434926949461,1,1.0,1.0,0.290523261297,0,0.0,0.0,0.277322509636,0.323230677047,0.0579212528011,0.381151929848,0.265309424245,nan,nan,0.0,0.0,0.0,nan,nan,146.482976858,419.114861309,419.40538457,419.6148787,nan,nan
0,240,1347,6,1,332,233,-0.146647089803,0.45205423783,0.302714191958,1,1.0,1.0,0.500261718873,0,0.0,0.0,0.347144952975,0.323094396148,0.0578388426426,0.38093323879,0.265255553505,nan,nan,0.0,0.0,0.0,nan,nan,146.482976858,420.114960808,420.615222527,420.615064013,nan,nan
0,241,1348,6,1,496,348,0.714833717156,0.274923884212,-1.0,1,1.0,1.0,0.338223697618,0,0.0,0.0,0.376336225929,0.323829530267,0.0588315561185,0.382661086385,0.264997974148,nan,nan,0.0,0.0,0.0,nan,nan,146.482976858,421.115125594,421.453349291,421.61515667,nan,nan
0,242,1349,6,1,138,97,1.0,-0.29832987918,-0.0546508148191,1,1.0,1.0,0.29006653605,0,0.0,0.0,0.37618398418,0.323889010297,0.0587171384009,0.382606148698,0.265171871896,nan,nan,0.0,0.0,0.0,nan,nan,146.482976858,422.115255598,422.405322134,422.615279546,nan,nan
0,243,1350,6,1,29,20,1.0,0.0770173926463,-1.0,1,1.0,1.0,0.353925985284,0,0.0,0.0,0.327405406317,0.32374982316,0.0586361880309,0.382386011191,0.265113635129,nan,nan,0.0,0.0,0.0,nan,nan,146.482976858,423.115351961,423.469277946,423.615393015,nan,nan
0,244,1351,6,1,388,272,-0.0739633693698,0.476941921698,-0.268577162136,1,1.0,1.0,0.441800866276,0,0.0,0.0,0.361931129203,0.323873495956,0.058547657751,0.382421153707,0.265325838205,nan,nan,0.0,0.0,0.0,nan,nan,146.482976858,424.11548054,424.557281406,424.615515321,nan,nan
0,245,1352,6,1,194,136,1.0,-0.0524864644427,0.435571704399,1,1.0,1.0,0.433657070622,0,0.0,1.0,0.409794640727,0.324354832161,0.0589098304267,0.383264662588,0.265445001735,nan,nan,0.0,0.0,0.0,nan,nan,146.482976858,425.115610829,425.5492679,425.615644756,nan,nan
0,246,1357,6,1,25,17,1.0,0.0970682892709,-1.0,1,1.0,1.0,0.633448778652,1,0.0,0.0,0.502968905183,0.324799150204,0.0591999026311,0.383999052835,0.265599247573,82.8421869864,10.0,0.926811495151,0.168400576072,-1.0,-10.4203119864,1.89220453519,146.482976858,426.115749101,426.74919788,426.615834915,427.940954129,429.84121522
0,247,1358,6,1,96,67,1.0,-0.25681952169,-0.503302481145,1,1.0,1.0,0.347409808077,0,0.0,0.0,0.471505219117,0.326048743841,0.0622460024414,0.388294746283,0.2638027414,nan,nan,0.0,0.0,0.0,nan,nan,146.482976858,431.049714932,431.39712474,431.549761687,nan,nan
0,248,1359,6,1,300,210,0.0433537089178,0.395748422077,0.528951029102,1,1.0,1.0,0.323261235841,0,0.0,0.0,0.434706607523,0.326134877165,0.0621351273854,0.38827000455,0.263999749779,nan,nan,0.0,0.0,0.0,nan,nan,146.482976858,432.049840089,432.373101325,432.549891407,nan,nan
0,249,1400,6,1,179,125,1.0,-0.13461441766,0.323204131591,1,1.0,1.0,0.267087717075,0,0.0,0.0,0.312586253664,0.326123336437,0.062010498863,0.3881338353,0.264112837574,nan,nan,0.0,0.0,0.0,nan,nan,146.482976858,433.049971804,433.317059521,433.550040797,nan,nan
0,250,1401,6,1,382,268,-0.1011887567,0.478291136399,-0.199732273247,1,1.0,1.0,0.298956430983,0,0.0,0.0,0.296435127966,0.325887193959,0.0619984339763,0.387885627935,0.263888759983,nan,nan,0.0,0.0,0.0,nan,nan,146.482976858,434.050097532,434.349053963,434.550167095,nan,nan
0,251,1402,6,1,491,345,0.673033477965,0.292707709811,-1.0,1,1.0,1.0,0.282786013559,0,0.0,0.0,0.282943387205,0.325779900083,0.0618980600835,0.387677960166,0.263881839999,nan,nan,0.0,0.0,0.0,nan,nan,146.482976858,435.050257471,435.333043485,435.550291398,nan,nan
0,252,1403,6,1,383,269,-0.0968787136249,0.478131214543,-0.211081409456,1,1.0,1.0,0.282634627074,0,0.0,0.0,0.288125690538,0.325609289422,0.0618342308184,0.38744352024,0.263775058604,nan,nan,0.0,0.0,0.0,nan,nan,146.482976858,436.050375501,436.333010128,436.550420261,nan,nan
0,253,1404,6,1,78,54,1.0,-0.179467652321,-0.739907630878,1,1.0,1.0,0.266488157678,0,0.0,0.0,0.27730293277,0.325439429097,0.0617707892176,0.387210218314,0.263668639879,nan,nan,0.0,0.0,0.0,nan,nan,146.482976858,437.050518905,437.317007063,437.550540288,nan,nan
0,254,1405,6,1,216,151,0.900975005756,0.0682271079607,0.563426584804,1,1.0,1.0,0.306351562031,0,0.0,0.0,0.285158115594,0.325207337477,0.0617595050432,0.38696684252,0.263447832434,nan,nan,0.0,0.0,0.0,nan,nan,146.482976858,438.050624106,438.356975668,438.550659173,nan,nan
0,255,1406,6,1,12,8,0.942476689623,0.159273951266,-1.0,1,1.0,1.0,0.362194368616,0,0.0,0.0,0.311678029442,0.325133393259,0.0616495537773,0.386782947037,0.263483839482,nan,nan,0.0,0.0,0.0,nan,nan,146.482976858,439.050748408,439.412942777,439.550789462,nan,nan
0,256,1407,6,1,328,230,-0.132159558243,0.44685796506,0.336046158271,1,1.0,1.0,0.314031505492,0,0.0,0.0,0.327525812046,0.325278162694,0.0615724407659,0.38685060346,0.263705721928,nan,nan,0.0,0.0,0.0,nan,nan,146.482976858,440.050888961,440.364920467,440.550921177,nan,nan
0,257,1408,6,1,70,49,1.0,-0.13936984996,-0.906436913284,1,1.0,1.0,0.313865293749,0,0.0,0.0,0.330030389285,0.325234401382,0.0614565220193,0.386690923402,0.263777879363,nan,nan,0.0,0.0,0.0,nan,nan,146.482976858,441.051039207,441.364904501,441.55104662,nan,nan
0,258,1409,6,0,232,163,0.739158239773,0.150046616059,0.623712016981,0,1.0,0.0,0.281734005548,0,0.0,0.0,0.303210268263,0.325190335074,0.0613413725662,0.38653170764,0.263848962507,nan,nan,0.0,0.0,0.0,nan,nan,146.482976858,442.051174914,442.332908919,442.551205134,nan,nan
0,259,1410,6,1,51,35,1.0,-0.0385160204876,-1.0,1,1.0,1.0,0.233619323932,0,0.0,0.0,0.276406207743,0.325022550017,0.0612821271896,0.386304677207,0.263740422828,nan,nan,0.0,0.0,0.0,nan,nan,146.482976858,443.051271276,443.2848906,443.551318602,nan,nan
0,260,1411,6,1,329,231,-0.136053278316,0.448203788942,0.3278337444,1,1.0,1.0,0.336077487096,0,0.0,0.0,0.283810272192,0.324670999148,0.0614252731465,0.386096272294,0.263245726001,nan,nan,0.0,0.0,0.0,nan,nan,146.482976858,444.084777873,444.42085536,444.584777588,nan,nan
0,261,1412,6,1,5,3,0.88714030954,0.190659852496,-1.0,1,1.0,1.0,0.33592895139,0,0.0,0.0,0.301875254139,0.324714702167,0.0613115371241,0.386026239291,0.263403165043,nan,nan,0.0,0.0,0.0,nan,nan,146.482976858,445.084878512,445.420807463,445.584904456,nan,nan
0,262,1413,6,1,462,324,0.432089675478,0.378486360879,-1.0,1,1.0,1.0,0.303788254969,0,0.0,0.0,0.325264897818,0.324757504645,0.061198325326,0.385955829971,0.263559179319,nan,nan,0.0,0.0,0.0,nan,nan,146.482976858,446.085003384,446.388791639,446.585031609,nan,nan
0,263,1414,6,0,121,85,1.0,-0.310732805591,-0.229640808446,0,0.0,1.0,0.495618343819,0,0.0,0.0,0.378445183393,0.324677773657,0.0610955000577,0.385773273715,0.2635822736,nan,nan,0.0,0.0,0.0,nan,nan,146.482976858,447.085160758,447.580779102,447.601858034,nan,nan
0,264,1415,6,1,229,161,0.770397026975,0.135265939772,0.614681466938,1,1.0,1.0,0.295523577835,0,0.0,0.0,0.364976725541,0.325325275817,0.0618771879815,0.387202463799,0.263448087836,nan,nan,0.0,0.0,0.0,nan,nan,146.482976858,448.085261682,448.38078526,448.585319272,nan,nan
0,265,1416,6,1,110,77,1.0,-0.296722754836,-0.346921960777,1,1.0,1.0,0.311327360105,0,0.0,0.0,0.367489760586,0.32521281658,0.0617873528411,0.387000169421,0.263425463738,nan,nan,0.0,0.0,0.0,nan,nan,146.482976858,449.085411358,449.396738718,449.585421336,nan,nan
0,266,1417,6,1,12,8,0.942476689623,0.159273951266,-1.0,1,1.0,1.0,0.327184741385,0,0.0,0.0,0.311345226442,0.325160615615,0.0616769560803,0.386837571696,0.263483659535,nan,nan,0.0,0.0,0.0,nan,nan,146.482976858,450.085523116,450.412707857,450.585548775,nan,nan
0,267,1418,6,0,362,254,-0.164239727892,0.476000155386,0.0174578511848,0,0.0,1.0,0.478977801744,0,0.0,0.0,0.372496634411,0.325168196611,0.0615614719775,0.386729668588,0.263606724633,nan,nan,0.0,0.0,0.0,nan,nan,146.482976858,451.085706433,451.564684235,451.585717267,nan,nan
0,268,1419,6,1,175,123,1.0,-0.155629953633,0.290361762956,1,1.0,1.0,0.294926299714,0,0.0,0.0,0.367029614281,0.325742113048,0.0621580100422,0.38790012309,0.263584103006,nan,nan,0.0,0.0,0.0,nan,nan,146.482976858,452.085769155,452.380695454,452.58581249,nan,nan
0,269,1420,6,1,358,251,-0.170583909915,0.474268316859,0.0585874414746,1,1.0,1.0,0.286743730307,0,0.0,0.0,0.353549277255,0.325627556121,0.0620707045313,0.387698260652,0.26355685159,nan,nan,0.0,0.0,0.0,nan,nan,146.482976858,453.085900299,453.37264403,453.58594563,nan,nan
0,270,1421,6,1,505,355,0.789537956352,0.240683140511,-1.0,1,1.0,1.0,0.334283371456,0,0.0,0.0,0.305317800492,0.325483541951,0.0620006606058,0.387484202557,0.263482881345,nan,nan,0.0,0.0,0.0,nan,nan,146.482976858,454.094361979,454.42864535,454.594405598,nan,nan
0,271,1422,6,1,371,260,-0.14179360683,0.478331938097,-0.0779732583494,1,1.0,1.0,0.310098877642,0,0.0,0.0,0.310375326468,0.325516013647,0.0618884625953,0.387404476242,0.263627551052,nan,nan,0.0,0.0,0.0,nan,nan,146.482976858,455.094507378,455.404606256,455.594553564,nan,nan
0,272,1423,6,1,67,47,1.0,-0.12380466598,-1.0,1,1.0,1.0,0.301950519904,0,0.0,0.0,0.315444256334,0.325459333,0.0617816387951,0.387240971795,0.263677694205,nan,nan,0.0,0.0,0.0,nan,nan,146.482976858,456.094633676,456.396584196,456.594667603,nan,nan
0,273,1424,6,0,12,8,0.942476689623,0.159273951266,-1.0,0,0.0,1.0,0.517780075315,0,0.0,0.0,0.376609824287,0.325373220131,0.0616847331984,0.38705795333,0.263688486933,nan,nan,0.0,0.0,0.0,nan,nan,146.482976858,457.094787628,457.612567704,457.594830963,nan,nan
0,274,1425,6,1,161,113,1.0,-0.223158351501,0.167490545043,1,1.0,1.0,0.261288844049,0,0.0,0.0,0.36033981309,0.326075434931,0.0626557041387,0.38873113907,0.263419730793,nan,nan,0.0,0.0,0.0,nan,nan,146.482976858,458.10325558,458.364544424,458.603257006,nan,nan
0,275,1426,6,1,209,146,0.967301840512,0.0304835193525,0.52804999659,1,1.0,1.0,0.253198930994,0,0.0,0.0,0.344089283453,0.325839847328,0.0626631412318,0.38850298856,0.263176706096,nan,nan,0.0,0.0,0.0,nan,nan,146.482976858,459.103338828,459.356537759,459.603398128,nan,nan
0,276,1427,6,1,9,6,0.918933560847,0.172916688009,-1.0,1,1.0,1.0,0.285030012485,0,0.0,0.0,0.266505929176,0.325576655602,0.0627016062372,0.388278261839,0.262875049365,nan,nan,0.0,0.0,0.0,nan,nan,146.482976858,460.103508461,460.388538473,460.603514163,nan,nan
0,277,1428,6,1,431,303,0.191957257768,0.43918128748,-0.982298765802,1,1.0,1.0,0.308866403066,0,0.0,0.0,0.282365115515,0.325430277829,0.0626355491375,0.388065826967,0.262794728692,nan,nan,0.0,0.0,0.0,nan,nan,146.482976858,461.103631623,461.412498026,461.603643597,nan,nan
0,278,1429,6,0,26,18,1.0,0.0920921692153,-1.0,0,0.0,1.0,0.52467828244,0,0.0,0.0,0.372858232663,0.325370695546,0.062530657327,0.387901352873,0.262840038219,nan,nan,0.0,0.0,0.0,nan,nan,146.482976858,462.103770465,462.628448748,462.603816936,nan,nan
0,279,1430,6,1,429,301,0.177531820842,0.442080780324,-0.901885199234,1,1.0,1.0,0.260583798867,0,0.0,0.0,0.364709494791,0.326085059657,0.0635447585718,0.389629818228,0.262540301085,nan,nan,0.0,0.0,0.0,nan,nan,146.482976858,463.103863692,463.364447491,463.603915294,nan,nan
0,280,1431,6,1,351,246,-0.175686286722,0.4701852659,0.128489978773,1,1.0,1.0,0.276469403878,0,0.0,0.0,0.353910495061,0.325851126582,0.0635514227012,0.389402549283,0.262299703881,nan,nan,0.0,0.0,0.0,nan,nan,146.482976858,464.10398999,464.380459394,464.604038171,nan,nan
0,281,1432,6,1,246,172,0.589768841079,0.215019897151,0.651339528662,1,1.0,1.0,0.276280384976,0,0.0,0.0,0.271111195907,0.325675390914,0.0635063593662,0.38918175028,0.262169031548,nan,nan,0.0,0.0,0.0,nan,nan,146.482976858,465.104121705,465.38040209,465.60416732,nan,nan
0,282,1433,6,1,401,281,-0.00506340639596,0.470796889516,-0.425203102762,1,1.0,1.0,0.347834317479,0,0.0,0.0,0.300194702111,0.325500231319,0.0634616213577,0.388961852676,0.262038609961,nan,nan,0.0,0.0,0.0,nan,nan,146.482976858,466.11258709,466.460421408,466.612630425,nan,nan
0,283,1434,6,1,307,215,-0.0113868739462,0.411053355611,0.487957006857,1,1.0,1.0,0.315656843595,0,0.0,0.0,0.313257182017,0.325579150351,0.0633632600653,0.388942410416,0.262215890286,nan,nan,0.0,0.0,0.0,nan,nan,146.482976858,467.112714814,467.428371657,467.612776965,nan,nan
0,284,1435,6,1,411,288,0.0555201669072,0.463022710015,-0.557054760163,1,1.0,1.0,0.283511870541,0,0.0,0.0,0.315667677205,0.325544212651,0.0632543372948,0.388798549946,0.262289875357,nan,nan,0.0,0.0,0.0,nan,nan,146.482976858,468.112854226,468.396366097,468.612887012,nan,nan
0,285,1436,6,1,195,137,1.0,-0.0469245268387,0.442396054288,1,1.0,1.0,0.371363088489,0,0.0,0.0,0.323510600875,0.325396730749,0.0631921629543,0.388588893703,0.262204567795,nan,nan,0.0,0.0,0.0,nan,nan,146.482976858,469.112975677,469.484338766,469.61301331,nan,nan
0,286,1437,6,1,69,48,1.0,-0.134207199312,-0.939648005704,1,1.0,1.0,0.363204467576,0,0.0,0.0,0.339359808868,0.32555745228,0.0631399160603,0.38869736834,0.262417536219,nan,nan,0.0,0.0,0.0,nan,nan,146.482976858,470.113101405,470.476305873,470.613156429,nan,nan
0,287,1438,6,1,352,247,-0.17544712699,0.470851603012,0.118673592819,1,1.0,1.0,0.363017444033,0,0.0,0.0,0.365861666699,0.325688626549,0.0630688461134,0.388757472662,0.262619780436,nan,nan,0.0,0.0,0.0,nan,nan,146.482976858,471.113256213,471.476273657,471.613279591,nan,nan
0,288,1439,6,0,465,326,0.456588679398,0.37096152752,-1.0,0,0.0,1.0,0.490828999784,0,0.0,0.0,0.405683637131,0.325818240499,0.0629975356592,0.388815776158,0.262820704839,nan,nan,0.0,0.0,0.0,nan,nan,146.482976858,472.113426986,472.604255985,472.621766359,nan,nan
0,289,1441,6,1,240,168,0.654373017221,0.188015059697,0.642463954019,1,1.0,1.0,0.298434133641,0,0.0,0.0,0.384093525819,0.326389211984,0.0636305542913,0.390019766275,0.262758657693,nan,nan,0.0,0.0,0.0,nan,nan,146.482976858,473.121817961,473.420252095,473.621867283,nan,nan
0,290,1442,6,1,65,45,1.0,-0.113312155659,-1.0,1,1.0,1.0,0.266254663467,0,0.0,0.0,0.351839265631,0.326292815162,0.0635418868533,0.389834702016,0.262750928309,nan,nan,0.0,0.0,0.0,nan,nan,146.482976858,474.121959369,474.388214033,474.622000138,nan,nan
0,291,1443,6,1,160,112,1.0,-0.227501418013,0.158297521075,1,1.0,1.0,0.338122487534,0,0.0,0.0,0.300937094881,0.32608649849,0.0635298423911,0.389616340881,0.262556656099,nan,nan,0.0,0.0,0.0,nan,nan,146.482976858,475.122114747,475.460237235,475.622127576,nan,nan
0,292,1444,6,1,427,300,0.163265173604,0.444863218481,-0.840208708629,1,1.0,1.0,0.377697374206,0,0.0,0.0,0.327358175069,0.32612771763,0.0634248628738,0.389552580504,0.262702854756,nan,nan,0.0,0.0,0.0,nan,nan,146.482976858,476.130556184,476.508253559,476.630590966,nan,nan
0,293,1445,6,1,327,229,-0.128086156831,0.445480682368,0.344176439252,1,1.0,1.0,0.377519758884,0,0.0,0.0,0.364446540208,0.326303723284,0.0633879279279,0.389691651212,0.262915795356,nan,nan,0.0,0.0,0.0,nan,nan,146.482976858,477.130681627,477.508201386,477.630728668,nan,nan
0,294,1446,6,1,202,142,1.0,-0.00802826454356,0.487596984314,1,1.0,1.0,0.313348697964,0,0.0,0.0,0.356188610351,0.326477927487,0.0633502513164,0.389828178803,0.26312767617,nan,nan,0.0,0.0,0.0,nan,nan,146.482976858,478.130812202,478.4441609,478.630848124,nan,nan
0,295,1447,6,1,18,12,0.988682696815,0.131162580546,-1.0,1,1.0,1.0,0.345190612599,0,0.0,0.0,0.345353023149,0.326433421624,0.0632473907506,0.389680812375,0.263186030873,nan,nan,0.0,0.0,0.0,nan,nan,146.482976858,479.130940781,479.476131393,479.630977558,nan,nan
0,296,1448,6,1,368,258,-0.150457169737,0.477793263397,-0.0457341785459,1,1.0,1.0,0.361023760866,0,0.0,0.0,0.339854357143,0.326496790512,0.0631498435842,0.389646634097,0.263346946928,nan,nan,0.0,0.0,0.0,nan,nan,146.482976858,480.131087035,480.492110796,480.631110983,nan,nan
0,297,1449,6,1,213,149,0.929785093221,0.0521668813814,0.548906519778,1,1.0,1.0,0.392845433205,0,0.0,0.0,0.36635326889,0.326613042938,0.0630751598664,0.389688202804,0.263537883072,nan,nan,0.0,0.0,0.0,nan,nan,146.482976858,481.131246975,481.524092408,481.63126408,nan,nan
0,298,1450,6,1,129,90,1.0,-0.310070485259,-0.146368003411,1,1.0,1.0,0.312759117689,0,0.0,0.0,0.355542770587,0.326835299281,0.0630856273111,0.389920926592,0.26374967197,nan,nan,0.0,0.0,0.0,nan,nan,146.482976858,482.131329367,482.444088485,482.631386102,nan,nan
0,299,1451,6,1,405,284,0.018463324075,0.468009379796,-0.476293327428,1,1.0,1.0,0.312578081153,0,0.0,0.0,0.339394210683,0.326788221751,0.0629852877508,0.389773509501,0.263802934,nan,nan,0.0,0.0,0.0,nan,nan,146.482976858,483.131477903,483.444055984,483.631502136,nan,nan
0,300,1452,6,1,251,176,0.535576518695,0.236509187076,0.655284151108,1,1.0,1.0,0.312086573336,0,0.0,0.0,0.312474590726,0.326740854615,0.0628855587673,0.389626413383,0.263855295848,nan,nan,0.0,0.0,0.0,nan,nan,146.482976858,484.139914494,484.452001067,484.639959254,nan,nan
0,301,1453,6,1,80,56,1.0,-0.189075709245,-0.708965549488,1,1.0,1.0,0.319968936034,0,0.0,0.0,0.314877863508,0.326692169295,0.0627866737071,0.389478843003,0.263905495588,nan,nan,0.0,0.0,0.0,nan,nan,146.482976858,485.140052481,485.460021417,485.640106364,nan,nan
0,302,1454,6,1,274,192,0.289344050657,0.322900892411,0.632670269059,1,1.0,1.0,0.35178661719,0,0.0,0.0,0.32794737552,0.326669906934,0.0626838260122,0.389353732946,0.263986080921,nan,nan,0.0,0.0,0.0,nan,nan,146.482976858,486.140198166,486.491984783,486.640218692,nan,nan
0,303,1455,6,1,378,265,-0.117450136118,0.478670924818,-0.154810124165,1,1.0,1.0,0.343640825711,0,0.0,0.0,0.338465459645,0.326752800367,0.0625968794831,0.38934967985,0.264155920884,nan,nan,0.0,0.0,0.0,nan,nan,146.482976858,487.140321042,487.483961868,487.640360101,nan,nan
0,304,1456,6,1,145,101,1.0,-0.281667413287,0.0150551701241,1,1.0,1.0,0.319491683505,0,0.0,0.0,0.338306375469,0.326808353082,0.0625013202885,0.38930967337,0.264307032793,nan,nan,0.0,0.0,0.0,nan,nan,146.482976858,488.140468722,488.459960406,488.640489249,nan,nan
0,305,1457,6,1,227,159,0.791019951953,0.125257787881,0.608066708266,1,1.0,1.0,0.35131421173,0,0.0,0.0,0.338148906982,0.326784364001,0.0624001767974,0.389184540799,0.264384187204,nan,nan,0.0,0.0,0.0,nan,nan,146.482976858,489.140586752,489.491900964,489.640628377,nan,nan
0,306,1458,6,1,384,270,-0.0924750057551,0.477945316949,-0.222479273925,1,1.0,1.0,0.327209829353,0,0.0,0.0,0.332671908196,0.326864526902,0.0623138607697,0.389178387672,0.264550666133,nan,nan,0.0,0.0,0.0,nan,nan,146.482976858,490.140713621,490.46792345,490.640744411,nan,nan
0,307,1459,6,1,109,76,1.0,-0.294638327523,-0.357773695079,1,1.0,1.0,0.319088841323,0,0.0,0.0,0.332537627469,0.326865651666,0.0622122927283,0.389077944394,0.264653358938,nan,nan,0.0,0.0,0.0,nan,nan,146.482976858,491.140826519,491.45991536,491.640867003,nan,nan
0,308,1500,6,1,39,27,1.0,0.0253789930673,-1.0,1,1.0,1.0,0.302888203878,0,0.0,0.0,0.316395624851,0.326840402282,0.0621127921957,0.388953194477,0.264727610086,nan,nan,0.0,0.0,0.0,nan,nan,146.482976858,492.14096137,492.443849574,492.641020385,nan,nan
0,309,1501,6,1,365,256,-0.157962026257,0.477016591838,-0.0139196855225,1,1.0,1.0,0.26273599593,0,0.0,0.0,0.294904347043,0.326762887077,0.0620271244844,0.388790011561,0.264735762592,nan,nan,0.0,0.0,0.0,nan,nan,146.482976858,493.141131288,493.403867284,493.641132998,nan,nan
0,310,1502,6,1,501,352,0.7564492333,0.256253544744,-1.0,1,1.0,1.0,0.262557240669,0,0.0,0.0,0.276060480159,0.326556348718,0.0620333351557,0.388589683874,0.264523013562,nan,nan,0.0,0.0,0.0,nan,nan,146.482976858,494.141255875,494.403813116,494.641266139,nan,nan
0,311,1503,6,1,234,164,0.71814774995,0.15974031316,0.62913160129,1,1.0,1.0,0.214507845696,0,1.0,0.0,0.246600360765,0.326350563805,0.062039414493,0.388389978298,0.264311149312,nan,nan,0.0,0.0,0.0,nan,nan,146.482976858,495.141350527,495.355858373,495.641392152,nan,nan
0,312,1507,6,1,130,91,1.0,-0.309333154106,-0.136071487739,1,1.0,1.0,0.206338105723,1,0.0,0.0,0.227801064029,0.325992093554,0.0622616780559,0.38825377161,0.263730415498,-4.01417569541,134.0,1.0,-0.304950998219,-0.095144111098,2.60792569541,1.75884128595,146.482976858,496.141476825,496.347814931,496.641542112,497.966711218,499.733580836
0,313,1508,6,0,350,246,-0.175756816429,0.469490941964,0.138247479403,0,1.0,0.0,0.285547463223,0,0.0,0.0,0.235464471548,0.325609812443,0.0625278085176,0.388137620961,0.263082003925,nan,nan,0.0,0.0,0.0,nan,nan,146.482976858,500.942128728,501.227676191,501.442164936,nan,nan
0,314,1509,6,1,451,317,0.343830962376,0.403518361206,-1.0,1,1.0,1.0,0.277410509065,0,0.0,0.0,0.256432026004,0.325482225344,0.0624689574039,0.387951182747,0.26301326794,nan,nan,0.0,0.0,0.0,nan,nan,146.482976858,501.942240201,502.21965071,502.442270421,nan,nan
0,315,1510,6,1,88,61,1.0,-0.225257592204,-0.599932847766,1,1.0,1.0,0.324968682136,0,0.0,0.0,0.295975551475,0.325329616721,0.0624283191344,0.387757935855,0.262901297586,nan,nan,0.0,0.0,0.0,nan,nan,146.482976858,502.950701595,503.275670277,503.450768878,nan,nan
0,316,1511,6,1,332,233,-0.146647089803,0.45205423783,0.302714191958,1,1.0,1.0,0.324770255014,0,0.0,0.0,0.309049815405,0.325328474522,0.0623294651732,0.387657939696,0.262999009349,nan,nan,0.0,0.0,0.0,nan,nan,146.482976858,503.950852126,504.275622381,504.450866096,nan,nan
0,317,1512,6,1,452,317,0.351738073422,0.401406211611,-1.0,1,1.0,1.0,0.30064990744,0,0.0,0.0,0.31679628153,0.325326713578,0.0622310839317,0.387557797509,0.263095629646,nan,nan,0.0,0.0,0.0,nan,nan,146.482976858,504.950965595,505.251615502,505.451002658,nan,nan
0,318,1513,6,1,204,143,1.0,0.00303256528985,0.499654420455,1,1.0,1.0,0.29247303959,0,0.0,0.0,0.305964400681,0.325249113558,0.0621485187253,0.387397632284,0.263100594833,nan,nan,0.0,0.0,0.0,nan,nan,146.482976858,505.951102157,506.243575196,506.451123254,nan,nan
0,319,1514,6,1,427,300,0.163265173604,0.444863218481,-0.840208708629,1,1.0,1.0,0.26033034781,0,0.0,0.0,0.284484431613,0.325146367245,0.0620780757306,0.387224442976,0.263068291514,nan,nan,0.0,0.0,0.0,nan,nan,146.482976858,506.951237292,507.21156764,507.451258105,nan,nan
0,320,1515,6,1,243,170,0.622151010882,0.20168048164,0.647463484622,1,1.0,1.0,0.268182204105,0,0.0,0.0,0.273661863835,0.324943817184,0.0620864894736,0.387030306658,0.262857327711,nan,nan,0.0,0.0,0.0,nan,nan,146.482976858,507.951341923,508.219524127,508.45137756,nan,nan
0,321,1516,6,1,153,107,1.0,-0.255547855702,0.0926213922694,1,1.0,1.0,0.2920433986,0,0.0,0.0,0.273518650172,0.324766989729,0.0620703585244,0.386837348254,0.262696631205,nan,nan,0.0,0.0,0.0,nan,nan,146.482976858,508.951466796,509.243510194,509.451534364,nan,nan
0,322,1517,6,1,45,31,1.0,-0.0063957592436,-1.0,1,1.0,1.0,0.267869737931,0,0.0,0.0,0.276031780212,0.32466536367,0.062000642343,0.386666006013,0.262664721327,nan,nan,0.0,0.0,0.0,nan,nan,146.482976858,509.951642131,510.219511868,510.451634433,nan,nan
0,323,1518,6,1,1,0,0.854939129564,0.207877072944,-1.0,1,1.0,1.0,0.243735705968,0,0.0,0.0,0.2678829475,0.324489525819,0.0619849528302,0.386474478649,0.262504572989,nan,nan,0.0,0.0,0.0,nan,nan,146.482976858,510.951741059,511.195476765,511.451768429,nan,nan
0,324,1519,6,1,212,149,0.93926288676,0.0467731277665,0.543851001166,1,1.0,1.0,0.267586066388,0,1.0,0.0,0.259730503429,0.324240285634,0.0620511153343,0.386291400969,0.2621891703,nan,nan,0.0,0.0,0.0,nan,nan,146.482976858,511.951855953,512.21944202,512.451903279,nan,nan
0,325,1524,6,1,484,340,0.614398947124,0.316112737715,-1.0,1,1.0,1.0,0.243095948361,1,0.0,0.0,0.251472573572,0.32406596496,0.0620349846896,0.386100949649,0.26203098027,114.285825156,477.0,0.555879874869,0.337784025865,-1.0,-4.59832515565,1.2422540565,146.482976858,512.96032533,513.203421278,513.460366384,514.78555288,516.035722085
0,326,1525,6,1,393,276,-0.0489456633786,0.475102171109,-0.327443230616,1,1.0,1.0,0.694363746326,0,0.0,0.0,0.401681920358,0.323817590676,0.0621013992089,0.385918989885,0.261716191467,nan,nan,0.0,0.0,0.0,nan,nan,146.482976858,517.252935501,517.947299248,517.752631303,nan,nan
0,327,1526,6,0,297,208,0.0686262056446,0.388646276542,0.544904663634,0,0.0,1.0,0.518593457062,0,0.0,0.0,0.485351050583,0.324950759348,0.0652946948325,0.39024545418,0.259656064515,nan,nan,0.0,0.0,0.0,nan,nan,146.482976858,518.252713126,518.771306583,518.752751614,nan,nan
0,328,1527,6,1,183,128,1.0,-0.113108999915,0.354902835149,1,1.0,1.0,0.246474632993,0,0.0,0.0,0.486477278794,0.325541133426,0.066063394545,0.391604527971,0.259477738881,nan,nan,0.0,0.0,0.0,nan,nan,146.482976858,519.252801221,519.499275854,519.752842845,nan,nan
0,329,1528,6,1,99,69,1.0,-0.267176270739,-0.468793303331,1,1.0,1.0,0.310336933471,0,0.0,0.0,0.358468341175,0.325300809716,0.0661063561945,0.391407165911,0.259194453522,nan,nan,0.0,0.0,0.0,nan,nan,146.482976858,520.252942059,520.563278992,520.752978836,nan,nan
0,330,1529,6,0,374,262,-0.132039125116,0.478634076427,-0.110628443238,0,0.0,1.0,0.47815900296,0,0.0,0.0,0.344990189808,0.325255464637,0.0660112432434,0.39126670788,0.259244221393,nan,nan,0.0,0.0,0.0,nan,nan,146.482976858,521.253087458,521.731246461,521.753138775,nan,nan
0,331,1530,6,1,325,228,-0.119404900653,0.442631039184,0.360186421743,1,1.0,1.0,0.222038398031,0,0.0,0.0,0.336844778154,0.325717408861,0.0664435033963,0.392160912258,0.259273905465,nan,nan,0.0,0.0,0.0,nan,nan,146.482976858,522.25319551,522.475233908,522.753233143,nan,nan
0,332,1531,6,1,408,286,0.036737934283,0.465637664749,-0.515938449969,1,1.0,1.0,0.285877890419,0,0.0,0.0,0.328691763803,0.325405122684,0.0665861977876,0.391991320472,0.258818924897,nan,nan,0.0,0.0,0.0,nan,nan,146.482976858,523.253347182,523.539225072,523.753362862,nan,nan
0,333,1532,6,1,297,208,0.0686262056446,0.388646276542,0.544904663634,1,1.0,1.0,0.293705229182,0,0.0,0.0,0.267207172544,0.325286422287,0.0665213128592,0.391807735146,0.258765109428,nan,nan,0.0,0.0,0.0,nan,nan,146.482976858,524.253481462,524.547186691,524.753495147,nan,nan
0,334,1533,6,1,152,106,1.0,-0.259184487343,0.0830625546756,1,1.0,1.0,0.237607831135,0,0.0,0.0,0.272396983579,0.325191867817,0.0664440630099,0.391635930827,0.258747804807,nan,nan,0.0,0.0,0.0,nan,nan,146.482976858,525.253583242,525.491191073,525.753624866,nan,nan
0,335,1534,6,1,427,300,0.163265173604,0.444863218481,-0.840208708629,1,1.0,1.0,0.309416640084,0,0.0,0.0,0.280243233467,0.324930422931,0.0665166520993,0.39144707503,0.258413770832,nan,nan,0.0,0.0,0.0,nan,nan,146.482976858,526.253734058,526.563150698,526.753748598,nan,nan
0,336,1535,6,1,506,355,0.797774742377,0.236703125255,-1.0,1,1.0,1.0,0.301279401407,0,0.0,0.0,0.282767957542,0.324884250958,0.0664229713728,0.391307222331,0.258461279585,nan,nan,0.0,0.0,0.0,nan,nan,146.482976858,527.25385722,527.555136621,527.753881739,nan,nan
0,337,1536,6,1,283,198,0.19826868328,0.351050922538,0.605825948857,1,1.0,1.0,0.30115424376,0,0.0,0.0,0.303950095084,0.324814206894,0.0663367739513,0.391150980846,0.258477432943,nan,nan,0.0,0.0,0.0,nan,nan,146.482976858,528.253971259,528.555125503,528.754007181,nan,nan
0,338,1537,6,1,152,106,1.0,-0.259184487343,0.0830625546756,1,1.0,1.0,0.301002857275,0,0.0,0.0,0.301145500814,0.324744207003,0.0662510335196,0.390995240523,0.258493173484,nan,nan,0.0,0.0,0.0,nan,nan,146.482976858,529.254098412,529.555101269,529.754132624,nan,nan
0,339,1538,6,1,326,229,-0.12383419111,0.444071765824,0.352223541474,1,1.0,1.0,0.260837249923,0,0.0,0.0,0.287664783653,0.324674173523,0.066165774658,0.390839948181,0.258508398865,nan,nan,0.0,0.0,0.0,nan,nan,146.482976858,530.254226706,530.515063956,530.754266049,nan,nan
0,340,1539,6,1,2,1,0.863024578927,0.203622855609,-1.0,1,1.0,1.0,0.252727095503,0,0.0,0.0,0.271522400901,0.324486417866,0.0661587788761,0.390645196742,0.25832763899,nan,nan,0.0,0.0,0.0,nan,nan,146.482976858,531.254359561,531.507086657,531.754391777,nan,nan
0,341,1540,6,1,469,329,0.489482198204,0.360453357602,-1.0,1,1.0,1.0,0.268548838794,0,0.0,0.0,0.26070439474,0.32427597997,0.0661755611142,0.390451541084,0.258100418856,nan,nan,0.0,0.0,0.0,nan,nan,146.482976858,532.25448814,532.523036979,532.754529479,nan,nan
0,342,1541,6,1,237,166,0.686387300223,0.174031846447,0.636349816437,1,1.0,1.0,0.220379418693,0,1.0,0.0,0.247218450997,0.324113035113,0.0661472153318,0.390260250445,0.257965819781,nan,nan,0.0,0.0,0.0,nan,nan,146.482976858,533.254615008,533.474994427,533.754654637,nan,nan
0,343,1546,6,1,120,84,1.0,-0.310161497659,-0.240162905937,1,1.0,1.0,0.338549563196,1,0.0,0.0,0.275825940228,0.323810604744,0.0662870907639,0.390097695508,0.257523513981,-2.04540848889,131.0,1.0,-0.308451667147,-0.125800503078,7.67040848889,1.84218882676,146.482976858,534.296452424,534.635001987,534.796457841,536.121627231,537.97186064
0,344,1547,6,1,407,286,0.0305886347219,0.46645515455,-0.502577406972,1,1.0,1.0,0.34248105064,0,0.0,0.0,0.300470010843,0.323853450554,0.0661954294174,0.390048879971,0.257658021136,nan,nan,0.0,0.0,0.0,nan,nan,146.482976858,539.180402261,539.522883311,539.680416516,nan,nan
0,345,1548,6,1,291,204,0.122027637739,0.373441943191,0.573791926984,1,1.0,1.0,0.390302367974,0,0.0,0.0,0.357110993937,0.323907443598,0.0661070098452,0.390014453443,0.257800433752,nan,nan,0.0,0.0,0.0,nan,nan,146.482976858,540.180535971,540.570838339,540.680552222,nan,nan
0,346,1549,6,1,88,61,1.0,-0.225257592204,-0.599932847766,1,1.0,1.0,0.342189681716,0,0.0,0.0,0.358324366777,0.324099336443,0.0661075652683,0.390206901711,0.257991771174,nan,nan,0.0,0.0,0.0,nan,nan,146.482976858,541.180648299,541.522837981,541.680679945,nan,nan
0,347,1550,6,0,171,120,1.0,-0.176011872558,0.256450910142,0,0.0,1.0,0.486006013583,0,0.0,0.0,0.406166021091,0.324151470002,0.0660193631916,0.390170833194,0.258132106811,nan,nan,0.0,0.0,0.0,nan,nan,146.482976858,542.180802537,542.66680855,542.680833898,nan,nan
0,348,1551,6,1,474,333,0.530901762182,0.346545376391,-1.0,1,1.0,1.0,0.237888365984,0,0.0,0.0,0.355361353761,0.324616569266,0.0664913065051,0.391107875771,0.258125262761,nan,nan,0.0,0.0,0.0,nan,nan,146.482976858,543.18091287,543.418801236,543.680945941,nan,nan
0,349,1552,6,1,234,164,0.71814774995,0.15974031316,0.62913160129,1,1.0,1.0,0.285756724421,0,0.0,0.0,0.336550367996,0.324368064385,0.066557618476,0.390925682861,0.257810445909,nan,nan,0.0,0.0,0.0,nan,nan,146.482976858,544.18104715,544.466803874,544.681067107,nan,nan
0,350,1553,6,1,110,77,1.0,-0.296722754836,-0.346921960777,1,1.0,1.0,0.301618666854,0,0.0,0.0,0.275087919086,0.324257746271,0.066494413546,0.390752159817,0.257763332725,nan,nan,0.0,0.0,0.0,nan,nan,146.482976858,545.181153776,545.482772443,545.681196541,nan,nan
0,351,1554,6,1,493,346,0.689769084006,0.285700779988,-1.0,1,1.0,1.0,0.27745469939,0,0.0,0.0,0.288276696888,0.324193247469,0.0664105878613,0.390603835331,0.257782659608,nan,nan,0.0,0.0,0.0,nan,nan,146.482976858,546.181284351,546.45873905,546.681325975,nan,nan
0,352,1555,6,1,54,37,1.0,-0.0546292063271,-1.0,1,1.0,1.0,0.261333318893,0,0.0,0.0,0.280135561712,0.324060467503,0.066362828775,0.390423296278,0.257697638728,nan,nan,0.0,0.0,0.0,nan,nan,146.482976858,547.181417491,547.44275081,547.681450848,nan,nan
0,353,1556,6,1,369,259,-0.147694689129,0.477999187239,-0.0564338676883,1,1.0,1.0,0.269121883903,0,0.0,0.0,0.269303300728,0.323882770198,0.0663525728236,0.390235343022,0.257530197375,nan,nan,0.0,0.0,0.0,nan,nan,146.482976858,548.181573724,548.450695608,548.681588264,nan,nan
0,354,1557,6,1,106,74,1.0,-0.287630069369,-0.390564445695,1,1.0,1.0,0.276999399532,0,0.0,0.0,0.269151534109,0.323728078429,0.0663225010492,0.390050579478,0.25740557738,nan,nan,0.0,0.0,0.0,nan,nan,146.482976858,549.181695175,549.458694575,549.681713137,nan,nan
0,355,1558,6,0,354,248,-0.174470673547,0.472100788149,0.0988677247603,0,1.0,0.0,0.276856280863,0,0.0,0.0,0.274325854766,0.323596448348,0.0662753128047,0.389871761152,0.257321135543,nan,nan,0.0,0.0,0.0,nan,nan,146.482976858,550.181838579,550.45869486,550.681863668,nan,nan
0,356,1559,6,1,45,31,1.0,-0.0063957592436,-1.0,1,1.0,1.0,0.23662994802,0,0.0,0.0,0.263495209472,0.323465155742,0.0662283793983,0.389693535141,0.257236776344,nan,nan,0.0,0.0,0.0,nan,nan,146.482976858,551.182001085,551.418631033,551.681977422,nan,nan
0,357,1600,6,1,121,85,1.0,-0.310732805591,-0.229640808446,1,1.0,1.0,0.308571612928,0,0.0,0.0,0.274019280604,0.323221919866,0.066294601909,0.389516521775,0.256927317957,nan,nan,0.0,0.0,0.0,nan,nan,146.482976858,552.182063806,552.490635419,552.682102294,nan,nan
0,358,1601,6,1,42,29,1.0,0.00954878589686,-1.0,1,1.0,1.0,0.244423074648,0,0.0,0.0,0.263208211865,0.323180997221,0.0662064621662,0.389387459387,0.256974535055,nan,nan,0.0,0.0,0.0,nan,nan,146.482976858,553.182202933,553.426626008,553.682232583,nan,nan
0,359,1602,6,1,228,160,0.780729811514,0.1302769546,0.611433142569,1,1.0,1.0,0.276282380801,0,0.0,0.0,0.276425689459,0.322961615821,0.0662443642172,0.389205980039,0.256717251604,nan,nan,0.0,0.0,0.0,nan,nan,146.482976858,554.18232524,554.458607621,554.682361447,nan,nan
0,360,1603,6,1,386,271,-0.0833946583454,0.477495592553,-0.245424736514,1,1.0,1.0,0.308087802958,0,0.0,0.0,0.276264419469,0.32283195128,0.0661978991598,0.389029850439,0.25663405212,nan,nan,0.0,0.0,0.0,nan,nan,146.482976858,555.182451253,555.490539056,555.682498294,nan,nan
0,361,1604,6,1,437,307,0.23613482661,0.429770237144,-1.0,1,1.0,1.0,0.267960113939,0,0.0,0.0,0.284110099232,0.322791108764,0.0661106906686,0.388901799432,0.256680418095,nan,nan,0.0,0.0,0.0,nan,nan,146.482976858,556.182591235,556.450551349,556.682622026,nan,nan
0,362,1605,6,1,113,79,1.0,-0.302191989669,-0.314576349441,1,1.0,1.0,0.290496177506,0,0.0,0.0,0.288848031467,0.322639641927,0.0660820097337,0.388721651661,0.256557632193,nan,nan,0.0,0.0,0.0,nan,nan,146.482976858,557.216093555,557.506589733,557.716096976,nan,nan
0,363,1606,6,1,459,322,0.407758158413,0.385709174134,-1.0,1,1.0,1.0,0.290377576835,0,0.0,0.0,0.28294462276,0.322551092438,0.066012427743,0.388563520181,0.256538664695,nan,nan,0.0,0.0,0.0,nan,nan,146.482976858,558.21618222,558.506559797,558.716222704,nan,nan
0,364,1607,6,1,321,225,-0.0999433513493,0.43654647086,0.391174984052,1,1.0,1.0,0.306139735505,0,0.0,0.0,0.295671163282,0.322462703659,0.0659431955668,0.388405899226,0.256519508092,nan,nan,0.0,0.0,0.0,nan,nan,146.482976858,559.216339594,559.522479329,559.716361831,nan,nan
0,365,1608,6,1,396,278,-0.0330153705648,0.473684876347,-0.363523780775,1,1.0,1.0,0.314016395248,0,0.0,0.0,0.303511235863,0.322417983198,0.0658583274905,0.388276310689,0.256559655708,nan,nan,0.0,0.0,0.0,nan,nan,146.482976858,560.21644508,560.530461475,560.716481002,nan,nan
0,366,1609,6,1,72,50,1.0,-0.149607777062,-0.853203742106,1,1.0,1.0,0.28185944818,0,0.0,0.0,0.300671859644,0.32239502804,0.0657697577425,0.388164785783,0.256625270298,nan,nan,0.0,0.0,0.0,nan,nan,146.482976858,561.216566816,561.498426265,561.716630963,nan,nan
0,367,1610,6,0,303,213,0.0191349273956,0.402522842081,0.512018356663,0,0.0,1.0,0.513667550869,0,0.0,0.0,0.369847798099,0.322284576869,0.0657140737894,0.387998650658,0.256570503079,nan,nan,0.0,0.0,0.0,nan,nan,146.482976858,562.216733028,562.730400579,562.716776078,nan,nan
0,368,1611,6,1,360,253,-0.167709501072,0.475188317955,0.0381258551808,1,1.0,1.0,0.337551153265,0,0.0,0.0,0.377692717438,0.322804639298,0.0663766939917,0.38918133329,0.256427945306,nan,nan,0.0,0.0,0.0,nan,nan,146.482976858,563.216830246,563.554381399,563.716861892,nan,nan
0,369,1612,6,1,134,94,1.0,-0.304950998219,-0.095144111098,1,1.0,1.0,0.361400943715,0,0.0,0.0,0.404206549283,0.322844602751,0.0662911247068,0.389135727457,0.256553478044,nan,nan,0.0,0.0,0.0,nan,nan,146.482976858,564.21696025,564.578361194,564.717009287,nan,nan
0,370,1613,6,1,345,242,-0.173519535469,0.465595146217,0.186119282857,1,1.0,1.0,0.345273005776,0,0.0,0.0,0.348075034252,0.322948809078,0.0662317379197,0.389180546997,0.256717071158,nan,nan,0.0,0.0,0.0,nan,nan,146.482976858,565.217104509,565.562377515,565.717127032,nan,nan
0,371,1614,6,1,290,203,0.131265381085,0.370776544741,0.578206616232,1,1.0,1.0,0.393132811412,0,0.0,0.0,0.366602253634,0.323008982114,0.0661525431552,0.38916152527,0.256856438959,nan,nan,0.0,0.0,0.0,nan,nan,146.482976858,566.217214271,566.610347083,566.717258747,nan,nan
0,372,1615,6,1,177,124,1.0,-0.145192147526,0.306921212481,1,1.0,1.0,0.312984059099,0,0.0,0.0,0.350463292096,0.323197487032,0.0661632696461,0.389360756678,0.257034217386,nan,nan,0.0,0.0,0.0,nan,nan,146.482976858,567.217349122,567.530333181,567.717391317,nan,nan
0,373,1616,6,1,392,275,-0.0541067903503,0.475522277549,-0.315549842675,1,1.0,1.0,0.304794362281,0,0.0,0.0,0.336970410931,0.323170105188,0.0660766299706,0.389246735158,0.257093475217,nan,nan,0.0,0.0,0.0,nan,nan,146.482976858,568.217492241,568.522286604,568.717516474,nan,nan
0,374,1617,6,1,152,106,1.0,-0.259184487343,0.0830625546756,1,1.0,1.0,0.304640694987,0,0.0,0.0,0.307473038789,0.323120972185,0.0659950554909,0.389116027676,0.257125916694,nan,nan,0.0,0.0,0.0,nan,nan,146.482976858,569.217626522,569.522267217,569.717644483,nan,nan
0,375,1618,6,1,408,286,0.036737934283,0.465637664749,-0.515938449969,1,1.0,1.0,0.320509764832,0,0.0,0.0,0.309981607366,0.323071691446,0.0659138937007,0.388985585147,0.257157797745,nan,nan,0.0,0.0,0.0,nan,nan,146.482976858,570.217743697,570.538253461,570.717771921,nan,nan
0,376,1619,6,0,48,33,1.0,-0.0224273256894,-1.0,0,0.0,1.0,0.504308385774,0,0.0,0.0,0.376486281864,0.323064877811,0.0658263161288,0.38889119394,0.257238561683,nan,nan,0.0,0.0,0.0,nan,nan,146.482976858,571.217911904,571.72222029,571.717963221,nan,nan
0,377,1620,6,1,458,322,0.399688045963,0.388050214986,-1.0,1,1.0,1.0,0.256224950776,0,0.0,0.0,0.360347700461,0.323545629822,0.0663966287484,0.38994225857,0.257149001073,nan,nan,0.0,0.0,0.0,nan,nan,146.482976858,572.217996578,572.474221529,572.71803364,nan,nan
0,378,1621,6,1,286,201,0.169078956243,0.359734776014,0.594698705761,1,1.0,1.0,0.424050156493,0,0.0,0.0,0.394861164348,0.323367532787,0.0663988514428,0.38976638423,0.256968681345,nan,nan,0.0,0.0,0.0,nan,nan,146.482976858,573.218139126,573.642189283,573.718163359,nan,nan
0,379,1622,6,1,33,23,1.0,0.0565990290419,-1.0,1,1.0,1.0,0.350564121269,0,0.0,0.0,0.343613076179,0.323633186148,0.0665120353107,0.390145221459,0.257121150837,nan,nan,0.0,0.0,0.0,nan,nan,146.482976858,574.251602388,574.602166509,574.751626051,nan,nan
0,380,1623,6,1,135,94,1.0,-0.303502321856,-0.0849788702499,1,1.0,1.0,0.390106221661,0,0.0,0.0,0.388240166474,0.32370405703,0.0664387893092,0.390142846339,0.257265267721,nan,nan,0.0,0.0,0.0,nan,nan,146.482976858,575.26004354,575.650149762,575.76010284,nan,nan
0,381,1624,6,1,214,150,0.920243657418,0.0575410437433,0.553854850604,1,1.0,1.0,0.333939544857,0,0.0,0.0,0.358203295929,0.323878340927,0.0664384646142,0.390316805541,0.257439876312,nan,nan,0.0,0.0,0.0,nan,nan,146.482976858,576.260180672,576.594120217,576.760221726,nan,nan
0,382,1625,6,1,281,197,0.218083397074,0.345068392493,0.612644422055,1,1.0,1.0,0.317782812286,0,0.0,0.0,0.347276192935,0.323904679157,0.0663534379285,0.390258117085,0.257551241228,nan,nan,0.0,0.0,0.0,nan,nan,146.482976858,577.26030868,577.578091492,577.760354581,nan,nan
0,383,1626,6,1,189,132,1.0,-0.0802194643608,0.400143472992,1,1.0,1.0,0.317621447146,0,0.0,0.0,0.32311460143,0.32388869517,0.0662674944107,0.390156189581,0.25762120076,nan,nan,0.0,0.0,0.0,nan,nan,146.482976858,578.260446382,578.578067829,578.760491427,nan,nan
0,384,1627,6,1,34,23,1.0,0.0514419701458,-1.0,1,1.0,1.0,0.293549566064,0,0.0,0.0,0.309651275165,0.323872374212,0.066181923129,0.390054297341,0.257690451083,nan,nan,0.0,0.0,0.0,nan,nan,146.482976858,579.260596058,579.554145624,579.760607177,nan,nan
0,385,1628,6,0,316,222,-0.0718215561597,0.428203514031,0.427892255365,0,0.0,1.0,0.485286428127,0,0.0,0.0,0.365485813779,0.323793613671,0.0661139337906,0.389907547462,0.257679679881,nan,nan,0.0,0.0,0.0,nan,nan,146.482976858,580.260750866,580.746037294,580.760784792,nan,nan
0,386,1629,6,1,132,92,1.0,-0.307426825298,-0.115555361894,1,1.0,1.0,0.261185638607,0,0.0,0.0,0.346673877599,0.324211988838,0.0665365900627,0.390748578901,0.257675398776,nan,nan,0.0,0.0,0.0,nan,nan,146.482976858,581.260831263,581.522016902,581.760866045,nan,nan
0,387,1630,6,1,364,255,-0.160194321586,0.476704516321,-0.00341124574885,1,1.0,1.0,0.269065149594,0,0.0,0.0,0.338512405443,0.324049130052,0.0665275590124,0.390576689064,0.25752157104,nan,nan,0.0,0.0,0.0,nan,nan,146.482976858,582.260961838,582.530026987,582.760996334,nan,nan
0,388,1631,6,1,91,63,1.0,-0.237709898716,-0.562722318432,1,1.0,1.0,0.308912873734,0,0.0,0.0,0.279721220645,0.323907418762,0.0665002321543,0.390407650917,0.257407186608,nan,nan,0.0,0.0,0.0,nan,nan,146.482976858,583.261088706,583.570001579,583.761125769,nan,nan
