block,trial,freq_trials,correct_response,actual_response,acc,rts,probe_trials,fast_rt_trigger,slow_rt_trigger,rt_triggered,rts_runningavg,rts_runningstd,rts_runningfastthresh,rts_runningslowthresh,rts_runningstd,rts_trailingavg,trials_colorind,trials_colorrgb0,trials_colorrgb1,trials_colorrgb2,wm_respdeg,wm_respdeg_in_colorspace,wm_respcolorminusorigcolor,wm_resptexind,wm_resptexrgb0,wm_resptexrgb1,wm_resptexrgb2,wm_rts,time_blockstart,time_encarray_offset,time_encarray_onset,time_response,time_iti_offset,time_iti_onset,time_memprobe_offset,time_memprobe_onset
1,1,1,1,1.0,1.0,0.314666416496,0,nan,nan,nan,nan,nan,nan,nan,nan,nan,173,1.0,-0.165909522591,0.273535192888,nan,nan,nan,nan,0.0,0.0,0.0,nan,146.482976858,147.496278629,147.996334223,147.810945045,nan,nan,nan,nan
1,2,1,1,1.0,1.0,0.312965242658,0,nan,nan,nan,nan,nan,nan,nan,nan,nan,124,1.0,-0.311577186586,-0.198226518473,nan,nan,nan,nan,0.0,0.0,0.0,nan,146.482976858,148.521976133,149.02146809,148.834941376,nan,nan,nan,nan
1,3,1,1,1.0,1.0,0.321035483852,0,nan,nan,nan,nan,nan,nan,nan,nan,nan,467,0.473005185182,0.365775667588,-1.0,nan,nan,nan,nan,0.0,0.0,0.0,nan,146.482976858,149.529894988,150.029938607,149.850930471,nan,nan,nan,nan
1,4,1,1,1.0,1.0,0.279213747941,0,nan,nan,nan,nan,nan,nan,nan,nan,nan,333,-0.149813480994,0.453275949072,0.294183738108,nan,nan,nan,nan,0.0,0.0,0.0,nan,146.482976858,150.571714728,151.071730978,150.850928476,nan,nan,nan,nan
1,5,1,1,1.0,1.0,0.29472901253,0,nan,nan,nan,nan,nan,nan,nan,nan,nan,41,1.0,0.0148395037771,-1.0,nan,nan,nan,nan,0.0,0.0,0.0,nan,146.482976858,151.580147327,152.080198644,151.874876339,nan,nan,nan,nan
1,6,1,1,1.0,1.0,0.374273929279,0,nan,nan,nan,nan,nan,nan,nan,nan,nan,290,0.131265381085,0.370776544741,0.578206616232,nan,nan,nan,nan,0.0,0.0,0.0,nan,146.482976858,152.588630388,153.088679425,152.962904318,nan,nan,nan,nan
1,7,1,1,1.0,1.0,0.301729284693,0,nan,nan,nan,nan,nan,nan,nan,nan,nan,363,-0.162287729338,0.476365729747,0.00704812682028,nan,nan,nan,nan,0.0,0.0,0.0,nan,146.482976858,153.597111739,154.097135687,153.898841024,nan,nan,nan,nan
1,8,1,1,1.0,1.0,0.285236992408,0,nan,nan,nan,nan,nan,nan,nan,nan,nan,263,0.405698801511,0.284171736334,0.651829885785,nan,nan,nan,nan,0.0,0.0,0.0,nan,146.482976858,154.605581686,155.105600788,154.890818679,nan,nan,nan,nan
1,9,1,1,1.0,1.0,0.236828090623,0,nan,nan,nan,nan,nan,nan,nan,nan,nan,388,-0.0739633693698,0.476941921698,-0.268577162136,nan,nan,nan,nan,0.0,0.0,0.0,nan,146.482976858,155.614018847,156.114123763,155.850846938,nan,nan,nan,nan
1,10,1,1,1.0,1.0,0.212292641401,0,nan,nan,nan,nan,nan,nan,nan,nan,nan,67,1.0,-0.12380466598,-1.0,nan,nan,nan,nan,0.0,0.0,0.0,nan,146.482976858,156.622468268,157.122556647,156.834760909,nan,nan,nan,nan
1,11,1,1,1.0,1.0,0.123140526004,0,nan,nan,nan,nan,nan,nan,nan,nan,nan,136,1.0,-0.301914900238,-0.074841205769,nan,nan,nan,nan,0.0,0.0,0.0,nan,146.482976858,157.647638912,158.147704769,157.770779438,nan,nan,nan,nan
1,12,0,0,1.0,0.0,0.242632950656,0,0.0,0.0,0.0,nan,nan,nan,nan,nan,nan,463,0.440238315199,0.376011795327,-1.0,nan,nan,nan,nan,0.0,0.0,0.0,nan,146.482976858,158.656107719,159.156158466,158.89874067,nan,nan,nan,nan
1,13,1,1,1.0,1.0,0.234176403377,0,nan,nan,nan,nan,nan,nan,nan,nan,nan,159,1.0,-0.231765974528,0.149055008463,nan,nan,nan,nan,0.0,0.0,0.0,nan,146.482976858,159.664549156,160.164586219,159.898725559,nan,nan,nan,nan
1,14,0,0,0.0,1.0,0.441679700278,0,nan,nan,nan,nan,nan,nan,nan,nan,nan,39,1.0,0.0253789930673,-1.0,nan,nan,nan,nan,0.0,0.0,0.0,nan,146.482976858,160.673002568,161.173081255,161.114682268,nan,nan,nan,nan
1,15,1,1,1.0,1.0,0.281207716558,0,nan,nan,nan,nan,nan,nan,nan,nan,nan,300,0.0433537089178,0.395748422077,0.528951029102,nan,nan,nan,nan,0.0,0.0,0.0,nan,146.482976858,161.681470519,162.181516135,161.962678235,nan,nan,nan,nan
1,16,0,0,1.0,0.0,0.31271236157,0,0.0,0.0,0.0,nan,nan,nan,nan,nan,nan,44,1.0,-0.00106984144607,-1.0,nan,nan,nan,nan,0.0,0.0,0.0,nan,146.482976858,162.689933624,163.190004328,163.002645985,nan,nan,nan,nan
1,17,1,1,1.0,1.0,0.328225915786,0,nan,nan,nan,nan,nan,nan,nan,nan,nan,275,0.279002393219,0.326185254474,0.630178474337,nan,nan,nan,nan,0.0,0.0,0.0,nan,146.482976858,163.698406137,164.198474275,164.026632052,nan,nan,nan,nan
1,18,1,1,1.0,1.0,0.3520873948,0,nan,nan,nan,nan,nan,nan,nan,nan,nan,381,-0.105403061426,0.478425078289,-0.188431136224,nan,nan,nan,nan,0.0,0.0,0.0,nan,146.482976858,164.698538992,165.198572063,165.050626387,nan,nan,nan,nan
1,19,1,1,1.0,1.0,0.375584805384,0,nan,nan,nan,nan,nan,nan,nan,nan,nan,265,0.384259149088,0.291568309415,0.649478858709,nan,nan,nan,nan,0.0,0.0,0.0,nan,146.482976858,165.707000101,166.207059401,166.082584906,nan,nan,nan,nan
1,20,1,1,1.0,1.0,0.367082927376,0,nan,nan,nan,nan,nan,nan,nan,nan,nan,311,-0.0397249783266,0.419020224334,0.462250212202,nan,nan,nan,nan,0.0,0.0,0.0,nan,146.482976858,166.715486013,167.215511957,167.082568941,nan,nan,nan,nan
1,21,1,1,1.0,1.0,0.33461921569,0,nan,nan,nan,nan,nan,nan,nan,nan,nan,507,0.805995650865,0.232688349973,-1.0,nan,nan,nan,nan,0.0,0.0,0.0,nan,146.482976858,167.723908064,168.223962233,168.05852728,nan,nan,nan,nan
1,22,1,1,1.0,1.0,0.310409917962,0,nan,nan,nan,nan,nan,nan,nan,nan,nan,221,0.851781464038,0.0945411604707,0.585422935822,nan,nan,nan,nan,0.0,0.0,0.0,nan,146.482976858,168.724092237,169.224100505,169.034502155,nan,nan,nan,nan
1,23,1,1,1.0,1.0,0.309986833949,0,nan,nan,nan,nan,nan,nan,nan,nan,nan,493,0.689769084006,0.285700779988,-1.0,nan,nan,nan,nan,0.0,0.0,0.0,nan,146.482976858,169.732523411,170.232582141,170.042510245,nan,nan,nan,nan
1,24,1,1,1.0,1.0,0.317818733864,0,nan,nan,nan,nan,nan,nan,nan,nan,nan,145,1.0,-0.281667413287,0.0150551701241,nan,nan,nan,nan,0.0,0.0,0.0,nan,146.482976858,170.732678504,171.232681925,171.050497238,nan,nan,nan,nan
1,25,1,1,1.0,1.0,0.309655266348,0,nan,nan,nan,nan,nan,nan,nan,nan,nan,374,-0.132039125116,0.478634076427,-0.110628443238,nan,nan,nan,nan,0.0,0.0,0.0,nan,146.482976858,171.732780853,172.232813925,172.04243612,nan,nan,nan,nan
1,26,1,1,1.0,1.0,0.413549748715,0,nan,nan,nan,nan,nan,nan,nan,nan,nan,204,1.0,0.00303256528985,0.499654420455,nan,nan,nan,nan,0.0,0.0,0.0,nan,146.482976858,172.732890616,173.232955618,173.146440364,nan,nan,nan,nan
1,27,0,0,0.0,1.0,0.469350645784,0,nan,nan,nan,nan,nan,nan,nan,nan,nan,300,0.0433537089178,0.395748422077,0.528951029102,nan,nan,nan,nan,0.0,0.0,0.0,nan,146.482976858,173.733075644,174.233097026,174.20242629,nan,nan,nan,nan
1,28,1,1,1.0,1.0,0.316897015553,0,nan,nan,nan,nan,nan,nan,nan,nan,nan,104,1.0,-0.282351481576,-0.412644567278,nan,nan,nan,nan,0.0,0.0,0.0,nan,146.482976858,174.741511094,175.241539889,175.058408109,nan,nan,nan,nan
1,29,1,1,1.0,1.0,0.372445032001,0,nan,nan,nan,nan,nan,nan,nan,nan,nan,452,0.351738073422,0.401406211611,-1.0,nan,nan,nan,nan,0.0,0.0,0.0,nan,146.482976858,175.749965931,176.250008125,176.122410963,nan,nan,nan,nan
1,30,1,1,1.0,1.0,0.339961933903,0,nan,nan,nan,nan,nan,nan,nan,nan,nan,293,0.103830259013,0.378659598285,0.564617056734,nan,nan,nan,nan,0.0,0.0,0.0,nan,146.482976858,176.758408509,177.258462107,177.098370443,nan,nan,nan,nan
1,31,1,1,1.0,1.0,0.339417683892,0,nan,nan,nan,nan,nan,nan,nan,nan,nan,423,0.135229581944,0.450080889006,-0.750039916123,nan,nan,nan,nan,0.0,0.0,0.0,nan,146.482976858,177.766913238,178.266953436,178.106330921,nan,nan,nan,nan
1,32,1,1,1.0,1.0,0.314933837391,0,nan,nan,nan,nan,nan,nan,nan,nan,nan,27,1.0,0.0870912575778,-1.0,nan,nan,nan,nan,0.0,0.0,0.0,nan,146.482976858,178.775375772,179.275418252,179.09030961,nan,nan,nan,nan
1,33,0,0,0.0,1.0,0.450772584416,0,nan,nan,nan,nan,nan,nan,nan,nan,nan,268,0.35230222188,0.302367520405,0.645005310408,nan,nan,nan,nan,0.0,0.0,0.0,nan,146.482976858,179.77549979,180.275543409,180.226272374,nan,nan,nan,nan
1,34,1,1,1.0,1.0,0.248934164643,0,nan,nan,nan,nan,nan,nan,nan,nan,nan,466,0.464789014893,0.368385601135,-1.0,nan,nan,nan,nan,0.0,0.0,0.0,nan,146.482976858,180.817347184,181.317335495,181.066281348,nan,nan,nan,nan
1,35,1,1,1.0,1.0,0.28850905085,0,nan,nan,nan,nan,nan,nan,nan,nan,nan,139,1.0,-0.296335611021,-0.0445992895203,nan,nan,nan,nan,0.0,0.0,0.0,nan,146.482976858,181.825729891,182.325787196,182.114238942,nan,nan,nan,nan
1,36,1,1,1.0,1.0,0.304004928563,0,nan,nan,nan,nan,nan,nan,nan,nan,nan,490,0.664660387652,0.296157848571,-1.0,nan,nan,nan,nan,0.0,0.0,0.0,nan,146.482976858,182.834223216,183.334281376,183.138228145,nan,nan,nan,nan
1,37,0,0,0.0,1.0,0.463820049074,0,nan,nan,nan,nan,nan,nan,nan,nan,nan,37,1.0,0.0358565504353,-1.0,nan,nan,nan,nan,0.0,0.0,0.0,nan,146.482976858,183.834381445,184.334414231,184.298201494,nan,nan,nan,nan
1,38,1,1,1.0,1.0,0.247715660371,0,nan,nan,nan,nan,nan,nan,nan,nan,nan,138,1.0,-0.29832987918,-0.0546508148191,nan,nan,nan,nan,0.0,0.0,0.0,nan,146.482976858,184.834480659,185.334511164,185.082196319,nan,nan,nan,nan
1,39,1,1,1.0,1.0,0.255264743697,0,nan,nan,nan,nan,nan,nan,nan,nan,nan,321,-0.0999433513493,0.43654647086,0.391174984052,nan,nan,nan,nan,0.0,0.0,0.0,nan,146.482976858,185.842920671,186.342972273,186.098185414,nan,nan,nan,nan
1,40,1,1,1.0,1.0,0.295069988351,0,nan,nan,nan,nan,nan,nan,nan,nan,nan,428,0.170378320166,0.443486568519,-0.86866140055,nan,nan,nan,nan,0.0,0.0,0.0,nan,146.482976858,186.843068351,187.343107694,187.138138339,nan,nan,nan,nan
1,41,1,1,1.0,1.0,0.302569180261,0,nan,nan,nan,nan,nan,nan,nan,nan,nan,491,0.673033477965,0.292707709811,-1.0,nan,nan,nan,nan,0.0,0.0,0.0,nan,146.482976858,187.851547991,188.351579922,188.154117172,nan,nan,nan,nan
1,42,1,1,1.0,1.0,0.310428734403,1,nan,nan,nan,nan,nan,nan,nan,nan,nan,123,1.0,-0.311441137266,-0.208672863777,-4.80560124347,94.8056012435,8.32122624347,135.0,1.0,-0.303502321856,-0.0849788702499,2.10059134848,146.482976858,188.851683698,189.351713063,189.162112432,192.79382554,193.79301615,190.676870479,192.785483886
1,43,1,1,1.0,1.0,0.327919436153,0,nan,nan,nan,nan,nan,nan,nan,nan,nan,398,-0.0220377755791,0.472608796233,-0.387943383198,nan,nan,nan,nan,0.0,0.0,0.0,nan,146.482976858,193.994073689,194.494024367,194.321993125,nan,nan,nan,nan
1,44,1,1,1.0,1.0,0.36786950985,0,nan,nan,nan,nan,nan,nan,nan,nan,nan,289,0.140592130943,0.368073254824,0.582505265782,nan,nan,nan,nan,0.0,0.0,0.0,nan,146.482976858,194.994128142,195.494148669,195.361997652,nan,nan,nan,nan
1,45,1,1,1.0,1.0,0.343722933903,0,nan,nan,nan,nan,nan,nan,nan,nan,nan,82,1.0,-0.198479155091,-0.679872484948,nan,nan,nan,nan,0.0,0.0,0.0,nan,146.482976858,195.994243036,196.494303762,196.33796597,nan,nan,nan,nan
1,46,1,1,1.0,1.0,0.319225687999,0,nan,nan,nan,nan,nan,nan,nan,nan,nan,418,0.101175887384,0.455961754156,-0.661679309199,nan,nan,nan,nan,0.0,0.0,0.0,nan,146.482976858,197.002710987,197.502752041,197.321936675,nan,nan,nan,nan
1,47,0,0,0.0,1.0,0.439067641739,0,nan,nan,nan,nan,nan,nan,nan,nan,nan,146,1.0,-0.278792578557,0.0248813210997,nan,nan,nan,nan,0.0,0.0,0.0,nan,146.482976858,198.002839566,198.502903998,198.441907208,nan,nan,nan,nan
1,48,1,1,1.0,1.0,0.262595728505,0,nan,nan,nan,nan,nan,nan,nan,nan,nan,373,-0.135407706169,0.478559568072,-0.0996974893599,nan,nan,nan,nan,0.0,0.0,0.0,nan,146.482976858,199.011307233,199.511358265,199.273902961,nan,nan,nan,nan
1,49,1,1,1.0,1.0,0.310402505565,0,nan,nan,nan,nan,nan,nan,nan,nan,nan,70,1.0,-0.13936984996,-0.906436913284,nan,nan,nan,nan,0.0,0.0,0.0,nan,146.482976858,200.011445505,200.51150566,200.32184801,nan,nan,nan,nan
1,50,1,1,1.0,1.0,0.270279948134,1,nan,nan,nan,nan,nan,nan,nan,nan,nan,454,0.367627362238,0.397084843583,-1.0,156.139824809,293.860175191,-25.3585748087,418.0,0.101175887384,0.455961754156,-0.661679309199,1.76722456329,146.482976858,201.01157893,201.511600597,201.281858878,204.620373089,205.620435526,202.836769988,204.612022313
1,51,1,1,1.0,1.0,0.28492139047,0,nan,nan,nan,nan,nan,nan,nan,nan,nan,150,1.0,-0.266152531622,0.0638227105866,nan,nan,nan,nan,0.0,0.0,0.0,nan,146.482976858,205.828852274,206.328891617,206.113773664,nan,nan,nan,nan
1,52,1,1,1.0,1.0,0.316741637886,0,nan,nan,nan,nan,nan,nan,nan,nan,nan,431,0.191957257768,0.43918128748,-0.982298765802,nan,nan,nan,nan,0.0,0.0,0.0,nan,146.482976858,206.828991686,207.329027609,207.145733324,nan,nan,nan,nan
1,53,1,1,1.0,1.0,0.300599445123,0,nan,nan,nan,nan,nan,nan,nan,nan,nan,186,1.0,-0.0967386681424,0.377881386018,nan,nan,nan,nan,0.0,0.0,0.0,nan,146.482976858,207.829121975,208.329163314,208.12972142,nan,nan,nan,nan
1,54,1,1,1.0,1.0,0.300462313462,0,nan,nan,nan,nan,nan,nan,nan,nan,nan,251,0.535576518695,0.236509187076,0.655284151108,nan,nan,nan,nan,0.0,0.0,0.0,nan,146.482976858,208.829238295,209.329293319,209.129700609,nan,nan,nan,nan
1,55,1,1,1.0,1.0,0.251958189066,0,nan,nan,nan,nan,nan,nan,nan,nan,nan,169,1.0,-0.185917379452,0.239118302078,nan,nan,nan,nan,0.0,0.0,0.0,nan,146.482976858,209.837711093,210.337743024,210.089669282,nan,nan,nan,nan
1,56,1,1,1.0,1.0,0.259806054179,0,nan,nan,nan,nan,nan,nan,nan,nan,nan,377,-0.121259861678,0.478700828387,-0.143695900877,nan,nan,nan,nan,0.0,0.0,0.0,nan,146.482976858,210.837839672,211.337874739,211.097645726,nan,nan,nan,nan
1,57,1,1,1.0,1.0,0.315683642868,0,nan,nan,nan,nan,nan,nan,nan,nan,nan,21,1.0,0.116713997928,-1.0,nan,nan,nan,nan,0.0,0.0,0.0,nan,146.482976858,211.837963974,212.338008449,212.153647617,nan,nan,nan,nan
1,58,1,1,1.0,1.0,0.291154466104,0,nan,nan,nan,nan,nan,nan,nan,nan,nan,433,0.206536295144,0.436163724167,-1.0,nan,nan,nan,nan,0.0,0.0,0.0,nan,146.482976858,212.846441334,213.346466422,213.1375958,nan,nan,nan,nan
1,59,1,1,1.0,1.0,0.299032837152,0,nan,nan,nan,nan,nan,nan,nan,nan,nan,241,0.64365311028,0.192605941253,0.644254782112,nan,nan,nan,nan,0.0,0.0,0.0,nan,146.482976858,213.846558508,214.346602984,214.145591346,nan,nan,nan,nan
1,60,1,1,1.0,1.0,0.265216055326,0,nan,nan,nan,nan,nan,nan,nan,nan,nan,179,1.0,-0.13461441766,0.323204131591,nan,nan,nan,nan,0.0,0.0,0.0,nan,146.482976858,214.88838338,215.388398775,215.153599435,nan,nan,nan,nan
1,61,1,1,1.0,1.0,0.393066098914,0,nan,nan,nan,nan,nan,nan,nan,nan,nan,325,-0.119404900653,0.442631039184,0.360186421743,nan,nan,nan,nan,0.0,0.0,0.0,nan,146.482976858,215.888484875,216.38852992,216.281550974,nan,nan,nan,nan
1,62,1,1,1.0,1.0,0.344917490147,0,nan,nan,nan,nan,nan,nan,nan,nan,nan,490,0.664660387652,0.296157848571,-1.0,nan,nan,nan,nan,0.0,0.0,0.0,nan,146.482976858,216.888623147,217.388666767,217.233540637,nan,nan,nan,nan
1,63,1,1,1.0,1.0,0.368748749141,0,nan,nan,nan,nan,nan,nan,nan,nan,nan,309,-0.0258396312562,0.415106541901,0.475305697888,nan,nan,nan,nan,0.0,0.0,0.0,nan,146.482976858,217.888746024,218.388791069,218.257494773,nan,nan,nan,nan
1,64,1,1,1.0,1.0,0.424594121985,0,nan,nan,nan,nan,nan,nan,nan,nan,nan,190,1.0,-0.0746884387243,0.407399635172,nan,nan,nan,nan,0.0,0.0,0.0,nan,146.482976858,218.888877453,219.388913376,219.313471575,nan,nan,nan,nan
1,65,1,1,1.0,1.0,0.392107317224,1,nan,nan,nan,nan,nan,nan,nan,nan,nan,455,0.375608248681,0.394875365091,-1.0,145.400552025,304.599447975,-15.3224270248,433.0,0.206536295144,0.436163724167,-1.0,1.51726176869,146.482976858,219.897338563,220.397379046,220.28944588,223.256099508,224.256117184,221.722553568,223.247769258
1,66,1,1,1.0,1.0,0.313096102327,0,nan,nan,nan,nan,nan,nan,nan,nan,nan,103,1.0,-0.279537473278,-0.423758835275,nan,nan,nan,nan,0.0,0.0,0.0,nan,146.482976858,224.456275242,224.95632827,224.769371344,nan,nan,nan,nan
1,67,1,1,1.0,1.0,0.360930248629,0,nan,nan,nan,nan,nan,nan,nan,nan,nan,336,-0.158211608236,0.456758111158,0.268135266647,nan,nan,nan,nan,0.0,0.0,0.0,nan,146.482976858,225.456420926,225.956439458,225.817351175,nan,nan,nan,nan
1,68,1,1,1.0,1.0,0.320797428023,1,nan,nan,nan,nan,nan,nan,nan,nan,nan,385,-0.0879796604702,0.477733444059,-0.233926720364,-159.353009175,249.353009175,-21.350115825,355.0,-0.173737462994,0.472683863687,0.0888799762457,1.89229947282,146.482976858,226.456527268,226.956566896,226.777324696,230.190344164,231.190360414,228.281738567,230.182006787
1,69,1,1,1.0,1.0,0.298685873859,0,nan,nan,nan,nan,nan,nan,nan,nan,nan,440,0.258699398066,0.424657399123,-1.0,nan,nan,nan,nan,0.0,0.0,0.0,nan,146.482976858,231.390517617,231.890545271,231.689203491,nan,nan,nan,nan
1,70,1,1,1.0,1.0,0.338558971416,0,nan,nan,nan,nan,nan,nan,nan,nan,nan,506,0.797774742377,0.236703125255,-1.0,nan,nan,nan,nan,0.0,0.0,0.0,nan,146.482976858,232.39064477,232.890694092,232.729203741,nan,nan,nan,nan
1,71,1,1,1.0,1.0,0.370423694141,0,nan,nan,nan,nan,nan,nan,nan,nan,nan,271,0.320642857732,0.312811632898,0.639400143054,nan,nan,nan,nan,0.0,0.0,0.0,nan,146.482976858,233.390772493,233.890833504,233.761196187,nan,nan,nan,nan
1,72,1,1,1.0,1.0,0.354274658952,0,nan,nan,nan,nan,nan,nan,nan,nan,nan,50,1.0,-0.033148730948,-1.0,nan,nan,nan,nan,0.0,0.0,0.0,nan,146.482976858,234.390895655,234.890924735,234.745170314,nan,nan,nan,nan
1,73,1,1,1.0,1.0,0.297790954355,0,nan,nan,nan,nan,nan,nan,nan,nan,nan,116,1.0,-0.306446923025,-0.282515442494,nan,nan,nan,nan,0.0,0.0,0.0,nan,146.482976858,235.399354483,235.89938898,235.697145438,nan,nan,nan,nan
1,74,1,1,1.0,1.0,0.305293282028,0,nan,nan,nan,nan,nan,nan,nan,nan,nan,502,0.764740937618,0.25241357569,-1.0,nan,nan,nan,nan,0.0,0.0,0.0,nan,146.482976858,236.407824431,236.907858357,236.713117713,nan,nan,nan,nan
1,75,1,1,1.0,1.0,0.313164525665,0,nan,nan,nan,nan,nan,nan,nan,nan,nan,40,1.0,0.0201165467467,-1.0,nan,nan,nan,nan,0.0,0.0,0.0,nan,146.482976858,237.407945312,237.908001761,237.721109837,nan,nan,nan,nan
1,76,1,1,1.0,1.0,0.305008185562,0,nan,nan,nan,nan,nan,nan,nan,nan,nan,389,-0.0691208065164,0.476626077068,-0.280234315682,nan,nan,nan,nan,0.0,0.0,0.0,nan,146.482976858,238.408077026,238.908122357,238.713085212,nan,nan,nan,nan
1,77,1,1,1.0,1.0,0.272846391425,0,nan,nan,nan,nan,nan,nan,nan,nan,nan,110,1.0,-0.296722754836,-0.346921960777,nan,nan,nan,nan,0.0,0.0,0.0,nan,146.482976858,239.408205035,239.9082478,239.681051427,nan,nan,nan,nan
1,78,1,1,1.0,1.0,0.256713892333,0,nan,nan,nan,nan,nan,nan,nan,nan,nan,391,-0.0591907973189,0.475916278612,-0.303718712187,nan,nan,nan,nan,0.0,0.0,0.0,nan,146.482976858,240.408335894,240.9083798,240.665049787,nan,nan,nan,nan
1,79,1,1,1.0,1.0,0.264539519791,0,nan,nan,nan,nan,nan,nan,nan,nan,nan,120,1.0,-0.310161497659,-0.240162905937,nan,nan,nan,nan,0.0,0.0,0.0,nan,146.482976858,241.408463333,241.908502391,241.673002853,nan,nan,nan,nan
1,80,0,0,1.0,0.0,0.280349574517,0,0.0,0.0,0.0,nan,nan,nan,nan,nan,nan,359,-0.169222339917,0.474741883077,0.0483828026834,nan,nan,nan,nan,0.0,0.0,0.0,nan,146.482976858,242.408647221,242.908685994,242.688996795,nan,nan,nan,nan
1,81,1,1,1.0,1.0,0.22392032342,0,0.0,0.0,0.0,0.317627537466,0.058044469484,0.259583067982,0.37567200695,0.058044469484,0.256269805909,120,1.0,-0.310161497659,-0.240162905937,nan,nan,nan,nan,0.0,0.0,0.0,nan,146.482976858,243.41707982,243.917131708,243.641000143,nan,nan,nan,nan
1,82,1,1,1.0,1.0,0.303744635545,0,0.0,0.0,0.0,0.31647065828,0.0586057626894,0.257864895591,0.37507642097,0.0586057626894,0.269338177827,48,1.0,-0.0224273256894,-1.0,nan,nan,nan,nan,0.0,0.0,0.0,nan,146.482976858,244.41719956,244.917248312,244.720944196,nan,nan,nan,nan
1,83,1,1,1.0,1.0,0.335276934784,0,0.0,0.0,0.0,0.316315462881,0.05826405888,0.258051404001,0.374579521761,0.05826405888,0.287647297916,418,0.101175887384,0.455961754156,-0.661679309199,nan,nan,nan,nan,0.0,0.0,0.0,nan,146.482976858,245.42567692,245.925696877,245.760953855,nan,nan,nan,nan
1,84,1,1,1.0,1.0,0.287234952208,0,0.0,0.0,0.0,0.31654391435,0.0579489442224,0.258594970127,0.374492858572,0.0579489442224,0.308752174179,286,0.169078956243,0.359734776014,0.594698705761,nan,nan,nan,nan,0.0,0.0,0.0,nan,146.482976858,246.425802363,246.925848263,246.713037315,nan,nan,nan,nan
1,85,1,1,1.0,1.0,0.28664138075,0,0.0,0.0,0.0,0.316194998134,0.0576906198757,0.258504378258,0.373885618009,0.0576906198757,0.303051089247,169,1.0,-0.185917379452,0.239118302078,nan,nan,nan,nan,0.0,0.0,0.0,nan,146.482976858,247.434262617,247.934298539,247.720903997,nan,nan,nan,nan
1,86,1,1,1.0,1.0,0.310489745345,0,0.0,0.0,0.0,0.315847308517,0.0574387224412,0.258408586076,0.373286030959,0.0574387224412,0.294788692767,431,0.191957257768,0.43918128748,-0.982298765802,nan,nan,nan,nan,0.0,0.0,0.0,nan,146.482976858,248.434407731,248.93441828,248.744897476,nan,nan,nan,nan
1,87,0,0,1.0,0.0,0.286298694089,0,0.0,0.0,0.0,0.315785011271,0.0571066882771,0.258678322994,0.372891699548,0.0571066882771,0.294476606728,153,1.0,-0.255547855702,0.0926213922694,nan,nan,nan,nan,0.0,0.0,0.0,nan,146.482976858,249.434543152,249.934578504,249.720841846,nan,nan,nan,nan
1,88,1,1,1.0,1.0,0.197870153934,0,0.0,0.0,0.0,0.315446088085,0.0568644688427,0.258581619242,0.372310556928,0.0568644688427,0.264886197789,457,0.391639248186,0.390358177281,-1.0,nan,nan,nan,nan,0.0,0.0,0.0,nan,146.482976858,250.442989721,250.943045885,250.640859875,nan,nan,nan,nan
1,89,1,1,1.0,1.0,0.317693291698,0,0.0,0.0,0.0,0.314109997924,0.0578975788768,0.256212419048,0.372007576801,0.0578975788768,0.267287379907,290,0.131265381085,0.370776544741,0.578206616232,nan,nan,nan,nan,0.0,0.0,0.0,nan,146.482976858,251.443106611,251.943139397,251.760799902,nan,nan,nan,nan
1,90,1,1,1.0,1.0,0.389555413742,0,0.0,0.0,0.0,0.314150259652,0.0575726316092,0.256577628043,0.371722891261,0.0575726316092,0.301706286458,502,0.764740937618,0.25241357569,-1.0,nan,nan,nan,nan,0.0,0.0,0.0,nan,146.482976858,252.44323576,252.943296771,252.832791174,nan,nan,nan,nan
1,91,1,1,1.0,1.0,0.309089634102,0,0.0,0.0,0.0,0.314988094698,0.0577949309781,0.257193163719,0.372783025676,0.0577949309781,0.338779446514,187,1.0,-0.0912463489427,0.385383214542,nan,nan,nan,nan,0.0,0.0,0.0,nan,146.482976858,253.451682899,253.951734502,253.760772533,nan,nan,nan,nan
1,92,1,1,1.0,1.0,0.316908134613,0,0.0,0.0,0.0,0.314923276449,0.0574797884897,0.25744348796,0.372403064939,0.0574797884897,0.338517727486,40,1.0,0.0201165467467,-1.0,nan,nan,nan,nan,0.0,0.0,0.0,nan,146.482976858,254.451851106,254.95186194,254.768759241,nan,nan,nan,nan
1,93,1,1,1.0,1.0,0.300787894055,0,0.0,0.0,0.0,0.314944850995,0.057166915272,0.257777935723,0.372111766267,0.057166915272,0.308928554257,351,-0.175686286722,0.4701852659,0.128489978773,nan,nan,nan,nan,0.0,0.0,0.0,nan,146.482976858,255.451953741,255.95199508,255.752741635,nan,nan,nan,nan
1,94,1,1,1.0,1.0,0.356626709457,0,0.0,0.0,0.0,0.314792625651,0.0568774796165,0.257915146035,0.371670105268,0.0568774796165,0.324774246042,247,0.578947625354,0.219392674348,0.6523805853,nan,nan,nan,nan,0.0,0.0,0.0,nan,146.482976858,256.452084886,256.95215559,256.808711595,nan,nan,nan,nan
1,95,1,1,1.0,1.0,0.316488756333,0,0.0,0.0,0.0,0.315237669096,0.0567366918994,0.258500977196,0.371974360995,0.0567366918994,0.324634453282,120,1.0,-0.310161497659,-0.240162905937,nan,nan,nan,nan,0.0,0.0,0.0,nan,146.482976858,257.452212895,257.952255659,257.768701651,nan,nan,nan,nan
1,96,1,1,1.0,1.0,0.308290221728,0,0.0,0.0,0.0,0.315250838435,0.056437432172,0.258813406263,0.371688270607,0.056437432172,0.327135229173,448,0.32026743599,0.409662251776,-1.0,nan,nan,nan,nan,0.0,0.0,0.0,nan,146.482976858,258.452385664,258.952400488,258.760675885,nan,nan,nan,nan
1,97,1,1,1.0,1.0,0.268159396946,0,0.0,0.0,0.0,0.315178332011,0.0561471654228,0.259031166588,0.371325497434,0.0561471654228,0.297646125002,374,-0.132039125116,0.478634076427,-0.110628443238,nan,nan,nan,nan,0.0,0.0,0.0,nan,146.482976858,259.452486873,259.95252308,259.72064627,nan,nan,nan,nan
1,98,1,1,1.0,1.0,0.348015639,0,0.0,0.0,0.0,0.314693600722,0.0560585473097,0.258635053412,0.370752148032,0.0560585473097,0.308155085891,464,0.448404880525,0.373503555275,-1.0,nan,nan,nan,nan,0.0,0.0,0.0,nan,146.482976858,260.452625715,260.952669905,260.800641354,nan,nan,nan,nan
1,99,0,0,0.0,1.0,0.44384529721,0,0.0,0.0,0.0,0.315033621521,0.0558722502877,0.259161371233,0.370905871808,0.0558722502877,0.353340111052,216,0.900975005756,0.0682271079607,0.563426584804,nan,nan,nan,nan,0.0,0.0,0.0,nan,146.482976858,261.452768549,261.952800194,261.896613846,nan,nan,nan,nan
1,100,1,1,1.0,1.0,0.275715322699,0,0.0,0.0,0.0,0.316334749558,0.0570621020749,0.259272647483,0.373396851633,0.0570621020749,0.35585875297,27,1.0,0.0870912575778,-1.0,nan,nan,nan,nan,0.0,0.0,0.0,nan,146.482976858,262.452876315,262.952910812,262.728591638,nan,nan,nan,nan
1,101,1,1,1.0,1.0,0.395570105407,0,0.0,0.0,0.0,0.315928555289,0.0569197421188,0.25900881317,0.372848297408,0.0569197421188,0.371710241772,148,1.0,-0.272695592461,0.0444264621409,nan,nan,nan,nan,0.0,0.0,0.0,nan,146.482976858,263.452992065,263.953030268,263.84856217,nan,nan,nan,nan
1,102,0,0,1.0,0.0,0.443408528809,0,0.0,0.0,0.0,0.316717085488,0.0571835399208,0.259533545568,0.373900625409,0.0571835399208,0.371564652305,405,0.018463324075,0.468009379796,-0.476293327428,nan,nan,nan,nan,0.0,0.0,0.0,nan,146.482976858,264.45315571,264.95318536,264.896564239,nan,nan,nan,nan
1,103,1,1,1.0,1.0,0.307309203316,0,0.0,0.0,0.0,0.317959158462,0.0582556100823,0.25970354838,0.376214768544,0.0582556100823,0.382095945844,114,1.0,-0.303747463913,-0.303859371662,nan,nan,nan,nan,0.0,0.0,0.0,nan,146.482976858,265.453249507,265.953293982,265.76055871,nan,nan,nan,nan
1,104,1,1,1.0,1.0,0.363121218979,0,0.0,0.0,0.0,0.317855760839,0.0579815306367,0.259874230203,0.375837291476,0.0579815306367,0.371279650368,26,1.0,0.0920921692153,-1.0,nan,nan,nan,nan,0.0,0.0,0.0,nan,146.482976858,266.453382078,266.953426267,266.816503297,nan,nan,nan,nan
1,105,1,1,1.0,1.0,0.402962101158,0,0.0,0.0,0.0,0.318291005629,0.0578709292744,0.260420076355,0.376161934904,0.0578709292744,0.357797507818,157,1.0,-0.240048375319,0.130425901556,nan,nan,nan,nan,0.0,0.0,0.0,nan,146.482976858,267.453516643,267.953548859,267.856478744,nan,nan,nan,nan
1,106,1,1,1.0,1.0,0.346798560582,0,0.0,0.0,0.0,0.319097397015,0.0581788326508,0.260918564364,0.377276229666,0.0581788326508,0.370960626906,505,0.789537956352,0.240683140511,-1.0,nan,nan,nan,nan,0.0,0.0,0.0,nan,146.482976858,268.453659762,268.953691978,268.800458322,nan,nan,nan,nan
1,107,1,1,1.0,1.0,0.410317318514,0,0.0,1.0,0.0,0.319358728747,0.0579656416592,0.261393087088,0.377324370406,0.0579656416592,0.386692660085,404,0.0124894593597,0.468746268022,-0.463349101315,nan,nan,nan,nan,0.0,0.0,0.0,nan,146.482976858,269.462126003,269.962169053,269.872443321,nan,nan,nan,nan
1,108,1,1,1.0,1.0,0.345839208923,1,0.0,0.0,1.0,0.320208809025,0.0583542034879,0.261854605537,0.378563012513,0.0583542034879,0.367651696006,74,1.0,-0.159715158178,-0.810443278181,27.8304148425,62.1695851575,10.1383351575,88.0,1.0,-0.225257592204,-0.599932847766,2.33392643044,146.482976858,270.470587967,270.970634153,270.816427176,274.646079432,275.645949997,272.295779025,274.637744335
1,109,1,1,1.0,1.0,0.306049074046,0,0.0,0.0,0.0,0.320446127543,0.0581352695232,0.26231085802,0.378581397066,0.0581352695232,0.354068533828,218,0.881467392804,0.0788246127756,0.572559633417,nan,nan,nan,nan,0.0,0.0,0.0,nan,146.482976858,275.846264574,276.346345541,276.152313648,nan,nan,nan,nan
1,110,1,1,1.0,1.0,0.337908380199,0,0.0,0.0,0.0,0.320314044483,0.0578842570457,0.262429787437,0.378198301529,0.0578842570457,0.329932221056,109,1.0,-0.294638327523,-0.357773695079,nan,nan,nan,nan,0.0,0.0,0.0,nan,146.482976858,276.846398569,277.346441334,277.184306949,nan,nan,nan,nan
1,111,0,0,0.0,1.0,0.457699301187,0,0.0,0.0,0.0,0.32047399299,0.0576447389981,0.262829253992,0.378118731988,0.0576447389981,0.367218918477,339,-0.164955840019,0.45996923152,0.241423096872,nan,nan,nan,nan,0.0,0.0,0.0,nan,146.482976858,277.846560219,278.346588729,278.30425952,nan,nan,nan,nan
1,112,1,1,1.0,1.0,0.289590423927,0,0.0,0.0,0.0,0.321710257027,0.0588310982339,0.262879158794,0.380541355261,0.0588310982339,0.361732701771,411,0.0555201669072,0.463022710015,-0.557054760163,nan,nan,nan,nan,0.0,0.0,0.0,nan,146.482976858,278.84666599,279.346716452,279.136256414,nan,nan,nan,nan
1,113,0,0,0.0,1.0,0.481418231968,0,0.0,0.0,0.0,0.321423472803,0.0586457558042,0.262777716999,0.380069228608,0.0586457558042,0.409569319027,463,0.440238315199,0.376011795327,-1.0,nan,nan,nan,nan,0.0,0.0,0.0,nan,146.482976858,279.846821653,280.346847027,280.328239885,nan,nan,nan,nan
1,114,1,1,1.0,1.0,0.273311954923,0,0.0,0.0,0.0,0.322839355628,0.0602778340656,0.262561521562,0.383117189693,0.0602778340656,0.348106870273,412,0.0618891196837,0.462096609288,-0.571158935758,nan,nan,nan,nan,0.0,0.0,0.0,nan,146.482976858,280.846924573,281.346951942,281.120236528,nan,nan,nan,nan
1,115,0,0,1.0,0.0,0.305096280295,0,0.0,0.0,0.0,0.322404904744,0.0601903121246,0.26221459262,0.382595216869,0.0601903121246,0.353275489062,253,0.513865899396,0.244839928328,0.655977188727,nan,nan,nan,nan,0.0,0.0,0.0,nan,146.482976858,281.847092495,282.347116443,282.152188776,nan,nan,nan,nan
1,116,1,1,1.0,1.0,0.353006262332,0,0.0,0.0,0.0,0.322254394967,0.0599495862234,0.262304808743,0.38220398119,0.0599495862234,0.310471499184,141,1.0,-0.291952736687,-0.024586852943,nan,nan,nan,nan,0.0,0.0,0.0,nan,146.482976858,282.847199692,283.347217938,283.200205954,nan,nan,nan,nan
1,117,1,1,1.0,1.0,0.368828576524,0,0.0,0.0,0.0,0.322519497271,0.0597582851791,0.262761212092,0.382277782451,0.0597582851791,0.34231037305,376,-0.124962824795,0.478704673615,-0.132627625282,nan,nan,nan,nan,0.0,0.0,0.0,nan,146.482976858,283.847314871,284.347351648,284.216143447,nan,nan,nan,nan
1,118,1,1,1.0,1.0,0.312691549771,0,0.0,0.0,0.0,0.322915301368,0.0596548698132,0.263260431554,0.382570171181,0.0596548698132,0.344842129542,478,0.56422249903,0.334793662244,-1.0,nan,nan,nan,nan,0.0,0.0,0.0,nan,146.482976858,284.847434612,285.347470249,285.160126161,nan,nan,nan,nan
1,119,1,1,1.0,1.0,0.296205244493,0,0.0,0.0,0.0,0.322828659405,0.0594089495558,0.263419709849,0.382237608961,0.0594089495558,0.325908456929,73,1.0,-0.1546788618,-0.830916872461,nan,nan,nan,nan,0.0,0.0,0.0,nan,146.482976858,285.855905414,286.355933924,286.152110659,nan,nan,nan,nan
1,120,1,1,1.0,1.0,0.368031729944,0,0.0,0.0,0.0,0.322604933229,0.0592087034946,0.263396229735,0.381813636724,0.0592087034946,0.325642841402,452,0.351738073422,0.401406211611,-1.0,nan,nan,nan,nan,0.0,0.0,0.0,nan,146.482976858,286.856044542,287.356067064,287.224076272,nan,nan,nan,nan
1,121,1,1,1.0,1.0,0.327886649873,0,0.0,0.0,0.0,0.322983489869,0.0591059215178,0.263877568351,0.382089411386,0.0591059215178,0.33070787477,70,1.0,-0.13936984996,-0.906436913284,nan,nan,nan,nan,0.0,0.0,0.0,nan,146.482976858,287.856179392,288.356208472,288.184066042,nan,nan,nan,nan
1,122,1,1,1.0,1.0,0.303414492868,0,0.0,0.0,0.0,0.323024011852,0.0588628492266,0.264161162625,0.381886861079,0.0588628492266,0.333110957562,456,0.383612429175,0.392633185378,-1.0,nan,nan,nan,nan,0.0,0.0,0.0,nan,146.482976858,288.864625676,289.364667586,289.168040169,nan,nan,nan,nan
1,123,1,1,1.0,1.0,0.342275211122,0,0.0,0.0,0.0,0.32286327809,0.0586477689981,0.264215509092,0.381511047088,0.0586477689981,0.324525451288,404,0.0124894593597,0.468746268022,-0.463349101315,nan,nan,nan,nan,0.0,0.0,0.0,nan,146.482976858,289.889769807,290.389801738,290.232045018,nan,nan,nan,nan
1,124,1,1,1.0,1.0,0.358135442715,0,0.0,0.0,0.0,0.323021098684,0.0584348833737,0.26458621531,0.381455982057,0.0584348833737,0.334608382235,155,1.0,-0.2479831371,0.111611878621,nan,nan,nan,nan,0.0,0.0,0.0,nan,146.482976858,290.88989753,291.389931742,291.248032973,nan,nan,nan,nan
1,125,1,1,1.0,1.0,0.413930352777,0,0.0,0.0,0.0,0.323304278877,0.0582834599762,0.265020818901,0.381587738854,0.0582834599762,0.371447002205,250,0.546428449327,0.232286661223,0.654747725831,nan,nan,nan,nan,0.0,0.0,0.0,nan,146.482976858,291.89004122,292.390068874,292.303971572,nan,nan,nan,nan
1,126,0,0,0.0,1.0,0.429777470417,0,0.0,0.0,0.0,0.324029287469,0.0586085749515,0.265420712517,0.38263786242,0.0586085749515,0.40061442197,78,1.0,-0.179467652321,-0.739907630878,nan,nan,nan,nan,0.0,0.0,0.0,nan,146.482976858,292.890176355,293.39020572,293.319953826,nan,nan,nan,nan
1,127,1,1,1.0,1.0,0.261363824364,0,0.0,0.0,0.0,0.324868558762,0.0591248718253,0.265743686937,0.383993430587,0.0591248718253,0.368357215853,189,1.0,-0.0802194643608,0.400143472992,nan,nan,nan,nan,0.0,0.0,0.0,nan,146.482976858,293.898620644,294.398652859,294.159984468,nan,nan,nan,nan
1,128,1,1,1.0,1.0,0.293178369757,0,0.0,0.0,0.0,0.324368521483,0.0591585122482,0.265210009235,0.383527033731,0.0591585122482,0.328106554846,456,0.383612429175,0.392633185378,-1.0,nan,nan,nan,nan,0.0,0.0,0.0,nan,146.482976858,294.898734968,295.398772886,295.191913337,nan,nan,nan,nan
1,129,1,1,1.0,1.0,0.308986998629,0,0.0,0.0,0.0,0.324124848423,0.0589909209735,0.265133927449,0.383115769396,0.0589909209735,0.28784306425,147,1.0,-0.275801134503,0.0346720467303,nan,nan,nan,nan,0.0,0.0,0.0,nan,146.482976858,295.898892912,296.398902605,296.20787991,nan,nan,nan,nan
1,130,1,1,1.0,1.0,0.276896764524,0,0.0,0.0,0.0,0.32400750075,0.058776825249,0.265230675501,0.382784325999,0.058776825249,0.29302071097,67,1.0,-0.12380466598,-1.0,nan,nan,nan,nan,0.0,0.0,0.0,nan,146.482976858,296.899008946,297.399030328,297.175905711,nan,nan,nan,nan
1,131,0,0,0.0,1.0,0.48469114583,0,0.0,0.0,0.0,0.323645110471,0.0586948174907,0.264950292981,0.382339927962,0.0586948174907,0.356858302994,229,0.770397026975,0.135265939772,0.614681466938,nan,nan,nan,nan,0.0,0.0,0.0,nan,146.482976858,297.899164894,298.399233032,298.38385604,nan,nan,nan,nan
1,132,1,1,1.0,1.0,0.292280599475,0,0.0,0.0,0.0,0.32487446952,0.0601269934769,0.264747476043,0.385001462997,0.0601269934769,0.351289503276,387,-0.0787219327085,0.477231755363,-0.256974454483,nan,nan,nan,nan,0.0,0.0,0.0,nan,146.482976858,298.907577537,299.407634556,299.199858136,nan,nan,nan,nan
1,133,1,1,1.0,1.0,0.276113317814,0,0.0,0.0,0.0,0.324627546262,0.0599654422146,0.264662104047,0.384592988477,0.0599654422146,0.351028354373,120,1.0,-0.310161497659,-0.240162905937,nan,nan,nan,nan,0.0,0.0,0.0,nan,146.482976858,299.907736621,300.407775679,300.183849939,nan,nan,nan,nan
1,134,1,1,1.0,1.0,0.315931962337,0,0.0,0.0,0.0,0.324262777627,0.0598864022506,0.264376375376,0.384149179878,0.0598864022506,0.294775293209,233,0.728670395113,0.154909781369,0.626482233315,nan,nan,nan,nan,0.0,0.0,0.0,nan,146.482976858,300.90786748,301.407890003,301.223799442,nan,nan,nan,nan
1,135,1,1,1.0,1.0,0.29977751011,0,0.0,0.0,0.0,0.324200607364,0.0596668350069,0.264533772357,0.383867442371,0.0596668350069,0.29727426342,83,1.0,-0.203097876184,-0.665876706514,nan,nan,nan,nan,0.0,0.0,0.0,nan,146.482976858,301.907986081,302.40801459,302.207763591,nan,nan,nan,nan
1,136,0,0,0.0,1.0,0.427615294699,0,0.0,0.0,0.0,0.324019695532,0.0594823129652,0.264537382567,0.383502008497,0.0594823129652,0.347774922382,259,0.44882283482,0.268906983076,0.655011783756,nan,nan,nan,nan,0.0,0.0,0.0,nan,146.482976858,302.90814545,303.408171679,303.335760744,nan,nan,nan,nan
1,137,1,1,1.0,1.0,0.275173638016,0,0.0,0.0,0.0,0.324781427879,0.0599204611318,0.264860966747,0.384701889011,0.0599204611318,0.334188814275,182,1.0,-0.118523835432,0.347089474713,nan,nan,nan,nan,0.0,0.0,0.0,nan,146.482976858,303.916563794,304.416617678,304.191737432,nan,nan,nan,nan
1,138,1,1,1.0,1.0,0.299032837152,0,0.0,0.0,0.0,0.324419327223,0.059850528897,0.264568798326,0.38426985612,0.059850528897,0.333940589956,413,0.0683106243366,0.461143133648,-0.585495598612,nan,nan,nan,nan,0.0,0.0,0.0,nan,146.482976858,304.916702922,305.41675709,305.215735759,nan,nan,nan,nan
1,139,1,1,1.0,1.0,0.304769273847,0,0.0,0.0,0.0,0.32423536715,0.0596721453022,0.264563221848,0.383907512452,0.0596721453022,0.292991916339,26,1.0,0.0920921692153,-1.0,nan,nan,nan,nan,0.0,0.0,0.0,nan,146.482976858,305.966905654,306.466876004,306.271674928,nan,nan,nan,nan
1,140,1,1,1.0,1.0,0.352680966724,0,0.0,0.0,0.0,0.324095323313,0.0594798655448,0.264615457768,0.383575188858,0.0594798655448,0.318827692575,345,-0.173519535469,0.465595146217,0.186119282857,nan,nan,nan,nan,0.0,0.0,0.0,nan,146.482976858,306.966993749,307.467007434,307.319674716,nan,nan,nan,nan
1,141,1,1,1.0,1.0,0.328529828694,0,0.0,0.0,0.0,0.324299506481,0.0593159256277,0.264983580853,0.383615432108,0.0593159256277,0.328660023088,242,0.632911854383,0.197161183215,0.645921401967,nan,nan,nan,nan,0.0,0.0,0.0,nan,146.482976858,307.967115486,308.467167373,308.295645314,nan,nan,nan,nan
1,142,1,1,1.0,1.0,0.336044130847,0,0.0,0.0,0.0,0.324329508766,0.0591062772426,0.265223231523,0.383435786008,0.0591062772426,0.339084975421,93,1.0,-0.245614297951,-0.538619881923,nan,nan,nan,nan,0.0,0.0,0.0,nan,146.482976858,308.975572888,309.475595981,309.311617019,nan,nan,nan,nan
1,143,1,1,1.0,1.0,0.335921538994,0,0.0,0.0,0.0,0.324412006104,0.0589059347593,0.265506071345,0.383317940864,0.0589059347593,0.333498499511,321,-0.0999433513493,0.43654647086,0.391174984052,nan,nan,nan,nan,0.0,0.0,0.0,nan,146.482976858,309.975689778,310.475728266,310.311611317,nan,nan,nan,nan
1,144,0,0,0.0,1.0,0.503723081667,0,0.0,0.0,0.0,0.324492492348,0.0587074435822,0.265785048766,0.383199935931,0.0587074435822,0.391896250503,238,0.675741828754,0.178727669763,0.638511091232,nan,nan,nan,nan,0.0,0.0,0.0,nan,146.482976858,310.975854849,311.47590132,311.479577931,nan,nan,nan,nan
1,145,1,1,1.0,1.0,0.311582522001,0,0.0,0.0,0.0,0.325737149219,0.0603668855735,0.265370263645,0.386104034792,0.0603668855735,0.383742380887,420,0.1146601879,0.45369410126,-0.695047497311,nan,nan,nan,nan,0.0,0.0,0.0,nan,146.482976858,311.97596062,312.475992266,312.287543142,nan,nan,nan,nan
1,146,1,1,1.0,1.0,0.287136878818,0,0.0,0.0,0.0,0.3256395311,0.0601697677299,0.26546976337,0.38580929883,0.0601697677299,0.367480827495,93,1.0,-0.245614297951,-0.538619881923,nan,nan,nan,nan,0.0,0.0,0.0,nan,146.482976858,312.984408045,313.484459077,313.271544924,nan,nan,nan,nan
1,147,1,1,1.0,1.0,0.23897287529,0,0.0,0.0,0.0,0.325375814303,0.060047380721,0.265328433582,0.385423195024,0.060047380721,0.279230758703,189,1.0,-0.0802194643608,0.400143472992,nan,nan,nan,nan,0.0,0.0,0.0,nan,146.482976858,313.984557435,314.48457169,314.223530311,nan,nan,nan,nan
1,148,1,1,1.0,1.0,0.269139274955,0,0.0,0.0,0.0,0.324788039208,0.0602627534907,0.264525285717,0.385050792699,0.0602627534907,0.265083009688,66,1.0,-0.118568705386,-1.0,nan,nan,nan,nan,0.0,0.0,0.0,nan,146.482976858,315.02636064,315.526384588,315.295499915,nan,nan,nan,nan
1,149,1,1,1.0,1.0,0.276696626563,0,1.0,0.0,0.0,0.324412034044,0.0602315902741,0.26418044377,0.384643624318,0.0602315902741,0.261602925602,191,1.0,-0.0691479807067,0.414571651978,nan,nan,nan,nan,0.0,0.0,0.0,nan,146.482976858,316.034799797,316.534859097,316.311496423,nan,nan,nan,nan
1,150,0,0,0.0,1.0,0.476505155209,1,0.0,0.0,1.0,0.32409179641,0.0601554173334,0.263936379077,0.384247213744,0.0601554173334,0.340780352242,441,0.266287261384,0.422891888867,-1.0,148.642914776,301.357085224,-8.72103977599,429.0,0.177531820842,0.442080780324,-0.901885199234,1.76735570841,146.482976858,317.034977412,317.535006492,317.511482567,320.643719398,321.643596522,318.860151079,320.635413953
1,151,1,1,1.0,1.0,0.267445228528,0,0.0,0.0,0.0,0.325107885469,0.0612240381628,0.263883847306,0.386331923632,0.0612240381628,0.3402156701,193,1.0,-0.0580453890011,0.428658791268,nan,nan,nan,nan,0.0,0.0,0.0,nan,146.482976858,321.843907392,322.343939323,322.11135262,nan,nan,nan,nan
1,152,1,1,1.0,1.0,0.307259025984,0,0.0,0.0,0.0,0.324726013568,0.0611999431676,0.263526070401,0.385925956736,0.0611999431676,0.350403136574,434,0.213881816697,0.43461034373,-1.0,nan,nan,nan,nan,0.0,0.0,0.0,nan,146.482976858,322.844085862,323.344069612,323.151344888,nan,nan,nan,nan
1,153,1,1,1.0,1.0,0.267160131596,0,0.0,0.0,0.0,0.324611099176,0.0610146379141,0.263596461262,0.385625737091,0.0610146379141,0.280621462036,4,0.879126049628,0.195014037372,-1.0,nan,nan,nan,nan,0.0,0.0,0.0,nan,146.482976858,323.84415115,324.344220428,324.111311281,nan,nan,nan,nan
1,154,1,1,1.0,1.0,0.363017444033,0,0.0,0.0,0.0,0.324235602656,0.0609908660838,0.263244736573,0.38522646874,0.0609908660838,0.312478867204,451,0.343830962376,0.403518361206,-1.0,nan,nan,nan,nan,0.0,0.0,0.0,nan,146.482976858,324.844295694,325.344323633,325.207313138,nan,nan,nan,nan
1,155,1,1,1.0,1.0,0.370876428206,0,0.0,0.0,0.0,0.324487432795,0.0608722733393,0.263615159456,0.385359706134,0.0608722733393,0.333684667945,261,0.427225806086,0.276617811781,0.653674462902,nan,nan,nan,nan,0.0,0.0,0.0,nan,146.482976858,325.844411158,326.344455348,326.215287586,nan,nan,nan,nan
1,156,1,1,1.0,1.0,0.378402418923,0,0.0,0.0,0.0,0.324786716637,0.0607891564656,0.263997560171,0.385575873102,0.0607891564656,0.370765430387,382,-0.1011887567,0.478291136399,-0.199732273247,nan,nan,nan,nan,0.0,0.0,0.0,nan,146.482976858,326.852865139,327.352918168,327.231267558,nan,nan,nan,nan
1,157,1,1,1.0,1.0,0.402217997704,0,0.0,0.0,0.0,0.325130407036,0.0607448982567,0.264385508779,0.385875305292,0.0607448982567,0.383832281611,94,1.0,-0.249439013202,-0.526745155233,nan,nan,nan,nan,0.0,0.0,0.0,nan,146.482976858,327.853011394,328.353043325,328.255229392,nan,nan,nan,nan
1,158,1,1,1.0,1.0,0.330068497453,0,0.0,0.0,0.0,0.325621410798,0.0608608992461,0.264760511552,0.386482310044,0.0608608992461,0.370229638026,378,-0.117450136118,0.478670924818,-0.154810124165,nan,nan,nan,nan,0.0,0.0,0.0,nan,146.482976858,328.853149096,329.353178176,329.183217593,nan,nan,nan,nan
1,159,1,1,1.0,1.0,0.32990342658,0,0.0,0.0,0.0,0.325649556916,0.0606690207981,0.264980536118,0.386318577714,0.0606690207981,0.354063307246,287,0.159501648714,0.36255249221,0.590751920292,nan,nan,nan,nan,0.0,0.0,0.0,nan,146.482976858,329.853297061,330.353308465,330.183200488,nan,nan,nan,nan
1,160,1,1,1.0,1.0,0.289461845066,0,0.0,0.0,0.0,0.325676310813,0.0604788717703,0.265197439043,0.386155182584,0.0604788717703,0.316477923033,381,-0.105403061426,0.478425078289,-0.188431136224,nan,nan,nan,nan,0.0,0.0,0.0,nan,146.482976858,330.861720538,331.361770715,331.151182383,nan,nan,nan,nan
1,161,1,1,1.0,1.0,0.345290967263,0,0.0,0.0,0.0,0.325449970402,0.0603570949485,0.265092875454,0.385807065351,0.0603570949485,0.321552079637,148,1.0,-0.272695592461,0.0444264621409,nan,nan,nan,nan,0.0,0.0,0.0,nan,146.482976858,331.861868503,332.361909272,332.20715947,nan,nan,nan,nan
1,162,1,1,1.0,1.0,0.377090972848,0,0.0,0.0,0.0,0.325573206408,0.0601895476848,0.265383658723,0.385762754093,0.0601895476848,0.337281261726,289,0.140592130943,0.368073254824,0.582505265782,nan,nan,nan,nan,0.0,0.0,0.0,nan,146.482976858,332.862064935,333.362033289,333.239155908,nan,nan,nan,nan
1,163,1,1,1.0,1.0,0.296675654594,0,0.0,0.0,0.0,0.325891217312,0.0601390129728,0.265752204339,0.386030230285,0.0601390129728,0.339685864902,506,0.797774742377,0.236703125255,-1.0,nan,nan,nan,nan,0.0,0.0,0.0,nan,146.482976858,333.870465889,334.370508653,334.167141543,nan,nan,nan,nan
1,164,1,1,1.0,1.0,0.312488560565,0,0.0,0.0,0.0,0.325711980731,0.059997640822,0.265714339909,0.385709621553,0.059997640822,0.328751729336,297,0.0686262056446,0.388646276542,0.544904663634,nan,nan,nan,nan,0.0,0.0,0.0,nan,146.482976858,334.870595893,335.370623547,335.183084453,nan,nan,nan,nan
1,165,1,1,1.0,1.0,0.336002221797,0,0.0,0.0,0.0,0.32563135012,0.059823299157,0.265808050963,0.385454649277,0.059823299157,0.315055478985,29,1.0,0.0770173926463,-1.0,nan,nan,nan,nan,0.0,0.0,0.0,nan,146.482976858,335.879055006,336.379087222,336.215057228,nan,nan,nan,nan
1,166,1,1,1.0,1.0,0.319908210542,0,0.0,0.0,0.0,0.325694203888,0.0596471722586,0.266047031629,0.385341376146,0.0596471722586,0.322799664301,175,1.0,-0.155629953633,0.290361762956,nan,nan,nan,nan,0.0,0.0,0.0,nan,146.482976858,336.879189857,337.379238038,337.199098067,nan,nan,nan,nan
1,167,1,1,1.0,1.0,0.27943013655,0,0.0,0.0,0.0,0.325659348506,0.0594689261366,0.266190422369,0.385128274643,0.0594689261366,0.31178018963,66,1.0,-0.118568705386,-1.0,nan,nan,nan,nan,0.0,0.0,0.0,nan,146.482976858,337.887636711,338.387684893,338.167066848,nan,nan,nan,nan
1,168,1,1,1.0,1.0,0.263242328539,0,0.0,0.0,0.0,0.325382526878,0.0593977846914,0.265984742186,0.384780311569,0.0593977846914,0.287526891877,160,1.0,-0.227501418013,0.158297521075,nan,nan,nan,nan,0.0,0.0,0.0,nan,146.482976858,338.887765575,339.38782231,339.151007904,nan,nan,nan,nan
1,169,1,1,1.0,1.0,0.271079360042,0,0.0,0.0,0.0,0.325012644745,0.0594133317212,0.265599313023,0.384425976466,0.0594133317212,0.271250608377,472,0.51429864939,0.352212277195,-1.0,nan,nan,nan,nan,0.0,0.0,0.0,nan,146.482976858,339.887922664,340.387939484,340.159002024,nan,nan,nan,nan
1,170,1,1,1.0,1.0,0.294910049066,0,0.0,0.0,0.0,0.324693512882,0.0593815352456,0.265311977637,0.384075048128,0.0593815352456,0.276410579216,161,1.0,-0.223158351501,0.167490545043,nan,nan,nan,nan,0.0,0.0,0.0,nan,146.482976858,340.888055804,341.388076331,341.182965853,nan,nan,nan,nan
1,171,1,1,1.0,1.0,0.414808737114,0,0.0,0.0,0.0,0.324518316036,0.0592504164195,0.265267899617,0.383768732456,0.0592504164195,0.326932715407,296,0.0772713571413,0.386205321608,0.550001308524,nan,nan,nan,nan,0.0,0.0,0.0,nan,146.482976858,341.888159579,342.388213748,342.302968316,nan,nan,nan,nan
1,172,1,1,1.0,1.0,0.310608915985,0,0.0,0.0,0.0,0.325046330195,0.0594766994191,0.265569630776,0.384523029614,0.0594766994191,0.340109234055,431,0.191957257768,0.43918128748,-0.982298765802,nan,nan,nan,nan,0.0,0.0,0.0,nan,146.482976858,342.888315242,343.388335769,343.198924158,nan,nan,nan,nan
1,173,1,1,1.0,1.0,0.390474281739,0,0.0,0.0,0.0,0.32496239174,0.0593137071099,0.26564868463,0.38427609885,0.0593137071099,0.371963978279,149,1.0,-0.269478519393,0.0541436597792,nan,nan,nan,nan,0.0,0.0,0.0,nan,146.482976858,343.888444961,344.388453799,344.278919243,nan,nan,nan,nan
1,174,1,1,1.0,1.0,0.310344060883,0,0.0,0.0,0.0,0.325341073185,0.0593501866794,0.265990886506,0.384691259865,0.0593501866794,0.337142419536,4,0.879126049628,0.195014037372,-1.0,nan,nan,nan,nan,0.0,0.0,0.0,nan,146.482976858,344.888574395,345.388620866,345.198918456,nan,nan,nan,nan
1,175,1,1,1.0,1.0,0.27018073434,0,0.0,0.0,0.0,0.325254883459,0.0591902515941,0.266064631865,0.384445135053,0.0591902515941,0.323666358987,308,-0.0186828559465,0.413097475488,0.481682330771,nan,nan,nan,nan,0.0,0.0,0.0,nan,146.482976858,345.888688719,346.388721791,346.158869454,nan,nan,nan,nan
1,176,1,1,1.0,1.0,0.262042070273,0,0.0,0.0,0.0,0.324940174036,0.0591667074979,0.265773466538,0.384106881534,0.0591667074979,0.280855621832,185,1.0,-0.102214474652,0.370299946716,nan,nan,nan,nan,0.0,0.0,0.0,nan,146.482976858,346.888820434,347.388843242,347.150862504,nan,nan,nan,nan
1,177,1,1,1.0,1.0,0.277884340379,0,0.0,0.0,0.0,0.324582798446,0.0591874941938,0.265395304252,0.38377029264,0.0591874941938,0.270035714998,509,0.822386376617,0.224555004187,-1.0,nan,nan,nan,nan,0.0,0.0,0.0,nan,146.482976858,347.888933333,348.388974386,348.166817673,nan,nan,nan,nan
1,178,1,1,1.0,1.0,0.269403275102,0,0.0,0.0,0.0,0.32431896535,0.0591237566332,0.265195208717,0.383442721983,0.0591237566332,0.269776561918,399,-0.0164460389312,0.472031251936,-0.400274523968,nan,nan,nan,nan,0.0,0.0,0.0,nan,146.482976858,348.897395867,349.397446329,349.166799142,nan,nan,nan,nan
1,179,1,1,1.0,1.0,0.317276764661,0,0.0,0.0,0.0,0.324010450236,0.0591001474663,0.26491030277,0.383110597702,0.0591001474663,0.288188126714,138,1.0,-0.29832987918,-0.0546508148191,nan,nan,nan,nan,0.0,0.0,0.0,nan,146.482976858,349.897530718,350.397568066,350.214807482,nan,nan,nan,nan
1,180,1,1,1.0,1.0,0.357109378558,0,0.0,0.0,0.0,0.323972831881,0.0589369690701,0.265035862811,0.382909800951,0.0589369690701,0.314596472774,292,0.112881669716,0.376069582356,0.569261850688,nan,nan,nan,nan,0.0,0.0,0.0,nan,146.482976858,350.897663003,351.397696645,351.254772381,nan,nan,nan,nan
1,181,1,1,1.0,1.0,0.356606182177,0,0.0,0.0,0.0,0.324156923807,0.0588246123093,0.265332311497,0.382981536116,0.0588246123093,0.343664108465,366,-0.155593376329,0.477302029306,-0.0244766492797,nan,nan,nan,nan,0.0,0.0,0.0,nan,146.482976858,351.906140077,352.40616431,352.26274626,nan,nan,nan,nan
1,182,1,1,1.0,1.0,0.292110396083,0,0.0,0.0,0.0,0.324336201477,0.058711178044,0.265625023433,0.383047379521,0.058711178044,0.335275318939,470,0.497741612616,0.357740777197,-1.0,nan,nan,nan,nan,0.0,0.0,0.0,nan,146.482976858,352.914601472,353.414633403,353.206711868,nan,nan,nan,nan
1,183,1,1,1.0,1.0,0.355961007997,0,0.0,0.0,0.0,0.324159136613,0.0585981020123,0.2655610346,0.382757238625,0.0585981020123,0.334892528752,330,-0.139766326074,0.449518327743,0.319540245599,nan,nan,nan,nan,0.0,0.0,0.0,nan,146.482976858,353.914740599,354.414778232,354.270701607,nan,nan,nan,nan
1,184,1,1,1.0,1.0,0.307848606724,0,0.0,0.0,0.0,0.324332917331,0.0584847870692,0.265848130261,0.3828177044,0.0584847870692,0.318640003602,153,1.0,-0.255547855702,0.0926213922694,nan,nan,nan,nan,0.0,0.0,0.0,nan,146.482976858,354.914889134,355.414887709,355.222737741,nan,nan,nan,nan
1,185,1,1,1.0,1.0,0.25936158793,0,0.0,0.0,0.0,0.324243328686,0.058338234348,0.265905094338,0.382581563034,0.058338234348,0.307723734217,379,-0.113535935895,0.478614986251,-0.165970515924,nan,nan,nan,nan,0.0,0.0,0.0,nan,146.482976858,355.92332544,356.423355945,356.182687028,nan,nan,nan,nan
1,186,1,1,1.0,1.0,0.267225133721,0,0.0,0.0,0.0,0.323892616574,0.0583745228327,0.265518093741,0.382267139406,0.0583745228327,0.278145109459,256,0.481312611765,0.257047908656,0.656065722404,nan,nan,nan,nan,0.0,0.0,0.0,nan,146.482976858,356.923443185,357.423477112,357.190668319,nan,nan,nan,nan
1,187,1,1,1.0,1.0,0.243003291544,0,1.0,0.0,0.0,0.323587952687,0.0583646835202,0.265223269167,0.381952636208,0.0583646835202,0.256530004398,173,1.0,-0.165909522591,0.273535192888,nan,nan,nan,nan,0.0,0.0,0.0,nan,146.482976858,357.923594572,358.423610822,358.166597863,nan,nan,nan,nan
1,188,1,1,1.0,1.0,0.250550094992,1,0.0,0.0,1.0,0.323157018671,0.0585043674711,0.264652651199,0.381661386142,0.0585043674711,0.253592840085,129,1.0,-0.310070485259,-0.146368003411,-2.57914750028,92.5791475003,1.87602250028,132.0,1.0,-0.307426825298,-0.115555361894,2.21726558916,146.482976858,358.932033443,359.432071931,359.182583538,362.990869198,363.99011084,360.757247594,362.982536098
1,189,1,1,1.0,1.0,0.319507363718,0,0.0,0.0,0.0,0.32277081163,0.0585870889092,0.264183722721,0.381357900539,0.0585870889092,0.271020250084,262,0.416452475899,0.2804144186,0.652815538838,nan,nan,nan,nan,0.0,0.0,0.0,nan,146.482976858,364.191042936,364.691098815,364.5105503,nan,nan,nan,nan
1,190,1,1,1.0,1.0,0.303252272774,0,0.0,0.0,0.0,0.32275354471,0.0584323706796,0.26432117403,0.381185915389,0.0584323706796,0.291103243828,403,0.00657627305109,0.469456436931,-0.450524507496,nan,nan,nan,nan,0.0,0.0,0.0,nan,146.482976858,365.191204586,365.691224828,365.494456859,nan,nan,nan,nan
1,191,1,1,1.0,1.0,0.335147215519,0,0.0,0.0,0.0,0.322650906436,0.0582954780815,0.264355428355,0.380946384518,0.0582954780815,0.319302284004,218,0.881467392804,0.0788246127756,0.572559633417,nan,nan,nan,nan,0.0,0.0,0.0,nan,146.482976858,366.191306651,366.691370513,366.526453867,nan,nan,nan,nan
1,192,0,0,0.0,1.0,0.478944160044,0,0.0,0.0,0.0,0.322716332138,0.058149665423,0.264566666715,0.380865997561,0.058149665423,0.372447882779,500,0.748145934353,0.260058294274,-1.0,nan,nan,nan,nan,0.0,0.0,0.0,nan,146.482976858,367.191475714,367.691501087,367.670419874,nan,nan,nan,nan
1,193,1,1,1.0,1.0,0.366702893283,0,0.0,0.0,0.0,0.323530018742,0.0590781738102,0.264451844932,0.382608192552,0.0590781738102,0.393598089616,215,0.910639861846,0.0628947364355,0.558695148714,nan,nan,nan,nan,0.0,0.0,0.0,nan,146.482976858,368.191704361,368.691602867,368.558407255,nan,nan,nan,nan
1,194,1,1,1.0,1.0,0.32668952737,0,0.0,0.0,0.0,0.323753712392,0.0590063893433,0.264747323049,0.382760101736,0.0590063893433,0.390778860232,57,1.0,-0.0707313323512,-1.0,nan,nan,nan,nan,0.0,0.0,0.0,nan,146.482976858,369.191707497,369.691740854,369.518397025,nan,nan,nan,nan
1,195,1,1,1.0,1.0,0.318527770694,0,0.0,0.0,0.0,0.323768845459,0.0588544900303,0.264914355429,0.38262333549,0.0588544900303,0.337306730449,2,0.863024578927,0.203622855609,-1.0,nan,nan,nan,nan,0.0,0.0,0.0,nan,146.482976858,370.191855463,370.691865441,370.510383233,nan,nan,nan,nan
1,196,1,1,1.0,1.0,0.326419255696,0,0.0,0.0,0.0,0.323741968153,0.058704580757,0.265037387396,0.38244654891,0.058704580757,0.323878851254,126,1.0,-0.311411754845,-0.177408431044,nan,nan,nan,nan,0.0,0.0,0.0,nan,146.482976858,371.1919638,371.691998581,371.518383055,nan,nan,nan,nan
1,197,1,1,1.0,1.0,0.406225036364,0,0.0,0.0,0.0,0.323755627783,0.0585549433534,0.26520068443,0.382310571137,0.0585549433534,0.350390687585,330,-0.139766326074,0.449518327743,0.319540245599,nan,nan,nan,nan,0.0,0.0,0.0,nan,146.482976858,372.192089812,372.6921417,372.598314849,nan,nan,nan,nan
1,198,1,1,1.0,1.0,0.39006402716,0,0.0,0.0,0.0,0.324174254223,0.0586994509671,0.265474803255,0.38287370519,0.0586994509671,0.374236106407,250,0.546428449327,0.232286661223,0.654747725831,nan,nan,nan,nan,0.0,0.0,0.0,nan,146.482976858,373.192241199,373.692254313,373.582305226,nan,nan,nan,nan
1,199,1,1,1.0,1.0,0.373913281132,0,0.0,1.0,0.0,0.324507030854,0.0587370345779,0.265769996276,0.383244065431,0.0587370345779,0.390067448219,125,1.0,-0.311567427947,-0.187805059354,nan,nan,nan,nan,0.0,0.0,0.0,nan,146.482976858,374.192372629,374.69242024,374.56628591,nan,nan,nan,nan
1,200,1,1,1.0,1.0,0.397755659651,1,0.0,0.0,1.0,0.324755303468,0.0586933295195,0.266061973949,0.383448632988,0.0586933295195,0.387244322648,317,-0.077772836126,0.429938605076,0.420733606481,-146.456281529,236.456281529,13.5656565287,336.0,-0.158211608236,0.456758111158,0.268135266647,1.80050137173,146.482976858,375.192501207,375.692523445,375.590256867,378.834580728,379.834653998,377.017713077,378.826247912
1,201,1,1,1.0,1.0,0.28338386165,0,0.0,0.0,0.0,0.325120305249,0.0587723951285,0.26634791012,0.383892700378,0.0587723951285,0.351684267477,51,1.0,-0.0385160204876,-1.0,nan,nan,nan,nan,0.0,0.0,0.0,nan,146.482976858,380.034782976,380.534813481,380.318166838,nan,nan,nan,nan
1,202,1,1,1.0,1.0,0.299256352708,0,0.0,0.0,0.0,0.324912661251,0.0586995109708,0.26621315028,0.383612172222,0.0586995109708,0.32679862467,494,0.698129958021,0.282143999684,-1.0,nan,nan,nan,nan,0.0,0.0,0.0,nan,146.482976858,381.034901291,381.534947477,381.334157644,nan,nan,nan,nan
1,203,1,1,1.0,1.0,0.299116940703,0,0.0,0.0,0.0,0.324785649823,0.0585817165474,0.266203933275,0.38336736637,0.0585817165474,0.293919051687,22,1.0,0.111842423158,-1.0,nan,nan,nan,nan,0.0,0.0,0.0,nan,146.482976858,382.035028444,382.5350752,382.334145385,nan,nan,nan,nan
1,204,0,0,0.0,1.0,0.458880743477,0,0.0,0.0,0.0,0.32465920298,0.0584648761828,0.266194326797,0.383124079162,0.0584648761828,0.352418012296,496,0.714833717156,0.274923884212,-1.0,nan,nan,nan,nan,0.0,0.0,0.0,nan,146.482976858,383.035215468,383.535225731,383.494096211,nan,nan,nan,nan
1,205,1,1,1.0,1.0,0.266435415018,0,0.0,0.0,0.0,0.325317151708,0.0590699936141,0.266247158093,0.384387145322,0.0590699936141,0.341477699733,250,0.546428449327,0.232286661223,0.654747725831,nan,nan,nan,nan,0.0,0.0,0.0,nan,146.482976858,384.043623264,384.543666313,384.310058679,nan,nan,nan,nan
1,206,1,1,1.0,1.0,0.298305269331,0,0.0,0.0,0.0,0.325029923724,0.0590683784056,0.265961545318,0.384098302129,0.0590683784056,0.341207142609,7,0.9030914636,0.181853060355,-1.0,nan,nan,nan,nan,0.0,0.0,0.0,nan,146.482976858,385.043752413,385.543804015,385.342057682,nan,nan,nan,nan
1,207,1,1,1.0,1.0,0.321843448561,0,0.0,0.0,0.0,0.324900192392,0.0589541031065,0.265946089285,0.383854295498,0.0589541031065,0.295528044303,89,1.0,-0.229484098413,-0.587370487375,nan,nan,nan,nan,0.0,0.0,0.0,nan,146.482976858,386.052203258,386.552256857,386.374046707,nan,nan,nan,nan
1,208,1,1,1.0,1.0,0.384321602993,0,0.0,0.0,0.0,0.324885425513,0.0588119113934,0.26607351412,0.383697336907,0.0588119113934,0.334823440295,355,-0.173737462994,0.472683863687,0.0888799762457,nan,nan,nan,nan,0.0,0.0,0.0,nan,146.482976858,387.085703583,387.585723824,387.470025185,nan,nan,nan,nan
1,209,0,0,0.0,1.0,0.536157428287,0,0.0,0.0,0.0,0.325171176367,0.0588142343632,0.266356942003,0.38398541073,0.0588142343632,0.41410749328,489,0.656284860842,0.299572439858,-1.0,nan,nan,nan,nan,0.0,0.0,0.0,nan,146.482976858,388.085847557,388.585911418,388.622004985,nan,nan,nan,nan
1,210,1,1,1.0,1.0,0.264042310417,0,0.0,0.0,0.0,0.326180679964,0.0604527556124,0.265727924352,0.386633435577,0.0604527556124,0.394840447232,268,0.35230222188,0.302367520405,0.645005310408,nan,nan,nan,nan,0.0,0.0,0.0,nan,146.482976858,389.085939643,389.585982692,389.349981953,nan,nan,nan,nan
1,211,1,1,1.0,1.0,0.24790011812,0,0.0,0.0,0.0,0.325884782966,0.0604601696353,0.265424613331,0.386344952602,0.0604601696353,0.349366618941,69,1.0,-0.134207199312,-0.939648005704,nan,nan,nan,nan,0.0,0.0,0.0,nan,146.482976858,390.086066796,390.586138356,390.333966914,nan,nan,nan,nan
1,212,1,1,1.0,1.0,0.29568522796,0,0.0,0.0,0.0,0.325515187398,0.0605540582879,0.26496112911,0.386069245686,0.0605540582879,0.269209218832,304,0.0113092810281,0.404708921832,0.506160370659,nan,nan,nan,nan,0.0,0.0,0.0,nan,146.482976858,391.086234433,391.586256956,391.381919661,nan,nan,nan,nan
1,213,1,1,1.0,1.0,0.335230178665,0,0.0,0.0,0.0,0.325374480043,0.0604456389932,0.264928841049,0.385820119036,0.0604456389932,0.292938508249,220,0.861731547614,0.0893272636146,0.581247684387,nan,nan,nan,nan,0.0,0.0,0.0,nan,146.482976858,392.094671594,392.59471778,392.429901773,nan,nan,nan,nan
1,214,1,1,1.0,1.0,0.303129395936,0,0.0,0.0,0.0,0.325420750928,0.0603073441561,0.265113406772,0.385728095084,0.0603073441561,0.31134826752,468,0.481236483515,0.363131620867,-1.0,nan,nan,nan,nan,0.0,0.0,0.0,nan,146.482976858,393.094791905,393.594832674,393.397921301,nan,nan,nan,nan
1,215,1,1,1.0,1.0,0.278949463274,0,0.0,0.0,0.0,0.325316585718,0.0601854773066,0.265131108411,0.385502063025,0.0601854773066,0.305769679292,98,1.0,-0.263822910468,-0.480217789416,nan,nan,nan,nan,0.0,0.0,0.0,nan,146.482976858,394.094948423,394.594965244,394.373897886,nan,nan,nan,nan
1,216,1,1,1.0,1.0,0.262777335476,0,0.0,0.0,0.0,0.325100924683,0.060128170455,0.264972754228,0.385229095138,0.060128170455,0.281618731562,332,-0.146647089803,0.45205423783,0.302714191958,nan,nan,nan,nan,0.0,0.0,0.0,nan,146.482976858,395.095094963,395.595097244,395.357872298,nan,nan,nan,nan
1,217,1,1,1.0,1.0,0.318333904259,0,0.0,0.0,0.0,0.324812389548,0.0601378269183,0.26467456263,0.384950216466,0.0601378269183,0.286686901003,217,0.891250405156,0.0735373331823,0.568048345461,nan,nan,nan,nan,0.0,0.0,0.0,nan,146.482976858,396.103515874,396.6035632,396.421849778,nan,nan,nan,nan
1,218,1,1,1.0,1.0,0.294177064206,0,0.0,0.0,0.0,0.324782534777,0.060000704845,0.264781829932,0.384783239622,0.060000704845,0.29176276798,342,-0.170052622031,0.462913557708,0.21407524247,nan,nan,nan,nan,0.0,0.0,0.0,nan,146.482976858,397.103661273,397.603686362,397.397838337,nan,nan,nan,nan
1,219,1,1,1.0,1.0,0.325979636051,0,0.0,0.0,0.0,0.32464214271,0.0598986434553,0.264743499255,0.384540786166,0.0598986434553,0.312830201505,105,1.0,-0.285049837405,-0.401580786678,nan,nan,nan,nan,0.0,0.0,0.0,nan,146.482976858,398.103802966,398.603823493,398.429782602,nan,nan,nan,nan
1,220,1,1,1.0,1.0,0.333808114752,0,0.0,0.0,0.0,0.324648249986,0.0597618001208,0.264886449865,0.384410050107,0.0597618001208,0.31798827167,45,1.0,-0.0063957592436,-1.0,nan,nan,nan,nan,0.0,0.0,0.0,nan,146.482976858,399.103949221,399.60394694,399.437757336,nan,nan,nan,nan
1,221,1,1,1.0,1.0,0.277369740885,0,0.0,0.0,0.0,0.324689885735,0.0596290066236,0.265060879111,0.384318892358,0.0596290066236,0.312385830563,245,0.600577697281,0.210610106048,0.650172825369,nan,nan,nan,nan,0.0,0.0,0.0,nan,146.482976858,400.112363004,400.612407479,400.389732745,nan,nan,nan,nan
1,222,1,1,1.0,1.0,0.309222774114,0,0.0,0.0,0.0,0.324475767432,0.0595786532424,0.26489711419,0.384054420675,0.0595786532424,0.306800209917,390,-0.0641960347588,0.476284203309,-0.291947553613,nan,nan,nan,nan,0.0,0.0,0.0,nan,146.482976858,401.112526935,401.61254347,401.421749709,nan,nan,nan,nan
1,223,1,1,1.0,1.0,0.293093125802,0,0.0,0.0,0.0,0.324407060255,0.0594530901695,0.264953970086,0.383860150425,0.0594530901695,0.293228546934,173,1.0,-0.165909522591,0.273535192888,nan,nan,nan,nan,0.0,0.0,0.0,nan,146.482976858,402.112638122,402.612671764,402.405731248,nan,nan,nan,nan
1,224,1,1,1.0,1.0,0.30891943071,0,0.0,0.0,0.0,0.324266639024,0.0593565229439,0.264910116081,0.383623161968,0.0593565229439,0.303745110209,286,0.169078956243,0.359734776014,0.594698705761,nan,nan,nan,nan,0.0,0.0,0.0,nan,146.482976858,403.112802909,403.612800628,403.421722339,nan,nan,nan,nan
1,225,1,1,1.0,1.0,0.29274160089,0,0.0,0.0,0.0,0.324198124702,0.0592327195741,0.264965405127,0.383430844276,0.0592327195741,0.298251385801,37,1.0,0.0358565504353,-1.0,nan,nan,nan,nan,0.0,0.0,0.0,nan,146.482976858,404.112912956,404.612937189,404.405654557,nan,nan,nan,nan
1,226,1,1,1.0,1.0,0.292630983517,0,0.0,0.0,0.0,0.324058317929,0.0591379738998,0.264920344029,0.383196291829,0.0591379738998,0.298097338372,355,-0.173737462994,0.472683863687,0.0888799762457,nan,nan,nan,nan,0.0,0.0,0.0,nan,146.482976858,405.113017302,405.613058926,405.405648285,nan,nan,nan,nan
1,227,1,1,1.0,1.0,0.3324601762,0,0.0,0.0,0.0,0.323919258927,0.0590438489155,0.264875410012,0.382963107843,0.0590438489155,0.305944253535,279,0.238157575771,0.338930353633,0.618978422254,nan,nan,nan,nan,0.0,0.0,0.0,nan,146.482976858,406.113180092,406.613193206,406.445640268,nan,nan,nan,nan
1,228,1,1,1.0,1.0,0.316338225733,0,0.0,0.0,0.0,0.323956884113,0.0589163680887,0.265040516025,0.382873252202,0.0589163680887,0.31380979515,27,1.0,0.0870912575778,-1.0,nan,nan,nan,nan,0.0,0.0,0.0,nan,146.482976858,407.113285007,407.613323781,407.429623233,nan,nan,nan,nan
1,229,1,1,1.0,1.0,0.34816531511,0,0.0,0.0,0.0,0.323923468945,0.0587891792729,0.265134289672,0.382712648218,0.0587891792729,0.332321239014,374,-0.132039125116,0.478634076427,-0.110628443238,nan,nan,nan,nan,0.0,0.0,0.0,nan,146.482976858,408.11343953,408.613460057,408.461604845,nan,nan,nan,nan
1,230,1,1,1.0,1.0,0.348043863662,0,0.0,0.0,0.0,0.324029328535,0.0586824521497,0.265346876386,0.382711780685,0.0586824521497,0.337515801502,300,0.0433537089178,0.395748422077,0.528951029102,nan,nan,nan,nan,0.0,0.0,0.0,nan,146.482976858,409.113539884,409.613591487,409.461583748,nan,nan,nan,nan
1,231,1,1,1.0,1.0,0.339855877683,0,0.0,0.0,0.0,0.324133739558,0.0585760562485,0.265557683309,0.382709795806,0.0585760562485,0.345355018818,123,1.0,-0.311441137266,-0.208672863777,nan,nan,nan,nan,0.0,0.0,0.0,nan,146.482976858,410.113664757,410.613704385,410.453520635,nan,nan,nan,nan
1,232,1,1,1.0,1.0,0.331690129358,0,0.0,0.0,0.0,0.324201800762,0.0584582442334,0.265743556528,0.382660044995,0.0584582442334,0.339863290234,252,0.524721685615,0.240693665738,0.655694012224,nan,nan,nan,nan,0.0,0.0,0.0,nan,146.482976858,411.113826122,411.613837241,411.445516251,nan,nan,nan,nan
1,233,1,1,1.0,1.0,0.323573417496,0,0.0,0.0,0.0,0.32423407804,0.0583341833975,0.265899894643,0.382568261438,0.0583341833975,0.331706474846,49,1.0,-0.027785429985,-1.0,nan,nan,nan,nan,0.0,0.0,0.0,nan,146.482976858,412.113949283,412.613991763,412.437522701,nan,nan,nan,nan
1,234,1,1,1.0,1.0,0.323450255208,0,0.0,0.0,0.0,0.324231242587,0.0582088841653,0.266022358422,0.382440126752,0.0582088841653,0.326237934021,459,0.407758158413,0.385709174134,-1.0,nan,nan,nan,nan,0.0,0.0,0.0,nan,146.482976858,413.114074156,413.614123763,413.437524411,nan,nan,nan,nan
1,235,1,1,1.0,1.0,0.283302039374,0,0.0,0.0,0.0,0.324227905034,0.0580843953826,0.266143509652,0.382312300417,0.0580843953826,0.310108570692,416,0.087881616042,0.458117504295,-0.630165317015,nan,nan,nan,nan,0.0,0.0,0.0,nan,146.482976858,414.114182208,414.614225543,414.397484247,nan,nan,nan,nan
1,236,0,0,1.0,0.0,0.291088893544,0,0.0,0.0,0.0,0.324053752414,0.0580218702011,0.266031882213,0.382075622615,0.0580218702011,0.299280396042,245,0.600577697281,0.210610106048,0.650172825369,nan,nan,nan,nan,0.0,0.0,0.0,nan,146.482976858,415.114360109,415.614401163,415.405449002,nan,nan,nan,nan
1,237,1,1,1.0,1.0,0.266966835596,0,0.0,0.0,0.0,0.323914070809,0.0579383940579,0.265975676751,0.381852464867,0.0579383940579,0.280452589504,127,1.0,-0.31111021432,-0.167036648065,nan,nan,nan,nan,0.0,0.0,0.0,nan,146.482976858,416.114443927,416.614485266,416.381410763,nan,nan,nan,nan
1,238,0,0,1.0,0.0,0.290794388857,0,0.0,0.0,0.0,0.323673787116,0.0579337492833,0.265740037833,0.381607536399,0.0579337492833,0.282950039332,456,0.383612429175,0.392633185378,-1.0,nan,nan,nan,nan,0.0,0.0,0.0,nan,146.482976858,417.114607858,417.614638363,417.405402246,nan,nan,nan,nan
1,239,1,1,1.0,1.0,0.250649878755,0,0.0,0.0,0.0,0.323535638384,0.0578510180219,0.265684620362,0.381386656406,0.0578510180219,0.269470367736,504,0.78128615449,0.244628286196,-1.0,nan,nan,nan,nan,0.0,0.0,0.0,nan,146.482976858,418.114733871,418.614764946,418.365383749,nan,nan,nan,nan
1,240,1,1,1.0,1.0,0.290523261297,0,0.0,0.0,0.0,0.323230677047,0.0579212528011,0.265309424245,0.381151929848,0.0579212528011,0.277322509636,102,1.0,-0.276610342793,-0.434926949461,nan,nan,nan,nan,0.0,0.0,0.0,nan,146.482976858,419.114861309,419.6148787,419.40538457,nan,nan,nan,nan
1,241,1,1,1.0,1.0,0.500261718873,0,0.0,0.0,0.0,0.323094396148,0.0578388426426,0.265255553505,0.38093323879,0.0578388426426,0.347144952975,332,-0.146647089803,0.45205423783,0.302714191958,nan,nan,nan,nan,0.0,0.0,0.0,nan,146.482976858,420.114960808,420.615064013,420.615222527,nan,nan,nan,nan
1,242,1,1,1.0,1.0,0.338223697618,0,0.0,0.0,0.0,0.323829530267,0.0588315561185,0.264997974148,0.382661086385,0.0588315561185,0.376336225929,496,0.714833717156,0.274923884212,-1.0,nan,nan,nan,nan,0.0,0.0,0.0,nan,146.482976858,421.115125594,421.61515667,421.453349291,nan,nan,nan,nan
1,243,1,1,1.0,1.0,0.29006653605,0,0.0,0.0,0.0,0.323889010297,0.0587171384009,0.265171871896,0.382606148698,0.0587171384009,0.37618398418,138,1.0,-0.29832987918,-0.0546508148191,nan,nan,nan,nan,0.0,0.0,0.0,nan,146.482976858,422.115255598,422.615279546,422.405322134,nan,nan,nan,nan
1,244,1,1,1.0,1.0,0.353925985284,0,0.0,0.0,0.0,0.32374982316,0.0586361880309,0.265113635129,0.382386011191,0.0586361880309,0.327405406317,29,1.0,0.0770173926463,-1.0,nan,nan,nan,nan,0.0,0.0,0.0,nan,146.482976858,423.115351961,423.615393015,423.469277946,nan,nan,nan,nan
1,245,1,1,1.0,1.0,0.441800866276,0,0.0,0.0,0.0,0.323873495956,0.058547657751,0.265325838205,0.382421153707,0.058547657751,0.361931129203,388,-0.0739633693698,0.476941921698,-0.268577162136,nan,nan,nan,nan,0.0,0.0,0.0,nan,146.482976858,424.11548054,424.615515321,424.557281406,nan,nan,nan,nan
1,246,1,1,1.0,1.0,0.433657070622,0,0.0,1.0,0.0,0.324354832161,0.0589098304267,0.265445001735,0.383264662588,0.0589098304267,0.409794640727,194,1.0,-0.0524864644427,0.435571704399,nan,nan,nan,nan,0.0,0.0,0.0,nan,146.482976858,425.115610829,425.615644756,425.5492679,nan,nan,nan,nan
1,247,1,1,1.0,1.0,0.633448778652,1,0.0,0.0,1.0,0.324799150204,0.0591999026311,0.265599247573,0.383999052835,0.0591999026311,0.502968905183,25,1.0,0.0970682892709,-1.0,82.8421869864,7.15781301362,-10.4203119864,10.0,0.926811495151,0.168400576072,-1.0,1.89220453519,146.482976858,426.115749101,426.615834915,426.74919788,429.849529504,430.849485029,427.940954129,429.84121522
1,248,1,1,1.0,1.0,0.347409808077,0,0.0,0.0,0.0,0.326048743841,0.0622460024414,0.2638027414,0.388294746283,0.0622460024414,0.471505219117,96,1.0,-0.25681952169,-0.503302481145,nan,nan,nan,nan,0.0,0.0,0.0,nan,146.482976858,431.049714932,431.549761687,431.39712474,nan,nan,nan,nan
1,249,1,1,1.0,1.0,0.323261235841,0,0.0,0.0,0.0,0.326134877165,0.0621351273854,0.263999749779,0.38827000455,0.0621351273854,0.434706607523,300,0.0433537089178,0.395748422077,0.528951029102,nan,nan,nan,nan,0.0,0.0,0.0,nan,146.482976858,432.049840089,432.549891407,432.373101325,nan,nan,nan,nan
1,250,1,1,1.0,1.0,0.267087717075,0,0.0,0.0,0.0,0.326123336437,0.062010498863,0.264112837574,0.3881338353,0.062010498863,0.312586253664,179,1.0,-0.13461441766,0.323204131591,nan,nan,nan,nan,0.0,0.0,0.0,nan,146.482976858,433.049971804,433.550040797,433.317059521,nan,nan,nan,nan
1,251,1,1,1.0,1.0,0.298956430983,0,0.0,0.0,0.0,0.325887193959,0.0619984339763,0.263888759983,0.387885627935,0.0619984339763,0.296435127966,382,-0.1011887567,0.478291136399,-0.199732273247,nan,nan,nan,nan,0.0,0.0,0.0,nan,146.482976858,434.050097532,434.550167095,434.349053963,nan,nan,nan,nan
1,252,1,1,1.0,1.0,0.282786013559,0,0.0,0.0,0.0,0.325779900083,0.0618980600835,0.263881839999,0.387677960166,0.0618980600835,0.282943387205,491,0.673033477965,0.292707709811,-1.0,nan,nan,nan,nan,0.0,0.0,0.0,nan,146.482976858,435.050257471,435.550291398,435.333043485,nan,nan,nan,nan
1,253,1,1,1.0,1.0,0.282634627074,0,0.0,0.0,0.0,0.325609289422,0.0618342308184,0.263775058604,0.38744352024,0.0618342308184,0.288125690538,383,-0.0968787136249,0.478131214543,-0.211081409456,nan,nan,nan,nan,0.0,0.0,0.0,nan,146.482976858,436.050375501,436.550420261,436.333010128,nan,nan,nan,nan
1,254,1,1,1.0,1.0,0.266488157678,0,0.0,0.0,0.0,0.325439429097,0.0617707892176,0.263668639879,0.387210218314,0.0617707892176,0.27730293277,78,1.0,-0.179467652321,-0.739907630878,nan,nan,nan,nan,0.0,0.0,0.0,nan,146.482976858,437.050518905,437.550540288,437.317007063,nan,nan,nan,nan
1,255,1,1,1.0,1.0,0.306351562031,0,0.0,0.0,0.0,0.325207337477,0.0617595050432,0.263447832434,0.38696684252,0.0617595050432,0.285158115594,216,0.900975005756,0.0682271079607,0.563426584804,nan,nan,nan,nan,0.0,0.0,0.0,nan,146.482976858,438.050624106,438.550659173,438.356975668,nan,nan,nan,nan
1,256,1,1,1.0,1.0,0.362194368616,0,0.0,0.0,0.0,0.325133393259,0.0616495537773,0.263483839482,0.386782947037,0.0616495537773,0.311678029442,12,0.942476689623,0.159273951266,-1.0,nan,nan,nan,nan,0.0,0.0,0.0,nan,146.482976858,439.050748408,439.550789462,439.412942777,nan,nan,nan,nan
1,257,1,1,1.0,1.0,0.314031505492,0,0.0,0.0,0.0,0.325278162694,0.0615724407659,0.263705721928,0.38685060346,0.0615724407659,0.327525812046,328,-0.132159558243,0.44685796506,0.336046158271,nan,nan,nan,nan,0.0,0.0,0.0,nan,146.482976858,440.050888961,440.550921177,440.364920467,nan,nan,nan,nan
1,258,1,1,1.0,1.0,0.313865293749,0,0.0,0.0,0.0,0.325234401382,0.0614565220193,0.263777879363,0.386690923402,0.0614565220193,0.330030389285,70,1.0,-0.13936984996,-0.906436913284,nan,nan,nan,nan,0.0,0.0,0.0,nan,146.482976858,441.051039207,441.55104662,441.364904501,nan,nan,nan,nan
1,259,0,0,1.0,0.0,0.281734005548,0,0.0,0.0,0.0,0.325190335074,0.0613413725662,0.263848962507,0.38653170764,0.0613413725662,0.303210268263,232,0.739158239773,0.150046616059,0.623712016981,nan,nan,nan,nan,0.0,0.0,0.0,nan,146.482976858,442.051174914,442.551205134,442.332908919,nan,nan,nan,nan
1,260,1,1,1.0,1.0,0.233619323932,0,0.0,0.0,0.0,0.325022550017,0.0612821271896,0.263740422828,0.386304677207,0.0612821271896,0.276406207743,51,1.0,-0.0385160204876,-1.0,nan,nan,nan,nan,0.0,0.0,0.0,nan,146.482976858,443.051271276,443.551318602,443.2848906,nan,nan,nan,nan
1,261,1,1,1.0,1.0,0.336077487096,0,0.0,0.0,0.0,0.324670999148,0.0614252731465,0.263245726001,0.386096272294,0.0614252731465,0.283810272192,329,-0.136053278316,0.448203788942,0.3278337444,nan,nan,nan,nan,0.0,0.0,0.0,nan,146.482976858,444.084777873,444.584777588,444.42085536,nan,nan,nan,nan
1,262,1,1,1.0,1.0,0.33592895139,0,0.0,0.0,0.0,0.324714702167,0.0613115371241,0.263403165043,0.386026239291,0.0613115371241,0.301875254139,5,0.88714030954,0.190659852496,-1.0,nan,nan,nan,nan,0.0,0.0,0.0,nan,146.482976858,445.084878512,445.584904456,445.420807463,nan,nan,nan,nan
1,263,1,1,1.0,1.0,0.303788254969,0,0.0,0.0,0.0,0.324757504645,0.061198325326,0.263559179319,0.385955829971,0.061198325326,0.325264897818,462,0.432089675478,0.378486360879,-1.0,nan,nan,nan,nan,0.0,0.0,0.0,nan,146.482976858,446.085003384,446.585031609,446.388791639,nan,nan,nan,nan
1,264,0,0,0.0,1.0,0.495618343819,0,0.0,0.0,0.0,0.324677773657,0.0610955000577,0.2635822736,0.385773273715,0.0610955000577,0.378445183393,121,1.0,-0.310732805591,-0.229640808446,nan,nan,nan,nan,0.0,0.0,0.0,nan,146.482976858,447.085160758,447.601858034,447.580779102,nan,nan,nan,nan
1,265,1,1,1.0,1.0,0.295523577835,0,0.0,0.0,0.0,0.325325275817,0.0618771879815,0.263448087836,0.387202463799,0.0618771879815,0.364976725541,229,0.770397026975,0.135265939772,0.614681466938,nan,nan,nan,nan,0.0,0.0,0.0,nan,146.482976858,448.085261682,448.585319272,448.38078526,nan,nan,nan,nan
1,266,1,1,1.0,1.0,0.311327360105,0,0.0,0.0,0.0,0.32521281658,0.0617873528411,0.263425463738,0.387000169421,0.0617873528411,0.367489760586,110,1.0,-0.296722754836,-0.346921960777,nan,nan,nan,nan,0.0,0.0,0.0,nan,146.482976858,449.085411358,449.585421336,449.396738718,nan,nan,nan,nan
1,267,1,1,1.0,1.0,0.327184741385,0,0.0,0.0,0.0,0.325160615615,0.0616769560803,0.263483659535,0.386837571696,0.0616769560803,0.311345226442,12,0.942476689623,0.159273951266,-1.0,nan,nan,nan,nan,0.0,0.0,0.0,nan,146.482976858,450.085523116,450.585548775,450.412707857,nan,nan,nan,nan
1,268,0,0,0.0,1.0,0.478977801744,0,0.0,0.0,0.0,0.325168196611,0.0615614719775,0.263606724633,0.386729668588,0.0615614719775,0.372496634411,362,-0.164239727892,0.476000155386,0.0174578511848,nan,nan,nan,nan,0.0,0.0,0.0,nan,146.482976858,451.085706433,451.585717267,451.564684235,nan,nan,nan,nan
1,269,1,1,1.0,1.0,0.294926299714,0,0.0,0.0,0.0,0.325742113048,0.0621580100422,0.263584103006,0.38790012309,0.0621580100422,0.367029614281,175,1.0,-0.155629953633,0.290361762956,nan,nan,nan,nan,0.0,0.0,0.0,nan,146.482976858,452.085769155,452.58581249,452.380695454,nan,nan,nan,nan
1,270,1,1,1.0,1.0,0.286743730307,0,0.0,0.0,0.0,0.325627556121,0.0620707045313,0.26355685159,0.387698260652,0.0620707045313,0.353549277255,358,-0.170583909915,0.474268316859,0.0585874414746,nan,nan,nan,nan,0.0,0.0,0.0,nan,146.482976858,453.085900299,453.58594563,453.37264403,nan,nan,nan,nan
1,271,1,1,1.0,1.0,0.334283371456,0,0.0,0.0,0.0,0.325483541951,0.0620006606058,0.263482881345,0.387484202557,0.0620006606058,0.305317800492,505,0.789537956352,0.240683140511,-1.0,nan,nan,nan,nan,0.0,0.0,0.0,nan,146.482976858,454.094361979,454.594405598,454.42864535,nan,nan,nan,nan
1,272,1,1,1.0,1.0,0.310098877642,0,0.0,0.0,0.0,0.325516013647,0.0618884625953,0.263627551052,0.387404476242,0.0618884625953,0.310375326468,371,-0.14179360683,0.478331938097,-0.0779732583494,nan,nan,nan,nan,0.0,0.0,0.0,nan,146.482976858,455.094507378,455.594553564,455.404606256,nan,nan,nan,nan
1,273,1,1,1.0,1.0,0.301950519904,0,0.0,0.0,0.0,0.325459333,0.0617816387951,0.263677694205,0.387240971795,0.0617816387951,0.315444256334,67,1.0,-0.12380466598,-1.0,nan,nan,nan,nan,0.0,0.0,0.0,nan,146.482976858,456.094633676,456.594667603,456.396584196,nan,nan,nan,nan
1,274,0,0,0.0,1.0,0.517780075315,0,0.0,0.0,0.0,0.325373220131,0.0616847331984,0.263688486933,0.38705795333,0.0616847331984,0.376609824287,12,0.942476689623,0.159273951266,-1.0,nan,nan,nan,nan,0.0,0.0,0.0,nan,146.482976858,457.094787628,457.594830963,457.612567704,nan,nan,nan,nan
1,275,1,1,1.0,1.0,0.261288844049,0,0.0,0.0,0.0,0.326075434931,0.0626557041387,0.263419730793,0.38873113907,0.0626557041387,0.36033981309,161,1.0,-0.223158351501,0.167490545043,nan,nan,nan,nan,0.0,0.0,0.0,nan,146.482976858,458.10325558,458.603257006,458.364544424,nan,nan,nan,nan
1,276,1,1,1.0,1.0,0.253198930994,0,0.0,0.0,0.0,0.325839847328,0.0626631412318,0.263176706096,0.38850298856,0.0626631412318,0.344089283453,209,0.967301840512,0.0304835193525,0.52804999659,nan,nan,nan,nan,0.0,0.0,0.0,nan,146.482976858,459.103338828,459.603398128,459.356537759,nan,nan,nan,nan
1,277,1,1,1.0,1.0,0.285030012485,0,0.0,0.0,0.0,0.325576655602,0.0627016062372,0.262875049365,0.388278261839,0.0627016062372,0.266505929176,9,0.918933560847,0.172916688009,-1.0,nan,nan,nan,nan,0.0,0.0,0.0,nan,146.482976858,460.103508461,460.603514163,460.388538473,nan,nan,nan,nan
1,278,1,1,1.0,1.0,0.308866403066,0,0.0,0.0,0.0,0.325430277829,0.0626355491375,0.262794728692,0.388065826967,0.0626355491375,0.282365115515,431,0.191957257768,0.43918128748,-0.982298765802,nan,nan,nan,nan,0.0,0.0,0.0,nan,146.482976858,461.103631623,461.603643597,461.412498026,nan,nan,nan,nan
1,279,0,0,0.0,1.0,0.52467828244,0,0.0,0.0,0.0,0.325370695546,0.062530657327,0.262840038219,0.387901352873,0.062530657327,0.372858232663,26,1.0,0.0920921692153,-1.0,nan,nan,nan,nan,0.0,0.0,0.0,nan,146.482976858,462.103770465,462.603816936,462.628448748,nan,nan,nan,nan
1,280,1,1,1.0,1.0,0.260583798867,0,0.0,0.0,0.0,0.326085059657,0.0635447585718,0.262540301085,0.389629818228,0.0635447585718,0.364709494791,429,0.177531820842,0.442080780324,-0.901885199234,nan,nan,nan,nan,0.0,0.0,0.0,nan,146.482976858,463.103863692,463.603915294,463.364447491,nan,nan,nan,nan
1,281,1,1,1.0,1.0,0.276469403878,0,0.0,0.0,0.0,0.325851126582,0.0635514227012,0.262299703881,0.389402549283,0.0635514227012,0.353910495061,351,-0.175686286722,0.4701852659,0.128489978773,nan,nan,nan,nan,0.0,0.0,0.0,nan,146.482976858,464.10398999,464.604038171,464.380459394,nan,nan,nan,nan
1,282,1,1,1.0,1.0,0.276280384976,0,0.0,0.0,0.0,0.325675390914,0.0635063593662,0.262169031548,0.38918175028,0.0635063593662,0.271111195907,246,0.589768841079,0.215019897151,0.651339528662,nan,nan,nan,nan,0.0,0.0,0.0,nan,146.482976858,465.104121705,465.60416732,465.38040209,nan,nan,nan,nan
1,283,1,1,1.0,1.0,0.347834317479,0,0.0,0.0,0.0,0.325500231319,0.0634616213577,0.262038609961,0.388961852676,0.0634616213577,0.300194702111,401,-0.00506340639596,0.470796889516,-0.425203102762,nan,nan,nan,nan,0.0,0.0,0.0,nan,146.482976858,466.11258709,466.612630425,466.460421408,nan,nan,nan,nan
1,284,1,1,1.0,1.0,0.315656843595,0,0.0,0.0,0.0,0.325579150351,0.0633632600653,0.262215890286,0.388942410416,0.0633632600653,0.313257182017,307,-0.0113868739462,0.411053355611,0.487957006857,nan,nan,nan,nan,0.0,0.0,0.0,nan,146.482976858,467.112714814,467.612776965,467.428371657,nan,nan,nan,nan
1,285,1,1,1.0,1.0,0.283511870541,0,0.0,0.0,0.0,0.325544212651,0.0632543372948,0.262289875357,0.388798549946,0.0632543372948,0.315667677205,411,0.0555201669072,0.463022710015,-0.557054760163,nan,nan,nan,nan,0.0,0.0,0.0,nan,146.482976858,468.112854226,468.612887012,468.396366097,nan,nan,nan,nan
1,286,1,1,1.0,1.0,0.371363088489,0,0.0,0.0,0.0,0.325396730749,0.0631921629543,0.262204567795,0.388588893703,0.0631921629543,0.323510600875,195,1.0,-0.0469245268387,0.442396054288,nan,nan,nan,nan,0.0,0.0,0.0,nan,146.482976858,469.112975677,469.61301331,469.484338766,nan,nan,nan,nan
1,287,1,1,1.0,1.0,0.363204467576,0,0.0,0.0,0.0,0.32555745228,0.0631399160603,0.262417536219,0.38869736834,0.0631399160603,0.339359808868,69,1.0,-0.134207199312,-0.939648005704,nan,nan,nan,nan,0.0,0.0,0.0,nan,146.482976858,470.113101405,470.613156429,470.476305873,nan,nan,nan,nan
1,288,1,1,1.0,1.0,0.363017444033,0,0.0,0.0,0.0,0.325688626549,0.0630688461134,0.262619780436,0.388757472662,0.0630688461134,0.365861666699,352,-0.17544712699,0.470851603012,0.118673592819,nan,nan,nan,nan,0.0,0.0,0.0,nan,146.482976858,471.113256213,471.613279591,471.476273657,nan,nan,nan,nan
1,289,0,0,0.0,1.0,0.490828999784,0,0.0,0.0,0.0,0.325818240499,0.0629975356592,0.262820704839,0.388815776158,0.0629975356592,0.405683637131,465,0.456588679398,0.37096152752,-1.0,nan,nan,nan,nan,0.0,0.0,0.0,nan,146.482976858,472.113426986,472.621766359,472.604255985,nan,nan,nan,nan
1,290,1,1,1.0,1.0,0.298434133641,0,0.0,0.0,0.0,0.326389211984,0.0636305542913,0.262758657693,0.390019766275,0.0636305542913,0.384093525819,240,0.654373017221,0.188015059697,0.642463954019,nan,nan,nan,nan,0.0,0.0,0.0,nan,146.482976858,473.121817961,473.621867283,473.420252095,nan,nan,nan,nan
1,291,1,1,1.0,1.0,0.266254663467,0,0.0,0.0,0.0,0.326292815162,0.0635418868533,0.262750928309,0.389834702016,0.0635418868533,0.351839265631,65,1.0,-0.113312155659,-1.0,nan,nan,nan,nan,0.0,0.0,0.0,nan,146.482976858,474.121959369,474.622000138,474.388214033,nan,nan,nan,nan
1,292,1,1,1.0,1.0,0.338122487534,0,0.0,0.0,0.0,0.32608649849,0.0635298423911,0.262556656099,0.389616340881,0.0635298423911,0.300937094881,160,1.0,-0.227501418013,0.158297521075,nan,nan,nan,nan,0.0,0.0,0.0,nan,146.482976858,475.122114747,475.622127576,475.460237235,nan,nan,nan,nan
1,293,1,1,1.0,1.0,0.377697374206,0,0.0,0.0,0.0,0.32612771763,0.0634248628738,0.262702854756,0.389552580504,0.0634248628738,0.327358175069,427,0.163265173604,0.444863218481,-0.840208708629,nan,nan,nan,nan,0.0,0.0,0.0,nan,146.482976858,476.130556184,476.630590966,476.508253559,nan,nan,nan,nan
1,294,1,1,1.0,1.0,0.377519758884,0,0.0,0.0,0.0,0.326303723284,0.0633879279279,0.262915795356,0.389691651212,0.0633879279279,0.364446540208,327,-0.128086156831,0.445480682368,0.344176439252,nan,nan,nan,nan,0.0,0.0,0.0,nan,146.482976858,477.130681627,477.630728668,477.508201386,nan,nan,nan,nan
1,295,1,1,1.0,1.0,0.313348697964,0,0.0,0.0,0.0,0.326477927487,0.0633502513164,0.26312767617,0.389828178803,0.0633502513164,0.356188610351,202,1.0,-0.00802826454356,0.487596984314,nan,nan,nan,nan,0.0,0.0,0.0,nan,146.482976858,478.130812202,478.630848124,478.4441609,nan,nan,nan,nan
1,296,1,1,1.0,1.0,0.345190612599,0,0.0,0.0,0.0,0.326433421624,0.0632473907506,0.263186030873,0.389680812375,0.0632473907506,0.345353023149,18,0.988682696815,0.131162580546,-1.0,nan,nan,nan,nan,0.0,0.0,0.0,nan,146.482976858,479.130940781,479.630977558,479.476131393,nan,nan,nan,nan
1,297,1,1,1.0,1.0,0.361023760866,0,0.0,0.0,0.0,0.326496790512,0.0631498435842,0.263346946928,0.389646634097,0.0631498435842,0.339854357143,368,-0.150457169737,0.477793263397,-0.0457341785459,nan,nan,nan,nan,0.0,0.0,0.0,nan,146.482976858,480.131087035,480.631110983,480.492110796,nan,nan,nan,nan
1,298,1,1,1.0,1.0,0.392845433205,0,0.0,0.0,0.0,0.326613042938,0.0630751598664,0.263537883072,0.389688202804,0.0630751598664,0.36635326889,213,0.929785093221,0.0521668813814,0.548906519778,nan,nan,nan,nan,0.0,0.0,0.0,nan,146.482976858,481.131246975,481.63126408,481.524092408,nan,nan,nan,nan
1,299,1,1,1.0,1.0,0.312759117689,0,0.0,0.0,0.0,0.326835299281,0.0630856273111,0.26374967197,0.389920926592,0.0630856273111,0.355542770587,129,1.0,-0.310070485259,-0.146368003411,nan,nan,nan,nan,0.0,0.0,0.0,nan,146.482976858,482.131329367,482.631386102,482.444088485,nan,nan,nan,nan
1,300,1,1,1.0,1.0,0.312578081153,0,0.0,0.0,0.0,0.326788221751,0.0629852877508,0.263802934,0.389773509501,0.0629852877508,0.339394210683,405,0.018463324075,0.468009379796,-0.476293327428,nan,nan,nan,nan,0.0,0.0,0.0,nan,146.482976858,483.131477903,483.631502136,483.444055984,nan,nan,nan,nan
1,301,1,1,1.0,1.0,0.312086573336,0,0.0,0.0,0.0,0.326740854615,0.0628855587673,0.263855295848,0.389626413383,0.0628855587673,0.312474590726,251,0.535576518695,0.236509187076,0.655284151108,nan,nan,nan,nan,0.0,0.0,0.0,nan,146.482976858,484.139914494,484.639959254,484.452001067,nan,nan,nan,nan
1,302,1,1,1.0,1.0,0.319968936034,0,0.0,0.0,0.0,0.326692169295,0.0627866737071,0.263905495588,0.389478843003,0.0627866737071,0.314877863508,80,1.0,-0.189075709245,-0.708965549488,nan,nan,nan,nan,0.0,0.0,0.0,nan,146.482976858,485.140052481,485.640106364,485.460021417,nan,nan,nan,nan
1,303,1,1,1.0,1.0,0.35178661719,0,0.0,0.0,0.0,0.326669906934,0.0626838260122,0.263986080921,0.389353732946,0.0626838260122,0.32794737552,274,0.289344050657,0.322900892411,0.632670269059,nan,nan,nan,nan,0.0,0.0,0.0,nan,146.482976858,486.140198166,486.640218692,486.491984783,nan,nan,nan,nan
1,304,1,1,1.0,1.0,0.343640825711,0,0.0,0.0,0.0,0.326752800367,0.0625968794831,0.264155920884,0.38934967985,0.0625968794831,0.338465459645,378,-0.117450136118,0.478670924818,-0.154810124165,nan,nan,nan,nan,0.0,0.0,0.0,nan,146.482976858,487.140321042,487.640360101,487.483961868,nan,nan,nan,nan
1,305,1,1,1.0,1.0,0.319491683505,0,0.0,0.0,0.0,0.326808353082,0.0625013202885,0.264307032793,0.38930967337,0.0625013202885,0.338306375469,145,1.0,-0.281667413287,0.0150551701241,nan,nan,nan,nan,0.0,0.0,0.0,nan,146.482976858,488.140468722,488.640489249,488.459960406,nan,nan,nan,nan
1,306,1,1,1.0,1.0,0.35131421173,0,0.0,0.0,0.0,0.326784364001,0.0624001767974,0.264384187204,0.389184540799,0.0624001767974,0.338148906982,227,0.791019951953,0.125257787881,0.608066708266,nan,nan,nan,nan,0.0,0.0,0.0,nan,146.482976858,489.140586752,489.640628377,489.491900964,nan,nan,nan,nan
1,307,1,1,1.0,1.0,0.327209829353,0,0.0,0.0,0.0,0.326864526902,0.0623138607697,0.264550666133,0.389178387672,0.0623138607697,0.332671908196,384,-0.0924750057551,0.477945316949,-0.222479273925,nan,nan,nan,nan,0.0,0.0,0.0,nan,146.482976858,490.140713621,490.640744411,490.46792345,nan,nan,nan,nan
1,308,1,1,1.0,1.0,0.319088841323,0,0.0,0.0,0.0,0.326865651666,0.0622122927283,0.264653358938,0.389077944394,0.0622122927283,0.332537627469,109,1.0,-0.294638327523,-0.357773695079,nan,nan,nan,nan,0.0,0.0,0.0,nan,146.482976858,491.140826519,491.640867003,491.45991536,nan,nan,nan,nan
1,309,1,1,1.0,1.0,0.302888203878,0,0.0,0.0,0.0,0.326840402282,0.0621127921957,0.264727610086,0.388953194477,0.0621127921957,0.316395624851,39,1.0,0.0253789930673,-1.0,nan,nan,nan,nan,0.0,0.0,0.0,nan,146.482976858,492.14096137,492.641020385,492.443849574,nan,nan,nan,nan
1,310,1,1,1.0,1.0,0.26273599593,0,0.0,0.0,0.0,0.326762887077,0.0620271244844,0.264735762592,0.388790011561,0.0620271244844,0.294904347043,365,-0.157962026257,0.477016591838,-0.0139196855225,nan,nan,nan,nan,0.0,0.0,0.0,nan,146.482976858,493.141131288,493.641132998,493.403867284,nan,nan,nan,nan
1,311,1,1,1.0,1.0,0.262557240669,0,0.0,0.0,0.0,0.326556348718,0.0620333351557,0.264523013562,0.388589683874,0.0620333351557,0.276060480159,501,0.7564492333,0.256253544744,-1.0,nan,nan,nan,nan,0.0,0.0,0.0,nan,146.482976858,494.141255875,494.641266139,494.403813116,nan,nan,nan,nan
1,312,1,1,1.0,1.0,0.214507845696,0,1.0,0.0,0.0,0.326350563805,0.062039414493,0.264311149312,0.388389978298,0.062039414493,0.246600360765,234,0.71814774995,0.15974031316,0.62913160129,nan,nan,nan,nan,0.0,0.0,0.0,nan,146.482976858,495.141350527,495.641392152,495.355858373,nan,nan,nan,nan
1,313,1,1,1.0,1.0,0.206338105723,1,0.0,0.0,1.0,0.325992093554,0.0622616780559,0.263730415498,0.38825377161,0.0622616780559,0.227801064029,130,1.0,-0.309333154106,-0.136071487739,-4.01417569541,94.0141756954,2.60792569541,134.0,1.0,-0.304950998219,-0.095144111098,1.75884128595,146.482976858,496.141476825,496.641542112,496.347814931,499.741914507,500.742003172,497.966711218,499.733580836
1,314,0,0,1.0,0.0,0.285547463223,0,0.0,0.0,0.0,0.325609812443,0.0625278085176,0.263082003925,0.388137620961,0.0625278085176,0.235464471548,350,-0.175756816429,0.469490941964,0.138247479403,nan,nan,nan,nan,0.0,0.0,0.0,nan,146.482976858,500.942128728,501.442164936,501.227676191,nan,nan,nan,nan
1,315,1,1,1.0,1.0,0.277410509065,0,0.0,0.0,0.0,0.325482225344,0.0624689574039,0.26301326794,0.387951182747,0.0624689574039,0.256432026004,451,0.343830962376,0.403518361206,-1.0,nan,nan,nan,nan,0.0,0.0,0.0,nan,146.482976858,501.942240201,502.442270421,502.21965071,nan,nan,nan,nan
1,316,1,1,1.0,1.0,0.324968682136,0,0.0,0.0,0.0,0.325329616721,0.0624283191344,0.262901297586,0.387757935855,0.0624283191344,0.295975551475,88,1.0,-0.225257592204,-0.599932847766,nan,nan,nan,nan,0.0,0.0,0.0,nan,146.482976858,502.950701595,503.450768878,503.275670277,nan,nan,nan,nan
1,317,1,1,1.0,1.0,0.324770255014,0,0.0,0.0,0.0,0.325328474522,0.0623294651732,0.262999009349,0.387657939696,0.0623294651732,0.309049815405,332,-0.146647089803,0.45205423783,0.302714191958,nan,nan,nan,nan,0.0,0.0,0.0,nan,146.482976858,503.950852126,504.450866096,504.275622381,nan,nan,nan,nan
1,318,1,1,1.0,1.0,0.30064990744,0,0.0,0.0,0.0,0.325326713578,0.0622310839317,0.263095629646,0.387557797509,0.0622310839317,0.31679628153,452,0.351738073422,0.401406211611,-1.0,nan,nan,nan,nan,0.0,0.0,0.0,nan,146.482976858,504.950965595,505.451002658,505.251615502,nan,nan,nan,nan
1,319,1,1,1.0,1.0,0.29247303959,0,0.0,0.0,0.0,0.325249113558,0.0621485187253,0.263100594833,0.387397632284,0.0621485187253,0.305964400681,204,1.0,0.00303256528985,0.499654420455,nan,nan,nan,nan,0.0,0.0,0.0,nan,146.482976858,505.951102157,506.451123254,506.243575196,nan,nan,nan,nan
1,320,1,1,1.0,1.0,0.26033034781,0,0.0,0.0,0.0,0.325146367245,0.0620780757306,0.263068291514,0.387224442976,0.0620780757306,0.284484431613,427,0.163265173604,0.444863218481,-0.840208708629,nan,nan,nan,nan,0.0,0.0,0.0,nan,146.482976858,506.951237292,507.451258105,507.21156764,nan,nan,nan,nan
1,321,1,1,1.0,1.0,0.268182204105,0,0.0,0.0,0.0,0.324943817184,0.0620864894736,0.262857327711,0.387030306658,0.0620864894736,0.273661863835,243,0.622151010882,0.20168048164,0.647463484622,nan,nan,nan,nan,0.0,0.0,0.0,nan,146.482976858,507.951341923,508.45137756,508.219524127,nan,nan,nan,nan
1,322,1,1,1.0,1.0,0.2920433986,0,0.0,0.0,0.0,0.324766989729,0.0620703585244,0.262696631205,0.386837348254,0.0620703585244,0.273518650172,153,1.0,-0.255547855702,0.0926213922694,nan,nan,nan,nan,0.0,0.0,0.0,nan,146.482976858,508.951466796,509.451534364,509.243510194,nan,nan,nan,nan
1,323,1,1,1.0,1.0,0.267869737931,0,0.0,0.0,0.0,0.32466536367,0.062000642343,0.262664721327,0.386666006013,0.062000642343,0.276031780212,45,1.0,-0.0063957592436,-1.0,nan,nan,nan,nan,0.0,0.0,0.0,nan,146.482976858,509.951642131,510.451634433,510.219511868,nan,nan,nan,nan
1,324,1,1,1.0,1.0,0.243735705968,0,0.0,0.0,0.0,0.324489525819,0.0619849528302,0.262504572989,0.386474478649,0.0619849528302,0.2678829475,1,0.854939129564,0.207877072944,-1.0,nan,nan,nan,nan,0.0,0.0,0.0,nan,146.482976858,510.951741059,511.451768429,511.195476765,nan,nan,nan,nan
1,325,1,1,1.0,1.0,0.267586066388,0,1.0,0.0,0.0,0.324240285634,0.0620511153343,0.2621891703,0.386291400969,0.0620511153343,0.259730503429,212,0.93926288676,0.0467731277665,0.543851001166,nan,nan,nan,nan,0.0,0.0,0.0,nan,146.482976858,511.951855953,512.451903279,512.21944202,nan,nan,nan,nan
1,326,1,1,1.0,1.0,0.243095948361,1,0.0,0.0,1.0,0.32406596496,0.0620349846896,0.26203098027,0.386100949649,0.0620349846896,0.251472573572,484,0.614398947124,0.316112737715,-1.0,114.285825156,335.714174844,-4.59832515565,477.0,0.555879874869,0.337784025865,-1.0,1.2422540565,146.482976858,512.96032533,513.460366384,513.203421278,516.044053475,517.043585346,514.78555288,516.035722085
1,327,1,1,1.0,1.0,0.694363746326,0,0.0,0.0,0.0,0.323817590676,0.0621013992089,0.261716191467,0.385918989885,0.0621013992089,0.401681920358,393,-0.0489456633786,0.475102171109,-0.327443230616,nan,nan,nan,nan,0.0,0.0,0.0,nan,146.482976858,517.252935501,517.752631303,517.947299248,nan,nan,nan,nan
1,328,0,0,0.0,1.0,0.518593457062,0,0.0,0.0,0.0,0.324950759348,0.0652946948325,0.259656064515,0.39024545418,0.0652946948325,0.485351050583,297,0.0686262056446,0.388646276542,0.544904663634,nan,nan,nan,nan,0.0,0.0,0.0,nan,146.482976858,518.252713126,518.752751614,518.771306583,nan,nan,nan,nan
1,329,1,1,1.0,1.0,0.246474632993,0,0.0,0.0,0.0,0.325541133426,0.066063394545,0.259477738881,0.391604527971,0.066063394545,0.486477278794,183,1.0,-0.113108999915,0.354902835149,nan,nan,nan,nan,0.0,0.0,0.0,nan,146.482976858,519.252801221,519.752842845,519.499275854,nan,nan,nan,nan
1,330,1,1,1.0,1.0,0.310336933471,0,0.0,0.0,0.0,0.325300809716,0.0661063561945,0.259194453522,0.391407165911,0.0661063561945,0.358468341175,99,1.0,-0.267176270739,-0.468793303331,nan,nan,nan,nan,0.0,0.0,0.0,nan,146.482976858,520.252942059,520.752978836,520.563278992,nan,nan,nan,nan
1,331,0,0,0.0,1.0,0.47815900296,0,0.0,0.0,0.0,0.325255464637,0.0660112432434,0.259244221393,0.39126670788,0.0660112432434,0.344990189808,374,-0.132039125116,0.478634076427,-0.110628443238,nan,nan,nan,nan,0.0,0.0,0.0,nan,146.482976858,521.253087458,521.753138775,521.731246461,nan,nan,nan,nan
1,332,1,1,1.0,1.0,0.222038398031,0,0.0,0.0,0.0,0.325717408861,0.0664435033963,0.259273905465,0.392160912258,0.0664435033963,0.336844778154,325,-0.119404900653,0.442631039184,0.360186421743,nan,nan,nan,nan,0.0,0.0,0.0,nan,146.482976858,522.25319551,522.753233143,522.475233908,nan,nan,nan,nan
1,333,1,1,1.0,1.0,0.285877890419,0,0.0,0.0,0.0,0.325405122684,0.0665861977876,0.258818924897,0.391991320472,0.0665861977876,0.328691763803,408,0.036737934283,0.465637664749,-0.515938449969,nan,nan,nan,nan,0.0,0.0,0.0,nan,146.482976858,523.253347182,523.753362862,523.539225072,nan,nan,nan,nan
1,334,1,1,1.0,1.0,0.293705229182,0,0.0,0.0,0.0,0.325286422287,0.0665213128592,0.258765109428,0.391807735146,0.0665213128592,0.267207172544,297,0.0686262056446,0.388646276542,0.544904663634,nan,nan,nan,nan,0.0,0.0,0.0,nan,146.482976858,524.253481462,524.753495147,524.547186691,nan,nan,nan,nan
1,335,1,1,1.0,1.0,0.237607831135,0,0.0,0.0,0.0,0.325191867817,0.0664440630099,0.258747804807,0.391635930827,0.0664440630099,0.272396983579,152,1.0,-0.259184487343,0.0830625546756,nan,nan,nan,nan,0.0,0.0,0.0,nan,146.482976858,525.253583242,525.753624866,525.491191073,nan,nan,nan,nan
1,336,1,1,1.0,1.0,0.309416640084,0,0.0,0.0,0.0,0.324930422931,0.0665166520993,0.258413770832,0.39144707503,0.0665166520993,0.280243233467,427,0.163265173604,0.444863218481,-0.840208708629,nan,nan,nan,nan,0.0,0.0,0.0,nan,146.482976858,526.253734058,526.753748598,526.563150698,nan,nan,nan,nan
1,337,1,1,1.0,1.0,0.301279401407,0,0.0,0.0,0.0,0.324884250958,0.0664229713728,0.258461279585,0.391307222331,0.0664229713728,0.282767957542,506,0.797774742377,0.236703125255,-1.0,nan,nan,nan,nan,0.0,0.0,0.0,nan,146.482976858,527.25385722,527.753881739,527.555136621,nan,nan,nan,nan
1,338,1,1,1.0,1.0,0.30115424376,0,0.0,0.0,0.0,0.324814206894,0.0663367739513,0.258477432943,0.391150980846,0.0663367739513,0.303950095084,283,0.19826868328,0.351050922538,0.605825948857,nan,nan,nan,nan,0.0,0.0,0.0,nan,146.482976858,528.253971259,528.754007181,528.555125503,nan,nan,nan,nan
1,339,1,1,1.0,1.0,0.301002857275,0,0.0,0.0,0.0,0.324744207003,0.0662510335196,0.258493173484,0.390995240523,0.0662510335196,0.301145500814,152,1.0,-0.259184487343,0.0830625546756,nan,nan,nan,nan,0.0,0.0,0.0,nan,146.482976858,529.254098412,529.754132624,529.555101269,nan,nan,nan,nan
1,340,1,1,1.0,1.0,0.260837249923,0,0.0,0.0,0.0,0.324674173523,0.066165774658,0.258508398865,0.390839948181,0.066165774658,0.287664783653,326,-0.12383419111,0.444071765824,0.352223541474,nan,nan,nan,nan,0.0,0.0,0.0,nan,146.482976858,530.254226706,530.754266049,530.515063956,nan,nan,nan,nan
1,341,1,1,1.0,1.0,0.252727095503,0,0.0,0.0,0.0,0.324486417866,0.0661587788761,0.25832763899,0.390645196742,0.0661587788761,0.271522400901,2,0.863024578927,0.203622855609,-1.0,nan,nan,nan,nan,0.0,0.0,0.0,nan,146.482976858,531.254359561,531.754391777,531.507086657,nan,nan,nan,nan
1,342,1,1,1.0,1.0,0.268548838794,0,0.0,0.0,0.0,0.32427597997,0.0661755611142,0.258100418856,0.390451541084,0.0661755611142,0.26070439474,469,0.489482198204,0.360453357602,-1.0,nan,nan,nan,nan,0.0,0.0,0.0,nan,146.482976858,532.25448814,532.754529479,532.523036979,nan,nan,nan,nan
1,343,1,1,1.0,1.0,0.220379418693,0,1.0,0.0,0.0,0.324113035113,0.0661472153318,0.257965819781,0.390260250445,0.0661472153318,0.247218450997,237,0.686387300223,0.174031846447,0.636349816437,nan,nan,nan,nan,0.0,0.0,0.0,nan,146.482976858,533.254615008,533.754654637,533.474994427,nan,nan,nan,nan
1,344,1,1,1.0,1.0,0.338549563196,1,0.0,0.0,1.0,0.323810604744,0.0662870907639,0.257523513981,0.390097695508,0.0662870907639,0.275825940228,120,1.0,-0.310161497659,-0.240162905937,-2.04540848889,92.0454084889,7.67040848889,131.0,1.0,-0.308451667147,-0.125800503078,1.84218882676,146.482976858,534.296452424,534.796457841,534.635001987,537.980192315,538.980379909,536.121627231,537.97186064
1,345,1,1,1.0,1.0,0.34248105064,0,0.0,0.0,0.0,0.323853450554,0.0661954294174,0.257658021136,0.390048879971,0.0661954294174,0.300470010843,407,0.0305886347219,0.46645515455,-0.502577406972,nan,nan,nan,nan,0.0,0.0,0.0,nan,146.482976858,539.180402261,539.680416516,539.522883311,nan,nan,nan,nan
1,346,1,1,1.0,1.0,0.390302367974,0,0.0,0.0,0.0,0.323907443598,0.0661070098452,0.257800433752,0.390014453443,0.0661070098452,0.357110993937,291,0.122027637739,0.373441943191,0.573791926984,nan,nan,nan,nan,0.0,0.0,0.0,nan,146.482976858,540.180535971,540.680552222,540.570838339,nan,nan,nan,nan
1,347,1,1,1.0,1.0,0.342189681716,0,0.0,0.0,0.0,0.324099336443,0.0661075652683,0.257991771174,0.390206901711,0.0661075652683,0.358324366777,88,1.0,-0.225257592204,-0.599932847766,nan,nan,nan,nan,0.0,0.0,0.0,nan,146.482976858,541.180648299,541.680679945,541.522837981,nan,nan,nan,nan
1,348,0,0,0.0,1.0,0.486006013583,0,0.0,0.0,0.0,0.324151470002,0.0660193631916,0.258132106811,0.390170833194,0.0660193631916,0.406166021091,171,1.0,-0.176011872558,0.256450910142,nan,nan,nan,nan,0.0,0.0,0.0,nan,146.482976858,542.180802537,542.680833898,542.66680855,nan,nan,nan,nan
1,349,1,1,1.0,1.0,0.237888365984,0,0.0,0.0,0.0,0.324616569266,0.0664913065051,0.258125262761,0.391107875771,0.0664913065051,0.355361353761,474,0.530901762182,0.346545376391,-1.0,nan,nan,nan,nan,0.0,0.0,0.0,nan,146.482976858,543.18091287,543.680945941,543.418801236,nan,nan,nan,nan
1,350,1,1,1.0,1.0,0.285756724421,0,0.0,0.0,0.0,0.324368064385,0.066557618476,0.257810445909,0.390925682861,0.066557618476,0.336550367996,234,0.71814774995,0.15974031316,0.62913160129,nan,nan,nan,nan,0.0,0.0,0.0,nan,146.482976858,544.18104715,544.681067107,544.466803874,nan,nan,nan,nan
1,351,1,1,1.0,1.0,0.301618666854,0,0.0,0.0,0.0,0.324257746271,0.066494413546,0.257763332725,0.390752159817,0.066494413546,0.275087919086,110,1.0,-0.296722754836,-0.346921960777,nan,nan,nan,nan,0.0,0.0,0.0,nan,146.482976858,545.181153776,545.681196541,545.482772443,nan,nan,nan,nan
1,352,1,1,1.0,1.0,0.27745469939,0,0.0,0.0,0.0,0.324193247469,0.0664105878613,0.257782659608,0.390603835331,0.0664105878613,0.288276696888,493,0.689769084006,0.285700779988,-1.0,nan,nan,nan,nan,0.0,0.0,0.0,nan,146.482976858,546.181284351,546.681325975,546.45873905,nan,nan,nan,nan
1,353,1,1,1.0,1.0,0.261333318893,0,0.0,0.0,0.0,0.324060467503,0.066362828775,0.257697638728,0.390423296278,0.066362828775,0.280135561712,54,1.0,-0.0546292063271,-1.0,nan,nan,nan,nan,0.0,0.0,0.0,nan,146.482976858,547.181417491,547.681450848,547.44275081,nan,nan,nan,nan
1,354,1,1,1.0,1.0,0.269121883903,0,0.0,0.0,0.0,0.323882770198,0.0663525728236,0.257530197375,0.390235343022,0.0663525728236,0.269303300728,369,-0.147694689129,0.477999187239,-0.0564338676883,nan,nan,nan,nan,0.0,0.0,0.0,nan,146.482976858,548.181573724,548.681588264,548.450695608,nan,nan,nan,nan
1,355,1,1,1.0,1.0,0.276999399532,0,0.0,0.0,0.0,0.323728078429,0.0663225010492,0.25740557738,0.390050579478,0.0663225010492,0.269151534109,106,1.0,-0.287630069369,-0.390564445695,nan,nan,nan,nan,0.0,0.0,0.0,nan,146.482976858,549.181695175,549.681713137,549.458694575,nan,nan,nan,nan
1,356,0,0,1.0,0.0,0.276856280863,0,0.0,0.0,0.0,0.323596448348,0.0662753128047,0.257321135543,0.389871761152,0.0662753128047,0.274325854766,354,-0.174470673547,0.472100788149,0.0988677247603,nan,nan,nan,nan,0.0,0.0,0.0,nan,146.482976858,550.181838579,550.681863668,550.45869486,nan,nan,nan,nan
1,357,1,1,1.0,1.0,0.23662994802,0,0.0,0.0,0.0,0.323465155742,0.0662283793983,0.257236776344,0.389693535141,0.0662283793983,0.263495209472,45,1.0,-0.0063957592436,-1.0,nan,nan,nan,nan,0.0,0.0,0.0,nan,146.482976858,551.182001085,551.681977422,551.418631033,nan,nan,nan,nan
1,358,1,1,1.0,1.0,0.308571612928,0,0.0,0.0,0.0,0.323221919866,0.066294601909,0.256927317957,0.389516521775,0.066294601909,0.274019280604,121,1.0,-0.310732805591,-0.229640808446,nan,nan,nan,nan,0.0,0.0,0.0,nan,146.482976858,552.182063806,552.682102294,552.490635419,nan,nan,nan,nan
1,359,1,1,1.0,1.0,0.244423074648,0,0.0,0.0,0.0,0.323180997221,0.0662064621662,0.256974535055,0.389387459387,0.0662064621662,0.263208211865,42,1.0,0.00954878589686,-1.0,nan,nan,nan,nan,0.0,0.0,0.0,nan,146.482976858,553.182202933,553.682232583,553.426626008,nan,nan,nan,nan
1,360,1,1,1.0,1.0,0.276282380801,0,0.0,0.0,0.0,0.322961615821,0.0662443642172,0.256717251604,0.389205980039,0.0662443642172,0.276425689459,228,0.780729811514,0.1302769546,0.611433142569,nan,nan,nan,nan,0.0,0.0,0.0,nan,146.482976858,554.18232524,554.682361447,554.458607621,nan,nan,nan,nan
1,361,1,1,1.0,1.0,0.308087802958,0,0.0,0.0,0.0,0.32283195128,0.0661978991598,0.25663405212,0.389029850439,0.0661978991598,0.276264419469,386,-0.0833946583454,0.477495592553,-0.245424736514,nan,nan,nan,nan,0.0,0.0,0.0,nan,146.482976858,555.182451253,555.682498294,555.490539056,nan,nan,nan,nan
1,362,1,1,1.0,1.0,0.267960113939,0,0.0,0.0,0.0,0.322791108764,0.0661106906686,0.256680418095,0.388901799432,0.0661106906686,0.284110099232,437,0.23613482661,0.429770237144,-1.0,nan,nan,nan,nan,0.0,0.0,0.0,nan,146.482976858,556.182591235,556.682622026,556.450551349,nan,nan,nan,nan
