block,trial,freq_trials,correct_response,actual_response,acc,rts,probe_trials,fast_rt_trigger,slow_rt_trigger,rt_triggered,rts_runningavg,rts_runningstd,rts_runningfastthresh,rts_runningslowthresh,rts_runningstd,rts_trailingavg,trials_colorind0,trials_colorind1,trials_colorind2,trials_colorind3,trials_colorind4,trials_colorind5,wholereport_resp0,wholereport_resp1,wholereport_resp2,wholereport_resp3,wholereport_resp4,wholereport_resp5,wholereport_respacc0,wholereport_respacc1,wholereport_respacc2,wholereport_respacc3,wholereport_respacc4,wholereport_respacc5,wholereport_respacc_total,wholereport_respcolorind0,wholereport_respcolorind1,wholereport_respcolorind2,wholereport_respcolorind3,wholereport_respcolorind4,wholereport_respcolorind5,wholereport_resporder0,wholereport_resporder1,wholereport_resporder2,wholereport_resporder3,wholereport_resporder4,wholereport_resporder5,wholereport_rts0,wholereport_rts1,wholereport_rts2,wholereport_rts3,wholereport_rts4,wholereport_rts5,time_blockstart,time_encarray_offset,time_encarray_onset,time_response,time_iti_offset,time_iti_onset,time_memprobe_offset,time_memprobe_onset
1,1,1,1,nan,nan,nan,0,nan,nan,nan,nan,nan,nan,nan,nan,nan,0,2,7,3,8,5,nan,nan,nan,nan,nan,nan,nan,nan,nan,nan,nan,nan,0.0,nan,nan,nan,nan,nan,nan,nan,nan,nan,nan,nan,nan,nan,nan,nan,nan,nan,nan,695.5780666935025,696.5982822428341,nan,nan,nan,nan,nan,nan
1,2,1,1,1.0,1.0,0.6904678615974262,0,nan,nan,nan,nan,nan,nan,nan,nan,nan,6,5,2,0,8,3,nan,nan,nan,nan,nan,nan,nan,nan,nan,nan,nan,nan,0.0,nan,nan,nan,nan,nan,nan,nan,nan,nan,nan,nan,nan,nan,nan,nan,nan,nan,nan,695.5780666935025,697.6235197487404,nan,698.3139876103378,nan,nan,nan,nan
1,3,1,1,1.0,1.0,0.4254243004252203,0,nan,nan,nan,nan,nan,nan,nan,nan,nan,0,2,5,4,3,1,nan,nan,nan,nan,nan,nan,nan,nan,nan,nan,nan,nan,0.0,nan,nan,nan,nan,nan,nan,nan,nan,nan,nan,nan,nan,nan,nan,nan,nan,nan,nan,695.5780666935025,698.6485605387716,nan,699.0739848391968,nan,nan,nan,nan
1,4,1,1,nan,nan,nan,0,nan,nan,nan,nan,nan,nan,nan,nan,nan,1,3,0,7,5,4,nan,nan,nan,nan,nan,nan,nan,nan,nan,nan,nan,nan,0.0,nan,nan,nan,nan,nan,nan,nan,nan,nan,nan,nan,nan,nan,nan,nan,nan,nan,nan,695.5780666935025,699.6653429684229,nan,nan,nan,nan,nan,nan
1,5,1,1,1.0,1.0,0.7517987385508604,0,nan,nan,nan,nan,nan,nan,nan,nan,nan,4,7,1,5,0,8,nan,nan,nan,nan,nan,nan,nan,nan,nan,nan,nan,nan,0.0,nan,nan,nan,nan,nan,nan,nan,nan,nan,nan,nan,nan,nan,nan,nan,nan,nan,nan,695.5780666935025,700.6821097178617,nan,701.4339084564126,nan,nan,nan,nan
1,6,0,0,0.0,1.0,0.7029741444275714,0,nan,nan,nan,nan,nan,nan,nan,nan,nan,0,2,7,6,1,3,nan,nan,nan,nan,nan,nan,nan,nan,nan,nan,nan,nan,0.0,nan,nan,nan,nan,nan,nan,nan,nan,nan,nan,nan,nan,nan,nan,nan,nan,nan,nan,695.5780666935025,701.6989229378523,nan,702.4018970822799,nan,nan,nan,nan
1,7,1,1,1.0,1.0,0.7186680795857683,0,nan,nan,nan,nan,nan,nan,nan,nan,nan,1,5,3,0,4,2,nan,nan,nan,nan,nan,nan,nan,nan,nan,nan,nan,nan,0.0,nan,nan,nan,nan,nan,nan,nan,nan,nan,nan,nan,nan,nan,nan,nan,nan,nan,nan,695.5780666935025,702.7240643666009,nan,703.4427324461867,nan,nan,nan,nan
1,8,1,1,nan,nan,nan,0,nan,nan,nan,nan,nan,nan,nan,nan,nan,8,4,1,3,2,5,nan,nan,nan,nan,nan,nan,nan,nan,nan,nan,nan,nan,0.0,nan,nan,nan,nan,nan,nan,nan,nan,nan,nan,nan,nan,nan,nan,nan,nan,nan,nan,695.5780666935025,703.7408630467253,nan,nan,nan,nan,nan,nan
1,9,1,1,1.0,1.0,0.14018742745975032,1,nan,nan,nan,nan,nan,nan,nan,nan,nan,2,6,3,1,4,8,1.0,1.0,1.0,1.0,1.0,1.0,0.0,1.0,0.0,0.0,0.0,0.0,1.0,8.0,6.0,5.0,5.0,7.0,1.0,4.0,1.0,5.0,2.0,6.0,3.0,6.0937351126922294,1.2140114728244953,7.413142958015669,2.5038808620302007,9.189531465584878,3.9021774736465886,695.5780666935025,704.7576440509292,705.56607671862,704.897831478389,715.8006618206273,716.8109469246119,706.5745266631129,715.7923361777212
1,10,1,1,nan,nan,nan,0,nan,nan,nan,nan,nan,nan,nan,nan,nan,1,7,5,4,3,6,nan,nan,nan,nan,nan,nan,nan,nan,nan,nan,nan,nan,0.0,nan,nan,nan,nan,nan,nan,nan,nan,nan,nan,nan,nan,nan,nan,nan,nan,nan,nan,695.5780666935025,717.0341712574009,nan,nan,nan,nan,nan,nan
1,11,1,1,1.0,1.0,0.6941321936319582,0,nan,nan,nan,nan,nan,nan,nan,nan,nan,4,1,3,2,6,8,nan,nan,nan,nan,nan,nan,nan,nan,nan,nan,nan,nan,0.0,nan,nan,nan,nan,nan,nan,nan,nan,nan,nan,nan,nan,nan,nan,nan,nan,nan,nan,695.5780666935025,718.0593029928859,nan,718.7534351865179,nan,nan,nan,nan
1,12,0,0,0.0,1.0,0.5809772331849672,0,nan,nan,nan,nan,nan,nan,nan,nan,nan,0,5,8,7,1,4,nan,nan,nan,nan,nan,nan,nan,nan,nan,nan,nan,nan,0.0,nan,nan,nan,nan,nan,nan,nan,nan,nan,nan,nan,nan,nan,nan,nan,nan,nan,nan,695.5780666935025,719.0844552552444,nan,719.6654324884294,nan,nan,nan,nan
1,13,1,1,1.0,1.0,0.7158345157513395,0,nan,nan,nan,nan,nan,nan,nan,nan,nan,1,4,3,6,0,7,nan,nan,nan,nan,nan,nan,nan,nan,nan,nan,nan,nan,0.0,nan,nan,nan,nan,nan,nan,nan,nan,nan,nan,nan,nan,nan,nan,nan,nan,nan,nan,695.5780666935025,720.1095693148673,nan,720.8254038306186,nan,nan,nan,nan
1,14,0,0,0.0,1.0,0.7709902249043807,0,nan,nan,nan,nan,nan,nan,nan,nan,nan,7,0,8,5,4,2,nan,nan,nan,nan,nan,nan,nan,nan,nan,nan,nan,nan,0.0,nan,nan,nan,nan,nan,nan,nan,nan,nan,nan,nan,nan,nan,nan,nan,nan,nan,nan,695.5780666935025,721.1263734117965,nan,721.8973636367009,nan,nan,nan,nan
1,15,1,1,1.0,1.0,0.7138519618893042,0,nan,nan,nan,nan,nan,nan,nan,nan,nan,5,3,7,8,0,6,nan,nan,nan,nan,nan,nan,nan,nan,nan,nan,nan,nan,0.0,nan,nan,nan,nan,nan,nan,nan,nan,nan,nan,nan,nan,nan,nan,nan,nan,nan,nan,695.5780666935025,722.151489752112,nan,722.8653417140013,nan,nan,nan,nan
1,16,1,1,0.0,0.0,0.7115942909149453,0,nan,nan,0.0,nan,nan,nan,nan,nan,nan,3,4,6,5,1,7,nan,nan,nan,nan,nan,nan,nan,nan,nan,nan,nan,nan,0.0,nan,nan,nan,nan,nan,nan,nan,nan,nan,nan,nan,nan,nan,nan,nan,nan,nan,nan,695.5780666935025,723.1857445425121,nan,723.897338833427,nan,nan,nan,nan
1,17,1,1,1.0,1.0,0.5752046201378107,0,nan,nan,nan,nan,nan,nan,nan,nan,nan,7,1,4,2,8,0,nan,nan,nan,nan,nan,nan,nan,nan,nan,nan,nan,nan,0.0,nan,nan,nan,nan,nan,nan,nan,nan,nan,nan,nan,nan,nan,nan,nan,nan,nan,nan,695.5780666935025,724.2100808616378,nan,724.7852854817756,nan,nan,nan,nan
1,18,1,1,nan,nan,nan,0,nan,nan,nan,nan,nan,nan,nan,nan,nan,6,5,3,4,2,1,nan,nan,nan,nan,nan,nan,nan,nan,nan,nan,nan,nan,0.0,nan,nan,nan,nan,nan,nan,nan,nan,nan,nan,nan,nan,nan,nan,nan,nan,nan,nan,695.5780666935025,725.2352140225703,nan,nan,nan,nan,nan,nan
1,19,1,1,nan,nan,nan,0,nan,nan,nan,nan,nan,nan,nan,nan,nan,7,2,5,3,1,6,nan,nan,nan,nan,nan,nan,nan,nan,nan,nan,nan,nan,0.0,nan,nan,nan,nan,nan,nan,nan,nan,nan,nan,nan,nan,nan,nan,nan,nan,nan,nan,695.5780666935025,726.2520075709908,nan,nan,nan,nan,nan,nan
1,20,1,1,nan,nan,nan,0,nan,nan,nan,nan,nan,nan,nan,nan,nan,6,7,1,8,4,5,nan,nan,nan,nan,nan,nan,nan,nan,nan,nan,nan,nan,0.0,nan,nan,nan,nan,nan,nan,nan,nan,nan,nan,nan,nan,nan,nan,nan,nan,nan,nan,695.5780666935025,727.2687982684583,nan,nan,nan,nan,nan,nan
1,21,1,1,1.0,1.0,0.6832831707433797,0,nan,nan,nan,nan,nan,nan,nan,nan,nan,0,5,3,7,6,2,nan,nan,nan,nan,nan,nan,nan,nan,nan,nan,nan,nan,0.0,nan,nan,nan,nan,nan,nan,nan,nan,nan,nan,nan,nan,nan,nan,nan,nan,nan,nan,695.5780666935025,728.2939157491783,nan,728.9771989199216,nan,nan,nan,nan
1,22,1,1,1.0,1.0,0.770458806946408,1,nan,nan,nan,nan,nan,nan,nan,nan,nan,3,0,8,6,1,4,1.0,1.0,1.0,1.0,1.0,1.0,1.0,1.0,0.0,1.0,0.0,0.0,3.0,3.0,0.0,1.0,6.0,5.0,5.0,4.0,1.0,5.0,2.0,6.0,3.0,3.4850702632102184,1.140846283058636,4.644243338087108,1.9559139775810763,6.707924542075489,2.6678261499037035,695.5780666935025,729.3107147144037,730.119137688831,730.0811735213501,737.878420468478,738.8740268622641,731.1276130068582,737.8700982467271
1,23,1,1,1.0,1.0,0.6813028976903297,0,nan,nan,nan,nan,nan,nan,nan,nan,nan,2,7,4,5,8,0,nan,nan,nan,nan,nan,nan,nan,nan,nan,nan,nan,nan,0.0,nan,nan,nan,nan,nan,nan,nan,nan,nan,nan,nan,nan,nan,nan,nan,nan,nan,nan,695.5780666935025,739.1036584305693,nan,739.7849613282597,nan,nan,nan,nan
1,24,1,1,nan,nan,nan,0,nan,nan,nan,nan,nan,nan,nan,nan,nan,8,3,2,6,7,1,nan,nan,nan,nan,nan,nan,nan,nan,nan,nan,nan,nan,0.0,nan,nan,nan,nan,nan,nan,nan,nan,nan,nan,nan,nan,nan,nan,nan,nan,nan,nan,695.5780666935025,740.128717181622,nan,nan,nan,nan,nan,nan
1,25,1,1,1.0,1.0,0.6552845152909867,0,nan,nan,nan,nan,nan,nan,nan,nan,nan,5,6,7,3,8,4,nan,nan,nan,nan,nan,nan,nan,nan,nan,nan,nan,nan,0.0,nan,nan,nan,nan,nan,nan,nan,nan,nan,nan,nan,nan,nan,nan,nan,nan,nan,nan,695.5780666935025,741.1455540645402,nan,741.8008385798312,nan,nan,nan,nan
1,26,1,1,nan,nan,nan,0,nan,nan,nan,nan,nan,nan,nan,nan,nan,3,8,0,5,7,2,nan,nan,nan,nan,nan,nan,nan,nan,nan,nan,nan,nan,0.0,nan,nan,nan,nan,nan,nan,nan,nan,nan,nan,nan,nan,nan,nan,nan,nan,nan,nan,695.5780666935025,742.1623299369821,nan,nan,nan,nan,nan,nan
1,27,0,0,0.0,1.0,0.6133489679777995,0,nan,nan,nan,nan,nan,nan,nan,nan,nan,7,1,6,4,3,8,nan,nan,nan,nan,nan,nan,nan,nan,nan,nan,nan,nan,0.0,nan,nan,nan,nan,nan,nan,nan,nan,nan,nan,nan,nan,nan,nan,nan,nan,nan,nan,695.5780666935025,743.1874539749115,nan,743.8008029428893,nan,nan,nan,nan
1,28,1,1,1.0,1.0,0.5881987012689933,0,nan,nan,nan,nan,nan,nan,nan,nan,nan,4,7,2,3,6,1,nan,nan,nan,nan,nan,nan,nan,nan,nan,nan,nan,nan,0.0,nan,nan,nan,nan,nan,nan,nan,nan,nan,nan,nan,nan,nan,nan,nan,nan,nan,nan,695.5780666935025,744.2125862805988,nan,744.8007849818678,nan,nan,nan,nan
1,29,1,1,1.0,1.0,0.7230417291284539,0,nan,nan,nan,nan,nan,nan,nan,nan,nan,1,3,5,8,7,4,nan,nan,nan,nan,nan,nan,nan,nan,nan,nan,nan,nan,0.0,nan,nan,nan,nan,nan,nan,nan,nan,nan,nan,nan,nan,nan,nan,nan,nan,nan,nan,695.5780666935025,745.2377151651308,nan,745.9607568942592,nan,nan,nan,nan
1,30,1,1,1.0,1.0,0.5538954446092248,0,nan,nan,nan,nan,nan,nan,nan,nan,nan,5,4,0,7,2,6,nan,nan,nan,nan,nan,nan,nan,nan,nan,nan,nan,nan,0.0,nan,nan,nan,nan,nan,nan,nan,nan,nan,nan,nan,nan,nan,nan,nan,nan,nan,nan,695.5780666935025,746.262836067006,nan,746.8167315116152,nan,nan,nan,nan
1,31,1,1,1.0,1.0,0.5767632370698266,0,nan,nan,nan,nan,nan,nan,nan,nan,nan,2,3,7,4,0,5,nan,nan,nan,nan,nan,nan,nan,nan,nan,nan,nan,nan,0.0,nan,nan,nan,nan,nan,nan,nan,nan,nan,nan,nan,nan,nan,nan,nan,nan,nan,nan,695.5780666935025,747.2879367270507,nan,747.8646999641205,nan,nan,nan,nan
1,32,1,1,1.0,1.0,0.6319026957498863,0,nan,nan,nan,nan,nan,nan,nan,nan,nan,8,1,0,6,3,4,nan,nan,nan,nan,nan,nan,nan,nan,nan,nan,nan,nan,0.0,nan,nan,nan,nan,nan,nan,nan,nan,nan,nan,nan,nan,nan,nan,nan,nan,nan,nan,695.5780666935025,748.3047770311241,nan,748.936679726874,nan,nan,nan,nan
1,33,1,1,1.0,1.0,0.6707592120510526,0,nan,nan,nan,nan,nan,nan,nan,nan,nan,7,8,6,0,4,1,nan,nan,nan,nan,nan,nan,nan,nan,nan,nan,nan,nan,0.0,nan,nan,nan,nan,nan,nan,nan,nan,nan,nan,nan,nan,nan,nan,nan,nan,nan,nan,695.5780666935025,749.3298856738838,nan,750.0006448859349,nan,nan,nan,nan
1,34,1,1,1.0,1.0,0.5895933883148246,0,nan,nan,nan,nan,nan,nan,nan,nan,nan,1,7,4,3,5,0,nan,nan,nan,nan,nan,nan,nan,nan,nan,nan,nan,nan,0.0,nan,nan,nan,nan,nan,nan,nan,nan,nan,nan,nan,nan,nan,nan,nan,nan,nan,nan,695.5780666935025,750.3550348001882,nan,750.944628188503,nan,nan,nan,nan
1,35,1,1,1.0,1.0,0.6364602319081314,0,nan,nan,nan,nan,nan,nan,nan,nan,nan,8,4,5,6,0,3,nan,nan,nan,nan,nan,nan,nan,nan,nan,nan,nan,nan,0.0,nan,nan,nan,nan,nan,nan,nan,nan,nan,nan,nan,nan,nan,nan,nan,nan,nan,nan,695.5780666935025,751.3801388813881,nan,752.0165991132963,nan,nan,nan,nan
1,36,0,0,0.0,1.0,0.643279145238921,0,nan,nan,nan,nan,nan,nan,nan,nan,nan,5,6,7,0,1,8,nan,nan,nan,nan,nan,nan,nan,nan,nan,nan,nan,nan,0.0,nan,nan,nan,nan,nan,nan,nan,nan,nan,nan,nan,nan,nan,nan,nan,nan,nan,nan,695.5780666935025,752.4052703318303,nan,753.0485494770692,nan,nan,nan,nan
1,37,1,1,1.0,1.0,0.6261240957537666,0,nan,nan,nan,nan,nan,nan,nan,nan,nan,0,7,3,5,4,6,nan,nan,nan,nan,nan,nan,nan,nan,nan,nan,nan,nan,0.0,nan,nan,nan,nan,nan,nan,nan,nan,nan,nan,nan,nan,nan,nan,nan,nan,nan,nan,695.5780666935025,753.430412615824,nan,754.0565367115778,nan,nan,nan,nan
1,38,1,1,1.0,1.0,0.6089667655760422,1,nan,nan,nan,nan,nan,nan,nan,nan,nan,6,3,2,4,0,8,1.0,1.0,1.0,1.0,1.0,1.0,0.0,1.0,0.0,0.0,0.0,0.0,1.0,4.0,3.0,5.0,0.0,6.0,5.0,5.0,1.0,6.0,2.0,4.0,3.0,6.001890468061902,1.0674262180109508,7.114069546747487,1.9001712568569928,4.281648661475629,3.331403522111941,695.5780666935025,754.4555332325981,755.2639439479681,755.0644999981741,763.4315732394462,764.4313169386587,756.2807506107492,763.4232475965982
1,39,1,1,nan,nan,nan,0,nan,nan,nan,nan,nan,nan,nan,nan,nan,1,4,3,7,6,5,nan,nan,nan,nan,nan,nan,nan,nan,nan,nan,nan,nan,0.0,nan,nan,nan,nan,nan,nan,nan,nan,nan,nan,nan,nan,nan,nan,nan,nan,nan,nan,695.5780666935025,764.6484730144148,nan,nan,nan,nan,nan,nan
1,40,1,1,1.0,1.0,0.7105964567745104,0,nan,nan,nan,nan,nan,nan,nan,nan,nan,4,1,5,8,0,2,nan,nan,nan,nan,nan,nan,nan,nan,nan,nan,nan,nan,0.0,nan,nan,nan,nan,nan,nan,nan,nan,nan,nan,nan,nan,nan,nan,nan,nan,nan,nan,695.5780666935025,765.6736212854739,nan,766.3842177422484,nan,nan,nan,nan
1,41,1,1,1.0,1.0,0.4534571673721075,0,nan,nan,nan,nan,nan,nan,nan,nan,nan,0,5,7,4,8,6,nan,nan,nan,nan,nan,nan,nan,nan,nan,nan,nan,nan,0.0,nan,nan,nan,nan,nan,nan,nan,nan,nan,nan,nan,nan,nan,nan,nan,nan,nan,nan,695.5780666935025,766.6987319238833,nan,767.1521890912554,nan,nan,nan,nan
1,42,1,1,1.0,1.0,0.6043165734154172,0,nan,nan,nan,nan,nan,nan,nan,nan,nan,6,4,0,3,2,8,nan,nan,nan,nan,nan,nan,nan,nan,nan,nan,nan,nan,0.0,nan,nan,nan,nan,nan,nan,nan,nan,nan,nan,nan,nan,nan,nan,nan,nan,nan,nan,695.5780666935025,767.7238408517442,nan,768.3281574251596,nan,nan,nan,nan
1,43,1,1,1.0,1.0,0.5155030637979507,0,nan,nan,nan,nan,nan,nan,nan,nan,nan,0,8,3,6,1,5,nan,nan,nan,nan,nan,nan,nan,nan,nan,nan,nan,nan,0.0,nan,nan,nan,nan,nan,nan,nan,nan,nan,nan,nan,nan,nan,nan,nan,nan,nan,nan,695.5780666935025,768.7406392467674,nan,769.2561423105653,nan,nan,nan,nan
1,44,1,1,1.0,1.0,0.45033993356628343,1,nan,nan,nan,nan,nan,nan,nan,nan,nan,1,2,8,5,7,6,1.0,1.0,1.0,1.0,1.0,1.0,0.0,1.0,0.0,1.0,0.0,0.0,2.0,2.0,2.0,7.0,5.0,6.0,1.0,5.0,1.0,6.0,2.0,4.0,3.0,6.331285777734593,0.9578195556532592,7.259078508766834,1.796286745578982,4.915612597484142,3.092445340822451,695.5780666935025,769.7657744034077,770.5741965225898,770.216114336974,778.900229416322,779.9013655217714,771.5993333897786,778.8918963609613
1,45,1,1,1.0,1.0,0.6504433092195541,0,nan,nan,nan,nan,nan,nan,nan,nan,nan,7,3,1,6,4,0,nan,nan,nan,nan,nan,nan,nan,nan,nan,nan,nan,nan,0.0,nan,nan,nan,nan,nan,nan,nan,nan,nan,nan,nan,nan,nan,nan,nan,nan,nan,nan,695.5780666935025,780.1254040871863,nan,780.7758473964059,nan,nan,nan,nan
1,46,1,1,1.0,1.0,0.5054135352838784,0,nan,nan,nan,nan,nan,nan,nan,nan,nan,3,2,0,4,1,6,nan,nan,nan,nan,nan,nan,nan,nan,nan,nan,nan,nan,0.0,nan,nan,nan,nan,nan,nan,nan,nan,nan,nan,nan,nan,nan,nan,nan,nan,nan,nan,695.5780666935025,781.1505879951292,nan,781.656001530413,nan,nan,nan,nan
1,47,1,1,1.0,1.0,0.4481198951834813,0,nan,nan,nan,nan,nan,nan,nan,nan,nan,5,3,7,1,0,8,nan,nan,nan,nan,nan,nan,nan,nan,nan,nan,nan,nan,0.0,nan,nan,nan,nan,nan,nan,nan,nan,nan,nan,nan,nan,nan,nan,nan,nan,nan,nan,695.5780666935025,782.1756618562504,nan,782.6237817514339,nan,nan,nan,nan
1,48,1,1,1.0,1.0,0.5033001225674525,0,nan,nan,nan,nan,nan,nan,nan,nan,nan,2,0,1,7,5,4,nan,nan,nan,nan,nan,nan,nan,nan,nan,nan,nan,nan,0.0,nan,nan,nan,nan,nan,nan,nan,nan,nan,nan,nan,nan,nan,nan,nan,nan,nan,nan,695.5780666935025,783.1924676637864,nan,783.6957677863538,nan,nan,nan,nan
1,49,1,1,1.0,1.0,0.5181427626521327,0,nan,nan,nan,nan,nan,nan,nan,nan,nan,5,6,8,2,3,7,nan,nan,nan,nan,nan,nan,nan,nan,nan,nan,nan,nan,0.0,nan,nan,nan,nan,nan,nan,nan,nan,nan,nan,nan,nan,nan,nan,nan,nan,nan,nan,695.5780666935025,784.2175936973654,nan,784.7357364600175,nan,nan,nan,nan
1,50,0,0,0.0,1.0,0.677027891157195,0,nan,nan,nan,nan,nan,nan,nan,nan,nan,1,8,6,7,2,4,nan,nan,nan,nan,nan,nan,nan,nan,nan,nan,nan,nan,0.0,nan,nan,nan,nan,nan,nan,nan,nan,nan,nan,nan,nan,nan,nan,nan,nan,nan,nan,695.5780666935025,785.2426980636665,nan,785.9197259548237,nan,nan,nan,nan
1,51,1,1,1.0,1.0,0.6438479106873274,0,nan,nan,nan,nan,nan,nan,nan,nan,nan,8,6,7,2,4,3,nan,nan,nan,nan,nan,nan,nan,nan,nan,nan,nan,nan,0.0,nan,nan,nan,nan,nan,nan,nan,nan,nan,nan,nan,nan,nan,nan,nan,nan,nan,nan,695.5780666935025,786.26782523765,nan,786.9116731483373,nan,nan,nan,nan
1,52,1,1,1.0,1.0,0.6746462036971934,0,nan,nan,nan,nan,nan,nan,nan,nan,nan,4,5,0,1,3,2,nan,nan,nan,nan,nan,nan,nan,nan,nan,nan,nan,nan,0.0,nan,nan,nan,nan,nan,nan,nan,nan,nan,nan,nan,nan,nan,nan,nan,nan,nan,nan,695.5780666935025,787.2930014479789,nan,787.9676476516761,nan,nan,nan,nan
1,53,1,1,nan,nan,nan,0,nan,nan,nan,nan,nan,nan,nan,nan,nan,1,4,8,6,2,0,nan,nan,nan,nan,nan,nan,nan,nan,nan,nan,nan,nan,0.0,nan,nan,nan,nan,nan,nan,nan,nan,nan,nan,nan,nan,nan,nan,nan,nan,nan,nan,695.5780666935025,788.3180955508724,nan,nan,nan,nan,nan,nan
1,54,0,0,nan,nan,nan,0,nan,nan,nan,nan,nan,nan,nan,nan,nan,8,3,4,5,0,6,nan,nan,nan,nan,nan,nan,nan,nan,nan,nan,nan,nan,0.0,nan,nan,nan,nan,nan,nan,nan,nan,nan,nan,nan,nan,nan,nan,nan,nan,nan,nan,695.5780666935025,789.3432634935016,nan,nan,nan,nan,nan,nan
1,55,1,1,nan,nan,nan,0,nan,nan,nan,nan,nan,nan,nan,nan,nan,3,0,2,6,8,5,nan,nan,nan,nan,nan,nan,nan,nan,nan,nan,nan,nan,0.0,nan,nan,nan,nan,nan,nan,nan,nan,nan,nan,nan,nan,nan,nan,nan,nan,nan,nan,695.5780666935025,790.3683404906769,nan,nan,nan,nan,nan,nan
1,56,0,0,1.0,0.0,0.7420467630727217,0,nan,nan,0.0,nan,nan,nan,nan,nan,nan,4,3,5,8,7,1,nan,nan,nan,nan,nan,nan,nan,nan,nan,nan,nan,nan,0.0,nan,nan,nan,nan,nan,nan,nan,nan,nan,nan,nan,nan,nan,nan,nan,nan,nan,nan,695.5780666935025,791.3934924679343,nan,792.135539231007,nan,nan,nan,nan
1,57,1,1,nan,nan,nan,0,nan,nan,nan,nan,nan,nan,nan,nan,nan,7,6,1,3,2,0,nan,nan,nan,nan,nan,nan,nan,nan,nan,nan,nan,nan,0.0,nan,nan,nan,nan,nan,nan,nan,nan,nan,nan,nan,nan,nan,nan,nan,nan,nan,nan,695.5780666935025,792.4102783187409,nan,nan,nan,nan,nan,nan
1,58,1,1,1.0,1.0,0.7964190298807807,0,nan,nan,nan,nan,nan,nan,nan,nan,nan,2,4,0,5,6,1,nan,nan,nan,nan,nan,nan,nan,nan,nan,nan,nan,nan,0.0,nan,nan,nan,nan,nan,nan,nan,nan,nan,nan,nan,nan,nan,nan,nan,nan,nan,nan,695.5780666935025,793.4270678758039,nan,794.2234869056847,nan,nan,nan,nan
1,59,1,1,nan,nan,nan,0,nan,nan,nan,nan,nan,nan,nan,nan,nan,7,3,5,6,1,4,nan,nan,nan,nan,nan,nan,nan,nan,nan,nan,nan,nan,0.0,nan,nan,nan,nan,nan,nan,nan,nan,nan,nan,nan,nan,nan,nan,nan,nan,nan,nan,695.5780666935025,794.46056374209,nan,nan,nan,nan,nan,nan
1,60,1,1,1.0,1.0,0.7857767012901604,0,nan,nan,nan,nan,nan,nan,nan,nan,nan,8,7,3,5,0,1,nan,nan,nan,nan,nan,nan,nan,nan,nan,nan,nan,nan,0.0,nan,nan,nan,nan,nan,nan,nan,nan,nan,nan,nan,nan,nan,nan,nan,nan,nan,nan,695.5780666935025,795.4856589853298,nan,796.27143568662,nan,nan,nan,nan
1,61,1,1,nan,nan,nan,0,nan,nan,nan,nan,nan,nan,nan,nan,nan,2,3,7,6,4,8,nan,nan,nan,nan,nan,nan,nan,nan,nan,nan,nan,nan,0.0,nan,nan,nan,nan,nan,nan,nan,nan,nan,nan,nan,nan,nan,nan,nan,nan,nan,nan,695.5780666935025,796.5024622270139,nan,nan,nan,nan,nan,nan
1,62,1,1,nan,nan,nan,0,nan,nan,nan,nan,nan,nan,nan,nan,nan,1,2,5,0,8,3,nan,nan,nan,nan,nan,nan,nan,nan,nan,nan,nan,nan,0.0,nan,nan,nan,nan,nan,nan,nan,nan,nan,nan,nan,nan,nan,nan,nan,nan,nan,nan,695.5780666935025,797.5275674486184,nan,nan,nan,nan,nan,nan
1,63,1,1,nan,nan,nan,0,nan,nan,nan,nan,nan,nan,nan,nan,nan,7,4,3,2,6,1,nan,nan,nan,nan,nan,nan,nan,nan,nan,nan,nan,nan,0.0,nan,nan,nan,nan,nan,nan,nan,nan,nan,nan,nan,nan,nan,nan,nan,nan,nan,nan,695.5780666935025,798.5526829336304,nan,nan,nan,nan,nan,nan
1,64,1,1,nan,nan,nan,0,nan,nan,nan,nan,nan,nan,nan,nan,nan,2,0,7,4,3,5,nan,nan,nan,nan,nan,nan,nan,nan,nan,nan,nan,nan,0.0,nan,nan,nan,nan,nan,nan,nan,nan,nan,nan,nan,nan,nan,nan,nan,nan,nan,nan,695.5780666935025,799.5778217965271,nan,nan,nan,nan,nan,nan
1,65,1,1,nan,nan,nan,0,nan,nan,nan,nan,nan,nan,nan,nan,nan,7,4,3,5,2,6,nan,nan,nan,nan,nan,nan,nan,nan,nan,nan,nan,nan,0.0,nan,nan,nan,nan,nan,nan,nan,nan,nan,nan,nan,nan,nan,nan,nan,nan,nan,nan,695.5780666935025,800.5946002348792,nan,nan,nan,nan,nan,nan
1,66,1,1,1.0,1.0,0.02788490237435326,0,nan,nan,nan,nan,nan,nan,nan,nan,nan,6,2,5,7,4,3,nan,nan,nan,nan,nan,nan,nan,nan,nan,nan,nan,nan,0.0,nan,nan,nan,nan,nan,nan,nan,nan,nan,nan,nan,nan,nan,nan,nan,nan,nan,nan,695.5780666935025,801.6114257139852,nan,801.6393106163596,nan,nan,nan,nan
1,67,1,1,1.0,1.0,0.010712177027016878,0,nan,nan,nan,nan,nan,nan,nan,nan,nan,1,5,8,0,6,2,nan,nan,nan,nan,nan,nan,nan,nan,nan,nan,nan,nan,0.0,nan,nan,nan,nan,nan,nan,nan,nan,nan,nan,nan,nan,nan,nan,nan,nan,nan,nan,695.5780666935025,802.6365506071597,nan,802.6472627841868,nan,nan,nan,nan
1,68,1,1,1.0,1.0,0.049563846725504845,0,nan,nan,nan,nan,nan,nan,nan,nan,nan,6,4,0,3,1,7,nan,nan,nan,nan,nan,nan,nan,nan,nan,nan,nan,nan,0.0,nan,nan,nan,nan,nan,nan,nan,nan,nan,nan,nan,nan,nan,nan,nan,nan,nan,nan,695.5780666935025,803.6616797767929,nan,803.7112436235184,nan,nan,nan,nan
1,69,1,1,1.0,1.0,0.09674258471932262,0,nan,nan,nan,nan,nan,nan,nan,nan,nan,3,0,7,5,8,4,nan,nan,nan,nan,nan,nan,nan,nan,nan,nan,nan,nan,0.0,nan,nan,nan,nan,nan,nan,nan,nan,nan,nan,nan,nan,nan,nan,nan,nan,nan,nan,695.5780666935025,804.6784958477365,nan,804.7752384324558,nan,nan,nan,nan
1,70,1,1,1.0,1.0,0.5119285368127748,0,nan,nan,nan,nan,nan,nan,nan,nan,nan,4,2,6,8,1,3,nan,nan,nan,nan,nan,nan,nan,nan,nan,nan,nan,nan,0.0,nan,nan,nan,nan,nan,nan,nan,nan,nan,nan,nan,nan,nan,nan,nan,nan,nan,nan,695.5780666935025,805.6952600313234,nan,806.2071885681362,nan,nan,nan,nan
1,71,1,1,1.0,1.0,0.45510473410831764,0,nan,nan,nan,nan,nan,nan,nan,nan,nan,1,5,3,7,0,4,nan,nan,nan,nan,nan,nan,nan,nan,nan,nan,nan,nan,0.0,nan,nan,nan,nan,nan,nan,nan,nan,nan,nan,nan,nan,nan,nan,nan,nan,nan,nan,695.5780666935025,806.7120595666929,nan,807.1671643008012,nan,nan,nan,nan
1,72,1,1,1.0,1.0,0.41425368993077427,0,nan,nan,nan,nan,nan,nan,nan,nan,nan,2,0,8,1,4,6,nan,nan,nan,nan,nan,nan,nan,nan,nan,nan,nan,nan,0.0,nan,nan,nan,nan,nan,nan,nan,nan,nan,nan,nan,nan,nan,nan,nan,nan,nan,nan,695.5780666935025,807.7288642338244,nan,808.1431179237552,nan,nan,nan,nan
1,73,1,1,1.0,1.0,0.3731443492579274,0,nan,nan,nan,nan,nan,nan,nan,nan,nan,8,6,5,4,7,2,nan,nan,nan,nan,nan,nan,nan,nan,nan,nan,nan,nan,0.0,nan,nan,nan,nan,nan,nan,nan,nan,nan,nan,nan,nan,nan,nan,nan,nan,nan,nan,695.5780666935025,808.7539791486925,nan,809.1271234979504,nan,nan,nan,nan
1,74,0,0,1.0,0.0,0.6039787352783605,0,nan,nan,0.0,nan,nan,nan,nan,nan,nan,0,7,4,5,3,6,nan,nan,nan,nan,nan,nan,nan,nan,nan,nan,nan,nan,0.0,nan,nan,nan,nan,nan,nan,nan,nan,nan,nan,nan,nan,nan,nan,nan,nan,nan,nan,695.5780666935025,809.7790932082571,nan,810.3830719435355,nan,nan,nan,nan
1,75,1,1,1.0,1.0,0.6831126837059855,0,nan,nan,nan,nan,nan,nan,nan,nan,nan,4,2,5,1,0,8,nan,nan,nan,nan,nan,nan,nan,nan,nan,nan,nan,nan,0.0,nan,nan,nan,nan,nan,nan,nan,nan,nan,nan,nan,nan,nan,nan,nan,nan,nan,nan,695.5780666935025,810.7959152662079,nan,811.4790279499139,nan,nan,nan,nan
1,76,1,1,1.0,1.0,0.5543173859477974,0,nan,nan,nan,nan,nan,nan,nan,nan,nan,5,0,4,8,6,1,nan,nan,nan,nan,nan,nan,nan,nan,nan,nan,nan,nan,0.0,nan,nan,nan,nan,nan,nan,nan,nan,nan,nan,nan,nan,nan,nan,nan,nan,nan,nan,695.5780666935025,811.8127039679675,nan,812.3670213539153,nan,nan,nan,nan
1,77,1,1,1.0,1.0,0.49749443848850206,0,nan,nan,nan,nan,nan,nan,nan,nan,nan,4,6,7,0,5,8,nan,nan,nan,nan,nan,nan,nan,nan,nan,nan,nan,nan,0.0,nan,nan,nan,nan,nan,nan,nan,nan,nan,nan,nan,nan,nan,nan,nan,nan,nan,nan,695.5780666935025,812.8295006524422,nan,813.3269950909307,nan,nan,nan,nan
1,78,1,1,1.0,1.0,0.4083909867913462,0,nan,nan,nan,nan,nan,nan,nan,nan,nan,6,2,5,7,0,3,nan,nan,nan,nan,nan,nan,nan,nan,nan,nan,nan,nan,0.0,nan,nan,nan,nan,nan,nan,nan,nan,nan,nan,nan,nan,nan,nan,nan,nan,nan,nan,695.5780666935025,813.8545856322744,nan,814.2629766190657,nan,nan,nan,nan
1,79,1,1,1.0,1.0,0.3592088828445412,0,nan,nan,nan,nan,nan,nan,nan,nan,nan,3,0,4,2,1,5,nan,nan,nan,nan,nan,nan,nan,nan,nan,nan,nan,nan,0.0,nan,nan,nan,nan,nan,nan,nan,nan,nan,nan,nan,nan,nan,nan,nan,nan,nan,nan,695.5780666935025,814.8797361840843,nan,815.2389450669289,nan,nan,nan,nan
1,80,1,1,1.0,1.0,0.558043583703693,0,nan,nan,nan,nan,nan,nan,nan,nan,nan,1,8,6,3,7,4,nan,nan,nan,nan,nan,nan,nan,nan,nan,nan,nan,nan,0.0,nan,nan,nan,nan,nan,nan,nan,nan,nan,nan,nan,nan,nan,nan,nan,nan,nan,nan,695.5780666935025,815.904869915219,nan,816.4629134989227,nan,nan,nan,nan
1,81,1,1,1.0,1.0,0.4928693347610533,0,0.0,0.0,0.0,0.5621341239185615,0.1846465165784248,0.37748760734013675,0.7467806404969863,0.1846465165784248,0.4700406004364292,8,0,1,6,2,3,nan,nan,nan,nan,nan,nan,nan,nan,nan,nan,nan,nan,0.0,nan,nan,nan,nan,nan,nan,nan,nan,nan,nan,nan,nan,nan,nan,nan,nan,nan,nan,695.5780666935025,816.9300050718593,nan,817.4228744066204,nan,nan,nan,nan
1,82,1,1,1.0,1.0,0.5960165891447105,0,0.0,0.0,0.0,0.5609986355717171,0.18333786452701487,0.3776607710447023,0.744336500098732,0.18333786452701487,0.5489765025364856,7,5,4,3,8,2,nan,nan,nan,nan,nan,nan,nan,nan,nan,nan,nan,nan,0.0,nan,nan,nan,nan,nan,nan,nan,nan,nan,nan,nan,nan,nan,nan,nan,nan,nan,nan,695.5780666935025,817.946851933084,nan,818.5428685222287,nan,nan,nan,nan
1,83,1,1,1.0,1.0,0.5232168918009847,0,0.0,0.0,0.0,0.5615634412745074,0.18190681793343694,0.3796566233410705,0.7434702592079443,0.18190681793343694,0.5373676052355828,5,6,3,4,7,0,nan,nan,nan,nan,nan,nan,nan,nan,nan,nan,nan,nan,0.0,nan,nan,nan,nan,nan,nan,nan,nan,nan,nan,nan,nan,nan,nan,nan,nan,nan,nan,695.5780666935025,818.963633222389,nan,819.48685011419,nan,nan,nan,nan
1,84,1,1,1.0,1.0,0.5144336707307957,0,0.0,0.0,0.0,0.5609547658860388,0.18052097106848614,0.38043379481755263,0.7414757369545248,0.18052097106848614,0.544555717225497,6,1,4,0,5,8,nan,nan,nan,nan,nan,nan,nan,nan,nan,nan,nan,nan,0.0,nan,nan,nan,nan,nan,nan,nan,nan,nan,nan,nan,nan,nan,nan,nan,nan,nan,nan,695.5780666935025,819.9803760237992,nan,820.49480969453,nan,nan,nan,nan
1,85,1,1,1.0,1.0,0.48128562088822946,0,0.0,0.0,0.0,0.5602278737742381,0.1791980014883337,0.3810298722859044,0.7394258752625718,0.1791980014883337,0.5063120611400033,7,5,8,6,2,0,nan,nan,nan,nan,nan,nan,nan,nan,nan,nan,nan,nan,0.0,nan,nan,nan,nan,nan,nan,nan,nan,nan,nan,nan,nan,nan,nan,nan,nan,nan,nan,695.5780666935025,821.0055051934323,nan,821.4867908143206,nan,nan,nan,nan
1,86,1,1,1.0,1.0,0.4801335501251742,0,0.0,0.0,0.0,0.5590133775759918,0.1780794603721837,0.3809339172038081,0.7370928379481755,0.1780794603721837,0.4919509472480665,8,0,5,4,3,6,nan,nan,nan,nan,nan,nan,nan,nan,nan,nan,nan,nan,0.0,nan,nan,nan,nan,nan,nan,nan,nan,nan,nan,nan,nan,nan,nan,nan,nan,nan,nan,695.5780666935025,822.0306346481666,nan,822.5107681982918,nan,nan,nan,nan
1,87,1,1,1.0,1.0,0.4152959989150986,0,0.0,0.0,0.0,0.5578182286752219,0.17698771047297493,0.380830518202247,0.7348059391481968,0.17698771047297493,0.4589050566428341,4,7,0,5,6,8,nan,nan,nan,nan,nan,nan,nan,nan,nan,nan,nan,nan,0.0,nan,nan,nan,nan,nan,nan,nan,nan,nan,nan,nan,nan,nan,nan,nan,nan,nan,nan,695.5780666935025,823.0474287667894,nan,823.4627247657045,nan,nan,nan,nan
1,88,1,1,1.0,1.0,0.47047907731030136,0,0.0,0.0,0.0,0.5556910312161155,0.17650995872752548,0.37918107248859,0.732200989943641,0.17650995872752548,0.4553028754501914,0,2,4,1,3,5,nan,nan,nan,nan,nan,nan,nan,nan,nan,nan,nan,nan,0.0,nan,nan,nan,nan,nan,nan,nan,nan,nan,nan,nan,nan,nan,nan,nan,nan,nan,nan,695.5780666935025,824.0642251661047,nan,824.534704243415,nan,nan,nan,nan
1,89,1,1,1.0,1.0,0.6053574569523335,0,0.0,0.0,0.0,0.5544379142469124,0.17550727264353663,0.37893064160337575,0.729945186890449,0.17550727264353663,0.49704417772591114,4,7,5,0,6,8,nan,nan,nan,nan,nan,nan,nan,nan,nan,nan,nan,nan,0.0,nan,nan,nan,nan,nan,nan,nan,nan,nan,nan,nan,nan,nan,nan,nan,nan,nan,nan,695.5780666935025,825.0893258262076,nan,825.69468328316,nan,nan,nan,nan
1,90,1,1,1.0,1.0,0.6121279040817171,0,0.0,0.0,0.0,0.5551758786339475,0.17433708021326463,0.3808387984206828,0.7295129588472121,0.17433708021326463,0.5626548127814507,0,1,8,2,7,4,nan,nan,nan,nan,nan,nan,nan,nan,nan,nan,nan,nan,0.0,nan,nan,nan,nan,nan,nan,nan,nan,nan,nan,nan,nan,nan,nan,nan,nan,nan,nan,695.5780666935025,826.1145114447572,nan,826.726639348839,nan,nan,nan,nan
1,91,1,1,1.0,1.0,0.6189881562604569,0,0.0,0.0,0.0,0.5559894789974871,0.17321922555316785,0.38277025344431925,0.7292087045506549,0.17321922555316785,0.6121578390981691,3,0,5,8,2,6,nan,nan,nan,nan,nan,nan,nan,nan,nan,nan,nan,nan,0.0,nan,nan,nan,nan,nan,nan,nan,nan,nan,nan,nan,nan,nan,nan,nan,nan,nan,nan,695.5780666935025,827.1396337720798,nan,827.7586219283403,nan,nan,nan,nan
1,92,1,1,1.0,1.0,0.4898618626757525,0,0.0,0.0,0.0,0.55687678431105,0.17215518471665214,0.3847215995943979,0.7290319690277022,0.17215518471665214,0.5736593076726422,4,1,0,3,6,7,nan,nan,nan,nan,nan,nan,nan,nan,nan,nan,nan,nan,0.0,nan,nan,nan,nan,nan,nan,nan,nan,nan,nan,nan,nan,nan,nan,nan,nan,nan,nan,695.5780666935025,828.1647421297384,nan,828.6546039924142,nan,nan,nan,nan
1,93,1,1,1.0,1.0,0.5370403156266548,0,0.0,0.0,0.0,0.5559460215105597,0.17113528461458158,0.3848107368959781,0.7270813061251413,0.17113528461458158,0.5486301115209548,0,8,6,7,5,4,nan,nan,nan,nan,nan,nan,nan,nan,nan,nan,nan,nan,0.0,nan,nan,nan,nan,nan,nan,nan,nan,nan,nan,nan,nan,nan,nan,nan,nan,nan,nan,695.5780666935025,829.181541380065,nan,829.7185816956917,nan,nan,nan,nan
1,94,1,1,1.0,1.0,0.6002445548656397,0,0.0,0.0,0.0,0.5556870392381775,0.16997328942297682,0.3857137498152007,0.7256603286611544,0.16997328942297682,0.542382244389349,1,5,2,8,4,6,nan,nan,nan,nan,nan,nan,nan,nan,nan,nan,nan,nan,0.0,nan,nan,nan,nan,nan,nan,nan,nan,nan,nan,nan,nan,nan,nan,nan,nan,nan,nan,695.5780666935025,830.1983098400524,nan,830.798554394918,nan,nan,nan,nan
1,95,1,1,1.0,1.0,0.7033929496537894,0,0.0,0.0,0.0,0.5562891678277377,0.16889928385448752,0.38738988397325025,0.7251884516822252,0.16889928385448752,0.613559273382028,6,7,3,1,2,4,nan,nan,nan,nan,nan,nan,nan,nan,nan,nan,nan,nan,0.0,nan,nan,nan,nan,nan,nan,nan,nan,nan,nan,nan,nan,nan,nan,nan,nan,nan,nan,695.5780666935025,831.2151184984832,nan,831.918511448137,nan,nan,nan,nan
1,96,1,1,1.0,1.0,0.662232862028759,0,0.0,0.0,0.0,0.5582505515854185,0.16861580131824366,0.3896347502671748,0.7268663529036621,0.16861580131824366,0.6552901221827293,4,0,2,5,1,6,nan,nan,nan,nan,nan,nan,nan,nan,nan,nan,nan,nan,0.0,nan,nan,nan,nan,nan,nan,nan,nan,nan,nan,nan,nan,nan,nan,nan,nan,nan,nan,695.5780666935025,832.2402473830152,nan,832.902480245044,nan,nan,nan,nan
1,97,1,1,1.0,1.0,0.6530681831645779,0,0.0,0.0,0.0,0.5596187398807256,0.16792137444154187,0.39169736543918376,0.7275401143222675,0.16792137444154187,0.6728979982823754,2,7,8,1,6,4,nan,nan,nan,nan,nan,nan,nan,nan,nan,nan,nan,nan,0.0,nan,nan,nan,nan,nan,nan,nan,nan,nan,nan,nan,nan,nan,nan,nan,nan,nan,nan,695.5780666935025,833.2653882415616,nan,833.9184564247262,nan,nan,nan,nan
1,98,1,1,1.0,1.0,0.7162798348581418,0,0.0,0.0,0.0,0.5608323690142821,0.16716257243791663,0.39366979657636547,0.7279949414521988,0.16716257243791663,0.6771936266838262,1,8,3,7,5,0,nan,nan,nan,nan,nan,nan,nan,nan,nan,nan,nan,nan,0.0,nan,nan,nan,nan,nan,nan,nan,nan,nan,nan,nan,nan,nan,nan,nan,nan,nan,nan,695.5780666935025,834.2821589823579,nan,834.9984388172161,nan,nan,nan,nan
1,99,0,0,0.0,1.0,0.7874228424625471,0,0.0,0.0,0.0,0.5628252852430495,0.16700568829221593,0.3958195969508336,0.7298309735352655,0.16700568829221593,0.7189236201617556,6,1,7,5,3,8,nan,nan,nan,nan,nan,nan,nan,nan,nan,nan,nan,nan,0.0,nan,nan,nan,nan,nan,nan,nan,nan,nan,nan,nan,nan,nan,nan,nan,nan,nan,nan,695.5780666935025,835.2989807552076,nan,836.0864035976701,nan,nan,nan,nan
1,100,1,1,1.0,1.0,0.6022755749872886,0,0.0,0.0,0.0,0.5656682922964609,0.16783414523303747,0.3978341470634234,0.7335024375294983,0.16783414523303747,0.7019927507693259,7,8,2,1,4,3,nan,nan,nan,nan,nan,nan,nan,nan,nan,nan,nan,nan,0.0,nan,nan,nan,nan,nan,nan,nan,nan,nan,nan,nan,nan,nan,nan,nan,nan,nan,nan,695.5780666935025,836.3241033676313,nan,836.9263789426186,nan,nan,nan,nan
1,101,1,1,1.0,1.0,0.5134697628673166,0,0.0,0.0,0.0,0.5661258833300963,0.16683146683719183,0.3992944164929044,0.7329573501672881,0.16683146683719183,0.6343893934390508,2,3,0,7,6,1,nan,nan,nan,nan,nan,nan,nan,nan,nan,nan,nan,nan,0.0,nan,nan,nan,nan,nan,nan,nan,nan,nan,nan,nan,nan,nan,nan,nan,nan,nan,nan,695.5780666935025,837.3409034732613,nan,837.8543732361286,nan,nan,nan,nan
1,102,1,1,1.0,1.0,0.49668647797079757,0,0.0,0.0,0.0,0.5654758077688273,0.16590036809018052,0.39957543967864684,0.7313761758590078,0.16590036809018052,0.537477271941801,5,0,2,6,4,8,nan,nan,nan,nan,nan,nan,nan,nan,nan,nan,nan,nan,0.0,nan,nan,nan,nan,nan,nan,nan,nan,nan,nan,nan,nan,nan,nan,nan,nan,nan,nan,695.5780666935025,838.3576511212741,nan,838.8543375992449,nan,nan,nan,nan
1,103,1,1,1.0,1.0,0.46382152795558795,0,0.0,0.0,0.0,0.5646369135029977,0.16505844373849987,0.39957846976449785,0.7296953572414976,0.16505844373849987,0.49132592293123406,6,7,8,1,3,4,nan,nan,nan,nan,nan,nan,nan,nan,nan,nan,nan,nan,0.0,nan,nan,nan,nan,nan,nan,nan,nan,nan,nan,nan,nan,nan,nan,nan,nan,nan,nan,695.5780666935025,839.374476315279,nan,839.8382978432346,nan,nan,nan,nan
1,104,1,1,1.0,1.0,0.49464177328627557,0,0.0,0.0,0.0,0.5634222703036313,0.1644293914046508,0.39899287889898055,0.7278516617082822,0.1644293914046508,0.48504992640422034,8,6,1,3,2,5,nan,nan,nan,nan,nan,nan,nan,nan,nan,nan,nan,nan,0.0,nan,nan,nan,nan,nan,nan,nan,nan,nan,nan,nan,nan,nan,nan,nan,nan,nan,nan,695.5780666935025,840.3996248713811,nan,840.8942666446674,nan,nan,nan,nan
1,105,1,1,1.0,1.0,0.5015245480462909,0,0.0,0.0,0.0,0.5626034548629486,0.1636178581011253,0.3989855967618233,0.7262213129640739,0.1636178581011253,0.4866626164293848,4,5,8,6,1,2,nan,nan,nan,nan,nan,nan,nan,nan,nan,nan,nan,nan,0.0,nan,nan,nan,nan,nan,nan,nan,nan,nan,nan,nan,nan,nan,nan,nan,nan,nan,nan,695.5780666935025,841.4247355097905,nan,841.9262600578368,nan,nan,nan,nan
1,106,1,1,1.0,1.0,0.46837877901270986,0,0.0,0.0,0.0,0.561884879488635,0.16278582956778037,0.3990990499208546,0.7246707090564153,0.16278582956778037,0.4881817001150921,8,0,3,2,5,1,nan,nan,nan,nan,nan,nan,nan,nan,nan,nan,nan,nan,0.0,nan,nan,nan,nan,nan,nan,nan,nan,nan,nan,nan,nan,nan,nan,nan,nan,nan,nan,695.5780666935025,842.4498618284706,nan,842.9182406074833,nan,nan,nan,nan
1,107,1,1,1.0,1.0,0.6671903870301321,0,0.0,0.0,0.0,0.5607975992505427,0.16214678820894635,0.3986508110415964,0.7229443874594891,0.16214678820894635,0.5456979046963776,6,3,4,1,7,2,nan,nan,nan,nan,nan,nan,nan,nan,nan,nan,nan,nan,0.0,nan,nan,nan,nan,nan,nan,nan,nan,nan,nan,nan,nan,nan,nan,nan,nan,nan,nan,695.5780666935025,843.4750015466707,nan,844.1421919337008,nan,nan,nan,nan
1,108,1,1,1.0,1.0,0.7538987517473288,0,0.0,0.0,0.0,0.5620205048572047,0.16161061748976602,0.40040988736743865,0.7236311223469707,0.16161061748976602,0.6298226392633902,1,4,0,6,2,5,nan,nan,nan,nan,nan,nan,nan,nan,nan,nan,nan,nan,0.0,nan,nan,nan,nan,nan,nan,nan,nan,nan,nan,nan,nan,nan,nan,nan,nan,nan,nan,695.5780666935025,844.5002735491144,nan,845.2541723008617,nan,nan,nan,nan
1,109,1,1,nan,nan,nan,0,0.0,0.0,0.0,0.5642009394809562,0.16197166419864104,0.4022292752823151,0.7261726036795972,0.16197166419864104,0.7105445693887305,2,5,3,8,6,1,nan,nan,nan,nan,nan,nan,nan,nan,nan,nan,nan,nan,0.0,nan,nan,nan,nan,nan,nan,nan,nan,nan,nan,nan,nan,nan,nan,nan,nan,nan,nan,695.5780666935025,845.5252233936917,nan,nan,nan,nan,nan,nan
1,110,1,1,nan,nan,nan,0,0.0,0.0,0.0,0.5642009394809562,0.16197166419864104,0.4022292752823151,0.7261726036795972,0.16197166419864104,0.7538987517473288,1,2,0,7,5,6,nan,nan,nan,nan,nan,nan,nan,nan,nan,nan,nan,nan,0.0,nan,nan,nan,nan,nan,nan,nan,nan,nan,nan,nan,nan,nan,nan,nan,nan,nan,nan,695.5780666935025,846.5420693996712,nan,nan,nan,nan,nan,nan
1,111,1,1,nan,nan,nan,0,0.0,0.0,0.0,0.5642009394809562,0.16197166419864104,0.4022292752823151,0.7261726036795972,0.16197166419864104,nan,5,1,8,3,4,2,nan,nan,nan,nan,nan,nan,nan,nan,nan,nan,nan,nan,0.0,nan,nan,nan,nan,nan,nan,nan,nan,nan,nan,nan,nan,nan,nan,nan,nan,nan,nan,695.5780666935025,847.5671908716904,nan,nan,nan,nan,nan,nan
1,112,1,1,1.0,1.0,0.7977504256996326,0,0.0,0.0,0.0,0.5642009394809562,0.16197166419864104,0.4022292752823151,0.7261726036795972,0.16197166419864104,0.7977504256996326,0,2,1,6,3,7,nan,nan,nan,nan,nan,nan,nan,nan,nan,nan,nan,nan,0.0,nan,nan,nan,nan,nan,nan,nan,nan,nan,nan,nan,nan,nan,nan,nan,nan,nan,nan,695.5780666935025,848.5922949529486,nan,849.3900453786482,nan,nan,nan,nan
1,113,0,0,0.0,1.0,0.6526077539892867,0,0.0,0.0,0.0,0.566825091011503,0.16292952407491237,0.4038955669365907,0.7297546150864154,0.16292952407491237,0.7251790898444597,1,8,2,7,4,3,nan,nan,nan,nan,nan,nan,nan,nan,nan,nan,nan,nan,0.0,nan,nan,nan,nan,nan,nan,nan,nan,nan,nan,nan,nan,nan,nan,nan,nan,nan,nan,695.5780666935025,849.6174292542855,nan,850.2700370082748,nan,nan,nan,nan
1,114,1,1,1.0,1.0,0.4917899633292109,0,0.0,0.0,0.0,0.5677782317112562,0.16227115701400802,0.40550707469724817,0.7300493887252641,0.16227115701400802,0.6473827143393768,3,6,7,5,2,8,nan,nan,nan,nan,nan,nan,nan,nan,nan,nan,nan,nan,0.0,nan,nan,nan,nan,nan,nan,nan,nan,nan,nan,nan,nan,nan,nan,nan,nan,nan,nan,695.5780666935025,850.6342228027061,nan,851.1260127660353,nan,nan,nan,nan
1,115,1,1,1.0,1.0,0.5706362504279241,0,0.0,0.0,0.0,0.56694319579497,0.16157141515894446,0.4053717806360255,0.7285146109539145,0.16157141515894446,0.5716779892488072,0,1,6,7,5,4,nan,nan,nan,nan,nan,nan,nan,nan,nan,nan,nan,nan,0.0,nan,nan,nan,nan,nan,nan,nan,nan,nan,nan,nan,nan,nan,nan,nan,nan,nan,nan,695.5780666935025,851.6593556785374,nan,852.2299919289653,nan,nan,nan,nan
1,116,1,1,1.0,1.0,0.6014915624400601,0,0.0,0.0,0.0,0.5669833376931542,0.16069136669149212,0.40629197100166214,0.7276747043846463,0.16069136669149212,0.5546392587323984,5,8,1,6,7,2,nan,nan,nan,nan,nan,nan,nan,nan,nan,nan,nan,nan,0.0,nan,nan,nan,nan,nan,nan,nan,nan,nan,nan,nan,nan,nan,nan,nan,nan,nan,nan,695.5780666935025,852.6844737294596,nan,853.2859652918996,nan,nan,nan,nan
1,117,1,1,1.0,1.0,0.5283240919816308,0,0.0,0.0,0.0,0.5673543938732285,0.1598647218229982,0.4074896720502303,0.7272191156962267,0.1598647218229982,0.5668173016165383,3,6,2,0,1,8,nan,nan,nan,nan,nan,nan,nan,nan,nan,nan,nan,nan,0.0,nan,nan,nan,nan,nan,nan,nan,nan,nan,nan,nan,nan,nan,nan,nan,nan,nan,nan,695.5780666935025,853.7096051798435,nan,854.2379292718251,nan,nan,nan,nan
1,118,1,1,1.0,1.0,0.5911634090589359,0,0.0,0.0,0.0,0.5669391778956584,0.15906251219388637,0.40787666570177206,0.7260016900895447,0.15906251219388637,0.5736596878268756,6,3,5,8,4,0,nan,nan,nan,nan,nan,nan,nan,nan,nan,nan,nan,nan,0.0,nan,nan,nan,nan,nan,nan,nan,nan,nan,nan,nan,nan,nan,nan,nan,nan,nan,nan,695.5780666935025,854.7347745479201,nan,855.325937956979,nan,nan,nan,nan
1,119,1,1,1.0,1.0,0.6383538359659724,0,0.0,0.0,0.0,0.5671941698026403,0.1582424395208353,0.408951730281805,0.7254366093234755,0.1582424395208353,0.585947112335513,3,1,8,0,5,6,nan,nan,nan,nan,nan,nan,nan,nan,nan,nan,nan,nan,0.0,nan,nan,nan,nan,nan,nan,nan,nan,nan,nan,nan,nan,nan,nan,nan,nan,nan,nan,695.5780666935025,855.7515310339513,nan,856.3898848699173,nan,nan,nan,nan
1,120,1,1,1.0,1.0,0.6615278209210373,0,0.0,0.0,0.0,0.567935416325175,0.15758180975344416,0.4103536065717308,0.7255172260786191,0.15758180975344416,0.6303483553153152,5,6,4,2,7,1,nan,nan,nan,nan,nan,nan,nan,nan,nan,nan,nan,nan,0.0,nan,nan,nan,nan,nan,nan,nan,nan,nan,nan,nan,nan,nan,nan,nan,nan,nan,nan,695.5780666935025,856.7683280034689,nan,857.42985582439,nan,nan,nan,nan
1,121,0,0,nan,nan,nan,0,0.0,0.0,0.0,0.5689002864756477,0.15705222071763048,0.41184806575801725,0.7259525071932782,0.15705222071763048,0.6499408284435049,3,2,8,4,1,5,nan,nan,nan,nan,nan,nan,nan,nan,nan,nan,nan,nan,0.0,nan,nan,nan,nan,nan,nan,nan,nan,nan,nan,nan,nan,nan,nan,nan,nan,nan,nan,695.5780666935025,857.79344576929,nan,nan,nan,nan,nan,nan
1,122,1,1,1.0,1.0,0.6111927909660153,0,0.0,0.0,0.0,0.5689002864756477,0.15705222071763048,0.41184806575801725,0.7259525071932782,0.15705222071763048,0.6363603059435263,2,8,0,6,7,1,nan,nan,nan,nan,nan,nan,nan,nan,nan,nan,nan,nan,0.0,nan,nan,nan,nan,nan,nan,nan,nan,nan,nan,nan,nan,nan,nan,nan,nan,nan,nan,695.5780666935025,858.8186080100131,nan,859.4298008009791,nan,nan,nan,nan
1,123,1,1,1.0,1.0,0.6584026044001803,0,0.0,0.0,0.0,0.5693318426439168,0.15630667812785634,0.4130251645160604,0.7256385207717732,0.15630667812785634,0.6347976976830978,7,6,1,5,8,3,nan,nan,nan,nan,nan,nan,nan,nan,nan,nan,nan,nan,0.0,nan,nan,nan,nan,nan,nan,nan,nan,nan,nan,nan,nan,nan,nan,nan,nan,nan,nan,695.5780666935025,859.8353653512895,nan,860.4937679556897,nan,nan,nan,nan
1,124,1,1,1.0,1.0,0.6015907757100649,0,0.0,0.0,0.0,0.5702315473081215,0.15577008668572798,0.41446146062239353,0.7260016339938495,0.15577008668572798,0.6237287236920869,6,3,0,8,1,2,nan,nan,nan,nan,nan,nan,nan,nan,nan,nan,nan,nan,0.0,nan,nan,nan,nan,nan,nan,nan,nan,nan,nan,nan,nan,nan,nan,nan,nan,nan,nan,695.5780666935025,860.8521557635977,nan,861.4537465393078,nan,nan,nan,nan
1,125,1,1,1.0,1.0,0.6247812961228192,0,0.0,0.0,0.0,0.5705451395921409,0.1550206837133596,0.4155244558787813,0.7255658233055006,0.1550206837133596,0.6282582254110215,7,5,4,0,8,3,nan,nan,nan,nan,nan,nan,nan,nan,nan,nan,nan,nan,0.0,nan,nan,nan,nan,nan,nan,nan,nan,nan,nan,nan,nan,nan,nan,nan,nan,nan,nan,695.5780666935025,861.8689627115382,nan,862.493744007661,nan,nan,nan,nan
1,126,1,1,1.0,1.0,0.6639331713085994,0,0.0,0.0,0.0,0.5710821312409595,0.15434478807532923,0.41673734316563027,0.7254269193162888,0.15434478807532923,0.6301017477138279,6,4,3,1,2,5,nan,nan,nan,nan,nan,nan,nan,nan,nan,nan,nan,nan,0.0,nan,nan,nan,nan,nan,nan,nan,nan,nan,nan,nan,nan,nan,nan,nan,nan,nan,nan,695.5780666935025,862.885757400305,nan,863.5496905716136,nan,nan,nan,nan
1,127,1,1,1.0,1.0,0.6391044923802838,0,0.0,0.0,0.0,0.5719924355553482,0.1538585569939673,0.41813387856138085,0.7258509925493155,0.1538585569939673,0.6426063199372342,1,2,6,0,8,3,nan,nan,nan,nan,nan,nan,nan,nan,nan,nan,nan,nan,0.0,nan,nan,nan,nan,nan,nan,nan,nan,nan,nan,nan,nan,nan,nan,nan,nan,nan,nan,695.5780666935025,863.9025486679166,nan,864.5416531602968,nan,nan,nan,nan
1,128,1,1,1.0,1.0,0.7339648767956533,0,0.0,0.0,0.0,0.5726440089225805,0.15325119828447237,0.4193928106381081,0.7258952072070528,0.15325119828447237,0.6790008468281789,5,7,8,2,3,1,nan,nan,nan,nan,nan,nan,nan,nan,nan,nan,nan,nan,0.0,nan,nan,nan,nan,nan,nan,nan,nan,nan,nan,nan,nan,nan,nan,nan,nan,nan,nan,695.5780666935025,864.9276752716978,nan,865.6616401484935,nan,nan,nan,nan
1,129,1,1,1.0,1.0,0.773131291847676,0,0.0,0.0,0.0,0.5741951711136678,0.15332296714621438,0.4208722039674534,0.7275181382598822,0.15332296714621438,0.7154002203412043,8,6,0,7,2,4,nan,nan,nan,nan,nan,nan,nan,nan,nan,nan,nan,nan,0.0,nan,nan,nan,nan,nan,nan,nan,nan,nan,nan,nan,nan,nan,nan,nan,nan,nan,nan,695.5780666935025,865.9444693903206,nan,866.7176006821683,nan,nan,nan,nan
1,130,1,1,1.0,1.0,0.7643204165506177,0,0.0,1.0,0.0,0.576089800834944,0.15380951807552676,0.4222802827594172,0.7298993189104708,0.15380951807552676,0.7571388617313156,6,7,3,4,1,0,nan,nan,nan,nan,nan,nan,nan,nan,nan,nan,nan,nan,0.0,nan,nan,nan,nan,nan,nan,nan,nan,nan,nan,nan,nan,nan,nan,nan,nan,nan,nan,695.5780666935025,866.961254670925,nan,867.7255750874756,nan,nan,nan,nan
1,131,1,1,nan,nan,nan,0,0.0,0.0,0.0,0.5778655613605636,0.15415993093768063,0.4237056304228829,0.7320254922982442,0.15415993093768063,0.7687258541991469,8,0,5,2,7,4,nan,nan,nan,nan,nan,nan,nan,nan,nan,nan,nan,nan,0.0,nan,nan,nan,nan,nan,nan,nan,nan,nan,nan,nan,nan,nan,nan,nan,nan,nan,nan,695.5780666935025,867.9780516405008,nan,nan,nan,nan,nan,nan
1,132,1,1,nan,nan,nan,0,0.0,0.0,0.0,0.5778655613605636,0.15415993093768063,0.4237056304228829,0.7320254922982442,0.15415993093768063,0.7643204165506177,7,5,4,1,0,2,nan,nan,nan,nan,nan,nan,nan,nan,nan,nan,nan,nan,0.0,nan,nan,nan,nan,nan,nan,nan,nan,nan,nan,nan,nan,nan,nan,nan,nan,nan,nan,695.5780666935025,869.0031443178887,nan,nan,nan,nan,nan,nan
1,133,1,1,nan,nan,nan,0,0.0,0.0,0.0,0.5778655613605636,0.15415993093768063,0.4237056304228829,0.7320254922982442,0.15415993093768063,nan,2,7,0,6,5,1,nan,nan,nan,nan,nan,nan,nan,nan,nan,nan,nan,nan,0.0,nan,nan,nan,nan,nan,nan,nan,nan,nan,nan,nan,nan,nan,nan,nan,nan,nan,nan,695.5780666935025,870.0199786349549,nan,nan,nan,nan,nan,nan
1,134,1,1,nan,nan,nan,0,0.0,0.0,0.0,0.5778655613605636,0.15415993093768063,0.4237056304228829,0.7320254922982442,0.15415993093768063,nan,5,4,1,2,0,8,nan,nan,nan,nan,nan,nan,nan,nan,nan,nan,nan,nan,0.0,nan,nan,nan,nan,nan,nan,nan,nan,nan,nan,nan,nan,nan,nan,nan,nan,nan,nan,695.5780666935025,871.0367730386206,nan,nan,nan,nan,nan,nan
1,135,1,1,1.0,1.0,0.7756196051486768,0,0.0,0.0,0.0,0.5778655613605636,0.15415993093768063,0.4237056304228829,0.7320254922982442,0.15415993093768063,0.7756196051486768,4,2,8,7,6,3,nan,nan,nan,nan,nan,nan,nan,nan,nan,nan,nan,nan,0.0,nan,nan,nan,nan,nan,nan,nan,nan,nan,nan,nan,nan,nan,nan,nan,nan,nan,nan,695.5780666935025,872.0618577333516,nan,872.8374773385003,nan,nan,nan,nan
1,136,1,1,1.0,1.0,0.766412447032053,0,0.0,0.0,0.0,0.5797137299940973,0.15461321398731015,0.42510051600678717,0.7343269439814075,0.15461321398731015,0.7710160260903649,3,4,5,8,2,7,nan,nan,nan,nan,nan,nan,nan,nan,nan,nan,nan,nan,0.0,nan,nan,nan,nan,nan,nan,nan,nan,nan,nan,nan,nan,nan,nan,nan,nan,nan,nan,695.5780666935025,873.0870165529195,nan,873.8534289999516,nan,nan,nan,nan
1,137,1,1,1.0,1.0,0.669262460898608,0,0.0,1.0,0.0,0.5814424218185229,0.15493113709008305,0.42651128472843985,0.736373558908606,0.15493113709008305,0.7370981710264459,5,6,1,4,8,0,nan,nan,nan,nan,nan,nan,nan,nan,nan,nan,nan,nan,0.0,nan,nan,nan,nan,nan,nan,nan,nan,nan,nan,nan,nan,nan,nan,nan,nan,nan,nan,695.5780666935025,874.1121340336394,nan,874.7813964945381,nan,nan,nan,nan
1,138,1,1,1.0,1.0,0.5240929901483469,1,0.0,0.0,1.0,0.5822481102504503,0.1544459344134888,0.4278021758369615,0.7366940446639392,0.1544459344134888,0.653255966026336,0,4,8,5,7,6,1.0,1.0,1.0,1.0,1.0,1.0,0.0,0.0,0.0,0.0,0.0,0.0,0.0,2.0,5.0,7.0,3.0,3.0,8.0,4.0,1.0,5.0,2.0,6.0,3.0,5.413406956358813,1.1347868640441447,6.413911575335078,3.0468887959141284,7.461125095025636,4.469965050113387,695.5780666935025,875.1372908575577,875.9456847522524,875.661383847706,884.4634104202851,885.4667215190129,876.9624879939365,884.4550770798232
1,139,1,1,nan,nan,nan,0,0.0,0.0,0.0,0.5817194273404311,0.1538413544701528,0.42787807287027835,0.7355607818105839,0.1538413544701528,0.5966777255234774,7,5,4,6,3,0,nan,nan,nan,nan,nan,nan,nan,nan,nan,nan,nan,nan,0.0,nan,nan,nan,nan,nan,nan,nan,nan,nan,nan,nan,nan,nan,nan,nan,nan,nan,nan,695.5780666935025,885.688586516655,nan,nan,nan,nan,nan,nan
1,140,1,1,1.0,1.0,0.6993522916454822,0,0.0,0.0,0.0,0.5817194273404311,0.1538413544701528,0.42787807287027835,0.7355607818105839,0.1538413544701528,0.6117226408969145,3,1,8,7,6,2,nan,nan,nan,nan,nan,nan,nan,nan,nan,nan,nan,nan,0.0,nan,nan,nan,nan,nan,nan,nan,nan,nan,nan,nan,nan,nan,nan,nan,nan,nan,nan,695.5780666935025,886.7137173968367,nan,887.4130696884822,nan,nan,nan,nan
1,141,1,1,1.0,1.0,0.4901939989067614,0,0.0,0.0,0.0,0.5827791828747109,0.15354961303628717,0.4292295698384237,0.7363287959109981,0.15354961303628717,0.5947731452761218,1,8,7,6,4,5,nan,nan,nan,nan,nan,nan,nan,nan,nan,nan,nan,nan,0.0,nan,nan,nan,nan,nan,nan,nan,nan,nan,nan,nan,nan,nan,nan,nan,nan,nan,nan,695.5780666935025,887.7388405794627,nan,888.2290345783695,nan,nan,nan,nan
1,142,1,1,1.0,1.0,0.5373656095471233,0,0.0,0.0,0.0,0.5819525294464256,0.15311049252236827,0.4288420369240573,0.7350630219687939,0.15311049252236827,0.5756373000331223,0,6,1,7,2,4,nan,nan,nan,nan,nan,nan,nan,nan,nan,nan,nan,nan,0.0,nan,nan,nan,nan,nan,nan,nan,nan,nan,nan,nan,nan,nan,nan,nan,nan,nan,nan,695.5780666935025,888.7556515187025,nan,889.2930171282496,nan,nan,nan,nan
1,143,1,1,1.0,1.0,0.5685442198300734,0,0.0,0.0,0.0,0.5815579549340424,0.1524886929698687,0.4290692619641737,0.734046647903911,0.1524886929698687,0.5320346094279861,1,3,8,5,6,0,nan,nan,nan,nan,nan,nan,nan,nan,nan,nan,nan,nan,0.0,nan,nan,nan,nan,nan,nan,nan,nan,nan,nan,nan,nan,nan,nan,nan,nan,nan,nan,695.5780666935025,889.7724447820219,nan,890.340989001852,nan,nan,nan,nan
1,144,1,1,1.0,1.0,0.679382209549658,0,0.0,0.0,0.0,0.581443799362955,0.15182325941596742,0.42962053994698757,0.7332670587789224,0.15182325941596742,0.5950973463089516,2,1,0,3,7,5,nan,nan,nan,nan,nan,nan,nan,nan,nan,nan,nan,nan,0.0,nan,nan,nan,nan,nan,nan,nan,nan,nan,nan,nan,nan,nan,nan,nan,nan,nan,nan,695.5780666935025,890.7975782280555,nan,891.4769604376052,nan,nan,nan,nan
1,145,1,1,nan,nan,nan,0,0.0,0.0,0.0,0.5822954377124046,0.15143496131424375,0.43086047639816083,0.7337303990266483,0.15143496131424375,0.6239632146898657,7,6,4,8,5,0,nan,nan,nan,nan,nan,nan,nan,nan,nan,nan,nan,nan,0.0,nan,nan,nan,nan,nan,nan,nan,nan,nan,nan,nan,nan,nan,nan,nan,nan,nan,nan,695.5780666935025,891.8143686404219,nan,nan,nan,nan,nan,nan
1,146,1,1,1.0,1.0,0.7014964945847169,0,0.0,0.0,0.0,0.5822954377124046,0.15143496131424375,0.43086047639816083,0.7337303990266483,0.15143496131424375,0.6904393520671874,1,3,7,6,2,4,nan,nan,nan,nan,nan,nan,nan,nan,nan,nan,nan,nan,0.0,nan,nan,nan,nan,nan,nan,nan,nan,nan,nan,nan,nan,nan,nan,nan,nan,nan,nan,695.5780666935025,892.839456186106,nan,893.5409526806907,nan,nan,nan,nan
1,147,1,1,1.0,1.0,0.7082529720501043,0,0.0,0.0,0.0,0.5833230330302693,0.15118296077589113,0.4321400722543782,0.7345059938061604,0.15118296077589113,0.7048747333174106,0,4,5,7,1,8,nan,nan,nan,nan,nan,nan,nan,nan,nan,nan,nan,nan,0.0,nan,nan,nan,nan,nan,nan,nan,nan,nan,nan,nan,nan,nan,nan,nan,nan,nan,nan,695.5780666935025,893.8646463661571,nan,894.5728993382072,nan,nan,nan,nan
1,148,1,1,1.0,1.0,0.6274358200607821,0,0.0,0.0,0.0,0.5843908102868491,0.15097414329125566,0.43341666699559345,0.7353649535781048,0.15097414329125566,0.6790617622318678,4,7,1,2,3,5,nan,nan,nan,nan,nan,nan,nan,nan,nan,nan,nan,nan,0.0,nan,nan,nan,nan,nan,nan,nan,nan,nan,nan,nan,nan,nan,nan,nan,nan,nan,nan,695.5780666935025,894.8814208131516,nan,895.5088566332124,nan,nan,nan,nan
1,149,0,0,1.0,0.0,0.6983148292056285,0,0.0,0.0,0.0,0.5847555985052723,0.15038483481033246,0.43437076369493977,0.7351404333156047,0.15038483481033246,0.6780012071055049,7,4,3,5,1,2,nan,nan,nan,nan,nan,nan,nan,nan,nan,nan,nan,nan,0.0,nan,nan,nan,nan,nan,nan,nan,nan,nan,nan,nan,nan,nan,nan,nan,nan,nan,nan,695.5780666935025,895.9065154862474,nan,896.604830315453,nan,nan,nan,nan
1,150,1,1,nan,nan,nan,0,0.0,0.0,0.0,0.5857098777548551,0.15010998655298818,0.4355998912018669,0.7358198643078433,0.15010998655298818,0.6628753246332053,4,3,6,8,5,0,nan,nan,nan,nan,nan,nan,nan,nan,nan,nan,nan,nan,0.0,nan,nan,nan,nan,nan,nan,nan,nan,nan,nan,nan,nan,nan,nan,nan,nan,nan,nan,695.5780666935025,896.931676586566,nan,nan,nan,nan,nan,nan
1,151,1,1,nan,nan,nan,0,0.0,0.0,0.0,0.5857098777548551,0.15010998655298818,0.4355998912018669,0.7358198643078433,0.15010998655298818,0.6983148292056285,5,8,0,2,6,7,nan,nan,nan,nan,nan,nan,nan,nan,nan,nan,nan,nan,0.0,nan,nan,nan,nan,nan,nan,nan,nan,nan,nan,nan,nan,nan,nan,nan,nan,nan,nan,695.5780666935025,897.9567923567374,nan,nan,nan,nan,nan,nan
1,152,1,1,1.0,1.0,0.055178231676109135,0,0.0,0.0,0.0,0.5857098777548551,0.15010998655298818,0.4355998912018669,0.7358198643078433,0.15010998655298818,0.055178231676109135,3,1,7,5,8,0,nan,nan,nan,nan,nan,nan,nan,nan,nan,nan,nan,nan,0.0,nan,nan,nan,nan,nan,nan,nan,nan,nan,nan,nan,nan,nan,nan,nan,nan,nan,nan,695.5780666935025,898.9735901815584,nan,899.0287684132345,nan,nan,nan,nan
1,153,1,1,1.0,1.0,0.06233213219093159,0,0.0,0.0,0.0,0.5812887807041989,0.15707074454644426,0.4242180361577546,0.7383595252506432,0.15707074454644426,0.05875518193352036,8,4,1,7,0,2,nan,nan,nan,nan,nan,nan,nan,nan,nan,nan,nan,nan,0.0,nan,nan,nan,nan,nan,nan,nan,nan,nan,nan,nan,nan,nan,nan,nan,nan,nan,nan,695.5780666935025,899.9903803088237,nan,900.0527124410146,nan,nan,nan,nan
1,154,1,1,1.0,1.0,0.3575208326219581,0,1.0,0.0,0.0,0.5769998827826016,0.1633238557835786,0.413676026999023,0.7403237385661803,0.1633238557835786,0.1583437321629996,4,8,2,6,7,3,nan,nan,nan,nan,nan,nan,nan,nan,nan,nan,nan,nan,0.0,nan,nan,nan,nan,nan,nan,nan,nan,nan,nan,nan,nan,nan,nan,nan,nan,nan,nan,695.5780666935025,901.0071804143954,nan,901.3647012470174,nan,nan,nan,nan
1,155,0,0,0.0,1.0,0.5163626266294159,1,0.0,0.0,1.0,0.5752008741747275,0.16385251051841296,0.41134836365631455,0.7390533846931405,0.16385251051841296,0.31207186381410185,6,5,0,8,1,2,1.0,1.0,1.0,1.0,1.0,1.0,1.0,1.0,1.0,0.0,0.0,1.0,4.0,6.0,5.0,0.0,3.0,7.0,2.0,3.0,1.0,6.0,4.0,5.0,2.0,3.941340467601549,1.447435951209627,10.964775885047857,8.15802242961945,8.820788420096505,2.5593045609421097,695.5780666935025,902.0323121498805,902.8407208696008,902.5486747765099,914.8672196378466,915.8643706788425,903.8658514646813,914.85888971854
1,156,1,1,1.0,1.0,0.7602754820254631,0,0.0,0.0,0.0,0.5747225144385868,0.16327059957470277,0.411451914863884,0.7379931140132896,0.16327059957470277,0.544719647092279,3,0,6,1,2,8,nan,nan,nan,nan,nan,nan,nan,nan,nan,nan,nan,nan,0.0,nan,nan,nan,nan,nan,nan,nan,nan,nan,nan,nan,nan,nan,nan,nan,nan,nan,nan,695.5780666935025,916.0840698062093,nan,916.8443452882348,nan,nan,nan,nan
1,157,1,1,1.0,1.0,0.5030717611080036,0,0.0,0.0,0.0,0.576218909338481,0.1634555960118325,0.4127633133266485,0.7396745053503134,0.1634555960118325,0.5932366232542942,1,5,4,3,6,7,nan,nan,nan,nan,nan,nan,nan,nan,nan,nan,nan,nan,0.0,nan,nan,nan,nan,nan,nan,nan,nan,nan,nan,nan,nan,nan,nan,nan,nan,nan,nan,695.5780666935025,917.1092012565932,nan,917.6122730177012,nan,nan,nan,nan
1,158,1,1,1.0,1.0,0.6299184313393198,0,0.0,0.0,0.0,0.5756337321526371,0.16293081851711758,0.4127029136355196,0.7385645506697547,0.16293081851711758,0.6310885581575955,8,1,3,6,2,4,nan,nan,nan,nan,nan,nan,nan,nan,nan,nan,nan,nan,0.0,nan,nan,nan,nan,nan,nan,nan,nan,nan,nan,nan,nan,nan,nan,nan,nan,nan,nan,695.5780666935025,918.1343244392192,nan,918.7642428705585,nan,nan,nan,nan
1,159,1,1,1.0,1.0,0.7487670333939604,0,0.0,0.0,0.0,0.5760645630985631,0.16235444992874232,0.4137101131698208,0.7384190130273054,0.16235444992874232,0.6272524086137613,4,6,2,8,7,1,nan,nan,nan,nan,nan,nan,nan,nan,nan,nan,nan,nan,0.0,nan,nan,nan,nan,nan,nan,nan,nan,nan,nan,nan,nan,nan,nan,nan,nan,nan,nan,695.5780666935025,919.159449902596,nan,919.9082169359899,nan,nan,nan,nan
1,160,0,0,1.0,0.0,0.7955446420819499,0,0.0,0.0,0.0,0.5774244250693931,0.16243281313886854,0.41499161193052453,0.7398572382082615,0.16243281313886854,0.7247433689384101,2,0,1,7,3,6,nan,nan,nan,nan,nan,nan,nan,nan,nan,nan,nan,nan,0.0,nan,nan,nan,nan,nan,nan,nan,nan,nan,nan,nan,nan,nan,nan,nan,nan,nan,nan,695.5780666935025,920.1846417932538,nan,920.9801864353358,nan,nan,nan,nan
1,161,1,1,nan,nan,nan,0,0.0,0.0,0.0,0.5791284892648036,0.1629327392815182,0.41619574998328546,0.7420612285463218,0.1629327392815182,0.7721558377379552,6,4,7,5,1,0,nan,nan,nan,nan,nan,nan,nan,nan,nan,nan,nan,nan,0.0,nan,nan,nan,nan,nan,nan,nan,nan,nan,nan,nan,nan,nan,nan,nan,nan,nan,nan,695.5780666935025,921.2180253318511,nan,nan,nan,nan,nan,nan
1,162,1,1,nan,nan,nan,0,0.0,0.0,0.0,0.5791284892648036,0.1629327392815182,0.41619574998328546,0.7420612285463218,0.1629327392815182,0.7955446420819499,3,5,2,0,4,7,nan,nan,nan,nan,nan,nan,nan,nan,nan,nan,nan,nan,0.0,nan,nan,nan,nan,nan,nan,nan,nan,nan,nan,nan,nan,nan,nan,nan,nan,nan,nan,695.5780666935025,922.243159063044,nan,nan,nan,nan,nan,nan
1,163,1,1,nan,nan,nan,0,0.0,0.0,0.0,0.5791284892648036,0.1629327392815182,0.41619574998328546,0.7420612285463218,0.1629327392815182,nan,0,4,8,6,3,5,nan,nan,nan,nan,nan,nan,nan,nan,nan,nan,nan,nan,0.0,nan,nan,nan,nan,nan,nan,nan,nan,nan,nan,nan,nan,nan,nan,nan,nan,nan,nan,695.5780666935025,923.2682868071715,nan,nan,nan,nan,nan,nan
1,164,1,1,nan,nan,nan,0,0.0,0.0,0.0,0.5791284892648036,0.1629327392815182,0.41619574998328546,0.7420612285463218,0.1629327392815182,nan,1,5,4,2,6,3,nan,nan,nan,nan,nan,nan,nan,nan,nan,nan,nan,nan,0.0,nan,nan,nan,nan,nan,nan,nan,nan,nan,nan,nan,nan,nan,nan,nan,nan,nan,nan,695.5780666935025,924.293400296534,nan,nan,nan,nan,nan,nan
1,165,1,1,nan,nan,nan,0,0.0,0.0,0.0,0.5791284892648036,0.1629327392815182,0.41619574998328546,0.7420612285463218,0.1629327392815182,nan,7,0,2,5,4,6,nan,nan,nan,nan,nan,nan,nan,nan,nan,nan,nan,nan,0.0,nan,nan,nan,nan,nan,nan,nan,nan,nan,nan,nan,nan,nan,nan,nan,nan,nan,nan,695.5780666935025,925.3185648180079,nan,nan,nan,nan,nan,nan
1,166,0,0,1.0,0.0,0.03637789632193744,0,0.0,0.0,0.0,0.5791284892648036,0.1629327392815182,0.41619574998328546,0.7420612285463218,0.1629327392815182,0.03637789632193744,8,3,6,0,1,4,nan,nan,nan,nan,nan,nan,nan,nan,nan,nan,nan,nan,0.0,nan,nan,nan,nan,nan,nan,nan,nan,nan,nan,nan,nan,nan,nan,nan,nan,nan,nan,695.5780666935025,926.3436728905654,nan,926.3800507868873,nan,nan,nan,nan
1,167,1,1,0.0,0.0,0.179228970722761,0,0.0,0.0,0.0,0.5749211203272621,0.1691364427416582,0.4057846775856039,0.7440575630689202,0.1691364427416582,0.10780343352234922,0,4,3,7,2,6,nan,nan,nan,nan,nan,nan,nan,nan,nan,nan,nan,nan,0.0,nan,nan,nan,nan,nan,nan,nan,nan,nan,nan,nan,nan,nan,nan,nan,nan,nan,nan,695.5780666935025,927.3688111832598,nan,927.5480401539826,nan,nan,nan,nan
1,168,1,1,1.0,1.0,0.530097670853138,0,0.0,0.0,0.0,0.5718773345610736,0.17199482221839524,0.39988251234267835,0.7438721567794688,0.17199482221839524,0.2485681792992788,3,7,1,0,8,4,nan,nan,nan,nan,nan,nan,nan,nan,nan,nan,nan,nan,0.0,nan,nan,nan,nan,nan,nan,nan,nan,nan,nan,nan,nan,nan,nan,nan,nan,nan,nan,695.5780666935025,928.3939081371063,nan,928.9240058079595,nan,nan,nan,nan
1,169,0,0,0.0,1.0,0.4408719131606631,0,0.0,0.0,0.0,0.5715584058304787,0.17137567921049132,0.40018272661998733,0.74293408504097,0.17137567921049132,0.3833995182455207,8,6,0,2,3,1,nan,nan,nan,nan,nan,nan,nan,nan,nan,nan,nan,nan,0.0,nan,nan,nan,nan,nan,nan,nan,nan,nan,nan,nan,nan,nan,nan,nan,nan,nan,nan,695.5780666935025,929.4191020234139,nan,929.8599739365745,nan,nan,nan,nan
1,170,1,1,1.0,1.0,0.5117349569918588,0,0.0,0.0,0.0,0.5705683566435861,0.17110094136535994,0.39946741527822616,0.741669298008946,0.17110094136535994,0.49423484700188663,0,2,6,7,1,5,nan,nan,nan,nan,nan,nan,nan,nan,nan,nan,nan,nan,0.0,nan,nan,nan,nan,nan,nan,nan,nan,nan,nan,nan,nan,nan,nan,nan,nan,nan,nan,695.5780666935025,930.4441929902532,nan,930.9559279472451,nan,nan,nan,nan
1,171,1,1,1.0,1.0,0.5665858991560526,0,0.0,0.0,0.0,0.5701260002552273,0.170532240365699,0.3995937598895283,0.7406582406209263,0.170532240365699,0.5063975897695249,1,5,3,6,0,4,nan,nan,nan,nan,nan,nan,nan,nan,nan,nan,nan,nan,0.0,nan,nan,nan,nan,nan,nan,nan,nan,nan,nan,nan,nan,nan,nan,nan,nan,nan,nan,695.5780666935025,931.46931845363,nan,932.035904352786,nan,nan,nan,nan
1,172,1,1,nan,nan,nan,0,0.0,0.0,0.0,0.570099581590308,0.16989500762086732,0.40020457396944076,0.7399945892111753,0.16989500762086732,0.5391604280739557,7,2,1,8,6,5,nan,nan,nan,nan,nan,nan,nan,nan,nan,nan,nan,nan,0.0,nan,nan,nan,nan,nan,nan,nan,nan,nan,nan,nan,nan,nan,nan,nan,nan,nan,nan,695.5780666935025,932.4944074248197,nan,nan,nan,nan,nan,nan
1,173,1,1,1.0,1.0,0.5802935741958208,0,0.0,0.0,0.0,0.570099581590308,0.16989500762086732,0.40020457396944076,0.7399945892111753,0.16989500762086732,0.5734397366759367,8,1,4,6,0,2,nan,nan,nan,nan,nan,nan,nan,nan,nan,nan,nan,nan,0.0,nan,nan,nan,nan,nan,nan,nan,nan,nan,nan,nan,nan,nan,nan,nan,nan,nan,nan,695.5780666935025,933.519565103983,nan,934.0998586781789,nan,nan,nan,nan
1,174,1,1,1.0,1.0,0.5231108362786472,0,0.0,0.0,0.0,0.5701750926466451,0.16926685423096613,0.400908238415679,0.7394419468776112,0.16926685423096613,0.551702205237234,6,4,3,0,5,8,nan,nan,nan,nan,nan,nan,nan,nan,nan,nan,nan,nan,0.0,nan,nan,nan,nan,nan,nan,nan,nan,nan,nan,nan,nan,nan,nan,nan,nan,nan,nan,695.5780666935025,934.5447085283813,nan,935.06781936466,nan,nan,nan,nan
1,175,1,1,1.0,1.0,0.5300033042440191,0,0.0,0.0,0.0,0.569829031938057,0.16869132812725643,0.4011377038108006,0.7385203600653134,0.16869132812725643,0.5444692382394957,8,6,1,5,4,7,nan,nan,nan,nan,nan,nan,nan,nan,nan,nan,nan,nan,0.0,nan,nan,nan,nan,nan,nan,nan,nan,nan,nan,nan,nan,nan,nan,nan,nan,nan,nan,695.5780666935025,935.5698291451554,nan,936.0998324493994,nan,nan,nan,nan
1,176,1,1,1.0,1.0,0.6248377450392582,0,0.0,0.0,0.0,0.5695383331957647,0.16810872482217637,0.4014296083735884,0.7376470580179411,0.16810872482217637,0.5593172951873081,7,1,0,3,6,8,nan,nan,nan,nan,nan,nan,nan,nan,nan,nan,nan,nan,0.0,nan,nan,nan,nan,nan,nan,nan,nan,nan,nan,nan,nan,nan,nan,nan,nan,nan,nan,695.5780666935025,936.5949400686659,nan,937.2197778137052,nan,nan,nan,nan
1,177,1,1,1.0,1.0,0.4556769206537865,0,0.0,0.0,0.0,0.5699390535714421,0.16756418423849037,0.40237486933295175,0.7375032378099325,0.16756418423849037,0.5368393233123546,5,2,8,6,4,7,nan,nan,nan,nan,nan,nan,nan,nan,nan,nan,nan,nan,0.0,nan,nan,nan,nan,nan,nan,nan,nan,nan,nan,nan,nan,nan,nan,nan,nan,nan,nan,695.5780666935025,937.6200817825156,nan,938.0757587031694,nan,nan,nan,nan
1,178,1,1,1.0,1.0,0.5661747914855368,0,0.0,0.0,0.0,0.5691170238382216,0.1672393755483984,0.4018776482898232,0.73635639938662,0.1672393755483984,0.5488964857261939,3,7,5,2,0,6,nan,nan,nan,nan,nan,nan,nan,nan,nan,nan,nan,nan,0.0,nan,nan,nan,nan,nan,nan,nan,nan,nan,nan,nan,nan,nan,nan,nan,nan,nan,nan,695.5780666935025,938.6535357396933,nan,939.2197105311789,nan,nan,nan,nan
1,179,1,1,1.0,1.0,0.6449805949814618,0,0.0,0.0,0.0,0.5690960078928453,0.16664120586496517,0.40245480202788014,0.7357372137578104,0.16664120586496517,0.5556107690402617,2,0,8,1,6,5,nan,nan,nan,nan,nan,nan,nan,nan,nan,nan,nan,nan,0.0,nan,nan,nan,nan,nan,nan,nan,nan,nan,nan,nan,nan,nan,nan,nan,nan,nan,nan,695.5780666935025,939.6787042525248,nan,940.3236848475062,nan,nan,nan,nan
1,180,0,0,0.0,1.0,0.7718897010781802,0,0.0,0.0,0.0,0.5696341964537575,0.1661712873278408,0.40346290912591665,0.7358054837815983,0.1661712873278408,0.6610150291817263,7,3,1,5,2,4,nan,nan,nan,nan,nan,nan,nan,nan,nan,nan,nan,nan,0.0,nan,nan,nan,nan,nan,nan,nan,nan,nan,nan,nan,nan,nan,nan,nan,nan,nan,nan,695.5780666935025,940.7037960746675,nan,941.4756857757457,nan,nan,nan,nan
1,181,1,1,1.0,1.0,0.5467013457091525,0,0.0,0.0,0.0,0.5710585309933661,0.16644665957937652,0.4046118714139896,0.7375051905727427,0.16644665957937652,0.6545238805895982,4,7,6,8,1,0,nan,nan,nan,nan,nan,nan,nan,nan,nan,nan,nan,nan,0.0,nan,nan,nan,nan,nan,nan,nan,nan,nan,nan,nan,nan,nan,nan,nan,nan,nan,nan,695.5780666935025,941.7289432052639,nan,942.2756445509731,nan,nan,nan,nan
1,182,1,1,1.0,1.0,0.5535627382341772,0,0.0,0.0,0.0,0.5708882010263436,0.16587607583886585,0.40501212518747776,0.7367642768652095,0.16587607583886585,0.6240512616738366,7,6,8,0,2,4,nan,nan,nan,nan,nan,nan,nan,nan,nan,nan,nan,nan,0.0,nan,nan,nan,nan,nan,nan,nan,nan,nan,nan,nan,nan,nan,nan,nan,nan,nan,nan,695.5780666935025,942.7540564095834,nan,943.3076191478176,nan,nan,nan,nan
1,183,1,1,1.0,1.0,0.4563933656318113,0,0.0,0.0,0.0,0.5707678853125091,0.16530537523484645,0.40546251007766265,0.7360732605473556,0.16530537523484645,0.5188858165250471,0,7,5,4,3,2,nan,nan,nan,nan,nan,nan,nan,nan,nan,nan,nan,nan,0.0,nan,nan,nan,nan,nan,nan,nan,nan,nan,nan,nan,nan,nan,nan,nan,nan,nan,nan,695.5780666935025,943.7791949873208,nan,944.2355883529526,nan,nan,nan,nan
1,184,1,1,1.0,1.0,0.4232552941539325,0,0.0,0.0,0.0,0.5699790955216077,0.16500608500878938,0.40497301051281837,0.7349851805303971,0.16500608500878938,0.47773713267330703,1,3,2,6,5,8,nan,nan,nan,nan,nan,nan,nan,nan,nan,nan,nan,nan,0.0,nan,nan,nan,nan,nan,nan,nan,nan,nan,nan,nan,nan,nan,nan,nan,nan,nan,nan,695.5780666935025,944.8043110425933,nan,945.2275663367473,nan,nan,nan,nan
1,185,1,1,1.0,1.0,0.5580626850714907,0,0.0,0.0,0.0,0.5689741379779936,0.16488469602875588,0.4040894419492377,0.7338588340067494,0.16488469602875588,0.4792371149524115,2,4,0,1,3,7,nan,nan,nan,nan,nan,nan,nan,nan,nan,nan,nan,nan,0.0,nan,nan,nan,nan,nan,nan,nan,nan,nan,nan,nan,nan,nan,nan,nan,nan,nan,nan,695.5780666935025,945.829463875154,nan,946.3875265602255,nan,nan,nan,nan
1,186,1,1,1.0,1.0,0.5169239796232432,0,0.0,0.0,0.0,0.568899910407201,0.1643253543400436,0.4045745560671574,0.7332252647472446,0.1643253543400436,0.4994139862828888,7,6,5,8,4,1,nan,nan,nan,nan,nan,nan,nan,nan,nan,nan,nan,nan,0.0,nan,nan,nan,nan,nan,nan,nan,nan,nan,nan,nan,nan,nan,nan,nan,nan,nan,nan,695.5780666935025,946.8545756539097,nan,947.371499633533,nan,nan,nan,nan
1,187,1,1,1.0,1.0,0.5637976654688828,0,0.0,0.0,0.0,0.5685487216856878,0.16382460317550168,0.40472411851018614,0.7323733248611894,0.16382460317550168,0.5462614433878722,3,7,2,6,0,5,nan,nan,nan,nan,nan,nan,nan,nan,nan,nan,nan,nan,0.0,nan,nan,nan,nan,nan,nan,nan,nan,nan,nan,nan,nan,nan,nan,nan,nan,nan,nan,695.5780666935025,947.8796934197308,nan,948.4434910851996,nan,nan,nan,nan
1,188,1,1,1.0,1.0,0.6665894057950936,0,0.0,0.0,0.0,0.5685168354023535,0.16327439149254813,0.4052424439098054,0.7317912268949016,0.16327439149254813,0.5824370169624066,7,5,6,0,8,2,nan,nan,nan,nan,nan,nan,nan,nan,nan,nan,nan,nan,0.0,nan,nan,nan,nan,nan,nan,nan,nan,nan,nan,nan,nan,nan,nan,nan,nan,nan,nan,695.5780666935025,948.9048499585479,nan,949.571439364343,nan,nan,nan,nan
1,189,1,1,1.0,1.0,0.6734596362803131,0,0.0,0.0,0.0,0.5691706525383051,0.16292482148132756,0.40624583105697754,0.7320954740196327,0.16292482148132756,0.6346155691814298,5,2,7,4,1,8,nan,nan,nan,nan,nan,nan,nan,nan,nan,nan,nan,nan,0.0,nan,nan,nan,nan,nan,nan,nan,nan,nan,nan,nan,nan,nan,nan,nan,nan,nan,nan,695.5780666935025,949.9299617373617,nan,950.603421373642,nan,nan,nan,nan
1,190,1,1,1.0,1.0,0.6403135822038166,0,0.0,0.0,0.0,0.5698613080597754,0.1626046027585035,0.4072567053012719,0.7324659108182789,0.1626046027585035,0.6601208747597411,4,7,3,5,8,0,nan,nan,nan,nan,nan,nan,nan,nan,nan,nan,nan,nan,0.0,nan,nan,nan,nan,nan,nan,nan,nan,nan,nan,nan,nan,nan,nan,nan,nan,nan,nan,695.5780666935025,950.9550837795832,nan,951.595397361787,nan,nan,nan,nan
1,191,1,1,1.0,1.0,0.6711617668624967,0,0.0,0.0,0.0,0.5703248098633547,0.1621688863571383,0.4081559235062163,0.732493696220493,0.1621688863571383,0.6616449951155422,5,8,0,6,2,7,nan,nan,nan,nan,nan,nan,nan,nan,nan,nan,nan,nan,0.0,nan,nan,nan,nan,nan,nan,nan,nan,nan,nan,nan,nan,nan,nan,nan,nan,nan,nan,695.5780666935025,951.9802098131622,nan,952.6513715800247,nan,nan,nan,nan
1,192,1,1,1.0,1.0,0.42201113753253594,0,0.0,0.0,0.0,0.5709838749417804,0.16184215832911178,0.4091417166126686,0.7328260332708921,0.16184215832911178,0.5778288288662831,1,0,5,8,4,6,nan,nan,nan,nan,nan,nan,nan,nan,nan,nan,nan,nan,0.0,nan,nan,nan,nan,nan,nan,nan,nan,nan,nan,nan,nan,nan,nan,nan,nan,nan,nan,695.5780666935025,953.0053378423909,nan,953.4273489799234,nan,nan,nan,nan
1,193,0,0,0.0,1.0,0.3648765807156451,0,0.0,0.0,0.0,0.5700165195040581,0.16175900086229905,0.408257518641759,0.7317755203663572,0.16175900086229905,0.4860164950368926,6,3,2,0,1,8,nan,nan,nan,nan,nan,nan,nan,nan,nan,nan,nan,nan,0.0,nan,nan,nan,nan,nan,nan,nan,nan,nan,nan,nan,nan,nan,nan,nan,nan,nan,nan,695.5780666935025,954.0304718586849,nan,954.3953484394005,nan,nan,nan,nan
1,194,1,1,1.0,1.0,0.4116941028041765,0,0.0,0.0,0.0,0.5686930360280037,0.16207069239352584,0.40662234363447786,0.7307637284215296,0.16207069239352584,0.39952727368411917,5,0,7,6,4,2,nan,nan,nan,nan,nan,nan,nan,nan,nan,nan,nan,nan,0.0,nan,nan,nan,nan,nan,nan,nan,nan,nan,nan,nan,nan,nan,nan,nan,nan,nan,nan,695.5780666935025,955.055609296076,nan,955.4673033988802,nan,nan,nan,nan
1,195,0,0,0.0,1.0,0.706578036188148,0,0.0,0.0,0.0,0.5676866326099023,0.16203556129499072,0.4056510713149115,0.729722193904893,0.16203556129499072,0.4943829065693232,2,7,0,8,3,5,nan,nan,nan,nan,nan,nan,nan,nan,nan,nan,nan,nan,0.0,nan,nan,nan,nan,nan,nan,nan,nan,nan,nan,nan,nan,nan,nan,nan,nan,nan,nan,695.5780666935025,956.0806934206048,nan,956.787271456793,nan,nan,nan,nan
1,196,1,1,1.0,1.0,0.40938311896752566,0,0.0,0.0,0.0,0.5685712912314198,0.16189619930551802,0.4066750919259018,0.7304674905369378,0.16189619930551802,0.50921841931995,7,8,6,0,5,1,nan,nan,nan,nan,nan,nan,nan,nan,nan,nan,nan,nan,0.0,nan,nan,nan,nan,nan,nan,nan,nan,nan,nan,nan,nan,nan,nan,nan,nan,nan,nan,695.5780666935025,957.1058522401727,nan,957.5152353591402,nan,nan,nan,nan
1,197,1,1,1.0,1.0,0.4802569964667782,0,0.0,0.0,0.0,0.5675637711538002,0.16187606696372572,0.4056877041900745,0.7294398381175259,0.16187606696372572,0.532072717207484,4,5,1,7,2,3,nan,nan,nan,nan,nan,nan,nan,nan,nan,nan,nan,nan,0.0,nan,nan,nan,nan,nan,nan,nan,nan,nan,nan,nan,nan,nan,nan,nan,nan,nan,nan,695.5780666935025,958.1309506194666,nan,958.6112076159334,nan,nan,nan,nan
1,198,1,1,1.0,1.0,0.4070946576539427,0,0.0,0.0,0.0,0.5670146719419321,0.16151376247641827,0.40550090946551387,0.7285284344183504,0.16151376247641827,0.43224492436274886,5,6,3,1,0,8,nan,nan,nan,nan,nan,nan,nan,nan,nan,nan,nan,nan,0.0,nan,nan,nan,nan,nan,nan,nan,nan,nan,nan,nan,nan,nan,nan,nan,nan,nan,nan,695.5780666935025,959.1561122899875,nan,959.5632069476414,nan,nan,nan,nan
1,199,1,1,1.0,1.0,0.4779289069119841,0,0.0,0.0,0.0,0.5660151718526322,0.1615007575546907,0.40451441429794144,0.7275159294073229,0.1615007575546907,0.455093520344235,2,5,1,8,4,0,nan,nan,nan,nan,nan,nan,nan,nan,nan,nan,nan,nan,0.0,nan,nan,nan,nan,nan,nan,nan,nan,nan,nan,nan,nan,nan,nan,nan,nan,nan,nan,695.5780666935025,960.1812252091477,nan,960.6591541160597,nan,nan,nan,nan
1,200,1,1,1.0,1.0,0.5967678157030605,0,0.0,0.0,0.0,0.5654680521946157,0.16114709431248142,0.4043209578821343,0.7266151465070971,0.16114709431248142,0.4939304600896624,0,3,5,4,7,8,nan,nan,nan,nan,nan,nan,nan,nan,nan,nan,nan,nan,0.0,nan,nan,nan,nan,nan,nan,nan,nan,nan,nan,nan,nan,nan,nan,nan,nan,nan,nan,695.5780666935025,961.2063606508891,nan,961.8031284665922,nan,nan,nan,nan
1,201,1,1,1.0,1.0,0.5635955327888951,0,0.0,0.0,0.0,0.5656612606113346,0.1606676612594122,0.40499359935192236,0.7263289218707468,0.1606676612594122,0.5460974184679799,8,0,4,1,3,2,nan,nan,nan,nan,nan,nan,nan,nan,nan,nan,nan,nan,0.0,nan,nan,nan,nan,nan,nan,nan,nan,nan,nan,nan,nan,nan,nan,nan,nan,nan,nan,695.5780666935025,962.2315183300525,nan,962.7951138628414,nan,nan,nan,nan
1,202,1,1,1.0,1.0,0.4904713968280703,0,0.0,0.0,0.0,0.5656485874345097,0.16017413866709032,0.40547444876741945,0.7258227261016,0.16017413866709032,0.5502782484400086,0,2,7,4,1,6,nan,nan,nan,nan,nan,nan,nan,nan,nan,nan,nan,nan,0.0,nan,nan,nan,nan,nan,nan,nan,nan,nan,nan,nan,nan,nan,nan,nan,nan,nan,nan,695.5780666935025,963.2566092968918,nan,963.7470806937199,nan,nan,nan,nan
1,203,1,1,1.0,1.0,0.4012975264922716,0,0.0,0.0,0.0,0.5651901899308119,0.15979226538646074,0.4053979245443512,0.7249824553172727,0.15979226538646074,0.48512148536974564,1,5,0,6,4,3,nan,nan,nan,nan,nan,nan,nan,nan,nan,nan,nan,nan,0.0,nan,nan,nan,nan,nan,nan,nan,nan,nan,nan,nan,nan,nan,nan,nan,nan,nan,nan,695.5780666935025,964.2817498703371,nan,964.6830473968294,nan,nan,nan,nan
1,204,1,1,1.0,1.0,0.6081505372421816,0,0.0,0.0,0.0,0.5641969010614875,0.15981434640068523,0.4043825546608022,0.7240112474621727,0.15981434640068523,0.49997315352084115,2,3,7,0,6,8,nan,nan,nan,nan,nan,nan,nan,nan,nan,nan,nan,nan,0.0,nan,nan,nan,nan,nan,nan,nan,nan,nan,nan,nan,nan,nan,nan,nan,nan,nan,nan,695.5780666935025,965.3068915841868,nan,965.915042121429,nan,nan,nan,nan
1,205,1,1,1.0,1.0,0.6549959987169132,0,0.0,0.0,0.0,0.564461682002335,0.15936854803575806,0.405093133966577,0.7238302300380931,0.15936854803575806,0.5548146874837888,0,4,8,5,3,2,nan,nan,nan,nan,nan,nan,nan,nan,nan,nan,nan,nan,0.0,nan,nan,nan,nan,nan,nan,nan,nan,nan,nan,nan,nan,nan,nan,nan,nan,nan,nan,695.5780666935025,966.3320056437515,nan,966.9870016424684,nan,nan,nan,nan
1,206,1,1,1.0,1.0,0.6297918489435688,0,0.0,0.0,0.0,0.5650038036593086,0.15904412905848736,0.4059596746008212,0.724047932717796,0.15904412905848736,0.6309794616342211,2,6,7,4,0,1,nan,nan,nan,nan,nan,nan,nan,nan,nan,nan,nan,nan,0.0,nan,nan,nan,nan,nan,nan,nan,nan,nan,nan,nan,nan,nan,nan,nan,nan,nan,nan,695.5780666935025,967.3571772926371,nan,967.9869691415806,nan,nan,nan,nan
1,207,1,1,1.0,1.0,0.644683810591232,0,0.0,0.0,0.0,0.5653894467860006,0.15864837108289226,0.4067410757031083,0.7240378178688929,0.15864837108289226,0.643157219417238,7,5,1,8,6,3,nan,nan,nan,nan,nan,nan,nan,nan,nan,nan,nan,nan,0.0,nan,nan,nan,nan,nan,nan,nan,nan,nan,nan,nan,nan,nan,nan,nan,nan,nan,nan,695.5780666935025,968.3822568556061,nan,969.0269406661973,nan,nan,nan,nan
1,208,1,1,1.0,1.0,0.6915221446543001,0,0.0,0.0,0.0,0.5658586442049665,0.1582951654638467,0.40756347874111976,0.7241538096688132,0.1582951654638467,0.655332601396367,1,4,3,7,2,5,nan,nan,nan,nan,nan,nan,nan,nan,nan,nan,nan,nan,0.0,nan,nan,nan,nan,nan,nan,nan,nan,nan,nan,nan,nan,nan,nan,nan,nan,nan,nan,695.5780666935025,969.4074054117664,nan,970.0989275564207,nan,nan,nan,nan
1,209,1,1,1.0,1.0,0.5943738690111786,0,0.0,0.0,0.0,0.5665978412664331,0.15812117775736967,0.4084766635090634,0.7247190190238028,0.15812117775736967,0.6435266080855703,0,3,1,2,8,4,nan,nan,nan,nan,nan,nan,nan,nan,nan,nan,nan,nan,0.0,nan,nan,nan,nan,nan,nan,nan,nan,nan,nan,nan,nan,nan,nan,nan,nan,nan,nan,695.5780666935025,970.4325112035731,nan,971.0268850725843,nan,nan,nan,nan
1,210,1,1,1.0,1.0,0.5612483418080956,0,0.0,0.0,0.0,0.5667602741772211,0.15767238151043517,0.4090878926667859,0.7244326556876562,0.15767238151043517,0.615714785157858,7,1,4,0,3,8,nan,nan,nan,nan,nan,nan,nan,nan,nan,nan,nan,nan,0.0,nan,nan,nan,nan,nan,nan,nan,nan,nan,nan,nan,nan,nan,nan,nan,nan,nan,nan,695.5780666935025,971.4576212717802,nan,972.0188696135883,nan,nan,nan,nan
1,211,0,0,nan,nan,nan,0,0.0,0.0,0.0,0.566728228058796,0.1572139219187497,0.40951430614004625,0.7239421499775457,0.1572139219187497,0.5778111054096371,3,0,2,5,8,7,nan,nan,nan,nan,nan,nan,nan,nan,nan,nan,nan,nan,0.0,nan,nan,nan,nan,nan,nan,nan,nan,nan,nan,nan,nan,nan,nan,nan,nan,nan,nan,695.5780666935025,972.4828020436689,nan,nan,nan,nan,nan,nan
1,212,1,1,1.0,1.0,0.6309045765083283,0,0.0,0.0,0.0,0.566728228058796,0.1572139219187497,0.40951430614004625,0.7239421499775457,0.1572139219187497,0.596076459158212,7,5,3,0,6,4,nan,nan,nan,nan,nan,nan,nan,nan,nan,nan,nan,nan,0.0,nan,nan,nan,nan,nan,nan,nan,nan,nan,nan,nan,nan,nan,nan,nan,nan,nan,nan,695.5780666935025,973.5079038441763,nan,974.1388084206847,nan,nan,nan,nan
1,213,1,1,1.0,1.0,0.7097568506142125,0,0.0,0.0,0.0,0.5670991896105273,0.1568343657577387,0.4102648238527886,0.723933555368266,0.1568343657577387,0.6703307135612704,0,7,4,8,5,6,nan,nan,nan,nan,nan,nan,nan,nan,nan,nan,nan,nan,0.0,nan,nan,nan,nan,nan,nan,nan,nan,nan,nan,nan,nan,nan,nan,nan,nan,nan,nan,695.5780666935025,974.5330344392569,nan,975.2427912898711,nan,nan,nan,nan
1,214,1,1,nan,nan,nan,0,0.0,0.0,0.0,0.5679190612254911,0.15675440946283795,0.41116465176265315,0.724673470688329,0.15675440946283795,0.6703307135612704,7,1,8,3,0,2,nan,nan,nan,nan,nan,nan,nan,nan,nan,nan,nan,nan,0.0,nan,nan,nan,nan,nan,nan,nan,nan,nan,nan,nan,nan,nan,nan,nan,nan,nan,nan,695.5780666935025,975.5581544858287,nan,nan,nan,nan,nan,nan
1,215,0,0,1.0,0.0,0.739446122199297,0,0.0,0.0,0.0,0.5679190612254911,0.15675440946283795,0.41116465176265315,0.724673470688329,0.15675440946283795,0.7246014864067547,1,0,7,2,6,8,nan,nan,nan,nan,nan,nan,nan,nan,nan,nan,nan,nan,0.0,nan,nan,nan,nan,nan,nan,nan,nan,nan,nan,nan,nan,nan,nan,nan,nan,nan,nan,695.5780666935025,976.5832788088592,nan,977.3227249310585,nan,nan,nan,nan
1,216,1,1,nan,nan,nan,0,0.0,0.0,0.0,0.5688992158596271,0.15683971471854607,0.41205950114108103,0.7257389305781732,0.15683971471854607,0.739446122199297,8,7,5,3,1,0,nan,nan,nan,nan,nan,nan,nan,nan,nan,nan,nan,nan,0.0,nan,nan,nan,nan,nan,nan,nan,nan,nan,nan,nan,nan,nan,nan,nan,nan,nan,nan,695.5780666935025,977.6084151058458,nan,nan,nan,nan,nan,nan
1,217,1,1,1.0,1.0,0.6171701024868526,0,0.0,0.0,0.0,0.5688992158596271,0.15683971471854607,0.41205950114108103,0.7257389305781732,0.15683971471854607,0.6783081123430748,2,8,1,0,6,3,nan,nan,nan,nan,nan,nan,nan,nan,nan,nan,nan,nan,0.0,nan,nan,nan,nan,nan,nan,nan,nan,nan,nan,nan,nan,nan,nan,nan,nan,nan,nan,695.5780666935025,978.6334998005768,nan,979.2506699030637,nan,nan,nan,nan
1,218,0,0,0.0,1.0,0.7839860166423023,0,0.0,0.0,0.0,0.5691734822609181,0.1564355926714716,0.4127378895894465,0.7256090749323898,0.1564355926714716,0.7005780595645774,8,6,7,5,1,2,nan,nan,nan,nan,nan,nan,nan,nan,nan,nan,nan,nan,0.0,nan,nan,nan,nan,nan,nan,nan,nan,nan,nan,nan,nan,nan,nan,nan,nan,nan,nan,695.5780666935025,979.6586574797402,nan,980.4426434963825,nan,nan,nan,nan
1,219,1,1,1.0,1.0,0.5988461616216227,0,0.0,0.0,0.0,0.570387112398666,0.15682175965177123,0.41356535274689477,0.7272088720504373,0.15682175965177123,0.6666674269169258,4,1,3,6,2,7,nan,nan,nan,nan,nan,nan,nan,nan,nan,nan,nan,nan,0.0,nan,nan,nan,nan,nan,nan,nan,nan,nan,nan,nan,nan,nan,nan,nan,nan,nan,nan,695.5780666935025,980.6837906407309,nan,981.2826368023525,nan,nan,nan,nan
1,220,1,1,1.0,1.0,0.5736673853825778,0,0.0,0.0,0.0,0.5705469946976715,0.1563950944037562,0.41415190029391524,0.7269420891014277,0.1563950944037562,0.6521665212155009,5,3,2,8,6,1,nan,nan,nan,nan,nan,nan,nan,nan,nan,nan,nan,nan,0.0,nan,nan,nan,nan,nan,nan,nan,nan,nan,nan,nan,nan,nan,nan,nan,nan,nan,nan,695.5780666935025,981.7089232315193,nan,982.2825906169019,nan,nan,nan,nan
1,221,1,1,1.0,1.0,0.48452402028487995,0,0.0,0.0,0.0,0.5705644270478665,0.15595779816963756,0.4146066288782289,0.7265222252175041,0.15595779816963756,0.5523458557630269,3,1,7,5,4,0,nan,nan,nan,nan,nan,nan,nan,nan,nan,nan,nan,nan,0.0,nan,nan,nan,nan,nan,nan,nan,nan,nan,nan,nan,nan,nan,nan,nan,nan,nan,nan,695.5780666935025,982.7340509756468,nan,983.2185749959317,nan,nan,nan,nan
1,222,1,1,1.0,1.0,0.48337508557597175,0,0.0,0.0,0.0,0.570086424788072,0.1556554109967663,0.41443101379130576,0.7257418357848383,0.1556554109967663,0.5138554970811432,0,3,2,4,8,7,nan,nan,nan,nan,nan,nan,nan,nan,nan,nan,nan,nan,0.0,nan,nan,nan,nan,nan,nan,nan,nan,nan,nan,nan,nan,nan,nan,nan,nan,nan,nan,695.5780666935025,983.7591790048755,nan,984.2425540904514,nan,nan,nan,nan
1,223,1,1,1.0,1.0,0.7542120716534555,0,0.0,0.0,0.0,0.5696073566156296,0.15535783984734722,0.41424951676828237,0.7249651964629767,0.15535783984734722,0.5740370591714358,3,6,1,0,5,4,nan,nan,nan,nan,nan,nan,nan,nan,nan,nan,nan,nan,0.0,nan,nan,nan,nan,nan,nan,nan,nan,nan,nan,nan,nan,nan,nan,nan,nan,nan,nan,695.5780666935025,984.784309029812,nan,985.5385211014654,nan,nan,nan,nan
1,224,1,1,1.0,1.0,0.6410365842748433,0,0.0,0.0,0.0,0.5706216682367165,0.1555302561440505,0.415091412092666,0.7261519243807669,0.1555302561440505,0.6262079138347568,2,5,4,7,6,0,nan,nan,nan,nan,nan,nan,nan,nan,nan,nan,nan,nan,0.0,nan,nan,nan,nan,nan,nan,nan,nan,nan,nan,nan,nan,nan,nan,nan,nan,nan,nan,695.5780666935025,985.8094527393114,nan,986.4504893235862,nan,nan,nan,nan
1,225,1,1,1.0,1.0,0.5602125899749808,0,0.0,0.0,0.0,0.5710064491986735,0.1551915683966094,0.4158148808020641,0.7261980175952829,0.1551915683966094,0.6518204153010932,6,0,2,4,3,7,nan,nan,nan,nan,nan,nan,nan,nan,nan,nan,nan,nan,0.0,nan,nan,nan,nan,nan,nan,nan,nan,nan,nan,nan,nan,nan,nan,nan,nan,nan,nan,695.5780666935025,986.8262599722948,nan,987.3864725622698,nan,nan,nan,nan
1,226,1,1,1.0,1.0,0.5991192831424996,0,0.0,0.0,0.0,0.5709477869202838,0.15477131210203737,0.41617647481824643,0.7257190990223212,0.15477131210203737,0.6001228191307746,7,2,5,1,6,3,nan,nan,nan,nan,nan,nan,nan,nan,nan,nan,nan,nan,0.0,nan,nan,nan,nan,nan,nan,nan,nan,nan,nan,nan,nan,nan,nan,nan,nan,nan,nan,695.5780666935025,987.8513167276396,nan,988.4504360107821,nan,nan,nan,nan
1,227,1,1,1.0,1.0,0.4379508250276558,0,0.0,0.0,0.0,0.5711000652782418,0.15436626519244495,0.4167338000857968,0.7254663304706868,0.15436626519244495,0.5324275660483787,6,3,4,7,2,8,nan,nan,nan,nan,nan,nan,nan,nan,nan,nan,nan,nan,0.0,nan,nan,nan,nan,nan,nan,nan,nan,nan,nan,nan,nan,nan,nan,nan,nan,nan,nan,695.5780666935025,988.87645188428,nan,989.3144027093076,nan,nan,nan,nan
1,228,0,0,0.0,1.0,0.6447681988938712,0,0.0,0.0,0.0,0.5703842091478623,0.15425833681885695,0.41612587232900533,0.7246425459667192,0.15425833681885695,0.5606127690213422,7,1,2,5,8,0,nan,nan,nan,nan,nan,nan,nan,nan,nan,nan,nan,nan,0.0,nan,nan,nan,nan,nan,nan,nan,nan,nan,nan,nan,nan,nan,nan,nan,nan,nan,nan,695.5780666935025,989.9016107038478,nan,990.5463789027417,nan,nan,nan,nan
1,229,1,1,1.0,1.0,0.4839635225944221,0,0.0,0.0,0.0,0.5707819844940976,0.1539409464305501,0.41684103806354744,0.7247229309246477,0.1539409464305501,0.5222275155053163,4,3,7,0,1,2,nan,nan,nan,nan,nan,nan,nan,nan,nan,nan,nan,nan,0.0,nan,nan,nan,nan,nan,nan,nan,nan,nan,nan,nan,nan,nan,nan,nan,nan,nan,nan,695.5780666935025,990.9184170815861,nan,991.4023806041805,nan,nan,nan,nan
1,230,0,0,1.0,0.0,0.6268131715478376,0,0.0,0.0,0.0,0.570320184164844,0.15366080279400252,0.41665938137084146,0.7239809869588465,0.15366080279400252,0.5851816310120436,6,4,2,8,7,1,nan,nan,nan,nan,nan,nan,nan,nan,nan,nan,nan,nan,0.0,nan,nan,nan,nan,nan,nan,nan,nan,nan,nan,nan,nan,nan,nan,nan,nan,nan,nan,695.5780666935025,991.9435300007463,nan,992.5703431722941,nan,nan,nan,nan
1,231,1,1,1.0,1.0,0.6336497607990168,0,0.0,0.0,0.0,0.5706190888599921,0.1533085440085865,0.4173105448514056,0.7239276328685786,0.1533085440085865,0.5814754849804254,5,7,3,2,6,8,nan,nan,nan,nan,nan,nan,nan,nan,nan,nan,nan,nan,0.0,nan,nan,nan,nan,nan,nan,nan,nan,nan,nan,nan,nan,nan,nan,nan,nan,nan,nan,695.5780666935025,992.9686591703794,nan,993.6023089311784,nan,nan,nan,nan
1,232,1,1,1.0,1.0,0.696508749446366,0,0.0,0.0,0.0,0.5709508292386186,0.152972568622205,0.41797826061641363,0.7239233978608236,0.152972568622205,0.6523238939310735,7,1,8,0,3,5,nan,nan,nan,nan,nan,nan,nan,nan,nan,nan,nan,nan,0.0,nan,nan,nan,nan,nan,nan,nan,nan,nan,nan,nan,nan,nan,nan,nan,nan,nan,nan,695.5780666935025,993.9937820679042,nan,994.6902908173506,nan,nan,nan,nan
1,233,1,1,1.0,1.0,0.7833562407759018,0,0.0,0.0,0.0,0.5716082005486068,0.15284042829896483,0.418767772249642,0.7244486288475717,0.15284042829896483,0.7045049170070948,2,0,3,8,5,6,nan,nan,nan,nan,nan,nan,nan,nan,nan,nan,nan,nan,0.0,nan,nan,nan,nan,nan,nan,nan,nan,nan,nan,nan,nan,nan,nan,nan,nan,nan,nan,695.5780666935025,995.0189138033893,nan,995.8022700441652,nan,nan,nan,nan
1,234,1,1,1.0,1.0,0.7021855703787878,0,0.0,1.0,0.0,0.5727110549247906,0.15320195755089758,0.41950909737389297,0.7259130124756882,0.15320195755089758,0.7273501868670186,1,4,0,3,8,7,nan,nan,nan,nan,nan,nan,nan,nan,nan,nan,nan,nan,0.0,nan,nan,nan,nan,nan,nan,nan,nan,nan,nan,nan,nan,nan,nan,nan,nan,nan,nan,695.5780666935025,996.0440421177191,nan,996.7462276880979,nan,nan,nan,nan
1,235,1,1,nan,nan,nan,0,0.0,0.0,0.0,0.5733819073364693,0.15308702582685912,0.4202948815096102,0.7264689331633285,0.15308702582685912,0.7427709055773448,0,7,3,6,2,5,nan,nan,nan,nan,nan,nan,nan,nan,nan,nan,nan,nan,0.0,nan,nan,nan,nan,nan,nan,nan,nan,nan,nan,nan,nan,nan,nan,nan,nan,nan,nan,695.5780666935025,997.069167866197,nan,nan,nan,nan,nan,nan
1,236,1,1,1.0,1.0,0.7238553916104138,0,0.0,0.0,0.0,0.5733819073364693,0.15308702582685912,0.4202948815096102,0.7264689331633285,0.15308702582685912,0.7130204809946008,3,6,5,1,7,0,nan,nan,nan,nan,nan,nan,nan,nan,nan,nan,nan,nan,0.0,nan,nan,nan,nan,nan,nan,nan,nan,nan,nan,nan,nan,nan,nan,nan,nan,nan,nan,695.5780666935025,998.0942887680721,nan,998.8181441596826,nan,nan,nan,nan
1,237,1,1,1.0,1.0,0.5867170601268299,0,0.0,0.0,0.0,0.5741575438533454,0.153071703259283,0.4210858405940624,0.7272292471126284,0.153071703259283,0.6552862258686218,5,4,2,0,1,8,nan,nan,nan,nan,nan,nan,nan,nan,nan,nan,nan,nan,0.0,nan,nan,nan,nan,nan,nan,nan,nan,nan,nan,nan,nan,nan,nan,nan,nan,nan,nan,695.5780666935025,999.1194321924704,nan,999.7061492525972,nan,nan,nan,nan
1,238,1,1,1.0,1.0,0.6338681438937783,0,0.0,0.0,0.0,0.5742219516291068,0.15268134274256107,0.42154060888654576,0.7269032943716679,0.15268134274256107,0.6481468652103407,2,1,8,7,3,0,nan,nan,nan,nan,nan,nan,nan,nan,nan,nan,nan,nan,0.0,nan,nan,nan,nan,nan,nan,nan,nan,nan,nan,nan,nan,nan,nan,nan,nan,nan,nan,695.5780666935025,1000.1362263110932,nan,1000.770094454987,nan,nan,nan,nan
1,239,1,1,nan,nan,nan,0,0.0,0.0,0.0,0.5745262689365797,0.15235063007828303,0.4221756388582966,0.7268768990148626,0.15235063007828303,0.6102926020103041,4,7,2,1,8,5,nan,nan,nan,nan,nan,nan,nan,nan,nan,nan,nan,nan,0.0,nan,nan,nan,nan,nan,nan,nan,nan,nan,nan,nan,nan,nan,nan,nan,nan,nan,nan,695.5780666935025,1001.1613523446722,nan,nan,nan,nan,nan,nan
1,240,1,1,1.0,1.0,0.791574687755201,0,0.0,0.0,0.0,0.5745262689365797,0.15235063007828303,0.4221756388582966,0.7268768990148626,0.15235063007828303,0.7127214158244897,3,5,7,8,6,1,nan,nan,nan,nan,nan,nan,nan,nan,nan,nan,nan,nan,0.0,nan,nan,nan,nan,nan,nan,nan,nan,nan,nan,nan,nan,nan,nan,nan,nan,nan,nan,695.5780666935025,1002.1864766676445,nan,1002.9780513553997,nan,nan,nan,nan
1,241,1,1,1.0,1.0,0.694428978022188,0,0.0,0.0,0.0,0.5756280375600245,0.1527442857951189,0.42288375176490556,0.7283723233551433,0.1527442857951189,0.7430018328886945,6,4,2,1,5,0,nan,nan,nan,nan,nan,nan,nan,nan,nan,nan,nan,nan,0.0,nan,nan,nan,nan,nan,nan,nan,nan,nan,nan,nan,nan,nan,nan,nan,nan,nan,nan,695.5780666935025,1003.2116064074798,nan,1003.906035385502,nan,nan,nan,nan
1,242,1,1,1.0,1.0,0.6292709794943221,0,0.0,0.0,0.0,0.5762280423098333,0.15259064701881941,0.42363739529101385,0.7288186893286527,0.15259064701881941,0.7050915484239036,0,1,3,8,7,2,nan,nan,nan,nan,nan,nan,nan,nan,nan,nan,nan,nan,0.0,nan,nan,nan,nan,nan,nan,nan,nan,nan,nan,nan,nan,nan,nan,nan,nan,nan,nan,695.5780666935025,1004.236735577113,nan,1004.8660065566073,nan,nan,nan,nan
1,243,1,1,1.0,1.0,0.564122389187105,0,0.0,0.0,0.0,0.5764945897328709,0.152252975070339,0.42424161466253196,0.7287475648032099,0.152252975070339,0.6292741155678717,4,3,7,0,2,6,nan,nan,nan,nan,nan,nan,nan,nan,nan,nan,nan,nan,0.0,nan,nan,nan,nan,nan,nan,nan,nan,nan,nan,nan,nan,nan,nan,nan,nan,nan,nan,695.5780666935025,1005.261861610692,nan,1005.8259839998791,nan,nan,nan,nan
1,244,1,1,1.0,1.0,0.6189833096577786,0,0.0,0.0,0.0,0.5764327287301421,0.15187437277443647,0.42455835595570557,0.7283071015045786,0.15187437277443647,0.6041255594464019,7,1,5,3,8,2,nan,nan,nan,nan,nan,nan,nan,nan,nan,nan,nan,nan,0.0,nan,nan,nan,nan,nan,nan,nan,nan,nan,nan,nan,nan,nan,nan,nan,nan,nan,nan,695.5780666935025,1006.2869859336643,nan,1006.905969243322,nan,nan,nan,nan
1,245,1,1,1.0,1.0,0.7138474003295414,0,0.0,0.0,0.0,0.5766444231626179,0.15152568318074833,0.42511873998186955,0.7281701063433662,0.15152568318074833,0.6323176997248083,1,8,3,5,7,0,nan,nan,nan,nan,nan,nan,nan,nan,nan,nan,nan,nan,0.0,nan,nan,nan,nan,nan,nan,nan,nan,nan,nan,nan,nan,nan,nan,nan,nan,nan,nan,695.5780666935025,1007.3120962870307,nan,1008.0259436873603,nan,nan,nan,nan
1,246,1,1,1.0,1.0,0.5930111127672717,0,0.0,0.0,0.0,0.5773236458218601,0.1514565916787459,0.4258670541431142,0.728780237500606,0.1514565916787459,0.6419472742515305,0,3,6,4,1,7,nan,nan,nan,nan,nan,nan,nan,nan,nan,nan,nan,nan,0.0,nan,nan,nan,nan,nan,nan,nan,nan,nan,nan,nan,nan,nan,nan,nan,nan,nan,nan,695.5780666935025,1008.3289163492736,nan,1008.9219274620409,nan,nan,nan,nan
1,247,1,1,1.0,1.0,0.4957904228940606,0,0.0,0.0,0.0,0.5774009239841528,0.15108707754522607,0.42631384643892667,0.7284880015293789,0.15108707754522607,0.6008829786636246,4,0,8,6,2,3,nan,nan,nan,nan,nan,nan,nan,nan,nan,nan,nan,nan,0.0,nan,nan,nan,nan,nan,nan,nan,nan,nan,nan,nan,nan,nan,nan,nan,nan,nan,nan,695.5780666935025,1009.3540808707476,nan,1009.8498712936416,nan,nan,nan,nan
1,248,1,1,1.0,1.0,0.41466821875656024,0,0.0,0.0,0.0,0.577000872508221,0.15082405248321354,0.42617682002500745,0.7278249249914345,0.15082405248321354,0.5011565848059641,7,8,5,2,3,4,nan,nan,nan,nan,nan,nan,nan,nan,nan,nan,nan,nan,0.0,nan,nan,nan,nan,nan,nan,nan,nan,nan,nan,nan,nan,nan,nan,nan,nan,nan,nan,695.5780666935025,1010.3791883731028,nan,1010.7938565918594,nan,nan,nan,nan
1,249,1,1,1.0,1.0,0.5898471232503653,0,0.0,0.0,0.0,0.5762090059045544,0.15088024463596114,0.4253287612685932,0.7270892505405155,0.15088024463596114,0.5001019216336621,0,5,1,4,8,6,nan,nan,nan,nan,nan,nan,nan,nan,nan,nan,nan,nan,0.0,nan,nan,nan,nan,nan,nan,nan,nan,nan,nan,nan,nan,nan,nan,nan,nan,nan,nan,695.5780666935025,1011.3959767898195,nan,1011.9858239130699,nan,nan,nan,nan
1,250,1,1,1.0,1.0,0.5167437992640771,0,0.0,0.0,0.0,0.5762752103576894,0.1505165697540638,0.42575864060362556,0.7267917801117532,0.1505165697540638,0.5070863804236675,5,8,0,7,4,2,nan,nan,nan,nan,nan,nan,nan,nan,nan,nan,nan,nan,0.0,nan,nan,nan,nan,nan,nan,nan,nan,nan,nan,nan,nan,nan,nan,nan,nan,nan,nan,695.5780666935025,1012.421060059045,nan,1012.937803858309,nan,nan,nan,nan
1,251,1,1,1.0,1.0,0.4675628357217647,0,0.0,0.0,0.0,0.5759876189997492,0.15020928795518254,0.42577833104456664,0.7261969069549317,0.15020928795518254,0.524717919412069,2,7,4,0,1,6,nan,nan,nan,nan,nan,nan,nan,nan,nan,nan,nan,nan,0.0,nan,nan,nan,nan,nan,nan,nan,nan,nan,nan,nan,nan,nan,nan,nan,nan,nan,nan,695.5780666935025,1013.4462265762268,nan,1013.9137894119485,nan,nan,nan,nan
1,252,1,1,1.0,1.0,0.47441681585041806,0,0.0,0.0,0.0,0.5754663460032204,0.1500353366011111,0.4254310094021093,0.7255016826043316,0.1500353366011111,0.4862411502787533,1,4,0,6,8,3,nan,nan,nan,nan,nan,nan,nan,nan,nan,nan,nan,nan,0.0,nan,nan,nan,nan,nan,nan,nan,nan,nan,nan,nan,nan,nan,nan,nan,nan,nan,nan,695.5780666935025,1014.4713429165422,nan,1014.9457597323926,nan,nan,nan,nan
1,253,1,1,1.0,1.0,0.5932511631399393,0,0.0,0.0,0.0,0.5749828554283266,0.1498383086214544,0.4251445468068722,0.724821164049781,0.1498383086214544,0.5117436049040407,5,8,3,1,7,6,nan,nan,nan,nan,nan,nan,nan,nan,nan,nan,nan,nan,0.0,nan,nan,nan,nan,nan,nan,nan,nan,nan,nan,nan,nan,nan,nan,nan,nan,nan,nan,695.5780666935025,1015.4964735116228,nan,1016.0897246747627,nan,nan,nan,nan
1,254,0,0,1.0,0.0,0.7203852095990442,0,0.0,0.0,0.0,0.5750698473698105,0.14948641531771656,0.4255834320520939,0.724556262687527,0.14948641531771656,0.5960177295298005,3,0,4,6,2,1,nan,nan,nan,nan,nan,nan,nan,nan,nan,nan,nan,nan,0.0,nan,nan,nan,nan,nan,nan,nan,nan,nan,nan,nan,nan,nan,nan,nan,nan,nan,nan,695.5780666935025,1016.5132981354254,nan,1017.2336833450245,nan,nan,nan,nan
1,255,1,1,1.0,1.0,0.4952803871128708,0,0.0,0.0,0.0,0.5757585457690012,0.1494653351463402,0.426293210622661,0.7252238809153414,0.1494653351463402,0.6029722532839514,8,7,6,0,5,2,nan,nan,nan,nan,nan,nan,nan,nan,nan,nan,nan,nan,0.0,nan,nan,nan,nan,nan,nan,nan,nan,nan,nan,nan,nan,nan,nan,nan,nan,nan,nan,695.5780666935025,1017.5383985104272,nan,1018.0336788975401,nan,nan,nan,nan
1,256,1,1,1.0,1.0,0.5265271352254786,0,0.0,0.0,0.0,0.575378931813076,0.14921432944973712,0.42616460236333886,0.7245932612628131,0.14921432944973712,0.5807309106457978,5,4,3,6,8,7,nan,nan,nan,nan,nan,nan,nan,nan,nan,nan,nan,nan,0.0,nan,nan,nan,nan,nan,nan,nan,nan,nan,nan,nan,nan,nan,nan,nan,nan,nan,nan,695.5780666935025,1018.555195480003,nan,1019.0817226152285,nan,nan,nan,nan
1,257,1,1,1.0,1.0,0.40527460823068395,0,0.0,0.0,0.0,0.5751495806553878,0.14890110007883353,0.4262484805765543,0.7240506807342213,0.14890110007883353,0.4756940435230111,8,5,6,3,4,1,nan,nan,nan,nan,nan,nan,nan,nan,nan,nan,nan,nan,0.0,nan,nan,nan,nan,nan,nan,nan,nan,nan,nan,nan,nan,nan,nan,nan,nan,nan,nan,695.5780666935025,1019.580343751004,nan,1019.9856183592346,nan,nan,nan,nan
1,258,1,1,1.0,1.0,0.47651112714083865,0,0.0,0.0,0.0,0.5743557723730294,0.14900386007504654,0.42535191229798286,0.7233596324480759,0.14900386007504654,0.4694376235323337,2,7,8,5,0,6,nan,nan,nan,nan,nan,nan,nan,nan,nan,nan,nan,nan,0.0,nan,nan,nan,nan,nan,nan,nan,nan,nan,nan,nan,nan,nan,nan,nan,nan,nan,nan,695.5780666935025,1020.5970777144539,nan,1021.0735888415948,nan,nan,nan,nan
1,259,1,1,1.0,1.0,0.36333535466110334,0,1.0,0.0,0.0,0.5739006809998564,0.14880593283748236,0.425094748162374,0.7227066138373387,0.14880593283748236,0.41504036334420863,5,0,4,3,6,7,nan,nan,nan,nan,nan,nan,nan,nan,nan,nan,nan,nan,0.0,nan,nan,nan,nan,nan,nan,nan,nan,nan,nan,nan,nan,nan,nan,nan,nan,nan,nan,695.5780666935025,1021.6222505036858,nan,1021.9855858583469,nan,nan,nan,nan
1,260,1,1,1.0,1.0,0.45017685898346826,1,0.0,0.0,1.0,0.5729258415260658,0.14914760436091148,0.4237782371651544,0.7220734458869773,0.14914760436091148,0.4300077802618034,2,8,1,4,7,0,1.0,1.0,1.0,1.0,1.0,1.0,0.0,0.0,1.0,0.0,0.0,0.0,1.0,0.0,5.0,1.0,7.0,1.0,3.0,1.0,4.0,3.0,2.0,5.0,6.0,2.5979304349748418,5.71620314422762,4.604645003390033,3.540086845809128,6.580563559604343,7.7792785203200765,695.5780666935025,1022.6473642781493,1023.4557775594294,1023.0975411371328,1032.281876737834,1033.2858067788184,1024.464232350525,1032.2735414017225
1,261,1,1,nan,nan,nan,0,0.0,0.0,0.0,0.5723601780120446,0.1490356030454279,0.42332457496661674,0.7213957810574725,0.1490356030454279,0.4067561068222858,7,5,0,3,8,1,nan,nan,nan,nan,nan,nan,nan,nan,nan,nan,nan,nan,0.0,nan,nan,nan,nan,nan,nan,nan,nan,nan,nan,nan,nan,nan,nan,nan,nan,nan,nan,695.5780666935025,1033.5070494130487,nan,nan,nan,nan,nan,nan
1,262,1,1,1.0,1.0,0.6690417969948612,0,0.0,0.0,0.0,0.5723601780120446,0.1490356030454279,0.42332457496661674,0.7213957810574725,0.1490356030454279,0.5596093279891647,6,3,4,7,0,2,nan,nan,nan,nan,nan,nan,nan,nan,nan,nan,nan,nan,0.0,nan,nan,nan,nan,nan,nan,nan,nan,nan,nan,nan,nan,nan,nan,nan,nan,nan,nan,695.5780666935025,1034.5321857100353,nan,1035.2012275070301,nan,nan,nan,nan
1,263,1,1,1.0,1.0,0.6918899178272113,0,0.0,0.0,0.0,0.5728036716771034,0.14883683633526634,0.4239668353418371,0.7216405080123698,0.14883683633526634,0.6804658574110363,2,7,3,5,8,0,nan,nan,nan,nan,nan,nan,nan,nan,nan,nan,nan,nan,0.0,nan,nan,nan,nan,nan,nan,nan,nan,nan,nan,nan,nan,nan,nan,nan,nan,nan,nan,695.5780666935025,1035.557314024365,nan,1036.2492039421923,nan,nan,nan,nan
1,264,0,0,0.0,1.0,0.7067428213194944,0,0.0,0.0,0.0,0.5733474444905743,0.1487135215625538,0.4246339229280205,0.7220609660531281,0.1487135215625538,0.6892248453805223,7,5,4,8,2,3,nan,nan,nan,nan,nan,nan,nan,nan,nan,nan,nan,nan,0.0,nan,nan,nan,nan,nan,nan,nan,nan,nan,nan,nan,nan,nan,nan,nan,nan,nan,nan,695.5780666935025,1036.5824397729011,nan,1037.2891825942206,nan,nan,nan,nan
1,265,1,1,1.0,1.0,0.4179411146324128,0,0.0,0.0,0.0,0.5739537871125239,0.1486462282917398,0.4253075588207841,0.7226000154042637,0.1486462282917398,0.6055246179263728,5,1,7,3,6,8,nan,nan,nan,nan,nan,nan,nan,nan,nan,nan,nan,nan,0.0,nan,nan,nan,nan,nan,nan,nan,nan,nan,nan,nan,nan,nan,nan,nan,nan,nan,nan,695.5780666935025,1037.599217641051,nan,1038.0171587556833,nan,nan,nan,nan
1,266,1,1,1.0,1.0,0.41705760383047163,0,0.0,0.0,0.0,0.5732478474180438,0.14867870669501862,0.4245691407230252,0.7219265541130624,0.14867870669501862,0.5139138465941263,8,3,0,4,5,2,nan,nan,nan,nan,nan,nan,nan,nan,nan,nan,nan,nan,0.0,nan,nan,nan,nan,nan,nan,nan,nan,nan,nan,nan,nan,nan,nan,nan,nan,nan,nan,695.5780666935025,1038.6160784719395,nan,1039.03313607577,nan,nan,nan,nan
1,267,1,1,1.0,1.0,0.6479293373995461,0,0.0,0.0,0.0,0.5725442877622439,0.14871172885296477,0.42383255890927907,0.7212560166152087,0.14871172885296477,0.4943093519541435,2,7,1,0,4,3,nan,nan,nan,nan,nan,nan,nan,nan,nan,nan,nan,nan,0.0,nan,nan,nan,nan,nan,nan,nan,nan,nan,nan,nan,nan,nan,nan,nan,nan,nan,nan,695.5780666935025,1039.6411603157176,nan,1040.2890896531171,nan,nan,nan,nan
1,268,1,1,1.0,1.0,0.6228075802209787,0,0.0,0.0,0.0,0.572882337312187,0.148463385047997,0.42441895226418996,0.721345722360184,0.148463385047997,0.5625981738169988,6,8,7,3,1,4,nan,nan,nan,nan,nan,nan,nan,nan,nan,nan,nan,nan,0.0,nan,nan,nan,nan,nan,nan,nan,nan,nan,nan,nan,nan,nan,nan,nan,nan,nan,nan,695.5780666935025,1040.6662712392863,nan,1041.2890788195073,nan,nan,nan,nan
1,269,1,1,1.0,1.0,0.5259837433113717,0,0.0,0.0,0.0,0.5731052178608869,0.1481690095349892,0.4249362083258976,0.7212742273958761,0.1481690095349892,0.5989068869772988,1,7,4,5,6,8,nan,nan,nan,nan,nan,nan,nan,nan,nan,nan,nan,nan,0.0,nan,nan,nan,nan,nan,nan,nan,nan,nan,nan,nan,nan,nan,nan,nan,nan,nan,nan,695.5780666935025,1041.683071059757,nan,1042.2090548030683,nan,nan,nan,nan
1,270,1,1,1.0,1.0,0.5891546264174394,0,0.0,0.0,0.0,0.5728957890851113,0.14787260239611438,0.4250231866889969,0.7207683914812257,0.14787260239611438,0.57931531664993,4,0,1,8,5,3,nan,nan,nan,nan,nan,nan,nan,nan,nan,nan,nan,nan,0.0,nan,nan,nan,nan,nan,nan,nan,nan,nan,nan,nan,nan,nan,nan,nan,nan,nan,nan,695.5780666935025,1042.6998631826718,nan,1043.2890178090893,nan,nan,nan,nan
1,271,1,1,1.0,1.0,0.596317364834249,0,0.0,0.0,0.0,0.572967730843219,0.14754903416954937,0.4254186966736696,0.7205167650127683,0.14754903416954937,0.5704852448543534,2,6,8,0,4,7,nan,nan,nan,nan,nan,nan,nan,nan,nan,nan,nan,nan,0.0,nan,nan,nan,nan,nan,nan,nan,nan,nan,nan,nan,nan,nan,nan,nan,nan,nan,nan,695.5780666935025,1043.7166709858575,nan,1044.3129883506917,nan,nan,nan,nan
1,272,1,1,1.0,1.0,0.4591707656509243,0,0.0,0.0,0.0,0.5730705926669679,0.14723179834982567,0.4258387943171422,0.7203023910167936,0.14723179834982567,0.548214252300871,3,0,4,8,7,5,nan,nan,nan,nan,nan,nan,nan,nan,nan,nan,nan,nan,0.0,nan,nan,nan,nan,nan,nan,nan,nan,nan,nan,nan,nan,nan,nan,nan,nan,nan,nan,695.5780666935025,1044.7417907473282,nan,1045.2009615129791,nan,nan,nan,nan
1,273,1,1,1.0,1.0,0.63402181037236,0,0.0,0.0,0.0,0.5725710320221608,0.14710124848617656,0.4254697835359842,0.7196722805083373,0.14710124848617656,0.5631699802858444,5,7,3,1,8,6,nan,nan,nan,nan,nan,nan,nan,nan,nan,nan,nan,nan,0.0,nan,nan,nan,nan,nan,nan,nan,nan,nan,nan,nan,nan,nan,nan,nan,nan,nan,nan,695.5780666935025,1045.766913359752,nan,1046.4009351701243,nan,nan,nan,nan
1,274,0,0,0.0,1.0,0.6172034586779773,0,0.0,0.0,0.0,0.5728393760324236,0.1468356318087019,0.4260037442237217,0.7196750078411256,0.1468356318087019,0.5701320115670873,3,1,7,6,2,5,nan,nan,nan,nan,nan,nan,nan,nan,nan,nan,nan,nan,0.0,nan,nan,nan,nan,nan,nan,nan,nan,nan,nan,nan,nan,nan,nan,nan,nan,nan,nan,695.5780666935025,1046.783713750483,nan,1047.400917209161,nan,nan,nan,nan
1,275,1,1,1.0,1.0,0.5203801919124089,0,0.0,0.0,0.0,0.5730322633482738,0.1465451488313926,0.42648711451688126,0.7195774121796664,0.1465451488313926,0.5905351536542488,5,8,1,2,4,0,nan,nan,nan,nan,nan,nan,nan,nan,nan,nan,nan,nan,0.0,nan,nan,nan,nan,nan,nan,nan,nan,nan,nan,nan,nan,nan,nan,nan,nan,nan,nan,695.5780666935025,1047.8005084392498,nan,1048.3208886311622,nan,nan,nan,nan
1,276,1,1,1.0,1.0,0.591222423769068,0,0.0,0.0,0.0,0.5728043323030969,0.14626845964336505,0.42653587265973186,0.7190727919464619,0.14626845964336505,0.5762686914531514,1,2,0,4,8,7,nan,nan,nan,nan,nan,nan,nan,nan,nan,nan,nan,nan,0.0,nan,nan,nan,nan,nan,nan,nan,nan,nan,nan,nan,nan,nan,nan,nan,nan,nan,nan,695.5780666935025,1048.8256270603742,nan,1049.4168494841433,nan,nan,nan,nan
1,277,1,1,1.0,1.0,0.7183838394121267,0,0.0,0.0,0.0,0.5728837206283813,0.14595787287953188,0.42692584774884945,0.7188415935079132,0.14595787287953188,0.6099954850312012,6,0,5,8,2,1,nan,nan,nan,nan,nan,nan,nan,nan,nan,nan,nan,nan,0.0,nan,nan,nan,nan,nan,nan,nan,nan,nan,nan,nan,nan,nan,nan,nan,nan,nan,nan,695.5780666935025,1049.8424371443107,nan,1050.5608209837228,nan,nan,nan,nan
1,278,0,0,0.0,1.0,0.6455895588733256,0,0.0,0.0,0.0,0.5735081846574961,0.14595457546425777,0.4275536091932383,0.7194627601217538,0.14595457546425777,0.6517319406848401,2,5,3,7,8,4,nan,nan,nan,nan,nan,nan,nan,nan,nan,nan,nan,nan,0.0,nan,nan,nan,nan,nan,nan,nan,nan,nan,nan,nan,nan,nan,nan,nan,nan,nan,nan,695.5780666935025,1050.8592152975616,nan,1051.504804856435,nan,nan,nan,nan
1,279,1,1,1.0,1.0,0.5487731344182976,0,0.0,0.0,0.0,0.5738162247182474,0.14571825492662877,0.4280979697916187,0.7195344796448762,0.14571825492662877,0.6375821775679166,0,1,4,5,6,3,nan,nan,nan,nan,nan,nan,nan,nan,nan,nan,nan,nan,0.0,nan,nan,nan,nan,nan,nan,nan,nan,nan,nan,nan,nan,nan,nan,nan,nan,nan,nan,695.5780666935025,1051.8760079906788,nan,1052.424781125097,nan,nan,nan,nan
1,280,1,1,1.0,1.0,0.6119488641852513,0,0.0,0.0,0.0,0.5737096583765456,0.14541702299066603,0.4282926353858796,0.7191266813672117,0.14541702299066603,0.6021038524922915,7,5,3,1,8,4,nan,nan,nan,nan,nan,nan,nan,nan,nan,nan,nan,nan,0.0,nan,nan,nan,nan,nan,nan,nan,nan,nan,nan,nan,nan,nan,nan,nan,nan,nan,nan,695.5780666935025,1052.8928072409471,nan,1053.5047561051324,nan,nan,nan,nan
1,281,1,1,1.0,1.0,0.7390783490845934,0,0.0,0.0,0.0,0.5738716889096334,0.1451298662475126,0.4287418226621208,0.7190015551571459,0.1451298662475126,0.6332667825627141,6,2,4,0,5,3,nan,nan,nan,nan,nan,nan,nan,nan,nan,nan,nan,nan,0.0,nan,nan,nan,nan,nan,nan,nan,nan,nan,nan,nan,nan,nan,nan,nan,nan,nan,nan,695.5780666935025,1053.9096230268478,nan,1054.6487013759324,nan,nan,nan,nan
1,282,1,1,1.0,1.0,0.6662874897010624,0,0.0,0.0,0.0,0.5745687634251395,0.14521873659188705,0.42935002683325246,0.7197875000170266,0.14521873659188705,0.6724382343236357,1,5,8,7,6,4,nan,nan,nan,nan,nan,nan,nan,nan,nan,nan,nan,nan,0.0,nan,nan,nan,nan,nan,nan,nan,nan,nan,nan,nan,nan,nan,nan,nan,nan,nan,nan,695.5780666935025,1054.9264074521489,nan,1055.59269494185,nan,nan,nan,nan
