block,trial,freq_trials,correct_response,actual_response,acc,rts,probe_trials,trials_colorind0,trials_colorind1,trials_colorind2,trials_colorind3,trials_colorind4,trials_colorind5,wholereport_resp0,wholereport_resp1,wholereport_resp2,wholereport_resp3,wholereport_resp4,wholereport_resp5,wholereport_respacc0,wholereport_respacc1,wholereport_respacc2,wholereport_respacc3,wholereport_respacc4,wholereport_respacc5,wholereport_respacc_total,wholereport_respcolorind0,wholereport_respcolorind1,wholereport_respcolorind2,wholereport_respcolorind3,wholereport_respcolorind4,wholereport_respcolorind5,wholereport_resporder0,wholereport_resporder1,wholereport_resporder2,wholereport_resporder3,wholereport_resporder4,wholereport_resporder5,wholereport_rts0,wholereport_rts1,wholereport_rts2,wholereport_rts3,wholereport_rts4,wholereport_rts5,time_blockstart,time_encarray_offset,time_encarray_onset,time_response,time_iti_offset,time_iti_onset,time_memprobe_offset,time_memprobe_onset
1,1,1,1,1.0,1.0,0.3806386648211628,0.0,8,6,4,3,2,1,nan,nan,nan,nan,nan,nan,nan,nan,nan,nan,nan,nan,0.0,nan,nan,nan,nan,nan,nan,nan,nan,nan,nan,nan,nan,nan,nan,nan,nan,nan,nan,316.30984174786136,317.32118778594304,nan,317.7018264507642,nan,nan,nan,nan
1,2,0,0,0.0,1.0,0.37197340151760727,1.0,5,2,6,0,3,1,1.0,1.0,1.0,1.0,1.0,1.0,0.0,0.0,0.0,0.0,0.0,1.0,1.0,8.0,5.0,8.0,4.0,8.0,1.0,6.0,1.0,2.0,3.0,4.0,5.0,7.231347759952769,2.07261384523008,3.0796266813995317,4.144973098067567,5.239228148944676,6.095793723710813,316.30984174786136,318.3298667338677,319.1381105084438,318.7018401353853,327.42252039024606,328.4229146805592,320.15491360402666,327.4141878361115
1,3,1,1,1.0,1.0,0.358591194730252,0.0,2,6,0,3,1,8,nan,nan,nan,nan,nan,nan,nan,nan,nan,nan,nan,nan,0.0,nan,nan,nan,nan,nan,nan,nan,nan,nan,nan,nan,nan,nan,nan,nan,nan,nan,nan,316.30984174786136,328.6310392272426,nan,328.98963042197283,nan,nan,nan,nan
1,4,1,1,1.0,1.0,0.43006778485141695,0.0,1,4,3,8,5,7,nan,nan,nan,nan,nan,nan,nan,nan,nan,nan,nan,nan,0.0,nan,nan,nan,nan,nan,nan,nan,nan,nan,nan,nan,nan,nan,nan,nan,nan,nan,nan,316.30984174786136,329.6395414144499,nan,330.06960919930134,nan,nan,nan,nan
1,5,1,1,1.0,1.0,0.49361352366395295,0.0,6,8,7,4,0,2,nan,nan,nan,nan,nan,nan,nan,nan,nan,nan,nan,nan,0.0,nan,nan,nan,nan,nan,nan,nan,nan,nan,nan,nan,nan,nan,nan,nan,nan,nan,nan,316.30984174786136,330.64798800763674,nan,331.1416015313007,nan,nan,nan,nan
1,6,1,1,1.0,1.0,0.44512750720605254,0.0,5,2,8,6,3,4,nan,nan,nan,nan,nan,nan,nan,nan,nan,nan,nan,nan,0.0,nan,nan,nan,nan,nan,nan,nan,nan,nan,nan,nan,nan,nan,nan,nan,nan,nan,nan,316.30984174786136,331.6564360263292,nan,332.1015635335352,nan,nan,nan,nan
1,7,1,1,1.0,1.0,0.37265792139805853,0.0,7,6,0,1,5,3,nan,nan,nan,nan,nan,nan,nan,nan,nan,nan,nan,nan,0.0,nan,nan,nan,nan,nan,nan,nan,nan,nan,nan,nan,nan,nan,nan,nan,nan,nan,nan,316.30984174786136,332.664897444658,nan,333.03755536605604,nan,nan,nan,nan
1,8,1,1,1.0,1.0,0.3641545936698094,0.0,3,0,5,6,2,1,nan,nan,nan,nan,nan,nan,nan,nan,nan,nan,nan,nan,0.0,nan,nan,nan,nan,nan,nan,nan,nan,nan,nan,nan,nan,nan,nan,nan,nan,nan,nan,316.30984174786136,333.673372832709,nan,334.0375274263788,nan,nan,nan,nan
1,9,1,1,1.0,1.0,0.2996805764269084,0.0,1,2,0,5,3,8,nan,nan,nan,nan,nan,nan,nan,nan,nan,nan,nan,nan,0.0,nan,nan,nan,nan,nan,nan,nan,nan,nan,nan,nan,nan,nan,nan,nan,nan,nan,nan,316.30984174786136,334.6818319702288,nan,334.9815125466557,nan,nan,nan,nan
1,10,1,1,1.0,1.0,0.30719176365528256,0.0,8,6,7,3,1,2,nan,nan,nan,nan,nan,nan,nan,nan,nan,nan,nan,nan,0.0,nan,nan,nan,nan,nan,nan,nan,nan,nan,nan,nan,nan,nan,nan,nan,nan,nan,nan,316.30984174786136,335.6902948139468,nan,335.9974865776021,nan,nan,nan,nan
1,11,1,1,1.0,1.0,0.2987266390118748,0.0,7,5,6,1,2,3,nan,nan,nan,nan,nan,nan,nan,nan,nan,nan,nan,nan,0.0,nan,nan,nan,nan,nan,nan,nan,nan,nan,nan,nan,nan,nan,nan,nan,nan,nan,nan,316.30984174786136,336.69874625385273,nan,336.9974728928646,nan,nan,nan,nan
1,12,1,1,1.0,1.0,0.44224231713451445,0.0,1,0,5,7,8,4,nan,nan,nan,nan,nan,nan,nan,nan,nan,nan,nan,nan,0.0,nan,nan,nan,nan,nan,nan,nan,nan,nan,nan,nan,nan,nan,nan,nan,nan,nan,nan,316.30984174786136,337.7072224972071,nan,338.1494648143416,nan,nan,nan,nan
1,13,1,1,nan,nan,nan,0.0,6,3,8,4,1,2,nan,nan,nan,nan,nan,nan,nan,nan,nan,nan,nan,nan,0.0,nan,nan,nan,nan,nan,nan,nan,nan,nan,nan,nan,nan,nan,nan,nan,nan,nan,nan,316.30984174786136,338.7156990256626,nan,nan,nan,nan,nan,nan
1,14,1,1,1.0,1.0,0.03327832848299295,0.0,7,1,6,5,4,3,nan,nan,nan,nan,nan,nan,nan,nan,nan,nan,nan,nan,0.0,nan,nan,nan,nan,nan,nan,nan,nan,nan,nan,nan,nan,nan,nan,nan,nan,nan,nan,316.30984174786136,339.7241587333847,nan,339.7574370618677,nan,nan,nan,nan
1,15,1,1,1.0,1.0,0.19278656889218837,0.0,5,0,2,7,3,8,nan,nan,nan,nan,nan,nan,nan,nan,nan,nan,nan,nan,0.0,nan,nan,nan,nan,nan,nan,nan,nan,nan,nan,nan,nan,nan,nan,nan,nan,nan,nan,316.30984174786136,340.732619011309,nan,340.9254055802012,nan,nan,nan,nan
1,16,1,1,1.0,1.0,0.30434221087489277,0.0,6,8,7,3,1,4,nan,nan,nan,nan,nan,nan,nan,nan,nan,nan,nan,nan,0.0,nan,nan,nan,nan,nan,nan,nan,nan,nan,nan,nan,nan,nan,nan,nan,nan,nan,nan,316.30984174786136,341.741079574218,nan,342.0454217850929,nan,nan,nan,nan
1,17,0,0,0.0,1.0,0.4638153843116015,1.0,4,6,1,5,3,2,1.0,1.0,1.0,1.0,1.0,1.0,0.0,0.0,1.0,0.0,0.0,1.0,2.0,8.0,5.0,1.0,3.0,4.0,2.0,5.0,6.0,2.0,3.0,4.0,1.0,7.986786571214907,12.03408886154648,2.1154534993693233,4.523027351126075,5.194733787095174,1.083752332138829,316.30984174786136,342.74954897526186,343.5579672297463,343.21336435957346,356.65965934237465,357.65681492129806,344.5831182745751,356.6513267882401
1,18,1,1,1.0,1.0,0.40926590736489743,0.0,7,4,5,0,1,8,nan,nan,nan,nan,nan,nan,nan,nan,nan,nan,nan,nan,0.0,nan,nan,nan,nan,nan,nan,nan,nan,nan,nan,nan,nan,nan,nan,nan,nan,nan,nan,316.30984174786136,357.8598627310712,nan,358.2691286384361,nan,nan,nan,nan
1,19,1,1,1.0,1.0,0.3287668264238164,0.0,5,7,1,2,8,4,nan,nan,nan,nan,nan,nan,nan,nan,nan,nan,nan,nan,0.0,nan,nan,nan,nan,nan,nan,nan,nan,nan,nan,nan,nan,nan,nan,nan,nan,nan,nan,316.30984174786136,358.8683078988688,nan,359.1970747252926,nan,nan,nan,nan
1,20,1,1,1.0,1.0,0.28829462465364486,0.0,4,5,3,0,7,6,nan,nan,nan,nan,nan,nan,nan,nan,nan,nan,nan,nan,0.0,nan,nan,nan,nan,nan,nan,nan,nan,nan,nan,nan,nan,nan,nan,nan,nan,nan,nan,316.30984174786136,359.8767755893059,nan,360.16507021395955,nan,nan,nan,nan
1,21,0,0,nan,nan,nan,0.0,6,0,1,3,5,2,nan,nan,nan,nan,nan,nan,nan,nan,nan,nan,nan,nan,0.0,nan,nan,nan,nan,nan,nan,nan,nan,nan,nan,nan,nan,nan,nan,nan,nan,nan,nan,316.30984174786136,360.87693068245426,nan,nan,nan,nan,nan,nan
1,22,1,1,nan,nan,nan,0.0,7,4,8,5,3,6,nan,nan,nan,nan,nan,nan,nan,nan,nan,nan,nan,nan,0.0,nan,nan,nan,nan,nan,nan,nan,nan,nan,nan,nan,nan,nan,nan,nan,nan,nan,nan,316.30984174786136,361.88537927134894,nan,nan,nan,nan,nan,nan
1,23,1,1,1.0,1.0,0.3671563887037337,0.0,3,2,6,1,0,8,nan,nan,nan,nan,nan,nan,nan,nan,nan,nan,nan,nan,0.0,nan,nan,nan,nan,nan,nan,nan,nan,nan,nan,nan,nan,nan,nan,nan,nan,nan,nan,316.30984174786136,362.89383584295865,nan,363.2609922316624,nan,nan,nan,nan
1,24,1,1,1.0,1.0,0.4306701965397224,0.0,7,1,5,2,3,0,nan,nan,nan,nan,nan,nan,nan,nan,nan,nan,nan,nan,0.0,nan,nan,nan,nan,nan,nan,nan,nan,nan,nan,nan,nan,nan,nan,nan,nan,nan,nan,316.30984174786136,363.9023152224254,nan,364.3329854189651,nan,nan,nan,nan
1,25,1,1,1.0,1.0,0.3102106644073501,0.0,5,3,8,7,0,6,nan,nan,nan,nan,nan,nan,nan,nan,nan,nan,nan,nan,0.0,nan,nan,nan,nan,nan,nan,nan,nan,nan,nan,nan,nan,nan,nan,nan,nan,nan,nan,316.30984174786136,364.91077378974296,nan,365.2209844541503,nan,nan,nan,nan
1,26,1,1,1.0,1.0,0.3020431820768863,0.0,7,0,4,1,6,5,nan,nan,nan,nan,nan,nan,nan,nan,nan,nan,nan,nan,0.0,nan,nan,nan,nan,nan,nan,nan,nan,nan,nan,nan,nan,nan,nan,nan,nan,nan,nan,316.30984174786136,365.91091405786574,nan,366.2129572399426,nan,nan,nan,nan
1,27,1,1,1.0,1.0,0.3098876486765221,0.0,6,7,5,4,2,1,nan,nan,nan,nan,nan,nan,nan,nan,nan,nan,nan,nan,0.0,nan,nan,nan,nan,nan,nan,nan,nan,nan,nan,nan,nan,nan,nan,nan,nan,nan,nan,316.30984174786136,366.9110489090672,nan,367.2209365577437,nan,nan,nan,nan
1,28,1,1,1.0,1.0,0.36544067005161196,0.0,7,5,3,6,8,0,nan,nan,nan,nan,nan,nan,nan,nan,nan,nan,nan,nan,0.0,nan,nan,nan,nan,nan,nan,nan,nan,nan,nan,nan,nan,nan,nan,nan,nan,nan,nan,316.30984174786136,367.91949094075244,nan,368.28493161080405,nan,nan,nan,nan
1,29,1,1,1.0,1.0,0.28495071234647185,0.0,4,6,2,5,7,8,nan,nan,nan,nan,nan,nan,nan,nan,nan,nan,nan,nan,0.0,nan,nan,nan,nan,nan,nan,nan,nan,nan,nan,nan,nan,nan,nan,nan,nan,nan,nan,316.30984174786136,368.92795749078505,nan,369.2129082031315,nan,nan,nan,nan
1,30,1,1,1.0,1.0,0.3484605287667364,0.0,6,4,3,1,8,5,nan,nan,nan,nan,nan,nan,nan,nan,nan,nan,nan,nan,0.0,nan,nan,nan,nan,nan,nan,nan,nan,nan,nan,nan,nan,nan,nan,nan,nan,nan,nan,316.30984174786136,369.9364283173345,nan,370.28488884610124,nan,nan,nan,nan
1,31,1,1,1.0,1.0,0.28434117313008755,0.0,1,5,4,2,6,3,nan,nan,nan,nan,nan,nan,nan,nan,nan,nan,nan,nan,0.0,nan,nan,nan,nan,nan,nan,nan,nan,nan,nan,nan,nan,nan,nan,nan,nan,nan,nan,316.30984174786136,370.9365549007198,nan,371.2208960738499,nan,nan,nan,nan
1,32,1,1,1.0,1.0,0.22782167023979127,0.0,4,3,2,1,7,8,nan,nan,nan,nan,nan,nan,nan,nan,nan,nan,nan,nan,0.0,nan,nan,nan,nan,nan,nan,nan,nan,nan,nan,nan,nan,nan,nan,nan,nan,nan,nan,316.30984174786136,371.945012612734,nan,372.1728342829738,nan,nan,nan,nan
1,33,1,1,1.0,1.0,0.28335074335336685,0.0,0,8,5,4,1,7,nan,nan,nan,nan,nan,nan,nan,nan,nan,nan,nan,nan,0.0,nan,nan,nan,nan,nan,nan,nan,nan,nan,nan,nan,nan,nan,nan,nan,nan,nan,nan,316.30984174786136,372.9534894262906,nan,373.236840169644,nan,nan,nan,nan
1,34,1,1,1.0,1.0,0.2748690830776468,0.0,1,2,7,0,4,6,nan,nan,nan,nan,nan,nan,nan,nan,nan,nan,nan,nan,0.0,nan,nan,nan,nan,nan,nan,nan,nan,nan,nan,nan,nan,nan,nan,nan,nan,nan,nan,316.30984174786136,373.9619528403273,nan,374.23682192340493,nan,nan,nan,nan
1,35,1,1,1.0,1.0,0.21839348517823964,0.0,7,8,0,2,5,4,nan,nan,nan,nan,nan,nan,nan,nan,nan,nan,nan,nan,0.0,nan,nan,nan,nan,nan,nan,nan,nan,nan,nan,nan,nan,nan,nan,nan,nan,nan,nan,316.30984174786136,374.97040770133026,nan,375.1888011865085,nan,nan,nan,nan
1,36,1,1,1.0,1.0,0.2339045173721388,0.0,8,2,7,5,0,3,nan,nan,nan,nan,nan,nan,nan,nan,nan,nan,nan,nan,0.0,nan,nan,nan,nan,nan,nan,nan,nan,nan,nan,nan,nan,nan,nan,nan,nan,nan,nan,316.30984174786136,375.9788822340779,nan,376.21278675145004,nan,nan,nan,nan
1,37,1,1,1.0,1.0,0.2574239473324269,0.0,4,7,1,8,6,2,nan,nan,nan,nan,nan,nan,nan,nan,nan,nan,nan,nan,0.0,nan,nan,nan,nan,nan,nan,nan,nan,nan,nan,nan,nan,nan,nan,nan,nan,nan,nan,316.30984174786136,376.987349924515,nan,377.2447738718474,nan,nan,nan,nan
1,38,0,0,1.0,0.0,0.1532320969272405,1.0,1,5,0,2,4,6,1.0,1.0,1.0,1.0,1.0,1.0,1.0,0.0,1.0,1.0,0.0,0.0,3.0,1.0,4.0,0.0,2.0,8.0,8.0,4.0,3.0,2.0,1.0,6.0,5.0,4.74906402383931,4.0063836253248155,2.8686494460562244,1.4536345411324874,6.764426805195399,5.893150752875954,316.30984174786136,377.98752354911994,378.7958996091038,378.1407556460472,386.60524443152826,387.60831522010267,379.80436444852967,386.59691102209035
1,39,1,1,nan,nan,nan,0.0,8,2,4,3,7,5,nan,nan,nan,nan,nan,nan,nan,nan,nan,nan,nan,nan,0.0,nan,nan,nan,nan,nan,nan,nan,nan,nan,nan,nan,nan,nan,nan,nan,nan,nan,nan,316.30984174786136,387.81375899200793,nan,nan,nan,nan,nan,nan
1,40,1,1,1.0,1.0,0.5582919562002644,0.0,5,3,7,6,2,1,nan,nan,nan,nan,nan,nan,nan,nan,nan,nan,nan,nan,0.0,nan,nan,nan,nan,nan,nan,nan,nan,nan,nan,nan,nan,nan,nan,nan,nan,nan,nan,316.30984174786136,388.8222323843511,nan,389.38052434055135,nan,nan,nan,nan
1,41,1,1,1.0,1.0,0.39783376967534423,0.0,7,8,0,1,6,4,nan,nan,nan,nan,nan,nan,nan,nan,nan,nan,nan,nan,0.0,nan,nan,nan,nan,nan,nan,nan,nan,nan,nan,nan,nan,nan,nan,nan,nan,nan,nan,316.30984174786136,389.83069437288214,nan,390.2285281425575,nan,nan,nan,nan
1,42,1,1,1.0,1.0,0.2936969433212653,0.0,8,6,5,0,7,3,nan,nan,nan,nan,nan,nan,nan,nan,nan,nan,nan,nan,0.0,nan,nan,nan,nan,nan,nan,nan,nan,nan,nan,nan,nan,nan,nan,nan,nan,nan,nan,316.30984174786136,390.83083121979143,nan,391.1245281631127,nan,nan,nan,nan
1,43,1,1,1.0,1.0,0.2932242510141805,0.0,6,7,3,5,1,4,nan,nan,nan,nan,nan,nan,nan,nan,nan,nan,nan,nan,0.0,nan,nan,nan,nan,nan,nan,nan,nan,nan,nan,nan,nan,nan,nan,nan,nan,nan,nan,316.30984174786136,391.8392846554052,nan,392.1325089064194,nan,nan,nan,nan
1,44,1,1,1.0,1.0,0.28475741599686444,0.0,5,1,6,4,3,8,nan,nan,nan,nan,nan,nan,nan,nan,nan,nan,nan,nan,0.0,nan,nan,nan,nan,nan,nan,nan,nan,nan,nan,nan,nan,nan,nan,nan,nan,nan,nan,316.30984174786136,392.8477360951947,nan,393.13249351119157,nan,nan,nan,nan
1,45,0,0,1.0,0.0,0.23624545556958765,1.0,6,4,8,0,7,5,1.0,1.0,1.0,1.0,1.0,1.0,0.0,0.0,1.0,0.0,1.0,0.0,2.0,1.0,5.0,8.0,5.0,7.0,7.0,4.0,5.0,1.0,3.0,2.0,6.0,4.327770124422386,5.2312582393642515,1.1196954698534682,3.1987525259610265,1.9454650629777461,6.422763578593731,316.30984174786136,393.85621832567267,394.6646314483369,394.09246378124226,402.1489396642428,403.145651060855,395.68976510223,402.1406039739959
1,46,1,1,1.0,1.0,0.6551807406358421,0.0,7,3,0,8,5,2,nan,nan,nan,nan,nan,nan,nan,nan,nan,nan,nan,nan,0.0,nan,nan,nan,nan,nan,nan,nan,nan,nan,nan,nan,nan,nan,nan,nan,nan,nan,nan,316.30984174786136,403.34912195568904,nan,404.0043026963249,nan,nan,nan,nan
1,47,1,1,1.0,1.0,0.2946953559294343,0.0,4,8,3,0,2,1,nan,nan,nan,nan,nan,nan,nan,nan,nan,nan,nan,nan,0.0,nan,nan,nan,nan,nan,nan,nan,nan,nan,nan,nan,nan,nan,nan,nan,nan,nan,nan,316.30984174786136,404.3575802379055,nan,404.65227559383493,nan,nan,nan,nan
1,48,1,1,1.0,1.0,0.31820537766907364,0.0,6,0,4,5,3,2,nan,nan,nan,nan,nan,nan,nan,nan,nan,nan,nan,nan,0.0,nan,nan,nan,nan,nan,nan,nan,nan,nan,nan,nan,nan,nan,nan,nan,nan,nan,nan,316.30984174786136,405.36604080093093,nan,405.6842461786,nan,nan,nan,nan
1,49,1,1,1.0,1.0,0.30172444274649024,0.0,8,4,2,7,6,3,nan,nan,nan,nan,nan,nan,nan,nan,nan,nan,nan,nan,0.0,nan,nan,nan,nan,nan,nan,nan,nan,nan,nan,nan,nan,nan,nan,nan,nan,nan,nan,316.30984174786136,406.37450649566017,nan,406.67623093840666,nan,nan,nan,nan
1,50,1,1,1.0,1.0,0.2692529410123825,0.0,2,1,0,5,7,8,nan,nan,nan,nan,nan,nan,nan,nan,nan,nan,nan,nan,0.0,nan,nan,nan,nan,nan,nan,nan,nan,nan,nan,nan,nan,nan,nan,nan,nan,nan,nan,316.30984174786136,407.38297105010133,nan,407.6522239911137,nan,nan,nan,nan
1,51,1,1,1.0,1.0,0.2687742618145421,0.0,8,2,7,0,4,3,nan,nan,nan,nan,nan,nan,nan,nan,nan,nan,nan,nan,0.0,nan,nan,nan,nan,nan,nan,nan,nan,nan,nan,nan,nan,nan,nan,nan,nan,nan,nan,316.30984174786136,408.39142420049757,nan,408.6601984623121,nan,nan,nan,nan
1,52,1,1,1.0,1.0,0.3806018871255219,0.0,2,6,5,3,0,7,nan,nan,nan,nan,nan,nan,nan,nan,nan,nan,nan,nan,0.0,nan,nan,nan,nan,nan,nan,nan,nan,nan,nan,nan,nan,nan,nan,nan,nan,nan,nan,316.30984174786136,409.3915787235601,nan,409.7721806106856,nan,nan,nan,nan
1,53,1,1,1.0,1.0,0.3004608891205862,0.0,0,7,6,4,1,3,nan,nan,nan,nan,nan,nan,nan,nan,nan,nan,nan,nan,0.0,nan,nan,nan,nan,nan,nan,nan,nan,nan,nan,nan,nan,nan,nan,nan,nan,nan,nan,316.30984174786136,410.39170872815885,nan,410.69216961727943,nan,nan,nan,nan
1,54,1,1,1.0,1.0,0.30031263816636056,0.0,8,3,2,0,4,6,nan,nan,nan,nan,nan,nan,nan,nan,nan,nan,nan,nan,0.0,nan,nan,nan,nan,nan,nan,nan,nan,nan,nan,nan,nan,nan,nan,nan,nan,nan,nan,316.30984174786136,411.39184072846547,nan,411.6921533666318,nan,nan,nan,nan
1,55,0,0,0.0,1.0,0.4601897953543812,1.0,7,1,8,6,5,3,1.0,1.0,1.0,1.0,1.0,1.0,0.0,0.0,1.0,1.0,0.0,0.0,2.0,4.0,0.0,8.0,6.0,1.0,7.0,5.0,4.0,1.0,2.0,3.0,6.0,7.231526231276803,6.286881394684315,1.1765585157554597,2.1288827472599223,4.559192865272053,9.926995855756104,316.30984174786136,412.391945074196,413.2003844259307,412.85213486955035,424.1851408155635,425.1880796039477,414.2171909426106,424.1768250822788
1,56,1,1,1.0,1.0,0.6822248349199072,0.0,0,3,5,7,8,4,nan,nan,nan,nan,nan,nan,nan,nan,nan,nan,nan,nan,0.0,nan,nan,nan,nan,nan,nan,nan,nan,nan,nan,nan,nan,nan,nan,nan,nan,nan,nan,316.30984174786136,425.3936693458818,nan,426.0758941808017,nan,nan,nan,nan
1,57,1,1,1.0,1.0,0.33774427184835076,0.0,5,0,1,6,2,7,nan,nan,nan,nan,nan,nan,nan,nan,nan,nan,nan,nan,0.0,nan,nan,nan,nan,nan,nan,nan,nan,nan,nan,nan,nan,nan,nan,nan,nan,nan,nan,316.30984174786136,426.4021307640942,nan,426.73987503594253,nan,nan,nan,nan
1,58,1,1,1.0,1.0,0.25727341568563133,0.0,6,8,3,0,7,2,nan,nan,nan,nan,nan,nan,nan,nan,nan,nan,nan,nan,0.0,nan,nan,nan,nan,nan,nan,nan,nan,nan,nan,nan,nan,nan,nan,nan,nan,nan,nan,316.30984174786136,427.41058819100726,nan,427.6678616066929,nan,nan,nan,nan
1,59,1,1,1.0,1.0,0.4487938651582226,0.0,2,1,7,4,6,5,nan,nan,nan,nan,nan,nan,nan,nan,nan,nan,nan,nan,0.0,nan,nan,nan,nan,nan,nan,nan,nan,nan,nan,nan,nan,nan,nan,nan,nan,nan,nan,316.30984174786136,428.4190624387702,nan,428.8678563039284,nan,nan,nan,nan
1,60,1,1,1.0,1.0,0.3126607951708138,0.0,3,5,6,1,8,7,nan,nan,nan,nan,nan,nan,nan,nan,nan,nan,nan,nan,0.0,nan,nan,nan,nan,nan,nan,nan,nan,nan,nan,nan,nan,nan,nan,nan,nan,nan,nan,316.30984174786136,429.41918503073975,nan,429.73184582591057,nan,nan,nan,nan
1,61,1,1,1.0,1.0,0.2961584778968245,0.0,5,7,3,4,2,0,nan,nan,nan,nan,nan,nan,nan,nan,nan,nan,nan,nan,0.0,nan,nan,nan,nan,nan,nan,nan,nan,nan,nan,nan,nan,nan,nan,nan,nan,nan,nan,316.30984174786136,430.4276558572892,nan,430.72381433518603,nan,nan,nan,nan
1,62,1,1,1.0,1.0,0.3116740715922788,0.0,2,1,7,5,3,6,nan,nan,nan,nan,nan,nan,nan,nan,nan,nan,nan,nan,0.0,nan,nan,nan,nan,nan,nan,nan,nan,nan,nan,nan,nan,nan,nan,nan,nan,nan,nan,316.30984174786136,431.4361258285353,nan,431.7477999001276,nan,nan,nan,nan
1,63,1,1,1.0,1.0,0.27921853540465236,0.0,6,0,5,7,2,4,nan,nan,nan,nan,nan,nan,nan,nan,nan,nan,nan,nan,0.0,nan,nan,nan,nan,nan,nan,nan,nan,nan,nan,nan,nan,nan,nan,nan,nan,nan,nan,316.30984174786136,432.4445747025311,nan,432.72379323793575,nan,nan,nan,nan
1,64,1,1,1.0,1.0,0.3106950456276536,0.0,8,2,7,1,6,3,nan,nan,nan,nan,nan,nan,nan,nan,nan,nan,nan,nan,0.0,nan,nan,nan,nan,nan,nan,nan,nan,nan,nan,nan,nan,nan,nan,nan,nan,nan,nan,316.30984174786136,433.4530512309866,nan,433.76374627661426,nan,nan,nan,nan
1,65,1,1,1.0,1.0,0.27023225219454616,0.0,3,5,1,6,2,0,nan,nan,nan,nan,nan,nan,nan,nan,nan,nan,nan,nan,0.0,nan,nan,nan,nan,nan,nan,nan,nan,nan,nan,nan,nan,nan,nan,nan,nan,nan,nan,316.30984174786136,434.4615212021163,nan,434.7317534543108,nan,nan,nan,nan
1,66,1,1,1.0,1.0,0.230071947327815,0.0,1,8,6,3,4,7,nan,nan,nan,nan,nan,nan,nan,nan,nan,nan,nan,nan,0.0,nan,nan,nan,nan,nan,nan,nan,nan,nan,nan,nan,nan,nan,nan,nan,nan,nan,nan,316.30984174786136,435.4616546279285,nan,435.6917265752563,nan,nan,nan,nan
1,67,0,0,1.0,0.0,0.20559800986666232,0.0,4,5,7,2,3,6,nan,nan,nan,nan,nan,nan,nan,nan,nan,nan,nan,nan,0.0,nan,nan,nan,nan,nan,nan,nan,nan,nan,nan,nan,nan,nan,nan,nan,nan,nan,nan,316.30984174786136,436.47012089286,nan,436.67571890272666,nan,nan,nan,nan
1,68,1,1,nan,nan,nan,0.0,2,8,6,0,1,4,nan,nan,nan,nan,nan,nan,nan,nan,nan,nan,nan,nan,0.0,nan,nan,nan,nan,nan,nan,nan,nan,nan,nan,nan,nan,nan,nan,nan,nan,nan,nan,316.30984174786136,437.47857689426746,nan,nan,nan,nan,nan,nan
1,69,1,1,1.0,1.0,0.5965900019509718,0.0,6,2,8,4,3,5,nan,nan,nan,nan,nan,nan,nan,nan,nan,nan,nan,nan,0.0,nan,nan,nan,nan,nan,nan,nan,nan,nan,nan,nan,nan,nan,nan,nan,nan,nan,nan,316.30984174786136,438.4870465804124,nan,439.0836365823634,nan,nan,nan,nan
1,70,1,1,1.0,1.0,0.36415801488328725,0.0,3,6,5,7,2,1,nan,nan,nan,nan,nan,nan,nan,nan,nan,nan,nan,nan,0.0,nan,nan,nan,nan,nan,nan,nan,nan,nan,nan,nan,nan,nan,nan,nan,nan,nan,nan,316.30984174786136,439.4955165516585,nan,439.8596745665418,nan,nan,nan,nan
1,71,0,0,0.0,1.0,0.5796415066579357,0.0,1,3,4,6,5,0,nan,nan,nan,nan,nan,nan,nan,nan,nan,nan,nan,nan,0.0,nan,nan,nan,nan,nan,nan,nan,nan,nan,nan,nan,nan,nan,nan,nan,nan,nan,nan,316.30984174786136,440.50397112756036,nan,441.0836126342183,nan,nan,nan,nan
1,72,1,1,1.0,1.0,0.6431832540547475,0.0,5,0,1,7,8,2,nan,nan,nan,nan,nan,nan,nan,nan,nan,nan,nan,nan,0.0,nan,nan,nan,nan,nan,nan,nan,nan,nan,nan,nan,nan,nan,nan,nan,nan,nan,nan,316.30984174786136,441.5124428094132,nan,442.15562606346793,nan,nan,nan,nan
1,73,1,1,1.0,1.0,0.3626880506053567,0.0,6,2,3,0,1,4,nan,nan,nan,nan,nan,nan,nan,nan,nan,nan,nan,nan,0.0,nan,nan,nan,nan,nan,nan,nan,nan,nan,nan,nan,nan,nan,nan,nan,nan,nan,nan,316.30984174786136,442.52091506135184,nan,442.8836031119572,nan,nan,nan,nan
1,74,1,1,1.0,1.0,0.45822575641795993,0.0,1,8,4,2,0,5,nan,nan,nan,nan,nan,nan,nan,nan,nan,nan,nan,nan,0.0,nan,nan,nan,nan,nan,nan,nan,nan,nan,nan,nan,nan,nan,nan,nan,nan,nan,nan,316.30984174786136,443.5293656459544,nan,443.98759140237235,nan,nan,nan,nan
1,75,1,1,1.0,1.0,0.33774911845102906,0.0,2,3,7,6,1,0,nan,nan,nan,nan,nan,nan,nan,nan,nan,nan,nan,nan,0.0,nan,nan,nan,nan,nan,nan,nan,nan,nan,nan,nan,nan,nan,nan,nan,nan,nan,nan,316.30984174786136,444.53783191088587,nan,444.8755810293369,nan,nan,nan,nan
1,76,1,1,1.0,1.0,0.345230370410718,0.0,3,5,6,8,4,2,nan,nan,nan,nan,nan,nan,nan,nan,nan,nan,nan,nan,0.0,nan,nan,nan,nan,nan,nan,nan,nan,nan,nan,nan,nan,nan,nan,nan,nan,nan,nan,316.30984174786136,445.5463027374353,nan,445.89153310784604,nan,nan,nan,nan
1,77,1,1,1.0,1.0,0.23276441113557667,0.0,0,7,1,3,2,8,nan,nan,nan,nan,nan,nan,nan,nan,nan,nan,nan,nan,0.0,nan,nan,nan,nan,nan,nan,nan,nan,nan,nan,nan,nan,nan,nan,nan,nan,nan,nan,316.30984174786136,446.5547650109511,nan,446.78752942208666,nan,nan,nan,nan
1,78,1,1,1.0,1.0,0.31221376173198223,0.0,5,1,8,6,7,2,nan,nan,nan,nan,nan,nan,nan,nan,nan,nan,nan,nan,0.0,nan,nan,nan,nan,nan,nan,nan,nan,nan,nan,nan,nan,nan,nan,nan,nan,nan,nan,316.30984174786136,447.5633190860972,nan,447.87553284782916,nan,nan,nan,nan
1,79,1,1,1.0,1.0,0.23980604228563607,0.0,1,8,6,0,2,4,nan,nan,nan,nan,nan,nan,nan,nan,nan,nan,nan,nan,0.0,nan,nan,nan,nan,nan,nan,nan,nan,nan,nan,nan,nan,nan,nan,nan,nan,nan,nan,316.30984174786136,448.5716989663197,nan,448.8115050086053,nan,nan,nan,nan
1,80,1,1,1.0,1.0,0.23133264982607216,0.0,2,0,1,5,6,7,nan,nan,nan,nan,nan,nan,nan,nan,nan,nan,nan,nan,0.0,nan,nan,nan,nan,nan,nan,nan,nan,nan,nan,nan,nan,nan,nan,nan,nan,nan,nan,316.30984174786136,449.5801552529447,nan,449.81148790277075,nan,nan,nan,nan
1,81,0,0,1.0,0.0,0.21483945567160845,0.0,4,3,2,6,0,5,nan,nan,nan,nan,nan,nan,nan,nan,nan,nan,nan,nan,0.0,nan,nan,nan,nan,nan,nan,nan,nan,nan,nan,nan,nan,nan,nan,nan,nan,nan,nan,316.30984174786136,450.5886323516024,nan,450.80347180727404,nan,nan,nan,nan
1,82,1,1,1.0,1.0,0.6943531815195456,0.0,0,6,5,1,4,8,nan,nan,nan,nan,nan,nan,nan,nan,nan,nan,nan,nan,0.0,nan,nan,nan,nan,nan,nan,nan,nan,nan,nan,nan,nan,nan,nan,nan,nan,nan,nan,316.30984174786136,451.59708436159417,nan,452.2914375431137,nan,nan,nan,nan
1,83,0,0,0.0,1.0,0.6858663894236088,0.0,5,2,6,7,1,4,nan,nan,nan,nan,nan,nan,nan,nan,nan,nan,nan,nan,0.0,nan,nan,nan,nan,nan,nan,nan,nan,nan,nan,nan,nan,nan,nan,nan,nan,nan,nan,316.30984174786136,452.6055626006564,nan,453.29142899008,nan,nan,nan,nan
1,84,1,1,1.0,1.0,0.47738033870700747,0.0,2,1,0,6,8,7,nan,nan,nan,nan,nan,nan,nan,nan,nan,nan,nan,nan,0.0,nan,nan,nan,nan,nan,nan,nan,nan,nan,nan,nan,nan,nan,nan,nan,nan,nan,nan,316.30984174786136,453.61402316368185,nan,454.09140350238886,nan,nan,nan,nan
1,85,1,1,1.0,1.0,0.4529058310436085,0.0,7,5,1,0,4,2,nan,nan,nan,nan,nan,nan,nan,nan,nan,nan,nan,nan,0.0,nan,nan,nan,nan,nan,nan,nan,nan,nan,nan,nan,nan,nan,nan,nan,nan,nan,nan,316.30984174786136,454.6224888584111,nan,455.0753946894547,nan,nan,nan,nan
1,86,1,1,1.0,1.0,0.40441496786661446,0.0,8,1,4,3,7,6,nan,nan,nan,nan,nan,nan,nan,nan,nan,nan,nan,nan,0.0,nan,nan,nan,nan,nan,nan,nan,nan,nan,nan,nan,nan,nan,nan,nan,nan,nan,nan,316.30984174786136,455.6309568339493,nan,456.0353718018159,nan,nan,nan,nan
1,87,1,1,1.0,1.0,0.475928335567005,0.0,3,4,5,2,0,8,nan,nan,nan,nan,nan,nan,nan,nan,nan,nan,nan,nan,0.0,nan,nan,nan,nan,nan,nan,nan,nan,nan,nan,nan,nan,nan,nan,nan,nan,nan,nan,316.30984174786136,456.63941255025566,nan,457.11534088582266,nan,nan,nan,nan
1,88,1,1,1.0,1.0,0.41945615876466036,0.0,2,6,4,8,3,1,nan,nan,nan,nan,nan,nan,nan,nan,nan,nan,nan,nan,0.0,nan,nan,nan,nan,nan,nan,nan,nan,nan,nan,nan,nan,nan,nan,nan,nan,nan,nan,316.30984174786136,457.647878530086,nan,458.0673346888507,nan,nan,nan,nan
1,89,1,1,1.0,1.0,0.4190000023227185,0.0,5,1,3,4,6,2,nan,nan,nan,nan,nan,nan,nan,nan,nan,nan,nan,nan,0.0,nan,nan,nan,nan,nan,nan,nan,nan,nan,nan,nan,nan,nan,nan,nan,nan,nan,nan,316.30984174786136,458.65633652720135,nan,459.07533652952407,nan,nan,nan,nan
1,90,1,1,1.0,1.0,0.34648651152383536,0.0,0,2,4,1,8,5,nan,nan,nan,nan,nan,nan,nan,nan,nan,nan,nan,nan,0.0,nan,nan,nan,nan,nan,nan,nan,nan,nan,nan,nan,nan,nan,nan,nan,nan,nan,nan,316.30984174786136,459.6648099195445,nan,460.01129643106833,nan,nan,nan,nan
1,91,1,1,1.0,1.0,0.31398735533002764,0.0,2,4,3,5,6,7,nan,nan,nan,nan,nan,nan,nan,nan,nan,nan,nan,nan,0.0,nan,nan,nan,nan,nan,nan,nan,nan,nan,nan,nan,nan,nan,nan,nan,nan,nan,nan,316.30984174786136,460.67328416730743,nan,460.98727152263746,nan,nan,nan,nan
1,92,1,1,1.0,1.0,0.2814970372710377,0.0,8,6,2,7,5,0,nan,nan,nan,nan,nan,nan,nan,nan,nan,nan,nan,nan,0.0,nan,nan,nan,nan,nan,nan,nan,nan,nan,nan,nan,nan,nan,nan,nan,nan,nan,nan,316.30984174786136,461.68175584904384,nan,461.9632528863149,nan,nan,nan,nan
1,93,1,1,1.0,1.0,0.44903049629647285,0.0,5,2,0,1,8,7,nan,nan,nan,nan,nan,nan,nan,nan,nan,nan,nan,nan,0.0,nan,nan,nan,nan,nan,nan,nan,nan,nan,nan,nan,nan,nan,nan,nan,nan,nan,nan,316.30984174786136,462.69020956975874,nan,463.1392400660552,nan,nan,nan,nan
1,94,1,1,1.0,1.0,0.29655447881668806,0.0,3,5,7,0,2,4,nan,nan,nan,nan,nan,nan,nan,nan,nan,nan,nan,nan,0.0,nan,nan,nan,nan,nan,nan,nan,nan,nan,nan,nan,nan,nan,nan,nan,nan,nan,nan,316.30984174786136,463.6986644307617,nan,463.9952189095784,nan,nan,nan,nan
1,95,1,1,1.0,1.0,0.3120692172087729,0.0,2,6,8,3,0,5,nan,nan,nan,nan,nan,nan,nan,nan,nan,nan,nan,nan,0.0,nan,nan,nan,nan,nan,nan,nan,nan,nan,nan,nan,nan,nan,nan,nan,nan,nan,nan,316.30984174786136,464.7071398188127,nan,465.0192090360215,nan,nan,nan,nan
1,96,1,1,1.0,1.0,0.34358621132560074,0.0,0,7,1,5,4,6,nan,nan,nan,nan,nan,nan,nan,nan,nan,nan,nan,nan,0.0,nan,nan,nan,nan,nan,nan,nan,nan,nan,nan,nan,nan,nan,nan,nan,nan,nan,nan,316.30984174786136,465.7156072241487,nan,466.0591934354743,nan,nan,nan,nan
1,97,1,1,1.0,1.0,0.2951141644734889,0.0,4,3,2,0,1,8,nan,nan,nan,nan,nan,nan,nan,nan,nan,nan,nan,nan,0.0,nan,nan,nan,nan,nan,nan,nan,nan,nan,nan,nan,nan,nan,nan,nan,nan,nan,nan,316.30984174786136,466.7240609448636,nan,467.0191751093371,nan,nan,nan,nan
1,98,1,1,1.0,1.0,0.3106123673496768,0.0,8,0,6,4,3,1,nan,nan,nan,nan,nan,nan,nan,nan,nan,nan,nan,nan,0.0,nan,nan,nan,nan,nan,nan,nan,nan,nan,nan,nan,nan,nan,nan,nan,nan,nan,nan,316.30984174786136,467.7325437454274,nan,468.04315611277707,nan,nan,nan,nan
1,99,1,1,1.0,1.0,0.3581293363822624,0.0,6,2,7,0,5,8,nan,nan,nan,nan,nan,nan,nan,nan,nan,nan,nan,nan,0.0,nan,nan,nan,nan,nan,nan,nan,nan,nan,nan,nan,nan,nan,nan,nan,nan,nan,nan,316.30984174786136,468.7409963256214,nan,469.09912566200364,nan,nan,nan,nan
1,100,1,1,1.0,1.0,0.2939857473829761,0.0,2,5,6,8,4,3,nan,nan,nan,nan,nan,nan,nan,nan,nan,nan,nan,nan,0.0,nan,nan,nan,nan,nan,nan,nan,nan,nan,nan,nan,nan,nan,nan,nan,nan,nan,nan,316.30984174786136,469.7411394447554,nan,470.03512519213837,nan,nan,nan,nan
1,101,1,1,1.0,1.0,0.2614646387519315,0.0,0,7,8,3,6,1,nan,nan,nan,nan,nan,nan,nan,nan,nan,nan,nan,nan,0.0,nan,nan,nan,nan,nan,nan,nan,nan,nan,nan,nan,nan,nan,nan,nan,nan,nan,nan,316.30984174786136,470.74963450455107,nan,471.011099143303,nan,nan,nan,nan
1,102,1,1,1.0,1.0,0.2773445874918252,0.0,7,3,4,8,1,5,nan,nan,nan,nan,nan,nan,nan,nan,nan,nan,nan,nan,0.0,nan,nan,nan,nan,nan,nan,nan,nan,nan,nan,nan,nan,nan,nan,nan,nan,nan,nan,316.30984174786136,471.749736569589,nan,472.02708115708083,nan,nan,nan,nan
1,103,1,1,1.0,1.0,0.20520086854230613,0.0,6,4,3,0,7,2,nan,nan,nan,nan,nan,nan,nan,nan,nan,nan,nan,nan,0.0,nan,nan,nan,nan,nan,nan,nan,nan,nan,nan,nan,nan,nan,nan,nan,nan,nan,nan,316.30984174786136,472.7498682847945,nan,472.9550691533368,nan,nan,nan,nan
1,104,0,0,1.0,0.0,0.1166953855426982,0.0,4,7,8,1,5,3,nan,nan,nan,nan,nan,nan,nan,nan,nan,nan,nan,nan,0.0,nan,nan,nan,nan,nan,nan,nan,nan,nan,nan,nan,nan,nan,nan,nan,nan,nan,nan,316.30984174786136,473.7583536512684,nan,473.8750490368111,nan,nan,nan,nan
1,105,1,1,1.0,1.0,0.4122172399656847,0.0,5,2,1,6,0,7,nan,nan,nan,nan,nan,nan,nan,nan,nan,nan,nan,nan,0.0,nan,nan,nan,nan,nan,nan,nan,nan,nan,nan,nan,nan,nan,nan,nan,nan,nan,nan,316.30984174786136,474.76680195506196,nan,475.17901919502765,nan,nan,nan,nan
1,106,1,1,1.0,1.0,0.3157586681190878,0.0,2,3,0,1,6,4,nan,nan,nan,nan,nan,nan,nan,nan,nan,nan,nan,nan,0.0,nan,nan,nan,nan,nan,nan,nan,nan,nan,nan,nan,nan,nan,nan,nan,nan,nan,nan,316.30984174786136,475.77525966707617,nan,476.09101833519526,nan,nan,nan,nan
1,107,1,1,1.0,1.0,0.2832865962991491,0.0,7,6,1,8,4,0,nan,nan,nan,nan,nan,nan,nan,nan,nan,nan,nan,nan,0.0,nan,nan,nan,nan,nan,nan,nan,nan,nan,nan,nan,nan,nan,nan,nan,nan,nan,nan,316.30984174786136,476.7837125324877,nan,477.06699912878685,nan,nan,nan,nan
1,108,1,1,1.0,1.0,0.33079643780365586,0.0,4,8,7,6,2,3,nan,nan,nan,nan,nan,nan,nan,nan,nan,nan,nan,nan,0.0,nan,nan,nan,nan,nan,nan,nan,nan,nan,nan,nan,nan,nan,nan,nan,nan,nan,nan,316.30984174786136,477.79219219705556,nan,478.1229886348592,nan,nan,nan,nan
1,109,1,1,1.0,1.0,0.35430988075677305,0.0,6,1,0,3,4,5,nan,nan,nan,nan,nan,nan,nan,nan,nan,nan,nan,nan,0.0,nan,nan,nan,nan,nan,nan,nan,nan,nan,nan,nan,nan,nan,nan,nan,nan,nan,nan,316.30984174786136,478.8006567513803,nan,479.1549666321371,nan,nan,nan,nan
1,110,1,1,1.0,1.0,0.2738190678646788,0.0,4,3,5,6,8,2,nan,nan,nan,nan,nan,nan,nan,nan,nan,nan,nan,nan,0.0,nan,nan,nan,nan,nan,nan,nan,nan,nan,nan,nan,nan,nan,nan,nan,nan,nan,nan,316.30984174786136,479.8091384115396,nan,480.0829574794043,nan,nan,nan,nan
1,111,1,1,1.0,1.0,0.26568294619210064,0.0,1,7,3,2,6,5,nan,nan,nan,nan,nan,nan,nan,nan,nan,nan,nan,nan,0.0,nan,nan,nan,nan,nan,nan,nan,nan,nan,nan,nan,nan,nan,nan,nan,nan,nan,nan,316.30984174786136,480.8092510252027,nan,481.0749339713948,nan,nan,nan,nan
1,112,0,0,0.0,1.0,0.44920868251938373,1.0,0,4,2,8,5,6,1.0,1.0,1.0,1.0,1.0,1.0,1.0,0.0,1.0,1.0,0.0,0.0,3.0,0.0,6.0,2.0,8.0,1.0,4.0,1.0,6.0,2.0,3.0,4.0,5.0,1.6465439872117713,8.532695018337108,2.310431900434196,3.65298092586454,5.253325381083414,6.3405567618319765,316.30984174786136,481.81771044782363,482.6261304129148,482.266919130343,492.20237897033803,493.20293377060443,483.63460123934783,492.1940489821136
1,113,1,1,1.0,1.0,0.5518176696496084,0.0,7,0,8,2,1,5,nan,nan,nan,nan,nan,nan,nan,nan,nan,nan,nan,nan,0.0,nan,nan,nan,nan,nan,nan,nan,nan,nan,nan,nan,nan,nan,nan,nan,nan,nan,nan,316.30984174786136,493.4108923904132,nan,493.9627100600628,nan,nan,nan,nan
1,114,1,1,1.0,1.0,0.29532143066171557,0.0,8,2,6,1,3,4,nan,nan,nan,nan,nan,nan,nan,nan,nan,nan,nan,nan,0.0,nan,nan,nan,nan,nan,nan,nan,nan,nan,nan,nan,nan,nan,nan,nan,nan,nan,nan,316.30984174786136,494.41935181303415,nan,494.71467324369587,nan,nan,nan,nan
1,115,1,1,1.0,1.0,0.3188274611020461,0.0,5,7,3,6,0,1,nan,nan,nan,nan,nan,nan,nan,nan,nan,nan,nan,nan,0.0,nan,nan,nan,nan,nan,nan,nan,nan,nan,nan,nan,nan,nan,nan,nan,nan,nan,nan,316.30984174786136,495.4278274861863,nan,495.74665494728833,nan,nan,nan,nan
1,116,1,1,1.0,1.0,0.3343416292918846,0.0,3,2,4,8,5,0,nan,nan,nan,nan,nan,nan,nan,nan,nan,nan,nan,nan,0.0,nan,nan,nan,nan,nan,nan,nan,nan,nan,nan,nan,nan,nan,nan,nan,nan,nan,nan,316.30984174786136,496.4362954617245,nan,496.7706370910164,nan,nan,nan,nan
1,117,1,1,1.0,1.0,0.5098706568824127,0.0,7,0,6,2,8,5,nan,nan,nan,nan,nan,nan,nan,nan,nan,nan,nan,nan,0.0,nan,nan,nan,nan,nan,nan,nan,nan,nan,nan,nan,nan,nan,nan,nan,nan,nan,nan,316.30984174786136,497.4447517482331,nan,497.9546224051155,nan,nan,nan,nan
1,118,1,1,1.0,1.0,0.3013828954426572,0.0,1,2,3,5,0,8,nan,nan,nan,nan,nan,nan,nan,nan,nan,nan,nan,nan,0.0,nan,nan,nan,nan,nan,nan,nan,nan,nan,nan,nan,nan,nan,nan,nan,nan,nan,nan,316.30984174786136,498.4532234300859,nan,498.7546063255286,nan,nan,nan,nan
1,119,1,1,1.0,1.0,0.3648929970804602,0.0,3,5,8,7,2,0,nan,nan,nan,nan,nan,nan,nan,nan,nan,nan,nan,nan,0.0,nan,nan,nan,nan,nan,nan,nan,nan,nan,nan,nan,nan,nan,nan,nan,nan,nan,nan,316.30984174786136,499.46169283101335,nan,499.8265858280938,nan,nan,nan,nan
1,120,1,1,1.0,1.0,0.3004186946200207,0.0,2,1,6,3,8,4,nan,nan,nan,nan,nan,nan,nan,nan,nan,nan,nan,nan,0.0,nan,nan,nan,nan,nan,nan,nan,nan,nan,nan,nan,nan,nan,nan,nan,nan,nan,nan,316.30984174786136,500.47015310893767,nan,500.7705718035577,nan,nan,nan,nan
1,121,1,1,1.0,1.0,0.25992824661079794,0.0,6,0,5,4,2,3,nan,nan,nan,nan,nan,nan,nan,nan,nan,nan,nan,nan,0.0,nan,nan,nan,nan,nan,nan,nan,nan,nan,nan,nan,nan,nan,nan,nan,nan,nan,nan,316.30984174786136,501.47864047111943,nan,501.73856871773023,nan,nan,nan,nan
1,122,1,1,1.0,1.0,0.2754549590172246,0.0,1,4,3,7,8,0,nan,nan,nan,nan,nan,nan,nan,nan,nan,nan,nan,nan,0.0,nan,nan,nan,nan,nan,nan,nan,nan,nan,nan,nan,nan,nan,nan,nan,nan,nan,nan,316.30984174786136,502.48708307300694,nan,502.76253803202417,nan,nan,nan,nan
1,123,1,1,1.0,1.0,0.29096114449203014,0.0,8,1,7,5,0,6,nan,nan,nan,nan,nan,nan,nan,nan,nan,nan,nan,nan,0.0,nan,nan,nan,nan,nan,nan,nan,nan,nan,nan,nan,nan,nan,nan,nan,nan,nan,nan,316.30984174786136,503.4955501932418,nan,503.7865113377338,nan,nan,nan,nan
1,124,1,1,1.0,1.0,0.3624773632036522,0.0,5,6,0,1,3,8,nan,nan,nan,nan,nan,nan,nan,nan,nan,nan,nan,nan,0.0,nan,nan,nan,nan,nan,nan,nan,nan,nan,nan,nan,nan,nan,nan,nan,nan,nan,nan,316.30984174786136,504.5040218749782,nan,504.86649923818186,nan,nan,nan,nan
1,125,1,1,1.0,1.0,0.3620049561141059,0.0,4,2,1,8,0,3,nan,nan,nan,nan,nan,nan,nan,nan,nan,nan,nan,nan,0.0,nan,nan,nan,nan,nan,nan,nan,nan,nan,nan,nan,nan,nan,nan,nan,nan,nan,nan,316.30984174786136,505.512485574116,nan,505.8744905302301,nan,nan,nan,nan
1,126,1,1,1.0,1.0,0.2975483298068866,0.0,0,6,3,7,8,5,nan,nan,nan,nan,nan,nan,nan,nan,nan,nan,nan,nan,0.0,nan,nan,nan,nan,nan,nan,nan,nan,nan,nan,nan,nan,nan,nan,nan,nan,nan,nan,316.30984174786136,506.52093131199945,nan,506.81847964180633,nan,nan,nan,nan
1,127,1,1,1.0,1.0,0.32905192428734154,0.0,3,8,5,1,6,4,nan,nan,nan,nan,nan,nan,nan,nan,nan,nan,nan,nan,0.0,nan,nan,nan,nan,nan,nan,nan,nan,nan,nan,nan,nan,nan,nan,nan,nan,nan,nan,316.30984174786136,507.52939900243655,nan,507.8584509267239,nan,nan,nan,nan
1,128,1,1,1.0,1.0,0.2885557742556557,0.0,4,0,7,6,3,8,nan,nan,nan,nan,nan,nan,nan,nan,nan,nan,nan,nan,0.0,nan,nan,nan,nan,nan,nan,nan,nan,nan,nan,nan,nan,nan,nan,nan,nan,nan,nan,316.30984174786136,508.5378749606898,nan,508.82643073494546,nan,nan,nan,nan
1,129,1,1,1.0,1.0,0.2480784406652674,0.0,6,7,4,2,1,3,nan,nan,nan,nan,nan,nan,nan,nan,nan,nan,nan,nan,0.0,nan,nan,nan,nan,nan,nan,nan,nan,nan,nan,nan,nan,nan,nan,nan,nan,nan,nan,316.30984174786136,509.5463346684119,nan,509.79441310907714,nan,nan,nan,nan
1,130,1,1,1.0,1.0,0.18392572866287082,0.0,2,6,3,5,8,1,nan,nan,nan,nan,nan,nan,nan,nan,nan,nan,nan,nan,0.0,nan,nan,nan,nan,nan,nan,nan,nan,nan,nan,nan,nan,nan,nan,nan,nan,nan,nan,316.30984174786136,510.54647778742947,nan,510.73040351609234,nan,nan,nan,nan
1,131,0,0,1.0,0.0,0.22347307309973985,1.0,6,0,8,4,5,2,1.0,1.0,1.0,1.0,1.0,1.0,0.0,0.0,0.0,0.0,0.0,1.0,1.0,3.0,8.0,4.0,3.0,0.0,2.0,3.0,2.0,1.0,6.0,5.0,4.0,3.9785147429211065,3.3166131062898785,2.5246874757576734,7.242031800909899,5.706165069248527,4.858958970988169,316.30984174786136,511.554938635556,512.3633494775277,511.77841170865577,520.6727655743016,521.6724576686975,513.3884919694392,520.6644370116992
1,132,1,1,1.0,1.0,0.38487407797947526,0.0,8,5,3,2,0,7,nan,nan,nan,nan,nan,nan,nan,nan,nan,nan,nan,nan,0.0,nan,nan,nan,nan,nan,nan,nan,nan,nan,nan,nan,nan,nan,nan,nan,nan,nan,nan,316.30984174786136,521.8813077893574,nan,522.2661818673369,nan,nan,nan,nan
1,133,1,1,1.0,1.0,0.2644316517980769,0.0,5,4,1,0,3,2,nan,nan,nan,nan,nan,nan,nan,nan,nan,nan,nan,nan,0.0,nan,nan,nan,nan,nan,nan,nan,nan,nan,nan,nan,nan,nan,nan,nan,nan,nan,nan,316.30984174786136,522.8897475402337,nan,523.1541791920317,nan,nan,nan,nan
1,134,1,1,1.0,1.0,0.21626408956944942,0.0,7,3,8,2,5,0,nan,nan,nan,nan,nan,nan,nan,nan,nan,nan,nan,nan,0.0,nan,nan,nan,nan,nan,nan,nan,nan,nan,nan,nan,nan,nan,nan,nan,nan,nan,nan,316.30984174786136,523.8899023482809,nan,524.1061664378503,nan,nan,nan,nan
1,135,1,1,1.0,1.0,0.35179930937010795,0.0,4,0,2,7,6,1,nan,nan,nan,nan,nan,nan,nan,nan,nan,nan,nan,nan,0.0,nan,nan,nan,nan,nan,nan,nan,nan,nan,nan,nan,nan,nan,nan,nan,nan,nan,nan,316.30984174786136,524.8983426693594,nan,525.2501419787295,nan,nan,nan,nan
1,136,1,1,1.0,1.0,0.3192910300567746,0.0,1,6,4,0,3,2,nan,nan,nan,nan,nan,nan,nan,nan,nan,nan,nan,nan,0.0,nan,nan,nan,nan,nan,nan,nan,nan,nan,nan,nan,nan,nan,nan,nan,nan,nan,nan,316.30984174786136,525.906824044534,nan,526.2261150745908,nan,nan,nan,nan
1,137,1,1,1.0,1.0,0.3431303398683667,0.0,3,0,8,7,6,5,nan,nan,nan,nan,nan,nan,nan,nan,nan,nan,nan,nan,0.0,nan,nan,nan,nan,nan,nan,nan,nan,nan,nan,nan,nan,nan,nan,nan,nan,nan,nan,316.30984174786136,526.9069794227835,nan,527.2501097626518,nan,nan,nan,nan
1,138,1,1,1.0,1.0,0.3266551069682464,0.0,0,4,5,6,2,8,nan,nan,nan,nan,nan,nan,nan,nan,nan,nan,nan,nan,0.0,nan,nan,nan,nan,nan,nan,nan,nan,nan,nan,nan,nan,nan,nan,nan,nan,nan,nan,316.30984174786136,527.915415182244,nan,528.2420702892123,nan,nan,nan,nan
1,139,1,1,1.0,1.0,0.406528968247585,0.0,4,8,6,0,5,3,nan,nan,nan,nan,nan,nan,nan,nan,nan,nan,nan,nan,0.0,nan,nan,nan,nan,nan,nan,nan,nan,nan,nan,nan,nan,nan,nan,nan,nan,nan,nan,316.30984174786136,528.9155468974495,nan,529.3220758656971,nan,nan,nan,nan
1,140,1,1,1.0,1.0,0.32637542590964586,0.0,8,5,4,1,7,2,nan,nan,nan,nan,nan,nan,nan,nan,nan,nan,nan,nan,0.0,nan,nan,nan,nan,nan,nan,nan,nan,nan,nan,nan,nan,nan,nan,nan,nan,nan,nan,316.30984174786136,529.9156834593741,nan,530.2420588852838,nan,nan,nan,nan
1,141,1,1,1.0,1.0,0.3178877787431702,0.0,4,8,1,2,5,7,nan,nan,nan,nan,nan,nan,nan,nan,nan,nan,nan,nan,0.0,nan,nan,nan,nan,nan,nan,nan,nan,nan,nan,nan,nan,nan,nan,nan,nan,nan,nan,316.30984174786136,530.924143737182,nan,531.2420315159252,nan,nan,nan,nan
1,142,0,0,1.0,0.0,0.2614178827498108,0.0,8,4,3,6,0,1,nan,nan,nan,nan,nan,nan,nan,nan,nan,nan,nan,nan,0.0,nan,nan,nan,nan,nan,nan,nan,nan,nan,nan,nan,nan,nan,nan,nan,nan,nan,nan,316.30984174786136,531.9326040151063,nan,532.1940218978561,nan,nan,nan,nan
1,143,1,1,1.0,1.0,0.6452482176246122,0.0,2,6,0,4,8,5,nan,nan,nan,nan,nan,nan,nan,nan,nan,nan,nan,nan,0.0,nan,nan,nan,nan,nan,nan,nan,nan,nan,nan,nan,nan,nan,nan,nan,nan,nan,nan,316.30984174786136,532.9327437130269,nan,533.5779919306515,nan,nan,nan,nan
1,144,1,1,1.0,1.0,0.4927767616463825,0.0,1,4,3,7,5,8,nan,nan,nan,nan,nan,nan,nan,nan,nan,nan,nan,nan,0.0,nan,nan,nan,nan,nan,nan,nan,nan,nan,nan,nan,nan,nan,nan,nan,nan,nan,nan,316.30984174786136,533.9411985740298,nan,534.4339753356762,nan,nan,nan,nan
1,145,1,1,1.0,1.0,0.4043177494313568,0.0,3,7,4,2,8,5,nan,nan,nan,nan,nan,nan,nan,nan,nan,nan,nan,nan,0.0,nan,nan,nan,nan,nan,nan,nan,nan,nan,nan,nan,nan,nan,nan,nan,nan,nan,nan,316.30984174786136,534.9496642688755,nan,535.3539820183069,nan,nan,nan,nan
1,146,1,1,1.0,1.0,0.3561427746899426,0.0,7,0,5,6,3,1,nan,nan,nan,nan,nan,nan,nan,nan,nan,nan,nan,nan,0.0,nan,nan,nan,nan,nan,nan,nan,nan,nan,nan,nan,nan,nan,nan,nan,nan,nan,nan,316.30984174786136,535.949809383601,nan,536.3059521582909,nan,nan,nan,nan
1,147,1,1,1.0,1.0,0.3076710131717846,0.0,4,6,7,5,1,2,nan,nan,nan,nan,nan,nan,nan,nan,nan,nan,nan,nan,0.0,nan,nan,nan,nan,nan,nan,nan,nan,nan,nan,nan,nan,nan,nan,nan,nan,nan,nan,316.30984174786136,536.958264529705,nan,537.2659355428768,nan,nan,nan,nan
1,148,1,1,1.0,1.0,0.35518883739132434,0.0,6,5,8,0,2,4,nan,nan,nan,nan,nan,nan,nan,nan,nan,nan,nan,nan,0.0,nan,nan,nan,nan,nan,nan,nan,nan,nan,nan,nan,nan,nan,nan,nan,nan,nan,nan,316.30984174786136,537.96671825042,nan,538.3219070878113,nan,nan,nan,nan
1,149,1,1,1.0,1.0,0.4267010645708069,0.0,1,2,4,3,7,5,nan,nan,nan,nan,nan,nan,nan,nan,nan,nan,nan,nan,0.0,nan,nan,nan,nan,nan,nan,nan,nan,nan,nan,nan,nan,nan,nan,nan,nan,nan,nan,316.30984174786136,538.9751873663627,nan,539.4018884309335,nan,nan,nan,nan
1,150,1,1,1.0,1.0,0.37022318597882986,0.0,0,3,6,8,2,7,nan,nan,nan,nan,nan,nan,nan,nan,nan,nan,nan,nan,0.0,nan,nan,nan,nan,nan,nan,nan,nan,nan,nan,nan,nan,nan,nan,nan,nan,nan,nan,316.30984174786136,539.9836516355863,nan,540.3538748215651,nan,nan,nan,nan
1,151,1,1,1.0,1.0,0.3857390647754073,0.0,7,0,2,3,5,8,nan,nan,nan,nan,nan,nan,nan,nan,nan,nan,nan,nan,0.0,nan,nan,nan,nan,nan,nan,nan,nan,nan,nan,nan,nan,nan,nan,nan,nan,nan,nan,316.30984174786136,540.9921147644054,nan,541.3778538291808,nan,nan,nan,nan
1,152,1,1,1.0,1.0,0.4252333811018616,0.0,3,2,8,7,4,5,nan,nan,nan,nan,nan,nan,nan,nan,nan,nan,nan,nan,0.0,nan,nan,nan,nan,nan,nan,nan,nan,nan,nan,nan,nan,nan,nan,nan,nan,nan,nan,316.30984174786136,542.0006009861827,nan,542.4258343672846,nan,nan,nan,nan
1,153,1,1,1.0,1.0,0.3767778699984774,0.0,4,0,5,8,1,3,nan,nan,nan,nan,nan,nan,nan,nan,nan,nan,nan,nan,0.0,nan,nan,nan,nan,nan,nan,nan,nan,nan,nan,nan,nan,nan,nan,nan,nan,nan,nan,316.30984174786136,543.0090518558864,nan,543.3858297258848,nan,nan,nan,nan
1,154,1,1,1.0,1.0,0.3843018866609782,0.0,7,2,1,0,5,6,nan,nan,nan,nan,nan,nan,nan,nan,nan,nan,nan,nan,0.0,nan,nan,nan,nan,nan,nan,nan,nan,nan,nan,nan,nan,nan,nan,nan,nan,nan,nan,316.30984174786136,544.0175172655145,nan,544.4018191521754,nan,nan,nan,nan
1,155,1,1,1.0,1.0,0.35980200523044914,0.0,8,0,6,4,2,5,nan,nan,nan,nan,nan,nan,nan,nan,nan,nan,nan,nan,0.0,nan,nan,nan,nan,nan,nan,nan,nan,nan,nan,nan,nan,nan,nan,nan,nan,nan,nan,316.30984174786136,545.025990657974,nan,545.3857926632045,nan,nan,nan,nan
1,156,1,1,1.0,1.0,0.41531254712026566,0.0,2,3,5,6,0,7,nan,nan,nan,nan,nan,nan,nan,nan,nan,nan,nan,nan,0.0,nan,nan,nan,nan,nan,nan,nan,nan,nan,nan,nan,nan,nan,nan,nan,nan,nan,nan,316.30984174786136,546.0344506506808,nan,546.4497631978011,nan,nan,nan,nan
1,157,1,1,1.0,1.0,0.35083881486207247,0.0,7,4,1,5,8,3,nan,nan,nan,nan,nan,nan,nan,nan,nan,nan,nan,nan,0.0,nan,nan,nan,nan,nan,nan,nan,nan,nan,nan,nan,nan,nan,nan,nan,nan,nan,nan,316.30984174786136,547.0429174858145,nan,547.3937563006766,nan,nan,nan,nan
1,158,1,1,1.0,1.0,0.5983390770852566,0.0,2,0,8,7,5,4,nan,nan,nan,nan,nan,nan,nan,nan,nan,nan,nan,nan,0.0,nan,nan,nan,nan,nan,nan,nan,nan,nan,nan,nan,nan,nan,nan,nan,nan,nan,nan,316.30984174786136,548.0514002864948,nan,548.64973936358,nan,nan,nan,nan
1,159,1,1,1.0,1.0,0.429867361090146,0.0,7,2,1,4,8,0,nan,nan,nan,nan,nan,nan,nan,nan,nan,nan,nan,nan,0.0,nan,nan,nan,nan,nan,nan,nan,nan,nan,nan,nan,nan,nan,nan,nan,nan,nan,nan,316.30984174786136,549.0598537219921,nan,549.4897210830823,nan,nan,nan,nan
1,160,1,1,1.0,1.0,0.5494108739076182,0.0,6,0,2,5,4,7,nan,nan,nan,nan,nan,nan,nan,nan,nan,nan,nan,nan,0.0,nan,nan,nan,nan,nan,nan,nan,nan,nan,nan,nan,nan,nan,nan,nan,nan,nan,nan,316.30984174786136,550.0682937579695,nan,550.6177046318771,nan,nan,nan,nan
1,161,1,1,1.0,1.0,0.42090046440716833,0.0,0,8,4,6,5,3,nan,nan,nan,nan,nan,nan,nan,nan,nan,nan,nan,nan,0.0,nan,nan,nan,nan,nan,nan,nan,nan,nan,nan,nan,nan,nan,nan,nan,nan,nan,nan,316.30984174786136,551.0767896730686,nan,551.4976901374757,nan,nan,nan,nan
1,162,0,0,0.0,1.0,0.4444164731539786,0.0,3,7,6,4,8,5,nan,nan,nan,nan,nan,nan,nan,nan,nan,nan,nan,nan,0.0,nan,nan,nan,nan,nan,nan,nan,nan,nan,nan,nan,nan,nan,nan,nan,nan,nan,nan,316.30984174786136,552.0852508062962,nan,552.5296672794502,nan,nan,nan,nan
1,163,1,1,1.0,1.0,0.4759354629786685,0.0,2,8,7,1,4,3,nan,nan,nan,nan,nan,nan,nan,nan,nan,nan,nan,nan,0.0,nan,nan,nan,nan,nan,nan,nan,nan,nan,nan,nan,nan,nan,nan,nan,nan,nan,nan,316.30984174786136,553.0937219178304,nan,553.5696573808091,nan,nan,nan,nan
1,164,1,1,1.0,1.0,0.323460585786961,0.0,8,4,2,3,7,0,nan,nan,nan,nan,nan,nan,nan,nan,nan,nan,nan,nan,0.0,nan,nan,nan,nan,nan,nan,nan,nan,nan,nan,nan,nan,nan,nan,nan,nan,nan,nan,316.30984174786136,554.1021844765637,nan,554.4256450623507,nan,nan,nan,nan
1,165,0,0,1.0,0.0,0.33101197180803865,1.0,5,7,8,0,4,3,1.0,1.0,1.0,1.0,1.0,1.0,0.0,0.0,0.0,1.0,1.0,1.0,3.0,7.0,1.0,5.0,0.0,4.0,3.0,6.0,5.0,4.0,3.0,2.0,1.0,7.10938234126661,6.206070702057332,5.478759641991928,3.6709460800047964,2.470410552341491,1.550354262581095,316.30984174786136,555.1106151043205,555.9190524603473,555.4416270761285,564.095125454478,565.1021288824268,556.9441960925469,564.0867897643475
1,166,1,1,1.0,1.0,0.2654448894318193,0.0,4,6,7,5,3,2,nan,nan,nan,nan,nan,nan,nan,nan,nan,nan,nan,nan,0.0,nan,nan,nan,nan,nan,nan,nan,nan,nan,nan,nan,nan,nan,nan,nan,nan,nan,nan,316.30984174786136,565.3120010788552,nan,565.5774459682871,nan,nan,nan,nan
1,167,1,1,1.0,1.0,0.3289663949981332,0.0,1,0,2,6,8,3,nan,nan,nan,nan,nan,nan,nan,nan,nan,nan,nan,nan,0.0,nan,nan,nan,nan,nan,nan,nan,nan,nan,nan,nan,nan,nan,nan,nan,nan,nan,nan,316.30984174786136,566.3204918621341,nan,566.6494582571322,nan,nan,nan,nan
1,168,0,0,0.0,1.0,0.6084617604501545,1.0,4,7,0,3,5,8,1.0,1.0,1.0,1.0,1.0,1.0,0.0,0.0,1.0,1.0,1.0,1.0,4.0,8.0,6.0,0.0,3.0,5.0,8.0,4.0,5.0,3.0,2.0,1.0,6.0,7.29258734267205,8.244225628790446,3.300444638589397,2.477270576171577,1.8463707617484033,8.995385121554136,316.30984174786136,567.3289116561646,568.1373224981362,567.9373734166147,578.1886392509332,579.1886842963286,569.1541298700031,578.1803061267128
1,169,1,1,1.0,1.0,0.5719931873027235,0.0,2,1,7,5,0,3,nan,nan,nan,nan,nan,nan,nan,nan,nan,nan,nan,nan,0.0,nan,nan,nan,nan,nan,nan,nan,nan,nan,nan,nan,nan,nan,nan,nan,nan,nan,nan,316.30984174786136,579.3971712023485,nan,579.9691643896513,nan,nan,nan,nan
1,170,1,1,1.0,1.0,0.3075350214494392,0.0,5,2,6,4,3,7,nan,nan,nan,nan,nan,nan,nan,nan,nan,nan,nan,nan,0.0,nan,nan,nan,nan,nan,nan,nan,nan,nan,nan,nan,nan,nan,nan,nan,nan,nan,nan,316.30984174786136,580.4056132340338,nan,580.7131482554832,nan,nan,nan,nan
1,171,1,1,1.0,1.0,0.32303436449728906,0.0,2,6,3,0,1,5,nan,nan,nan,nan,nan,nan,nan,nan,nan,nan,nan,nan,0.0,nan,nan,nan,nan,nan,nan,nan,nan,nan,nan,nan,nan,nan,nan,nan,nan,nan,nan,316.30984174786136,581.414091473096,nan,581.7371258375933,nan,nan,nan,nan
1,172,1,1,1.0,1.0,0.36256431811489165,0.0,3,0,6,7,4,2,nan,nan,nan,nan,nan,nan,nan,nan,nan,nan,nan,nan,0.0,nan,nan,nan,nan,nan,nan,nan,nan,nan,nan,nan,nan,nan,nan,nan,nan,nan,nan,316.30984174786136,582.4225563125219,nan,582.7851206306368,nan,nan,nan,nan
1,173,1,1,1.0,1.0,0.3460902255028486,0.0,4,1,5,2,6,0,nan,nan,nan,nan,nan,nan,nan,nan,nan,nan,nan,nan,0.0,nan,nan,nan,nan,nan,nan,nan,nan,nan,nan,nan,nan,nan,nan,nan,nan,nan,nan,316.30984174786136,583.4310134543339,nan,583.7771036798367,nan,nan,nan,nan
1,174,1,1,1.0,1.0,0.3056468185968697,0.0,1,7,6,8,3,4,nan,nan,nan,nan,nan,nan,nan,nan,nan,nan,nan,nan,0.0,nan,nan,nan,nan,nan,nan,nan,nan,nan,nan,nan,nan,nan,nan,nan,nan,nan,nan,316.30984174786136,584.4394717365503,nan,584.7451185551472,nan,nan,nan,nan
1,175,1,1,1.0,1.0,0.30512423417530954,0.0,7,6,2,5,8,1,nan,nan,nan,nan,nan,nan,nan,nan,nan,nan,nan,nan,0.0,nan,nan,nan,nan,nan,nan,nan,nan,nan,nan,nan,nan,nan,nan,nan,nan,nan,nan,316.30984174786136,585.4479439886054,nan,585.7530682227807,nan,nan,nan,nan
1,176,0,0,0.0,1.0,0.4569616327062249,0.0,4,8,5,1,7,0,nan,nan,nan,nan,nan,nan,nan,nan,nan,nan,nan,nan,0.0,nan,nan,nan,nan,nan,nan,nan,nan,nan,nan,nan,nan,nan,nan,nan,nan,nan,nan,316.30984174786136,586.4480913841398,nan,586.9050530168461,nan,nan,nan,nan
1,177,1,1,1.0,1.0,0.5684719440760091,0.0,7,2,4,8,5,6,nan,nan,nan,nan,nan,nan,nan,nan,nan,nan,nan,nan,0.0,nan,nan,nan,nan,nan,nan,nan,nan,nan,nan,nan,nan,nan,nan,nan,nan,nan,nan,316.30984174786136,587.4565465302439,nan,588.02501847432,nan,nan,nan,nan
1,178,1,1,1.0,1.0,0.4159950711764395,0.0,6,4,1,7,0,8,nan,nan,nan,nan,nan,nan,nan,nan,nan,nan,nan,nan,0.0,nan,nan,nan,nan,nan,nan,nan,nan,nan,nan,nan,nan,nan,nan,nan,nan,nan,nan,316.30984174786136,588.4650196376024,nan,588.8810147087788,nan,nan,nan,nan
1,179,0,0,0.0,1.0,0.38351188064552844,0.0,3,2,8,1,7,6,nan,nan,nan,nan,nan,nan,nan,nan,nan,nan,nan,nan,0.0,nan,nan,nan,nan,nan,nan,nan,nan,nan,nan,nan,nan,nan,nan,nan,nan,nan,nan,316.30984174786136,589.4734824813204,nan,589.8569943619659,nan,nan,nan,nan
1,180,1,1,1.0,1.0,0.39901065349113196,0.0,6,5,2,3,4,7,nan,nan,nan,nan,nan,nan,nan,nan,nan,nan,nan,nan,0.0,nan,nan,nan,nan,nan,nan,nan,nan,nan,nan,nan,nan,nan,nan,nan,nan,nan,nan,316.30984174786136,590.4819447549526,nan,590.8809554084437,nan,nan,nan,nan
1,181,1,1,1.0,1.0,0.47886940476018935,0.0,5,4,3,0,1,8,nan,nan,nan,nan,nan,nan,nan,nan,nan,nan,nan,nan,0.0,nan,nan,nan,nan,nan,nan,nan,nan,nan,nan,nan,nan,nan,nan,nan,nan,nan,nan,316.30984174786136,591.4820770402439,nan,591.9609464450041,nan,nan,nan,nan
1,182,1,1,1.0,1.0,0.3344060614472255,0.0,0,3,8,5,4,2,nan,nan,nan,nan,nan,nan,nan,nan,nan,nan,nan,nan,0.0,nan,nan,nan,nan,nan,nan,nan,nan,nan,nan,nan,nan,nan,nan,nan,nan,nan,nan,316.30984174786136,592.4905484369956,nan,592.8249544984428,nan,nan,nan,nan
1,183,0,0,0.0,1.0,0.5342342614894733,1.0,6,4,5,7,0,1,1.0,1.0,1.0,1.0,1.0,1.0,0.0,1.0,1.0,1.0,1.0,0.0,4.0,1.0,4.0,5.0,7.0,0.0,3.0,5.0,4.0,3.0,2.0,1.0,6.0,4.057943566585891,3.345379476668313,2.6891541376244277,1.8993393713608384,1.1402701245388016,5.673246249323711,316.30984174786136,593.4906787266955,594.2990855772514,594.024912988185,601.0249660164118,602.0267028323142,595.315896940534,601.0166363132885
1,184,1,1,1.0,1.0,0.5112898738589138,0.0,1,8,7,2,4,5,nan,nan,nan,nan,nan,nan,nan,nan,nan,nan,nan,nan,0.0,nan,nan,nan,nan,nan,nan,nan,nan,nan,nan,nan,nan,nan,nan,nan,nan,nan,nan,316.30984174786136,602.2334763003746,nan,602.7447661742335,nan,nan,nan,nan
1,185,1,1,1.0,1.0,0.2548127362970263,0.0,7,4,3,6,5,2,nan,nan,nan,nan,nan,nan,nan,nan,nan,nan,nan,nan,0.0,nan,nan,nan,nan,nan,nan,nan,nan,nan,nan,nan,nan,nan,nan,nan,nan,nan,nan,316.30984174786136,603.2419394293102,nan,603.4967521656072,nan,nan,nan,nan
1,186,1,1,1.0,1.0,0.28629580384586006,0.0,0,6,1,4,3,8,nan,nan,nan,nan,nan,nan,nan,nan,nan,nan,nan,nan,0.0,nan,nan,nan,nan,nan,nan,nan,nan,nan,nan,nan,nan,nan,nan,nan,nan,nan,nan,316.30984174786136,604.2504256510874,nan,604.5367214549333,nan,nan,nan,nan
1,187,1,1,1.0,1.0,0.2698373916791752,0.0,1,8,5,6,2,3,nan,nan,nan,nan,nan,nan,nan,nan,nan,nan,nan,nan,0.0,nan,nan,nan,nan,nan,nan,nan,nan,nan,nan,nan,nan,nan,nan,nan,nan,nan,nan,316.30984174786136,605.2588790865848,nan,605.528716478264,nan,nan,nan,nan
1,188,1,1,1.0,1.0,0.061352766351774335,0.0,7,3,4,8,0,1,nan,nan,nan,nan,nan,nan,nan,nan,nan,nan,nan,nan,0.0,nan,nan,nan,nan,nan,nan,nan,nan,nan,nan,nan,nan,nan,nan,nan,nan,nan,nan,316.30984174786136,606.2673453515163,nan,606.328698117868,nan,nan,nan,nan
1,189,1,1,1.0,1.0,0.10087074572220445,0.0,5,7,3,4,6,0,nan,nan,nan,nan,nan,nan,nan,nan,nan,nan,nan,nan,0.0,nan,nan,nan,nan,nan,nan,nan,nan,nan,nan,nan,nan,nan,nan,nan,nan,nan,nan,316.30984174786136,607.2758184588747,nan,607.3766892045969,nan,nan,nan,nan
1,190,1,1,1.0,1.0,0.324358643963933,0.0,8,2,6,1,3,7,nan,nan,nan,nan,nan,nan,nan,nan,nan,nan,nan,nan,0.0,nan,nan,nan,nan,nan,nan,nan,nan,nan,nan,nan,nan,nan,nan,nan,nan,nan,nan,316.30984174786136,608.2842801621882,nan,608.6086388061522,nan,nan,nan,nan
1,191,1,1,1.0,1.0,0.33189263893291354,0.0,2,6,1,8,4,5,nan,nan,nan,nan,nan,nan,nan,nan,nan,nan,nan,nan,0.0,nan,nan,nan,nan,nan,nan,nan,nan,nan,nan,nan,nan,nan,nan,nan,nan,nan,nan,316.30984174786136,609.2927447166294,nan,609.6246373555623,nan,nan,nan,nan
1,192,1,1,1.0,1.0,0.29943197104148567,0.0,0,3,5,1,7,6,nan,nan,nan,nan,nan,nan,nan,nan,nan,nan,nan,nan,0.0,nan,nan,nan,nan,nan,nan,nan,nan,nan,nan,nan,nan,nan,nan,nan,nan,nan,nan,316.30984174786136,610.3012001478346,nan,610.6006321188761,nan,nan,nan,nan
1,193,1,1,1.0,1.0,0.2909554425859824,0.0,3,5,2,8,4,7,nan,nan,nan,nan,nan,nan,nan,nan,nan,nan,nan,nan,0.0,nan,nan,nan,nan,nan,nan,nan,nan,nan,nan,nan,nan,nan,nan,nan,nan,nan,nan,316.30984174786136,611.3096755358856,nan,611.6006309784716,nan,nan,nan,nan
1,194,1,1,1.0,1.0,0.3624767931178212,0.0,7,8,6,4,0,1,nan,nan,nan,nan,nan,nan,nan,nan,nan,nan,nan,nan,0.0,nan,nan,nan,nan,nan,nan,nan,nan,nan,nan,nan,nan,nan,nan,nan,nan,nan,nan,316.30984174786136,612.3181087294361,nan,612.6805855225539,nan,nan,nan,nan
1,195,1,1,1.0,1.0,0.4179653823375702,0.0,0,4,5,3,1,6,nan,nan,nan,nan,nan,nan,nan,nan,nan,nan,nan,nan,0.0,nan,nan,nan,nan,nan,nan,nan,nan,nan,nan,nan,nan,nan,nan,nan,nan,nan,nan,316.30984174786136,613.326608921052,nan,613.7445743033895,nan,nan,nan,nan
1,196,1,1,1.0,1.0,0.3694933356018737,0.0,2,7,1,4,6,8,nan,nan,nan,nan,nan,nan,nan,nan,nan,nan,nan,nan,0.0,nan,nan,nan,nan,nan,nan,nan,nan,nan,nan,nan,nan,nan,nan,nan,nan,nan,nan,316.30984174786136,614.3350674883695,nan,614.7045608239714,nan,nan,nan,nan
1,197,1,1,1.0,1.0,0.313014886691235,0.0,8,4,5,7,0,6,nan,nan,nan,nan,nan,nan,nan,nan,nan,nan,nan,nan,0.0,nan,nan,nan,nan,nan,nan,nan,nan,nan,nan,nan,nan,nan,nan,nan,nan,nan,nan,316.30984174786136,615.3435363192111,nan,615.6565512059024,nan,nan,nan,nan
1,198,1,1,nan,nan,nan,0.0,3,5,8,6,7,2,nan,nan,nan,nan,nan,nan,nan,nan,nan,nan,nan,nan,0.0,nan,nan,nan,nan,nan,nan,nan,nan,nan,nan,nan,nan,nan,nan,nan,nan,nan,nan,316.30984174786136,616.3520031543449,nan,nan,nan,nan,nan,nan
1,199,1,1,1.0,1.0,0.4800380206434056,0.0,4,3,0,7,2,6,nan,nan,nan,nan,nan,nan,nan,nan,nan,nan,nan,nan,0.0,nan,nan,nan,nan,nan,nan,nan,nan,nan,nan,nan,nan,nan,nan,nan,nan,nan,nan,316.30984174786136,617.3604563047411,nan,617.8404943253845,nan,nan,nan,nan
1,200,1,1,1.0,1.0,0.31157485756557435,0.0,3,0,7,4,8,5,nan,nan,nan,nan,nan,nan,nan,nan,nan,nan,nan,nan,0.0,nan,nan,nan,nan,nan,nan,nan,nan,nan,nan,nan,nan,nan,nan,nan,nan,nan,nan,316.30984174786136,618.3689211442834,nan,618.680496001849,nan,nan,nan,nan
1,201,1,1,1.0,1.0,0.41506337153259665,0.0,4,7,6,8,5,3,nan,nan,nan,nan,nan,nan,nan,nan,nan,nan,nan,nan,0.0,nan,nan,nan,nan,nan,nan,nan,nan,nan,nan,nan,nan,nan,nan,nan,nan,nan,nan,316.30984174786136,619.3773990982445,nan,619.7924624697771,nan,nan,nan,nan
1,202,1,1,1.0,1.0,0.31857857073191553,0.0,8,5,3,1,6,4,nan,nan,nan,nan,nan,nan,nan,nan,nan,nan,nan,nan,0.0,nan,nan,nan,nan,nan,nan,nan,nan,nan,nan,nan,nan,nan,nan,nan,nan,nan,nan,316.30984174786136,620.3858693544753,nan,620.7044479252072,nan,nan,nan,nan
1,203,1,1,1.0,1.0,0.46241241798270494,0.0,0,1,5,4,7,6,nan,nan,nan,nan,nan,nan,nan,nan,nan,nan,nan,nan,0.0,nan,nan,nan,nan,nan,nan,nan,nan,nan,nan,nan,nan,nan,nan,nan,nan,nan,nan,316.30984174786136,621.3860044908943,nan,621.848416908877,nan,nan,nan,nan
1,204,1,1,1.0,1.0,0.47825815493706614,0.0,8,4,6,1,3,0,nan,nan,nan,nan,nan,nan,nan,nan,nan,nan,nan,nan,0.0,nan,nan,nan,nan,nan,nan,nan,nan,nan,nan,nan,nan,nan,nan,nan,nan,nan,nan,316.30984174786136,622.3861473249272,nan,622.8644054798642,nan,nan,nan,nan
1,205,0,0,0.0,1.0,0.469770792638883,1.0,5,2,7,3,0,4,1.0,1.0,1.0,1.0,1.0,1.0,0.0,1.0,1.0,0.0,1.0,1.0,4.0,1.0,2.0,7.0,0.0,0.0,4.0,4.0,3.0,2.0,1.0,6.0,5.0,5.6178697034483775,4.457390134688467,3.370052412385121,2.336732744704932,8.032496875268407,7.025469784159213,316.30984174786136,623.3946264192928,624.2030076109804,623.8643972119316,633.2875277114799,634.2869575158693,625.2198146978626,633.2791977233719
1,206,1,1,1.0,1.0,0.49614006059709936,0.0,0,6,8,4,7,5,nan,nan,nan,nan,nan,nan,nan,nan,nan,nan,nan,nan,0.0,nan,nan,nan,nan,nan,nan,nan,nan,nan,nan,nan,nan,nan,nan,nan,nan,nan,nan,316.30984174786136,634.4960505398922,nan,634.9921906004893,nan,nan,nan,nan
1,207,1,1,nan,nan,nan,0.0,2,0,4,1,5,6,nan,nan,nan,nan,nan,nan,nan,nan,nan,nan,nan,nan,0.0,nan,nan,nan,nan,nan,nan,nan,nan,nan,nan,nan,nan,nan,nan,nan,nan,nan,nan,316.30984174786136,635.5045036902884,nan,nan,nan,nan,nan,nan
1,208,1,1,1.0,1.0,0.6231961861485615,0.0,6,3,8,2,1,7,nan,nan,nan,nan,nan,nan,nan,nan,nan,nan,nan,nan,0.0,nan,nan,nan,nan,nan,nan,nan,nan,nan,nan,nan,nan,nan,nan,nan,nan,nan,nan,316.30984174786136,636.512980503845,nan,637.1361766899936,nan,nan,nan,nan
1,209,1,1,1.0,1.0,0.7906788977561519,0.0,8,5,7,6,4,1,nan,nan,nan,nan,nan,nan,nan,nan,nan,nan,nan,nan,0.0,nan,nan,nan,nan,nan,nan,nan,nan,nan,nan,nan,nan,nan,nan,nan,nan,nan,nan,316.30984174786136,637.5214493346866,nan,638.3121282324428,nan,nan,nan,nan
1,210,0,0,0.0,1.0,0.646197023219429,0.0,2,7,0,1,3,4,nan,nan,nan,nan,nan,nan,nan,nan,nan,nan,nan,nan,0.0,nan,nan,nan,nan,nan,nan,nan,nan,nan,nan,nan,nan,nan,nan,nan,nan,nan,nan,316.30984174786136,638.5299150294159,nan,639.1761120526353,nan,nan,nan,nan
1,211,1,1,1.0,1.0,0.39773541095200926,0.0,8,3,5,6,7,1,nan,nan,nan,nan,nan,nan,nan,nan,nan,nan,nan,nan,0.0,nan,nan,nan,nan,nan,nan,nan,nan,nan,nan,nan,nan,nan,nan,nan,nan,nan,nan,316.30984174786136,639.5383698905353,nan,639.9361053014873,nan,nan,nan,nan
1,212,1,1,1.0,1.0,0.36561315425205976,0.0,5,0,7,2,6,4,nan,nan,nan,nan,nan,nan,nan,nan,nan,nan,nan,nan,0.0,nan,nan,nan,nan,nan,nan,nan,nan,nan,nan,nan,nan,nan,nan,nan,nan,nan,nan,316.30984174786136,640.538513294654,nan,640.904126448906,nan,nan,nan,nan
1,213,1,1,1.0,1.0,0.4370985822752118,0.0,3,4,2,8,7,0,nan,nan,nan,nan,nan,nan,nan,nan,nan,nan,nan,nan,0.0,nan,nan,nan,nan,nan,nan,nan,nan,nan,nan,nan,nan,nan,nan,nan,nan,nan,nan,316.30984174786136,641.5469764235895,nan,641.9840750058647,nan,nan,nan,nan
1,214,1,1,1.0,1.0,0.3649406083859503,0.0,1,0,4,5,8,2,nan,nan,nan,nan,nan,nan,nan,nan,nan,nan,nan,nan,0.0,nan,nan,nan,nan,nan,nan,nan,nan,nan,nan,nan,nan,nan,nan,nan,nan,nan,nan,316.30984174786136,642.5471095643006,nan,642.9120501726866,nan,nan,nan,nan
1,215,1,1,1.0,1.0,0.34047893015667796,0.0,4,1,0,3,2,5,nan,nan,nan,nan,nan,nan,nan,nan,nan,nan,nan,nan,0.0,nan,nan,nan,nan,nan,nan,nan,nan,nan,nan,nan,nan,nan,nan,nan,nan,nan,nan,316.30984174786136,643.5555624295957,nan,643.8960413597524,nan,nan,nan,nan
1,216,1,1,1.0,1.0,0.4362871937919408,0.0,8,7,6,4,5,2,nan,nan,nan,nan,nan,nan,nan,nan,nan,nan,nan,nan,0.0,nan,nan,nan,nan,nan,nan,nan,nan,nan,nan,nan,nan,nan,nan,nan,nan,nan,nan,316.30984174786136,644.5557255055755,nan,644.9920126993675,nan,nan,nan,nan
1,217,1,1,1.0,1.0,0.4278226394671947,0.0,3,1,4,7,2,0,nan,nan,nan,nan,nan,nan,nan,nan,nan,nan,nan,nan,0.0,nan,nan,nan,nan,nan,nan,nan,nan,nan,nan,nan,nan,nan,nan,nan,nan,nan,nan,316.30984174786136,645.5641726689646,nan,645.9919953084318,nan,nan,nan,nan
1,218,1,1,1.0,1.0,0.547331370296888,0.0,4,8,6,0,3,7,nan,nan,nan,nan,nan,nan,nan,nan,nan,nan,nan,nan,0.0,nan,nan,nan,nan,nan,nan,nan,nan,nan,nan,nan,nan,nan,nan,nan,nan,nan,nan,316.30984174786136,646.5726383636938,nan,647.1199697339907,nan,nan,nan,nan
1,219,1,1,1.0,1.0,0.6028507500886917,0.0,3,5,8,7,1,2,nan,nan,nan,nan,nan,nan,nan,nan,nan,nan,nan,nan,0.0,nan,nan,nan,nan,nan,nan,nan,nan,nan,nan,nan,nan,nan,nan,nan,nan,nan,nan,316.30984174786136,647.581108620041,nan,648.1839593701297,nan,nan,nan,nan
1,220,1,1,1.0,1.0,0.38638994307257235,0.0,7,2,3,4,8,0,nan,nan,nan,nan,nan,nan,nan,nan,nan,nan,nan,nan,0.0,nan,nan,nan,nan,nan,nan,nan,nan,nan,nan,nan,nan,nan,nan,nan,nan,nan,nan,316.30984174786136,648.5895640512463,nan,648.9759539943188,nan,nan,nan,nan
1,221,1,1,1.0,1.0,0.36222476651892066,0.0,4,3,5,1,7,8,nan,nan,nan,nan,nan,nan,nan,nan,nan,nan,nan,nan,0.0,nan,nan,nan,nan,nan,nan,nan,nan,nan,nan,nan,nan,nan,nan,nan,nan,nan,nan,316.30984174786136,649.5897051746724,nan,649.9519299411913,nan,nan,nan,nan
1,222,1,1,1.0,1.0,0.2577577969059348,0.0,7,0,8,2,3,4,nan,nan,nan,nan,nan,nan,nan,nan,nan,nan,nan,nan,0.0,nan,nan,nan,nan,nan,nan,nan,nan,nan,nan,nan,nan,nan,nan,nan,nan,nan,nan,316.30984174786136,650.5981617462821,nan,650.8559195431881,nan,nan,nan,nan
1,223,1,1,1.0,1.0,0.30528731015510857,0.0,6,8,7,5,4,1,nan,nan,nan,nan,nan,nan,nan,nan,nan,nan,nan,nan,0.0,nan,nan,nan,nan,nan,nan,nan,nan,nan,nan,nan,nan,nan,nan,nan,nan,nan,nan,316.30984174786136,651.6066089096712,nan,651.9118962198263,nan,nan,nan,nan
1,224,1,1,1.0,1.0,0.2727972771972418,0.0,7,3,5,6,0,8,nan,nan,nan,nan,nan,nan,nan,nan,nan,nan,nan,nan,0.0,nan,nan,nan,nan,nan,nan,nan,nan,nan,nan,nan,nan,nan,nan,nan,nan,nan,nan,316.30984174786136,652.6150768852094,nan,652.8878741624067,nan,nan,nan,nan
1,225,1,1,1.0,1.0,0.3123007166432217,0.0,0,8,6,1,5,4,nan,nan,nan,nan,nan,nan,nan,nan,nan,nan,nan,nan,0.0,nan,nan,nan,nan,nan,nan,nan,nan,nan,nan,nan,nan,nan,nan,nan,nan,nan,nan,316.30984174786136,653.6235596857732,nan,653.9358604024164,nan,nan,nan,nan
1,226,1,1,1.0,1.0,0.3281470237998292,0.0,2,5,7,0,4,1,nan,nan,nan,nan,nan,nan,nan,nan,nan,nan,nan,nan,0.0,nan,nan,nan,nan,nan,nan,nan,nan,nan,nan,nan,nan,nan,nan,nan,nan,nan,nan,316.30984174786136,654.623706796323,nan,654.9518538201228,nan,nan,nan,nan
1,227,1,1,1.0,1.0,0.2956458720145747,0.0,7,6,5,1,3,0,nan,nan,nan,nan,nan,nan,nan,nan,nan,nan,nan,nan,0.0,nan,nan,nan,nan,nan,nan,nan,nan,nan,nan,nan,nan,nan,nan,nan,nan,nan,nan,316.30984174786136,655.6321713506477,nan,655.9278172226623,nan,nan,nan,nan
1,228,1,1,1.0,1.0,0.25553831027355045,0.0,5,0,2,7,4,1,nan,nan,nan,nan,nan,nan,nan,nan,nan,nan,nan,nan,0.0,nan,nan,nan,nan,nan,nan,nan,nan,nan,nan,nan,nan,nan,nan,nan,nan,nan,nan,316.30984174786136,656.6322734156856,nan,656.8878117259592,nan,nan,nan,nan
1,229,1,1,1.0,1.0,0.2950591406552121,0.0,7,4,1,2,8,3,nan,nan,nan,nan,nan,nan,nan,nan,nan,nan,nan,nan,0.0,nan,nan,nan,nan,nan,nan,nan,nan,nan,nan,nan,nan,nan,nan,nan,nan,nan,nan,316.30984174786136,657.6407422465272,nan,657.9358013871824,nan,nan,nan,nan
1,230,1,1,1.0,1.0,0.24690184195060283,0.0,6,3,2,1,4,8,nan,nan,nan,nan,nan,nan,nan,nan,nan,nan,nan,nan,0.0,nan,nan,nan,nan,nan,nan,nan,nan,nan,nan,nan,nan,nan,nan,nan,nan,nan,nan,316.30984174786136,658.6408902122639,nan,658.8877920542145,nan,nan,nan,nan
1,231,1,1,1.0,1.0,0.24641204392537475,0.0,8,0,3,5,2,4,nan,nan,nan,nan,nan,nan,nan,nan,nan,nan,nan,nan,0.0,nan,nan,nan,nan,nan,nan,nan,nan,nan,nan,nan,nan,nan,nan,nan,nan,nan,nan,316.30984174786136,659.6493433626601,nan,659.8957554065855,nan,nan,nan,nan
1,232,1,1,1.0,1.0,0.38992857735138386,0.0,4,8,6,1,0,5,nan,nan,nan,nan,nan,nan,nan,nan,nan,nan,nan,nan,0.0,nan,nan,nan,nan,nan,nan,nan,nan,nan,nan,nan,nan,nan,nan,nan,nan,nan,nan,316.30984174786136,660.6578113381984,nan,661.0477399155498,nan,nan,nan,nan
1,233,1,1,1.0,1.0,0.30943491333164275,0.0,1,5,4,6,3,2,nan,nan,nan,nan,nan,nan,nan,nan,nan,nan,nan,nan,0.0,nan,nan,nan,nan,nan,nan,nan,nan,nan,nan,nan,nan,nan,nan,nan,nan,nan,nan,316.30984174786136,661.666277888231,nan,661.9757128015626,nan,nan,nan,nan
1,234,1,1,1.0,1.0,0.30929008359089494,0.0,8,2,7,3,6,1,nan,nan,nan,nan,nan,nan,nan,nan,nan,nan,nan,nan,0.0,nan,nan,nan,nan,nan,nan,nan,nan,nan,nan,nan,nan,nan,nan,nan,nan,nan,nan,316.30984174786136,662.6664153054589,nan,662.9757053890498,nan,nan,nan,nan
1,235,1,1,1.0,1.0,0.27680432703346014,0.0,3,4,8,6,5,7,nan,nan,nan,nan,nan,nan,nan,nan,nan,nan,nan,nan,0.0,nan,nan,nan,nan,nan,nan,nan,nan,nan,nan,nan,nan,nan,nan,nan,nan,nan,nan,316.30984174786136,663.6748730174731,nan,663.9516773445066,nan,nan,nan,nan
1,236,1,1,1.0,1.0,0.32430247962474823,0.0,4,6,3,0,2,1,nan,nan,nan,nan,nan,nan,nan,nan,nan,nan,nan,nan,0.0,nan,nan,nan,nan,nan,nan,nan,nan,nan,nan,nan,nan,nan,nan,nan,nan,nan,nan,316.30984174786136,664.683358383947,nan,665.0076608635718,nan,nan,nan,nan
1,237,1,1,1.0,1.0,0.2998818554915488,0.0,2,1,7,8,3,4,nan,nan,nan,nan,nan,nan,nan,nan,nan,nan,nan,nan,0.0,nan,nan,nan,nan,nan,nan,nan,nan,nan,nan,nan,nan,nan,nan,nan,nan,nan,nan,316.30984174786136,665.6917870159959,nan,665.9916688714875,nan,nan,nan,nan
1,238,1,1,1.0,1.0,0.39535683975555,0.0,4,3,8,2,7,6,nan,nan,nan,nan,nan,nan,nan,nan,nan,nan,nan,nan,0.0,nan,nan,nan,nan,nan,nan,nan,nan,nan,nan,nan,nan,nan,nan,nan,nan,nan,nan,316.30984174786136,666.7002752334811,nan,667.0956320732366,nan,nan,nan,nan
1,239,1,1,1.0,1.0,0.32322110363747925,0.0,2,7,6,5,0,1,nan,nan,nan,nan,nan,nan,nan,nan,nan,nan,nan,nan,0.0,nan,nan,nan,nan,nan,nan,nan,nan,nan,nan,nan,nan,nan,nan,nan,nan,nan,nan,316.30984174786136,667.7003889874322,nan,668.0236100910697,nan,nan,nan,nan
1,240,1,1,1.0,1.0,0.38670725701376796,0.0,7,6,0,3,2,5,nan,nan,nan,nan,nan,nan,nan,nan,nan,nan,nan,nan,0.0,nan,nan,nan,nan,nan,nan,nan,nan,nan,nan,nan,nan,nan,nan,nan,nan,nan,nan,316.30984174786136,668.7088772049174,nan,669.0955844619311,nan,nan,nan,nan
1,241,1,1,1.0,1.0,0.4262374956160784,0.0,2,1,4,5,0,7,nan,nan,nan,nan,nan,nan,nan,nan,nan,nan,nan,nan,0.0,nan,nan,nan,nan,nan,nan,nan,nan,nan,nan,nan,nan,nan,nan,nan,nan,nan,nan,316.30984174786136,669.7173423295608,nan,670.1435798251769,nan,nan,nan,nan
1,242,1,1,1.0,1.0,0.3777426410233602,0.0,7,3,0,1,2,6,nan,nan,nan,nan,nan,nan,nan,nan,nan,nan,nan,nan,0.0,nan,nan,nan,nan,nan,nan,nan,nan,nan,nan,nan,nan,nan,nan,nan,nan,nan,nan,316.30984174786136,670.7258094497956,nan,671.103552090819,nan,nan,nan,nan
1,243,1,1,1.0,1.0,0.5452798064798117,0.0,3,7,4,6,5,2,nan,nan,nan,nan,nan,nan,nan,nan,nan,nan,nan,nan,0.0,nan,nan,nan,nan,nan,nan,nan,nan,nan,nan,nan,nan,nan,nan,nan,nan,nan,nan,316.30984174786136,671.7342586087761,nan,672.279538415256,nan,nan,nan,nan
1,244,1,1,1.0,1.0,0.40878637274727225,0.0,6,3,8,2,7,0,nan,nan,nan,nan,nan,nan,nan,nan,nan,nan,nan,nan,0.0,nan,nan,nan,nan,nan,nan,nan,nan,nan,nan,nan,nan,nan,nan,nan,nan,nan,nan,316.30984174786136,672.7427245887229,nan,673.1515109614702,nan,nan,nan,nan
1,245,0,0,0.0,1.0,0.6003110987367108,0.0,0,2,7,4,6,3,nan,nan,nan,nan,nan,nan,nan,nan,nan,nan,nan,nan,0.0,nan,nan,nan,nan,nan,nan,nan,nan,nan,nan,nan,nan,nan,nan,nan,nan,nan,nan,316.30984174786136,673.7511942747515,nan,674.3515053734882,nan,nan,nan,nan
1,246,1,1,1.0,1.0,0.44014713331125677,0.0,8,4,0,7,2,6,nan,nan,nan,nan,nan,nan,nan,nan,nan,nan,nan,nan,0.0,nan,nan,nan,nan,nan,nan,nan,nan,nan,nan,nan,nan,nan,nan,nan,nan,nan,nan,316.30984174786136,674.7513308366761,nan,675.1914779699873,nan,nan,nan,nan
1,247,1,1,1.0,1.0,0.5436675782548264,0.0,4,0,1,6,3,5,nan,nan,nan,nan,nan,nan,nan,nan,nan,nan,nan,nan,0.0,nan,nan,nan,nan,nan,nan,nan,nan,nan,nan,nan,nan,nan,nan,nan,nan,nan,nan,316.30984174786136,675.7597919697873,nan,676.3034595480422,nan,nan,nan,nan
1,248,1,1,1.0,1.0,0.4314998312620446,0.0,1,7,3,4,6,0,nan,nan,nan,nan,nan,nan,nan,nan,nan,nan,nan,nan,0.0,nan,nan,nan,nan,nan,nan,nan,nan,nan,nan,nan,nan,nan,nan,nan,nan,nan,nan,316.30984174786136,676.7599362293258,nan,677.1914360605879,nan,nan,nan,nan
1,249,1,1,1.0,1.0,0.3430359725607559,0.0,3,1,8,7,4,2,nan,nan,nan,nan,nan,nan,nan,nan,nan,nan,nan,nan,0.0,nan,nan,nan,nan,nan,nan,nan,nan,nan,nan,nan,nan,nan,nan,nan,nan,nan,nan,316.30984174786136,677.7683925158344,nan,678.1114284883952,nan,nan,nan,nan
1,250,1,1,1.0,1.0,0.3508858559653163,0.0,1,7,2,8,3,6,nan,nan,nan,nan,nan,nan,nan,nan,nan,nan,nan,nan,0.0,nan,nan,nan,nan,nan,nan,nan,nan,nan,nan,nan,nan,nan,nan,nan,nan,nan,nan,316.30984174786136,678.7685305031482,nan,679.1194163591135,nan,nan,nan,nan
1,251,1,1,1.0,1.0,0.374731152667664,0.0,3,8,5,1,4,0,nan,nan,nan,nan,nan,nan,nan,nan,nan,nan,nan,nan,0.0,nan,nan,nan,nan,nan,nan,nan,nan,nan,nan,nan,nan,nan,nan,nan,nan,nan,nan,316.30984174786136,679.7686602227623,nan,680.1433913754299,nan,nan,nan,nan
1,252,1,1,1.0,1.0,0.30226441798731685,0.0,8,4,1,0,5,6,nan,nan,nan,nan,nan,nan,nan,nan,nan,nan,nan,nan,0.0,nan,nan,nan,nan,nan,nan,nan,nan,nan,nan,nan,nan,nan,nan,nan,nan,nan,nan,316.30984174786136,680.7771139433607,nan,681.0793783613481,nan,nan,nan,nan
1,253,1,1,1.0,1.0,0.26177739107515663,0.0,4,5,8,3,2,1,nan,nan,nan,nan,nan,nan,nan,nan,nan,nan,nan,nan,0.0,nan,nan,nan,nan,nan,nan,nan,nan,nan,nan,nan,nan,nan,nan,nan,nan,nan,nan,316.30984174786136,681.7855793529889,nan,682.047356744064,nan,nan,nan,nan
1,254,1,1,1.0,1.0,0.5172900425968692,0.0,8,4,0,5,3,7,nan,nan,nan,nan,nan,nan,nan,nan,nan,nan,nan,nan,0.0,nan,nan,nan,nan,nan,nan,nan,nan,nan,nan,nan,nan,nan,nan,nan,nan,nan,nan,316.30984174786136,682.794044762617,nan,683.3113348052138,nan,nan,nan,nan
1,255,0,0,0.0,1.0,0.7248007736634463,1.0,2,8,1,3,4,6,1.0,1.0,1.0,1.0,1.0,1.0,1.0,0.0,1.0,1.0,1.0,1.0,5.0,2.0,3.0,1.0,3.0,4.0,6.0,1.0,5.0,4.0,3.0,2.0,6.0,1.9949871249264106,5.704598171636462,4.848548053763807,4.064504807814956,3.0024880486307666,11.120332093327306,316.30984174786136,683.8025215761736,684.6109287118306,684.527322349837,696.7791905958438,697.777910506702,685.6193944066763,696.770856331219
1,256,1,1,1.0,1.0,0.5793173504061997,0.0,5,0,3,2,7,4,nan,nan,nan,nan,nan,nan,nan,nan,nan,nan,nan,nan,0.0,nan,nan,nan,nan,nan,nan,nan,nan,nan,nan,nan,nan,nan,nan,nan,nan,nan,nan,316.30984174786136,697.987741648918,nan,698.5670589993242,nan,nan,nan,nan
1,257,0,0,0.0,1.0,0.6508221651893109,0.0,4,2,0,1,6,7,nan,nan,nan,nan,nan,nan,nan,nan,nan,nan,nan,nan,0.0,nan,nan,nan,nan,nan,nan,nan,nan,nan,nan,nan,nan,nan,nan,nan,nan,nan,nan,316.30984174786136,698.9962275855942,nan,699.6470497507835,nan,nan,nan,nan
1,258,1,1,1.0,1.0,0.4583740073721856,0.0,2,3,6,8,1,5,nan,nan,nan,nan,nan,nan,nan,nan,nan,nan,nan,nan,0.0,nan,nan,nan,nan,nan,nan,nan,nan,nan,nan,nan,nan,nan,nan,nan,nan,nan,nan,316.30984174786136,700.0046445286134,nan,700.4630185359856,nan,nan,nan,nan
1,259,1,1,1.0,1.0,0.36191543540917337,0.0,1,7,0,6,5,3,nan,nan,nan,nan,nan,nan,nan,nan,nan,nan,nan,nan,0.0,nan,nan,nan,nan,nan,nan,nan,nan,nan,nan,nan,nan,nan,nan,nan,nan,nan,nan,316.30984174786136,701.0131022406276,nan,701.3750176760368,nan,nan,nan,nan
1,260,1,1,1.0,1.0,0.36142763297539204,0.0,6,1,8,5,3,4,nan,nan,nan,nan,nan,nan,nan,nan,nan,nan,nan,nan,0.0,nan,nan,nan,nan,nan,nan,nan,nan,nan,nan,nan,nan,nan,nan,nan,nan,nan,nan,316.30984174786136,702.0215667950688,nan,702.3829944280442,nan,nan,nan,nan
1,261,1,1,1.0,1.0,0.28894464776385576,0.0,0,3,6,4,5,8,nan,nan,nan,nan,nan,nan,nan,nan,nan,nan,nan,nan,0.0,nan,nan,nan,nan,nan,nan,nan,nan,nan,nan,nan,nan,nan,nan,nan,nan,nan,nan,316.30984174786136,703.0300262175733,nan,703.3189708653372,nan,nan,nan,nan
1,262,0,0,0.0,1.0,0.7047797789564356,1.0,3,0,7,5,8,2,1.0,1.0,1.0,1.0,1.0,1.0,0.0,0.0,0.0,0.0,0.0,1.0,1.0,0.0,4.0,5.0,7.0,3.0,2.0,6.0,5.0,3.0,4.0,1.0,2.0,6.987913562916219,5.740283866180107,3.6773935672827065,4.627846416668035,1.821681575383991,2.846173474099487,316.30984174786136,704.0301753238309,704.838583599776,704.7349551027874,712.8812955301255,713.8924092134694,705.8553898313548,712.8729709588224
1,263,1,1,1.0,1.0,0.2926486385986209,0.0,2,6,4,3,0,7,nan,nan,nan,nan,nan,nan,nan,nan,nan,nan,nan,nan,0.0,nan,nan,nan,nan,nan,nan,nan,nan,nan,nan,nan,nan,nan,nan,nan,nan,nan,nan,316.30984174786136,714.0981526231626,nan,714.3908012617612,nan,nan,nan,nan
1,264,1,1,1.0,1.0,0.4681428842013702,0.0,0,7,5,8,6,4,nan,nan,nan,nan,nan,nan,nan,nan,nan,nan,nan,nan,0.0,nan,nan,nan,nan,nan,nan,nan,nan,nan,nan,nan,nan,nan,nan,nan,nan,nan,nan,316.30984174786136,715.1066211689031,nan,715.5747640531044,nan,nan,nan,nan
1,265,1,1,1.0,1.0,0.3076596091268584,0.0,1,3,2,0,4,7,nan,nan,nan,nan,nan,nan,nan,nan,nan,nan,nan,nan,0.0,nan,nan,nan,nan,nan,nan,nan,nan,nan,nan,nan,nan,nan,nan,nan,nan,nan,nan,316.30984174786136,716.1150974122575,nan,716.4227570213843,nan,nan,nan,nan
1,266,1,1,1.0,1.0,0.31518590659834445,0.0,4,1,7,5,0,8,nan,nan,nan,nan,nan,nan,nan,nan,nan,nan,nan,nan,0.0,nan,nan,nan,nan,nan,nan,nan,nan,nan,nan,nan,nan,nan,nan,nan,nan,nan,nan,316.30984174786136,717.1235414395342,nan,717.4387273461325,nan,nan,nan,nan
1,267,1,1,1.0,1.0,0.22671435016673058,0.0,3,7,0,6,1,5,nan,nan,nan,nan,nan,nan,nan,nan,nan,nan,nan,nan,0.0,nan,nan,nan,nan,nan,nan,nan,nan,nan,nan,nan,nan,nan,nan,nan,nan,nan,nan,316.30984174786136,718.132013121387,nan,718.3587274715537,nan,nan,nan,nan
1,268,1,1,1.0,1.0,0.11420591128990054,0.0,2,8,3,7,0,1,nan,nan,nan,nan,nan,nan,nan,nan,nan,nan,nan,nan,0.0,nan,nan,nan,nan,nan,nan,nan,nan,nan,nan,nan,nan,nan,nan,nan,nan,nan,nan,316.30984174786136,719.140490790247,nan,719.2546967015369,nan,nan,nan,nan
1,269,1,1,1.0,1.0,0.03373477002605796,0.0,4,5,7,3,8,6,nan,nan,nan,nan,nan,nan,nan,nan,nan,nan,nan,nan,0.0,nan,nan,nan,nan,nan,nan,nan,nan,nan,nan,nan,nan,nan,nan,nan,nan,nan,nan,316.30984174786136,720.148955914774,nan,720.1826906848,nan,nan,nan,nan
1,270,1,1,1.0,1.0,0.3452483316650614,0.0,5,1,4,2,3,8,nan,nan,nan,nan,nan,nan,nan,nan,nan,nan,nan,nan,0.0,nan,nan,nan,nan,nan,nan,nan,nan,nan,nan,nan,nan,nan,nan,nan,nan,nan,nan,316.30984174786136,721.1574130565859,nan,721.502661388251,nan,nan,nan,nan
1,271,1,1,1.0,1.0,0.3607719079591334,0.0,7,3,0,5,8,2,nan,nan,nan,nan,nan,nan,nan,nan,nan,nan,nan,nan,0.0,nan,nan,nan,nan,nan,nan,nan,nan,nan,nan,nan,nan,nan,nan,nan,nan,nan,nan,316.30984174786136,722.1658841682365,nan,722.5266560761956,nan,nan,nan,nan
1,272,1,1,1.0,1.0,0.2722858117194846,0.0,4,7,8,2,0,6,nan,nan,nan,nan,nan,nan,nan,nan,nan,nan,nan,nan,0.0,nan,nan,nan,nan,nan,nan,nan,nan,nan,nan,nan,nan,nan,nan,nan,nan,nan,nan,316.30984174786136,723.1743478672579,nan,723.4466336789774,nan,nan,nan,nan
1,273,1,1,1.0,1.0,0.40780078968964517,0.0,3,5,4,0,8,1,nan,nan,nan,nan,nan,nan,nan,nan,nan,nan,nan,nan,0.0,nan,nan,nan,nan,nan,nan,nan,nan,nan,nan,nan,nan,nan,nan,nan,nan,nan,nan,316.30984174786136,724.1828107109759,nan,724.5906115006655,nan,nan,nan,nan
1,274,1,1,1.0,1.0,0.28731901990249753,0.0,7,3,1,6,0,2,nan,nan,nan,nan,nan,nan,nan,nan,nan,nan,nan,nan,0.0,nan,nan,nan,nan,nan,nan,nan,nan,nan,nan,nan,nan,nan,nan,nan,nan,nan,nan,316.30984174786136,725.191278401413,nan,725.4785974213155,nan,nan,nan,nan
1,275,0,0,1.0,0.0,0.23082831175997853,0.0,6,0,2,8,3,1,nan,nan,nan,nan,nan,nan,nan,nan,nan,nan,nan,nan,0.0,nan,nan,nan,nan,nan,nan,nan,nan,nan,nan,nan,nan,nan,nan,nan,nan,nan,nan,316.30984174786136,726.1997406750452,nan,726.4305689868052,nan,nan,nan,nan
1,276,1,1,1.0,1.0,0.42233878292609006,0.0,3,6,8,4,1,0,nan,nan,nan,nan,nan,nan,nan,nan,nan,nan,nan,nan,0.0,nan,nan,nan,nan,nan,nan,nan,nan,nan,nan,nan,nan,nan,nan,nan,nan,nan,nan,316.30984174786136,727.2082029485609,nan,727.630541731487,nan,nan,nan,nan
1,277,1,1,1.0,1.0,0.3338697924045846,0.0,6,5,4,7,3,8,nan,nan,nan,nan,nan,nan,nan,nan,nan,nan,nan,nan,0.0,nan,nan,nan,nan,nan,nan,nan,nan,nan,nan,nan,nan,nan,nan,nan,nan,nan,nan,316.30984174786136,728.2166712092003,nan,728.5505410016049,nan,nan,nan,nan
1,278,1,1,1.0,1.0,0.2213929994031787,0.0,5,1,3,4,0,2,nan,nan,nan,nan,nan,nan,nan,nan,nan,nan,nan,nan,0.0,nan,nan,nan,nan,nan,nan,nan,nan,nan,nan,nan,nan,nan,nan,nan,nan,nan,nan,316.30984174786136,729.2251383294351,nan,729.4465313288383,nan,nan,nan,nan
1,279,1,1,1.0,1.0,0.41291801049374044,0.0,1,0,7,3,6,4,nan,nan,nan,nan,nan,nan,nan,nan,nan,nan,nan,nan,0.0,nan,nan,nan,nan,nan,nan,nan,nan,nan,nan,nan,nan,nan,nan,nan,nan,nan,nan,316.30984174786136,730.2335963265505,nan,730.6465143370442,nan,nan,nan,nan
1,280,1,1,1.0,1.0,0.3003688025055453,0.0,8,6,3,7,1,2,nan,nan,nan,nan,nan,nan,nan,nan,nan,nan,nan,nan,0.0,nan,nan,nan,nan,nan,nan,nan,nan,nan,nan,nan,nan,nan,nan,nan,nan,nan,nan,316.30984174786136,731.2421121986117,nan,731.5424810011173,nan,nan,nan,nan
1,281,1,1,1.0,1.0,0.3887377236969769,0.0,6,7,5,1,0,3,nan,nan,nan,nan,nan,nan,nan,nan,nan,nan,nan,nan,0.0,nan,nan,nan,nan,nan,nan,nan,nan,nan,nan,nan,nan,nan,nan,nan,nan,nan,nan,316.30984174786136,732.2422196804546,nan,732.6309574041516,nan,nan,nan,nan
1,282,0,0,0.0,1.0,0.5637492986861616,0.0,4,1,3,6,7,0,nan,nan,nan,nan,nan,nan,nan,nan,nan,nan,nan,nan,0.0,nan,nan,nan,nan,nan,nan,nan,nan,nan,nan,nan,nan,nan,nan,nan,nan,nan,nan,316.30984174786136,733.2506731159519,nan,733.8144224146381,nan,nan,nan,nan
1,283,1,1,1.0,1.0,0.3952912673121318,0.0,1,2,5,7,8,4,nan,nan,nan,nan,nan,nan,nan,nan,nan,nan,nan,nan,0.0,nan,nan,nan,nan,nan,nan,nan,nan,nan,nan,nan,nan,nan,nan,nan,nan,nan,nan,316.30984174786136,734.2591402361868,nan,734.6544315034989,nan,nan,nan,nan
1,284,1,1,1.0,1.0,0.49914043000899255,0.0,4,8,0,1,3,6,nan,nan,nan,nan,nan,nan,nan,nan,nan,nan,nan,nan,0.0,nan,nan,nan,nan,nan,nan,nan,nan,nan,nan,nan,nan,nan,nan,nan,nan,nan,nan,316.30984174786136,735.2592762279091,nan,735.7584166579181,nan,nan,nan,nan
1,285,1,1,1.0,1.0,0.37867148977238685,0.0,5,6,7,2,8,4,nan,nan,nan,nan,nan,nan,nan,nan,nan,nan,nan,nan,0.0,nan,nan,nan,nan,nan,nan,nan,nan,nan,nan,nan,nan,nan,nan,nan,nan,nan,nan,316.30984174786136,736.2677162637701,nan,736.6463877535425,nan,nan,nan,nan
1,286,1,1,1.0,1.0,0.3621828572358936,0.0,7,3,8,0,6,1,nan,nan,nan,nan,nan,nan,nan,nan,nan,nan,nan,nan,0.0,nan,nan,nan,nan,nan,nan,nan,nan,nan,nan,nan,nan,nan,nan,nan,nan,nan,nan,316.30984174786136,737.2762067620642,nan,737.6383896193001,nan,nan,nan,nan
1,287,1,1,1.0,1.0,0.3537043329561129,0.0,0,2,5,3,1,6,nan,nan,nan,nan,nan,nan,nan,nan,nan,nan,nan,nan,0.0,nan,nan,nan,nan,nan,nan,nan,nan,nan,nan,nan,nan,nan,nan,nan,nan,nan,nan,316.30984174786136,738.2846590572735,nan,738.6383633902296,nan,nan,nan,nan
1,288,1,1,1.0,1.0,0.4172275491291657,0.0,7,8,6,0,2,3,nan,nan,nan,nan,nan,nan,nan,nan,nan,nan,nan,nan,0.0,nan,nan,nan,nan,nan,nan,nan,nan,nan,nan,nan,nan,nan,nan,nan,nan,nan,nan,316.30984174786136,739.293125322205,nan,739.7103528713342,nan,nan,nan,nan
1,289,1,1,1.0,1.0,0.3767704574856907,0.0,0,7,8,3,6,4,nan,nan,nan,nan,nan,nan,nan,nan,nan,nan,nan,nan,0.0,nan,nan,nan,nan,nan,nan,nan,nan,nan,nan,nan,nan,nan,nan,nan,nan,nan,nan,316.30984174786136,740.3015582306543,nan,740.67832868814,nan,nan,nan,nan
1,290,1,1,1.0,1.0,0.296243722201325,0.0,8,3,5,7,2,0,nan,nan,nan,nan,nan,nan,nan,nan,nan,nan,nan,nan,0.0,nan,nan,nan,nan,nan,nan,nan,nan,nan,nan,nan,nan,nan,nan,nan,nan,nan,nan,316.30984174786136,741.3100666900864,nan,741.6063104122877,nan,nan,nan,nan
1,291,1,1,1.0,1.0,0.3677699192194268,0.0,4,7,0,2,6,1,nan,nan,nan,nan,nan,nan,nan,nan,nan,nan,nan,nan,0.0,nan,nan,nan,nan,nan,nan,nan,nan,nan,nan,nan,nan,nan,nan,nan,nan,nan,nan,316.30984174786136,742.3185263978085,nan,742.6862963170279,nan,nan,nan,nan
1,292,1,1,1.0,1.0,0.35128812899347395,0.0,0,6,4,3,5,2,nan,nan,nan,nan,nan,nan,nan,nan,nan,nan,nan,nan,0.0,nan,nan,nan,nan,nan,nan,nan,nan,nan,nan,nan,nan,nan,nan,nan,nan,nan,nan,316.30984174786136,743.3269935180433,nan,743.6782816470368,nan,nan,nan,nan
1,293,1,1,1.0,1.0,0.606796218897216,0.0,5,1,8,2,3,0,nan,nan,nan,nan,nan,nan,nan,nan,nan,nan,nan,nan,0.0,nan,nan,nan,nan,nan,nan,nan,nan,nan,nan,nan,nan,nan,nan,nan,nan,nan,nan,316.30984174786136,744.3354549363721,nan,744.9422511552693,nan,nan,nan,nan
1,294,0,0,0.0,1.0,0.7503247264539823,0.0,7,8,0,3,6,2,nan,nan,nan,nan,nan,nan,nan,nan,nan,nan,nan,nan,0.0,nan,nan,nan,nan,nan,nan,nan,nan,nan,nan,nan,nan,nan,nan,nan,nan,nan,nan,316.30984174786136,745.343917494989,nan,746.094242221443,nan,nan,nan,nan
1,295,1,1,1.0,1.0,0.4778193893143907,0.0,2,3,8,0,5,4,nan,nan,nan,nan,nan,nan,nan,nan,nan,nan,nan,nan,0.0,nan,nan,nan,nan,nan,nan,nan,nan,nan,nan,nan,nan,nan,nan,nan,nan,nan,nan,316.30984174786136,746.3523880364373,nan,746.8302074257517,nan,nan,nan,nan
1,296,1,1,1.0,1.0,0.4293373642722145,0.0,3,2,6,8,0,1,nan,nan,nan,nan,nan,nan,nan,nan,nan,nan,nan,nan,0.0,nan,nan,nan,nan,nan,nan,nan,nan,nan,nan,nan,nan,nan,nan,nan,nan,nan,nan,316.30984174786136,747.3608600032749,nan,747.7901973675471,nan,nan,nan,nan
1,297,1,1,1.0,1.0,0.46116597030777484,0.0,7,3,5,2,8,4,nan,nan,nan,nan,nan,nan,nan,nan,nan,nan,nan,nan,0.0,nan,nan,nan,nan,nan,nan,nan,nan,nan,nan,nan,nan,nan,nan,nan,nan,nan,nan,316.30984174786136,748.3609994160943,nan,748.822165386402,nan,nan,nan,nan
1,298,1,1,1.0,1.0,0.3887089288327843,0.0,6,7,1,5,2,0,nan,nan,nan,nan,nan,nan,nan,nan,nan,nan,nan,nan,0.0,nan,nan,nan,nan,nan,nan,nan,nan,nan,nan,nan,nan,nan,nan,nan,nan,nan,nan,316.30984174786136,749.3694565579062,nan,749.758165486739,nan,nan,nan,nan
1,299,0,0,0.0,1.0,0.7085442106472328,0.0,2,6,3,0,8,5,nan,nan,nan,nan,nan,nan,nan,nan,nan,nan,nan,nan,0.0,nan,nan,nan,nan,nan,nan,nan,nan,nan,nan,nan,nan,nan,nan,nan,nan,nan,nan,316.30984174786136,750.3695902688196,nan,751.0781344794668,nan,nan,nan,nan
1,300,1,1,1.0,1.0,0.45207106473390013,0.0,6,5,2,1,7,4,nan,nan,nan,nan,nan,nan,nan,nan,nan,nan,nan,nan,0.0,nan,nan,nan,nan,nan,nan,nan,nan,nan,nan,nan,nan,nan,nan,nan,nan,nan,nan,316.30984174786136,751.3780439894181,nan,751.830115054152,nan,nan,nan,nan
1,301,1,1,1.0,1.0,0.5795904741389677,0.0,8,7,3,4,6,5,nan,nan,nan,nan,nan,nan,nan,nan,nan,nan,nan,nan,0.0,nan,nan,nan,nan,nan,nan,nan,nan,nan,nan,nan,nan,nan,nan,nan,nan,nan,nan,316.30984174786136,752.3865133904619,nan,752.9661038646009,nan,nan,nan,nan
1,302,1,1,1.0,1.0,0.5314192054793239,0.0,7,0,2,6,1,8,nan,nan,nan,nan,nan,nan,nan,nan,nan,nan,nan,nan,0.0,nan,nan,nan,nan,nan,nan,nan,nan,nan,nan,nan,nan,nan,nan,nan,nan,nan,nan,316.30984174786136,753.386661356315,nan,753.9180805617943,nan,nan,nan,nan
1,303,1,1,1.0,1.0,0.3872857204405591,0.0,2,6,3,4,7,0,nan,nan,nan,nan,nan,nan,nan,nan,nan,nan,nan,nan,0.0,nan,nan,nan,nan,nan,nan,nan,nan,nan,nan,nan,nan,nan,nan,nan,nan,nan,nan,316.30984174786136,754.3867882248014,nan,754.774073945242,nan,nan,nan,nan
1,304,1,1,1.0,1.0,0.35481764003634453,0.0,1,7,2,5,4,6,nan,nan,nan,nan,nan,nan,nan,nan,nan,nan,nan,nan,0.0,nan,nan,nan,nan,nan,nan,nan,nan,nan,nan,nan,nan,nan,nan,nan,nan,nan,nan,316.30984174786136,755.3952405198943,nan,755.7500581599306,nan,nan,nan,nan
1,305,1,1,1.0,1.0,0.3463279970455915,0.0,8,1,4,0,7,5,nan,nan,nan,nan,nan,nan,nan,nan,nan,nan,nan,nan,0.0,nan,nan,nan,nan,nan,nan,nan,nan,nan,nan,nan,nan,nan,nan,nan,nan,nan,nan,316.30984174786136,756.4037036488298,nan,756.7500316458754,nan,nan,nan,nan
1,306,0,0,0.0,1.0,0.5541677310829982,0.0,4,5,8,1,0,2,nan,nan,nan,nan,nan,nan,nan,nan,nan,nan,nan,nan,0.0,nan,nan,nan,nan,nan,nan,nan,nan,nan,nan,nan,nan,nan,nan,nan,nan,nan,nan,316.30984174786136,757.4038407808403,nan,757.9580085119233,nan,nan,nan,nan
1,307,1,1,1.0,1.0,0.4576826450647786,0.0,2,0,4,7,3,6,nan,nan,nan,nan,nan,nan,nan,nan,nan,nan,nan,nan,0.0,nan,nan,nan,nan,nan,nan,nan,nan,nan,nan,nan,nan,nan,nan,nan,nan,nan,nan,316.30984174786136,758.4123079010751,nan,758.8699905461399,nan,nan,nan,nan
1,308,1,1,1.0,1.0,0.5135315979132429,0.0,3,1,7,5,8,4,nan,nan,nan,nan,nan,nan,nan,nan,nan,nan,nan,nan,0.0,nan,nan,nan,nan,nan,nan,nan,nan,nan,nan,nan,nan,nan,nan,nan,nan,nan,nan,316.30984174786136,759.4124433225952,nan,759.9259749205085,nan,nan,nan,nan
1,309,0,0,0.0,1.0,0.6650625162292272,0.0,7,3,0,4,1,8,nan,nan,nan,nan,nan,nan,nan,nan,nan,nan,nan,nan,0.0,nan,nan,nan,nan,nan,nan,nan,nan,nan,nan,nan,nan,nan,nan,nan,nan,nan,nan,316.30984174786136,760.4208907710854,nan,761.0859532873146,nan,nan,nan,nan
1,310,1,1,1.0,1.0,0.5048412460600957,0.0,0,4,5,3,2,7,nan,nan,nan,nan,nan,nan,nan,nan,nan,nan,nan,nan,0.0,nan,nan,nan,nan,nan,nan,nan,nan,nan,nan,nan,nan,nan,nan,nan,nan,nan,nan,316.30984174786136,761.4210812164238,nan,761.9259224624839,nan,nan,nan,nan
1,311,1,1,1.0,1.0,0.34443437738809735,0.0,6,1,2,4,8,3,nan,nan,nan,nan,nan,nan,nan,nan,nan,nan,nan,nan,0.0,nan,nan,nan,nan,nan,nan,nan,nan,nan,nan,nan,nan,nan,nan,nan,nan,nan,nan,316.30984174786136,762.4294921723194,nan,762.7739265497075,nan,nan,nan,nan
1,312,1,1,1.0,1.0,0.3199718437390402,0.0,5,6,3,8,1,0,nan,nan,nan,nan,nan,nan,nan,nan,nan,nan,nan,nan,0.0,nan,nan,nan,nan,nan,nan,nan,nan,nan,nan,nan,nan,nan,nan,nan,nan,nan,nan,316.30984174786136,763.43794731854,nan,763.757919162279,nan,nan,nan,nan
1,313,1,1,1.0,1.0,0.30346182885114104,0.0,1,0,6,5,3,2,nan,nan,nan,nan,nan,nan,nan,nan,nan,nan,nan,nan,0.0,nan,nan,nan,nan,nan,nan,nan,nan,nan,nan,nan,nan,nan,nan,nan,nan,nan,nan,316.30984174786136,764.4464369614143,nan,764.7498987902654,nan,nan,nan,nan
1,314,1,1,1.0,1.0,0.39103618229273707,0.0,6,2,8,7,0,5,nan,nan,nan,nan,nan,nan,nan,nan,nan,nan,nan,nan,0.0,nan,nan,nan,nan,nan,nan,nan,nan,nan,nan,nan,nan,nan,nan,nan,nan,nan,nan,316.30984174786136,765.454867589171,nan,765.8459037714638,nan,nan,nan,nan
1,315,0,0,0.0,1.0,0.6225167979719117,0.0,3,0,4,8,5,1,nan,nan,nan,nan,nan,nan,nan,nan,nan,nan,nan,nan,0.0,nan,nan,nan,nan,nan,nan,nan,nan,nan,nan,nan,nan,nan,nan,nan,nan,nan,nan,316.30984174786136,766.4633315732935,nan,767.0858483712655,nan,nan,nan,nan
1,316,1,1,1.0,1.0,0.4223538930527866,0.0,8,6,0,3,1,2,nan,nan,nan,nan,nan,nan,nan,nan,nan,nan,nan,nan,0.0,nan,nan,nan,nan,nan,nan,nan,nan,nan,nan,nan,nan,nan,nan,nan,nan,nan,nan,316.30984174786136,767.4635043425951,nan,767.8858582356479,nan,nan,nan,nan
1,317,1,1,1.0,1.0,0.3818705724552274,0.0,7,5,8,0,6,4,nan,nan,nan,nan,nan,nan,nan,nan,nan,nan,nan,nan,0.0,nan,nan,nan,nan,nan,nan,nan,nan,nan,nan,nan,nan,nan,nan,nan,nan,nan,nan,316.30984174786136,768.4719563527033,nan,768.8538269251585,nan,nan,nan,nan
1,318,1,1,1.0,1.0,0.3813941739499569,0.0,0,2,3,1,8,7,nan,nan,nan,nan,nan,nan,nan,nan,nan,nan,nan,nan,0.0,nan,nan,nan,nan,nan,nan,nan,nan,nan,nan,nan,nan,nan,nan,nan,nan,nan,nan,316.30984174786136,769.4804157753242,nan,769.8618099492742,nan,nan,nan,nan
1,319,1,1,1.0,1.0,0.2929026607889682,0.0,2,4,5,8,7,1,nan,nan,nan,nan,nan,nan,nan,nan,nan,nan,nan,nan,0.0,nan,nan,nan,nan,nan,nan,nan,nan,nan,nan,nan,nan,nan,nan,nan,nan,nan,nan,316.30984174786136,770.4888894527685,nan,770.7817921135575,nan,nan,nan,nan
1,320,0,0,0.0,1.0,0.66040743899066,1.0,6,2,8,7,5,3,1.0,1.0,1.0,1.0,1.0,1.0,0.0,1.0,1.0,0.0,1.0,0.0,3.0,3.0,2.0,8.0,4.0,5.0,0.0,5.0,2.0,1.0,4.0,3.0,6.0,6.383705461979844,2.5527200043434277,1.6237036602105945,4.68734319624491,3.6247037834255025,7.495115133933723,316.30984174786136,771.4973557177,772.3057306372793,772.1577631566906,780.856882033404,781.8604714149842,773.322567089228,780.8485500494717
1,321,1,1,1.0,1.0,0.4921837580623105,0.0,8,3,1,5,4,0,nan,nan,nan,nan,nan,nan,nan,nan,nan,nan,nan,nan,0.0,nan,nan,nan,nan,nan,nan,nan,nan,nan,nan,nan,nan,nan,nan,nan,nan,nan,nan,316.30984174786136,782.06540999352,nan,782.5575937515823,nan,nan,nan,nan
1,322,0,0,nan,nan,nan,0.0,1,5,8,3,0,2,nan,nan,nan,nan,nan,nan,nan,nan,nan,nan,nan,nan,0.0,nan,nan,nan,nan,nan,nan,nan,nan,nan,nan,nan,nan,nan,nan,nan,nan,nan,nan,316.30984174786136,783.0738765435526,nan,nan,nan,nan,nan,nan
1,323,1,1,1.0,1.0,0.4591680046869442,0.0,8,1,3,6,2,5,nan,nan,nan,nan,nan,nan,nan,nan,nan,nan,nan,nan,0.0,nan,nan,nan,nan,nan,nan,nan,nan,nan,nan,nan,nan,nan,nan,nan,nan,nan,nan,316.30984174786136,784.0823328300612,nan,784.5415008347481,nan,nan,nan,nan
1,324,1,1,1.0,1.0,0.4347074667457491,0.0,1,3,5,7,6,8,nan,nan,nan,nan,nan,nan,nan,nan,nan,nan,nan,nan,0.0,nan,nan,nan,nan,nan,nan,nan,nan,nan,nan,nan,nan,nan,nan,nan,nan,nan,nan,316.30984174786136,785.0908019460039,nan,785.5255094127497,nan,nan,nan,nan
1,325,1,1,1.0,1.0,0.41056053654756397,0.0,5,2,0,3,8,4,nan,nan,nan,nan,nan,nan,nan,nan,nan,nan,nan,nan,0.0,nan,nan,nan,nan,nan,nan,nan,nan,nan,nan,nan,nan,nan,nan,nan,nan,nan,nan,316.30984174786136,786.0909519074485,nan,786.501512443996,nan,nan,nan,nan
1,326,1,1,1.0,1.0,0.31408115255180746,0.0,6,0,7,5,4,8,nan,nan,nan,nan,nan,nan,nan,nan,nan,nan,nan,nan,0.0,nan,nan,nan,nan,nan,nan,nan,nan,nan,nan,nan,nan,nan,nan,nan,nan,nan,nan,316.30984174786136,787.0994084790582,nan,787.41348963161,nan,nan,nan,nan
1,327,1,1,1.0,1.0,0.16992771055083722,0.0,4,6,8,0,7,2,nan,nan,nan,nan,nan,nan,nan,nan,nan,nan,nan,nan,0.0,nan,nan,nan,nan,nan,nan,nan,nan,nan,nan,nan,nan,nan,nan,nan,nan,nan,nan,316.30984174786136,788.0995513130911,nan,788.2694790236419,nan,nan,nan,nan
1,328,1,1,1.0,1.0,0.2894572535296902,0.0,5,2,6,3,8,1,nan,nan,nan,nan,nan,nan,nan,nan,nan,nan,nan,nan,0.0,nan,nan,nan,nan,nan,nan,nan,nan,nan,nan,nan,nan,nan,nan,nan,nan,nan,nan,316.30984174786136,789.1080067442963,nan,789.397463997826,nan,nan,nan,nan
1,329,0,0,1.0,0.0,0.1769830264383927,0.0,6,8,1,0,2,7,nan,nan,nan,nan,nan,nan,nan,nan,nan,nan,nan,nan,0.0,nan,nan,nan,nan,nan,nan,nan,nan,nan,nan,nan,nan,nan,nan,nan,nan,nan,nan,316.30984174786136,790.1164624606026,nan,790.293445487041,nan,nan,nan,nan
1,330,1,1,1.0,1.0,0.4804525529034436,0.0,2,5,7,1,4,8,nan,nan,nan,nan,nan,nan,nan,nan,nan,nan,nan,nan,0.0,nan,nan,nan,nan,nan,nan,nan,nan,nan,nan,nan,nan,nan,nan,nan,nan,nan,nan,316.30984174786136,791.1249367082492,nan,791.6053892611526,nan,nan,nan,nan
1,331,1,1,1.0,1.0,0.6080036081839353,0.0,0,3,4,2,7,6,nan,nan,nan,nan,nan,nan,nan,nan,nan,nan,nan,nan,0.0,nan,nan,nan,nan,nan,nan,nan,nan,nan,nan,nan,nan,nan,nan,nan,nan,nan,nan,316.30984174786136,792.1333895736607,nan,792.7413931818446,nan,nan,nan,nan
1,332,1,1,1.0,1.0,0.35151506680995226,0.0,2,4,3,8,6,7,nan,nan,nan,nan,nan,nan,nan,nan,nan,nan,nan,nan,0.0,nan,nan,nan,nan,nan,nan,nan,nan,nan,nan,nan,nan,nan,nan,nan,nan,nan,nan,316.30984174786136,793.1418746550335,nan,793.4933897218434,nan,nan,nan,nan
1,333,1,1,1.0,1.0,0.2710413597524166,0.0,0,2,8,3,1,5,nan,nan,nan,nan,nan,nan,nan,nan,nan,nan,nan,nan,0.0,nan,nan,nan,nan,nan,nan,nan,nan,nan,nan,nan,nan,nan,nan,nan,nan,nan,nan,316.30984174786136,794.1503317968454,nan,794.4213731565978,nan,nan,nan,nan
1,334,1,1,1.0,1.0,0.33490042097400874,0.0,1,7,0,2,8,6,nan,nan,nan,nan,nan,nan,nan,nan,nan,nan,nan,nan,0.0,nan,nan,nan,nan,nan,nan,nan,nan,nan,nan,nan,nan,nan,nan,nan,nan,nan,nan,316.30984174786136,795.1504655077588,nan,795.4853659287328,nan,nan,nan,nan
1,335,1,1,1.0,1.0,0.4307645639637485,0.0,3,4,2,5,6,7,nan,nan,nan,nan,nan,nan,nan,nan,nan,nan,nan,nan,0.0,nan,nan,nan,nan,nan,nan,nan,nan,nan,nan,nan,nan,nan,nan,nan,nan,nan,nan,316.30984174786136,796.1589702608762,nan,796.58973482484,nan,nan,nan,nan
1,336,1,1,1.0,1.0,0.3182509932667017,0.0,7,3,0,8,2,1,nan,nan,nan,nan,nan,nan,nan,nan,nan,nan,nan,nan,0.0,nan,nan,nan,nan,nan,nan,nan,nan,nan,nan,nan,nan,nan,nan,nan,nan,nan,nan,316.30984174786136,797.1590603517834,nan,797.4773113450501,nan,nan,nan,nan
1,337,1,1,1.0,1.0,0.29380642087198794,0.0,6,0,3,2,7,4,nan,nan,nan,nan,nan,nan,nan,nan,nan,nan,nan,nan,0.0,nan,nan,nan,nan,nan,nan,nan,nan,nan,nan,nan,nan,nan,nan,nan,nan,nan,nan,316.30984174786136,798.1675679559121,nan,798.4613743767841,nan,nan,nan,nan
1,338,1,1,1.0,1.0,0.4213001715252176,0.0,5,6,2,0,4,8,nan,nan,nan,nan,nan,nan,nan,nan,nan,nan,nan,nan,0.0,nan,nan,nan,nan,nan,nan,nan,nan,nan,nan,nan,nan,nan,nan,nan,nan,nan,nan,316.30984174786136,799.1759860393358,nan,799.5972862108611,nan,nan,nan,nan
1,339,1,1,1.0,1.0,0.3171291332691908,0.0,8,3,4,7,5,0,nan,nan,nan,nan,nan,nan,nan,nan,nan,nan,nan,nan,0.0,nan,nan,nan,nan,nan,nan,nan,nan,nan,nan,nan,nan,nan,nan,nan,nan,nan,nan,316.30984174786136,800.1761297286721,nan,800.4932588619413,nan,nan,nan,nan
1,340,1,1,1.0,1.0,0.31667155132163316,0.0,2,8,3,5,4,1,nan,nan,nan,nan,nan,nan,nan,nan,nan,nan,nan,nan,0.0,nan,nan,nan,nan,nan,nan,nan,nan,nan,nan,nan,nan,nan,nan,nan,nan,nan,nan,316.30984174786136,801.1845760367578,nan,801.5012475880794,nan,nan,nan,nan
1,341,0,0,0.0,1.0,0.5644999613286927,1.0,4,7,2,6,0,5,1.0,1.0,1.0,1.0,1.0,1.0,1.0,1.0,1.0,1.0,1.0,0.0,5.0,4.0,7.0,2.0,6.0,0.0,3.0,5.0,6.0,1.0,2.0,3.0,4.0,6.391957618412562,6.86374946963042,2.1211702808504924,3.3438316804822534,4.225042251404375,5.216216193046421,316.30984174786136,802.1847214365844,802.9931302828481,802.7492213979131,810.910830524168,811.9211707371287,804.0099319529254,810.9024993956555
1,342,1,1,1.0,1.0,0.5574050168506801,0.0,2,8,4,5,6,1,nan,nan,nan,nan,nan,nan,nan,nan,nan,nan,nan,nan,0.0,nan,nan,nan,nan,nan,nan,nan,nan,nan,nan,nan,nan,nan,nan,nan,nan,nan,nan,316.30984174786136,812.1276559713297,nan,812.6850609881803,nan,nan,nan,nan
1,343,1,1,1.0,1.0,0.29287842754274607,0.0,6,1,0,8,2,5,nan,nan,nan,nan,nan,nan,nan,nan,nan,nan,nan,nan,0.0,nan,nan,nan,nan,nan,nan,nan,nan,nan,nan,nan,nan,nan,nan,nan,nan,nan,nan,316.30984174786136,813.1361504609231,nan,813.4290288884658,nan,nan,nan,nan
1,344,0,0,0.0,1.0,0.7483669596258551,0.0,3,2,5,6,8,7,nan,nan,nan,nan,nan,nan,nan,nan,nan,nan,nan,nan,0.0,nan,nan,nan,nan,nan,nan,nan,nan,nan,nan,nan,nan,nan,nan,nan,nan,nan,nan,316.30984174786136,814.1446138749598,nan,814.8929808345856,nan,nan,nan,nan
1,345,1,1,1.0,1.0,0.3399238446727395,0.0,8,6,1,2,4,0,nan,nan,nan,nan,nan,nan,nan,nan,nan,nan,nan,nan,0.0,nan,nan,nan,nan,nan,nan,nan,nan,nan,nan,nan,nan,nan,nan,nan,nan,nan,nan,316.30984174786136,815.1530904034153,nan,815.493014248088,nan,nan,nan,nan
1,346,1,1,1.0,1.0,0.34741878136992455,0.0,7,1,2,4,3,5,nan,nan,nan,nan,nan,nan,nan,nan,nan,nan,nan,nan,0.0,nan,nan,nan,nan,nan,nan,nan,nan,nan,nan,nan,nan,nan,nan,nan,nan,nan,nan,316.30984174786136,816.1615555279423,nan,816.5089743093122,nan,nan,nan,nan
1,347,0,0,1.0,0.0,0.274946344550699,0.0,6,0,4,3,7,2,nan,nan,nan,nan,nan,nan,nan,nan,nan,nan,nan,nan,0.0,nan,nan,nan,nan,nan,nan,nan,nan,nan,nan,nan,nan,nan,nan,nan,nan,nan,nan,316.30984174786136,817.1700163760688,nan,817.4449627206195,nan,nan,nan,nan
1,348,1,1,1.0,1.0,0.4664408501703292,0.0,1,5,8,7,3,4,nan,nan,nan,nan,nan,nan,nan,nan,nan,nan,nan,nan,0.0,nan,nan,nan,nan,nan,nan,nan,nan,nan,nan,nan,nan,nan,nan,nan,nan,nan,nan,316.30984174786136,818.1784635394579,nan,818.6449043896282,nan,nan,nan,nan
1,349,1,1,1.0,1.0,0.36196760833263397,0.0,8,1,0,4,2,5,nan,nan,nan,nan,nan,nan,nan,nan,nan,nan,nan,nan,0.0,nan,nan,nan,nan,nan,nan,nan,nan,nan,nan,nan,nan,nan,nan,nan,nan,nan,nan,316.30984174786136,819.1869463400217,nan,819.5489139483543,nan,nan,nan,nan
1,350,1,1,1.0,1.0,0.28148819925263524,0.0,1,0,5,3,6,8,nan,nan,nan,nan,nan,nan,nan,nan,nan,nan,nan,nan,0.0,nan,nan,nan,nan,nan,nan,nan,nan,nan,nan,nan,nan,nan,nan,nan,nan,nan,nan,316.30984174786136,820.1954476720421,nan,820.4769358712947,nan,nan,nan,nan
1,351,1,1,1.0,1.0,0.3050016420893371,0.0,5,3,1,4,8,6,nan,nan,nan,nan,nan,nan,nan,nan,nan,nan,nan,nan,0.0,nan,nan,nan,nan,nan,nan,nan,nan,nan,nan,nan,nan,nan,nan,nan,nan,nan,nan,316.30984174786136,821.2038768742932,nan,821.5088785163825,nan,nan,nan,nan
1,352,1,1,1.0,1.0,0.30450500175356865,0.0,3,7,0,2,6,4,nan,nan,nan,nan,nan,nan,nan,nan,nan,nan,nan,nan,0.0,nan,nan,nan,nan,nan,nan,nan,nan,nan,nan,nan,nan,nan,nan,nan,nan,nan,nan,316.30984174786136,822.2123650917783,nan,822.5168700935319,nan,nan,nan,nan
1,353,1,1,1.0,1.0,0.328026712522842,0.0,4,3,1,6,5,8,nan,nan,nan,nan,nan,nan,nan,nan,nan,nan,nan,nan,0.0,nan,nan,nan,nan,nan,nan,nan,nan,nan,nan,nan,nan,nan,nan,nan,nan,nan,nan,316.30984174786136,823.2208199527813,nan,823.5488466653042,nan,nan,nan,nan
1,354,1,1,1.0,1.0,0.2955754528520629,0.0,7,5,3,4,1,0,nan,nan,nan,nan,nan,nan,nan,nan,nan,nan,nan,nan,0.0,nan,nan,nan,nan,nan,nan,nan,nan,nan,nan,nan,nan,nan,nan,nan,nan,nan,nan,316.30984174786136,824.2292722478742,nan,824.5248477007262,nan,nan,nan,nan
1,355,1,1,1.0,1.0,0.29511616029776633,0.0,6,0,1,5,8,4,nan,nan,nan,nan,nan,nan,nan,nan,nan,nan,nan,nan,0.0,nan,nan,nan,nan,nan,nan,nan,nan,nan,nan,nan,nan,nan,nan,nan,nan,nan,nan,316.30984174786136,825.2377082924359,nan,825.5328244527336,nan,nan,nan,nan
1,356,1,1,1.0,1.0,0.19059844315052032,0.0,8,2,5,4,7,1,nan,nan,nan,nan,nan,nan,nan,nan,nan,nan,nan,nan,0.0,nan,nan,nan,nan,nan,nan,nan,nan,nan,nan,nan,nan,nan,nan,nan,nan,nan,nan,316.30984174786136,826.2461979354266,nan,826.4367963785771,nan,nan,nan,nan
1,357,1,1,1.0,1.0,0.4221144109033048,0.0,6,7,8,2,5,3,nan,nan,nan,nan,nan,nan,nan,nan,nan,nan,nan,nan,0.0,nan,nan,nan,nan,nan,nan,nan,nan,nan,nan,nan,nan,nan,nan,nan,nan,nan,nan,316.30984174786136,827.2546647705603,nan,827.6767791814636,nan,nan,nan,nan
1,358,1,1,1.0,1.0,0.38162709889002144,0.0,0,2,4,5,1,7,nan,nan,nan,nan,nan,nan,nan,nan,nan,nan,nan,nan,0.0,nan,nan,nan,nan,nan,nan,nan,nan,nan,nan,nan,nan,nan,nan,nan,nan,nan,nan,316.30984174786136,828.2631378779188,nan,828.6447649768088,nan,nan,nan,nan
1,359,1,1,1.0,1.0,0.22914794529788196,0.0,8,4,6,1,2,3,nan,nan,nan,nan,nan,nan,nan,nan,nan,nan,nan,nan,0.0,nan,nan,nan,nan,nan,nan,nan,nan,nan,nan,nan,nan,nan,nan,nan,nan,nan,nan,316.30984174786136,829.2716104149586,nan,829.5007583602564,nan,nan,nan,nan
1,360,1,1,1.0,1.0,0.3246505841379985,0.0,5,6,4,8,7,2,nan,nan,nan,nan,nan,nan,nan,nan,nan,nan,nan,nan,0.0,nan,nan,nan,nan,nan,nan,nan,nan,nan,nan,nan,nan,nan,nan,nan,nan,nan,nan,316.30984174786136,830.2800769649912,nan,830.6047275491292,nan,nan,nan,nan
1,361,1,1,1.0,1.0,0.23617190029472113,0.0,0,4,8,2,3,7,nan,nan,nan,nan,nan,nan,nan,nan,nan,nan,nan,nan,0.0,nan,nan,nan,nan,nan,nan,nan,nan,nan,nan,nan,nan,nan,nan,nan,nan,nan,nan,316.30984174786136,831.2885375280166,nan,831.5247094283113,nan,nan,nan,nan
1,362,1,1,1.0,1.0,0.2917089561233297,0.0,1,8,2,7,0,3,nan,nan,nan,nan,nan,nan,nan,nan,nan,nan,nan,nan,0.0,nan,nan,nan,nan,nan,nan,nan,nan,nan,nan,nan,nan,nan,nan,nan,nan,nan,nan,316.30984174786136,832.296987827518,nan,832.5886967836414,nan,nan,nan,nan
1,363,1,1,1.0,1.0,0.31520301243290305,0.0,7,2,8,0,5,1,nan,nan,nan,nan,nan,nan,nan,nan,nan,nan,nan,nan,0.0,nan,nan,nan,nan,nan,nan,nan,nan,nan,nan,nan,nan,nan,nan,nan,nan,nan,nan,316.30984174786136,833.3054566583596,nan,833.6206596707925,nan,nan,nan,nan
1,364,1,1,1.0,1.0,0.38706648035440594,0.0,5,8,7,6,0,2,nan,nan,nan,nan,nan,nan,nan,nan,nan,nan,nan,nan,0.0,nan,nan,nan,nan,nan,nan,nan,nan,nan,nan,nan,nan,nan,nan,nan,nan,nan,nan,316.30984174786136,834.3055883734487,nan,834.6926548538031,nan,nan,nan,nan
1,365,1,1,1.0,1.0,0.3625705902231857,0.0,3,7,0,5,2,4,nan,nan,nan,nan,nan,nan,nan,nan,nan,nan,nan,nan,0.0,nan,nan,nan,nan,nan,nan,nan,nan,nan,nan,nan,nan,nan,nan,nan,nan,nan,nan,316.30984174786136,835.3140563489869,nan,835.6766269392101,nan,nan,nan,nan
1,366,1,1,1.0,1.0,0.4104148515034467,0.0,0,1,6,7,3,2,nan,nan,nan,nan,nan,nan,nan,nan,nan,nan,nan,nan,0.0,nan,nan,nan,nan,nan,nan,nan,nan,nan,nan,nan,nan,nan,nan,nan,nan,nan,nan,316.30984174786136,836.31420431484,nan,836.7246191663435,nan,nan,nan,nan
1,367,1,1,1.0,1.0,0.42625602695625275,0.0,3,6,7,2,4,1,nan,nan,nan,nan,nan,nan,nan,nan,nan,nan,nan,nan,0.0,nan,nan,nan,nan,nan,nan,nan,nan,nan,nan,nan,nan,nan,nan,nan,nan,nan,nan,316.30984174786136,837.3143306131242,nan,837.7405866400804,nan,nan,nan,nan
1,368,1,1,1.0,1.0,0.40178836160339415,0.0,7,4,0,6,1,8,nan,nan,nan,nan,nan,nan,nan,nan,nan,nan,nan,nan,0.0,nan,nan,nan,nan,nan,nan,nan,nan,nan,nan,nan,nan,nan,nan,nan,nan,nan,nan,316.30984174786136,838.3228008694714,nan,838.7245892310748,nan,nan,nan,nan
1,369,1,1,1.0,1.0,0.41731393383815885,0.0,0,3,2,8,4,5,nan,nan,nan,nan,nan,nan,nan,nan,nan,nan,nan,nan,0.0,nan,nan,nan,nan,nan,nan,nan,nan,nan,nan,nan,nan,nan,nan,nan,nan,nan,nan,316.30984174786136,839.3312523092609,nan,839.748566243099,nan,nan,nan,nan
1,370,1,1,1.0,1.0,0.40115686994977295,0.0,4,0,6,5,7,1,nan,nan,nan,nan,nan,nan,nan,nan,nan,nan,nan,nan,0.0,nan,nan,nan,nan,nan,nan,nan,nan,nan,nan,nan,nan,nan,nan,nan,nan,nan,nan,316.30984174786136,840.3313925773837,nan,840.7325494473334,nan,nan,nan,nan
1,371,1,1,1.0,1.0,0.5449878661893308,0.0,1,5,7,4,6,8,nan,nan,nan,nan,nan,nan,nan,nan,nan,nan,nan,nan,0.0,nan,nan,nan,nan,nan,nan,nan,nan,nan,nan,nan,nan,nan,nan,nan,nan,nan,nan,316.30984174786136,841.3315288542071,nan,841.8765167203965,nan,nan,nan,nan
1,372,1,1,1.0,1.0,0.4965198108693585,0.0,2,8,5,6,3,7,nan,nan,nan,nan,nan,nan,nan,nan,nan,nan,nan,nan,0.0,nan,nan,nan,nan,nan,nan,nan,nan,nan,nan,nan,nan,nan,nan,nan,nan,nan,nan,316.30984174786136,842.3399817195022,nan,842.8365015303716,nan,nan,nan,nan
1,373,1,1,1.0,1.0,0.4960294426418841,0.0,3,1,0,8,7,4,nan,nan,nan,nan,nan,nan,nan,nan,nan,nan,nan,nan,0.0,nan,nan,nan,nan,nan,nan,nan,nan,nan,nan,nan,nan,nan,nan,nan,nan,nan,nan,316.30984174786136,843.3484514056472,nan,843.8444808482891,nan,nan,nan,nan
1,374,1,1,1.0,1.0,0.447548272786662,0.0,4,2,6,3,5,8,nan,nan,nan,nan,nan,nan,nan,nan,nan,nan,nan,nan,0.0,nan,nan,nan,nan,nan,nan,nan,nan,nan,nan,nan,nan,nan,nan,nan,nan,nan,nan,316.30984174786136,844.3569205215899,nan,844.8044687943766,nan,nan,nan,nan
1,375,1,1,1.0,1.0,0.6230861382791772,0.0,2,4,0,1,7,6,nan,nan,nan,nan,nan,nan,nan,nan,nan,nan,nan,nan,0.0,nan,nan,nan,nan,nan,nan,nan,nan,nan,nan,nan,nan,nan,nan,nan,nan,nan,nan,316.30984174786136,845.3653711061925,nan,845.9884572444716,nan,nan,nan,nan
1,376,1,1,1.0,1.0,0.33492379903327674,0.0,4,6,5,2,0,7,nan,nan,nan,nan,nan,nan,nan,nan,nan,nan,nan,nan,0.0,nan,nan,nan,nan,nan,nan,nan,nan,nan,nan,nan,nan,nan,nan,nan,nan,nan,nan,316.30984174786136,846.3655156507157,nan,846.700439449749,nan,nan,nan,nan
1,377,1,1,1.0,1.0,0.4387752425391227,0.0,8,1,3,4,7,5,nan,nan,nan,nan,nan,nan,nan,nan,nan,nan,nan,nan,0.0,nan,nan,nan,nan,nan,nan,nan,nan,nan,nan,nan,nan,nan,nan,nan,nan,nan,nan,316.30984174786136,847.365651642438,nan,847.8044268849771,nan,nan,nan,nan
1,378,1,1,1.0,1.0,0.6066080542514101,0.0,2,8,1,3,0,6,nan,nan,nan,nan,nan,nan,nan,nan,nan,nan,nan,nan,0.0,nan,nan,nan,nan,nan,nan,nan,nan,nan,nan,nan,nan,nan,nan,nan,nan,nan,nan,316.30984174786136,848.3657839278458,nan,848.9723919820972,nan,nan,nan,nan
1,379,1,1,1.0,1.0,0.4301698498893529,0.0,8,3,7,6,1,5,nan,nan,nan,nan,nan,nan,nan,nan,nan,nan,nan,nan,0.0,nan,nan,nan,nan,nan,nan,nan,nan,nan,nan,nan,nan,nan,nan,nan,nan,nan,nan,316.30984174786136,849.3742362229386,nan,849.804406072828,nan,nan,nan,nan
1,380,1,1,1.0,1.0,0.4059941245941445,0.0,6,4,5,7,0,3,nan,nan,nan,nan,nan,nan,nan,nan,nan,nan,nan,nan,0.0,nan,nan,nan,nan,nan,nan,nan,nan,nan,nan,nan,nan,nan,nan,nan,nan,nan,nan,316.30984174786136,850.3743827632861,nan,850.7803768878803,nan,nan,nan,nan
1,381,1,1,1.0,1.0,0.45352534856647253,0.0,4,2,8,3,5,7,nan,nan,nan,nan,nan,nan,nan,nan,nan,nan,nan,nan,0.0,nan,nan,nan,nan,nan,nan,nan,nan,nan,nan,nan,nan,nan,nan,nan,nan,nan,nan,316.30984174786136,851.3828361987835,nan,851.83636154735,nan,nan,nan,nan
1,382,1,1,1.0,1.0,0.3493608677526936,0.0,2,5,7,1,3,0,nan,nan,nan,nan,nan,nan,nan,nan,nan,nan,nan,nan,0.0,nan,nan,nan,nan,nan,nan,nan,nan,nan,nan,nan,nan,nan,nan,nan,nan,nan,nan,316.30984174786136,852.3829747562995,nan,852.7323356240522,nan,nan,nan,nan
