block,trial,freq_trials,correct_response,actual_response,acc,rts,probe_trials,fast_rt_trigger,slow_rt_trigger,rt_triggered,rts_runningavg,rts_runningstd,rts_runningfastthresh,rts_runningslowthresh,rts_runningstd,rts_trailingavg,trials_colorind0,trials_colorind1,trials_colorind2,trials_colorind3,trials_colorind4,trials_colorind5,wholereport_resp0,wholereport_resp1,wholereport_resp2,wholereport_resp3,wholereport_resp4,wholereport_resp5,wholereport_respacc0,wholereport_respacc1,wholereport_respacc2,wholereport_respacc3,wholereport_respacc4,wholereport_respacc5,wholereport_respacc_total,wholereport_respcolorind0,wholereport_respcolorind1,wholereport_respcolorind2,wholereport_respcolorind3,wholereport_respcolorind4,wholereport_respcolorind5,wholereport_resporder0,wholereport_resporder1,wholereport_resporder2,wholereport_resporder3,wholereport_resporder4,wholereport_resporder5,wholereport_rts0,wholereport_rts1,wholereport_rts2,wholereport_rts3,wholereport_rts4,wholereport_rts5,time_blockstart,time_encarray_offset,time_encarray_onset,time_response,time_iti_offset,time_iti_onset,time_memprobe_offset,time_memprobe_onset
1,1,1,1,1.0,1.0,0.3816304153224337,0,nan,nan,nan,nan,nan,nan,nan,nan,nan,1,4,0,5,6,8,nan,nan,nan,nan,nan,nan,nan,nan,nan,nan,nan,nan,0.0,nan,nan,nan,nan,nan,nan,nan,nan,nan,nan,nan,nan,nan,nan,nan,nan,nan,nan,22268.13285520255,22269.159191549195,nan,22269.540821964518,nan,nan,nan,nan
1,2,1,1,1.0,1.0,0.4048112812706677,0,nan,nan,nan,nan,nan,nan,nan,nan,nan,3,7,8,1,5,6,nan,nan,nan,nan,nan,nan,nan,nan,nan,nan,nan,nan,0.0,nan,nan,nan,nan,nan,nan,nan,nan,nan,nan,nan,nan,nan,nan,nan,nan,nan,nan,22268.13285520255,22270.17601241665,nan,22270.58082369792,nan,nan,nan,nan
1,3,1,1,1.0,1.0,0.33998736439389177,0,nan,nan,nan,nan,nan,nan,nan,nan,nan,1,5,7,3,2,0,nan,nan,nan,nan,nan,nan,nan,nan,nan,nan,nan,nan,0.0,nan,nan,nan,nan,nan,nan,nan,nan,nan,nan,nan,nan,nan,nan,nan,nan,nan,nan,22268.13285520255,22271.192819884433,nan,22271.532807248826,nan,nan,nan,nan
1,4,1,1,1.0,1.0,0.35519542426845874,0,nan,nan,nan,nan,nan,nan,nan,nan,nan,4,1,3,5,7,8,nan,nan,nan,nan,nan,nan,nan,nan,nan,nan,nan,nan,0.0,nan,nan,nan,nan,nan,nan,nan,nan,nan,nan,nan,nan,nan,nan,nan,nan,nan,nan,22268.13285520255,22272.20959228498,nan,22272.56478770925,nan,nan,nan,nan
1,5,0,0,1.0,0.0,0.3863456750950718,0,nan,nan,0.0,nan,nan,nan,nan,nan,nan,3,8,4,6,0,1,nan,nan,nan,nan,nan,nan,nan,nan,nan,nan,nan,nan,0.0,nan,nan,nan,nan,nan,nan,nan,nan,nan,nan,nan,nan,nan,nan,nan,nan,nan,nan,22268.13285520255,22273.22642227562,nan,22273.612767950715,nan,nan,nan,nan
1,6,1,1,1.0,1.0,0.377550642213464,0,nan,nan,nan,nan,nan,nan,nan,nan,nan,8,7,0,5,6,4,nan,nan,nan,nan,nan,nan,nan,nan,nan,nan,nan,nan,0.0,nan,nan,nan,nan,nan,nan,nan,nan,nan,nan,nan,nan,nan,nan,nan,nan,nan,nan,22268.13285520255,22274.24320893114,nan,22274.620759573354,nan,nan,nan,nan
1,7,1,1,1.0,1.0,0.44873911917966325,0,nan,nan,nan,nan,nan,nan,nan,nan,nan,3,1,8,4,5,2,nan,nan,nan,nan,nan,nan,nan,nan,nan,nan,nan,nan,0.0,nan,nan,nan,nan,nan,nan,nan,nan,nan,nan,nan,nan,nan,nan,nan,nan,nan,nan,22268.13285520255,22275.25999473136,nan,22275.70873385054,nan,nan,nan,nan
1,8,1,1,1.0,1.0,0.5039360829832731,0,nan,nan,nan,nan,nan,nan,nan,nan,nan,5,0,6,2,7,1,nan,nan,nan,nan,nan,nan,nan,nan,nan,nan,nan,nan,0.0,nan,nan,nan,nan,nan,nan,nan,nan,nan,nan,nan,nan,nan,nan,nan,nan,nan,nan,22268.13285520255,22276.276807330934,nan,22276.780743413918,nan,nan,nan,nan
1,9,1,1,1.0,1.0,0.4870767271022487,0,nan,nan,nan,nan,nan,nan,nan,nan,nan,7,6,0,4,8,2,nan,nan,nan,nan,nan,nan,nan,nan,nan,nan,nan,nan,0.0,nan,nan,nan,nan,nan,nan,nan,nan,nan,nan,nan,nan,nan,nan,nan,nan,nan,nan,22268.13285520255,22277.29364787025,nan,22277.780724597353,nan,nan,nan,nan
1,10,1,1,1.0,1.0,0.494258667309623,0,nan,nan,nan,nan,nan,nan,nan,nan,nan,4,5,8,2,3,6,nan,nan,nan,nan,nan,nan,nan,nan,nan,nan,nan,nan,0.0,nan,nan,nan,nan,nan,nan,nan,nan,nan,nan,nan,nan,nan,nan,nan,nan,nan,nan,22268.13285520255,22278.31045049134,nan,22278.80470915865,nan,nan,nan,nan
1,11,1,1,1.0,1.0,0.4934509805680136,0,nan,nan,nan,nan,nan,nan,nan,nan,nan,8,7,6,4,5,3,nan,nan,nan,nan,nan,nan,nan,nan,nan,nan,nan,nan,0.0,nan,nan,nan,nan,nan,nan,nan,nan,nan,nan,nan,nan,nan,nan,nan,nan,nan,nan,22268.13285520255,22279.327250831637,nan,22279.820701812205,nan,nan,nan,nan
1,12,1,1,1.0,1.0,0.5403635246038903,0,nan,nan,nan,nan,nan,nan,nan,nan,nan,2,4,8,0,6,5,nan,nan,nan,nan,nan,nan,nan,nan,nan,nan,nan,nan,0.0,nan,nan,nan,nan,nan,nan,nan,nan,nan,nan,nan,nan,nan,nan,nan,nan,nan,nan,22268.13285520255,22280.352342719187,nan,22280.89270624379,nan,nan,nan,nan
1,13,1,1,1.0,1.0,0.46712746340199374,0,nan,nan,nan,nan,nan,nan,nan,nan,nan,1,2,4,7,3,0,nan,nan,nan,nan,nan,nan,nan,nan,nan,nan,nan,nan,0.0,nan,nan,nan,nan,nan,nan,nan,nan,nan,nan,nan,nan,nan,nan,nan,nan,nan,nan,22268.13285520255,22281.37754779122,nan,22281.844675254622,nan,nan,nan,nan
1,14,1,1,1.0,1.0,0.47404283562354976,0,nan,nan,nan,nan,nan,nan,nan,nan,nan,4,3,0,2,5,6,nan,nan,nan,nan,nan,nan,nan,nan,nan,nan,nan,nan,0.0,nan,nan,nan,nan,nan,nan,nan,nan,nan,nan,nan,nan,nan,nan,nan,nan,nan,nan,22268.13285520255,22282.402621432408,nan,22282.87666426803,nan,nan,nan,nan
1,15,1,1,1.0,1.0,0.536841120920144,0,nan,nan,nan,nan,nan,nan,nan,nan,nan,6,5,7,1,4,3,nan,nan,nan,nan,nan,nan,nan,nan,nan,nan,nan,nan,0.0,nan,nan,nan,nan,nan,nan,nan,nan,nan,nan,nan,nan,nan,nan,nan,nan,nan,nan,22268.13285520255,22283.427799419995,nan,22283.964640540915,nan,nan,nan,nan
1,16,1,1,1.0,1.0,0.5277390359296987,1,nan,nan,nan,nan,nan,nan,nan,nan,nan,8,4,5,2,1,7,1.0,1.0,1.0,1.0,1.0,1.0,1.0,0.0,0.0,1.0,0.0,0.0,2.0,8.0,1.0,1.0,2.0,2.0,4.0,1.0,4.0,3.0,2.0,6.0,5.0,0.9076722542376956,3.995051528876502,2.9793354217836168,2.043278096265567,5.642922349175933,4.914993322970986,22268.13285520255,22284.452907558214,22285.26132871168,22284.980646594144,22291.962205506527,22292.971394546847,22286.278129907274,22291.95386720296
1,17,1,1,1.0,1.0,0.576797238412837,0,nan,nan,nan,nan,nan,nan,nan,nan,nan,5,2,6,8,3,4,nan,nan,nan,nan,nan,nan,nan,nan,nan,nan,nan,nan,0.0,nan,nan,nan,nan,nan,nan,nan,nan,nan,nan,nan,nan,nan,nan,nan,nan,nan,nan,22268.13285520255,22293.19574186868,nan,22293.772539107093,nan,nan,nan,nan
1,18,1,1,1.0,1.0,0.43998314492273494,0,nan,nan,nan,nan,nan,nan,nan,nan,nan,7,8,0,3,6,1,nan,nan,nan,nan,nan,nan,nan,nan,nan,nan,nan,nan,0.0,nan,nan,nan,nan,nan,nan,nan,nan,nan,nan,nan,nan,nan,nan,nan,nan,nan,nan,22268.13285520255,22294.212530804994,nan,22294.652513949917,nan,nan,nan,nan
1,19,1,1,1.0,1.0,0.4231497330874845,0,nan,nan,nan,nan,nan,nan,nan,nan,nan,2,5,1,4,0,3,nan,nan,nan,nan,nan,nan,nan,nan,nan,nan,nan,nan,0.0,nan,nan,nan,nan,nan,nan,nan,nan,nan,nan,nan,nan,nan,nan,nan,nan,nan,nan,22268.13285520255,22295.229349676756,nan,22295.652499409844,nan,nan,nan,nan
1,20,1,1,1.0,1.0,0.4863827950466657,0,nan,nan,nan,nan,nan,nan,nan,nan,nan,4,7,8,6,2,5,nan,nan,nan,nan,nan,nan,nan,nan,nan,nan,nan,nan,0.0,nan,nan,nan,nan,nan,nan,nan,nan,nan,nan,nan,nan,nan,nan,nan,nan,nan,nan,22268.13285520255,22296.24611894121,nan,22296.732501736256,nan,nan,nan,nan
1,21,1,1,1.0,1.0,0.453591226694698,0,nan,nan,nan,nan,nan,nan,nan,nan,nan,0,5,1,2,3,7,nan,nan,nan,nan,nan,nan,nan,nan,nan,nan,nan,nan,0.0,nan,nan,nan,nan,nan,nan,nan,nan,nan,nan,nan,nan,nan,nan,nan,nan,nan,nan,22268.13285520255,22297.262924698392,nan,22297.716515925087,nan,nan,nan,nan
1,22,1,1,1.0,1.0,0.3880622588767437,0,nan,nan,nan,nan,nan,nan,nan,nan,nan,3,1,2,4,6,0,nan,nan,nan,nan,nan,nan,nan,nan,nan,nan,nan,nan,0.0,nan,nan,nan,nan,nan,nan,nan,nan,nan,nan,nan,nan,nan,nan,nan,nan,nan,nan,22268.13285520255,22298.280400439282,nan,22298.66846269816,nan,nan,nan,nan
1,23,1,1,1.0,1.0,0.4115980736387428,0,nan,nan,nan,nan,nan,nan,nan,nan,nan,8,4,1,5,0,2,nan,nan,nan,nan,nan,nan,nan,nan,nan,nan,nan,nan,0.0,nan,nan,nan,nan,nan,nan,nan,nan,nan,nan,nan,nan,nan,nan,nan,nan,nan,nan,22268.13285520255,22299.30484857228,nan,22299.716446645918,nan,nan,nan,nan
1,24,1,1,1.0,1.0,0.47479521306740935,0,nan,nan,nan,nan,nan,nan,nan,nan,nan,7,3,5,0,1,8,nan,nan,nan,nan,nan,nan,nan,nan,nan,nan,nan,nan,0.0,nan,nan,nan,nan,nan,nan,nan,nan,nan,nan,nan,nan,nan,nan,nan,nan,nan,nan,22268.13285520255,22300.321662597347,nan,22300.796457810415,nan,nan,nan,nan
1,25,1,1,1.0,1.0,0.4179104605282191,1,nan,nan,nan,nan,nan,nan,nan,nan,nan,8,0,1,6,4,3,1.0,1.0,1.0,1.0,1.0,1.0,1.0,0.0,0.0,1.0,0.0,0.0,2.0,8.0,2.0,4.0,6.0,0.0,1.0,1.0,4.0,3.0,2.0,6.0,5.0,1.1034403520607157,3.469912314812973,2.8611902103657485,2.070906513607042,4.844816378848918,4.188601838090108,22268.13285520255,22301.338502566465,22302.146926856025,22301.756413026993,22308.056003795245,22309.054837738502,22303.172072912475,22308.04771139269
1,26,1,1,1.0,1.0,0.6274713845668884,0,nan,nan,nan,nan,nan,nan,nan,nan,nan,4,1,0,8,2,6,nan,nan,nan,nan,nan,nan,nan,nan,nan,nan,nan,nan,0.0,nan,nan,nan,nan,nan,nan,nan,nan,nan,nan,nan,nan,nan,nan,nan,nan,nan,nan,22268.13285520255,22309.27287723504,nan,22309.900348619605,nan,nan,nan,nan
1,27,1,1,1.0,1.0,0.4026576400392514,0,nan,nan,nan,nan,nan,nan,nan,nan,nan,5,7,2,6,0,8,nan,nan,nan,nan,nan,nan,nan,nan,nan,nan,nan,nan,0.0,nan,nan,nan,nan,nan,nan,nan,nan,nan,nan,nan,nan,nan,nan,nan,nan,nan,nan,22268.13285520255,22310.289676720033,nan,22310.692334360072,nan,nan,nan,nan
1,28,1,1,1.0,1.0,0.3295108149650332,0,nan,nan,nan,nan,nan,nan,nan,nan,nan,7,4,6,1,8,3,nan,nan,nan,nan,nan,nan,nan,nan,nan,nan,nan,nan,0.0,nan,nan,nan,nan,nan,nan,nan,nan,nan,nan,nan,nan,nan,nan,nan,nan,nan,nan,22268.13285520255,22311.3148116576,nan,22311.644322472566,nan,nan,nan,nan
1,29,1,1,1.0,1.0,0.3446860884032503,0,nan,nan,nan,nan,nan,nan,nan,nan,nan,6,3,0,5,2,7,nan,nan,nan,nan,nan,nan,nan,nan,nan,nan,nan,nan,0.0,nan,nan,nan,nan,nan,nan,nan,nan,nan,nan,nan,nan,nan,nan,nan,nan,nan,nan,22268.13285520255,22312.331617129686,nan,22312.67630321809,nan,nan,nan,nan
1,30,1,1,1.0,1.0,0.39186120902377297,0,nan,nan,nan,nan,nan,nan,nan,nan,nan,7,2,6,3,0,8,nan,nan,nan,nan,nan,nan,nan,nan,nan,nan,nan,nan,0.0,nan,nan,nan,nan,nan,nan,nan,nan,nan,nan,nan,nan,nan,nan,nan,nan,nan,nan,22268.13285520255,22313.348422316674,nan,22313.740283525698,nan,nan,nan,nan
1,31,1,1,1.0,1.0,0.4870895565763931,0,nan,nan,nan,nan,nan,nan,nan,nan,nan,0,7,2,1,8,3,nan,nan,nan,nan,nan,nan,nan,nan,nan,nan,nan,nan,0.0,nan,nan,nan,nan,nan,nan,nan,nan,nan,nan,nan,nan,nan,nan,nan,nan,nan,nan,22268.13285520255,22314.365188730135,nan,22314.85227828671,nan,nan,nan,nan
1,32,1,1,1.0,1.0,0.5422585806372808,0,nan,nan,nan,nan,nan,nan,nan,nan,nan,2,3,1,6,4,8,nan,nan,nan,nan,nan,nan,nan,nan,nan,nan,nan,nan,0.0,nan,nan,nan,nan,nan,nan,nan,nan,nan,nan,nan,nan,nan,nan,nan,nan,nan,nan,22268.13285520255,22315.38200731679,nan,22315.92426589743,nan,nan,nan,nan
1,33,1,1,1.0,1.0,0.4934278875152813,0,nan,nan,nan,nan,nan,nan,nan,nan,nan,3,5,6,2,0,1,nan,nan,nan,nan,nan,nan,nan,nan,nan,nan,nan,nan,0.0,nan,nan,nan,nan,nan,nan,nan,nan,nan,nan,nan,nan,nan,nan,nan,nan,nan,nan,22268.13285520255,22316.398824763055,nan,22316.89225265057,nan,nan,nan,nan
1,34,1,1,1.0,1.0,0.48460519998843665,1,nan,nan,nan,nan,nan,nan,nan,nan,nan,4,1,0,6,3,7,1.0,1.0,1.0,1.0,1.0,1.0,1.0,1.0,1.0,1.0,0.0,0.0,4.0,4.0,1.0,0.0,6.0,7.0,2.0,1.0,3.0,4.0,2.0,5.0,6.0,1.3442082617257256,3.1361019150717766,4.480914017429313,2.3136647025239654,6.471590980367182,7.183568977532559,22268.13285520255,22317.415625388447,22318.224030291247,22317.900230588435,22326.46679218645,22327.462604645752,22319.24086199248,22326.458459014673
1,35,1,1,1.0,1.0,0.40047035706811585,0,nan,nan,nan,nan,nan,nan,nan,nan,nan,8,7,2,0,5,3,nan,nan,nan,nan,nan,nan,nan,nan,nan,nan,nan,nan,0.0,nan,nan,nan,nan,nan,nan,nan,nan,nan,nan,nan,nan,nan,nan,nan,nan,nan,nan,22268.13285520255,22327.68366733684,nan,22328.08413769391,nan,nan,nan,nan
1,36,1,1,1.0,1.0,0.37563477392177447,0,nan,nan,nan,nan,nan,nan,nan,nan,nan,3,2,6,4,8,0,nan,nan,nan,nan,nan,nan,nan,nan,nan,nan,nan,nan,0.0,nan,nan,nan,nan,nan,nan,nan,nan,nan,nan,nan,nan,nan,nan,nan,nan,nan,nan,22268.13285520255,22328.70046995793,nan,22329.076104731852,nan,nan,nan,nan
1,37,1,1,1.0,1.0,0.37484305275211227,0,nan,nan,nan,nan,nan,nan,nan,nan,nan,8,4,5,6,1,2,nan,nan,nan,nan,nan,nan,nan,nan,nan,nan,nan,nan,0.0,nan,nan,nan,nan,nan,nan,nan,nan,nan,nan,nan,nan,nan,nan,nan,nan,nan,nan,22268.13285520255,22329.717250911464,nan,22330.092093964216,nan,nan,nan,nan
1,38,1,1,1.0,1.0,0.43801481832997524,0,nan,nan,nan,nan,nan,nan,nan,nan,nan,2,6,1,4,8,7,nan,nan,nan,nan,nan,nan,nan,nan,nan,nan,nan,nan,0.0,nan,nan,nan,nan,nan,nan,nan,nan,nan,nan,nan,nan,nan,nan,nan,nan,nan,nan,22268.13285520255,22330.734072919317,nan,22331.172087737647,nan,nan,nan,nan
1,39,1,1,1.0,1.0,0.47718149545107735,0,nan,nan,nan,nan,nan,nan,nan,nan,nan,6,0,4,3,7,1,nan,nan,nan,nan,nan,nan,nan,nan,nan,nan,nan,nan,0.0,nan,nan,nan,nan,nan,nan,nan,nan,nan,nan,nan,nan,nan,nan,nan,nan,nan,nan,22268.13285520255,22331.750887514583,nan,22332.228069010034,nan,nan,nan,nan
1,40,0,0,0.0,1.0,0.5724109833972761,0,nan,nan,nan,nan,nan,nan,nan,nan,nan,0,7,3,8,4,5,nan,nan,nan,nan,nan,nan,nan,nan,nan,nan,nan,nan,0.0,nan,nan,nan,nan,nan,nan,nan,nan,nan,nan,nan,nan,nan,nan,nan,nan,nan,nan,22268.13285520255,22332.767657919438,nan,22333.340068902835,nan,nan,nan,nan
1,41,1,1,1.0,1.0,0.38756190934509505,0,nan,nan,nan,nan,nan,nan,nan,nan,nan,4,5,2,6,1,0,nan,nan,nan,nan,nan,nan,nan,nan,nan,nan,nan,nan,0.0,nan,nan,nan,nan,nan,nan,nan,nan,nan,nan,nan,nan,nan,nan,nan,nan,nan,nan,22268.13285520255,22333.784486769677,nan,22334.172048679022,nan,nan,nan,nan
1,42,1,1,1.0,1.0,0.5067300575756235,0,nan,nan,nan,nan,nan,nan,nan,nan,nan,5,1,7,2,0,8,nan,nan,nan,nan,nan,nan,nan,nan,nan,nan,nan,nan,0.0,nan,nan,nan,nan,nan,nan,nan,nan,nan,nan,nan,nan,nan,nan,nan,nan,nan,nan,22268.13285520255,22334.801295948055,nan,22335.30802600563,nan,nan,nan,nan
1,43,0,0,0.0,1.0,0.5779362107095949,0,nan,nan,nan,nan,nan,nan,nan,nan,nan,3,2,1,7,5,4,nan,nan,nan,nan,nan,nan,nan,nan,nan,nan,nan,nan,0.0,nan,nan,nan,nan,nan,nan,nan,nan,nan,nan,nan,nan,nan,nan,nan,nan,nan,nan,22268.13285520255,22335.8180689188,nan,22336.39600512951,nan,nan,nan,nan
1,44,1,1,1.0,1.0,0.4491163057500671,0,nan,nan,nan,nan,nan,nan,nan,nan,nan,5,8,4,2,3,6,nan,nan,nan,nan,nan,nan,nan,nan,nan,nan,nan,nan,0.0,nan,nan,nan,nan,nan,nan,nan,nan,nan,nan,nan,nan,nan,nan,nan,nan,nan,nan,22268.13285520255,22336.83489206705,nan,22337.2840083728,nan,nan,nan,nan
1,45,1,1,1.0,1.0,0.5443209900477086,0,nan,nan,nan,nan,nan,nan,nan,nan,nan,8,2,6,5,4,1,nan,nan,nan,nan,nan,nan,nan,nan,nan,nan,nan,nan,0.0,nan,nan,nan,nan,nan,nan,nan,nan,nan,nan,nan,nan,nan,nan,nan,nan,nan,nan,22268.13285520255,22337.851676441776,nan,22338.395997431824,nan,nan,nan,nan
1,46,1,1,1.0,1.0,0.49551139428513125,0,nan,nan,nan,nan,nan,nan,nan,nan,nan,4,3,8,0,5,7,nan,nan,nan,nan,nan,nan,nan,nan,nan,nan,nan,nan,0.0,nan,nan,nan,nan,nan,nan,nan,nan,nan,nan,nan,nan,nan,nan,nan,nan,nan,nan,22268.13285520255,22338.86847706717,nan,22339.363988461457,nan,nan,nan,nan
1,47,1,1,1.0,1.0,0.5423463912666193,0,nan,nan,nan,nan,nan,nan,nan,nan,nan,0,4,7,5,6,3,nan,nan,nan,nan,nan,nan,nan,nan,nan,nan,nan,nan,0.0,nan,nan,nan,nan,nan,nan,nan,nan,nan,nan,nan,nan,nan,nan,nan,nan,nan,nan,22268.13285520255,22339.893614570636,nan,22340.435960961902,nan,nan,nan,nan
1,48,1,1,1.0,1.0,0.5255203920205531,0,nan,nan,nan,nan,nan,nan,nan,nan,nan,3,8,1,6,4,7,nan,nan,nan,nan,nan,nan,nan,nan,nan,nan,nan,nan,0.0,nan,nan,nan,nan,nan,nan,nan,nan,nan,nan,nan,nan,nan,nan,nan,nan,nan,nan,22268.13285520255,22340.910426885108,nan,22341.43594727713,nan,nan,nan,nan
1,49,1,1,1.0,1.0,0.6203399069636362,0,nan,nan,nan,nan,nan,nan,nan,nan,nan,7,1,8,5,3,6,nan,nan,nan,nan,nan,nan,nan,nan,nan,nan,nan,nan,0.0,nan,nan,nan,nan,nan,nan,nan,nan,nan,nan,nan,nan,nan,nan,nan,nan,nan,nan,22268.13285520255,22341.935608864085,nan,22342.55594877105,nan,nan,nan,nan
1,50,1,1,1.0,1.0,0.4752026201786066,0,nan,nan,nan,nan,nan,nan,nan,nan,nan,4,5,2,1,6,7,nan,nan,nan,nan,nan,nan,nan,nan,nan,nan,nan,nan,0.0,nan,nan,nan,nan,nan,nan,nan,nan,nan,nan,nan,nan,nan,nan,nan,nan,nan,nan,22268.13285520255,22342.960717857604,nan,22343.435920477783,nan,nan,nan,nan
1,51,1,1,1.0,1.0,0.4104015112534398,0,nan,nan,nan,nan,nan,nan,nan,nan,nan,3,0,5,7,8,6,nan,nan,nan,nan,nan,nan,nan,nan,nan,nan,nan,nan,0.0,nan,nan,nan,nan,nan,nan,nan,nan,nan,nan,nan,nan,nan,nan,nan,nan,nan,nan,22268.13285520255,22343.977518768097,nan,22344.38792027935,nan,nan,nan,nan
1,52,0,0,0.0,1.0,0.6335941803226888,0,nan,nan,nan,nan,nan,nan,nan,nan,nan,8,5,6,4,3,7,nan,nan,nan,nan,nan,nan,nan,nan,nan,nan,nan,nan,0.0,nan,nan,nan,nan,nan,nan,nan,nan,nan,nan,nan,nan,nan,nan,nan,nan,nan,nan,22268.13285520255,22344.994306849116,nan,22345.62790102944,nan,nan,nan,nan
1,53,1,1,1.0,1.0,0.45676495374937076,0,nan,nan,nan,nan,nan,nan,nan,nan,nan,7,6,2,5,0,1,nan,nan,nan,nan,nan,nan,nan,nan,nan,nan,nan,nan,0.0,nan,nan,nan,nan,nan,nan,nan,nan,nan,nan,nan,nan,nan,nan,nan,nan,nan,nan,22268.13285520255,22346.011124010278,nan,22346.467888964027,nan,nan,nan,nan
1,54,1,1,1.0,1.0,0.511621793913946,0,nan,nan,nan,nan,nan,nan,nan,nan,nan,4,2,6,3,5,8,nan,nan,nan,nan,nan,nan,nan,nan,nan,nan,nan,nan,0.0,nan,nan,nan,nan,nan,nan,nan,nan,nan,nan,nan,nan,nan,nan,nan,nan,nan,nan,22268.13285520255,22347.036260658442,nan,22347.547882452356,nan,nan,nan,nan
1,55,0,0,0.0,1.0,0.6544457837808295,0,nan,nan,nan,nan,nan,nan,nan,nan,nan,8,0,7,5,6,1,nan,nan,nan,nan,nan,nan,nan,nan,nan,nan,nan,nan,0.0,nan,nan,nan,nan,nan,nan,nan,nan,nan,nan,nan,nan,nan,nan,nan,nan,nan,nan,22268.13285520255,22348.061395025812,nan,22348.715840809593,nan,nan,nan,nan
1,56,1,1,1.0,1.0,0.4376866688617156,0,nan,nan,nan,nan,nan,nan,nan,nan,nan,0,3,5,2,8,7,nan,nan,nan,nan,nan,nan,nan,nan,nan,nan,nan,nan,0.0,nan,nan,nan,nan,nan,nan,nan,nan,nan,nan,nan,nan,nan,nan,nan,nan,nan,nan,22268.13285520255,22349.07817426875,nan,22349.515860937612,nan,nan,nan,nan
1,57,1,1,1.0,1.0,0.5648373165531666,0,nan,nan,nan,nan,nan,nan,nan,nan,nan,7,0,1,6,4,5,nan,nan,nan,nan,nan,nan,nan,nan,nan,nan,nan,nan,0.0,nan,nan,nan,nan,nan,nan,nan,nan,nan,nan,nan,nan,nan,nan,nan,nan,nan,nan,22268.13285520255,22350.095005399784,nan,22350.659842716337,nan,nan,nan,nan
1,58,1,1,1.0,1.0,0.4360379387544526,0,nan,nan,nan,nan,nan,nan,nan,nan,nan,2,5,6,8,0,4,nan,nan,nan,nan,nan,nan,nan,nan,nan,nan,nan,nan,0.0,nan,nan,nan,nan,nan,nan,nan,nan,nan,nan,nan,nan,nan,nan,nan,nan,nan,nan,22268.13285520255,22351.111792910604,nan,22351.54783084936,nan,nan,nan,nan
1,59,1,1,1.0,1.0,0.411212334085576,0,nan,nan,nan,nan,nan,nan,nan,nan,nan,3,2,0,1,5,8,nan,nan,nan,nan,nan,nan,nan,nan,nan,nan,nan,nan,0.0,nan,nan,nan,nan,nan,nan,nan,nan,nan,nan,nan,nan,nan,nan,nan,nan,nan,nan,22268.13285520255,22352.1285926807,nan,22352.539805014785,nan,nan,nan,nan
1,60,1,1,1.0,1.0,0.5064272819654434,0,nan,nan,nan,nan,nan,nan,nan,nan,nan,0,3,6,4,8,1,nan,nan,nan,nan,nan,nan,nan,nan,nan,nan,nan,nan,0.0,nan,nan,nan,nan,nan,nan,nan,nan,nan,nan,nan,nan,nan,nan,nan,nan,nan,nan,22268.13285520255,22353.145383042513,nan,22353.651810324478,nan,nan,nan,nan
1,61,1,1,1.0,1.0,0.5375883665728907,0,nan,nan,nan,nan,nan,nan,nan,nan,nan,8,2,7,5,6,4,nan,nan,nan,nan,nan,nan,nan,nan,nan,nan,nan,nan,0.0,nan,nan,nan,nan,nan,nan,nan,nan,nan,nan,nan,nan,nan,nan,nan,nan,nan,nan,22268.13285520255,22354.16219792288,nan,22354.699786289453,nan,nan,nan,nan
1,62,1,1,1.0,1.0,0.720806386681943,0,nan,nan,nan,nan,nan,nan,nan,nan,nan,6,7,8,1,4,0,nan,nan,nan,nan,nan,nan,nan,nan,nan,nan,nan,nan,0.0,nan,nan,nan,nan,nan,nan,nan,nan,nan,nan,nan,nan,nan,nan,nan,nan,nan,nan,22268.13285520255,22355.17899541218,nan,22355.899801798863,nan,nan,nan,nan
1,63,1,1,1.0,1.0,0.7919643580062257,0,nan,nan,nan,nan,nan,nan,nan,nan,nan,8,5,3,4,2,6,nan,nan,nan,nan,nan,nan,nan,nan,nan,nan,nan,nan,0.0,nan,nan,nan,nan,nan,nan,nan,nan,nan,nan,nan,nan,nan,nan,nan,nan,nan,nan,22268.13285520255,22356.195802594862,nan,22356.98776695287,nan,nan,nan,nan
1,64,0,0,0.0,1.0,0.5748018273734488,0,nan,nan,nan,nan,nan,nan,nan,nan,nan,1,7,4,3,0,8,nan,nan,nan,nan,nan,nan,nan,nan,nan,nan,nan,nan,0.0,nan,nan,nan,nan,nan,nan,nan,nan,nan,nan,nan,nan,nan,nan,nan,nan,nan,nan,22268.13285520255,22357.2209543533,nan,22357.795756180672,nan,nan,nan,nan
1,65,1,1,1.0,1.0,0.45364625088404864,0,nan,nan,nan,nan,nan,nan,nan,nan,nan,2,1,3,6,5,0,nan,nan,nan,nan,nan,nan,nan,nan,nan,nan,nan,nan,0.0,nan,nan,nan,nan,nan,nan,nan,nan,nan,nan,nan,nan,nan,nan,nan,nan,nan,nan,22268.13285520255,22358.246104686237,nan,22358.69975093712,nan,nan,nan,nan
1,66,1,1,1.0,1.0,0.5404852620704332,1,nan,nan,nan,nan,nan,nan,nan,nan,nan,3,5,4,8,2,7,1.0,1.0,1.0,1.0,1.0,1.0,1.0,0.0,0.0,1.0,0.0,0.0,2.0,3.0,6.0,5.0,8.0,4.0,0.0,1.0,3.0,4.0,2.0,5.0,6.0,1.5525985674321419,3.8563894207582052,4.999561802145763,2.471636311176553,5.815271808110992,6.743212922530802,22268.13285520255,22359.271253593677,22360.079617727257,22359.811738855748,22367.88065451991,22368.880136494212,22361.096488202016,22367.87231935244
1,67,1,1,1.0,1.0,0.3777370972529752,0,nan,nan,nan,nan,nan,nan,nan,nan,nan,1,0,7,6,3,5,nan,nan,nan,nan,nan,nan,nan,nan,nan,nan,nan,nan,0.0,nan,nan,nan,nan,nan,nan,nan,nan,nan,nan,nan,nan,nan,nan,nan,nan,nan,nan,22268.13285520255,22369.10588650533,nan,22369.483623602584,nan,nan,nan,nan
1,68,1,1,1.0,1.0,0.4249432937176607,0,nan,nan,nan,nan,nan,nan,nan,nan,nan,6,7,4,2,8,3,nan,nan,nan,nan,nan,nan,nan,nan,nan,nan,nan,nan,0.0,nan,nan,nan,nan,nan,nan,nan,nan,nan,nan,nan,nan,nan,nan,nan,nan,nan,nan,22268.13285520255,22370.122666033367,nan,22370.547609327085,nan,nan,nan,nan
1,69,1,1,1.0,1.0,0.39214089158485876,0,nan,nan,nan,nan,nan,nan,nan,nan,nan,8,6,7,4,1,5,nan,nan,nan,nan,nan,nan,nan,nan,nan,nan,nan,nan,0.0,nan,nan,nan,nan,nan,nan,nan,nan,nan,nan,nan,nan,nan,nan,nan,nan,nan,nan,22268.13285520255,22371.139460386574,nan,22371.53160127816,nan,nan,nan,nan
1,70,1,1,1.0,1.0,0.3830063052591868,0,nan,nan,nan,nan,nan,nan,nan,nan,nan,4,3,5,0,2,7,nan,nan,nan,nan,nan,nan,nan,nan,nan,nan,nan,nan,0.0,nan,nan,nan,nan,nan,nan,nan,nan,nan,nan,nan,nan,nan,nan,nan,nan,nan,nan,22268.13285520255,22372.16458078407,nan,22372.547587089328,nan,nan,nan,nan
1,71,1,1,1.0,1.0,0.3341431108019606,0,nan,nan,nan,nan,nan,nan,nan,nan,nan,5,2,8,6,3,4,nan,nan,nan,nan,nan,nan,nan,nan,nan,nan,nan,nan,0.0,nan,nan,nan,nan,nan,nan,nan,nan,nan,nan,nan,nan,nan,nan,nan,nan,nan,nan,22268.13285520255,22373.18142445948,nan,22373.51556757028,nan,nan,nan,nan
1,72,1,1,1.0,1.0,0.3813461711688433,0,nan,nan,nan,nan,nan,nan,nan,nan,nan,0,8,3,5,2,6,nan,nan,nan,nan,nan,nan,nan,nan,nan,nan,nan,nan,0.0,nan,nan,nan,nan,nan,nan,nan,nan,nan,nan,nan,nan,nan,nan,nan,nan,nan,nan,22268.13285520255,22374.198200566323,nan,22374.579546737492,nan,nan,nan,nan
1,73,1,1,1.0,1.0,0.42855721432715654,0,nan,nan,nan,nan,nan,nan,nan,nan,nan,8,2,0,4,6,1,nan,nan,nan,nan,nan,nan,nan,nan,nan,nan,nan,nan,0.0,nan,nan,nan,nan,nan,nan,nan,nan,nan,nan,nan,nan,nan,nan,nan,nan,nan,nan,22268.13285520255,22375.214996059927,nan,22375.643553274254,nan,nan,nan,nan
1,74,1,1,1.0,1.0,0.4197199867267045,0,nan,nan,nan,nan,nan,nan,nan,nan,nan,5,7,6,8,3,2,nan,nan,nan,nan,nan,nan,nan,nan,nan,nan,nan,nan,0.0,nan,nan,nan,nan,nan,nan,nan,nan,nan,nan,nan,nan,nan,nan,nan,nan,nan,nan,22268.13285520255,22376.23179611512,nan,22376.651516101847,nan,nan,nan,nan
1,75,1,1,1.0,1.0,0.5069022576462885,0,nan,nan,nan,nan,nan,nan,nan,nan,nan,1,2,8,0,5,6,nan,nan,nan,nan,nan,nan,nan,nan,nan,nan,nan,nan,0.0,nan,nan,nan,nan,nan,nan,nan,nan,nan,nan,nan,nan,nan,nan,nan,nan,nan,nan,22268.13285520255,22377.248613276282,nan,22377.75551553393,nan,nan,nan,nan
1,76,1,1,1.0,1.0,0.49811207145103253,0,nan,nan,nan,nan,nan,nan,nan,nan,nan,5,1,4,8,3,7,nan,nan,nan,nan,nan,nan,nan,nan,nan,nan,nan,nan,0.0,nan,nan,nan,nan,nan,nan,nan,nan,nan,nan,nan,nan,nan,nan,nan,nan,nan,nan,22268.13285520255,22378.265403352998,nan,22378.76351542445,nan,nan,nan,nan
1,77,1,1,1.0,1.0,0.48128407651165617,0,nan,nan,nan,nan,nan,nan,nan,nan,nan,8,6,0,7,1,3,nan,nan,nan,nan,nan,nan,nan,nan,nan,nan,nan,nan,0.0,nan,nan,nan,nan,nan,nan,nan,nan,nan,nan,nan,nan,nan,nan,nan,nan,nan,nan,22268.13285520255,22379.282202267794,nan,22379.763486344305,nan,nan,nan,nan
1,78,1,1,1.0,1.0,0.4564658844283258,0,nan,nan,nan,nan,nan,nan,nan,nan,nan,3,5,1,6,2,4,nan,nan,nan,nan,nan,nan,nan,nan,nan,nan,nan,nan,0.0,nan,nan,nan,nan,nan,nan,nan,nan,nan,nan,nan,nan,nan,nan,nan,nan,nan,nan,22268.13285520255,22380.299015437566,nan,22380.755481321994,nan,nan,nan,nan
1,79,1,1,1.0,1.0,0.3916371208615601,0,nan,nan,nan,nan,nan,nan,nan,nan,nan,5,7,2,4,1,6,nan,nan,nan,nan,nan,nan,nan,nan,nan,nan,nan,nan,0.0,nan,nan,nan,nan,nan,nan,nan,nan,nan,nan,nan,nan,nan,nan,nan,nan,nan,nan,22268.13285520255,22381.31582632654,nan,22381.7074634474,nan,nan,nan,nan
1,80,1,1,1.0,1.0,0.49483171719839447,0,nan,nan,nan,nan,nan,nan,nan,nan,nan,2,8,4,3,0,7,nan,nan,nan,nan,nan,nan,nan,nan,nan,nan,nan,nan,0.0,nan,nan,nan,nan,nan,nan,nan,nan,nan,nan,nan,nan,nan,nan,nan,nan,nan,nan,22268.13285520255,22382.332635504918,nan,22382.827467222116,nan,nan,nan,nan
1,81,1,1,1.0,1.0,0.42201304158879793,0,0.0,0.0,0.0,0.47214032423758,0.08684888029844198,0.38529144393913806,0.558989204536022,0.08684888029844198,0.43616062654958415,1,6,5,4,8,2,nan,nan,nan,nan,nan,nan,nan,nan,nan,nan,nan,nan,0.0,nan,nan,nan,nan,nan,nan,nan,nan,nan,nan,nan,nan,nan,nan,nan,nan,nan,nan,22268.13285520255,22383.3494426876,nan,22383.771455729187,nan,nan,nan,nan
1,82,1,1,1.0,1.0,0.42119423597250716,0,0.0,0.0,0.0,0.47152146889623703,0.08648841809685336,0.38503305079938366,0.5580098869930904,0.08648841809685336,0.4460129982532332,8,7,1,3,5,4,nan,nan,nan,nan,nan,nan,nan,nan,nan,nan,nan,nan,0.0,nan,nan,nan,nan,nan,nan,nan,nan,nan,nan,nan,nan,nan,nan,nan,nan,nan,nan,22268.13285520255,22384.366246449088,nan,22384.78744068506,nan,nan,nan,nan
1,83,1,1,1.0,1.0,0.48410114416401484,0,0.0,0.0,0.0,0.4709077221532647,0.08613672525268629,0.3847709969005784,0.557044447405951,0.08613672525268629,0.44243614057510666,6,4,2,8,3,0,nan,nan,nan,nan,nan,nan,nan,nan,nan,nan,nan,nan,0.0,nan,nan,nan,nan,nan,nan,nan,nan,nan,nan,nan,nan,nan,nan,nan,nan,nan,nan,22268.13285520255,22385.391325222063,nan,22385.875426366227,nan,nan,nan,nan
1,84,0,0,0.0,1.0,0.6912609606479236,0,0.0,0.0,0.0,0.47106667904496047,0.08562835606326358,0.3854383229816969,0.556695035108224,0.08562835606326358,0.5321854469281485,7,3,5,1,6,4,nan,nan,nan,nan,nan,nan,nan,nan,nan,nan,nan,nan,0.0,nan,nan,nan,nan,nan,nan,nan,nan,nan,nan,nan,nan,nan,nan,nan,nan,nan,nan,22268.13285520255,22386.40815122131,nan,22387.099412181957,nan,nan,nan,nan
1,85,1,1,1.0,1.0,0.4264129813745967,0,0.0,0.0,0.0,0.47368803954023386,0.08840398262640531,0.38528405691382855,0.5620920221666392,0.08840398262640531,0.5339250287288451,2,0,3,7,4,8,nan,nan,nan,nan,nan,nan,nan,nan,nan,nan,nan,nan,0.0,nan,nan,nan,nan,nan,nan,nan,nan,nan,nan,nan,nan,nan,nan,nan,nan,nan,nan,22268.13285520255,22387.42498463314,nan,22387.851397614515,nan,nan,nan,nan
1,86,0,0,0.0,1.0,0.6652855499050929,0,0.0,0.0,0.0,0.473131862385344,0.088030130265043,0.38510173212030097,0.561161992650387,0.088030130265043,0.5943198306425378,3,1,6,5,2,7,nan,nan,nan,nan,nan,nan,nan,nan,nan,nan,nan,nan,0.0,nan,nan,nan,nan,nan,nan,nan,nan,nan,nan,nan,nan,nan,nan,nan,nan,nan,nan,22268.13285520255,22388.45009277136,nan,22389.115378321265,nan,nan,nan,nan
1,87,1,1,1.0,1.0,0.3924550711781194,0,0.0,0.0,0.0,0.475366207589062,0.08990851473556705,0.38545769285349496,0.565274722324629,0.08990851473556705,0.4947178674859363,1,6,0,2,8,4,nan,nan,nan,nan,nan,nan,nan,nan,nan,nan,nan,nan,0.0,nan,nan,nan,nan,nan,nan,nan,nan,nan,nan,nan,nan,nan,nan,nan,nan,nan,nan,22268.13285520255,22389.466918485505,nan,22389.859373556683,nan,nan,nan,nan
1,88,1,1,1.0,1.0,0.5033105747934314,0,0.0,0.0,0.0,0.47441320602112014,0.08982612642403359,0.38458707959708655,0.5642393324451538,0.08982612642403359,0.5203503986255479,4,7,5,3,1,0,nan,nan,nan,nan,nan,nan,nan,nan,nan,nan,nan,nan,0.0,nan,nan,nan,nan,nan,nan,nan,nan,nan,nan,nan,nan,nan,nan,nan,nan,nan,nan,22268.13285520255,22390.49205199758,nan,22390.995362572372,nan,nan,nan,nan
1,89,1,1,1.0,1.0,0.5584815945512673,0,0.0,0.0,0.0,0.47474158521171456,0.08936679642029564,0.3853747887914189,0.5641083816320102,0.08936679642029564,0.4847490801742727,8,5,3,4,7,2,nan,nan,nan,nan,nan,nan,nan,nan,nan,nan,nan,nan,0.0,nan,nan,nan,nan,nan,nan,nan,nan,nan,nan,nan,nan,nan,nan,nan,nan,nan,nan,22268.13285520255,22391.50888455411,nan,22392.06736614866,nan,nan,nan,nan
1,90,1,1,1.0,1.0,0.565304024348734,0,0.0,0.0,0.0,0.47568248419305786,0.08930058676457332,0.38638189742848456,0.5649830709576312,0.08930058676457332,0.5423653978978109,3,0,2,6,8,4,nan,nan,nan,nan,nan,nan,nan,nan,nan,nan,nan,nan,0.0,nan,nan,nan,nan,nan,nan,nan,nan,nan,nan,nan,nan,nan,nan,nan,nan,nan,nan,22268.13285520255,22392.534025763867,nan,22393.099329788216,nan,nan,nan,nan
1,91,1,1,1.0,1.0,0.6281955371669028,0,0.0,1.0,0.0,0.4766782790836765,0.08929860722295356,0.3873796718607229,0.56597688630663,0.08929860722295356,0.583993718688968,4,1,3,7,6,8,nan,nan,nan,nan,nan,nan,nan,nan,nan,nan,nan,nan,0.0,nan,nan,nan,nan,nan,nan,nan,nan,nan,nan,nan,nan,nan,nan,nan,nan,nan,nan,22268.13285520255,22393.559131621292,nan,22394.18732715846,nan,nan,nan,nan
1,92,1,1,1.0,1.0,0.6433981801528716,1,0.0,0.0,1.0,0.4783433038977779,0.09020044298147394,0.38814286091630396,0.5685437468792518,0.09020044298147394,0.6122992472228361,2,7,5,3,0,6,1.0,1.0,1.0,1.0,1.0,1.0,1.0,1.0,0.0,1.0,1.0,0.0,4.0,2.0,7.0,6.0,3.0,0.0,4.0,1.0,3.0,4.0,2.0,5.0,6.0,0.9762050298377289,2.9749799575074576,3.5585252147648134,2.142527201336634,4.238480841886485,6.014644703365775,22268.13285520255,22394.57592112781,22395.38434057068,22395.219319307962,22402.44362243938,22403.449356074387,22396.39284736802,22402.43528071462
1,93,1,1,1.0,1.0,0.4703998348704772,0,0.0,0.0,0.0,0.4801373786396811,0.09132680826772327,0.3888105703719578,0.5714641869074044,0.09132680826772327,0.5806645173967505,7,0,8,1,3,4,nan,nan,nan,nan,nan,nan,nan,nan,nan,nan,nan,nan,0.0,nan,nan,nan,nan,nan,nan,nan,nan,nan,nan,nan,nan,nan,nan,nan,nan,nan,nan,22268.13285520255,22403.66881878737,nan,22404.13921862224,nan,nan,nan,nan
1,94,1,1,1.0,1.0,0.429565040874877,0,0.0,0.0,0.0,0.4800326738679692,0.09084002858394984,0.38919264528401937,0.570872702451919,0.09084002858394984,0.5144543519660753,6,5,7,4,1,2,nan,nan,nan,nan,nan,nan,nan,nan,nan,nan,nan,nan,0.0,nan,nan,nan,nan,nan,nan,nan,nan,nan,nan,nan,nan,nan,nan,nan,nan,nan,nan,22268.13285520255,22404.685623119058,nan,22405.115188159933,nan,nan,nan,nan
1,95,0,0,0.0,1.0,0.6207652753437287,0,0.0,0.0,0.0,0.4794957841552767,0.09050376683052386,0.38899201732475286,0.5699995509858006,0.09050376683052386,0.5069100503630276,1,2,4,3,8,7,nan,nan,nan,nan,nan,nan,nan,nan,nan,nan,nan,nan,0.0,nan,nan,nan,nan,nan,nan,nan,nan,nan,nan,nan,nan,nan,nan,nan,nan,nan,nan,22268.13285520255,22405.70240834908,nan,22406.323173624423,nan,nan,nan,nan
1,96,1,1,1.0,1.0,0.4119510267555597,0,0.0,0.0,0.0,0.48098283143094467,0.09117332163562446,0.3898095097953202,0.5721561530665691,0.09117332163562446,0.4874271143247218,3,6,2,1,0,8,nan,nan,nan,nan,nan,nan,nan,nan,nan,nan,nan,nan,0.0,nan,nan,nan,nan,nan,nan,nan,nan,nan,nan,nan,nan,nan,nan,nan,nan,nan,nan,22268.13285520255,22406.719213536067,nan,22407.131164562823,nan,nan,nan,nan
1,97,1,1,1.0,1.0,0.4031391730059113,0,0.0,0.0,0.0,0.4802637501322427,0.09096761875192184,0.3892961313803209,0.5712313688841646,0.09096761875192184,0.47861849170173326,2,8,6,7,3,4,nan,nan,nan,nan,nan,nan,nan,nan,nan,nan,nan,nan,0.0,nan,nan,nan,nan,nan,nan,nan,nan,nan,nan,nan,nan,nan,nan,nan,nan,nan,nan,22268.13285520255,22407.73601587206,nan,22408.139155045064,nan,nan,nan,nan
1,98,1,1,1.0,1.0,0.42629808629499166,0,0.0,0.0,0.0,0.4794686513989816,0.09083219002486956,0.388636461374112,0.5703008414238512,0.09083219002486956,0.4137960953521542,5,2,8,1,0,3,nan,nan,nan,nan,nan,nan,nan,nan,nan,nan,nan,nan,0.0,nan,nan,nan,nan,nan,nan,nan,nan,nan,nan,nan,nan,nan,nan,nan,nan,nan,nan,22268.13285520255,22408.7528435819,nan,22409.179141668195,nan,nan,nan,nan
1,99,0,0,0.0,1.0,0.47347805361278006,0,0.0,0.0,0.0,0.47892609461220614,0.09052542067037748,0.38840067394182864,0.5694515152825836,0.09052542067037748,0.434305104304561,4,3,5,7,1,2,nan,nan,nan,nan,nan,nan,nan,nan,nan,nan,nan,nan,0.0,nan,nan,nan,nan,nan,nan,nan,nan,nan,nan,nan,nan,nan,nan,nan,nan,nan,nan,22268.13285520255,22409.769647628487,nan,22410.2431256821,nan,nan,nan,nan
1,100,1,1,1.0,1.0,0.3366591134290502,0,0.0,0.0,0.0,0.47887106389504025,0.09006870870668687,0.3888023551883534,0.5689397726017271,0.09006870870668687,0.4121450844456073,1,0,3,6,8,5,nan,nan,nan,nan,nan,nan,nan,nan,nan,nan,nan,nan,0.0,nan,nan,nan,nan,nan,nan,nan,nan,nan,nan,nan,nan,nan,nan,nan,nan,nan,nan,22268.13285520255,22410.786453100573,nan,22411.123112214,nan,nan,nan,nan
1,101,1,1,1.0,1.0,0.5758598314241681,0,0.0,0.0,0.0,0.4774489443903803,0.0907274408868507,0.38672150350352963,0.568176385277231,0.0907274408868507,0.46199899948866613,0,3,5,2,6,7,nan,nan,nan,nan,nan,nan,nan,nan,nan,nan,nan,nan,0.0,nan,nan,nan,nan,nan,nan,nan,nan,nan,nan,nan,nan,nan,nan,nan,nan,nan,nan,22268.13285520255,22411.803265129944,nan,22412.379124961368,nan,nan,nan,nan
1,102,1,1,1.0,1.0,0.6066961877622816,0,0.0,0.0,0.0,0.4784233096085367,0.09080147355245753,0.38762183605607914,0.5692247831609942,0.09080147355245753,0.5064050442051666,5,7,4,8,1,3,nan,nan,nan,nan,nan,nan,nan,nan,nan,nan,nan,nan,0.0,nan,nan,nan,nan,nan,nan,nan,nan,nan,nan,nan,nan,nan,nan,nan,nan,nan,nan,22268.13285520255,22412.828398927115,nan,22413.435095114877,nan,nan,nan,nan
1,103,1,1,1.0,1.0,0.5339094432893035,0,0.0,1.0,0.0,0.4796808868453381,0.09123489860252042,0.3884459882428177,0.5709157854478585,0.09123489860252042,0.5721551541585844,1,0,8,3,5,2,nan,nan,nan,nan,nan,nan,nan,nan,nan,nan,nan,nan,0.0,nan,nan,nan,nan,nan,nan,nan,nan,nan,nan,nan,nan,nan,nan,nan,nan,nan,nan,22268.13285520255,22413.845172182962,nan,22414.37908162625,nan,nan,nan,nan
1,104,1,1,1.0,1.0,0.6290610990909045,1,0.0,0.0,1.0,0.48020737768459987,0.09094650466674088,0.389260873017859,0.5711538823513408,0.09094650466674088,0.5898889100474966,8,3,1,4,2,5,1.0,1.0,1.0,1.0,1.0,1.0,1.0,0.0,0.0,1.0,0.0,0.0,2.0,8.0,6.0,3.0,4.0,5.0,0.0,1.0,4.0,3.0,2.0,6.0,5.0,1.1060974789215834,3.6646600417152513,2.977862598032516,2.1062348968553124,5.7520011130291095,4.632494836849219,22268.13285520255,22414.861999892804,22415.67041676978,22415.491060991895,22422.47962080633,22423.479540978486,22416.687221956763,22422.471293621642
1,105,1,1,1.0,1.0,0.514493315557047,0,0.0,0.0,0.0,0.4816386634673528,0.09166645480534683,0.389972208662006,0.5733051182726996,0.09166645480534683,0.5591546193124183,0,2,3,8,7,4,nan,nan,nan,nan,nan,nan,nan,nan,nan,nan,nan,nan,0.0,nan,nan,nan,nan,nan,nan,nan,nan,nan,nan,nan,nan,nan,nan,nan,nan,nan,nan,22268.13285520255,22423.696477710357,nan,22424.210971025914,nan,nan,nan,nan
1,106,1,1,1.0,1.0,0.39367558191588614,0,0.0,0.0,0.0,0.4819515649158261,0.09128469319870607,0.39066687171712,0.5732362581145322,0.09128469319870607,0.5124099988546126,7,0,5,4,6,1,nan,nan,nan,nan,nan,nan,nan,nan,nan,nan,nan,nan,0.0,nan,nan,nan,nan,nan,nan,nan,nan,nan,nan,nan,nan,nan,nan,nan,nan,nan,nan,22268.13285520255,22424.71328204204,nan,22425.106957623957,nan,nan,nan,nan
1,107,1,1,1.0,1.0,0.3528325200386462,0,0.0,0.0,0.0,0.4811187726233738,0.0912529726016955,0.3898658000216783,0.5723717452250693,0.0912529726016955,0.4203338058371931,8,4,7,6,3,0,nan,nan,nan,nan,nan,nan,nan,nan,nan,nan,nan,nan,0.0,nan,nan,nan,nan,nan,nan,nan,nan,nan,nan,nan,nan,nan,nan,nan,nan,nan,nan,22268.13285520255,22425.730098062806,nan,22426.082930582845,nan,nan,nan,nan
1,108,1,1,1.0,1.0,0.48803466124809347,0,0.0,0.0,0.0,0.47991983568332963,0.09166052189840236,0.3882593137849273,0.571580357581732,0.09166052189840236,0.41151425440087525,3,2,0,5,1,8,nan,nan,nan,nan,nan,nan,nan,nan,nan,nan,nan,nan,0.0,nan,nan,nan,nan,nan,nan,nan,nan,nan,nan,nan,nan,nan,nan,nan,nan,nan,nan,22268.13285520255,22426.74688956502,nan,22427.234924226268,nan,nan,nan,nan
1,109,1,1,1.0,1.0,0.4392233548896911,0,0.0,0.0,0.0,0.47999497295707744,0.0912384912610311,0.3887564816960463,0.5712334642181085,0.0912384912610311,0.4266968453921436,1,8,3,7,0,4,nan,nan,nan,nan,nan,nan,nan,nan,nan,nan,nan,nan,0.0,nan,nan,nan,nan,nan,nan,nan,nan,nan,nan,nan,nan,nan,nan,nan,nan,nan,nan,22268.13285520255,22427.76369104571,nan,22428.2029144006,nan,nan,nan,nan
1,110,0,0,1.0,0.0,0.5184034544909082,0,0.0,0.0,0.0,0.4796209214151748,0.0909021553429269,0.3887187660722479,0.5705230767581018,0.0909021553429269,0.4818871568762309,8,4,6,0,2,7,nan,nan,nan,nan,nan,nan,nan,nan,nan,nan,nan,nan,0.0,nan,nan,nan,nan,nan,nan,nan,nan,nan,nan,nan,nan,nan,nan,nan,nan,nan,nan,22268.13285520255,22428.780493381702,nan,22429.298896836193,nan,nan,nan,nan
1,111,1,1,1.0,1.0,0.42160050268648774,0,0.0,0.0,0.0,0.4799734898976815,0.0905628567543411,0.3894106331433404,0.5705363466520226,0.0905628567543411,0.4597424373556957,4,6,1,2,3,5,nan,nan,nan,nan,nan,nan,nan,nan,nan,nan,nan,nan,0.0,nan,nan,nan,nan,nan,nan,nan,nan,nan,nan,nan,nan,nan,nan,nan,nan,nan,nan,22268.13285520255,22429.7972911561,nan,22430.218891658787,nan,nan,nan,nan
1,112,1,1,1.0,1.0,0.7327768572249624,0,0.0,0.0,0.0,0.4794476071300131,0.09032255117695873,0.38912505595305436,0.5697701583069719,0.09032255117695873,0.5575936048007861,5,7,6,3,1,4,nan,nan,nan,nan,nan,nan,nan,nan,nan,nan,nan,nan,0.0,nan,nan,nan,nan,nan,nan,nan,nan,nan,nan,nan,nan,nan,nan,nan,nan,nan,nan,22268.13285520255,22430.814097198385,nan,22431.54687405561,nan,nan,nan,nan
1,113,1,1,1.0,1.0,0.38760210836699116,0,0.0,0.0,0.0,0.48170947543443227,0.09302259865724198,0.38868687677719027,0.5747320740916743,0.09302259865724198,0.5139931560928138,3,6,7,8,5,1,nan,nan,nan,nan,nan,nan,nan,nan,nan,nan,nan,nan,0.0,nan,nan,nan,nan,nan,nan,nan,nan,nan,nan,nan,nan,nan,nan,nan,nan,nan,nan,22268.13285520255,22431.83924325483,nan,22432.2268453632,nan,nan,nan,nan
1,114,1,1,1.0,1.0,0.7228174781921552,0,0.0,1.0,0.0,0.4808766668763133,0.09302852619605204,0.3878481406802613,0.5739051930723653,0.09302852619605204,0.6143988145947029,0,2,5,6,3,7,nan,nan,nan,nan,nan,nan,nan,nan,nan,nan,nan,nan,0.0,nan,nan,nan,nan,nan,nan,nan,nan,nan,nan,nan,nan,nan,nan,nan,nan,nan,nan,22268.13285520255,22432.856033901746,nan,22433.578851379938,nan,nan,nan,nan
1,115,1,1,1.0,1.0,0.5936796873465937,1,0.0,0.0,1.0,0.48299895469487336,0.09532762268283632,0.3876713320120371,0.5783265773777096,0.09532762268283632,0.5680330913019134,3,6,7,4,5,2,1.0,1.0,1.0,1.0,1.0,1.0,1.0,0.0,0.0,1.0,0.0,0.0,2.0,3.0,1.0,2.0,4.0,8.0,7.0,1.0,6.0,5.0,2.0,4.0,3.0,1.0611948859987024,5.700717994448496,4.684764969715616,2.2618624178467144,3.8604982740071137,3.1490240475650353,22268.13285520255,22433.88115743534,22434.689577448407,22434.474837122685,22441.44880611755,22442.448921297728,22435.706387196984,22441.440476937165
1,116,1,1,1.0,1.0,0.4810491545686091,0,0.0,0.0,0.0,0.48396139584836656,0.09546691867609777,0.3884944771722688,0.5794283145244643,0.09546691867609777,0.5991821067024526,6,1,8,0,2,5,nan,nan,nan,nan,nan,nan,nan,nan,nan,nan,nan,nan,0.0,nan,nan,nan,nan,nan,nan,nan,nan,nan,nan,nan,nan,nan,nan,nan,nan,nan,nan,22268.13285520255,22442.66569181662,nan,22443.146740971188,nan,nan,nan,nan
1,117,1,1,1.0,1.0,0.5039061475436029,0,0.0,0.0,0.0,0.4839362903200928,0.09505491392045952,0.38888137639963327,0.5789912042405523,0.09505491392045952,0.5262116631529352,2,8,7,3,6,0,nan,nan,nan,nan,nan,nan,nan,nan,nan,nan,nan,nan,0.0,nan,nan,nan,nan,nan,nan,nan,nan,nan,nan,nan,nan,nan,nan,nan,nan,nan,nan,22268.13285520255,22443.690813069414,nan,22444.194719216957,nan,nan,nan,nan
1,118,1,1,1.0,1.0,0.5510809830702783,0,0.0,0.0,0.0,0.48410697286046467,0.09466567529730899,0.3894412975631557,0.5787726481577736,0.09466567529730899,0.5120120950608301,0,5,1,2,3,7,nan,nan,nan,nan,nan,nan,nan,nan,nan,nan,nan,nan,0.0,nan,nan,nan,nan,nan,nan,nan,nan,nan,nan,nan,nan,nan,nan,nan,nan,nan,nan,22268.13285520255,22444.707621677593,nan,22445.258702660663,nan,nan,nan,nan
1,119,1,1,1.0,1.0,0.7502896610385505,0,0.0,1.0,0.0,0.48467454921817493,0.09446340626247843,0.3902111429556965,0.5791379554806534,0.09446340626247843,0.6017589305508105,4,7,0,6,8,3,nan,nan,nan,nan,nan,nan,nan,nan,nan,nan,nan,nan,0.0,nan,nan,nan,nan,nan,nan,nan,nan,nan,nan,nan,nan,nan,nan,nan,nan,nan,nan,22268.13285520255,22445.724403771525,nan,22446.474693432563,nan,nan,nan,nan
1,120,1,1,1.0,1.0,0.7655051335023018,1,0.0,0.0,1.0,0.4869066089813714,0.09714028940702313,0.38976631957434826,0.5840468983883945,0.09714028940702313,0.6889585925370435,8,2,1,3,7,5,1.0,1.0,1.0,1.0,1.0,1.0,1.0,1.0,0.0,0.0,0.0,0.0,2.0,8.0,2.0,4.0,6.0,4.0,8.0,1.0,3.0,4.0,2.0,5.0,6.0,1.0996958559080667,2.85038009458367,3.8732778567791684,1.970415230240178,4.744645262158883,5.688535980119923,22268.13285520255,22446.74118244426,22447.54962783118,22447.506687577763,22454.283898609512,22455.287608038438,22448.55810013149,22454.275571709924
1,121,1,1,1.0,1.0,0.3574890493291605,0,0.0,0.0,0.0,0.4892282633523791,0.0999950995335344,0.3892331638188447,0.5892233628859135,0.0999950995335344,0.6244279479566709,3,5,0,7,4,6,nan,nan,nan,nan,nan,nan,nan,nan,nan,nan,nan,nan,0.0,nan,nan,nan,nan,nan,nan,nan,nan,nan,nan,nan,nan,nan,nan,nan,nan,nan,nan,22268.13285520255,22455.509100944593,nan,22455.866589993922,nan,nan,nan,nan
1,122,1,1,1.0,1.0,0.78039017570336,0,0.0,0.0,0.0,0.48813950951747653,0.1002927195360172,0.38784678998145933,0.5884322290534938,0.1002927195360172,0.6344614528449407,6,8,1,5,2,7,nan,nan,nan,nan,nan,nan,nan,nan,nan,nan,nan,nan,0.0,nan,nan,nan,nan,nan,nan,nan,nan,nan,nan,nan,nan,nan,nan,nan,nan,nan,nan,22268.13285520255,22456.534182853662,nan,22457.314573029365,nan,nan,nan,nan
1,123,1,1,1.0,1.0,0.7235567410607473,0,0.0,1.0,0.0,0.49053500678129525,0.1032982529980363,0.38723675378325895,0.5938332597793315,0.1032982529980363,0.6204786553644226,4,3,7,6,0,2,nan,nan,nan,nan,nan,nan,nan,nan,nan,nan,nan,nan,0.0,nan,nan,nan,nan,nan,nan,nan,nan,nan,nan,nan,nan,nan,nan,nan,nan,nan,nan,22268.13285520255,22457.550995453235,nan,22458.274552194296,nan,nan,nan,nan
1,124,1,1,1.0,1.0,0.7543594556664175,1,0.0,0.0,1.0,0.4924294924258436,0.10498401810831698,0.38744547431752663,0.5974135105341606,0.10498401810831698,0.7527687908101749,7,5,0,8,1,4,1.0,1.0,1.0,1.0,1.0,1.0,1.0,1.0,0.0,0.0,1.0,0.0,3.0,7.0,5.0,4.0,3.0,1.0,6.0,1.0,3.0,4.0,2.0,5.0,6.0,1.09614836347464,2.8390550891963358,3.645814397979848,2.0458599568701175,4.309246231270663,5.189395840057841,22268.13285520255,22458.57617230042,22459.384554395263,22459.330531756088,22465.627030050622,22466.628620905543,22460.401370986227,22465.618706857327
1,125,1,1,1.0,1.0,0.4542019097098091,0,0.0,0.0,0.0,0.49454183083907405,0.10715214688119401,0.38738968395788004,0.6016939777202681,0.10715214688119401,0.6440393688123246,5,4,6,7,3,0,nan,nan,nan,nan,nan,nan,nan,nan,nan,nan,nan,nan,0.0,nan,nan,nan,nan,nan,nan,nan,nan,nan,nan,nan,nan,nan,nan,nan,nan,nan,nan,22268.13285520255,22466.85224806617,nan,22467.30644997588,nan,nan,nan,nan
1,126,0,0,0.0,1.0,0.6133626681657915,0,0.0,0.0,0.0,0.49421911147003994,0.10678316462205807,0.3874359468479819,0.601002276092098,0.10678316462205807,0.6073080111806727,6,0,4,2,5,8,nan,nan,nan,nan,nan,nan,nan,nan,nan,nan,nan,nan,0.0,nan,nan,nan,nan,nan,nan,nan,nan,nan,nan,nan,nan,nan,nan,nan,nan,nan,nan,22268.13285520255,22467.86904755117,nan,22468.482410219334,nan,nan,nan,nan
1,127,1,1,1.0,1.0,0.3405658311712614,0,0.0,0.0,0.0,0.49516469525333956,0.10688270747200097,0.3882819877813386,0.6020474027253405,0.10688270747200097,0.4693768030156207,3,2,5,4,8,0,nan,nan,nan,nan,nan,nan,nan,nan,nan,nan,nan,nan,0.0,nan,nan,nan,nan,nan,nan,nan,nan,nan,nan,nan,nan,nan,nan,nan,nan,nan,nan,22268.13285520255,22468.885853593452,nan,22469.226419424624,nan,nan,nan,nan
1,128,1,1,1.0,1.0,0.5717301659169607,0,0.0,0.0,0.0,0.4939473813629295,0.10733440536951559,0.3866129759934139,0.601281786732445,0.10733440536951559,0.5085528884180045,5,6,2,7,3,4,nan,nan,nan,nan,nan,nan,nan,nan,nan,nan,nan,nan,0.0,nan,nan,nan,nan,nan,nan,nan,nan,nan,nan,nan,nan,nan,nan,nan,nan,nan,nan,22268.13285520255,22469.90268358409,nan,22470.474413750006,nan,nan,nan,nan
1,129,1,1,1.0,1.0,0.5549229832358833,0,0.0,0.0,0.0,0.49455505936725785,0.10713340711764112,0.3874216522496167,0.6016884664848989,0.10713340711764112,0.48907299344136845,8,3,7,6,0,2,nan,nan,nan,nan,nan,nan,nan,nan,nan,nan,nan,nan,0.0,nan,nan,nan,nan,nan,nan,nan,nan,nan,nan,nan,nan,nan,nan,nan,nan,nan,nan,22268.13285520255,22470.919477652194,nan,22471.47440063543,nan,nan,nan,nan
1,130,1,1,1.0,1.0,0.466080863323441,0,0.0,0.0,0.0,0.4950230277693402,0.10684860701055984,0.3881744207587804,0.6018716347799,0.10684860701055984,0.530911337492095,0,4,8,1,6,5,nan,nan,nan,nan,nan,nan,nan,nan,nan,nan,nan,nan,0.0,nan,nan,nan,nan,nan,nan,nan,nan,nan,nan,nan,nan,nan,nan,nan,nan,nan,nan,22268.13285520255,22471.936290251768,nan,22472.40237111509,nan,nan,nan,nan
1,131,1,1,1.0,1.0,0.505313398422004,0,0.0,0.0,0.0,0.494800395735141,0.10646688929942164,0.3883335064357194,0.6012672850345626,0.10646688929942164,0.5087724149937761,2,5,7,4,0,6,nan,nan,nan,nan,nan,nan,nan,nan,nan,nan,nan,nan,0.0,nan,nan,nan,nan,nan,nan,nan,nan,nan,nan,nan,nan,nan,nan,nan,nan,nan,nan,22268.13285520255,22472.95305866092,nan,22473.458372059344,nan,nan,nan,nan
1,132,1,1,1.0,1.0,0.6484957582906645,0,0.0,0.0,0.0,0.4948806476640483,0.10606369563857612,0.3888169520254722,0.6009443433026245,0.10606369563857612,0.5399633400120365,6,8,3,0,5,1,nan,nan,nan,nan,nan,nan,nan,nan,nan,nan,nan,nan,0.0,nan,nan,nan,nan,nan,nan,nan,nan,nan,nan,nan,nan,nan,nan,nan,nan,nan,nan,22268.13285520255,22473.9698678393,nan,22474.61836359759,nan,nan,nan,nan
1,133,1,1,nan,nan,nan,0,0.0,0.0,0.0,0.4960443985021288,0.10649741493726478,0.389546983564864,0.6025418134393936,0.10649741493726478,0.5769045783563342,3,1,7,2,8,6,nan,nan,nan,nan,nan,nan,nan,nan,nan,nan,nan,nan,0.0,nan,nan,nan,nan,nan,nan,nan,nan,nan,nan,nan,nan,nan,nan,nan,nan,nan,nan,22268.13285520255,22474.986698400135,nan,nan,nan,nan,nan,nan
1,134,1,1,nan,nan,nan,0,0.0,0.0,0.0,0.4960443985021288,0.10649741493726478,0.389546983564864,0.6025418134393936,0.10649741493726478,0.6484957582906645,2,3,5,8,6,1,nan,nan,nan,nan,nan,nan,nan,nan,nan,nan,nan,nan,0.0,nan,nan,nan,nan,nan,nan,nan,nan,nan,nan,nan,nan,nan,nan,nan,nan,nan,nan,22268.13285520255,22476.0118367589,nan,nan,nan,nan,nan,nan
1,135,1,1,nan,nan,nan,0,0.0,0.0,0.0,0.4960443985021288,0.10649741493726478,0.389546983564864,0.6025418134393936,0.10649741493726478,nan,8,0,3,5,4,6,nan,nan,nan,nan,nan,nan,nan,nan,nan,nan,nan,nan,0.0,nan,nan,nan,nan,nan,nan,nan,nan,nan,nan,nan,nan,nan,nan,nan,nan,nan,nan,22268.13285520255,22477.03696057759,nan,nan,nan,nan,nan,nan
1,136,1,1,1.0,1.0,0.05159729816659819,0,0.0,0.0,0.0,0.4960443985021288,0.10649741493726478,0.389546983564864,0.6025418134393936,0.10649741493726478,0.05159729816659819,3,5,1,7,6,4,nan,nan,nan,nan,nan,nan,nan,nan,nan,nan,nan,nan,0.0,nan,nan,nan,nan,nan,nan,nan,nan,nan,nan,nan,nan,nan,nan,nan,nan,nan,nan,22268.13285520255,22478.07877924978,nan,22478.130376547946,nan,nan,nan,nan
1,137,1,1,1.0,1.0,0.09872452208583127,0,0.0,0.0,0.0,0.492702690980809,0.11282937854092517,0.3798733124398838,0.6055320695217341,0.11282937854092517,0.07516091012621473,4,8,2,1,3,0,nan,nan,nan,nan,nan,nan,nan,nan,nan,nan,nan,nan,0.0,nan,nan,nan,nan,nan,nan,nan,nan,nan,nan,nan,nan,nan,nan,nan,nan,nan,nan,22268.13285520255,22479.095567900997,nan,22479.194292423083,nan,nan,nan,nan
1,138,1,1,nan,nan,nan,0,0.0,0.0,0.0,0.4897625553920405,0.1174102636175386,0.3723522917745019,0.6071728190095791,0.1174102636175386,0.07516091012621473,3,6,1,0,4,7,nan,nan,nan,nan,nan,nan,nan,nan,nan,nan,nan,nan,0.0,nan,nan,nan,nan,nan,nan,nan,nan,nan,nan,nan,nan,nan,nan,nan,nan,nan,nan,22268.13285520255,22480.112350280026,nan,nan,nan,nan,nan,nan
1,139,0,0,0.0,1.0,0.5931126245450287,0,0.0,0.0,0.0,0.4897625553920405,0.1174102636175386,0.3723522917745019,0.6071728190095791,0.1174102636175386,0.34591857331542997,7,3,4,6,0,2,nan,nan,nan,nan,nan,nan,nan,nan,nan,nan,nan,nan,0.0,nan,nan,nan,nan,nan,nan,nan,nan,nan,nan,nan,nan,nan,nan,nan,nan,nan,nan,22268.13285520255,22481.12915632231,nan,22481.722268946854,nan,nan,nan,nan
1,140,1,1,1.0,1.0,0.35231135824506055,0,0.0,0.0,0.0,0.49052811145984043,0.11730981130665888,0.3732183001531816,0.6078379227664993,0.11730981130665888,0.4727119913950446,2,1,8,0,4,6,nan,nan,nan,nan,nan,nan,nan,nan,nan,nan,nan,nan,0.0,nan,nan,nan,nan,nan,nan,nan,nan,nan,nan,nan,nan,nan,nan,nan,nan,nan,nan,22268.13285520255,22482.145947539422,nan,22482.498258897667,nan,nan,nan,nan
1,141,1,1,1.0,1.0,0.3675034525549563,0,0.0,0.0,0.0,0.4895118118038494,0.11747272205642349,0.3720390897474259,0.6069845338602728,0.11747272205642349,0.4376424784483485,8,2,7,3,6,4,nan,nan,nan,nan,nan,nan,nan,nan,nan,nan,nan,nan,0.0,nan,nan,nan,nan,nan,nan,nan,nan,nan,nan,nan,nan,nan,nan,nan,nan,nan,nan,22268.13285520255,22483.162749020114,nan,22483.53025247267,nan,nan,nan,nan
1,142,1,1,1.0,1.0,0.5263203810754931,0,0.0,0.0,0.0,0.488621239838529,0.11750308834647162,0.3711181514920574,0.6061243281850006,0.11750308834647162,0.4153783972918366,0,6,4,8,1,5,nan,nan,nan,nan,nan,nan,nan,nan,nan,nan,nan,nan,0.0,nan,nan,nan,nan,nan,nan,nan,nan,nan,nan,nan,nan,nan,nan,nan,nan,nan,nan,22268.13285520255,22484.18790163385,nan,22484.714222014925,nan,nan,nan,nan
1,143,0,0,0.0,1.0,0.5735237265471369,0,0.0,0.0,0.0,0.48889442202140554,0.11712023449039215,0.3717741875310134,0.6060146565117976,0.11712023449039215,0.4891158533925288,8,4,3,1,6,7,nan,nan,nan,nan,nan,nan,nan,nan,nan,nan,nan,nan,0.0,nan,nan,nan,nan,nan,nan,nan,nan,nan,nan,nan,nan,nan,nan,nan,nan,nan,nan,22268.13285520255,22485.204691425464,nan,22485.77821515201,nan,nan,nan,nan
1,144,1,1,1.0,1.0,0.37272162775843753,0,0.0,0.0,0.0,0.48950326593885685,0.11691715077752393,0.3725861151613329,0.6064204167163808,0.11691715077752393,0.4908552451270225,5,6,0,8,4,3,nan,nan,nan,nan,nan,nan,nan,nan,nan,nan,nan,nan,0.0,nan,nan,nan,nan,nan,nan,nan,nan,nan,nan,nan,nan,nan,nan,nan,nan,nan,nan,22268.13285520255,22486.221493476354,nan,22486.594215104113,nan,nan,nan,nan
1,145,1,1,1.0,1.0,0.5078847103468433,0,0.0,0.0,0.0,0.4886691113804253,0.11691320765438218,0.3717559037260431,0.6055823190348075,0.11691320765438218,0.48471002155080595,0,4,1,2,3,8,nan,nan,nan,nan,nan,nan,nan,nan,nan,nan,nan,nan,0.0,nan,nan,nan,nan,nan,nan,nan,nan,nan,nan,nan,nan,nan,nan,nan,nan,nan,nan,22268.13285520255,22487.238320330896,nan,22487.746205041243,nan,nan,nan,nan
1,146,1,1,1.0,1.0,0.4990509039380413,0,0.0,0.0,0.0,0.48880539222415875,0.11650904320335498,0.3722963490208038,0.6053144354275137,0.11650904320335498,0.45988574734777404,4,5,7,8,6,1,nan,nan,nan,nan,nan,nan,nan,nan,nan,nan,nan,nan,0.0,nan,nan,nan,nan,nan,nan,nan,nan,nan,nan,nan,nan,nan,nan,nan,nan,nan,nan,22268.13285520255,22488.25512637318,nan,22488.75417727712,nan,nan,nan,nan
1,147,1,1,1.0,1.0,0.7942080906650517,0,0.0,0.0,0.0,0.48887754371510156,0.11610123645700571,0.37277630725809585,0.6049787801721073,0.11610123645700571,0.6003812349833121,1,3,4,0,2,5,nan,nan,nan,nan,nan,nan,nan,nan,nan,nan,nan,nan,0.0,nan,nan,nan,nan,nan,nan,nan,nan,nan,nan,nan,nan,nan,nan,nan,nan,nan,nan,22268.13285520255,22489.271929849572,nan,22490.066137940237,nan,nan,nan,nan
1,148,1,1,1.0,1.0,0.5774506863490387,0,0.0,1.0,0.0,0.49101272236510124,0.1184593228348364,0.37255339953026484,0.6094720451999376,0.1184593228348364,0.6235698936507106,0,6,2,1,7,3,nan,nan,nan,nan,nan,nan,nan,nan,nan,nan,nan,nan,0.0,nan,nan,nan,nan,nan,nan,nan,nan,nan,nan,nan,nan,nan,nan,nan,nan,nan,nan,22268.13285520255,22490.2887125137,nan,22490.866163200048,nan,nan,nan,nan
1,149,0,0,0.0,1.0,0.6405893803857907,1,0.0,0.0,1.0,0.4916129860038786,0.11826532766701023,0.37334765833686834,0.6098783136708888,0.11826532766701023,0.6707493857999604,3,0,5,4,6,8,1.0,1.0,1.0,1.0,1.0,1.0,0.0,0.0,0.0,0.0,0.0,1.0,1.0,6.0,2.0,1.0,3.0,3.0,8.0,2.0,3.0,4.0,1.0,5.0,6.0,2.564820495685126,3.2677688231196953,3.8840654497107607,1.5577899432864797,4.524151914669346,5.115591575653525,22268.13285520255,22491.3055621762,22492.113953109125,22491.946151556585,22498.28143677578,22499.279069595057,22493.13077397658,22498.27310816559
1,150,1,1,1.0,1.0,0.5597916265141976,0,0.0,0.0,0.0,0.49264040941340903,0.11849993269623178,0.37414047671717726,0.6111403421096409,0.11849993269623178,0.5926105644163423,1,5,6,0,7,4,nan,nan,nan,nan,nan,nan,nan,nan,nan,nan,nan,nan,0.0,nan,nan,nan,nan,nan,nan,nan,nan,nan,nan,nan,nan,nan,nan,nan,nan,nan,nan,22268.13285520255,22499.498277144034,nan,22500.058068770548,nan,nan,nan,nan
1,151,1,1,1.0,1.0,0.39095088648900855,0,0.0,0.0,0.0,0.4931003492565651,0.11822321404591407,0.374877135210651,0.6113235633024792,0.11822321404591407,0.5304439644629989,2,1,8,7,5,0,nan,nan,nan,nan,nan,nan,nan,nan,nan,nan,nan,nan,0.0,nan,nan,nan,nan,nan,nan,nan,nan,nan,nan,nan,nan,nan,nan,nan,nan,nan,nan,22268.13285520255,22500.515082901216,nan,22500.906033787705,nan,nan,nan,nan
1,152,1,1,1.0,1.0,0.4061643632558116,0,0.0,0.0,0.0,0.49240545495202387,0.11811921417161245,0.3742862407804114,0.6105246691236363,0.11811921417161245,0.45230229208633926,5,8,2,6,4,3,nan,nan,nan,nan,nan,nan,nan,nan,nan,nan,nan,nan,0.0,nan,nan,nan,nan,nan,nan,nan,nan,nan,nan,nan,nan,nan,nan,nan,nan,nan,nan,22268.13285520255,22501.531866705744,nan,22501.938031069,nan,nan,nan,nan
1,153,1,1,1.0,1.0,0.46933527353030513,0,0.0,0.0,0.0,0.49182274487299543,0.11793129984638921,0.3738914450266062,0.6097540447193847,0.11793129984638921,0.42215017442504177,4,2,8,7,5,6,nan,nan,nan,nan,nan,nan,nan,nan,nan,nan,nan,nan,0.0,nan,nan,nan,nan,nan,nan,nan,nan,nan,nan,nan,nan,nan,nan,nan,nan,nan,nan,22268.13285520255,22502.54867217783,nan,22503.01800745136,nan,nan,nan,nan
1,154,1,1,1.0,1.0,0.4125277829407423,0,0.0,0.0,0.0,0.49167182224653444,0.1175492309273777,0.37412259131915676,0.6092210531739122,0.1175492309273777,0.42934247324228636,3,8,0,4,1,5,nan,nan,nan,nan,nan,nan,nan,nan,nan,nan,nan,nan,0.0,nan,nan,nan,nan,nan,nan,nan,nan,nan,nan,nan,nan,nan,nan,nan,nan,nan,nan,22268.13285520255,22503.565470807527,nan,22503.977998590468,nan,nan,nan,nan
1,155,0,0,0.0,1.0,0.6517188075522427,0,0.0,0.0,0.0,0.49114419531782916,0.11733363974815093,0.37381055556967824,0.6084778350659801,0.11733363974815093,0.5111939546744301,1,6,8,3,4,0,nan,nan,nan,nan,nan,nan,nan,nan,nan,nan,nan,nan,0.0,nan,nan,nan,nan,nan,nan,nan,nan,nan,nan,nan,nan,nan,nan,nan,nan,nan,nan,22268.13285520255,22504.58227342862,nan,22505.23399223617,nan,nan,nan,nan
1,156,1,1,1.0,1.0,0.37085679226584034,0,0.0,0.0,0.0,0.4922076033458716,0.11766747687532036,0.37454012647055124,0.609875080221192,0.11766747687532036,0.4783677942529418,6,2,5,1,7,3,nan,nan,nan,nan,nan,nan,nan,nan,nan,nan,nan,nan,0.0,nan,nan,nan,nan,nan,nan,nan,nan,nan,nan,nan,nan,nan,nan,nan,nan,nan,nan,22268.13285520255,22505.5991316441,nan,22505.969988436365,nan,nan,nan,nan
1,157,1,1,1.0,1.0,0.4100759276843746,0,0.0,0.0,0.0,0.49140924274666087,0.11768937817877843,0.3737198645678824,0.6090986209254393,0.11768937817877843,0.47755050916748587,4,0,6,3,8,7,nan,nan,nan,nan,nan,nan,nan,nan,nan,nan,nan,nan,0.0,nan,nan,nan,nan,nan,nan,nan,nan,nan,nan,nan,nan,nan,nan,nan,nan,nan,nan,22268.13285520255,22506.615878955898,nan,22507.025954883582,nan,nan,nan,nan
1,158,1,1,1.0,1.0,0.5132428693796101,0,0.0,0.0,0.0,0.49087765245213616,0.11748708487014237,0.3733905675819938,0.6083647373222785,0.11748708487014237,0.43139186310994165,7,6,2,5,4,3,nan,nan,nan,nan,nan,nan,nan,nan,nan,nan,nan,nan,0.0,nan,nan,nan,nan,nan,nan,nan,nan,nan,nan,nan,nan,nan,nan,nan,nan,nan,nan,22268.13285520255,22507.632707806137,nan,22508.145950675516,nan,nan,nan,nan
1,159,1,1,1.0,1.0,0.5044772017390642,0,0.0,0.0,0.0,0.49102288113348336,0.11711878937181762,0.3739040917616657,0.608141670505301,0.11711878937181762,0.4759319996010163,2,1,6,8,3,7,nan,nan,nan,nan,nan,nan,nan,nan,nan,nan,nan,nan,0.0,nan,nan,nan,nan,nan,nan,nan,nan,nan,nan,nan,nan,nan,nan,nan,nan,nan,nan,22268.13285520255,22508.649470513305,nan,22509.153947715044,nan,nan,nan,nan
1,160,1,1,1.0,1.0,0.5276133070728974,0,0.0,0.0,0.0,0.49110968320190646,0.11674534508268918,0.37436433811921727,0.6078550282845956,0.11674534508268918,0.5151111260638572,0,2,3,7,4,6,nan,nan,nan,nan,nan,nan,nan,nan,nan,nan,nan,nan,0.0,nan,nan,nan,nan,nan,nan,nan,nan,nan,nan,nan,nan,nan,nan,nan,nan,nan,nan,22268.13285520255,22509.66631818011,nan,22510.19393148718,nan,nan,nan,nan
1,161,0,0,0.0,1.0,0.6067885599877627,0,0.0,0.0,0.0,0.4913436807908231,0.11640701942002263,0.37493666137080045,0.6077507002108458,0.11640701942002263,0.5462930229332414,2,8,4,1,6,5,nan,nan,nan,nan,nan,nan,nan,nan,nan,nan,nan,nan,0.0,nan,nan,nan,nan,nan,nan,nan,nan,nan,nan,nan,nan,nan,nan,nan,nan,nan,nan,22268.13285520255,22510.68312878398,nan,22511.28991734397,nan,nan,nan,nan
1,162,1,1,1.0,1.0,0.3176672136760317,0,0.0,0.0,0.0,0.4920789984927144,0.1163985937388809,0.3756804047538335,0.6084775922315953,0.1163985937388809,0.4840230269122306,7,1,2,6,5,8,nan,nan,nan,nan,nan,nan,nan,nan,nan,nan,nan,nan,0.0,nan,nan,nan,nan,nan,nan,nan,nan,nan,nan,nan,nan,nan,nan,nan,nan,nan,nan,22268.13285520255,22511.70825003678,nan,22512.025917250456,nan,nan,nan,nan
1,163,1,1,1.0,1.0,0.5648512864245276,0,0.0,0.0,0.0,0.4909751264369126,0.11685115124353823,0.37412397519337437,0.6078262776804508,0.11685115124353823,0.4964356866961073,0,4,5,8,3,6,nan,nan,nan,nan,nan,nan,nan,nan,nan,nan,nan,nan,0.0,nan,nan,nan,nan,nan,nan,nan,nan,nan,nan,nan,nan,nan,nan,nan,nan,nan,nan,22268.13285520255,22512.725058930057,nan,22513.28991021648,nan,nan,nan,nan
1,164,1,1,1.0,1.0,0.5159935088558996,0,0.0,0.0,0.0,0.49143975637394166,0.11662943591988534,0.3748103204540563,0.608069192293827,0.11662943591988534,0.466170669652153,5,0,6,3,1,4,nan,nan,nan,nan,nan,nan,nan,nan,nan,nan,nan,nan,0.0,nan,nan,nan,nan,nan,nan,nan,nan,nan,nan,nan,nan,nan,nan,nan,nan,nan,nan,22268.13285520255,22513.741862121344,nan,22514.2578556302,nan,nan,nan,nan
1,165,1,1,1.0,1.0,0.5552374479266291,0,0.0,0.0,0.0,0.4915932173269539,0.1162804998987954,0.37531271742815847,0.6078737172257492,0.1162804998987954,0.5453607477356854,3,1,2,7,4,8,nan,nan,nan,nan,nan,nan,nan,nan,nan,nan,nan,nan,0.0,nan,nan,nan,nan,nan,nan,nan,nan,nan,nan,nan,nan,nan,nan,nan,nan,nan,nan,22268.13285520255,22514.758627394407,nan,22515.313864842334,nan,nan,nan,nan
1,166,1,1,1.0,1.0,0.4740813240459829,0,0.0,0.0,0.0,0.4919885231070761,0.11602661330583217,0.3759619098012439,0.6080151364129083,0.11602661330583217,0.5151040936095038,6,0,5,4,2,3,nan,nan,nan,nan,nan,nan,nan,nan,nan,nan,nan,nan,0.0,nan,nan,nan,nan,nan,nan,nan,nan,nan,nan,nan,nan,nan,nan,nan,nan,nan,nan,22268.13285520255,22515.783773735955,nan,22516.25785506,nan,nan,nan,nan
1,167,1,1,1.0,1.0,0.513254843554023,0,0.0,0.0,0.0,0.4918779848412669,0.11567645551966528,0.3762015293216016,0.6075544403609322,0.11567645551966528,0.514191205175545,3,7,8,6,0,5,nan,nan,nan,nan,nan,nan,nan,nan,nan,nan,nan,nan,0.0,nan,nan,nan,nan,nan,nan,nan,nan,nan,nan,nan,nan,nan,nan,nan,nan,nan,nan,22268.13285520255,22516.800577782542,nan,22517.313832626096,nan,nan,nan,nan
1,168,1,1,1.0,1.0,0.5844359079346759,0,0.0,0.0,0.0,0.4920091312137378,0.1153331538425536,0.3766759773711842,0.6073422850562914,0.1153331538425536,0.5239240251782272,8,6,4,1,5,2,nan,nan,nan,nan,nan,nan,nan,nan,nan,nan,nan,nan,0.0,nan,nan,nan,nan,nan,nan,nan,nan,nan,nan,nan,nan,nan,nan,nan,nan,nan,nan,22268.13285520255,22517.817393803307,nan,22518.40182971124,nan,nan,nan,nan
1,169,0,0,0.0,1.0,0.631615305050218,0,0.0,0.0,0.0,0.49257270912057277,0.1152059039109683,0.3773668052096045,0.607778613031541,0.1152059039109683,0.5764353521796389,5,0,7,2,6,3,nan,nan,nan,nan,nan,nan,nan,nan,nan,nan,nan,nan,0.0,nan,nan,nan,nan,nan,nan,nan,nan,nan,nan,nan,nan,nan,nan,nan,nan,nan,nan,22268.13285520255,22518.834197849894,nan,22519.465813154944,nan,nan,nan,nan
1,170,1,1,1.0,1.0,0.36680467380574555,0,0.0,0.0,0.0,0.49341539152014635,0.11536212611175845,0.3780532654083879,0.6087775176319048,0.11536212611175845,0.5276186289302132,7,1,5,6,8,4,nan,nan,nan,nan,nan,nan,nan,nan,nan,nan,nan,nan,0.0,nan,nan,nan,nan,nan,nan,nan,nan,nan,nan,nan,nan,nan,nan,nan,nan,nan,nan,22268.13285520255,22519.850991632902,nan,22520.217796306708,nan,nan,nan,nan
1,171,1,1,1.0,1.0,0.5420496027400077,0,0.0,0.0,0.0,0.49265267635319215,0.11543065067663037,0.37722202567656177,0.6080833270298225,0.11543065067663037,0.5134898605319904,8,0,7,5,2,1,nan,nan,nan,nan,nan,nan,nan,nan,nan,nan,nan,nan,0.0,nan,nan,nan,nan,nan,nan,nan,nan,nan,nan,nan,nan,nan,nan,nan,nan,nan,nan,22268.13285520255,22520.867781709618,nan,22521.409831312358,nan,nan,nan,nan
1,172,1,1,1.0,1.0,0.5091890403200523,0,0.0,0.0,0.0,0.4929484663315563,0.11514761352581489,0.37780085280574144,0.6080960798573712,0.11514761352581489,0.47268110562193516,1,7,3,2,0,8,nan,nan,nan,nan,nan,nan,nan,nan,nan,nan,nan,nan,0.0,nan,nan,nan,nan,nan,nan,nan,nan,nan,nan,nan,nan,nan,nan,nan,nan,nan,nan,22268.13285520255,22521.884574637326,nan,22522.393763677646,nan,nan,nan,nan
1,173,1,1,1.0,1.0,0.5163632828407572,0,0.0,0.0,0.0,0.4930451364148212,0.11481119751785085,0.3782339388969703,0.607856333932672,0.11481119751785085,0.5225339753002723,5,6,7,3,4,1,nan,nan,nan,nan,nan,nan,nan,nan,nan,nan,nan,nan,0.0,nan,nan,nan,nan,nan,nan,nan,nan,nan,nan,nan,nan,nan,nan,nan,nan,nan,nan,22268.13285520255,22522.901389232593,nan,22523.417752515434,nan,nan,nan,nan
1,174,1,1,1.0,1.0,0.6915144140584744,0,0.0,0.0,0.0,0.49318311361260775,0.11448498465565597,0.37869812895695176,0.6076680982682637,0.11448498465565597,0.5723555790730946,4,1,0,2,3,5,nan,nan,nan,nan,nan,nan,nan,nan,nan,nan,nan,nan,0.0,nan,nan,nan,nan,nan,nan,nan,nan,nan,nan,nan,nan,nan,nan,nan,nan,nan,nan,22268.13285520255,22523.9182343335,nan,22524.60974874756,nan,nan,nan,nan
1,175,1,1,1.0,1.0,0.5627250147408631,0,0.0,0.0,0.0,0.4943497683211129,0.11515092653333192,0.37919884178778096,0.6095006948544448,0.11515092653333192,0.5902009038800315,6,7,4,1,2,3,nan,nan,nan,nan,nan,nan,nan,nan,nan,nan,nan,nan,0.0,nan,nan,nan,nan,nan,nan,nan,nan,nan,nan,nan,nan,nan,nan,nan,nan,nan,nan,22268.13285520255,22524.935019848625,nan,22525.497744863365,nan,nan,nan,nan
1,176,1,1,1.0,1.0,0.7698959501067293,0,0.0,1.0,0.0,0.49474962356333363,0.11493204027986603,0.3798175832834676,0.6096816638431997,0.11493204027986603,0.6747117929686889,7,3,5,0,4,8,nan,nan,nan,nan,nan,nan,nan,nan,nan,nan,nan,nan,0.0,nan,nan,nan,nan,nan,nan,nan,nan,nan,nan,nan,nan,nan,nan,nan,nan,nan,nan,22268.13285520255,22525.95182361011,nan,22526.721719560217,nan,nan,nan,nan
1,177,1,1,1.0,1.0,0.6170886328582128,1,0.0,0.0,1.0,0.4963493115083534,0.11649104883077319,0.37985826267758016,0.6128403603391266,0.11649104883077319,0.6499031992352684,0,4,8,1,6,5,1.0,1.0,1.0,1.0,1.0,1.0,1.0,1.0,0.0,1.0,0.0,0.0,3.0,0.0,4.0,2.0,1.0,7.0,8.0,1.0,3.0,4.0,2.0,5.0,6.0,1.757513795961131,3.500586449565162,4.148557054671983,2.6770889521685604,5.02827245699882,5.644304796398501,22268.13285520255,22526.968636779882,22527.777047954867,22527.58572541274,22534.47793529839,22535.48628272514,22528.793853712054,22534.469602696812
1,178,1,1,1.0,1.0,0.5385223523662717,0,0.0,0.0,0.0,0.4970472266606647,0.1165139601807557,0.380533266479909,0.6135611868414204,0.1165139601807557,0.6418356451104046,1,2,5,6,4,7,nan,nan,nan,nan,nan,nan,nan,nan,nan,nan,nan,nan,0.0,nan,nan,nan,nan,nan,nan,nan,nan,nan,nan,nan,nan,nan,nan,nan,nan,nan,nan,22268.13285520255,22535.70309686425,nan,22536.241619216617,nan,nan,nan,nan
1,179,1,1,1.0,1.0,0.5776864635918173,0,0.0,0.0,0.0,0.49728558945207624,0.11622096237431874,0.3810646270777575,0.613506551826395,0.11622096237431874,0.5777658162721006,3,4,2,0,6,1,nan,nan,nan,nan,nan,nan,nan,nan,nan,nan,nan,nan,0.0,nan,nan,nan,nan,nan,nan,nan,nan,nan,nan,nan,nan,nan,nan,nan,nan,nan,nan,22268.13285520255,22536.719897774743,nan,22537.297584238335,nan,nan,nan,nan
1,180,1,1,1.0,1.0,0.5368616480809578,0,0.0,0.0,0.0,0.49774502301858903,0.11604678037680954,0.3816982426417795,0.6137918033953986,0.11604678037680954,0.5510234880130156,2,8,0,6,7,5,nan,nan,nan,nan,nan,nan,nan,nan,nan,nan,nan,nan,0.0,nan,nan,nan,nan,nan,nan,nan,nan,nan,nan,nan,nan,nan,nan,nan,nan,nan,nan,22268.13285520255,22537.736719782595,nan,22538.273581430676,nan,nan,nan,nan
1,181,0,0,0.0,1.0,0.5600730196711083,0,0.0,0.0,0.0,0.4979672765700798,0.11575397800980296,0.3822132985602768,0.6137212545798827,0.11575397800980296,0.5582070437812945,7,2,6,5,1,3,nan,nan,nan,nan,nan,nan,nan,nan,nan,nan,nan,nan,0.0,nan,nan,nan,nan,nan,nan,nan,nan,nan,nan,nan,nan,nan,nan,nan,nan,nan,nan,22268.13285520255,22538.75350330202,nan,22539.313576321692,nan,nan,nan,nan
1,182,1,1,1.0,1.0,0.3592486831257702,0,0.0,0.0,0.0,0.49831815647460537,0.11552035099612584,0.3827978054784795,0.6138385074707312,0.11552035099612584,0.48539445029261213,8,0,2,6,7,1,nan,nan,nan,nan,nan,nan,nan,nan,nan,nan,nan,nan,0.0,nan,nan,nan,nan,nan,nan,nan,nan,nan,nan,nan,nan,nan,nan,nan,nan,nan,nan,22268.13285520255,22539.77030734861,nan,22540.129556031734,nan,nan,nan,nan
1,183,1,1,1.0,1.0,0.5104175338419736,0,0.0,0.0,0.0,0.4975368672984883,0.11566340353862535,0.3818734637598629,0.6132002708371136,0.11566340353862535,0.4765797455462841,6,5,8,7,2,4,nan,nan,nan,nan,nan,nan,nan,nan,nan,nan,nan,nan,0.0,nan,nan,nan,nan,nan,nan,nan,nan,nan,nan,nan,nan,nan,nan,nan,nan,nan,nan,22268.13285520255,22540.787107688906,nan,22541.297525222748,nan,nan,nan,nan
1,184,1,1,1.0,1.0,0.5176294094926561,0,0.0,0.0,0.0,0.4976088263294575,0.11534386443204325,0.38226496189741427,0.6129526907615008,0.11534386443204325,0.4624318754868,2,0,1,4,6,7,nan,nan,nan,nan,nan,nan,nan,nan,nan,nan,nan,nan,0.0,nan,nan,nan,nan,nan,nan,nan,nan,nan,nan,nan,nan,nan,nan,nan,nan,nan,nan,22268.13285520255,22541.80391629708,nan,22542.321545706574,nan,nan,nan,nan
1,185,1,1,1.0,1.0,0.6448105628223857,0,0.0,0.0,0.0,0.49772005179147527,0.11503264418490149,0.38268740760657377,0.6127526959763767,0.11503264418490149,0.5576191687190052,1,8,3,6,4,5,nan,nan,nan,nan,nan,nan,nan,nan,nan,nan,nan,nan,0.0,nan,nan,nan,nan,nan,nan,nan,nan,nan,nan,nan,nan,nan,nan,nan,nan,nan,nan,22268.13285520255,22542.820718062874,nan,22543.465528625697,nan,nan,nan,nan
1,186,1,1,nan,nan,nan,0,0.0,0.0,0.0,0.49853270654855214,0.11523139692868037,0.38330130961987174,0.6137641034772325,0.11523139692868037,0.5812199861575209,6,5,1,7,2,3,nan,nan,nan,nan,nan,nan,nan,nan,nan,nan,nan,nan,0.0,nan,nan,nan,nan,nan,nan,nan,nan,nan,nan,nan,nan,nan,nan,nan,nan,nan,nan,22268.13285520255,22543.83749844621,nan,nan,nan,nan,nan,nan
1,187,1,1,nan,nan,nan,0,0.0,0.0,0.0,0.49853270654855214,0.11523139692868037,0.38330130961987174,0.6137641034772325,0.11523139692868037,0.6448105628223857,1,0,8,2,6,7,nan,nan,nan,nan,nan,nan,nan,nan,nan,nan,nan,nan,0.0,nan,nan,nan,nan,nan,nan,nan,nan,nan,nan,nan,nan,nan,nan,nan,nan,nan,nan,22268.13285520255,22544.862639085768,nan,nan,nan,nan,nan,nan
1,188,1,1,1.0,1.0,0.07408508735898067,0,0.0,0.0,0.0,0.49853270654855214,0.11523139692868037,0.38330130961987174,0.6137641034772325,0.11523139692868037,0.07408508735898067,2,4,0,5,7,3,nan,nan,nan,nan,nan,nan,nan,nan,nan,nan,nan,nan,0.0,nan,nan,nan,nan,nan,nan,nan,nan,nan,nan,nan,nan,nan,nan,nan,nan,nan,nan,22268.13285520255,22545.879427736985,nan,22545.953512824344,nan,nan,nan,nan
1,189,1,1,1.0,1.0,0.04926603997955681,0,0.0,0.0,0.0,0.49620057677278523,0.11912071770163972,0.3770798590711455,0.615321294474425,0.11912071770163972,0.06167556366926874,6,8,7,0,5,1,nan,nan,nan,nan,nan,nan,nan,nan,nan,nan,nan,nan,0.0,nan,nan,nan,nan,nan,nan,nan,nan,nan,nan,nan,nan,nan,nan,nan,nan,nan,nan,22268.13285520255,22546.8962161031,nan,22546.94548214308,nan,nan,nan,nan
1,190,1,1,1.0,1.0,0.38440728394925827,0,1.0,0.0,0.0,0.49375831154440697,0.12327925134671926,0.3704790601976877,0.6170375628911262,0.12327925134671926,0.16925280376259857,8,0,3,4,2,7,nan,nan,nan,nan,nan,nan,nan,nan,nan,nan,nan,nan,0.0,nan,nan,nan,nan,nan,nan,nan,nan,nan,nan,nan,nan,nan,nan,nan,nan,nan,nan,22268.13285520255,22547.913058067916,nan,22548.297465351865,nan,nan,nan,nan
1,191,1,1,1.0,1.0,0.47959087088747765,1,0.0,0.0,1.0,0.49316401248138986,0.12320637661121028,0.3699576358701796,0.6163703890926001,0.12320637661121028,0.3044213982720976,2,1,4,7,5,8,1.0,1.0,1.0,1.0,1.0,1.0,1.0,0.0,0.0,1.0,1.0,1.0,4.0,2.0,0.0,1.0,7.0,5.0,8.0,1.0,4.0,3.0,2.0,6.0,5.0,1.237270309629821,3.8186108928530302,2.9562480684544425,2.075033898327092,5.546675626392243,4.72240465419236,22268.13285520255,22548.92985926351,22549.738286689164,22549.409450134397,22556.33916257169,22557.341633813707,22550.75507562548,22556.330829685012
1,192,1,1,1.0,1.0,0.3889791387045989,0,0.0,0.0,0.0,0.4930906441484498,0.12287696553791322,0.37021367861053656,0.615967609686363,0.12287696553791322,0.4176590978471116,1,7,3,8,0,6,nan,nan,nan,nan,nan,nan,nan,nan,nan,nan,nan,nan,0.0,nan,nan,nan,nan,nan,nan,nan,nan,nan,nan,nan,nan,nan,nan,nan,nan,nan,nan,22268.13285520255,22557.56436262597,nan,22557.953341764674,nan,nan,nan,nan
1,193,1,1,1.0,1.0,0.5401323089536163,0,0.0,0.0,0.0,0.4925309048718699,0.12278246854671507,0.36974843632515486,0.6153133734185849,0.12278246854671507,0.46956743951523094,4,2,5,6,1,0,nan,nan,nan,nan,nan,nan,nan,nan,nan,nan,nan,nan,0.0,nan,nan,nan,nan,nan,nan,nan,nan,nan,nan,nan,nan,nan,nan,nan,nan,nan,nan,22268.13285520255,22558.581163251365,nan,22559.12129556032,nan,nan,nan,nan
1,194,1,1,1.0,1.0,0.41136514738900587,0,0.0,0.0,0.0,0.49278545783487393,0.12250293478800693,0.370282523046867,0.6152883926228808,0.12250293478800693,0.446825531682407,6,8,1,2,0,7,nan,nan,nan,nan,nan,nan,nan,nan,nan,nan,nan,nan,0.0,nan,nan,nan,nan,nan,nan,nan,nan,nan,nan,nan,nan,nan,nan,nan,nan,nan,nan,22268.13285520255,22559.59795418338,nan,22560.00931933077,nan,nan,nan,nan
1,195,1,1,1.0,1.0,0.3305514279491035,0,0.0,0.0,0.0,0.49235237107718316,0.12232015051673294,0.3700322205604502,0.614672521593916,0.12232015051673294,0.4273496280972419,2,5,6,3,7,1,nan,nan,nan,nan,nan,nan,nan,nan,nan,nan,nan,nan,0.0,nan,nan,nan,nan,nan,nan,nan,nan,nan,nan,nan,nan,nan,nan,nan,nan,nan,nan,22268.13285520255,22560.614753953476,nan,22560.945305381425,nan,nan,nan,nan
1,196,1,1,1.0,1.0,0.3857250135988579,0,0.0,0.0,0.0,0.4914962814310028,0.12255952539087678,0.36893675604012605,0.6140558068218795,0.12255952539087678,0.37588052964565577,1,4,0,6,8,7,nan,nan,nan,nan,nan,nan,nan,nan,nan,nan,nan,nan,0.0,nan,nan,nan,nan,nan,nan,nan,nan,nan,nan,nan,nan,nan,nan,nan,nan,nan,nan,22268.13285520255,22561.631561706356,nan,22562.017286719954,nan,nan,nan,nan
1,197,1,1,1.0,1.0,0.46493305295007303,0,0.0,0.0,0.0,0.4909395905476757,0.12247592506932012,0.36846366547835563,0.6134155156169958,0.12247592506932012,0.3937364981660115,3,2,4,5,6,8,nan,nan,nan,nan,nan,nan,nan,nan,nan,nan,nan,nan,0.0,nan,nan,nan,nan,nan,nan,nan,nan,nan,nan,nan,nan,nan,nan,nan,nan,nan,nan,22268.13285520255,22562.648358055256,nan,22563.113291108206,nan,nan,nan,nan
1,198,1,1,1.0,1.0,0.4718008135569107,0,0.0,0.0,0.0,0.4908034306649658,0.12216930405660564,0.36863412660836015,0.6129727347215714,0.12216930405660564,0.44081962670194724,1,5,8,0,2,6,nan,nan,nan,nan,nan,nan,nan,nan,nan,nan,nan,nan,0.0,nan,nan,nan,nan,nan,nan,nan,nan,nan,nan,nan,nan,nan,nan,nan,nan,nan,nan,22268.13285520255,22563.67350154581,nan,22564.145302359368,nan,nan,nan,nan
1,199,0,0,0.0,1.0,0.6149831734328473,0,0.0,0.0,0.0,0.4907044587008613,0.12185841638845096,0.36884604231241036,0.6125628750893123,0.12185841638845096,0.517239013313277,7,1,0,3,8,2,nan,nan,nan,nan,nan,nan,nan,nan,nan,nan,nan,nan,0.0,nan,nan,nan,nan,nan,nan,nan,nan,nan,nan,nan,nan,nan,nan,nan,nan,nan,nan,22268.13285520255,22564.69028249934,nan,22565.305265672774,nan,nan,nan,nan
1,200,1,1,1.0,1.0,0.3981325415916217,0,0.0,0.0,0.0,0.49134838986527574,0.12186937948842633,0.3694790103768494,0.6132177693537021,0.12186937948842633,0.49497217619379325,1,0,2,8,7,5,nan,nan,nan,nan,nan,nan,nan,nan,nan,nan,nan,nan,0.0,nan,nan,nan,nan,nan,nan,nan,nan,nan,nan,nan,nan,nan,nan,nan,nan,nan,nan,22268.13285520255,22565.70711705157,nan,22566.10524959316,nan,nan,nan,nan
1,201,1,1,1.0,1.0,0.4693324225372635,0,0.0,0.0,0.0,0.4908678958020095,0.12173802607323397,0.36912986972877554,0.6126059218752435,0.12173802607323397,0.49414937918724416,8,7,4,3,1,6,nan,nan,nan,nan,nan,nan,nan,nan,nan,nan,nan,nan,0.0,nan,nan,nan,nan,nan,nan,nan,nan,nan,nan,nan,nan,nan,nan,nan,nan,nan,nan,22268.13285520255,22566.723917391864,nan,22567.1932498144,nan,nan,nan,nan
1,202,1,1,1.0,1.0,0.5725070619118924,0,0.0,0.0,0.0,0.49075745747757493,0.12143521887558388,0.36932223860199104,0.6121926763531588,0.12143521887558388,0.47999067534692585,6,5,3,7,0,2,nan,nan,nan,nan,nan,nan,nan,nan,nan,nan,nan,nan,0.0,nan,nan,nan,nan,nan,nan,nan,nan,nan,nan,nan,nan,nan,nan,nan,nan,nan,nan,22268.13285520255,22567.74069064771,nan,22568.313197709624,nan,nan,nan,nan
1,203,1,1,1.0,1.0,0.5476649214797362,0,0.0,0.0,0.0,0.4911745472961173,0.12126499098686845,0.3699095563092489,0.6124395382829858,0.12126499098686845,0.5298348019762974,4,8,1,5,2,3,nan,nan,nan,nan,nan,nan,nan,nan,nan,nan,nan,nan,0.0,nan,nan,nan,nan,nan,nan,nan,nan,nan,nan,nan,nan,nan,nan,nan,nan,nan,nan,22268.13285520255,22568.75755599068,nan,22569.30522091216,nan,nan,nan,nan
1,204,1,1,1.0,1.0,0.5868703721243946,0,0.0,0.0,0.0,0.4914613004645621,0.12102342306398522,0.3704378774005769,0.6124847235285473,0.12102342306398522,0.5690141185053411,0,2,3,1,8,7,nan,nan,nan,nan,nan,nan,nan,nan,nan,nan,nan,nan,0.0,nan,nan,nan,nan,nan,nan,nan,nan,nan,nan,nan,nan,nan,nan,nan,nan,nan,nan,22268.13285520255,22569.77433808461,nan,22570.361208456736,nan,nan,nan,nan
1,205,1,1,1.0,1.0,0.5540286262657901,0,0.0,0.0,0.0,0.4919431644628441,0.1209067320646341,0.37103643239821,0.6128498965274782,0.1209067320646341,0.5628546399566403,8,6,5,4,2,1,nan,nan,nan,nan,nan,nan,nan,nan,nan,nan,nan,nan,0.0,nan,nan,nan,nan,nan,nan,nan,nan,nan,nan,nan,nan,nan,nan,nan,nan,nan,nan,22268.13285520255,22570.791150113982,nan,22571.34517874025,nan,nan,nan,nan
1,206,1,1,1.0,1.0,0.5372000611241674,0,0.0,0.0,0.0,0.49225515170808504,0.12068243827491663,0.3715727134331684,0.6129375899830016,0.12068243827491663,0.5593663531714507,3,7,1,6,0,5,nan,nan,nan,nan,nan,nan,nan,nan,nan,nan,nan,nan,0.0,nan,nan,nan,nan,nan,nan,nan,nan,nan,nan,nan,nan,nan,nan,nan,nan,nan,nan,22268.13285520255,22571.807947603284,nan,22572.345147664408,nan,nan,nan,nan
1,207,1,1,1.0,1.0,0.5924300964652502,0,0.0,0.0,0.0,0.4924798762551654,0.1204220884087683,0.37205778784639715,0.6129019646639338,0.1204220884087683,0.5612195946184025,4,0,8,3,1,2,nan,nan,nan,nan,nan,nan,nan,nan,nan,nan,nan,nan,0.0,nan,nan,nan,nan,nan,nan,nan,nan,nan,nan,nan,nan,nan,nan,nan,nan,nan,nan,22268.13285520255,22572.824737394898,nan,22573.417167491363,nan,nan,nan,nan
1,208,1,1,1.0,1.0,0.5596348218205094,0,0.0,0.0,0.0,0.49297714103233004,0.12032783204597804,0.372649308986352,0.6133049730783081,0.12032783204597804,0.5630883264699756,8,5,4,7,2,0,nan,nan,nan,nan,nan,nan,nan,nan,nan,nan,nan,nan,0.0,nan,nan,nan,nan,nan,nan,nan,nan,nan,nan,nan,nan,nan,nan,nan,nan,nan,nan,22268.13285520255,22573.84152348022,nan,22574.40115830204,nan,nan,nan,nan
1,209,0,0,0.0,1.0,0.5988109072204679,0,0.0,0.0,0.0,0.4933071295510834,0.12012076164271861,0.3731863679083648,0.613427891193802,0.12012076164271861,0.5836252751687425,5,8,7,4,6,1,nan,nan,nan,nan,nan,nan,nan,nan,nan,nan,nan,nan,0.0,nan,nan,nan,nan,nan,nan,nan,nan,nan,nan,nan,nan,nan,nan,nan,nan,nan,nan,22268.13285520255,22574.858323250315,nan,22575.457134157536,nan,nan,nan,nan
1,210,1,1,1.0,1.0,0.5819988778494007,0,0.0,0.0,0.0,0.4938268525937897,0.12005199375735975,0.37377485883642997,0.6138788463511495,0.12005199375735975,0.5801482022967926,6,7,0,2,4,5,nan,nan,nan,nan,nan,nan,nan,nan,nan,nan,nan,nan,0.0,nan,nan,nan,nan,nan,nan,nan,nan,nan,nan,nan,nan,nan,nan,nan,nan,nan,nan,22268.13285520255,22575.875122165115,nan,22576.457121042964,nan,nan,nan,nan
1,211,1,1,1.0,1.0,0.605185445787356,0,0.0,0.0,0.0,0.49425906840386624,0.11991561332979316,0.3743434550740731,0.6141746817336594,0.11991561332979316,0.5953317436190749,0,4,2,6,8,1,nan,nan,nan,nan,nan,nan,nan,nan,nan,nan,nan,nan,0.0,nan,nan,nan,nan,nan,nan,nan,nan,nan,nan,nan,nan,nan,nan,nan,nan,nan,nan,22268.13285520255,22576.891929347796,nan,22577.497114793583,nan,nan,nan,nan
1,212,1,1,1.0,1.0,0.5083696645087912,0,0.0,0.0,0.0,0.49480017268378573,0.11987217826064238,0.37492799442314334,0.6146723509444281,0.11987217826064238,0.5651846627151826,6,7,4,3,5,8,nan,nan,nan,nan,nan,nan,nan,nan,nan,nan,nan,nan,0.0,nan,nan,nan,nan,nan,nan,nan,nan,nan,nan,nan,nan,nan,nan,nan,nan,nan,nan,22268.13285520255,22577.908727692393,nan,22578.4170973569,nan,nan,nan,nan
1,213,1,1,1.0,1.0,0.3075550213434326,0,0.0,0.0,0.0,0.49486604400332457,0.11958459160297281,0.37528145240035177,0.6144506356062974,0.11958459160297281,0.4737033772131933,1,8,7,6,2,0,nan,nan,nan,nan,nan,nan,nan,nan,nan,nan,nan,nan,0.0,nan,nan,nan,nan,nan,nan,nan,nan,nan,nan,nan,nan,nan,nan,nan,nan,nan,nan,22268.13285520255,22578.92553202408,nan,22579.233087045424,nan,nan,nan,nan
1,214,1,1,1.0,1.0,0.38640212478640024,0,0.0,0.0,0.0,0.4939611598358855,0.12000027539207855,0.37396088444380693,0.6139614352279641,0.12000027539207855,0.400775603546208,6,5,2,4,7,1,nan,nan,nan,nan,nan,nan,nan,nan,nan,nan,nan,nan,0.0,nan,nan,nan,nan,nan,nan,nan,nan,nan,nan,nan,nan,nan,nan,nan,nan,nan,nan,22268.13285520255,22579.95067722523,nan,22580.337079350018,nan,nan,nan,nan
1,215,1,1,1.0,1.0,0.4495533632034494,0,0.0,0.0,0.0,0.49344404909045525,0.11994243426099296,0.3735016148294623,0.6133864833514482,0.11994243426099296,0.38117016977776075,7,4,6,8,2,3,nan,nan,nan,nan,nan,nan,nan,nan,nan,nan,nan,nan,0.0,nan,nan,nan,nan,nan,nan,nan,nan,nan,nan,nan,nan,nan,nan,nan,nan,nan,nan,22268.13285520255,22580.967498947983,nan,22581.417052311186,nan,nan,nan,nan
1,216,1,1,1.0,1.0,0.5527488148436532,0,0.0,0.0,0.0,0.4932340458086993,0.11969347179341194,0.37354057401528734,0.6129275176021112,0.11969347179341194,0.4629014342778343,1,8,4,0,5,2,nan,nan,nan,nan,nan,nan,nan,nan,nan,nan,nan,nan,0.0,nan,nan,nan,nan,nan,nan,nan,nan,nan,nan,nan,nan,nan,nan,nan,nan,nan,nan,22268.13285520255,22581.984301283974,nan,22582.537050098817,nan,nan,nan,nan
1,217,1,1,1.0,1.0,0.4559341739586671,0,0.0,0.0,0.0,0.4935174494707705,0.11947841653524297,0.37403903293552754,0.6129958660060134,0.11947841653524297,0.4860787840019232,4,3,8,2,0,5,nan,nan,nan,nan,nan,nan,nan,nan,nan,nan,nan,nan,0.0,nan,nan,nan,nan,nan,nan,nan,nan,nan,nan,nan,nan,nan,nan,nan,nan,nan,nan,22268.13285520255,22583.001103905066,nan,22583.457038079025,nan,nan,nan,nan
1,218,1,1,1.0,1.0,0.5431224319690955,0,0.0,0.0,0.0,0.4933393296816136,0.1192229011208861,0.37411642856072747,0.6125622308024997,0.1192229011208861,0.5172684735904719,2,0,5,1,4,7,nan,nan,nan,nan,nan,nan,nan,nan,nan,nan,nan,nan,0.0,nan,nan,nan,nan,nan,nan,nan,nan,nan,nan,nan,nan,nan,nan,nan,nan,nan,nan,22268.13285520255,22584.017904530458,nan,22584.561026962427,nan,nan,nan,nan
1,219,1,1,1.0,1.0,0.48629726521176053,0,0.0,0.0,0.0,0.4935741556357998,0.11899028418624742,0.3745838714495524,0.6125644398220472,0.11899028418624742,0.4951179570465077,4,6,3,0,5,1,nan,nan,nan,nan,nan,nan,nan,nan,nan,nan,nan,nan,0.0,nan,nan,nan,nan,nan,nan,nan,nan,nan,nan,nan,nan,nan,nan,nan,nan,nan,nan,22268.13285520255,22585.034714849233,nan,22585.521012114445,nan,nan,nan,nan
1,220,1,1,1.0,1.0,0.47748997305097873,0,0.0,0.0,0.0,0.4935399918309921,0.11871167784793375,0.3748283139830584,0.6122516696789259,0.11871167784793375,0.5023032234106116,0,7,4,8,3,2,nan,nan,nan,nan,nan,nan,nan,nan,nan,nan,nan,nan,0.0,nan,nan,nan,nan,nan,nan,nan,nan,nan,nan,nan,nan,nan,nan,nan,nan,nan,nan,22268.13285520255,22586.051522602116,nan,22586.529012575167,nan,nan,nan,nan
1,221,1,1,1.0,1.0,0.4606799393768597,0,0.0,0.0,0.0,0.49346499174323505,0.11843904743356179,0.3750259443096733,0.6119040391767968,0.11843904743356179,0.47482239254653297,8,6,2,5,7,0,nan,nan,nan,nan,nan,nan,nan,nan,nan,nan,nan,nan,0.0,nan,nan,nan,nan,nan,nan,nan,nan,nan,nan,nan,nan,nan,nan,nan,nan,nan,nan,22268.13285520255,22587.068312678828,nan,22587.528992618205,nan,nan,nan,nan
1,222,1,1,1.0,1.0,0.4118612204292731,0,0.0,0.0,0.0,0.49331250312757746,0.11818434089606243,0.375128162231515,0.6114968440236399,0.11818434089606243,0.45001037761903717,0,4,1,7,2,6,nan,nan,nan,nan,nan,nan,nan,nan,nan,nan,nan,nan,0.0,nan,nan,nan,nan,nan,nan,nan,nan,nan,nan,nan,nan,nan,nan,nan,nan,nan,nan,22268.13285520255,22588.0851264188,nan,22588.496987639228,nan,nan,nan,nan
1,223,0,0,1.0,0.0,0.3470221932802815,0,0.0,0.0,0.0,0.49293541385582607,0.11804001911136396,0.3748953947444621,0.61097543296719,0.11804001911136396,0.40652111769547145,8,5,6,4,7,0,nan,nan,nan,nan,nan,nan,nan,nan,nan,nan,nan,nan,0.0,nan,nan,nan,nan,nan,nan,nan,nan,nan,nan,nan,nan,nan,nan,nan,nan,nan,nan,22268.13285520255,22589.1019224826,nan,22589.44894467588,nan,nan,nan,nan
1,224,1,1,1.0,1.0,0.47427291087660706,0,0.0,0.0,0.0,0.49226300270110007,0.11818163234234191,0.37408137035875816,0.610444635043442,0.11818163234234191,0.41105210819538723,1,0,8,7,5,4,nan,nan,nan,nan,nan,nan,nan,nan,nan,nan,nan,nan,0.0,nan,nan,nan,nan,nan,nan,nan,nan,nan,nan,nan,nan,nan,nan,nan,nan,nan,nan,22268.13285520255,22590.118684904668,nan,22590.592957815545,nan,nan,nan,nan
1,225,1,1,1.0,1.0,0.6734217179619009,0,0.0,0.0,0.0,0.49218047934410697,0.11791652842283416,0.3742639509212728,0.6100970077669411,0.11791652842283416,0.4982389407062631,4,6,7,2,0,1,nan,nan,nan,nan,nan,nan,nan,nan,nan,nan,nan,nan,0.0,nan,nan,nan,nan,nan,nan,nan,nan,nan,nan,nan,nan,nan,nan,nan,nan,nan,nan,22268.13285520255,22591.135515465507,nan,22591.80893718347,nan,nan,nan,nan
1,226,1,1,1.0,1.0,0.6646520589310967,0,0.0,0.0,0.0,0.4930080649085718,0.11827986058838358,0.3747282043201882,0.6112879254969554,0.11827986058838358,0.6041155625898682,3,4,1,7,2,5,nan,nan,nan,nan,nan,nan,nan,nan,nan,nan,nan,nan,0.0,nan,nan,nan,nan,nan,nan,nan,nan,nan,nan,nan,nan,nan,nan,nan,nan,nan,nan,22268.13285520255,22592.152272755782,nan,22592.816924814713,nan,nan,nan,nan
1,227,1,1,1.0,1.0,0.5837853109915159,0,0.0,1.0,0.0,0.49378826488140143,0.11857420406267594,0.3752140608187255,0.6123624689440774,0.11857420406267594,0.6406196959615045,7,6,4,0,1,8,nan,nan,nan,nan,nan,nan,nan,nan,nan,nan,nan,nan,0.0,nan,nan,nan,nan,nan,nan,nan,nan,nan,nan,nan,nan,nan,nan,nan,nan,nan,nan,22268.13285520255,22593.169104171917,nan,22593.75288948291,nan,nan,nan,nan
1,228,1,1,1.0,1.0,0.7429235465897364,1,0.0,0.0,1.0,0.4941954913343884,0.11845972319570061,0.3757357681386878,0.612655214530089,0.11845972319570061,0.663786972170783,1,4,2,8,0,6,1.0,1.0,1.0,1.0,1.0,1.0,1.0,1.0,1.0,1.0,0.0,0.0,4.0,1.0,4.0,2.0,8.0,2.0,7.0,1.0,3.0,4.0,2.0,6.0,5.0,1.4129976268304745,3.47535144208814,3.9778044377417245,2.2825788841655594,7.4181510844609875,5.202683755145699,22268.13285520255,22594.185909358905,22594.994323099785,22594.928832905494,22603.470433191505,22604.468712046135,22596.01114453744,22603.46210999821
1,229,1,1,1.0,1.0,0.4174879431448062,0,0.0,0.0,0.0,0.49531588797968273,0.11936043910015671,0.37595544887952603,0.6146763270798394,0.11936043910015671,0.5813989335753528,8,1,0,5,3,2,nan,nan,nan,nan,nan,nan,nan,nan,nan,nan,nan,nan,0.0,nan,nan,nan,nan,nan,nan,nan,nan,nan,nan,nan,nan,nan,nan,nan,nan,nan,nan,22268.13285520255,22604.687314899184,nan,22605.10480284233,nan,nan,nan,nan
1,230,1,1,1.0,1.0,0.3526717239510617,0,0.0,0.0,0.0,0.49496688374275505,0.1192059872326215,0.37576089651013356,0.6141728709753765,0.1192059872326215,0.5043610712285348,2,4,3,1,0,5,nan,nan,nan,nan,nan,nan,nan,nan,nan,nan,nan,nan,0.0,nan,nan,nan,nan,nan,nan,nan,nan,nan,nan,nan,nan,nan,nan,nan,nan,nan,nan,22268.13285520255,22605.70409927391,nan,22606.05677099786,nan,nan,nan,nan
1,231,0,0,0.0,1.0,0.5358754890876298,0,0.0,0.0,0.0,0.49433163749368497,0.1193173018466637,0.37501433564702125,0.6136489393403487,0.1193173018466637,0.4353450520611659,4,3,7,0,6,8,nan,nan,nan,nan,nan,nan,nan,nan,nan,nan,nan,nan,0.0,nan,nan,nan,nan,nan,nan,nan,nan,nan,nan,nan,nan,nan,nan,nan,nan,nan,nan,22268.13285520255,22606.72089590791,nan,22607.256771397,nan,nan,nan,nan
1,232,1,1,1.0,1.0,0.40704760134394746,0,0.0,0.0,0.0,0.49451627683410254,0.11908392501740019,0.37543235181670237,0.6136002018515028,0.11908392501740019,0.43186493812754634,3,4,8,1,0,2,nan,nan,nan,nan,nan,nan,nan,nan,nan,nan,nan,nan,0.0,nan,nan,nan,nan,nan,nan,nan,nan,nan,nan,nan,nan,nan,nan,nan,nan,nan,nan,22268.13285520255,22607.7376993843,nan,22608.144746985643,nan,nan,nan,nan
1,233,1,1,1.0,1.0,0.39825057276539155,0,0.0,0.0,0.0,0.49412924729653546,0.11896191265400646,0.375167334642529,0.613091159950542,0.11896191265400646,0.44705788773232297,1,2,4,8,6,7,nan,nan,nan,nan,nan,nan,nan,nan,nan,nan,nan,nan,0.0,nan,nan,nan,nan,nan,nan,nan,nan,nan,nan,nan,nan,nan,nan,nan,nan,nan,nan,22268.13285520255,22608.754504571283,nan,22609.15275514405,nan,nan,nan,nan
1,234,0,0,0.0,1.0,0.5253570300374122,0,0.0,0.0,0.0,0.49370687428097976,0.11886930425854397,0.3748375700224358,0.6125761785395237,0.11886930425854397,0.44355173471558373,2,7,0,3,8,1,nan,nan,nan,nan,nan,nan,nan,nan,nan,nan,nan,nan,0.0,nan,nan,nan,nan,nan,nan,nan,nan,nan,nan,nan,nan,nan,nan,nan,nan,nan,nan,22268.13285520255,22609.771359935774,nan,22610.29671696581,nan,nan,nan,nan
1,235,1,1,1.0,1.0,0.484586668520933,0,0.0,0.0,0.0,0.4938456907535957,0.11862677813987352,0.3752189126137222,0.6124724688934692,0.11862677813987352,0.4693980904412456,6,5,8,0,3,7,nan,nan,nan,nan,nan,nan,nan,nan,nan,nan,nan,nan,0.0,nan,nan,nan,nan,nan,nan,nan,nan,nan,nan,nan,nan,nan,nan,nan,nan,nan,nan,22268.13285520255,22610.78812378334,nan,22611.27271045186,nan,nan,nan,nan
1,236,1,1,1.0,1.0,0.5317532361623307,0,0.0,0.0,0.0,0.4938052583420994,0.11836905877555685,0.3754361995665425,0.6121743171176562,0.11836905877555685,0.5138989782402253,7,6,3,8,4,0,nan,nan,nan,nan,nan,nan,nan,nan,nan,nan,nan,nan,0.0,nan,nan,nan,nan,nan,nan,nan,nan,nan,nan,nan,nan,nan,nan,nan,nan,nan,nan,22268.13285520255,22611.804938378606,nan,22612.336691614768,nan,nan,nan,nan
1,237,1,1,1.0,1.0,0.6109641265065875,0,0.0,0.0,0.0,0.4939702495500134,0.11813784121519859,0.3758324083348148,0.612108090765212,0.11813784121519859,0.5424346770632837,3,4,8,5,1,2,nan,nan,nan,nan,nan,nan,nan,nan,nan,nan,nan,nan,0.0,nan,nan,nan,nan,nan,nan,nan,nan,nan,nan,nan,nan,nan,nan,nan,nan,nan,nan,22268.13285520255,22612.82172474903,nan,22613.432688875535,nan,nan,nan,nan
1,238,1,1,1.0,1.0,0.7300926459174661,0,0.0,1.0,0.0,0.4944767165498254,0.11813182717923167,0.37634488937059374,0.612608543729057,0.11813182717923167,0.6242700028621281,8,7,0,6,3,1,nan,nan,nan,nan,nan,nan,nan,nan,nan,nan,nan,nan,0.0,nan,nan,nan,nan,nan,nan,nan,nan,nan,nan,nan,nan,nan,nan,nan,nan,nan,nan,22268.13285520255,22613.838553884365,nan,22614.568646530282,nan,nan,nan,nan
1,239,1,1,1.0,1.0,0.7693408614795771,1,0.0,0.0,1.0,0.49549230245227216,0.11888327879852745,0.3766090236537447,0.6143755812507996,0.11888327879852745,0.703465877967877,1,0,3,7,5,8,1.0,1.0,1.0,1.0,1.0,1.0,1.0,1.0,0.0,1.0,0.0,0.0,3.0,1.0,0.0,6.0,7.0,2.0,5.0,1.0,2.0,4.0,3.0,5.0,6.0,1.2125114182308607,2.229325443298876,3.6213599927905307,2.9650191529799486,4.372183930197934,5.052424086567044,22268.13285520255,22614.855326570014,22615.663775948327,22615.624667431493,22621.77292256585,22622.782910454825,22616.680570871733,22621.764592530166
1,240,1,1,1.0,1.0,0.226111232121184,0,0.0,0.0,0.0,0.496667618156252,0.119971052617971,0.376696565538281,0.616638670774223,0.119971052617971,0.5751815798394091,4,8,2,6,1,3,nan,nan,nan,nan,nan,nan,nan,nan,nan,nan,nan,nan,0.0,nan,nan,nan,nan,nan,nan,nan,nan,nan,nan,nan,nan,nan,nan,nan,nan,nan,nan,22268.13285520255,22623.006458072705,nan,22623.232569304826,nan,nan,nan,nan
1,241,1,1,1.0,1.0,0.44097785689882585,0,0.0,0.0,0.0,0.49551139428430724,0.12100839470617689,0.3745029995781304,0.6165197889904841,0.12100839470617689,0.4788099834998623,3,0,1,4,7,5,nan,nan,nan,nan,nan,nan,nan,nan,nan,nan,nan,nan,0.0,nan,nan,nan,nan,nan,nan,nan,nan,nan,nan,nan,nan,nan,nan,nan,nan,nan,nan,22268.13285520255,22624.031561934433,nan,22624.47253979133,nan,nan,nan,nan
1,242,1,1,1.0,1.0,0.5121740315444185,0,0.0,0.0,0.0,0.4952793366784116,0.1208028223512987,0.37447651432711293,0.6160821590297103,0.1208028223512987,0.3930877068548095,0,5,3,7,4,2,nan,nan,nan,nan,nan,nan,nan,nan,nan,nan,nan,nan,0.0,nan,nan,nan,nan,nan,nan,nan,nan,nan,nan,nan,nan,nan,nan,nan,nan,nan,nan,22268.13285520255,22625.048383657188,nan,22625.560557688732,nan,nan,nan,nan
1,243,1,1,1.0,1.0,0.5433419585424417,0,0.0,0.0,0.0,0.4953509243685218,0.1205516076447243,0.3747993167237975,0.6159025320132461,0.1205516076447243,0.49883128232856205,5,3,4,1,0,6,nan,nan,nan,nan,nan,nan,nan,nan,nan,nan,nan,nan,0.0,nan,nan,nan,nan,nan,nan,nan,nan,nan,nan,nan,nan,nan,nan,nan,nan,nan,nan,22268.13285520255,22626.065188273973,nan,22626.608530232515,nan,nan,nan,nan
1,244,1,1,1.0,1.0,0.6545501301770855,0,0.0,0.0,0.0,0.4955534181836016,0.12033722459009596,0.37521619359350566,0.6158906427736975,0.12033722459009596,0.570022040087982,4,0,8,6,7,5,nan,nan,nan,nan,nan,nan,nan,nan,nan,nan,nan,nan,0.0,nan,nan,nan,nan,nan,nan,nan,nan,nan,nan,nan,nan,nan,nan,nan,nan,nan,nan,22268.13285520255,22627.08196666161,nan,22627.73651679179,nan,nan,nan,nan
1,245,1,1,nan,nan,nan,0,0.0,0.0,0.0,0.49622147159533897,0.12052375236724404,0.3756977192280949,0.616745223962583,0.12052375236724404,0.5989460443597636,2,8,0,7,5,1,nan,nan,nan,nan,nan,nan,nan,nan,nan,nan,nan,nan,0.0,nan,nan,nan,nan,nan,nan,nan,nan,nan,nan,nan,nan,nan,nan,nan,nan,nan,nan,22268.13285520255,22628.098747044944,nan,nan,nan,nan,nan,nan
1,246,1,1,1.0,1.0,0.7888909859539126,0,0.0,0.0,0.0,0.49622147159533897,0.12052375236724404,0.3756977192280949,0.616745223962583,0.12052375236724404,0.7217205580654991,0,4,8,3,1,7,nan,nan,nan,nan,nan,nan,nan,nan,nan,nan,nan,nan,0.0,nan,nan,nan,nan,nan,nan,nan,nan,nan,nan,nan,nan,nan,nan,nan,nan,nan,nan,22268.13285520255,22629.115560784914,nan,22629.904451770868,nan,nan,nan,nan
1,247,1,1,1.0,1.0,0.6601232541943318,0,0.0,0.0,0.0,0.4974460302328225,0.12174599864047785,0.37570003159234466,0.6191920288733004,0.12174599864047785,0.7245071200741222,1,5,3,7,6,4,nan,nan,nan,nan,nan,nan,nan,nan,nan,nan,nan,nan,0.0,nan,nan,nan,nan,nan,nan,nan,nan,nan,nan,nan,nan,nan,nan,nan,nan,nan,nan,22268.13285520255,22630.132352287124,nan,22630.79247554132,nan,nan,nan,nan
1,248,1,1,1.0,1.0,0.6833015542470093,0,0.0,1.0,0.0,0.4981238519993288,0.12194316793148074,0.37618068406784805,0.6200670199308096,0.12194316793148074,0.7107719314650845,3,8,5,1,0,2,nan,nan,nan,nan,nan,nan,nan,nan,nan,nan,nan,nan,0.0,nan,nan,nan,nan,nan,nan,nan,nan,nan,nan,nan,nan,nan,nan,nan,nan,nan,nan,22268.13285520255,22631.149175720475,nan,22631.832477274722,nan,nan,nan,nan
1,249,0,0,0.0,1.0,0.722481345943379,1,0.0,0.0,1.0,0.4988922242078254,0.12227072175862447,0.37662150244920095,0.6211629459664498,0.12227072175862447,0.6886353847949067,2,0,1,5,7,6,1.0,1.0,1.0,1.0,1.0,1.0,1.0,0.0,0.0,0.0,1.0,1.0,3.0,2.0,1.0,0.0,4.0,7.0,6.0,1.0,6.0,5.0,4.0,3.0,2.0,1.3582736430107616,5.3649558038850955,4.588976971946977,3.9894886684378434,3.1669981422928686,2.303030207996926,22268.13285520255,22632.165971784278,22632.974377827475,22632.88845313022,22639.400210631473,22640.41071312495,22633.999520747828,22639.39186976201
1,250,1,1,1.0,1.0,0.23056619609997142,0,0.0,0.0,0.0,0.4998161461984682,0.12285795570396678,0.3769581904945014,0.622674101902435,0.12285795570396678,0.5454496987634533,1,7,3,4,2,5,nan,nan,nan,nan,nan,nan,nan,nan,nan,nan,nan,nan,0.0,nan,nan,nan,nan,nan,nan,nan,nan,nan,nan,nan,nan,nan,nan,nan,nan,nan,nan,22268.13285520255,22640.633803443317,nan,22640.864369639417,nan,nan,nan,nan
1,251,1,1,1.0,1.0,0.4297158584849967,0,0.0,0.0,0.0,0.49870812171246615,0.1238106197169657,0.3748975019955004,0.6225187414294319,0.1238106197169657,0.460921133509449,5,2,1,8,7,4,nan,nan,nan,nan,nan,nan,nan,nan,nan,nan,nan,nan,0.0,nan,nan,nan,nan,nan,nan,nan,nan,nan,nan,nan,nan,nan,nan,nan,nan,nan,nan,22268.13285520255,22641.65059979222,nan,22642.080315650706,nan,nan,nan,nan
1,252,1,1,1.0,1.0,0.38096869950095424,0,1.0,0.0,0.0,0.4984253665353044,0.12363524363331242,0.374790122901992,0.6220606101686168,0.12363524363331242,0.3470835846953075,1,8,6,4,3,7,nan,nan,nan,nan,nan,nan,nan,nan,nan,nan,nan,nan,0.0,nan,nan,nan,nan,nan,nan,nan,nan,nan,nan,nan,nan,nan,nan,nan,nan,nan,nan,22268.13285520255,22642.667359078194,nan,22643.048327777695,nan,nan,nan,nan
1,253,1,1,1.0,1.0,0.3721437311760383,1,0.0,0.0,1.0,0.49794595156781724,0.12360972295823972,0.3743362286095775,0.621555674526057,0.12360972295823972,0.39427609638732974,0,7,1,2,4,3,1.0,1.0,1.0,1.0,1.0,1.0,0.0,0.0,1.0,1.0,0.0,0.0,2.0,8.0,6.0,1.0,2.0,0.0,7.0,5.0,6.0,1.0,2.0,3.0,4.0,5.1199909452443535,5.974916380331706,1.0713712257129373,2.6087985110971204,3.4641421870801423,4.2952207639064,22268.13285520255,22643.68416312478,22644.492640727938,22644.056306855957,22651.52689200547,22652.531777754717,22645.509389750332,22651.51856054429
1,254,1,1,1.0,1.0,0.40014790959321545,0,0.0,0.0,0.0,0.49743456042801326,0.12361765648807897,0.3738169039399343,0.6210522169160922,0.12361765648807897,0.38442011342340265,7,0,3,1,6,5,nan,nan,nan,nan,nan,nan,nan,nan,nan,nan,nan,nan,0.0,nan,nan,nan,nan,nan,nan,nan,nan,nan,nan,nan,nan,nan,nan,nan,nan,nan,nan,22268.13285520255,22652.7520666859,nan,22653.152214595495,nan,nan,nan,nan
1,255,1,1,1.0,1.0,0.5673228135456156,0,0.0,0.0,0.0,0.49704068734771045,0.12352174197243634,0.3735189453752741,0.6205624293201468,0.12352174197243634,0.4465381514382898,8,3,7,0,2,6,nan,nan,nan,nan,nan,nan,nan,nan,nan,nan,nan,nan,0.0,nan,nan,nan,nan,nan,nan,nan,nan,nan,nan,nan,nan,nan,nan,nan,nan,nan,nan,22268.13285520255,22653.76885533712,nan,22654.336178150665,nan,nan,nan,nan
1,256,0,0,0.0,1.0,0.7585210523138812,0,0.0,0.0,0.0,0.4973240830178633,0.12335288976257949,0.37397119325528383,0.6206769727804428,0.12335288976257949,0.5753305918175707,2,0,6,8,4,1,nan,nan,nan,nan,nan,nan,nan,nan,nan,nan,nan,nan,0.0,nan,nan,nan,nan,nan,nan,nan,nan,nan,nan,nan,nan,nan,nan,nan,nan,nan,nan,22268.13285520255,22654.78565681781,nan,22655.544177870124,nan,nan,nan,nan
1,257,1,1,1.0,1.0,0.5577046985526977,0,0.0,0.0,0.0,0.4983730668302971,0.12420836632063126,0.3741647005096658,0.6225814331509283,0.12420836632063126,0.6278495214707315,0,6,2,7,3,5,nan,nan,nan,nan,nan,nan,nan,nan,nan,nan,nan,nan,0.0,nan,nan,nan,nan,nan,nan,nan,nan,nan,nan,nan,nan,nan,nan,nan,nan,nan,nan,22268.13285520255,22655.802459724,nan,22656.360164422553,nan,nan,nan,nan
1,258,1,1,1.0,1.0,0.5248954540329578,0,0.0,0.0,0.0,0.4986103933571867,0.12401625714879067,0.37459413620839604,0.6226266505059774,0.12401625714879067,0.6137070682998456,7,3,4,5,1,0,nan,nan,nan,nan,nan,nan,nan,nan,nan,nan,nan,nan,0.0,nan,nan,nan,nan,nan,nan,nan,nan,nan,nan,nan,nan,nan,nan,nan,nan,nan,nan,22268.13285520255,22656.81926320039,nan,22657.34415865442,nan,nan,nan,nan
1,259,0,0,0.0,1.0,0.6040658602541953,0,0.0,0.0,0.0,0.49871511471446067,0.12378004140339291,0.3749350733110678,0.6224951561178536,0.12378004140339291,0.5622220042799503,8,0,6,7,3,1,nan,nan,nan,nan,nan,nan,nan,nan,nan,nan,nan,nan,0.0,nan,nan,nan,nan,nan,nan,nan,nan,nan,nan,nan,nan,nan,nan,nan,nan,nan,nan,22268.13285520255,22657.83608093175,nan,22658.440146792003,nan,nan,nan,nan
1,260,1,1,1.0,1.0,0.5232418772284291,0,0.0,0.0,0.0,0.49913317322850725,0.12371162861761124,0.375421544610896,0.6228448018461185,0.12371162861761124,0.5507343971718607,1,8,3,6,7,0,nan,nan,nan,nan,nan,nan,nan,nan,nan,nan,nan,nan,0.0,nan,nan,nan,nan,nan,nan,nan,nan,nan,nan,nan,nan,nan,nan,nan,nan,nan,nan,22268.13285520255,22658.852873289263,nan,22659.37611516649,nan,nan,nan,nan
1,261,0,0,1.0,0.0,0.522422501417168,0,0.0,0.0,0.0,0.49922846454866504,0.12347616355036083,0.3757523009983042,0.6227046280990258,0.12347616355036083,0.5499100796332641,3,0,5,8,2,4,nan,nan,nan,nan,nan,nan,nan,nan,nan,nan,nan,nan,0.0,nan,nan,nan,nan,nan,nan,nan,nan,nan,nan,nan,nan,nan,nan,nan,nan,nan,nan,22268.13285520255,22659.86969786301,nan,22660.392120364428,nan,nan,nan,nan
1,262,1,1,1.0,1.0,0.6495936762657948,0,0.0,0.0,0.0,0.49931977965444657,0.12324141974820517,0.3760783599062414,0.6225611994026518,0.12324141974820517,0.5650860183037972,1,5,6,2,8,3,nan,nan,nan,nan,nan,nan,nan,nan,nan,nan,nan,nan,0.0,nan,nan,nan,nan,nan,nan,nan,nan,nan,nan,nan,nan,nan,nan,nan,nan,nan,nan,22268.13285520255,22660.886502194695,nan,22661.53609587096,nan,nan,nan,nan
1,263,1,1,1.0,1.0,0.6075326695463446,0,0.0,0.0,0.0,0.4999090890529224,0.12335759213046509,0.3765514969224573,0.6232666811833875,0.12335759213046509,0.5931829490764358,7,0,1,6,3,8,nan,nan,nan,nan,nan,nan,nan,nan,nan,nan,nan,nan,0.0,nan,nan,nan,nan,nan,nan,nan,nan,nan,nan,nan,nan,nan,nan,nan,nan,nan,nan,22268.13285520255,22661.91254545911,nan,22662.520078128655,nan,nan,nan,nan
1,264,1,1,0.0,0.0,0.5196262460267462,0,0.0,0.0,0.0,0.5003294936642249,0.12329932062373625,0.3770301730404886,0.6236288142879611,0.12329932062373625,0.5922508639462952,3,7,2,5,4,0,nan,nan,nan,nan,nan,nan,nan,nan,nan,nan,nan,nan,0.0,nan,nan,nan,nan,nan,nan,nan,nan,nan,nan,nan,nan,nan,nan,nan,nan,nan,nan,22268.13285520255,22662.928451442433,nan,22663.44807768846,nan,nan,nan,nan
1,265,1,1,1.0,1.0,0.43090643378309323,0,0.0,0.0,0.0,0.5004045783037677,0.12306506878940797,0.37733950951435974,0.6234696470931756,0.12306506878940797,0.5193551164520613,4,2,1,0,8,5,nan,nan,nan,nan,nan,nan,nan,nan,nan,nan,nan,nan,0.0,nan,nan,nan,nan,nan,nan,nan,nan,nan,nan,nan,nan,nan,nan,nan,nan,nan,nan,22268.13285520255,22663.945242659545,nan,22664.37614909333,nan,nan,nan,nan
1,266,1,1,1.0,1.0,0.5180017493694322,0,0.0,0.0,0.0,0.5001352056505868,0.12290222902969523,0.37723297662089156,0.623037434680282,0.12290222902969523,0.48951147639309056,1,3,5,4,2,0,nan,nan,nan,nan,nan,nan,nan,nan,nan,nan,nan,nan,0.0,nan,nan,nan,nan,nan,nan,nan,nan,nan,nan,nan,nan,nan,nan,nan,nan,nan,nan,22268.13285520255,22664.962043570038,nan,22665.480045319408,nan,nan,nan,nan
1,267,1,1,1.0,1.0,0.5571621543022047,0,0.0,0.0,0.0,0.5002041884448681,0.12266974087026362,0.3775344475746045,0.6228739293151317,0.12266974087026362,0.5020234458182434,5,4,7,6,8,3,nan,nan,nan,nan,nan,nan,nan,nan,nan,nan,nan,nan,0.0,nan,nan,nan,nan,nan,nan,nan,nan,nan,nan,nan,nan,nan,nan,nan,nan,nan,nan,22268.13285520255,22665.978848186824,nan,22666.536010341126,nan,nan,nan,nan
1,268,1,1,1.0,1.0,0.6204000629477378,0,0.0,0.0,0.0,0.5004232575443194,0.12248436087557218,0.3779388966687472,0.6229076184198916,0.12248436087557218,0.5651879888731249,2,8,1,3,6,7,nan,nan,nan,nan,nan,nan,nan,nan,nan,nan,nan,nan,0.0,nan,nan,nan,nan,nan,nan,nan,nan,nan,nan,nan,nan,nan,nan,nan,nan,nan,nan,22268.13285520255,22666.99565394401,nan,22667.616054006958,nan,nan,nan,nan
1,269,1,1,1.0,1.0,0.7315472233021865,0,0.0,1.0,0.0,0.5008829387910758,0.1224739887015915,0.37840895008948433,0.6233569274926674,0.1224739887015915,0.6363698135173763,1,6,4,2,5,0,nan,nan,nan,nan,nan,nan,nan,nan,nan,nan,nan,nan,0.0,nan,nan,nan,nan,nan,nan,nan,nan,nan,nan,nan,nan,nan,nan,nan,nan,nan,nan,22268.13285520255,22668.0124565651,nan,22668.7440037884,nan,nan,nan,nan
1,270,1,1,nan,nan,nan,0,0.0,0.0,0.0,0.5017633368235609,0.12306472990922852,0.3786986069143324,0.6248280667327895,0.12306472990922852,0.6759736431249621,8,2,1,5,4,3,nan,nan,nan,nan,nan,nan,nan,nan,nan,nan,nan,nan,0.0,nan,nan,nan,nan,nan,nan,nan,nan,nan,nan,nan,nan,nan,nan,nan,nan,nan,nan,22268.13285520255,22669.02922782525,nan,nan,nan,nan,nan,nan
1,271,1,1,nan,nan,nan,0,0.0,0.0,0.0,0.5017633368235609,0.12306472990922852,0.3786986069143324,0.6248280667327895,0.12306472990922852,0.7315472233021865,4,7,0,2,8,1,nan,nan,nan,nan,nan,nan,nan,nan,nan,nan,nan,nan,0.0,nan,nan,nan,nan,nan,nan,nan,nan,nan,nan,nan,nan,nan,nan,nan,nan,nan,nan,22268.13285520255,22670.05436646911,nan,nan,nan,nan,nan,nan
1,272,1,1,nan,nan,nan,0,0.0,0.0,0.0,0.5017633368235609,0.12306472990922852,0.3786986069143324,0.6248280667327895,0.12306472990922852,nan,8,1,4,3,5,2,nan,nan,nan,nan,nan,nan,nan,nan,nan,nan,nan,nan,0.0,nan,nan,nan,nan,nan,nan,nan,nan,nan,nan,nan,nan,nan,nan,nan,nan,nan,nan,22268.13285520255,22671.07115996702,nan,nan,nan,nan,nan,nan
1,273,1,1,1.0,1.0,0.6639418762060814,0,0.0,0.0,0.0,0.5017633368235609,0.12306472990922852,0.3786986069143324,0.6248280667327895,0.12306472990922852,0.6639418762060814,4,0,3,2,7,6,nan,nan,nan,nan,nan,nan,nan,nan,nan,nan,nan,nan,0.0,nan,nan,nan,nan,nan,nan,nan,nan,nan,nan,nan,nan,nan,nan,nan,nan,nan,nan,22268.13285520255,22672.087995659647,nan,22672.751937535853,nan,nan,nan,nan
1,274,1,1,1.0,1.0,0.5271836622050614,0,0.0,0.0,0.0,0.5023799852622778,0.12323542250031455,0.37914456276196323,0.6256154077625924,0.12323542250031455,0.5955627692055714,1,3,2,7,5,0,nan,nan,nan,nan,nan,nan,nan,nan,nan,nan,nan,nan,0.0,nan,nan,nan,nan,nan,nan,nan,nan,nan,nan,nan,nan,nan,nan,nan,nan,nan,nan,22268.13285520255,22673.104770911188,nan,22673.631954573393,nan,nan,nan,nan
