block,trial,freq_trials,correct_response,actual_response,acc,rts,probe_trials,fast_rt_trigger,slow_rt_trigger,rt_triggered,rts_runningavg,rts_runningstd,rts_runningfastthresh,rts_runningslowthresh,rts_runningstd,rts_trailingavg,trials_colorind0,trials_colorind1,trials_colorind2,trials_colorind3,trials_colorind4,trials_colorind5,wholereport_resp0,wholereport_resp1,wholereport_resp2,wholereport_resp3,wholereport_resp4,wholereport_resp5,wholereport_respacc0,wholereport_respacc1,wholereport_respacc2,wholereport_respacc3,wholereport_respacc4,wholereport_respacc5,wholereport_respacc_total,wholereport_respcolorind0,wholereport_respcolorind1,wholereport_respcolorind2,wholereport_respcolorind3,wholereport_respcolorind4,wholereport_respcolorind5,wholereport_resporder0,wholereport_resporder1,wholereport_resporder2,wholereport_resporder3,wholereport_resporder4,wholereport_resporder5,wholereport_rts0,wholereport_rts1,wholereport_rts2,wholereport_rts3,wholereport_rts4,wholereport_rts5,time_blockstart,time_encarray_offset,time_encarray_onset,time_response,time_iti_offset,time_iti_onset,time_memprobe_offset,time_memprobe_onset
1,1,1,1,1.0,1.0,0.6615473697311245,0,nan,nan,nan,nan,nan,nan,nan,nan,nan,7,8,6,5,0,3,nan,nan,nan,nan,nan,nan,nan,nan,nan,nan,nan,nan,0.0,nan,nan,nan,nan,nan,nan,nan,nan,nan,nan,nan,nan,nan,nan,nan,nan,nan,nan,942.0303765162244,943.0488202971173,nan,943.7103676668485,nan,nan,nan,nan
1,2,1,1,1.0,1.0,0.2923156662727706,0,nan,nan,nan,nan,nan,nan,nan,nan,nan,8,5,0,4,3,6,nan,nan,nan,nan,nan,nan,nan,nan,nan,nan,nan,nan,0.0,nan,nan,nan,nan,nan,nan,nan,nan,nan,nan,nan,nan,nan,nan,nan,nan,nan,nan,942.0303765162244,944.0740550887422,nan,944.3663707550149,nan,nan,nan,nan
1,3,1,1,1.0,1.0,0.17160302633419633,0,nan,nan,nan,nan,nan,nan,nan,nan,nan,5,6,3,0,2,8,nan,nan,nan,nan,nan,nan,nan,nan,nan,nan,nan,nan,0.0,nan,nan,nan,nan,nan,nan,nan,nan,nan,nan,nan,nan,nan,nan,nan,nan,nan,nan,942.0303765162244,945.0907677605865,nan,945.2623707869207,nan,nan,nan,nan
1,4,1,1,1.0,1.0,0.18677816999843344,0,nan,nan,nan,nan,nan,nan,nan,nan,nan,3,7,4,6,0,5,nan,nan,nan,nan,nan,nan,nan,nan,nan,nan,nan,nan,0.0,nan,nan,nan,nan,nan,nan,nan,nan,nan,nan,nan,nan,nan,nan,nan,nan,nan,nan,942.0303765162244,946.1075665316894,nan,946.2943447016878,nan,nan,nan,nan
1,5,1,1,1.0,1.0,0.2759108991594985,1,nan,nan,nan,nan,nan,nan,nan,nan,nan,4,3,7,5,8,6,1.0,1.0,1.0,1.0,1.0,1.0,0.0,0.0,0.0,0.0,0.0,0.0,0.0,6.0,0.0,3.0,7.0,4.0,2.0,3.0,2.0,1.0,6.0,5.0,4.0,7.4710375649738126,5.9756455879542045,4.97498815425206,9.798753726936411,9.015099592972547,8.134853736730292,942.0303765162244,947.2743916172767,948.0827927418868,947.5503025164362,958.934197329334,959.9321948079742,949.099592083192,958.925868505321
1,6,1,1,1.0,1.0,0.42295481386827305,0,nan,nan,nan,nan,nan,nan,nan,nan,nan,0,4,6,3,7,1,nan,nan,nan,nan,nan,nan,nan,nan,nan,nan,nan,nan,0.0,nan,nan,nan,nan,nan,nan,nan,nan,nan,nan,nan,nan,nan,nan,nan,nan,nan,nan,942.0303765162244,960.1510575103457,nan,960.574012324214,nan,nan,nan,nan
1,7,1,1,1.0,1.0,0.3181334812543355,1,nan,nan,nan,nan,nan,nan,nan,nan,nan,3,6,2,7,8,0,1.0,1.0,1.0,1.0,1.0,1.0,0.0,1.0,1.0,0.0,0.0,0.0,2.0,8.0,6.0,2.0,0.0,1.0,7.0,3.0,2.0,1.0,6.0,5.0,4.0,3.6273514088825323,2.283351931197103,0.9933948725229129,8.753315250622109,7.865220388572197,5.63388896844117,942.0303765162244,961.1678716767346,961.9762682398432,961.486005157989,971.7775436497759,972.7863471603487,962.9847612797166,971.7692156810663
1,8,1,1,1.0,1.0,0.330604194663465,0,nan,nan,nan,nan,nan,nan,nan,nan,nan,2,7,5,3,4,8,nan,nan,nan,nan,nan,nan,nan,nan,nan,nan,nan,nan,0.0,nan,nan,nan,nan,nan,nan,nan,nan,nan,nan,nan,nan,nan,nan,nan,nan,nan,nan,942.0303765162244,973.0111333233654,nan,973.3417375180288,nan,nan,nan,nan
1,9,1,1,1.0,1.0,0.3055227852310054,0,nan,nan,nan,nan,nan,nan,nan,nan,nan,5,0,2,6,1,7,nan,nan,nan,nan,nan,nan,nan,nan,nan,nan,nan,nan,0.0,nan,nan,nan,nan,nan,nan,nan,nan,nan,nan,nan,nan,nan,nan,nan,nan,nan,nan,942.0303765162244,974.0362050395343,nan,974.3417278247653,nan,nan,nan,nan
1,10,1,1,1.0,1.0,0.2883779063122347,0,nan,nan,nan,nan,nan,nan,nan,nan,nan,0,4,1,3,2,5,nan,nan,nan,nan,nan,nan,nan,nan,nan,nan,nan,nan,0.0,nan,nan,nan,nan,nan,nan,nan,nan,nan,nan,nan,nan,nan,nan,nan,nan,nan,nan,942.0303765162244,975.0613477448351,nan,975.3497256511473,nan,nan,nan,nan
1,11,1,1,1.0,1.0,0.2792103269021027,0,nan,nan,nan,nan,nan,nan,nan,nan,nan,6,0,8,5,3,4,nan,nan,nan,nan,nan,nan,nan,nan,nan,nan,nan,nan,0.0,nan,nan,nan,nan,nan,nan,nan,nan,nan,nan,nan,nan,nan,nan,nan,nan,nan,nan,942.0303765162244,976.0865009987028,nan,976.3657113256049,nan,nan,nan,nan
1,12,1,1,1.0,1.0,0.28609456442063674,0,nan,nan,nan,nan,nan,nan,nan,nan,nan,8,5,6,2,1,7,nan,nan,nan,nan,nan,nan,nan,nan,nan,nan,nan,nan,0.0,nan,nan,nan,nan,nan,nan,nan,nan,nan,nan,nan,nan,nan,nan,nan,nan,nan,nan,942.0303765162244,977.1115995139698,nan,977.3976940783905,nan,nan,nan,nan
1,13,1,1,1.0,1.0,0.260934183083009,0,nan,nan,nan,nan,nan,nan,nan,nan,nan,0,3,7,5,8,6,nan,nan,nan,nan,nan,nan,nan,nan,nan,nan,nan,nan,0.0,nan,nan,nan,nan,nan,nan,nan,nan,nan,nan,nan,nan,nan,nan,nan,nan,nan,nan,942.0303765162244,978.1367313856026,nan,978.3976655686856,nan,nan,nan,nan
1,14,1,1,1.0,1.0,0.2997772251837887,0,nan,nan,nan,nan,nan,nan,nan,nan,nan,7,8,3,0,6,5,nan,nan,nan,nan,nan,nan,nan,nan,nan,nan,nan,nan,0.0,nan,nan,nan,nan,nan,nan,nan,nan,nan,nan,nan,nan,nan,nan,nan,nan,nan,nan,942.0303765162244,979.1618789375643,nan,979.4616561627481,nan,nan,nan,nan
1,15,1,1,1.0,1.0,0.2826528732548468,0,nan,nan,nan,nan,nan,nan,nan,nan,nan,8,0,1,5,4,2,nan,nan,nan,nan,nan,nan,nan,nan,nan,nan,nan,nan,0.0,nan,nan,nan,nan,nan,nan,nan,nan,nan,nan,nan,nan,nan,nan,nan,nan,nan,nan,942.0303765162244,980.1869834398967,nan,980.4696363131516,nan,nan,nan,nan
1,16,1,1,1.0,1.0,0.3374530801665969,0,nan,nan,nan,nan,nan,nan,nan,nan,nan,3,7,4,2,6,1,nan,nan,nan,nan,nan,nan,nan,nan,nan,nan,nan,nan,0.0,nan,nan,nan,nan,nan,nan,nan,nan,nan,nan,nan,nan,nan,nan,nan,nan,nan,nan,942.0303765162244,981.212148667837,nan,981.5496017480036,nan,nan,nan,nan
1,17,1,1,1.0,1.0,0.40832106943707913,0,nan,nan,nan,nan,nan,nan,nan,nan,nan,2,5,3,4,0,8,nan,nan,nan,nan,nan,nan,nan,nan,nan,nan,nan,nan,0.0,nan,nan,nan,nan,nan,nan,nan,nan,nan,nan,nan,nan,nan,nan,nan,nan,nan,nan,942.0303765162244,982.2372625783319,nan,982.645583647769,nan,nan,nan,nan
1,18,1,1,1.0,1.0,0.36716047365916893,0,nan,nan,nan,nan,nan,nan,nan,nan,nan,8,4,0,6,7,1,nan,nan,nan,nan,nan,nan,nan,nan,nan,nan,nan,nan,0.0,nan,nan,nan,nan,nan,nan,nan,nan,nan,nan,nan,nan,nan,nan,nan,nan,nan,nan,942.0303765162244,983.2623970158747,nan,983.6295574895339,nan,nan,nan,nan
1,19,1,1,1.0,1.0,0.3179743971559219,0,nan,nan,nan,nan,nan,nan,nan,nan,nan,4,3,7,2,5,6,nan,nan,nan,nan,nan,nan,nan,nan,nan,nan,nan,nan,0.0,nan,nan,nan,nan,nan,nan,nan,nan,nan,nan,nan,nan,nan,nan,nan,nan,nan,nan,942.0303765162244,984.287567375577,nan,984.605541772733,nan,nan,nan,nan
1,20,1,1,1.0,1.0,0.5088294543675147,0,nan,nan,nan,nan,nan,nan,nan,nan,nan,5,6,1,8,4,0,nan,nan,nan,nan,nan,nan,nan,nan,nan,nan,nan,nan,0.0,nan,nan,nan,nan,nan,nan,nan,nan,nan,nan,nan,nan,nan,nan,nan,nan,nan,nan,942.0303765162244,985.3126790053211,nan,985.8215084596886,nan,nan,nan,nan
1,21,1,1,1.0,1.0,0.2916804701089859,0,nan,nan,nan,nan,nan,nan,nan,nan,nan,0,4,7,3,2,8,nan,nan,nan,nan,nan,nan,nan,nan,nan,nan,nan,nan,0.0,nan,nan,nan,nan,nan,nan,nan,nan,nan,nan,nan,nan,nan,nan,nan,nan,nan,nan,942.0303765162244,986.33781914477,nan,986.629499614879,nan,nan,nan,nan
1,22,1,1,1.0,1.0,0.25854963168967515,0,nan,nan,nan,nan,nan,nan,nan,nan,nan,2,8,5,1,7,0,nan,nan,nan,nan,nan,nan,nan,nan,nan,nan,nan,nan,0.0,nan,nan,nan,nan,nan,nan,nan,nan,nan,nan,nan,nan,nan,nan,nan,nan,nan,nan,942.0303765162244,987.3629416081822,nan,987.6214912398718,nan,nan,nan,nan
1,23,1,1,1.0,1.0,0.21740728220902383,0,nan,nan,nan,nan,nan,nan,nan,nan,nan,7,3,8,0,2,1,nan,nan,nan,nan,nan,nan,nan,nan,nan,nan,nan,nan,0.0,nan,nan,nan,nan,nan,nan,nan,nan,nan,nan,nan,nan,nan,nan,nan,nan,nan,nan,942.0303765162244,988.3880623609875,nan,988.6054696431966,nan,nan,nan,nan
1,24,0,0,1.0,0.0,0.18415641790488735,0,0.0,0.0,0.0,nan,nan,nan,nan,nan,nan,6,0,5,7,1,2,nan,nan,nan,nan,nan,nan,nan,nan,nan,nan,nan,nan,0.0,nan,nan,nan,nan,nan,nan,nan,nan,nan,nan,nan,nan,nan,nan,nan,nan,nan,nan,942.0303765162244,989.4132848934969,nan,989.5974413114018,nan,nan,nan,nan
1,25,1,1,1.0,1.0,0.4150804344099015,0,nan,nan,nan,nan,nan,nan,nan,nan,nan,3,1,7,6,0,4,nan,nan,nan,nan,nan,nan,nan,nan,nan,nan,nan,nan,0.0,nan,nan,nan,nan,nan,nan,nan,nan,nan,nan,nan,nan,nan,nan,nan,nan,nan,nan,942.0303765162244,990.4383300956106,nan,990.8534105300205,nan,nan,nan,nan
1,26,1,1,1.0,1.0,0.5178921181359328,0,nan,nan,nan,nan,nan,nan,nan,nan,nan,0,7,3,1,8,2,nan,nan,nan,nan,nan,nan,nan,nan,nan,nan,nan,nan,0.0,nan,nan,nan,nan,nan,nan,nan,nan,nan,nan,nan,nan,nan,nan,nan,nan,nan,nan,942.0303765162244,991.4634884812403,nan,991.9813805993763,nan,nan,nan,nan
1,27,1,1,1.0,1.0,0.38876512506976724,0,nan,nan,nan,nan,nan,nan,nan,nan,nan,3,2,1,8,7,5,nan,nan,nan,nan,nan,nan,nan,nan,nan,nan,nan,nan,0.0,nan,nan,nan,nan,nan,nan,nan,nan,nan,nan,nan,nan,nan,nan,nan,nan,nan,nan,942.0303765162244,992.4886135105626,nan,992.8773786356323,nan,nan,nan,nan
1,28,1,1,1.0,1.0,0.2836127949412912,0,nan,nan,nan,nan,nan,nan,nan,nan,nan,0,8,3,6,2,7,nan,nan,nan,nan,nan,nan,nan,nan,nan,nan,nan,nan,0.0,nan,nan,nan,nan,nan,nan,nan,nan,nan,nan,nan,nan,nan,nan,nan,nan,nan,nan,942.0303765162244,993.513747377845,nan,993.7973601727863,nan,nan,nan,nan
1,29,1,1,1.0,1.0,0.33843039273051545,0,nan,nan,nan,nan,nan,nan,nan,nan,nan,3,0,5,2,1,6,nan,nan,nan,nan,nan,nan,nan,nan,nan,nan,nan,nan,0.0,nan,nan,nan,nan,nan,nan,nan,nan,nan,nan,nan,nan,nan,nan,nan,nan,nan,nan,942.0303765162244,994.5389066187781,nan,994.8773370115086,nan,nan,nan,nan
1,30,1,1,1.0,1.0,0.3533096056198701,0,nan,nan,nan,nan,nan,nan,nan,nan,nan,5,8,2,4,7,3,nan,nan,nan,nan,nan,nan,nan,nan,nan,nan,nan,nan,0.0,nan,nan,nan,nan,nan,nan,nan,nan,nan,nan,nan,nan,nan,nan,nan,nan,nan,nan,942.0303765162244,995.5640111211105,nan,995.9173207267304,nan,nan,nan,nan
1,31,1,1,1.0,1.0,0.3921475160168484,0,nan,nan,nan,nan,nan,nan,nan,nan,nan,3,4,7,5,8,2,nan,nan,nan,nan,nan,nan,nan,nan,nan,nan,nan,nan,0.0,nan,nan,nan,nan,nan,nan,nan,nan,nan,nan,nan,nan,nan,nan,nan,nan,nan,nan,942.0303765162244,996.5891378609813,nan,996.9812853769981,nan,nan,nan,nan
1,32,1,1,1.0,1.0,0.49498314794618636,0,nan,nan,nan,nan,nan,nan,nan,nan,nan,8,5,0,2,4,7,nan,nan,nan,nan,nan,nan,nan,nan,nan,nan,nan,nan,0.0,nan,nan,nan,nan,nan,nan,nan,nan,nan,nan,nan,nan,nan,nan,nan,nan,nan,nan,942.0303765162244,997.6142737239134,nan,998.1092568718595,nan,nan,nan,nan
1,33,1,1,1.0,1.0,0.5258275083615445,0,nan,nan,nan,nan,nan,nan,nan,nan,nan,0,2,1,4,5,6,nan,nan,nan,nan,nan,nan,nan,nan,nan,nan,nan,nan,0.0,nan,nan,nan,nan,nan,nan,nan,nan,nan,nan,nan,nan,nan,nan,nan,nan,nan,nan,942.0303765162244,998.6393807920977,nan,999.1652083004592,nan,nan,nan,nan
1,34,0,0,1.0,0.0,0.4686381884966977,0,0.0,0.0,0.0,nan,nan,nan,nan,nan,nan,3,5,4,8,0,1,nan,nan,nan,nan,nan,nan,nan,nan,nan,nan,nan,nan,0.0,nan,nan,nan,nan,nan,nan,nan,nan,nan,nan,nan,nan,nan,nan,nan,nan,nan,nan,942.0303765162244,999.6645437393454,nan,1000.1331819278421,nan,nan,nan,nan
1,35,1,1,1.0,1.0,0.45954615977825597,0,nan,nan,nan,nan,nan,nan,nan,nan,nan,0,3,6,4,8,7,nan,nan,nan,nan,nan,nan,nan,nan,nan,nan,nan,nan,0.0,nan,nan,nan,nan,nan,nan,nan,nan,nan,nan,nan,nan,nan,nan,nan,nan,nan,nan,942.0303765162244,1000.6896365526482,nan,1001.1491827124264,nan,nan,nan,nan
1,36,1,1,nan,nan,nan,0,nan,nan,nan,nan,nan,nan,nan,nan,nan,1,7,2,5,6,8,nan,nan,nan,nan,nan,nan,nan,nan,nan,nan,nan,nan,0.0,nan,nan,nan,nan,nan,nan,nan,nan,nan,nan,nan,nan,nan,nan,nan,nan,nan,nan,942.0303765162244,1001.7148157503689,nan,nan,nan,nan,nan,nan
1,37,1,1,1.0,1.0,0.5692594719002955,0,nan,nan,nan,nan,nan,nan,nan,nan,nan,8,6,0,2,5,4,nan,nan,nan,nan,nan,nan,nan,nan,nan,nan,nan,nan,0.0,nan,nan,nan,nan,nan,nan,nan,nan,nan,nan,nan,nan,nan,nan,nan,nan,nan,nan,942.0303765162244,1002.7399025766645,nan,1003.3091620485648,nan,nan,nan,nan
1,38,1,1,1.0,1.0,0.3123782279435545,0,nan,nan,nan,nan,nan,nan,nan,nan,nan,4,5,1,3,7,2,nan,nan,nan,nan,nan,nan,nan,nan,nan,nan,nan,nan,0.0,nan,nan,nan,nan,nan,nan,nan,nan,nan,nan,nan,nan,nan,nan,nan,nan,nan,nan,942.0303765162244,1003.7567680604989,nan,1004.0691462884424,nan,nan,nan,nan
1,39,1,1,1.0,1.0,0.29524788894923404,0,nan,nan,nan,nan,nan,nan,nan,nan,nan,3,0,8,5,6,1,nan,nan,nan,nan,nan,nan,nan,nan,nan,nan,nan,nan,0.0,nan,nan,nan,nan,nan,nan,nan,nan,nan,nan,nan,nan,nan,nan,nan,nan,nan,nan,942.0303765162244,1004.781871992629,nan,1005.0771198815783,nan,nan,nan,nan
1,40,1,1,1.0,1.0,0.2700903586810455,0,nan,nan,nan,nan,nan,nan,nan,nan,nan,1,7,3,6,2,4,nan,nan,nan,nan,nan,nan,nan,nan,nan,nan,nan,nan,0.0,nan,nan,nan,nan,nan,nan,nan,nan,nan,nan,nan,nan,nan,nan,nan,nan,nan,nan,942.0303765162244,1005.8070164084784,nan,1006.0771067671594,nan,nan,nan,nan
1,41,1,1,1.0,1.0,0.2689012190676294,0,nan,nan,nan,nan,nan,nan,nan,nan,nan,6,0,4,8,5,3,nan,nan,nan,nan,nan,nan,nan,nan,nan,nan,nan,nan,0.0,nan,nan,nan,nan,nan,nan,nan,nan,nan,nan,nan,nan,nan,nan,nan,nan,nan,nan,942.0303765162244,1006.8321790705668,nan,1007.1010802896344,nan,nan,nan,nan
1,42,1,1,1.0,1.0,0.3077864554943517,0,nan,nan,nan,nan,nan,nan,nan,nan,nan,7,5,8,1,4,6,nan,nan,nan,nan,nan,nan,nan,nan,nan,nan,nan,nan,0.0,nan,nan,nan,nan,nan,nan,nan,nan,nan,nan,nan,nan,nan,nan,nan,nan,nan,nan,942.0303765162244,1007.8572741646785,nan,1008.1650606201729,nan,nan,nan,nan
1,43,1,1,1.0,1.0,0.32263829914154485,0,nan,nan,nan,nan,nan,nan,nan,nan,nan,1,0,4,2,6,8,nan,nan,nan,nan,nan,nan,nan,nan,nan,nan,nan,nan,0.0,nan,nan,nan,nan,nan,nan,nan,nan,nan,nan,nan,nan,nan,nan,nan,nan,nan,nan,942.0303765162244,1008.8824037555605,nan,1009.2050420547021,nan,nan,nan,nan
1,44,1,1,1.0,1.0,0.2894644110929221,0,nan,nan,nan,nan,nan,nan,nan,nan,nan,2,5,6,4,1,7,nan,nan,nan,nan,nan,nan,nan,nan,nan,nan,nan,nan,0.0,nan,nan,nan,nan,nan,nan,nan,nan,nan,nan,nan,nan,nan,nan,nan,nan,nan,nan,942.0303765162244,1009.9075521627674,nan,1010.1970165738603,nan,nan,nan,nan
1,45,1,1,1.0,1.0,0.2803267667768523,0,nan,nan,nan,nan,nan,nan,nan,nan,nan,7,1,3,6,5,8,nan,nan,nan,nan,nan,nan,nan,nan,nan,nan,nan,nan,0.0,nan,nan,nan,nan,nan,nan,nan,nan,nan,nan,nan,nan,nan,nan,nan,nan,nan,nan,942.0303765162244,1010.9326766218874,nan,1011.2130033886642,nan,nan,nan,nan
1,46,1,1,1.0,1.0,0.2711634637671523,0,nan,nan,nan,nan,nan,nan,nan,nan,nan,6,4,2,3,1,7,nan,nan,nan,nan,nan,nan,nan,nan,nan,nan,nan,nan,0.0,nan,nan,nan,nan,nan,nan,nan,nan,nan,nan,nan,nan,nan,nan,nan,nan,nan,nan,942.0303765162244,1011.9578093488235,nan,1012.2289728125907,nan,nan,nan,nan
1,47,1,1,1.0,1.0,0.2540174445020966,0,nan,nan,nan,nan,nan,nan,nan,nan,nan,4,1,5,7,0,2,nan,nan,nan,nan,nan,nan,nan,nan,nan,nan,nan,nan,0.0,nan,nan,nan,nan,nan,nan,nan,nan,nan,nan,nan,nan,nan,nan,nan,nan,nan,nan,942.0303765162244,1012.982938369445,nan,1013.2369558139471,nan,nan,nan,nan
1,48,0,0,1.0,0.0,0.28486037941183895,0,0.0,0.0,0.0,nan,nan,nan,nan,nan,nan,8,3,6,0,2,4,nan,nan,nan,nan,nan,nan,nan,nan,nan,nan,nan,nan,0.0,nan,nan,nan,nan,nan,nan,nan,nan,nan,nan,nan,nan,nan,nan,nan,nan,nan,nan,942.0303765162244,1014.0080594074097,nan,1014.2929197868216,nan,nan,nan,nan
1,49,1,1,1.0,1.0,0.500022807798814,0,nan,nan,nan,nan,nan,nan,nan,nan,nan,7,2,0,4,5,8,nan,nan,nan,nan,nan,nan,nan,nan,nan,nan,nan,nan,0.0,nan,nan,nan,nan,nan,nan,nan,nan,nan,nan,nan,nan,nan,nan,nan,nan,nan,nan,942.0303765162244,1015.0248846925097,nan,1015.5249075003085,nan,nan,nan,nan
1,50,1,1,1.0,1.0,0.40636131254723296,0,nan,nan,nan,nan,nan,nan,nan,nan,nan,4,7,1,2,0,6,nan,nan,nan,nan,nan,nan,nan,nan,nan,nan,nan,nan,0.0,nan,nan,nan,nan,nan,nan,nan,nan,nan,nan,nan,nan,nan,nan,nan,nan,nan,nan,942.0303765162244,1016.0465643244679,nan,1016.4529256370151,nan,nan,nan,nan
1,51,0,0,0.0,1.0,0.4180554217309691,0,nan,nan,nan,nan,nan,nan,nan,nan,nan,6,4,2,8,7,1,nan,nan,nan,nan,nan,nan,nan,nan,nan,nan,nan,nan,0.0,nan,nan,nan,nan,nan,nan,nan,nan,nan,nan,nan,nan,nan,nan,nan,nan,nan,nan,942.0303765162244,1017.0668156203465,nan,1017.4848710420774,nan,nan,nan,nan
1,52,1,1,1.0,1.0,0.45689361717086285,0,nan,nan,nan,nan,nan,nan,nan,nan,nan,7,8,5,3,0,2,nan,nan,nan,nan,nan,nan,nan,nan,nan,nan,nan,nan,0.0,nan,nan,nan,nan,nan,nan,nan,nan,nan,nan,nan,nan,nan,nan,nan,nan,nan,nan,942.0303765162244,1018.091944070824,nan,1018.5488376879948,nan,nan,nan,nan
1,53,1,1,1.0,1.0,0.37571823061443865,0,nan,nan,nan,nan,nan,nan,nan,nan,nan,6,2,1,7,8,5,nan,nan,nan,nan,nan,nan,nan,nan,nan,nan,nan,nan,0.0,nan,nan,nan,nan,nan,nan,nan,nan,nan,nan,nan,nan,nan,nan,nan,nan,nan,nan,942.0303765162244,1019.1170967545477,nan,1019.4928149851621,nan,nan,nan,nan
1,54,1,1,1.0,1.0,0.4305871459073387,0,nan,nan,nan,nan,nan,nan,nan,nan,nan,1,6,2,0,5,4,nan,nan,nan,nan,nan,nan,nan,nan,nan,nan,nan,nan,0.0,nan,nan,nan,nan,nan,nan,nan,nan,nan,nan,nan,nan,nan,nan,nan,nan,nan,nan,942.0303765162244,1020.1422143712989,nan,1020.5728015172062,nan,nan,nan,nan
1,55,1,1,1.0,1.0,0.389399180887267,1,nan,nan,nan,nan,nan,nan,nan,nan,nan,3,5,4,2,6,7,1.0,1.0,1.0,1.0,1.0,1.0,1.0,0.0,1.0,1.0,0.0,0.0,3.0,3.0,6.0,4.0,2.0,8.0,1.0,3.0,2.0,1.0,6.0,5.0,4.0,4.825952266750392,3.23429300787393,2.4579296596930362,8.367884905193932,7.024705081363209,5.984584519581404,942.0303765162244,1021.1673573617009,1021.9757584863692,1021.5567565425881,1031.4103164633852,1032.4083989009378,1023.0008940642583,1031.4019845032599
1,56,1,1,1.0,1.0,0.345353688520845,0,nan,nan,nan,nan,nan,nan,nan,nan,nan,2,3,0,5,7,1,nan,nan,nan,nan,nan,nan,nan,nan,nan,nan,nan,nan,0.0,nan,nan,nan,nan,nan,nan,nan,nan,nan,nan,nan,nan,nan,nan,nan,nan,nan,nan,942.0303765162244,1032.62716609583,nan,1032.9725197843509,nan,nan,nan,nan
1,57,1,1,1.0,1.0,0.6965239262208343,0,nan,nan,nan,nan,nan,nan,nan,nan,nan,8,2,4,6,3,7,nan,nan,nan,nan,nan,nan,nan,nan,nan,nan,nan,nan,0.0,nan,nan,nan,nan,nan,nan,nan,nan,nan,nan,nan,nan,nan,nan,nan,nan,nan,nan,942.0303765162244,1033.6439814025653,nan,1034.340505328786,nan,nan,nan,nan
1,58,1,1,1.0,1.0,0.6393713839352131,0,nan,nan,nan,nan,nan,nan,nan,nan,nan,1,5,0,7,8,4,nan,nan,nan,nan,nan,nan,nan,nan,nan,nan,nan,nan,0.0,nan,nan,nan,nan,nan,nan,nan,nan,nan,nan,nan,nan,nan,nan,nan,nan,nan,nan,942.0303765162244,1034.6691155549488,nan,1035.308486938884,nan,nan,nan,nan
1,59,1,1,nan,nan,nan,0,nan,nan,nan,nan,nan,nan,nan,nan,nan,2,0,4,3,6,8,nan,nan,nan,nan,nan,nan,nan,nan,nan,nan,nan,nan,0.0,nan,nan,nan,nan,nan,nan,nan,nan,nan,nan,nan,nan,nan,nan,nan,nan,nan,nan,942.0303765162244,1035.6942331717582,nan,nan,nan,nan,nan,nan
1,60,1,1,1.0,1.0,0.7810970988939516,0,nan,nan,nan,nan,nan,nan,nan,nan,nan,6,3,5,1,8,0,nan,nan,nan,nan,nan,nan,nan,nan,nan,nan,nan,nan,0.0,nan,nan,nan,nan,nan,nan,nan,nan,nan,nan,nan,nan,nan,nan,nan,nan,nan,nan,942.0303765162244,1036.7193681794452,nan,1037.500465278339,nan,nan,nan,nan
1,61,1,1,1.0,1.0,0.7559187564766034,0,nan,nan,nan,nan,nan,nan,nan,nan,nan,2,6,7,8,1,5,nan,nan,nan,nan,nan,nan,nan,nan,nan,nan,nan,nan,0.0,nan,nan,nan,nan,nan,nan,nan,nan,nan,nan,nan,nan,nan,nan,nan,nan,nan,nan,942.0303765162244,1037.7445131654968,nan,1038.5004319219734,nan,nan,nan,nan
1,62,1,1,nan,nan,nan,0,nan,nan,nan,nan,nan,nan,nan,nan,nan,5,7,3,6,0,4,nan,nan,nan,nan,nan,nan,nan,nan,nan,nan,nan,nan,0.0,nan,nan,nan,nan,nan,nan,nan,nan,nan,nan,nan,nan,nan,nan,nan,nan,nan,nan,942.0303765162244,1038.7697368383524,nan,nan,nan,nan,nan,nan
1,63,1,1,nan,nan,nan,1,nan,nan,nan,nan,nan,nan,nan,nan,nan,1,5,8,2,3,6,1.0,1.0,1.0,1.0,1.0,1.0,0.0,1.0,0.0,0.0,1.0,0.0,2.0,2.0,5.0,1.0,1.0,3.0,0.0,2.0,1.0,6.0,5.0,4.0,3.0,3.996115838352125,3.0150733640184626,11.947907929657958,7.5803582985536195,5.8613023003563285,4.876996605657041,942.0303765162244,1039.7947669303394,1040.6031948541058,nan,1053.6132031846792,1054.6223613559268,1041.6283270108397,1053.6048735053046
1,64,0,0,1.0,0.0,0.48536425991915166,0,0.0,0.0,0.0,nan,nan,nan,nan,nan,nan,0,8,5,1,6,2,nan,nan,nan,nan,nan,nan,nan,nan,nan,nan,nan,nan,0.0,nan,nan,nan,nan,nan,nan,nan,nan,nan,nan,nan,nan,nan,nan,nan,nan,nan,nan,942.0303765162244,1054.8467321325443,nan,1055.3320963924634,nan,nan,nan,nan
1,65,1,1,nan,nan,nan,0,nan,nan,nan,nan,nan,nan,nan,nan,nan,4,6,1,3,2,8,nan,nan,nan,nan,nan,nan,nan,nan,nan,nan,nan,nan,0.0,nan,nan,nan,nan,nan,nan,nan,nan,nan,nan,nan,nan,nan,nan,nan,nan,nan,nan,942.0303765162244,1055.871865999885,nan,nan,nan,nan,nan,nan
1,66,1,1,nan,nan,nan,0,nan,nan,nan,nan,nan,nan,nan,nan,nan,3,0,5,6,7,4,nan,nan,nan,nan,nan,nan,nan,nan,nan,nan,nan,nan,0.0,nan,nan,nan,nan,nan,nan,nan,nan,nan,nan,nan,nan,nan,nan,nan,nan,nan,nan,942.0303765162244,1056.8970657245954,nan,nan,nan,nan,nan,nan
1,67,1,1,1.0,1.0,0.0018927590572275221,0,nan,nan,nan,nan,nan,nan,nan,nan,nan,5,4,1,7,0,6,nan,nan,nan,nan,nan,nan,nan,nan,nan,nan,nan,nan,0.0,nan,nan,nan,nan,nan,nan,nan,nan,nan,nan,nan,nan,nan,nan,nan,nan,nan,nan,942.0303765162244,1057.9221223305794,nan,1057.9240150896367,nan,nan,nan,nan
1,68,1,1,1.0,1.0,0.36107251211069524,0,nan,nan,nan,nan,nan,nan,nan,nan,nan,1,8,6,5,3,0,nan,nan,nan,nan,nan,nan,nan,nan,nan,nan,nan,nan,0.0,nan,nan,nan,nan,nan,nan,nan,nan,nan,nan,nan,nan,nan,nan,nan,nan,nan,nan,942.0303765162244,1058.9389325056109,nan,1059.3000050177216,nan,nan,nan,nan
1,69,1,1,1.0,1.0,0.23993108636932448,0,nan,nan,nan,nan,nan,nan,nan,nan,nan,0,3,5,2,4,1,nan,nan,nan,nan,nan,nan,nan,nan,nan,nan,nan,nan,0.0,nan,nan,nan,nan,nan,nan,nan,nan,nan,nan,nan,nan,nan,nan,nan,nan,nan,nan,942.0303765162244,1059.9640649473877,nan,1060.203996033757,nan,nan,nan,nan
1,70,1,1,1.0,1.0,0.2550837073358707,0,nan,nan,nan,nan,nan,nan,nan,nan,nan,5,6,2,4,1,3,nan,nan,nan,nan,nan,nan,nan,nan,nan,nan,nan,nan,0.0,nan,nan,nan,nan,nan,nan,nan,nan,nan,nan,nan,nan,nan,nan,nan,nan,nan,nan,942.0303765162244,1060.9808702757582,nan,1061.235953983094,nan,nan,nan,nan
1,71,1,1,1.0,1.0,0.2939335917471908,0,nan,nan,nan,nan,nan,nan,nan,nan,nan,3,0,1,6,7,8,nan,nan,nan,nan,nan,nan,nan,nan,nan,nan,nan,nan,0.0,nan,nan,nan,nan,nan,nan,nan,nan,nan,nan,nan,nan,nan,nan,nan,nan,nan,nan,942.0303765162244,1062.006002432492,nan,1062.2999360242393,nan,nan,nan,nan
1,72,1,1,1.0,1.0,0.27679669560166076,0,nan,nan,nan,nan,nan,nan,nan,nan,nan,4,7,5,0,2,6,nan,nan,nan,nan,nan,nan,nan,nan,nan,nan,nan,nan,0.0,nan,nan,nan,nan,nan,nan,nan,nan,nan,nan,nan,nan,nan,nan,nan,nan,nan,nan,942.0303765162244,1063.0311266064527,nan,1063.3079233020544,nan,nan,nan,nan
1,73,1,1,1.0,1.0,0.28397743398090824,0,nan,nan,nan,nan,nan,nan,nan,nan,nan,5,0,3,1,7,4,nan,nan,nan,nan,nan,nan,nan,nan,nan,nan,nan,nan,0.0,nan,nan,nan,nan,nan,nan,nan,nan,nan,nan,nan,nan,nan,nan,nan,nan,nan,nan,942.0303765162244,1064.0479325050255,nan,1064.3319099390064,nan,nan,nan,nan
1,74,1,1,1.0,1.0,0.2667829482234083,0,nan,nan,nan,nan,nan,nan,nan,nan,nan,6,5,7,3,0,8,nan,nan,nan,nan,nan,nan,nan,nan,nan,nan,nan,nan,0.0,nan,nan,nan,nan,nan,nan,nan,nan,nan,nan,nan,nan,nan,nan,nan,nan,nan,nan,942.0303765162244,1065.0730877546011,nan,1065.3398707028246,nan,nan,nan,nan
1,75,1,1,1.0,1.0,0.2656186120584607,0,nan,nan,nan,nan,nan,nan,nan,nan,nan,7,1,3,0,2,6,nan,nan,nan,nan,nan,nan,nan,nan,nan,nan,nan,nan,0.0,nan,nan,nan,nan,nan,nan,nan,nan,nan,nan,nan,nan,nan,nan,nan,nan,nan,nan,942.0303765162244,1066.0982498464873,nan,1066.3638684585458,nan,nan,nan,nan
1,76,1,1,1.0,1.0,0.27248203742783517,0,nan,nan,nan,nan,nan,nan,nan,nan,nan,1,5,8,4,3,0,nan,nan,nan,nan,nan,nan,nan,nan,nan,nan,nan,nan,0.0,nan,nan,nan,nan,nan,nan,nan,nan,nan,nan,nan,nan,nan,nan,nan,nan,nan,nan,942.0303765162244,1067.12334978726,nan,1067.3958318246878,nan,nan,nan,nan
1,77,1,1,1.0,1.0,0.2713573297369294,0,nan,nan,nan,nan,nan,nan,nan,nan,nan,4,3,7,2,6,1,nan,nan,nan,nan,nan,nan,nan,nan,nan,nan,nan,nan,0.0,nan,nan,nan,nan,nan,nan,nan,nan,nan,nan,nan,nan,nan,nan,nan,nan,nan,nan,942.0303765162244,1068.1484682593145,nan,1068.4198255890515,nan,nan,nan,nan
1,78,0,0,1.0,0.0,0.2301964489161037,0,0.0,0.0,0.0,nan,nan,nan,nan,nan,nan,3,0,6,4,1,5,nan,nan,nan,nan,nan,nan,nan,nan,nan,nan,nan,nan,0.0,nan,nan,nan,nan,nan,nan,nan,nan,nan,nan,nan,nan,nan,nan,nan,nan,nan,nan,942.0303765162244,1069.1736012713518,nan,1069.403797720268,nan,nan,nan,nan
1,79,1,1,1.0,1.0,0.2850474030710757,0,nan,nan,nan,nan,nan,nan,nan,nan,nan,6,3,1,0,8,4,nan,nan,nan,nan,nan,nan,nan,nan,nan,nan,nan,nan,0.0,nan,nan,nan,nan,nan,nan,nan,nan,nan,nan,nan,nan,nan,nan,nan,nan,nan,nan,942.0303765162244,1070.198768495,nan,1070.483815898071,nan,nan,nan,nan
1,80,1,1,1.0,1.0,0.42019108339445665,0,nan,nan,nan,nan,nan,nan,nan,nan,nan,2,8,6,3,7,0,nan,nan,nan,nan,nan,nan,nan,nan,nan,nan,nan,nan,0.0,nan,nan,nan,nan,nan,nan,nan,nan,nan,nan,nan,nan,nan,nan,nan,nan,nan,nan,942.0303765162244,1071.2155504453694,nan,1071.635741528764,nan,nan,nan,nan
1,81,0,0,0.0,1.0,0.4190706521621905,0,0.0,0.0,0.0,0.355720913787278,0.13396943078995285,0.22175148299732514,0.4896903445772308,0.13396943078995285,0.3747697128759076,8,1,7,4,3,5,nan,nan,nan,nan,nan,nan,nan,nan,nan,nan,nan,nan,0.0,nan,nan,nan,nan,nan,nan,nan,nan,nan,nan,nan,nan,nan,nan,nan,nan,nan,nan,942.0303765162244,1072.2406643558643,nan,1072.6597350080265,nan,nan,nan,nan
1,82,1,1,1.0,1.0,0.40992302948143333,0,0.0,0.0,0.0,0.3565655769656102,0.13327152737867762,0.22329404958693258,0.48983710434428784,0.13327152737867762,0.41639492167936015,0,4,1,6,2,7,nan,nan,nan,nan,nan,nan,nan,nan,nan,nan,nan,nan,0.0,nan,nan,nan,nan,nan,nan,nan,nan,nan,nan,nan,nan,nan,nan,nan,nan,nan,nan,942.0303765162244,1073.2657893851865,nan,1073.675712414668,nan,nan,nan,nan
1,83,0,0,0.0,1.0,0.42476460966281593,0,0.0,0.0,0.0,0.35726764870923944,0.13253137948771526,0.22473626922152418,0.4897990281969547,0.13253137948771526,0.4179194304354799,7,2,6,1,5,0,nan,nan,nan,nan,nan,nan,nan,nan,nan,nan,nan,nan,0.0,nan,nan,nan,nan,nan,nan,nan,nan,nan,nan,nan,nan,nan,nan,nan,nan,nan,nan,942.0303765162244,1074.290928669332,nan,1074.7156932789949,nan,nan,nan,nan
1,84,1,1,1.0,1.0,0.31160960637498647,0,0.0,0.0,0.0,0.35814423261772743,0.13188955093383964,0.2262546816838878,0.49003378355156707,0.13188955093383964,0.3820990818397452,0,7,8,3,1,2,nan,nan,nan,nan,nan,nan,nan,nan,nan,nan,nan,nan,0.0,nan,nan,nan,nan,nan,nan,nan,nan,nan,nan,nan,nan,nan,nan,nan,nan,nan,nan,942.0303765162244,1075.3160710895318,nan,1075.6276806959067,nan,nan,nan,nan
1,85,1,1,1.0,1.0,0.5424455279717222,0,0.0,0.0,0.0,0.3575476348453846,0.13114590815884303,0.22640172668654157,0.4886935430042276,0.13114590815884303,0.42627324800317484,4,5,7,6,3,1,nan,nan,nan,nan,nan,nan,nan,nan,nan,nan,nan,nan,0.0,nan,nan,nan,nan,nan,nan,nan,nan,nan,nan,nan,nan,nan,nan,nan,nan,nan,nan,942.0303765162244,1076.3412003952544,nan,1076.8836459232261,nan,nan,nan,nan
1,86,0,0,nan,nan,nan,0,0.0,0.0,0.0,0.3598881145052117,0.1319424462568717,0.22794566824833998,0.4918305607620834,0.1319424462568717,0.4270275671733543,2,8,5,7,6,4,nan,nan,nan,nan,nan,nan,nan,nan,nan,nan,nan,nan,0.0,nan,nan,nan,nan,nan,nan,nan,nan,nan,nan,nan,nan,nan,nan,nan,nan,nan,nan,942.0303765162244,1077.3663274202263,nan,nan,nan,nan,nan,nan
1,87,1,1,1.0,1.0,0.5481614378513768,0,0.0,0.0,0.0,0.3598881145052117,0.1319424462568717,0.22794566824833998,0.4918305607620834,0.1319424462568717,0.5453034829115495,7,1,8,3,5,0,nan,nan,nan,nan,nan,nan,nan,nan,nan,nan,nan,nan,0.0,nan,nan,nan,nan,nan,nan,nan,nan,nan,nan,nan,nan,nan,nan,nan,nan,nan,nan,942.0303765162244,1078.3914330629632,nan,1078.9395945008146,nan,nan,nan,nan
1,88,1,1,1.0,1.0,0.33898120012599975,0,0.0,0.0,0.0,0.3622415310470387,0.13277328795477902,0.2294682430922597,0.49501481900181776,0.13277328795477902,0.4435713189886883,5,7,3,4,1,6,nan,nan,nan,nan,nan,nan,nan,nan,nan,nan,nan,nan,0.0,nan,nan,nan,nan,nan,nan,nan,nan,nan,nan,nan,nan,nan,nan,nan,nan,nan,nan,942.0303765162244,1079.4166034226655,nan,1079.7555846227915,nan,nan,nan,nan
1,89,1,1,1.0,1.0,0.27382940595271066,0,0.0,0.0,0.0,0.36195436646776663,0.1319761502489509,0.22997821621881573,0.4939305167167175,0.1319761502489509,0.38699068131002906,0,2,1,6,7,5,nan,nan,nan,nan,nan,nan,nan,nan,nan,nan,nan,nan,0.0,nan,nan,nan,nan,nan,nan,nan,nan,nan,nan,nan,nan,nan,nan,nan,nan,nan,nan,942.0303765162244,1080.4417341538938,nan,1080.7155635598465,nan,nan,nan,nan
1,90,1,1,1.0,1.0,0.2566486048162915,0,0.0,0.0,0.0,0.36087967182733915,0.1315250761697803,0.22935459565755886,0.4924047479971194,0.1315250761697803,0.28981973696500063,5,0,8,7,2,1,nan,nan,nan,nan,nan,nan,nan,nan,nan,nan,nan,nan,0.0,nan,nan,nan,nan,nan,nan,nan,nan,nan,nan,nan,nan,nan,nan,nan,nan,nan,nan,942.0303765162244,1081.4668876929209,nan,1081.7235362977372,nan,nan,nan,nan
1,91,1,1,1.0,1.0,0.2635356932878494,0,0.0,0.0,0.0,0.3596238758392542,0.1312240136805856,0.22839986215866862,0.4908478895198398,0.1312240136805856,0.2646712346856172,2,5,1,8,3,6,nan,nan,nan,nan,nan,nan,nan,nan,nan,nan,nan,nan,0.0,nan,nan,nan,nan,nan,nan,nan,nan,nan,nan,nan,nan,nan,nan,nan,nan,nan,nan,942.0303765162244,1082.4919939058018,nan,1082.7555295990896,nan,nan,nan,nan
1,92,1,1,1.0,1.0,0.23836248263251036,0,0.0,0.0,0.0,0.35847996890411843,0.1308562274252946,0.22762374147882383,0.48933619632941305,0.1308562274252946,0.2528489269122171,8,2,7,4,0,3,nan,nan,nan,nan,nan,nan,nan,nan,nan,nan,nan,nan,0.0,nan,nan,nan,nan,nan,nan,nan,nan,nan,nan,nan,nan,nan,nan,nan,nan,nan,nan,942.0303765162244,1083.5171440236154,nan,1083.755506506248,nan,nan,nan,nan
1,93,0,0,0.0,1.0,0.4212199985049665,0,0.0,0.0,0.0,0.3570668220068054,0.13072737938876183,0.22633944261804356,0.48779420139556723,0.13072737938876183,0.30770605814177543,1,8,5,6,2,7,nan,nan,nan,nan,nan,nan,nan,nan,nan,nan,nan,nan,0.0,nan,nan,nan,nan,nan,nan,nan,nan,nan,nan,nan,nan,nan,nan,nan,nan,nan,nan,942.0303765162244,1084.542259929818,nan,1084.963479928323,nan,nan,nan,nan
1,94,1,1,1.0,1.0,0.3720635720528662,0,0.0,0.0,0.0,0.35781278917538867,0.1301469576451543,0.22766583153023437,0.487959746820543,0.1301469576451543,0.34388201773011434,4,7,2,0,3,6,nan,nan,nan,nan,nan,nan,nan,nan,nan,nan,nan,nan,0.0,nan,nan,nan,nan,nan,nan,nan,nan,nan,nan,nan,nan,nan,nan,nan,nan,nan,nan,942.0303765162244,1085.5674032053212,nan,1085.939466777374,nan,nan,nan,nan
1,95,1,1,1.0,1.0,0.3148796691093594,0,0.0,0.0,0.0,0.35797659127742865,0.1294057408146387,0.22857085046278994,0.4873823320920674,0.1294057408146387,0.3693877465557307,7,6,3,5,4,8,nan,nan,nan,nan,nan,nan,nan,nan,nan,nan,nan,nan,0.0,nan,nan,nan,nan,nan,nan,nan,nan,nan,nan,nan,nan,nan,nan,nan,nan,nan,nan,942.0303765162244,1086.5925493317773,nan,1086.9074290008866,nan,nan,nan,nan
1,96,1,1,1.0,1.0,0.36174933245638385,0,0.0,0.0,0.0,0.3574868535255188,0.12874944038995406,0.22873741313556473,0.48623629391547285,0.12874944038995406,0.34956419120620313,0,8,1,4,6,3,nan,nan,nan,nan,nan,nan,nan,nan,nan,nan,nan,nan,0.0,nan,nan,nan,nan,nan,nan,nan,nan,nan,nan,nan,nan,nan,nan,nan,nan,nan,nan,942.0303765162244,1087.6176658081822,nan,1087.9794151406386,nan,nan,nan,nan
1,97,1,1,1.0,1.0,0.296607231546659,0,0.0,0.0,0.0,0.3575347465472139,0.12802487398094844,0.22950987256626545,0.4855596205281624,0.12802487398094844,0.3244120777041341,4,5,6,0,7,2,nan,nan,nan,nan,nan,nan,nan,nan,nan,nan,nan,nan,0.0,nan,nan,nan,nan,nan,nan,nan,nan,nan,nan,nan,nan,nan,nan,nan,nan,nan,nan,942.0303765162244,1088.6427931182552,nan,1088.9394003498019,nan,nan,nan,nan
1,98,1,1,1.0,1.0,0.2713955327635631,0,0.0,0.0,0.0,0.3568577741583188,0.1274717266990049,0.22938604745931393,0.48432950085732374,0.1274717266990049,0.3099173655888687,8,0,7,5,1,6,nan,nan,nan,nan,nan,nan,nan,nan,nan,nan,nan,nan,0.0,nan,nan,nan,nan,nan,nan,nan,nan,nan,nan,nan,nan,nan,nan,nan,nan,nan,nan,942.0303765162244,1089.6679443764733,nan,1089.9393399092369,nan,nan,nan,nan
1,99,1,1,1.0,1.0,0.26224306342191994,0,0.0,0.0,0.0,0.35591862864848633,0.12708209827631375,0.22883653037217258,0.4830007269248001,0.12708209827631375,0.27674860924404737,3,2,0,1,6,4,nan,nan,nan,nan,nan,nan,nan,nan,nan,nan,nan,nan,0.0,nan,nan,nan,nan,nan,nan,nan,nan,nan,nan,nan,nan,nan,nan,nan,nan,nan,nan,942.0303765162244,1090.6930905029294,nan,1090.9553335663513,nan,nan,nan,nan
1,100,1,1,1.0,1.0,0.30913268361473456,0,0.0,0.0,0.0,0.3549004159829802,0.12676222875507762,0.2281381872279026,0.48166264473805787,0.12676222875507762,0.28092375993340585,0,8,4,5,1,6,nan,nan,nan,nan,nan,nan,nan,nan,nan,nan,nan,nan,0.0,nan,nan,nan,nan,nan,nan,nan,nan,nan,nan,nan,nan,nan,nan,nan,nan,nan,nan,942.0303765162244,1091.7181998518645,nan,1092.0273325354792,nan,nan,nan,nan
1,101,1,1,1.0,1.0,0.2919764008256607,0,0.0,0.0,0.0,0.35440828982848294,0.12616720108742482,0.2282410887410581,0.4805754909159078,0.12616720108742482,0.2877840492874384,4,2,0,1,6,5,nan,nan,nan,nan,nan,nan,nan,nan,nan,nan,nan,nan,0.0,nan,nan,nan,nan,nan,nan,nan,nan,nan,nan,nan,nan,nan,nan,nan,nan,nan,nan,942.0303765162244,1092.7433394211112,nan,1093.0353158219368,nan,nan,nan,nan
1,102,1,1,1.0,1.0,0.2988141675014049,0,0.0,0.0,0.0,0.353744120796538,0.1256576487181437,0.2280864720783943,0.4794017695146817,0.1256576487181437,0.2999744173139334,0,7,8,2,4,1,nan,nan,nan,nan,nan,nan,nan,nan,nan,nan,nan,nan,0.0,nan,nan,nan,nan,nan,nan,nan,nan,nan,nan,nan,nan,nan,nan,nan,nan,nan,nan,942.0303765162244,1093.7684650206356,nan,1094.067279188137,nan,nan,nan,nan
1,103,1,1,1.0,1.0,0.5616488072555512,0,0.0,0.0,0.0,0.3531659107618524,0.12512019226865576,0.22804571849319663,0.4782861030305081,0.12512019226865576,0.3841464585275389,4,6,0,3,2,5,nan,nan,nan,nan,nan,nan,nan,nan,nan,nan,nan,nan,0.0,nan,nan,nan,nan,nan,nan,nan,nan,nan,nan,nan,nan,nan,nan,nan,nan,nan,nan,942.0303765162244,1094.7935948965605,nan,1095.355243703816,nan,nan,nan,nan
1,104,1,1,1.0,1.0,0.5044956947094761,0,0.0,0.0,0.0,0.35533760760032845,0.12625384875532103,0.22908375884500742,0.4815914563556495,0.12625384875532103,0.4549862231554774,7,5,3,0,1,8,nan,nan,nan,nan,nan,nan,nan,nan,nan,nan,nan,nan,0.0,nan,nan,nan,nan,nan,nan,nan,nan,nan,nan,nan,nan,nan,nan,nan,nan,nan,nan,942.0303765162244,1095.818739312468,nan,1096.3232350071776,nan,nan,nan,nan
1,105,1,1,1.0,1.0,0.5593437979114242,0,0.0,1.0,0.0,0.3568753198385671,0.12650178548860555,0.23037353434996152,0.4833771053271726,0.12650178548860555,0.5418294332921505,6,4,5,3,0,1,nan,nan,nan,nan,nan,nan,nan,nan,nan,nan,nan,nan,0.0,nan,nan,nan,nan,nan,nan,nan,nan,nan,nan,nan,nan,nan,nan,nan,nan,nan,nan,942.0303765162244,1096.8438671926851,nan,1097.4032109905966,nan,nan,nan,nan
1,106,1,1,1.0,1.0,0.4541786384070292,1,0.0,0.0,1.0,0.3589413247168615,0.12748898518787052,0.231452339528991,0.486430309904732,0.12748898518787052,0.5060060436759765,4,5,8,7,6,0,1.0,1.0,1.0,1.0,1.0,1.0,0.0,1.0,1.0,0.0,0.0,0.0,2.0,2.0,5.0,8.0,0.0,1.0,3.0,3.0,2.0,1.0,6.0,5.0,4.0,2.7947090556262992,1.9299921484198421,1.0675711273797788,5.505613274988718,4.465340186259709,3.7389064476592466,942.0303765162244,1097.8690110383905,1098.677417865023,1098.3231896767975,1105.2282680528006,1106.2261161405477,1099.6858863866073,1105.2199301056098
1,107,1,1,1.0,1.0,0.6379054150893353,0,0.0,0.0,0.0,0.35990331778443896,0.12720046137464036,0.2327028564097986,0.4871037791590793,0.12720046137464036,0.5504759504692629,2,1,4,0,3,5,nan,nan,nan,nan,nan,nan,nan,nan,nan,nan,nan,nan,0.0,nan,nan,nan,nan,nan,nan,nan,nan,nan,nan,nan,nan,nan,nan,nan,nan,nan,nan,942.0303765162244,1106.4451108428766,nan,1107.083016257966,nan,nan,nan,nan
1,108,1,1,1.0,1.0,0.4927539743948728,0,0.0,0.0,0.0,0.3626833387574879,0.12955030275777352,0.2331330359997144,0.49223364151526144,0.12955030275777352,0.5282793426304124,0,6,5,7,4,8,nan,nan,nan,nan,nan,nan,nan,nan,nan,nan,nan,nan,0.0,nan,nan,nan,nan,nan,nan,nan,nan,nan,nan,nan,nan,nan,nan,nan,nan,nan,nan,942.0303765162244,1107.4702526929323,nan,1107.9630066673271,nan,nan,nan,nan
1,109,1,1,1.0,1.0,0.5555842235917225,0,0.0,1.0,0.0,0.3639711668331056,0.12954906391558374,0.23442210291752186,0.49352023074868934,0.12954906391558374,0.5620812043586435,5,0,3,4,8,6,nan,nan,nan,nan,nan,nan,nan,nan,nan,nan,nan,nan,0.0,nan,nan,nan,nan,nan,nan,nan,nan,nan,nan,nan,nan,nan,nan,nan,nan,nan,nan,942.0303765162244,1108.4953877006192,nan,1109.050971924211,nan,nan,nan,nan
1,110,0,0,0.0,1.0,0.48238984280033037,1,0.0,0.0,1.0,0.36584972621309203,0.13028756140940936,0.23556216480368267,0.4961372876225014,0.13028756140940936,0.5102426802623086,4,7,6,2,1,3,1.0,1.0,1.0,1.0,1.0,1.0,1.0,1.0,1.0,0.0,0.0,0.0,3.0,4.0,7.0,6.0,5.0,3.0,1.0,3.0,2.0,1.0,6.0,5.0,4.0,2.767520494235214,1.9196907381992787,1.119542316708248,5.85386725544231,4.99825235537719,4.07865085254889,942.0303765162244,1109.5205529285595,1110.328944359906,1110.0029427713598,1117.2298258228693,1118.2378863706253,1111.3374083199305,1117.2214964285959
1,111,1,1,1.0,1.0,0.4194150493131019,0,0.0,0.0,0.0,0.3669811836556866,0.1301561534789526,0.236825030176734,0.4971373371346392,0.1301561534789526,0.48579637190171826,2,4,1,6,3,0,nan,nan,nan,nan,nan,nan,nan,nan,nan,nan,nan,nan,0.0,nan,nan,nan,nan,nan,nan,nan,nan,nan,nan,nan,nan,nan,nan,nan,nan,nan,nan,942.0303765162244,1118.463353345287,nan,1118.8827683946001,nan,nan,nan,nan
1,112,1,1,1.0,1.0,0.29829671641346067,0,0.0,0.0,0.0,0.36748535544085403,0.12962991613335786,0.23785543930749617,0.49711527157421187,0.12962991613335786,0.4000338695089643,6,3,8,7,5,1,nan,nan,nan,nan,nan,nan,nan,nan,nan,nan,nan,nan,0.0,nan,nan,nan,nan,nan,nan,nan,nan,nan,nan,nan,nan,nan,nan,nan,nan,nan,nan,942.0303765162244,1119.488475523598,nan,1119.7867722400115,nan,nan,nan,nan
1,113,1,1,1.0,1.0,0.24911178031470627,0,0.0,0.0,0.0,0.36682641602154553,0.12918604719550586,0.23764036882603967,0.4960124632170514,0.12918604719550586,0.3222745153470896,8,7,3,0,1,4,nan,nan,nan,nan,nan,nan,nan,nan,nan,nan,nan,nan,0.0,nan,nan,nan,nan,nan,nan,nan,nan,nan,nan,nan,nan,nan,nan,nan,nan,nan,nan,942.0303765162244,1120.5136202245485,nan,1120.7627320048632,nan,nan,nan,nan
1,114,1,1,1.0,1.0,0.775871840887703,0,0.0,0.0,0.0,0.365715900590349,0.12907781273508132,0.23663808785526766,0.4947937133254303,0.12907781273508132,0.44109344587195665,1,5,4,3,6,0,nan,nan,nan,nan,nan,nan,nan,nan,nan,nan,nan,nan,0.0,nan,nan,nan,nan,nan,nan,nan,nan,nan,nan,nan,nan,nan,nan,nan,nan,nan,nan,942.0303765162244,1121.5388216598658,nan,1122.3146935007535,nan,nan,nan,nan
1,115,1,1,1.0,1.0,0.6788422096287832,0,0.0,1.0,0.0,0.3695491336772401,0.13439828994969977,0.23515084372754036,0.5039474236269399,0.13439828994969977,0.5679419436103975,2,1,0,5,3,4,nan,nan,nan,nan,nan,nan,nan,nan,nan,nan,nan,nan,0.0,nan,nan,nan,nan,nan,nan,nan,nan,nan,nan,nan,nan,nan,nan,nan,nan,nan,nan,942.0303765162244,1122.5638588792644,nan,1123.2427010888932,nan,nan,nan,nan
1,116,1,1,1.0,1.0,0.5656646837596782,1,0.0,0.0,1.0,0.37241295845456923,0.13701536755480923,0.23539759089976,0.5094283260093785,0.13701536755480923,0.6734595780920548,8,7,1,3,2,5,1.0,1.0,1.0,1.0,1.0,1.0,1.0,1.0,1.0,0.0,0.0,0.0,3.0,8.0,7.0,1.0,5.0,0.0,3.0,3.0,2.0,1.0,6.0,5.0,4.0,4.4808788286172785,2.0807115336647257,1.2584113596240059,7.7443210100755095,6.896969931956846,6.201155897288118,942.0303765162244,1123.5889864744386,1124.3974340698915,1124.1546511581982,1133.1985726333223,1134.196395347477,1125.41423683241,1133.1902420987026
1,117,1,1,1.0,1.0,0.530991185340099,0,0.0,0.0,0.0,0.37418591006287294,0.13762435196169695,0.236561558101176,0.5118102620245699,0.13762435196169695,0.5918326929095201,1,0,2,6,3,7,nan,nan,nan,nan,nan,nan,nan,nan,nan,nan,nan,nan,0.0,nan,nan,nan,nan,nan,nan,nan,nan,nan,nan,nan,nan,nan,nan,nan,nan,nan,nan,942.0303765162244,1134.4154273975291,nan,1134.9464185828692,nan,nan,nan,nan
1,118,1,1,nan,nan,nan,0,0.0,0.0,0.0,0.3756114125653932,0.13780337618261643,0.23780803638277678,0.5134147887480096,0.13780337618261643,0.5483279345498886,6,5,3,2,4,1,nan,nan,nan,nan,nan,nan,nan,nan,nan,nan,nan,nan,0.0,nan,nan,nan,nan,nan,nan,nan,nan,nan,nan,nan,nan,nan,nan,nan,nan,nan,nan,942.0303765162244,1135.4405712431762,nan,nan,nan,nan,nan,nan
1,119,1,1,nan,nan,nan,0,0.0,0.0,0.0,0.3756114125653932,0.13780337618261643,0.23780803638277678,0.5134147887480096,0.13780337618261643,0.530991185340099,8,0,2,1,3,5,nan,nan,nan,nan,nan,nan,nan,nan,nan,nan,nan,nan,0.0,nan,nan,nan,nan,nan,nan,nan,nan,nan,nan,nan,nan,nan,nan,nan,nan,nan,nan,942.0303765162244,1136.4656996936537,nan,nan,nan,nan,nan,nan
1,120,1,1,nan,nan,nan,0,0.0,0.0,0.0,0.3756114125653932,0.13780337618261643,0.23780803638277678,0.5134147887480096,0.13780337618261643,nan,2,5,1,6,0,3,nan,nan,nan,nan,nan,nan,nan,nan,nan,nan,nan,nan,0.0,nan,nan,nan,nan,nan,nan,nan,nan,nan,nan,nan,nan,nan,nan,nan,nan,nan,nan,942.0303765162244,1137.490830424882,nan,nan,nan,nan,nan,nan
1,121,1,1,1.0,1.0,0.07044005865463987,0,0.0,0.0,0.0,0.3756114125653932,0.13780337618261645,0.23780803638277676,0.5134147887480096,0.13780337618261645,0.07044005865463987,6,1,2,3,5,8,nan,nan,nan,nan,nan,nan,nan,nan,nan,nan,nan,nan,0.0,nan,nan,nan,nan,nan,nan,nan,nan,nan,nan,nan,nan,nan,nan,nan,nan,nan,nan,942.0303765162244,1138.5159660027712,nan,1138.5864060614258,nan,nan,nan,nan
1,122,1,1,1.0,1.0,0.525233936321456,0,0.0,0.0,0.0,0.37286212108871974,0.14017894946295031,0.23268317162576943,0.51304107055167,0.14017894946295031,0.2978369974880479,4,6,1,5,3,0,nan,nan,nan,nan,nan,nan,nan,nan,nan,nan,nan,nan,0.0,nan,nan,nan,nan,nan,nan,nan,nan,nan,nan,nan,nan,nan,nan,nan,nan,nan,nan,942.0303765162244,1139.5410984446062,nan,1140.0663323809276,nan,nan,nan,nan
1,123,1,1,1.0,1.0,0.26008516416186467,0,0.0,0.0,0.0,0.37422258372472633,0.14028590633339055,0.23393667739133578,0.5145084900581169,0.14028590633339055,0.28525305304598686,0,3,8,2,6,7,nan,nan,nan,nan,nan,nan,nan,nan,nan,nan,nan,nan,0.0,nan,nan,nan,nan,nan,nan,nan,nan,nan,nan,nan,nan,nan,nan,nan,nan,nan,nan,942.0303765162244,1140.5662414350081,nan,1140.82632659917,nan,nan,nan,nan
1,124,1,1,1.0,1.0,0.27497464063344523,0,0.0,0.0,0.0,0.373212518064878,0.14007227091704366,0.23314024714783432,0.5132847889819216,0.14007227091704366,0.353431247038922,6,5,0,3,1,8,nan,nan,nan,nan,nan,nan,nan,nan,nan,nan,nan,nan,0.0,nan,nan,nan,nan,nan,nan,nan,nan,nan,nan,nan,nan,nan,nan,nan,nan,nan,nan,942.0303765162244,1141.5913362440187,nan,1141.8663108846522,nan,nan,nan,nan
1,125,1,1,1.0,1.0,0.23370428255293518,0,0.0,0.0,0.0,0.3723507822979356,0.13975709715818846,0.23259368513974715,0.512107879456124,0.13975709715818846,0.25625469578274834,1,2,6,8,4,3,nan,nan,nan,nan,nan,nan,nan,nan,nan,nan,nan,nan,0.0,nan,nan,nan,nan,nan,nan,nan,nan,nan,nan,nan,nan,nan,nan,nan,nan,nan,nan,942.0303765162244,1142.6165824395139,nan,1142.8502867220668,nan,nan,nan,nan
1,126,1,1,1.0,1.0,0.23265056405216455,0,0.0,0.0,0.0,0.37114516056102254,0.13974227719662147,0.23140288336440107,0.510887437757644,0.13974227719662147,0.24710982907951498,8,1,5,4,0,6,nan,nan,nan,nan,nan,nan,nan,nan,nan,nan,nan,nan,0.0,nan,nan,nan,nan,nan,nan,nan,nan,nan,nan,nan,nan,nan,nan,nan,nan,nan,nan,942.0303765162244,1143.64160768484,nan,1143.8742582488921,nan,nan,nan,nan
1,127,1,1,1.0,1.0,0.2554808474960737,0,0.0,0.0,0.0,0.36995124162560133,0.1397264681962129,0.23022477342938844,0.5096777098218143,0.1397264681962129,0.2406118980337245,7,6,8,3,2,0,nan,nan,nan,nan,nan,nan,nan,nan,nan,nan,nan,nan,0.0,nan,nan,nan,nan,nan,nan,nan,nan,nan,nan,nan,nan,nan,nan,nan,nan,nan,nan,942.0303765162244,1144.6667712022318,nan,1144.9222520497278,nan,nan,nan,nan
1,128,0,0,1.0,0.0,0.22232292481930926,0,0.0,0.0,0.0,0.3689728621885969,0.13952654502655504,0.22944631716204184,0.5084994072151519,0.13952654502655504,0.23681811212251583,5,7,3,6,0,8,nan,nan,nan,nan,nan,nan,nan,nan,nan,nan,nan,nan,0.0,nan,nan,nan,nan,nan,nan,nan,nan,nan,nan,nan,nan,nan,nan,nan,nan,nan,nan,942.0303765162244,1145.6918985123048,nan,1145.914221437124,nan,nan,nan,nan
1,129,1,1,1.0,1.0,0.39716123207472265,0,0.0,0.0,0.0,0.3677300661091961,0.13958290744237137,0.22814715866682475,0.5073129735515675,0.13958290744237137,0.29165500146336854,7,4,1,3,8,5,nan,nan,nan,nan,nan,nan,nan,nan,nan,nan,nan,nan,0.0,nan,nan,nan,nan,nan,nan,nan,nan,nan,nan,nan,nan,nan,nan,nan,nan,nan,nan,942.0303765162244,1146.7170355156995,nan,1147.1141967477743,nan,nan,nan,nan
1,130,1,1,1.0,1.0,0.3559915132354945,0,0.0,0.0,0.0,0.3679773868315955,0.1390211490017004,0.22895623782989508,0.5069985358332959,0.1390211490017004,0.3251585567098421,2,7,4,8,5,0,nan,nan,nan,nan,nan,nan,nan,nan,nan,nan,nan,nan,0.0,nan,nan,nan,nan,nan,nan,nan,nan,nan,nan,nan,nan,nan,nan,nan,nan,nan,nan,942.0303765162244,1147.7421867739176,nan,1148.0981782871531,nan,nan,nan,nan
1,131,1,1,1.0,1.0,0.2829208644689061,0,0.0,0.0,0.0,0.367877504551628,0.13844497006903997,0.22943253448258802,0.5063224746206679,0.13844497006903997,0.3453578699263744,0,6,5,4,7,2,nan,nan,nan,nan,nan,nan,nan,nan,nan,nan,nan,nan,0.0,nan,nan,nan,nan,nan,nan,nan,nan,nan,nan,nan,nan,nan,nan,nan,nan,nan,nan,942.0303765162244,1148.76730467577,nan,1149.050225540239,nan,nan,nan,nan
1,132,1,1,1.0,1.0,0.28974181041121483,0,0.0,0.0,0.0,0.3671753835592088,0.13808606578806074,0.22908931777114808,0.5052614493472696,0.13808606578806074,0.3095513960385385,5,3,1,7,2,0,nan,nan,nan,nan,nan,nan,nan,nan,nan,nan,nan,nan,0.0,nan,nan,nan,nan,nan,nan,nan,nan,nan,nan,nan,nan,nan,nan,nan,nan,nan,nan,942.0303765162244,1149.7924057569471,nan,1150.0821475673583,nan,nan,nan,nan
1,133,1,1,1.0,1.0,0.2565422636689618,0,0.0,0.0,0.0,0.36654068213996294,0.1376960885069973,0.22884459363296564,0.5042367706469603,0.1376960885069973,0.2764016461830276,8,4,2,3,7,1,nan,nan,nan,nan,nan,nan,nan,nan,nan,nan,nan,nan,0.0,nan,nan,nan,nan,nan,nan,nan,nan,nan,nan,nan,nan,nan,nan,nan,nan,nan,nan,942.0303765162244,1150.8175664233277,nan,1151.0741086869966,nan,nan,nan,nan
1,134,1,1,1.0,1.0,0.22338975785532966,0,0.0,0.0,0.0,0.36564638605483285,0.13749049461029522,0.22815589144453763,0.5031368806651281,0.13749049461029522,0.2565579439785021,3,8,0,7,1,6,nan,nan,nan,nan,nan,nan,nan,nan,nan,nan,nan,nan,0.0,nan,nan,nan,nan,nan,nan,nan,nan,nan,nan,nan,nan,nan,nan,nan,nan,nan,nan,942.0303765162244,1151.8427091286285,nan,1152.0660988864838,nan,nan,nan,nan
1,135,1,1,1.0,1.0,0.23023237113375217,0,0.0,0.0,0.0,0.36449915518225623,0.137524806805594,0.22697434837666222,0.5020239619878503,0.137524806805594,0.2367214642193479,6,5,7,1,0,2,nan,nan,nan,nan,nan,nan,nan,nan,nan,nan,nan,nan,0.0,nan,nan,nan,nan,nan,nan,nan,nan,nan,nan,nan,nan,nan,nan,nan,nan,nan,nan,942.0303765162244,1152.8678392897127,nan,1153.0980716608465,nan,nan,nan,nan
1,136,1,1,1.0,1.0,0.18909116205759346,0,1.0,0.0,0.0,0.36342502090986817,0.13749485334722653,0.22593016756264164,0.5009198742570947,0.13749485334722653,0.2142377636822251,0,1,6,3,2,7,nan,nan,nan,nan,nan,nan,nan,nan,nan,nan,nan,nan,0.0,nan,nan,nan,nan,nan,nan,nan,nan,nan,nan,nan,nan,nan,nan,nan,nan,nan,nan,942.0303765162244,1153.892964889179,nan,1154.0820560512366,nan,nan,nan,nan
1,137,1,1,1.0,1.0,0.16392507875571027,1,0.0,0.0,1.0,0.3620414188554851,0.1378190504138527,0.22422236844163237,0.4998604692693378,0.1378190504138527,0.19441620398235196,6,5,3,7,0,1,1.0,1.0,1.0,1.0,1.0,1.0,0.0,0.0,1.0,0.0,0.0,0.0,1.0,0.0,1.0,3.0,6.0,5.0,8.0,3.0,2.0,1.0,6.0,5.0,4.0,3.82442357664695,2.440451787551865,1.3221547746215947,7.343303555913735,6.078958472236991,5.078927111520898,942.0303765162244,1154.9181016074726,1155.7265127105056,1155.0820266862283,1164.119274040393,1165.130561601196,1156.7349917806569,1164.110932101903
1,138,1,1,1.0,1.0,0.6169864219846204,0,0.0,0.0,0.0,0.3604814476735971,0.1383876915016359,0.22209375617196117,0.498869139175233,0.1383876915016359,0.32333422093264136,1,0,7,3,4,2,nan,nan,nan,nan,nan,nan,nan,nan,nan,nan,nan,nan,0.0,nan,nan,nan,nan,nan,nan,nan,nan,nan,nan,nan,nan,nan,nan,nan,nan,nan,nan,942.0303765162244,1165.3527887334349,nan,1165.9697751554195,nan,nan,nan,nan
1,139,0,0,0.0,1.0,0.5118209773208946,0,0.0,0.0,0.0,0.3624853927854019,0.1396837172633559,0.22280167552204602,0.5021691100487579,0.1396837172633559,0.4309108260204084,7,3,4,0,5,1,nan,nan,nan,nan,nan,nan,nan,nan,nan,nan,nan,nan,0.0,nan,nan,nan,nan,nan,nan,nan,nan,nan,nan,nan,nan,nan,nan,nan,nan,nan,nan,942.0303765162244,1166.3779288728838,nan,1166.8897498502047,nan,nan,nan,nan
1,140,1,1,1.0,1.0,0.3106163284392096,0,0.0,0.0,0.0,0.3636430329755995,0.1397563070397522,0.22388672593584732,0.5033993400153517,0.1397563070397522,0.4798079092482415,4,8,2,1,6,5,nan,nan,nan,nan,nan,nan,nan,nan,nan,nan,nan,nan,0.0,nan,nan,nan,nan,nan,nan,nan,nan,nan,nan,nan,nan,nan,nan,nan,nan,nan,nan,942.0303765162244,1167.403156822198,nan,1167.7137731506373,nan,nan,nan,nan
1,141,1,1,1.0,1.0,0.48554244555998594,0,0.0,0.0,0.0,0.36323513524839657,0.1392948083693489,0.22394032687904766,0.5025299436177455,0.1392948083693489,0.43599325044003007,0,3,8,4,5,1,nan,nan,nan,nan,nan,nan,nan,nan,nan,nan,nan,nan,0.0,nan,nan,nan,nan,nan,nan,nan,nan,nan,nan,nan,nan,nan,nan,nan,nan,nan,nan,942.0303765162244,1168.4282094368245,nan,1168.9137518823845,nan,nan,nan,nan
1,142,1,1,1.0,1.0,0.36436908884206787,0,0.0,0.0,0.0,0.36416877883856136,0.1391698550249536,0.22499892381360775,0.503338633863515,0.1391698550249536,0.3868426209470878,8,1,5,3,0,7,nan,nan,nan,nan,nan,nan,nan,nan,nan,nan,nan,nan,0.0,nan,nan,nan,nan,nan,nan,nan,nan,nan,nan,nan,nan,nan,nan,nan,nan,nan,nan,942.0303765162244,1169.4533267685329,nan,1169.817695857375,nan,nan,nan,nan
1,143,1,1,1.0,1.0,0.28326127032050863,0,0.0,0.0,0.0,0.36417029633858794,0.138641695364959,0.22552860097362895,0.502811991703547,0.138641695364959,0.37772426824085414,4,8,3,5,6,0,nan,nan,nan,nan,nan,nan,nan,nan,nan,nan,nan,nan,0.0,nan,nan,nan,nan,nan,nan,nan,nan,nan,nan,nan,nan,nan,nan,nan,nan,nan,nan,942.0303765162244,1170.4784577848623,nan,1170.7617190551828,nan,nan,nan,nan
1,144,1,1,1.0,1.0,0.25810830149566755,0,0.0,0.0,0.0,0.3635619577970986,0.1382962291326358,0.2252657286644628,0.5018581869297344,0.1382962291326358,0.30191288688608137,2,3,5,4,8,1,nan,nan,nan,nan,nan,nan,nan,nan,nan,nan,nan,nan,0.0,nan,nan,nan,nan,nan,nan,nan,nan,nan,nan,nan,nan,nan,nan,nan,nan,nan,nan,942.0303765162244,1171.5035930776503,nan,1171.761701379146,nan,nan,nan,nan
1,145,1,1,1.0,1.0,0.20892479084432125,0,0.0,0.0,0.0,0.36277499021275955,0.13807782617803568,0.22469716403472387,0.5008528163907953,0.13807782617803568,0.2500981208868325,6,8,7,2,5,0,nan,nan,nan,nan,nan,nan,nan,nan,nan,nan,nan,nan,0.0,nan,nan,nan,nan,nan,nan,nan,nan,nan,nan,nan,nan,nan,nan,nan,nan,nan,nan,942.0303765162244,1172.5287423401605,nan,1172.7376671310049,nan,nan,nan,nan
1,146,1,1,1.0,1.0,0.2317966984701343,0,0.0,0.0,0.0,0.36163535910632666,0.13819657728429546,0.2234387818220312,0.4998319363906221,0.13819657728429546,0.23294326360337436,2,5,8,4,3,7,nan,nan,nan,nan,nan,nan,nan,nan,nan,nan,nan,nan,0.0,nan,nan,nan,nan,nan,nan,nan,nan,nan,nan,nan,nan,nan,nan,nan,nan,nan,nan,942.0303765162244,1173.5538667992805,nan,1173.7856634977506,nan,nan,nan,nan
1,147,1,1,1.0,1.0,0.24661433044821024,0,0.0,0.0,0.0,0.360680663072237,0.1381336684186825,0.22254699465355451,0.49881433149091947,0.1381336684186825,0.2291119399208886,0,8,7,6,4,1,nan,nan,nan,nan,nan,nan,nan,nan,nan,nan,nan,nan,0.0,nan,nan,nan,nan,nan,nan,nan,nan,nan,nan,nan,nan,nan,nan,nan,nan,nan,nan,942.0303765162244,1174.579002947372,nan,1174.8256172778201,nan,nan,nan,nan
1,148,1,1,1.0,1.0,0.24549047806067392,0,0.0,0.0,0.0,0.35984806210417847,0.13797069307467835,0.22187736902950012,0.4978187551788568,0.13797069307467835,0.24130050232633948,8,0,3,7,2,6,nan,nan,nan,nan,nan,nan,nan,nan,nan,nan,nan,nan,0.0,nan,nan,nan,nan,nan,nan,nan,nan,nan,nan,nan,nan,nan,nan,nan,nan,nan,nan,942.0303765162244,1175.604123129975,nan,1175.8496136080357,nan,nan,nan,nan
1,149,1,1,1.0,1.0,0.21231687505496666,0,0.0,0.0,0.0,0.3590193839589357,0.13781164565560153,0.22120773830333415,0.4968310296145372,0.13781164565560153,0.23480722785461694,1,8,7,6,4,3,nan,nan,nan,nan,nan,nan,nan,nan,nan,nan,nan,nan,0.0,nan,nan,nan,nan,nan,nan,nan,nan,nan,nan,nan,nan,nan,nan,nan,nan,nan,nan,942.0303765162244,1176.6292609886732,nan,1176.8415778637282,nan,nan,nan,nan
1,150,1,1,1.0,1.0,0.4191635937895626,0,0.0,0.0,0.0,0.35796397022581355,0.13787361666328574,0.22009035356252782,0.4958375868890993,0.13787361666328574,0.2923236489684011,4,1,5,2,6,0,nan,nan,nan,nan,nan,nan,nan,nan,nan,nan,nan,nan,0.0,nan,nan,nan,nan,nan,nan,nan,nan,nan,nan,nan,nan,nan,nan,nan,nan,nan,nan,942.0303765162244,1177.6543885838473,nan,1178.0735521776369,nan,nan,nan,nan
1,151,1,1,1.0,1.0,0.21801168780075386,0,0.0,0.0,0.0,0.3584011103941261,0.13747696666800063,0.22092414372612545,0.4958780770621267,0.13747696666800063,0.2831640522150944,1,4,2,5,3,6,nan,nan,nan,nan,nan,nan,nan,nan,nan,nan,nan,nan,0.0,nan,nan,nan,nan,nan,nan,nan,nan,nan,nan,nan,nan,nan,nan,nan,nan,nan,nan,942.0303765162244,1178.6795352805057,nan,1178.8975469683064,nan,nan,nan,nan
1,152,1,1,1.0,1.0,0.24085451557766646,0,0.0,0.0,0.0,0.3574054407303433,0.13749423455300716,0.21991120617733614,0.49489967528335044,0.13749423455300716,0.2926765990559943,2,5,0,7,6,1,nan,nan,nan,nan,nan,nan,nan,nan,nan,nan,nan,nan,0.0,nan,nan,nan,nan,nan,nan,nan,nan,nan,nan,nan,nan,nan,nan,nan,nan,nan,nan,942.0303765162244,1179.7046446294407,nan,1179.9454991450184,nan,nan,nan,nan
1,153,1,1,1.0,1.0,0.2236794164055027,0,0.0,0.0,0.0,0.3565846595672963,0.1373554593640573,0.219229200203239,0.4939401189313536,0.1373554593640573,0.227515206594641,6,3,4,0,5,7,nan,nan,nan,nan,nan,nan,nan,nan,nan,nan,nan,nan,0.0,nan,nan,nan,nan,nan,nan,nan,nan,nan,nan,nan,nan,nan,nan,nan,nan,nan,nan,942.0303765162244,1180.7298189805006,nan,1180.953498396906,nan,nan,nan,nan
1,154,1,1,1.0,1.0,0.2225900607299991,0,0.0,0.0,0.0,0.35565525227245853,0.13732169457121576,0.21833355770124277,0.4929769468436743,0.13732169457121576,0.2290413309043894,0,2,6,4,3,5,nan,nan,nan,nan,nan,nan,nan,nan,nan,nan,nan,nan,0.0,nan,nan,nan,nan,nan,nan,nan,nan,nan,nan,nan,nan,nan,nan,nan,nan,nan,nan,942.0303765162244,1181.7548981091822,nan,1181.9774881699122,nan,nan,nan,nan
1,155,1,1,1.0,1.0,0.17338773363735527,0,1.0,0.0,0.0,0.35473118844230256,0.13728948075793582,0.21744170768436674,0.49202066920023835,0.13728948075793582,0.20655240359095237,4,0,7,2,5,6,nan,nan,nan,nan,nan,nan,nan,nan,nan,nan,nan,nan,0.0,nan,nan,nan,nan,nan,nan,nan,nan,nan,nan,nan,nan,nan,nan,nan,nan,nan,nan,942.0303765162244,1182.7800704645924,nan,1182.9534581982298,nan,nan,nan,nan
1,156,1,1,nan,nan,nan,0,0.0,0.0,0.0,0.3534805439264064,0.1376359133230756,0.21584463060333078,0.49111645724948194,0.1376359133230756,0.19798889718367718,3,5,2,6,1,0,nan,nan,nan,nan,nan,nan,nan,nan,nan,nan,nan,nan,0.0,nan,nan,nan,nan,nan,nan,nan,nan,nan,nan,nan,nan,nan,nan,nan,nan,nan,nan,942.0303765162244,1183.8052094636369,nan,nan,nan,nan,nan,nan
1,157,1,1,1.0,1.0,0.3790877922438085,0,0.0,0.0,0.0,0.3534805439264064,0.1376359133230756,0.21584463060333078,0.49111645724948194,0.1376359133230756,0.2762377629405819,1,8,7,3,2,4,nan,nan,nan,nan,nan,nan,nan,nan,nan,nan,nan,nan,0.0,nan,nan,nan,nan,nan,nan,nan,nan,nan,nan,nan,nan,nan,nan,nan,nan,nan,nan,942.0303765162244,1184.8303313568467,nan,1185.2094191490905,nan,nan,nan,nan
1,158,1,1,1.0,1.0,0.19386140519054607,0,0.0,0.0,0.0,0.3536559360381694,0.13718000653369175,0.21647592950447767,0.49083594257186114,0.13718000653369175,0.2864745987171773,2,4,6,0,7,5,nan,nan,nan,nan,nan,nan,nan,nan,nan,nan,nan,nan,0.0,nan,nan,nan,nan,nan,nan,nan,nan,nan,nan,nan,nan,nan,nan,nan,nan,nan,nan,942.0303765162244,1185.85552509455,nan,1186.0493864997406,nan,nan,nan,nan
1,159,1,1,1.0,1.0,0.1927549437386915,0,0.0,0.0,0.0,0.35256889841335565,0.13734212461637996,0.2152267737969757,0.4899110230297356,0.13734212461637996,0.2552347137243487,5,7,1,4,2,3,nan,nan,nan,nan,nan,nan,nan,nan,nan,nan,nan,nan,0.0,nan,nan,nan,nan,nan,nan,nan,nan,nan,nan,nan,nan,nan,nan,nan,nan,nan,nan,942.0303765162244,1186.8806218992104,nan,1187.073376842949,nan,nan,nan,nan
1,160,1,1,1.0,1.0,0.19160372199257836,0,1.0,0.0,0.0,0.3514890743952836,0.13750204496515772,0.21398702943012587,0.4889911193604413,0.13750204496515772,0.1927400236406053,2,3,7,0,4,1,nan,nan,nan,nan,nan,nan,nan,nan,nan,nan,nan,nan,0.0,nan,nan,nan,nan,nan,nan,nan,nan,nan,nan,nan,nan,nan,nan,nan,nan,nan,nan,942.0303765162244,1187.9057597579085,nan,1188.097363479901,nan,nan,nan,nan
1,161,0,0,1.0,0.0,0.19046418921789154,0,0.0,0.0,0.0,0.35041601833888963,0.13766021759331656,0.21275580074557307,0.48807623593220617,0.13766021759331656,0.19160761831638715,0,2,3,7,1,8,nan,nan,nan,nan,nan,nan,nan,nan,nan,nan,nan,nan,0.0,nan,nan,nan,nan,nan,nan,nan,nan,nan,nan,nan,nan,nan,nan,nan,nan,nan,nan,942.0303765162244,1188.9308716727537,nan,1189.1213358619716,nan,nan,nan,nan
1,162,1,1,1.0,1.0,0.14929104928160086,0,0.0,0.0,0.0,0.34934967281141627,0.13781664182020034,0.21153303099121593,0.48716631463161664,0.13781664182020034,0.17711965349735692,5,4,2,1,8,3,nan,nan,nan,nan,nan,nan,nan,nan,nan,nan,nan,nan,0.0,nan,nan,nan,nan,nan,nan,nan,nan,nan,nan,nan,nan,nan,nan,nan,nan,nan,nan,942.0303765162244,1189.9560086760903,nan,1190.1052997253719,nan,nan,nan,nan
1,163,1,1,1.0,1.0,0.17218433920061216,0,0.0,0.0,0.0,0.3480247812648612,0.13831465258938166,0.20971012867547953,0.48633943385424283,0.13831465258938166,0.17064652590003485,2,0,6,8,4,5,nan,nan,nan,nan,nan,nan,nan,nan,nan,nan,nan,nan,0.0,nan,nan,nan,nan,nan,nan,nan,nan,nan,nan,nan,nan,nan,nan,nan,nan,nan,nan,942.0303765162244,1190.9811023446964,nan,1191.153286683897,nan,nan,nan,nan
1,164,0,0,1.0,0.0,0.12301194726023823,0,0.0,0.0,0.0,0.34686793625128065,0.1385899112533915,0.20827802499788914,0.48545784750467214,0.1385899112533915,0.14816244524748376,1,6,0,4,5,7,nan,nan,nan,nan,nan,nan,nan,nan,nan,nan,nan,nan,0.0,nan,nan,nan,nan,nan,nan,nan,nan,nan,nan,nan,nan,nan,nan,nan,nan,nan,nan,942.0303765162244,1192.0062687130994,nan,1192.1292806603597,nan,nan,nan,nan
1,165,1,1,1.0,1.0,0.3538356096833013,0,0.0,0.0,0.0,0.3454048252121235,0.13930905196589488,0.20609577324622863,0.4847138771780184,0.13930905196589488,0.2163439653813839,7,4,3,6,1,2,nan,nan,nan,nan,nan,nan,nan,nan,nan,nan,nan,nan,0.0,nan,nan,nan,nan,nan,nan,nan,nan,nan,nan,nan,nan,nan,nan,nan,nan,nan,nan,942.0303765162244,1193.0313963082153,nan,1193.3852319178986,nan,nan,nan,nan
1,166,1,1,1.0,1.0,0.3127143573365174,0,0.0,0.0,0.0,0.34545957056583243,0.13885766435699942,0.206601906208833,0.48431723492283185,0.13885766435699942,0.263187304760019,8,6,0,3,5,4,nan,nan,nan,nan,nan,nan,nan,nan,nan,nan,nan,nan,0.0,nan,nan,nan,nan,nan,nan,nan,nan,nan,nan,nan,nan,nan,nan,nan,nan,nan,nan,942.0303765162244,1194.0565236182883,nan,1194.3692379756249,nan,nan,nan,nan
1,167,1,1,1.0,1.0,0.24751666246447712,0,0.0,0.0,0.0,0.3452483111256433,0.13843383834091796,0.20681447278472534,0.4836821494665613,0.13843383834091796,0.3046888764947653,6,0,7,1,3,2,nan,nan,nan,nan,nan,nan,nan,nan,nan,nan,nan,nan,0.0,nan,nan,nan,nan,nan,nan,nan,nan,nan,nan,nan,nan,nan,nan,nan,nan,nan,nan,942.0303765162244,1195.0816859953338,nan,1195.3292026577983,nan,nan,nan,nan
1,168,0,0,0.0,1.0,0.39037335733883083,0,0.0,0.0,0.0,0.34462182619832815,0.13820968428266397,0.20641214191566418,0.48283151048099215,0.13820968428266397,0.3168681257132751,4,3,6,5,2,7,nan,nan,nan,nan,nan,nan,nan,nan,nan,nan,nan,nan,0.0,nan,nan,nan,nan,nan,nan,nan,nan,nan,nan,nan,nan,nan,nan,nan,nan,nan,nan,942.0303765162244,1196.1067996207275,nan,1196.4971729780664,nan,nan,nan,nan
1,169,1,1,1.0,1.0,0.3012431939714588,0,0.0,0.0,0.0,0.3449132372247008,0.13781689355704743,0.20709634366765337,0.4827301307817482,0.13781689355704743,0.31304440459158894,3,1,8,4,5,0,nan,nan,nan,nan,nan,nan,nan,nan,nan,nan,nan,nan,0.0,nan,nan,nan,nan,nan,nan,nan,nan,nan,nan,nan,nan,nan,nan,nan,nan,nan,nan,942.0303765162244,1197.1319283563062,nan,1197.4331715502776,nan,nan,nan,nan
1,170,0,0,0.0,1.0,0.3400697004981339,0,0.0,0.0,0.0,0.3446368445458828,0.13742371642512416,0.20721312812075862,0.4820605609710069,0.13742371642512416,0.34389541726947453,0,2,3,7,6,5,nan,nan,nan,nan,nan,nan,nan,nan,nan,nan,nan,nan,0.0,nan,nan,nan,nan,nan,nan,nan,nan,nan,nan,nan,nan,nan,nan,nan,nan,nan,nan,942.0303765162244,1198.1570667851483,nan,1198.4971364856465,nan,nan,nan,nan
1,171,1,1,1.0,1.0,0.2508485912694596,0,0.0,0.0,0.0,0.34460812036948185,0.13699136055300506,0.2076167598164768,0.48159948092248694,0.13699136055300506,0.29738716191301745,8,6,7,1,2,0,nan,nan,nan,nan,nan,nan,nan,nan,nan,nan,nan,nan,0.0,nan,nan,nan,nan,nan,nan,nan,nan,nan,nan,nan,nan,nan,nan,nan,nan,nan,nan,942.0303765162244,1199.1822739223717,nan,1199.4331225136411,nan,nan,nan,nan
1,172,1,1,1.0,1.0,0.42575931310420856,0,0.0,0.0,0.0,0.34402212331260673,0.1367623516407416,0.20725977167186513,0.4807844749533483,0.1367623516407416,0.33889253495726734,2,7,5,3,8,1,nan,nan,nan,nan,nan,nan,nan,nan,nan,nan,nan,nan,0.0,nan,nan,nan,nan,nan,nan,nan,nan,nan,nan,nan,nan,nan,nan,nan,nan,nan,nan,942.0303765162244,1200.20733623032,nan,1200.6330955434241,nan,nan,nan,nan
1,173,1,1,1.0,1.0,0.34456396981840953,0,0.0,0.0,0.0,0.3445298077212502,0.13648811755682472,0.20804169016442547,0.4810179252780749,0.13648811755682472,0.34039062473069254,1,5,7,8,6,2,nan,nan,nan,nan,nan,nan,nan,nan,nan,nan,nan,nan,0.0,nan,nan,nan,nan,nan,nan,nan,nan,nan,nan,nan,nan,nan,nan,nan,nan,nan,nan,942.0303765162244,1201.2325020284625,nan,1201.577065998281,nan,nan,nan,nan
1,174,1,1,1.0,1.0,0.4874659950728528,0,0.0,0.0,0.0,0.34453001859839316,0.13606620585480397,0.2084638127435892,0.48059622445319716,0.13606620585480397,0.419263092665157,8,2,5,3,4,7,nan,nan,nan,nan,nan,nan,nan,nan,nan,nan,nan,nan,0.0,nan,nan,nan,nan,nan,nan,nan,nan,nan,nan,nan,nan,nan,nan,nan,nan,nan,nan,942.0303765162244,1202.2575905653648,nan,1202.7450565604377,nan,nan,nan,nan
1,175,1,1,1.0,1.0,0.438279633410275,0,0.0,0.0,0.0,0.3454069264295248,0.13610658392409947,0.20930034250542534,0.4815135103536243,0.13610658392409947,0.42343653276717913,3,0,6,5,8,1,nan,nan,nan,nan,nan,nan,nan,nan,nan,nan,nan,nan,0.0,nan,nan,nan,nan,nan,nan,nan,nan,nan,nan,nan,nan,nan,nan,nan,nan,nan,nan,942.0303765162244,1203.2827492360957,nan,1203.721028869506,nan,nan,nan,nan
1,176,1,1,1.0,1.0,0.2851206730119884,0,0.0,0.0,0.0,0.3459732234233099,0.13588347103146553,0.21008975239184435,0.4818566944547754,0.13588347103146553,0.40362210049837205,2,5,1,7,0,6,nan,nan,nan,nan,nan,nan,nan,nan,nan,nan,nan,nan,0.0,nan,nan,nan,nan,nan,nan,nan,nan,nan,nan,nan,nan,nan,nan,nan,nan,nan,nan,942.0303765162244,1204.3078919413965,nan,1204.5930126144085,nan,nan,nan,nan
1,177,1,1,1.0,1.0,0.4679927288671024,0,0.0,0.0,0.0,0.3456044200874837,0.13555338192567878,0.21005103816180493,0.4811578020131625,0.13555338192567878,0.39713101176312193,7,6,0,5,1,4,nan,nan,nan,nan,nan,nan,nan,nan,nan,nan,nan,nan,0.0,nan,nan,nan,nan,nan,nan,nan,nan,nan,nan,nan,nan,nan,nan,nan,nan,nan,nan,942.0303765162244,1205.3330038562417,nan,1205.8009965851088,nan,nan,nan,nan
1,178,0,0,1.0,0.0,0.6108485684380867,0,0.0,0.0,0.0,0.3463416990560356,0.13547589828763146,0.21086580076840417,0.4818175973436671,0.13547589828763146,0.4546539901057258,4,7,3,6,8,0,nan,nan,nan,nan,nan,nan,nan,nan,nan,nan,nan,nan,0.0,nan,nan,nan,nan,nan,nan,nan,nan,nan,nan,nan,nan,nan,nan,nan,nan,nan,nan,942.0303765162244,1206.3581069330685,nan,1206.9689555015066,nan,nan,nan,nan
1,179,1,1,1.0,1.0,0.4576400011428632,0,0.0,0.0,0.0,0.3479255725253892,0.1366025375513459,0.21132303497404328,0.48452811007673513,0.1366025375513459,0.5121604328160174,1,4,7,0,6,8,nan,nan,nan,nan,nan,nan,nan,nan,nan,nan,nan,nan,0.0,nan,nan,nan,nan,nan,nan,nan,nan,nan,nan,nan,nan,nan,nan,nan,nan,nan,nan,942.0303765162244,1207.3832710206625,nan,1207.8409110218054,nan,nan,nan,nan
1,180,0,0,0.0,1.0,0.4405068112537265,0,0.0,0.0,0.0,0.3485786346004932,0.13645660178866664,0.21212203281182657,0.48503523638915985,0.13645660178866664,0.5029984602782255,0,2,8,4,1,7,nan,nan,nan,nan,nan,nan,nan,nan,nan,nan,nan,nan,0.0,nan,nan,nan,nan,nan,nan,nan,nan,nan,nan,nan,nan,nan,nan,nan,nan,nan,nan,942.0303765162244,1208.4084211384761,nan,1208.8489279497298,nan,nan,nan,nan
1,181,1,1,1.0,1.0,0.5433544171974063,0,0.0,0.0,0.0,0.3491225883085005,0.13623484522064713,0.21288774308785338,0.4853574335291476,0.13623484522064713,0.4805004098646653,4,7,2,6,3,5,nan,nan,nan,nan,nan,nan,nan,nan,nan,nan,nan,nan,0.0,nan,nan,nan,nan,nan,nan,nan,nan,nan,nan,nan,nan,nan,nan,nan,nan,nan,nan,942.0303765162244,1209.4335407509352,nan,1209.9768951681326,nan,nan,nan,nan
1,182,1,1,1.0,1.0,0.4782174480496906,0,0.0,0.0,0.0,0.3502651284784353,0.13664321880086489,0.2136219096775704,0.48690834727930016,0.13664321880086489,0.48735955883360776,3,0,1,4,6,8,nan,nan,nan,nan,nan,nan,nan,nan,nan,nan,nan,nan,0.0,nan,nan,nan,nan,nan,nan,nan,nan,nan,nan,nan,nan,nan,nan,nan,nan,nan,nan,942.0303765162244,1210.4586700566579,nan,1210.9368875047076,nan,nan,nan,nan
1,183,0,0,0.0,1.0,0.5570319462567568,0,0.0,0.0,0.0,0.3510133876572145,0.13659195275052483,0.2144214349066897,0.48760534040773934,0.13659195275052483,0.5262012705012845,6,2,3,8,0,7,nan,nan,nan,nan,nan,nan,nan,nan,nan,nan,nan,nan,0.0,nan,nan,nan,nan,nan,nan,nan,nan,nan,nan,nan,nan,nan,nan,nan,nan,nan,nan,942.0303765162244,1211.4838113365113,nan,1212.040843282768,nan,nan,nan,nan
1,184,1,1,1.0,1.0,0.3238961471361108,0,0.0,0.0,0.0,0.35221116997465374,0.13709201008072272,0.21511915989393102,0.48930318005537643,0.13709201008072272,0.45304851381418604,7,1,8,3,2,6,nan,nan,nan,nan,nan,nan,nan,nan,nan,nan,nan,nan,0.0,nan,nan,nan,nan,nan,nan,nan,nan,nan,nan,nan,nan,nan,nan,nan,nan,nan,nan,942.0303765162244,1212.5089403571328,nan,1212.832836504269,nan,nan,nan,nan
1,185,1,1,1.0,1.0,0.4427459631697275,0,0.0,0.0,0.0,0.3520474993224078,0.1367120684971993,0.2153354308252085,0.4887595678196071,0.1367120684971993,0.441224685520865,5,2,6,4,3,8,nan,nan,nan,nan,nan,nan,nan,nan,nan,nan,nan,nan,0.0,nan,nan,nan,nan,nan,nan,nan,nan,nan,nan,nan,nan,nan,nan,nan,nan,nan,nan,942.0303765162244,1213.5340753648197,nan,1213.9768213279895,nan,nan,nan,nan
1,186,1,1,1.0,1.0,0.28959441534243524,0,0.0,0.0,0.0,0.3525687548617602,0.13649095266339034,0.21607780219836986,0.48905970752515054,0.13649095266339034,0.35207884188275784,3,6,7,0,2,4,nan,nan,nan,nan,nan,nan,nan,nan,nan,nan,nan,nan,0.0,nan,nan,nan,nan,nan,nan,nan,nan,nan,nan,nan,nan,nan,nan,nan,nan,nan,nan,942.0303765162244,1214.5592103725066,nan,1214.848804787849,nan,nan,nan,nan
1,187,1,1,nan,nan,nan,0,0.0,0.0,0.0,0.3522089014930784,0.13618317189031406,0.2160257296027643,0.4883920733833924,0.13618317189031406,0.36617018925608136,1,7,0,8,6,3,nan,nan,nan,nan,nan,nan,nan,nan,nan,nan,nan,nan,0.0,nan,nan,nan,nan,nan,nan,nan,nan,nan,nan,nan,nan,nan,nan,nan,nan,nan,nan,942.0303765162244,1215.5843191512977,nan,nan,nan,nan,nan,nan
1,188,1,1,1.0,1.0,0.31128744676243514,0,0.0,0.0,0.0,0.3522089014930784,0.13618317189031406,0.2160257296027643,0.4883920733833924,0.13618317189031406,0.3004409310524352,3,6,4,0,1,5,nan,nan,nan,nan,nan,nan,nan,nan,nan,nan,nan,nan,0.0,nan,nan,nan,nan,nan,nan,nan,nan,nan,nan,nan,nan,nan,nan,nan,nan,nan,nan,942.0303765162244,1216.609470979718,nan,1216.9207584264805,nan,nan,nan,nan
1,189,1,1,1.0,1.0,0.6060623598750681,0,0.0,0.0,0.0,0.35197639322756336,0.13583056592283507,0.21614582730472828,0.4878069591503984,0.13583056592283507,0.4586749033187516,1,7,2,6,0,4,nan,nan,nan,nan,nan,nan,nan,nan,nan,nan,nan,nan,0.0,nan,nan,nan,nan,nan,nan,nan,nan,nan,nan,nan,nan,nan,nan,nan,nan,nan,nan,942.0303765162244,1217.6346444754745,nan,1218.2407068353496,nan,nan,nan,nan
1,190,1,1,1.0,1.0,0.3173001427203417,0,0.0,0.0,0.0,0.35341190716342497,0.13677861280414153,0.21663329435928344,0.49019051996756646,0.13677861280414153,0.41154998311928165,7,2,1,5,6,3,nan,nan,nan,nan,nan,nan,nan,nan,nan,nan,nan,nan,0.0,nan,nan,nan,nan,nan,nan,nan,nan,nan,nan,nan,nan,nan,nan,nan,nan,nan,nan,942.0303765162244,1218.6514138816274,nan,1218.9687140243477,nan,nan,nan,nan
1,191,1,1,1.0,1.0,0.19619235838763416,0,0.0,0.0,0.0,0.35320903208228405,0.13642056527857307,0.21678846680371097,0.4896295973608571,0.13642056527857307,0.3731849536610146,1,6,5,7,8,0,nan,nan,nan,nan,nan,nan,nan,nan,nan,nan,nan,nan,0.0,nan,nan,nan,nan,nan,nan,nan,nan,nan,nan,nan,nan,nan,nan,nan,nan,nan,nan,942.0303765162244,1219.6765189541038,nan,1219.8727113124914,nan,nan,nan,nan
1,192,1,1,1.0,1.0,0.2589955233852379,0,0.0,0.0,0.0,0.35233184396108486,0.13654143936765645,0.2157904045934284,0.4888732833287413,0.13654143936765645,0.2574960081644046,7,8,1,3,2,6,nan,nan,nan,nan,nan,nan,nan,nan,nan,nan,nan,nan,0.0,nan,nan,nan,nan,nan,nan,nan,nan,nan,nan,nan,nan,nan,nan,nan,nan,nan,nan,942.0303765162244,1220.7016793354414,nan,1220.9606748588267,nan,nan,nan,nan
1,193,1,1,1.0,1.0,0.2098664662335068,0,0.0,0.0,0.0,0.35181330884677464,0.1363382506354618,0.21547505821131285,0.48815155948223643,0.1363382506354618,0.22168478266879296,0,1,7,8,5,2,nan,nan,nan,nan,nan,nan,nan,nan,nan,nan,nan,nan,0.0,nan,nan,nan,nan,nan,nan,nan,nan,nan,nan,nan,nan,nan,nan,nan,nan,nan,nan,942.0303765162244,1221.7267992330017,nan,1221.9366656992352,nan,nan,nan,nan
1,194,1,1,1.0,1.0,0.20868017757311463,0,0.0,0.0,0.0,0.3510290721472538,0.1363676160044082,0.21466145614284562,0.48739668815166204,0.1363676160044082,0.2258473890639531,3,2,1,5,6,7,nan,nan,nan,nan,nan,nan,nan,nan,nan,nan,nan,nan,0.0,nan,nan,nan,nan,nan,nan,nan,nan,nan,nan,nan,nan,nan,nan,nan,nan,nan,nan,942.0303765162244,1222.7519473551656,nan,1222.9606275327387,nan,nan,nan,nan
1,195,1,1,1.0,1.0,0.135873528663069,0,1.0,0.0,0.0,0.3502469353638794,0.13639895433248836,0.21384798103139105,0.4866458896963678,0.13639895433248836,0.1848067241565635,2,0,6,3,5,8,nan,nan,nan,nan,nan,nan,nan,nan,nan,nan,nan,nan,0.0,nan,nan,nan,nan,nan,nan,nan,nan,nan,nan,nan,nan,nan,nan,nan,nan,nan,nan,942.0303765162244,1223.7687535387813,nan,1223.9046270674444,nan,nan,nan,nan
1,196,1,1,1.0,1.0,0.05475886777276173,1,0.0,0.0,1.0,0.34907549598300064,0.13694072817934644,0.2121347678036542,0.4860162241623471,0.13694072817934644,0.13310419133631513,3,1,2,7,0,4,1.0,1.0,1.0,1.0,1.0,1.0,1.0,0.0,0.0,0.0,0.0,0.0,1.0,3.0,4.0,1.0,0.0,5.0,2.0,3.0,2.0,1.0,6.0,5.0,4.0,5.106706679041963,4.219696326064877,3.161451577092521,8.265642275102437,6.4582375644822605,5.61758398526581,942.0303765162244,1224.7938697300851,1225.602277982165,1224.848628597858,1234.9201540208305,1235.9219572594156,1226.6190861614887,1234.9118194948533
1,197,1,1,1.0,1.0,0.7429927431512624,0,0.0,0.0,0.0,0.34747594909055374,0.1382716910349834,0.20920425805557033,0.4857476401255372,0.1382716910349834,0.3112083798623644,4,0,8,2,6,1,nan,nan,nan,nan,nan,nan,nan,nan,nan,nan,nan,nan,0.0,nan,nan,nan,nan,nan,nan,nan,nan,nan,nan,nan,nan,nan,nan,nan,nan,nan,nan,942.0303765162244,1236.1453487278195,nan,1236.8883414709708,nan,nan,nan,nan
1,198,1,1,1.0,1.0,0.3978505966369994,0,0.0,0.0,0.0,0.34961387770709806,0.14091391060520786,0.2086999671018902,0.4905277883123059,0.14091391060520786,0.39853406918700784,3,5,0,4,2,8,nan,nan,nan,nan,nan,nan,nan,nan,nan,nan,nan,nan,0.0,nan,nan,nan,nan,nan,nan,nan,nan,nan,nan,nan,nan,nan,nan,nan,nan,nan,nan,942.0303765162244,1237.1704868715606,nan,1237.5683374681976,nan,nan,nan,nan
1,199,1,1,1.0,1.0,0.2527216785820201,0,0.0,0.0,0.0,0.34987321490564594,0.14057886010291468,0.20929435480273126,0.4904520750085606,0.14057886010291468,0.464521672790094,5,3,2,0,8,1,nan,nan,nan,nan,nan,nan,nan,nan,nan,nan,nan,nan,0.0,nan,nan,nan,nan,nan,nan,nan,nan,nan,nan,nan,nan,nan,nan,nan,nan,nan,nan,942.0303765162244,1238.1956133263884,nan,1238.4483350049704,nan,nan,nan,nan
1,200,1,1,1.0,1.0,0.45954102801624686,0,0.0,0.0,0.0,0.349353687973434,0.14038140001701205,0.20897228795642198,0.48973508799044607,0.14038140001701205,0.3700377677450888,0,5,8,6,2,3,nan,nan,nan,nan,nan,nan,nan,nan,nan,nan,nan,nan,0.0,nan,nan,nan,nan,nan,nan,nan,nan,nan,nan,nan,nan,nan,nan,nan,nan,nan,nan,942.0303765162244,1239.2207497595227,nan,1239.680290787539,nan,nan,nan,nan
1,201,1,1,1.0,1.0,0.6583799419458956,0,0.0,0.0,0.0,0.3499397908460022,0.14023676741566818,0.209703023430334,0.4901765582616704,0.14023676741566818,0.45688088284805417,8,3,5,1,4,7,nan,nan,nan,nan,nan,nan,nan,nan,nan,nan,nan,nan,0.0,nan,nan,nan,nan,nan,nan,nan,nan,nan,nan,nan,nan,nan,nan,nan,nan,nan,nan,942.0303765162244,1240.2458833417622,nan,1240.9042632837081,nan,nan,nan,nan
1,202,1,1,1.0,1.0,0.7692250891705044,0,0.0,1.0,0.0,0.3515717493174302,0.14164389996539514,0.20992784935203504,0.49321564928282535,0.14164389996539514,0.629048686377549,6,2,8,3,1,4,nan,nan,nan,nan,nan,nan,nan,nan,nan,nan,nan,nan,0.0,nan,nan,nan,nan,nan,nan,nan,nan,nan,nan,nan,nan,nan,nan,nan,nan,nan,nan,942.0303765162244,1241.271015213395,nan,1242.0402403025655,nan,nan,nan,nan
1,203,1,1,1.0,1.0,0.5200360476737842,1,0.0,0.0,1.0,0.35376992479034114,0.14446675410794949,0.20930317068239165,0.4982366788982906,0.14446675410794949,0.6492136929300614,1,3,0,4,6,5,1.0,1.0,1.0,1.0,1.0,1.0,0.0,1.0,0.0,0.0,0.0,0.0,1.0,6.0,3.0,7.0,8.0,4.0,1.0,6.0,1.0,5.0,4.0,3.0,2.0,8.898809662961867,0.7334656563471071,6.219110166595783,4.859789005364291,3.4608268155134283,1.867155626998283,942.0303765162244,1242.2961493657785,1243.104564175068,1242.8161854134523,1253.0558553509181,1254.064398567949,1244.1213620909257,1253.0475327990134
1,204,1,1,1.0,1.0,0.3826204292126931,0,0.0,0.0,0.0,0.35464042805151097,0.14458682542448237,0.2100536026270286,0.49922725347599334,0.14458682542448237,0.5572938553523272,7,6,8,5,2,4,nan,nan,nan,nan,nan,nan,nan,nan,nan,nan,nan,nan,0.0,nan,nan,nan,nan,nan,nan,nan,nan,nan,nan,nan,nan,nan,nan,nan,nan,nan,nan,942.0303765162244,1254.2893520828802,nan,1254.671972512093,nan,nan,nan,nan
1,205,1,1,1.0,1.0,0.5654443037346937,0,0.0,0.0,0.0,0.35478615722422546,0.14422386875985577,0.2105622884643697,0.49901002598408123,0.14422386875985577,0.4893669268737237,8,2,0,1,5,7,nan,nan,nan,nan,nan,nan,nan,nan,nan,nan,nan,nan,0.0,nan,nan,nan,nan,nan,nan,nan,nan,nan,nan,nan,nan,nan,nan,nan,nan,nan,nan,942.0303765162244,1255.3145193065284,nan,1255.879963610263,nan,nan,nan,nan
1,206,1,1,1.0,1.0,0.4762870562262833,0,0.0,0.0,0.0,0.35587765021132634,0.14464262896982139,0.21123502124150495,0.5005202791811477,0.14464262896982139,0.4747839297245567,6,8,3,5,4,1,nan,nan,nan,nan,nan,nan,nan,nan,nan,nan,nan,nan,0.0,nan,nan,nan,nan,nan,nan,nan,nan,nan,nan,nan,nan,nan,nan,nan,nan,nan,nan,942.0303765162244,1256.3396557396627,nan,1256.815942795889,nan,nan,nan,nan
1,207,1,1,1.0,1.0,0.5711539415060543,0,0.0,1.0,0.0,0.35649831725264053,0.14452680133784823,0.2119715159147923,0.5010251185904888,0.14452680133784823,0.5376284338223437,2,1,5,3,7,0,nan,nan,nan,nan,nan,nan,nan,nan,nan,nan,nan,nan,0.0,nan,nan,nan,nan,nan,nan,nan,nan,nan,nan,nan,nan,nan,nan,nan,nan,nan,nan,942.0303765162244,1257.3647813391872,nan,1257.9359352806932,nan,nan,nan,nan
1,208,1,1,1.0,1.0,0.6819648772361688,1,0.0,0.0,1.0,0.35759911532573496,0.1449688211869717,0.21263029413876325,0.5025679365127067,0.1449688211869717,0.5764686249895021,6,5,2,4,8,3,1.0,1.0,1.0,1.0,1.0,1.0,0.0,1.0,1.0,0.0,0.0,0.0,2.0,7.0,5.0,2.0,0.0,6.0,8.0,3.0,2.0,1.0,6.0,5.0,4.0,3.9982355345855467,2.157798058935441,1.0463610502774827,7.276927555096336,6.037491397175472,4.901930905005429,942.0303765162244,1258.3899211934768,1259.198332296568,1259.071886070713,1267.5244191291276,1268.5253149039345,1260.206805094611,1267.5160731992219
1,209,1,1,nan,nan,nan,0,0.0,0.0,0.0,0.35925404268242084,0.1464335952694473,0.21282044741297354,0.5056876379518681,0.1464335952694473,0.6265594093711115,1,6,3,7,0,4,nan,nan,nan,nan,nan,nan,nan,nan,nan,nan,nan,nan,0.0,nan,nan,nan,nan,nan,nan,nan,nan,nan,nan,nan,nan,nan,nan,nan,nan,nan,nan,942.0303765162244,1268.7496061385027,nan,nan,nan,nan,nan,nan
1,210,1,1,1.0,1.0,0.7049593765405007,0,0.0,0.0,0.0,0.35925404268242084,0.1464335952694473,0.21282044741297354,0.5056876379518681,0.1464335952694473,0.6934621268883348,0,4,7,3,2,5,nan,nan,nan,nan,nan,nan,nan,nan,nan,nan,nan,nan,0.0,nan,nan,nan,nan,nan,nan,nan,nan,nan,nan,nan,nan,nan,nan,nan,nan,nan,nan,942.0303765162244,1269.7746989518055,nan,1270.479658328346,nan,nan,nan,nan
1,211,1,1,1.0,1.0,0.7197576219332404,0,0.0,0.0,0.0,0.36100889209286796,0.14811324194322614,0.21289565014964182,0.5091221340360941,0.14811324194322614,0.7123584992368706,6,3,2,8,5,0,nan,nan,nan,nan,nan,nan,nan,nan,nan,nan,nan,nan,0.0,nan,nan,nan,nan,nan,nan,nan,nan,nan,nan,nan,nan,nan,nan,nan,nan,nan,nan,942.0303765162244,1270.799874728371,nan,1271.5196323503042,nan,nan,nan,nan
1,212,1,1,1.0,1.0,0.7426055813557468,0,0.0,1.0,0.0,0.36282075436478906,0.14991149810591303,0.21290925625887602,0.5127322524707021,0.14991149810591303,0.7224408599431626,1,5,8,0,7,2,nan,nan,nan,nan,nan,nan,nan,nan,nan,nan,nan,nan,0.0,nan,nan,nan,nan,nan,nan,nan,nan,nan,nan,nan,nan,nan,nan,nan,nan,nan,nan,942.0303765162244,1271.8250048894552,nan,1272.567610470811,nan,nan,nan,nan
1,213,1,1,nan,nan,nan,0,0.0,0.0,0.0,0.36472922083208026,0.15192659306766734,0.21280262776441292,0.5166558138997476,0.15192659306766734,0.7311816016444936,4,6,1,5,2,8,nan,nan,nan,nan,nan,nan,nan,nan,nan,nan,nan,nan,0.0,nan,nan,nan,nan,nan,nan,nan,nan,nan,nan,nan,nan,nan,nan,nan,nan,nan,nan,942.0303765162244,1272.8501410374884,nan,nan,nan,nan,nan,nan
1,214,1,1,1.0,1.0,0.00430410954868421,0,0.0,0.0,0.0,0.36472922083208026,0.15192659306766734,0.21280262776441292,0.5166558138997476,0.15192659306766734,0.3734548454522155,6,2,7,3,8,1,nan,nan,nan,nan,nan,nan,nan,nan,nan,nan,nan,nan,0.0,nan,nan,nan,nan,nan,nan,nan,nan,nan,nan,nan,nan,nan,nan,nan,nan,nan,nan,942.0303765162244,1273.8752703432692,nan,1273.879574452818,nan,nan,nan,nan
1,215,1,1,1.0,1.0,0.49115714605432004,0,0.0,0.0,0.0,0.3629270952756633,0.15366380471809224,0.20926329055757106,0.5165908999937555,0.15366380471809224,0.24773062780150212,4,7,1,6,2,3,nan,nan,nan,nan,nan,nan,nan,nan,nan,nan,nan,nan,0.0,nan,nan,nan,nan,nan,nan,nan,nan,nan,nan,nan,nan,nan,nan,nan,nan,nan,nan,942.0303765162244,1274.900407916808,nan,1275.3915650628624,nan,nan,nan,nan
1,216,1,1,1.0,1.0,0.4339826512732543,0,0.0,0.0,0.0,0.3635650557272984,0.1535463713047095,0.21001868442258892,0.5171114270320079,0.1535463713047095,0.3098146356254195,5,6,7,2,0,1,nan,nan,nan,nan,nan,nan,nan,nan,nan,nan,nan,nan,0.0,nan,nan,nan,nan,nan,nan,nan,nan,nan,nan,nan,nan,nan,nan,nan,nan,nan,nan,942.0303765162244,1275.925556038972,nan,1276.3595386902452,nan,nan,nan,nan
1,217,1,1,1.0,1.0,0.5768419119995087,0,0.0,0.0,0.0,0.3639136576854467,0.15324555145709107,0.21066810622835563,0.5171592091425378,0.15324555145709107,0.5006605697756944,3,1,6,7,8,4,nan,nan,nan,nan,nan,nan,nan,nan,nan,nan,nan,nan,0.0,nan,nan,nan,nan,nan,nan,nan,nan,nan,nan,nan,nan,nan,nan,nan,nan,nan,nan,942.0303765162244,1276.9506750812288,nan,1277.5275169932283,nan,nan,nan,nan
1,218,1,1,1.0,1.0,0.5676974253728986,0,0.0,1.0,0.0,0.3649625653421662,0.15359282275169658,0.21136974259046962,0.5185553880938628,0.15359282275169658,0.5261739962152205,8,4,5,6,3,7,nan,nan,nan,nan,nan,nan,nan,nan,nan,nan,nan,nan,0.0,nan,nan,nan,nan,nan,nan,nan,nan,nan,nan,nan,nan,nan,nan,nan,nan,nan,nan,942.0303765162244,1277.9758041019086,nan,1278.5435015272815,nan,nan,nan,nan
1,219,1,1,1.0,1.0,0.5265194387757219,1,0.0,0.0,1.0,0.3659563636756502,0.15386878882631544,0.21208757484933477,0.5198251525019657,0.15386878882631544,0.5570195920493765,5,0,3,4,1,8,1.0,1.0,1.0,1.0,1.0,1.0,0.0,0.0,1.0,1.0,1.0,0.0,3.0,8.0,5.0,3.0,4.0,1.0,6.0,5.0,4.0,3.0,1.0,2.0,6.0,8.921777933370322,7.521804219344631,4.802341672824696,2.86525146412896,3.7633885832619853,10.93719626480015,942.0303765162244,1279.000959066383,1279.8093561996357,1279.5274785051588,1291.8109054167871,1292.8140679979115,1280.8344835097087,1291.8025760225719
1,220,0,0,1.0,0.0,0.24309708864893764,0,0.0,0.0,0.0,0.36673959818833346,0.15390015759700754,0.21283944059132592,0.520639755785341,0.15390015759700754,0.44577131759918603,4,1,5,8,0,7,nan,nan,nan,nan,nan,nan,nan,nan,nan,nan,nan,nan,0.0,nan,nan,nan,nan,nan,nan,nan,nan,nan,nan,nan,nan,nan,nan,nan,nan,nan,nan,942.0303765162244,1293.036099553632,nan,1293.279196642281,nan,nan,nan,nan
1,221,1,1,1.0,1.0,0.5539192571304739,0,0.0,0.0,0.0,0.36613939183134614,0.15376648626369077,0.21237290556765537,0.519905878095037,0.15376648626369077,0.4411785948517111,3,2,0,1,6,8,nan,nan,nan,nan,nan,nan,nan,nan,nan,nan,nan,nan,0.0,nan,nan,nan,nan,nan,nan,nan,nan,nan,nan,nan,nan,nan,nan,nan,nan,nan,nan,942.0303765162244,1294.0612337060156,nan,1294.615152963146,nan,nan,nan,nan
1,222,1,1,1.0,1.0,0.46479907212778926,0,0.0,0.0,0.0,0.3670465409390714,0.15394619467297851,0.2131003462660929,0.52099273561205,0.15394619467297851,0.42060513930240023,1,4,6,3,7,0,nan,nan,nan,nan,nan,nan,nan,nan,nan,nan,nan,nan,0.0,nan,nan,nan,nan,nan,nan,nan,nan,nan,nan,nan,nan,nan,nan,nan,nan,nan,nan,942.0303765162244,1295.086366718053,nan,1295.5511657901807,nan,nan,nan,nan
1,223,1,1,1.0,1.0,0.7036120080738328,0,0.0,1.0,0.0,0.3675165050313248,0.15372446323280273,0.2137920417985221,0.5212409682641276,0.15372446323280273,0.574110112444032,6,0,2,1,3,5,nan,nan,nan,nan,nan,nan,nan,nan,nan,nan,nan,nan,0.0,nan,nan,nan,nan,nan,nan,nan,nan,nan,nan,nan,nan,nan,nan,nan,nan,nan,nan,942.0303765162244,1296.1115040064906,nan,1296.8151160145644,nan,nan,nan,nan
1,224,1,1,1.0,1.0,0.7504562977701426,1,0.0,0.0,1.0,0.36912461748607367,0.15510008362889627,0.2140245338571774,0.5242247011149699,0.15510008362889627,0.6396224593239216,0,6,1,5,4,3,1.0,1.0,1.0,1.0,1.0,1.0,1.0,1.0,0.0,0.0,0.0,0.0,2.0,0.0,6.0,3.0,7.0,8.0,2.0,2.0,1.0,6.0,5.0,4.0,3.0,2.7457989530521445,1.2198842050274834,7.737388591223862,6.378009270236362,5.129649575857911,4.281982895336114,942.0303765162244,1297.1366432906361,1297.9450489768642,1297.8870995884063,1306.7378535844618,1307.7429690801073,1298.9618497436168,1306.7295233349432
1,225,1,1,1.0,1.0,0.35577540966914967,0,0.0,0.0,0.0,0.3709404826302835,0.1569414952457641,0.21399898738451942,0.5278819778760476,0.1569414952457641,0.603281238504375,4,7,5,3,8,1,nan,nan,nan,nan,nan,nan,nan,nan,nan,nan,nan,nan,0.0,nan,nan,nan,nan,nan,nan,nan,nan,nan,nan,nan,nan,nan,nan,nan,nan,nan,nan,942.0303765162244,1307.9630953324959,nan,1308.318870742165,nan,nan,nan,nan
1,226,1,1,1.0,1.0,0.7146067742141895,0,0.0,0.0,0.0,0.37086861024658146,0.15657261847715054,0.21429599176943093,0.527441228723732,0.15657261847715054,0.6069461605511606,7,5,6,2,3,0,nan,nan,nan,nan,nan,nan,nan,nan,nan,nan,nan,nan,0.0,nan,nan,nan,nan,nan,nan,nan,nan,nan,nan,nan,nan,nan,nan,nan,nan,nan,nan,942.0303765162244,1308.9882380377967,nan,1309.7028448120109,nan,nan,nan,nan
1,227,1,1,1.0,1.0,0.537428960960824,0,0.0,1.0,0.0,0.37249001668039095,0.1579685362581678,0.21452148042222313,0.5304585529385588,0.1579685362581678,0.5359370482813878,6,8,0,3,1,7,nan,nan,nan,nan,nan,nan,nan,nan,nan,nan,nan,nan,0.0,nan,nan,nan,nan,nan,nan,nan,nan,nan,nan,nan,nan,nan,nan,nan,nan,nan,nan,942.0303765162244,1310.0133892960148,nan,1310.5508182569756,nan,nan,nan,nan
1,228,1,1,1.0,1.0,0.7283986271941103,1,0.0,0.0,1.0,0.37326437792114414,0.1580000820689006,0.21526429585224355,0.5312644599900447,0.1580000820689006,0.6601447874563746,8,0,3,5,4,2,1.0,1.0,1.0,1.0,1.0,1.0,0.0,0.0,1.0,0.0,0.0,1.0,2.0,6.0,8.0,3.0,4.0,5.0,2.0,5.0,6.0,1.0,2.0,3.0,4.0,6.523761410324369,7.299865035107359,2.2366179740056396,3.965900687035173,4.708657084789593,5.77134649612708,942.0303765162244,1311.0384028523695,1311.8468618516927,1311.7668014795636,1320.19793572661,1321.205477968033,1312.85533322423,1320.1896137449075
1,229,1,1,1.0,1.0,0.22346616385038942,0,0.0,0.0,0.0,0.3749238837588683,0.1594802966112265,0.2154435871476418,0.5344041803700949,0.1594802966112265,0.49643125066844124,7,2,5,4,3,6,nan,nan,nan,nan,nan,nan,nan,nan,nan,nan,nan,nan,0.0,nan,nan,nan,nan,nan,nan,nan,nan,nan,nan,nan,nan,nan,nan,nan,nan,nan,nan,942.0303765162244,1321.4231438331772,nan,1321.6466099970276,nan,nan,nan,nan
1,230,1,1,1.0,1.0,0.44662157190032303,0,0.0,0.0,0.0,0.37421942924766605,0.1594423604737177,0.21477706877394834,0.5336617897213838,0.1594423604737177,0.4661621209816076,8,4,6,5,0,1,nan,nan,nan,nan,nan,nan,nan,nan,nan,nan,nan,nan,0.0,nan,nan,nan,nan,nan,nan,nan,nan,nan,nan,nan,nan,nan,nan,nan,nan,nan,nan,942.0303765162244,1322.439947450941,nan,1322.8865690228413,nan,nan,nan,nan
1,231,1,1,1.0,1.0,0.4854825751390308,0,0.0,0.0,0.0,0.3745546243525395,0.1591487636645255,0.215405860688014,0.533703388017065,0.1591487636645255,0.3851901036299144,4,0,2,7,3,8,nan,nan,nan,nan,nan,nan,nan,nan,nan,nan,nan,nan,0.0,nan,nan,nan,nan,nan,nan,nan,nan,nan,nan,nan,nan,nan,nan,nan,nan,nan,nan,942.0303765162244,1323.465061646537,nan,1323.950544221676,nan,nan,nan,nan
1,232,1,1,1.0,1.0,0.5883256195811555,0,0.0,0.0,0.0,0.3750658130658413,0.15895927896304363,0.21610653410279768,0.5340250920288849,0.15895927896304363,0.5068099222068364,1,5,4,6,7,3,nan,nan,nan,nan,nan,nan,nan,nan,nan,nan,nan,nan,0.0,nan,nan,nan,nan,nan,nan,nan,nan,nan,nan,nan,nan,nan,nan,nan,nan,nan,nan,942.0303765162244,1324.490197224426,nan,1325.0785228440072,nan,nan,nan,nan
1,233,0,0,nan,nan,nan,0,0.0,0.0,0.0,0.3760440690590308,0.15924763599623568,0.21679643306279514,0.5352917050552665,0.15924763599623568,0.5369040973600931,5,1,3,8,2,7,nan,nan,nan,nan,nan,nan,nan,nan,nan,nan,nan,nan,0.0,nan,nan,nan,nan,nan,nan,nan,nan,nan,nan,nan,nan,nan,nan,nan,nan,nan,nan,942.0303765162244,1325.5153513335972,nan,nan,nan,nan,nan,nan
1,234,1,1,1.0,1.0,0.4740222455584444,0,0.0,0.0,0.0,0.3760440690590308,0.15924763599623568,0.21679643306279514,0.5352917050552665,0.15924763599623568,0.5311739325698,0,3,6,2,1,8,nan,nan,nan,nan,nan,nan,nan,nan,nan,nan,nan,nan,0.0,nan,nan,nan,nan,nan,nan,nan,nan,nan,nan,nan,nan,nan,nan,nan,nan,nan,nan,942.0303765162244,1326.5404635335435,nan,1327.014485779102,nan,nan,nan,nan
1,235,1,1,1.0,1.0,0.6088520340854302,0,0.0,0.0,0.0,0.3764914579928181,0.15902089657725366,0.21747056141556442,0.5355123545700717,0.15902089657725366,0.5414371398219373,6,7,2,5,3,0,nan,nan,nan,nan,nan,nan,nan,nan,nan,nan,nan,nan,0.0,nan,nan,nan,nan,nan,nan,nan,nan,nan,nan,nan,nan,nan,nan,nan,nan,nan,nan,942.0303765162244,1327.5656162172672,nan,1328.1744682513527,nan,nan,nan,nan
1,236,1,1,1.0,1.0,0.37570825224975124,0,0.0,0.0,0.0,0.37754764242960265,0.15942710498362364,0.218120537445979,0.5369747474132263,0.15942710498362364,0.4861941772978753,7,1,0,2,6,4,nan,nan,nan,nan,nan,nan,nan,nan,nan,nan,nan,nan,0.0,nan,nan,nan,nan,nan,nan,nan,nan,nan,nan,nan,nan,nan,nan,nan,nan,nan,nan,942.0303765162244,1328.5907346893218,nan,1328.9664429415716,nan,nan,nan,nan
1,237,0,0,1.0,0.0,0.7265386543003842,0,0.0,0.0,0.0,0.37753931939711466,0.15906604912914793,0.21847327026796673,0.5366053685262626,0.15906604912914793,0.5703663135451885,1,3,2,6,4,5,nan,nan,nan,nan,nan,nan,nan,nan,nan,nan,nan,nan,0.0,nan,nan,nan,nan,nan,nan,nan,nan,nan,nan,nan,nan,nan,nan,nan,nan,nan,nan,942.0303765162244,1329.615872833063,nan,1330.3424114873633,nan,nan,nan,nan
1,238,1,1,1.0,1.0,0.38938635151134804,0,0.0,0.0,0.0,0.3791113884732555,0.16041887244781255,0.21869251602544293,0.539530260921068,0.16041887244781255,0.4972110860204945,3,1,8,5,6,7,nan,nan,nan,nan,nan,nan,nan,nan,nan,nan,nan,nan,0.0,nan,nan,nan,nan,nan,nan,nan,nan,nan,nan,nan,nan,nan,nan,nan,nan,nan,nan,942.0303765162244,1330.6410044195945,nan,1331.0303907711059,nan,nan,nan,nan
1,239,1,1,1.0,1.0,0.4282456441433169,0,0.0,0.0,0.0,0.3791574645406909,0.16006025702426793,0.21909720751642295,0.5392177215649588,0.16006025702426793,0.5147235499850163,1,5,0,8,2,4,nan,nan,nan,nan,nan,nan,nan,nan,nan,nan,nan,nan,0.0,nan,nan,nan,nan,nan,nan,nan,nan,nan,nan,nan,nan,nan,nan,nan,nan,nan,nan,942.0303765162244,1331.6661422782345,nan,1332.0943879223778,nan,nan,nan,nan
1,240,1,1,nan,nan,nan,0,0.0,0.0,0.0,0.3793766081996312,0.15973610551801345,0.21964050268161775,0.5391127137176447,0.15973610551801345,0.40881599782733247,6,1,7,3,5,8,nan,nan,nan,nan,nan,nan,nan,nan,nan,nan,nan,nan,0.0,nan,nan,nan,nan,nan,nan,nan,nan,nan,nan,nan,nan,nan,nan,nan,nan,nan,nan,942.0303765162244,1332.6912724393187,nan,nan,nan,nan,nan,nan
1,241,1,1,1.0,1.0,0.5939237845013849,0,0.0,0.0,0.0,0.3793766081996312,0.15973610551801345,0.21964050268161775,0.5391127137176447,0.15973610551801345,0.5110847143223509,4,0,1,6,8,2,nan,nan,nan,nan,nan,nan,nan,nan,nan,nan,nan,nan,0.0,nan,nan,nan,nan,nan,nan,nan,nan,nan,nan,nan,nan,nan,nan,nan,nan,nan,nan,942.0303765162244,1333.7164040257921,nan,1334.3103278102935,nan,nan,nan,nan
1,242,1,1,1.0,1.0,0.4247814303380437,0,0.0,0.0,0.0,0.38033015120541674,0.16001840941116124,0.2203117417942555,0.540348560616578,0.16001840941116124,0.5093526074197143,5,3,4,7,0,6,nan,nan,nan,nan,nan,nan,nan,nan,nan,nan,nan,nan,0.0,nan,nan,nan,nan,nan,nan,nan,nan,nan,nan,nan,nan,nan,nan,nan,nan,nan,nan,942.0303765162244,1334.7415418844903,nan,1335.1663233148283,nan,nan,nan,nan
1,243,1,1,1.0,1.0,0.43163316685240716,0,0.0,0.0,0.0,0.38052683828122486,0.15969124976834237,0.22083558851288249,0.5402180880495673,0.15969124976834237,0.4834461272306119,7,8,0,6,4,3,nan,nan,nan,nan,nan,nan,nan,nan,nan,nan,nan,nan,0.0,nan,nan,nan,nan,nan,nan,nan,nan,nan,nan,nan,nan,nan,nan,nan,nan,nan,nan,942.0303765162244,1335.7666706200107,nan,1336.198303786863,nan,nan,nan,nan
1,244,1,1,1.0,1.0,0.3104883198393509,0,0.0,0.0,0.0,0.38075197629255164,0.15937506089382708,0.22137691539872456,0.5401270371863787,0.15937506089382708,0.3889676390099339,4,2,6,0,3,8,nan,nan,nan,nan,nan,nan,nan,nan,nan,nan,nan,nan,0.0,nan,nan,nan,nan,nan,nan,nan,nan,nan,nan,nan,nan,nan,nan,nan,nan,nan,nan,942.0303765162244,1336.7917990704882,nan,1337.1022873903275,nan,nan,nan,nan
1,245,1,1,1.0,1.0,0.2933448664844036,0,0.0,0.0,0.0,0.3804438023607394,0.15909293882457784,0.22135086353616154,0.5395367411853172,0.15909293882457784,0.34515545105872053,1,6,8,2,5,0,nan,nan,nan,nan,nan,nan,nan,nan,nan,nan,nan,nan,0.0,nan,nan,nan,nan,nan,nan,nan,nan,nan,nan,nan,nan,nan,nan,nan,nan,nan,nan,942.0303765162244,1337.8169124107808,nan,1338.1102572772652,nan,nan,nan,nan
1,246,1,1,1.0,1.0,0.2921514504123479,0,0.0,0.0,0.0,0.3800634576625894,0.15884904678165743,0.221214410880932,0.5389125044442469,0.15884904678165743,0.2986615455787008,5,2,6,8,1,7,nan,nan,nan,nan,nan,nan,nan,nan,nan,nan,nan,nan,0.0,nan,nan,nan,nan,nan,nan,nan,nan,nan,nan,nan,nan,nan,nan,nan,nan,nan,nan,942.0303765162244,1338.8420841959887,nan,1339.134235646401,nan,nan,nan,nan
1,247,1,1,1.0,1.0,0.24301212973659858,0,0.0,0.0,0.0,0.3796812315441101,0.15860884921967353,0.22107238232443657,0.5382900807637836,0.15860884921967353,0.2761694822111167,3,0,7,6,2,5,nan,nan,nan,nan,nan,nan,nan,nan,nan,nan,nan,nan,0.0,nan,nan,nan,nan,nan,nan,nan,nan,nan,nan,nan,nan,nan,nan,nan,nan,nan,nan,942.0303765162244,1339.867206944502,nan,1340.1102190742386,nan,nan,nan,nan
1,248,0,0,1.0,0.0,0.2738570602959953,0,0.0,0.0,0.0,0.37908959041074425,0.15851931213698006,0.2205702782737642,0.5376089025477243,0.15851931213698006,0.2696735468149806,0,7,3,8,4,6,nan,nan,nan,nan,nan,nan,nan,nan,nan,nan,nan,nan,0.0,nan,nan,nan,nan,nan,nan,nan,nan,nan,nan,nan,nan,nan,nan,nan,nan,nan,nan,942.0303765162244,1340.8923453734023,nan,1341.1662024336983,nan,nan,nan,nan
1,249,1,1,1.0,1.0,0.29669789236504585,0,0.0,0.0,0.0,0.37863600191887037,0.1583274672722183,0.22030853464665207,0.5369634691910887,0.1583274672722183,0.2711890274658799,7,8,2,4,0,1,nan,nan,nan,nan,nan,nan,nan,nan,nan,nan,nan,nan,0.0,nan,nan,nan,nan,nan,nan,nan,nan,nan,nan,nan,nan,nan,nan,nan,nan,nan,nan,942.0303765162244,1341.9174761046306,nan,1342.2141739969957,nan,nan,nan,nan
1,250,0,0,0.0,1.0,0.44752333377255127,0,0.0,0.0,0.0,0.37828433621263075,0.15807811941375727,0.22020621679887348,0.536362455626388,0.15807811941375727,0.33935942881119746,4,5,0,8,6,3,nan,nan,nan,nan,nan,nan,nan,nan,nan,nan,nan,nan,0.0,nan,nan,nan,nan,nan,nan,nan,nan,nan,nan,nan,nan,nan,nan,nan,nan,nan,nan,942.0303765162244,1342.942622801289,nan,1343.3901461350615,nan,nan,nan,nan
1,251,1,1,1.0,1.0,0.2703817277797498,0,0.0,0.0,0.0,0.37858022936459623,0.15780463348236418,0.22077559588223206,0.5363848628469604,0.15780463348236418,0.33820098463911563,3,8,7,1,5,6,nan,nan,nan,nan,nan,nan,nan,nan,nan,nan,nan,nan,0.0,nan,nan,nan,nan,nan,nan,nan,nan,nan,nan,nan,nan,nan,nan,nan,nan,nan,nan,942.0303765162244,1343.9677418435458,nan,1344.2381235713256,nan,nan,nan,nan
1,252,1,1,1.0,1.0,0.4612841111375019,0,0.0,0.0,0.0,0.37811981020891605,0.1576259489469096,0.22049386126200646,0.5357457591558257,0.1576259489469096,0.39306305756326765,5,7,0,6,8,3,nan,nan,nan,nan,nan,nan,nan,nan,nan,nan,nan,nan,0.0,nan,nan,nan,nan,nan,nan,nan,nan,nan,nan,nan,nan,nan,nan,nan,nan,nan,nan,942.0303765162244,1344.992838078062,nan,1345.4541221891996,nan,nan,nan,nan
1,253,1,1,1.0,1.0,0.35608046350535005,0,0.0,0.0,0.0,0.3784722013145456,0.1573843783735289,0.22108782294101673,0.5358565796880745,0.1573843783735289,0.3625821008075339,2,5,1,7,0,6,nan,nan,nan,nan,nan,nan,nan,nan,nan,nan,nan,nan,0.0,nan,nan,nan,nan,nan,nan,nan,nan,nan,nan,nan,nan,nan,nan,nan,nan,nan,nan,942.0303765162244,1346.018010433414,nan,1346.3740908969194,nan,nan,nan,nan
1,254,1,1,1.0,1.0,0.33892902737716213,0,0.0,0.0,0.0,0.3783777214081777,0.157058699521068,0.22131902188710972,0.5354364209292457,0.157058699521068,0.385431200673338,7,3,2,4,8,1,nan,nan,nan,nan,nan,nan,nan,nan,nan,nan,nan,nan,0.0,nan,nan,nan,nan,nan,nan,nan,nan,nan,nan,nan,nan,nan,nan,nan,nan,nan,nan,942.0303765162244,1347.0431471517077,nan,1347.3820761790848,nan,nan,nan,nan
1,255,1,1,1.0,1.0,0.3937674372573383,0,0.0,0.0,0.0,0.37821197059292133,0.1567491677484721,0.22146280284444922,0.5349611383413935,0.1567491677484721,0.3629256427132835,5,8,1,2,6,0,nan,nan,nan,nan,nan,nan,nan,nan,nan,nan,nan,nan,0.0,nan,nan,nan,nan,nan,nan,nan,nan,nan,nan,nan,nan,nan,nan,nan,nan,nan,nan,942.0303765162244,1348.0682790233404,nan,1348.4620464605978,nan,nan,nan,nan
1,256,1,1,1.0,1.0,0.440624556329567,0,0.0,0.0,0.0,0.3782770562275005,0.1564241195658628,0.22185293666163772,0.5347011757933633,0.1564241195658628,0.3911070069880225,1,4,7,6,0,8,nan,nan,nan,nan,nan,nan,nan,nan,nan,nan,nan,nan,0.0,nan,nan,nan,nan,nan,nan,nan,nan,nan,nan,nan,nan,nan,nan,nan,nan,nan,nan,942.0303765162244,1349.0934043377056,nan,1349.5340288940351,nan,nan,nan,nan
1,257,1,1,1.0,1.0,0.295464277616702,0,0.0,0.0,0.0,0.37853683747792577,0.15614955107930942,0.22238728639861635,0.5346863885572352,0.15614955107930942,0.3766187570678691,4,0,3,7,2,1,nan,nan,nan,nan,nan,nan,nan,nan,nan,nan,nan,nan,0.0,nan,nan,nan,nan,nan,nan,nan,nan,nan,nan,nan,nan,nan,nan,nan,nan,nan,nan,942.0303765162244,1350.1185453324579,nan,1350.4140096100746,nan,nan,nan,nan
1,258,0,0,1.0,0.0,0.2783518997603096,0,0.0,0.0,0.0,0.3781921380594145,0.15591672646655994,0.22227541159285455,0.5341088645259744,0.15591672646655994,0.3381469112355262,5,6,1,2,8,3,nan,nan,nan,nan,nan,nan,nan,nan,nan,nan,nan,nan,0.0,nan,nan,nan,nan,nan,nan,nan,nan,nan,nan,nan,nan,nan,nan,nan,nan,nan,nan,942.0303765162244,1351.1436444179271,nan,1351.4219963176874,nan,nan,nan,nan
1,259,1,1,1.0,1.0,0.27715990925207734,0,0.0,0.0,0.0,0.37777957509123633,0.15572601297694239,0.22205356211429395,0.5335055880681787,0.15572601297694239,0.28365869554302964,8,1,4,0,3,2,nan,nan,nan,nan,nan,nan,nan,nan,nan,nan,nan,nan,0.0,nan,nan,nan,nan,nan,nan,nan,nan,nan,nan,nan,nan,nan,nan,nan,nan,nan,nan,942.0303765162244,1352.168808790564,nan,1352.4459686998161,nan,nan,nan,nan
1,260,1,1,1.0,1.0,0.33999443490756676,0,0.0,0.0,0.0,0.37736550239230976,0.15553869887210617,0.2218268035202036,0.532904201264416,0.15553869887210617,0.29850208130665123,3,7,8,2,5,1,nan,nan,nan,nan,nan,nan,nan,nan,nan,nan,nan,nan,0.0,nan,nan,nan,nan,nan,nan,nan,nan,nan,nan,nan,nan,nan,nan,nan,nan,nan,nan,942.0303765162244,1353.1939457939588,nan,1353.5339402288664,nan,nan,nan,nan
1,261,1,1,1.0,1.0,0.4268241504323669,0,0.0,0.0,0.0,0.3772123422796674,0.15523800574964813,0.22197433653001925,0.5324503480293155,0.15523800574964813,0.34799283153067034,0,4,7,6,8,5,nan,nan,nan,nan,nan,nan,nan,nan,nan,nan,nan,nan,0.0,nan,nan,nan,nan,nan,nan,nan,nan,nan,nan,nan,nan,nan,nan,nan,nan,nan,nan,942.0303765162244,1354.2190930608194,nan,1354.6459172112518,nan,nan,nan,nan
1,262,0,0,0.0,1.0,0.6336819879361428,0,0.0,0.0,0.0,0.37741483945580084,0.1549531576614109,0.22246168179438994,0.5323679971172117,0.1549531576614109,0.4668335244253588,4,6,5,1,2,8,nan,nan,nan,nan,nan,nan,nan,nan,nan,nan,nan,nan,0.0,nan,nan,nan,nan,nan,nan,nan,nan,nan,nan,nan,nan,nan,nan,nan,nan,nan,nan,942.0303765162244,1355.2442129583796,nan,1355.8778949463158,nan,nan,nan,nan
1,263,1,1,1.0,1.0,0.3845083416090347,0,0.0,0.0,0.0,0.3784565758317372,0.15549519312027713,0.22296138271146007,0.5339517689520143,0.15549519312027713,0.48167149332584813,3,7,1,2,4,5,nan,nan,nan,nan,nan,nan,nan,nan,nan,nan,nan,nan,0.0,nan,nan,nan,nan,nan,nan,nan,nan,nan,nan,nan,nan,nan,nan,nan,nan,nan,nan,942.0303765162244,1356.2693607954425,nan,1356.6538691370515,nan,nan,nan,nan
1,264,1,1,1.0,1.0,0.6313005726551637,0,0.0,0.0,0.0,0.3784810769077587,0.15518058210126853,0.22330049480649014,0.5336616590090272,0.15518058210126853,0.5498303007334471,8,1,6,5,3,0,nan,nan,nan,nan,nan,nan,nan,nan,nan,nan,nan,nan,0.0,nan,nan,nan,nan,nan,nan,nan,nan,nan,nan,nan,nan,nan,nan,nan,nan,nan,nan,942.0303765162244,1357.2945436994196,nan,1357.9258442720748,nan,nan,nan,nan
1,265,1,1,1.0,1.0,0.5022211908362806,0,0.0,0.0,0.0,0.379500510358353,0.15569394852895718,0.22380656182939584,0.5351944588873102,0.15569394852895718,0.506010035033493,3,2,4,6,8,1,nan,nan,nan,nan,nan,nan,nan,nan,nan,nan,nan,nan,0.0,nan,nan,nan,nan,nan,nan,nan,nan,nan,nan,nan,nan,nan,nan,nan,nan,nan,nan,942.0303765162244,1358.3196122794761,nan,1358.8218334703124,nan,nan,nan,nan
1,266,1,1,1.0,1.0,0.3730708198272623,0,0.0,0.0,0.0,0.3799933644968186,0.1555747224610459,0.2244186420357727,0.5355680869578645,0.1555747224610459,0.5021975277729022,1,3,7,4,5,6,nan,nan,nan,nan,nan,nan,nan,nan,nan,nan,nan,nan,0.0,nan,nan,nan,nan,nan,nan,nan,nan,nan,nan,nan,nan,nan,nan,nan,nan,nan,nan,942.0303765162244,1359.344747002062,nan,1359.7178178218892,nan,nan,nan,nan
1,267,1,1,1.0,1.0,0.5559109448222443,0,0.0,0.0,0.0,0.3799656743181404,0.15526387606751593,0.22470179825062445,0.5352295503856563,0.15526387606751593,0.47706765182859573,3,0,5,8,4,2,nan,nan,nan,nan,nan,nan,nan,nan,nan,nan,nan,nan,0.0,nan,nan,nan,nan,nan,nan,nan,nan,nan,nan,nan,nan,nan,nan,nan,nan,nan,nan,942.0303765162244,1360.3698802992003,nan,1360.9257912440225,nan,nan,nan,nan
1,268,1,1,1.0,1.0,0.5147389452322386,0,0.0,0.0,0.0,0.3806666514914635,0.15535015336101,0.2253164981304535,0.5360168048524735,0.15535015336101,0.4812402366272484,5,4,1,2,6,0,nan,nan,nan,nan,nan,nan,nan,nan,nan,nan,nan,nan,0.0,nan,nan,nan,nan,nan,nan,nan,nan,nan,nan,nan,nan,nan,nan,nan,nan,nan,nan,942.0303765162244,1361.3950232896022,nan,1361.9097622348345,nan,nan,nan,nan
1,269,1,1,1.0,1.0,0.29761276865610853,0,0.0,0.0,0.0,0.38119868440313326,0.15527056846274803,0.22592811594038523,0.5364692528658813,0.15527056846274803,0.4560875529035305,1,8,7,5,2,6,nan,nan,nan,nan,nan,nan,nan,nan,nan,nan,nan,nan,0.0,nan,nan,nan,nan,nan,nan,nan,nan,nan,nan,nan,nan,nan,nan,nan,nan,nan,nan,942.0303765162244,1362.4201434722636,nan,1362.7177562409197,nan,nan,nan,nan
1,270,1,1,1.0,1.0,0.34444023767719045,0,0.0,0.0,0.0,0.38086830528950866,0.15505213004309906,0.2258161752464096,0.5359204353326077,0.15505213004309906,0.38559731718851253,6,5,2,3,8,1,nan,nan,nan,nan,nan,nan,nan,nan,nan,nan,nan,nan,0.0,nan,nan,nan,nan,nan,nan,nan,nan,nan,nan,nan,nan,nan,nan,nan,nan,nan,nan,942.0303765162244,1363.445293019875,nan,1363.7897332575521,nan,nan,nan,nan
1,271,1,1,1.0,1.0,0.36734407616313547,0,0.0,0.0,0.0,0.38072488770048374,0.15476342151740477,0.22596146618307897,0.5354883092178885,0.15476342151740477,0.33646569416547817,3,2,6,7,4,8,nan,nan,nan,nan,nan,nan,nan,nan,nan,nan,nan,nan,0.0,nan,nan,nan,nan,nan,nan,nan,nan,nan,nan,nan,nan,nan,nan,nan,nan,nan,nan,942.0303765162244,1364.4703829822247,nan,1364.8377270583878,nan,nan,nan,nan
1,272,1,1,1.0,1.0,0.27815404249122366,0,0.0,0.0,0.0,0.38067241392974904,0.15446192970232506,0.22621048422742399,0.5351343436320741,0.15446192970232506,0.32997945211051655,6,0,1,2,8,5,nan,nan,nan,nan,nan,nan,nan,nan,nan,nan,nan,nan,0.0,nan,nan,nan,nan,nan,nan,nan,nan,nan,nan,nan,nan,nan,nan,nan,nan,nan,nan,942.0303765162244,1365.495545359212,nan,1365.7736994017032,nan,nan,nan,nan
1,273,1,1,1.0,1.0,0.2769885658635758,0,0.0,0.0,0.0,0.3802719515413173,0.1542925302515998,0.2259794212897175,0.5345644817929172,0.1542925302515998,0.3074955615059783,5,2,6,1,3,4,nan,nan,nan,nan,nan,nan,nan,nan,nan,nan,nan,nan,0.0,nan,nan,nan,nan,nan,nan,nan,nan,nan,nan,nan,nan,nan,nan,nan,nan,nan,nan,942.0303765162244,1366.5206758053973,nan,1366.797664371261,nan,nan,nan,nan
1,274,1,1,1.0,1.0,0.2438295028405264,0,0.0,0.0,0.0,0.37987007066319384,0.15412624673077546,0.22574382393241837,0.5339963173939692,0.15412624673077546,0.2663240370651086,1,7,8,3,5,0,nan,nan,nan,nan,nan,nan,nan,nan,nan,nan,nan,nan,0.0,nan,nan,nan,nan,nan,nan,nan,nan,nan,nan,nan,nan,nan,nan,nan,nan,nan,nan,942.0303765162244,1367.5458173702937,nan,1367.7896468731342,nan,nan,nan,nan
1,275,1,1,1.0,1.0,0.23471267067361623,0,0.0,0.0,0.0,0.37934278164062535,0.15405934356634035,0.225283438074285,0.5334021252069657,0.15405934356634035,0.2518435797925728,2,5,4,6,8,1,nan,nan,nan,nan,nan,nan,nan,nan,nan,nan,nan,nan,0.0,nan,nan,nan,nan,nan,nan,nan,nan,nan,nan,nan,nan,nan,nan,nan,nan,nan,nan,942.0303765162244,1368.5709290000377,nan,1368.8056416707113,nan,nan,nan,nan
