block,trial,freq_trials,correct_response,actual_response,acc,rts,probe_trials,trials_colorind0,trials_colorind1,trials_colorind2,trials_colorind3,trials_colorind4,trials_colorind5,wholereport_resp0,wholereport_resp1,wholereport_resp2,wholereport_resp3,wholereport_resp4,wholereport_resp5,wholereport_respacc0,wholereport_respacc1,wholereport_respacc2,wholereport_respacc3,wholereport_respacc4,wholereport_respacc5,wholereport_respacc_total,wholereport_respcolorind0,wholereport_respcolorind1,wholereport_respcolorind2,wholereport_respcolorind3,wholereport_respcolorind4,wholereport_respcolorind5,wholereport_resporder0,wholereport_resporder1,wholereport_resporder2,wholereport_resporder3,wholereport_resporder4,wholereport_resporder5,wholereport_rts0,wholereport_rts1,wholereport_rts2,wholereport_rts3,wholereport_rts4,wholereport_rts5,time_blockstart,time_encarray_offset,time_encarray_onset,time_response,time_iti_offset,time_iti_onset,time_memprobe_offset,time_memprobe_onset
1,1,1,1,1.0,1.0,0.2629940821789205,0,2,5,4,1,8,0,nan,nan,nan,nan,nan,nan,nan,nan,nan,nan,nan,nan,0.0,nan,nan,nan,nan,nan,nan,nan,nan,nan,nan,nan,nan,nan,nan,nan,nan,nan,nan,1182.009181366302,1183.026156801032,nan,1183.2891508832108,nan,nan,nan,nan
1,2,1,1,1.0,1.0,0.20586770377121866,0,0,6,1,2,5,7,nan,nan,nan,nan,nan,nan,nan,nan,nan,nan,nan,nan,0.0,nan,nan,nan,nan,nan,nan,nan,nan,nan,nan,nan,nan,nan,nan,nan,nan,nan,nan,1182.009181366302,1184.035293406574,nan,1184.2411611103453,nan,nan,nan,nan
1,3,0,0,0.0,1.0,0.47858113632537425,0,5,4,2,8,6,0,nan,nan,nan,nan,nan,nan,nan,nan,nan,nan,nan,nan,0.0,nan,nan,nan,nan,nan,nan,nan,nan,nan,nan,nan,nan,nan,nan,nan,nan,nan,nan,1182.009181366302,1185.0431464910507,nan,1185.521727627376,nan,nan,nan,nan
1,4,1,1,1.0,1.0,0.3335093352943659,0,6,7,0,3,2,1,nan,nan,nan,nan,nan,nan,nan,nan,nan,nan,nan,nan,0.0,nan,nan,nan,nan,nan,nan,nan,nan,nan,nan,nan,nan,nan,nan,nan,nan,nan,nan,1182.009181366302,1186.0515860265587,nan,1186.385095361853,nan,nan,nan,nan
1,5,1,1,1.0,1.0,0.4130793698132038,0,8,5,4,7,0,2,nan,nan,nan,nan,nan,nan,nan,nan,nan,nan,nan,nan,0.0,nan,nan,nan,nan,nan,nan,nan,nan,nan,nan,nan,nan,nan,nan,nan,nan,nan,nan,1182.009181366302,1187.0600523615722,nan,1187.4731317313854,nan,nan,nan,nan
1,6,1,1,1.0,1.0,0.5005908701568842,0,4,6,3,2,7,1,nan,nan,nan,nan,nan,nan,nan,nan,nan,nan,nan,nan,0.0,nan,nan,nan,nan,nan,nan,nan,nan,nan,nan,nan,nan,nan,nan,nan,nan,nan,nan,1182.009181366302,1188.0685184113681,nan,1188.569109281525,nan,nan,nan,nan
1,7,1,1,1.0,1.0,0.4521087291650474,0,2,8,1,3,0,4,nan,nan,nan,nan,nan,nan,nan,nan,nan,nan,nan,nan,0.0,nan,nan,nan,nan,nan,nan,nan,nan,nan,nan,nan,nan,nan,nan,nan,nan,nan,nan,1182.009181366302,1189.0769930141978,nan,1189.5291017433628,nan,nan,nan,nan
1,8,1,1,1.0,1.0,0.5076516612898558,0,3,6,7,4,1,0,nan,nan,nan,nan,nan,nan,nan,nan,nan,nan,nan,nan,0.0,nan,nan,nan,nan,nan,nan,nan,nan,nan,nan,nan,nan,nan,nan,nan,nan,nan,nan,1182.009181366302,1190.0854801614769,nan,1190.5931318227667,nan,nan,nan,nan
1,9,1,1,1.0,1.0,0.38716632942669094,0,2,4,1,3,0,8,nan,nan,nan,nan,nan,nan,nan,nan,nan,nan,nan,nan,0.0,nan,nan,nan,nan,nan,nan,nan,nan,nan,nan,nan,nan,nan,nan,nan,nan,nan,nan,1182.009181366302,1191.0939456410706,nan,1191.4811119704973,nan,nan,nan,nan
1,10,1,1,1.0,1.0,0.2907819414976984,0,1,6,5,2,8,0,nan,nan,nan,nan,nan,nan,nan,nan,nan,nan,nan,nan,0.0,nan,nan,nan,nan,nan,nan,nan,nan,nan,nan,nan,nan,nan,nan,nan,nan,nan,nan,1182.009181366302,1192.1024524602108,nan,1192.3932344017085,nan,nan,nan,nan
1,11,1,1,1.0,1.0,0.4105214511509985,0,3,1,2,5,7,4,nan,nan,nan,nan,nan,nan,nan,nan,nan,nan,nan,nan,0.0,nan,nan,nan,nan,nan,nan,nan,nan,nan,nan,nan,nan,nan,nan,nan,nan,nan,nan,1182.009181366302,1193.1108831577003,nan,1193.5214046088513,nan,nan,nan,nan
1,12,0,0,0.0,1.0,0.33775248122401536,0,7,5,6,8,2,0,nan,nan,nan,nan,nan,nan,nan,nan,nan,nan,nan,nan,0.0,nan,nan,nan,nan,nan,nan,nan,nan,nan,nan,nan,nan,nan,nan,nan,nan,nan,nan,1182.009181366302,1194.1193492074963,nan,1194.4571016887203,nan,nan,nan,nan
1,13,1,1,1.0,1.0,0.37725995341315866,0,6,0,1,2,7,4,nan,nan,nan,nan,nan,nan,nan,nan,nan,nan,nan,nan,0.0,nan,nan,nan,nan,nan,nan,nan,nan,nan,nan,nan,nan,nan,nan,nan,nan,nan,nan,1182.009181366302,1195.1278061342891,nan,1195.5050660877023,nan,nan,nan,nan
1,14,1,1,1.0,1.0,0.35278039681725204,0,0,2,5,7,8,3,nan,nan,nan,nan,nan,nan,nan,nan,nan,nan,nan,nan,0.0,nan,nan,nan,nan,nan,nan,nan,nan,nan,nan,nan,nan,nan,nan,nan,nan,nan,nan,1182.009181366302,1196.1362676224671,nan,1196.4890480192844,nan,nan,nan,nan
1,15,1,1,1.0,1.0,0.408652619458735,0,5,3,7,0,4,8,nan,nan,nan,nan,nan,nan,nan,nan,nan,nan,nan,nan,0.0,nan,nan,nan,nan,nan,nan,nan,nan,nan,nan,nan,nan,nan,nan,nan,nan,nan,nan,1182.009181366302,1197.144778433023,nan,1197.5534310524818,nan,nan,nan,nan
1,16,1,1,1.0,1.0,0.45576770487241447,0,0,1,8,3,2,4,nan,nan,nan,nan,nan,nan,nan,nan,nan,nan,nan,nan,0.0,nan,nan,nan,nan,nan,nan,nan,nan,nan,nan,nan,nan,nan,nan,nan,nan,nan,nan,1182.009181366302,1198.1532538912725,nan,1198.6090215961449,nan,nan,nan,nan
1,17,1,1,1.0,1.0,0.39123100275173783,0,2,3,1,5,4,7,nan,nan,nan,nan,nan,nan,nan,nan,nan,nan,nan,nan,0.0,nan,nan,nan,nan,nan,nan,nan,nan,nan,nan,nan,nan,nan,nan,nan,nan,nan,nan,1182.009181366302,1199.1617752504535,nan,1199.5530062532052,nan,nan,nan,nan
1,18,0,0,0.0,1.0,0.4228166814427823,0,4,0,3,2,5,6,nan,nan,nan,nan,nan,nan,nan,nan,nan,nan,nan,nan,0.0,nan,nan,nan,nan,nan,nan,nan,nan,nan,nan,nan,nan,nan,nan,nan,nan,nan,nan,1182.009181366302,1200.1701993905008,nan,1200.5930160719436,nan,nan,nan,nan
1,19,1,1,1.0,1.0,0.4063390316441655,0,3,2,6,8,4,7,nan,nan,nan,nan,nan,nan,nan,nan,nan,nan,nan,nan,0.0,nan,nan,nan,nan,nan,nan,nan,nan,nan,nan,nan,nan,nan,nan,nan,nan,nan,nan,1182.009181366302,1201.1786654402968,nan,1201.585004471941,nan,nan,nan,nan
1,20,1,1,1.0,1.0,0.5098497834987938,0,8,1,3,5,7,4,nan,nan,nan,nan,nan,nan,nan,nan,nan,nan,nan,nan,0.0,nan,nan,nan,nan,nan,nan,nan,nan,nan,nan,nan,nan,nan,nan,nan,nan,nan,nan,1182.009181366302,1202.1871454601642,nan,1202.696995243663,nan,nan,nan,nan
1,21,1,1,1.0,1.0,0.3573670885525644,0,6,0,4,3,8,1,nan,nan,nan,nan,nan,nan,nan,nan,nan,nan,nan,nan,0.0,nan,nan,nan,nan,nan,nan,nan,nan,nan,nan,nan,nan,nan,nan,nan,nan,nan,nan,1182.009181366302,1203.1956189225893,nan,1203.552986011142,nan,nan,nan,nan
1,22,1,1,1.0,1.0,0.39685916528105736,0,3,7,8,6,2,4,nan,nan,nan,nan,nan,nan,nan,nan,nan,nan,nan,nan,0.0,nan,nan,nan,nan,nan,nan,nan,nan,nan,nan,nan,nan,nan,nan,nan,nan,nan,nan,1182.009181366302,1204.2041163335089,nan,1204.60097549879,nan,nan,nan,nan
1,23,1,1,1.0,1.0,0.32464471529237926,0,2,4,5,3,1,8,nan,nan,nan,nan,nan,nan,nan,nan,nan,nan,nan,nan,0.0,nan,nan,nan,nan,nan,nan,nan,nan,nan,nan,nan,nan,nan,nan,nan,nan,nan,nan,1182.009181366302,1205.2125858045183,nan,1205.5372305198107,nan,nan,nan,nan
1,24,1,1,1.0,1.0,0.3481321232393384,0,8,6,1,7,0,5,nan,nan,nan,nan,nan,nan,nan,nan,nan,nan,nan,nan,0.0,nan,nan,nan,nan,nan,nan,nan,nan,nan,nan,nan,nan,nan,nan,nan,nan,nan,nan,1182.009181366302,1206.2210435864981,nan,1206.5691757097375,nan,nan,nan,nan
1,25,1,1,1.0,1.0,0.3714461906347424,0,3,0,4,8,5,6,nan,nan,nan,nan,nan,nan,nan,nan,nan,nan,nan,nan,0.0,nan,nan,nan,nan,nan,nan,nan,nan,nan,nan,nan,nan,nan,nan,nan,nan,nan,nan,1182.009181366302,1207.2294970918447,nan,1207.6009432824794,nan,nan,nan,nan
1,26,1,1,1.0,1.0,0.31497725332155824,0,7,2,6,5,3,1,nan,nan,nan,nan,nan,nan,nan,nan,nan,nan,nan,nan,0.0,nan,nan,nan,nan,nan,nan,nan,nan,nan,nan,nan,nan,nan,nan,nan,nan,nan,nan,1182.009181366302,1208.2379665628541,nan,1208.5529438161757,nan,nan,nan,nan
1,27,1,1,1.0,1.0,0.34652986051514745,0,0,5,1,6,4,2,nan,nan,nan,nan,nan,nan,nan,nan,nan,nan,nan,nan,0.0,nan,nan,nan,nan,nan,nan,nan,nan,nan,nan,nan,nan,nan,nan,nan,nan,nan,nan,1182.009181366302,1209.246439455077,nan,1209.5929693155922,nan,nan,nan,nan
1,28,1,1,1.0,1.0,0.3140010703355074,0,7,1,0,3,6,4,nan,nan,nan,nan,nan,nan,nan,nan,nan,nan,nan,nan,0.0,nan,nan,nan,nan,nan,nan,nan,nan,nan,nan,nan,nan,nan,nan,nan,nan,nan,nan,1182.009181366302,1210.254911492113,nan,1210.5689125624485,nan,nan,nan,nan
1,29,0,0,1.0,0.0,0.3454692878294736,0,4,0,6,5,8,3,nan,nan,nan,nan,nan,nan,nan,nan,nan,nan,nan,nan,0.0,nan,nan,nan,nan,nan,nan,nan,nan,nan,nan,nan,nan,nan,nan,nan,nan,nan,nan,1182.009181366302,1211.2634613614064,nan,1211.6089306492358,nan,nan,nan,nan
1,30,1,1,1.0,1.0,0.4330172808840871,0,5,7,0,3,2,1,nan,nan,nan,nan,nan,nan,nan,nan,nan,nan,nan,nan,0.0,nan,nan,nan,nan,nan,nan,nan,nan,nan,nan,nan,nan,nan,nan,nan,nan,nan,nan,1182.009181366302,1212.2718877822626,nan,1212.7049050631467,nan,nan,nan,nan
1,31,0,0,0.0,1.0,0.44057043991051614,0,1,5,2,4,8,6,nan,nan,nan,nan,nan,nan,nan,nan,nan,nan,nan,nan,0.0,nan,nan,nan,nan,nan,nan,nan,nan,nan,nan,nan,nan,nan,nan,nan,nan,nan,nan,1182.009181366302,1213.2803244667593,nan,1213.7208949066699,nan,nan,nan,nan
1,32,1,1,1.0,1.0,0.37631541676819324,0,5,3,6,8,4,7,nan,nan,nan,nan,nan,nan,nan,nan,nan,nan,nan,nan,0.0,nan,nan,nan,nan,nan,nan,nan,nan,nan,nan,nan,nan,nan,nan,nan,nan,nan,nan,1182.009181366302,1214.2887984993868,nan,1214.665113916155,nan,nan,nan,nan
1,33,1,1,1.0,1.0,0.3755576203111559,0,3,5,1,6,8,4,nan,nan,nan,nan,nan,nan,nan,nan,nan,nan,nan,nan,0.0,nan,nan,nan,nan,nan,nan,nan,nan,nan,nan,nan,nan,nan,nan,nan,nan,nan,nan,1182.009181366302,1215.2972728172317,nan,1215.6728304375429,nan,nan,nan,nan
1,34,1,1,1.0,1.0,0.3831367236562073,0,6,4,8,0,7,1,nan,nan,nan,nan,nan,nan,nan,nan,nan,nan,nan,nan,0.0,nan,nan,nan,nan,nan,nan,nan,nan,nan,nan,nan,nan,nan,nan,nan,nan,nan,nan,1182.009181366302,1216.3057445690501,nan,1216.6888812927064,nan,nan,nan,nan
1,35,1,1,1.0,1.0,0.3906091991811991,0,1,5,7,6,4,2,nan,nan,nan,nan,nan,nan,nan,nan,nan,nan,nan,nan,0.0,nan,nan,nan,nan,nan,nan,nan,nan,nan,nan,nan,nan,nan,nan,nan,nan,nan,nan,1182.009181366302,1217.3142362779472,nan,1217.7048454771284,nan,nan,nan,nan
1,36,1,1,1.0,1.0,0.3740887842141092,0,4,6,2,5,1,0,nan,nan,nan,nan,nan,nan,nan,nan,nan,nan,nan,nan,0.0,nan,nan,nan,nan,nan,nan,nan,nan,nan,nan,nan,nan,nan,nan,nan,nan,nan,nan,1182.009181366302,1218.3227003321517,nan,1218.6967891163658,nan,nan,nan,nan
1,37,1,1,1.0,1.0,0.4376843706704676,0,7,3,5,2,0,6,nan,nan,nan,nan,nan,nan,nan,nan,nan,nan,nan,nan,0.0,nan,nan,nan,nan,nan,nan,nan,nan,nan,nan,nan,nan,nan,nan,nan,nan,nan,nan,1182.009181366302,1219.3311504162848,nan,1219.7688347869553,nan,nan,nan,nan
1,38,1,1,1.0,1.0,0.42919209180399776,1,6,7,8,4,3,1,1.0,1.0,1.0,1.0,1.0,1.0,0.0,0.0,0.0,0.0,0.0,1.0,1.0,3.0,0.0,1.0,5.0,2.0,1.0,6.0,1.0,2.0,3.0,4.0,5.0,8.968786376994103,2.417291154852137,3.563183474354446,5.490344939986244,6.68929240712896,7.880938173504546,1182.009181366302,1220.3396272999234,1221.1480550894048,1220.7688193917274,1231.166066293139,1232.1658818335272,1222.1565205689985,1231.1577727289405
1,39,1,1,1.0,1.0,0.39410139131359756,0,5,0,1,2,4,3,nan,nan,nan,nan,nan,nan,nan,nan,nan,nan,nan,nan,0.0,nan,nan,nan,nan,nan,nan,nan,nan,nan,nan,nan,nan,nan,nan,nan,nan,nan,nan,1182.009181366302,1232.3746162196621,nan,1232.7687176109757,nan,nan,nan,nan
1,40,0,0,0.0,1.0,0.48962962348014116,0,1,8,3,4,6,7,nan,nan,nan,nan,nan,nan,nan,nan,nan,nan,nan,nan,0.0,nan,nan,nan,nan,nan,nan,nan,nan,nan,nan,nan,nan,nan,nan,nan,nan,nan,nan,1182.009181366302,1233.3830577507615,nan,1233.8726873742417,nan,nan,nan,nan
1,41,1,1,1.0,1.0,0.4331082277931273,0,8,2,1,5,7,4,nan,nan,nan,nan,nan,nan,nan,nan,nan,nan,nan,nan,0.0,nan,nan,nan,nan,nan,nan,nan,nan,nan,nan,nan,nan,nan,nan,nan,nan,nan,nan,1182.009181366302,1234.3915776845533,nan,1234.8246859123465,nan,nan,nan,nan
1,42,1,1,1.0,1.0,0.36063291085883975,0,6,4,2,7,8,0,nan,nan,nan,nan,nan,nan,nan,nan,nan,nan,nan,nan,0.0,nan,nan,nan,nan,nan,nan,nan,nan,nan,nan,nan,nan,nan,nan,nan,nan,nan,nan,1182.009181366302,1235.4000337559264,nan,1235.7606666667853,nan,nan,nan,nan
1,43,1,1,1.0,1.0,0.36814016895368695,0,2,1,8,5,3,4,nan,nan,nan,nan,nan,nan,nan,nan,nan,nan,nan,nan,0.0,nan,nan,nan,nan,nan,nan,nan,nan,nan,nan,nan,nan,nan,nan,nan,nan,nan,nan,1182.009181366302,1236.4085140607785,nan,1236.7766542297322,nan,nan,nan,nan
1,44,1,1,1.0,1.0,0.4556476778816432,0,5,6,1,0,2,3,nan,nan,nan,nan,nan,nan,nan,nan,nan,nan,nan,nan,0.0,nan,nan,nan,nan,nan,nan,nan,nan,nan,nan,nan,nan,nan,nan,nan,nan,nan,nan,1182.009181366302,1237.4170083354693,nan,1237.872656013351,nan,nan,nan,nan
1,45,1,1,1.0,1.0,0.5351732368580997,0,1,0,4,8,6,5,nan,nan,nan,nan,nan,nan,nan,nan,nan,nan,nan,nan,0.0,nan,nan,nan,nan,nan,nan,nan,nan,nan,nan,nan,nan,nan,nan,nan,nan,nan,nan,1182.009181366302,1238.425457849633,nan,1238.960631086491,nan,nan,nan,nan
1,46,1,1,1.0,1.0,0.5427403659559786,0,4,5,8,3,2,7,nan,nan,nan,nan,nan,nan,nan,nan,nan,nan,nan,nan,0.0,nan,nan,nan,nan,nan,nan,nan,nan,nan,nan,nan,nan,nan,nan,nan,nan,nan,nan,1182.009181366302,1239.4338771428447,nan,1239.9766175088007,nan,nan,nan,nan
1,47,1,1,1.0,1.0,0.382191046141088,1,3,1,4,7,0,6,1.0,1.0,1.0,1.0,1.0,1.0,0.0,1.0,1.0,0.0,0.0,0.0,2.0,4.0,1.0,4.0,2.0,3.0,0.0,6.0,1.0,2.0,3.0,4.0,5.0,7.585482299560681,1.4822153081186116,2.443320801248774,3.369926606537774,5.241301094414666,6.4095498295500875,1182.009181366302,1240.4423985022586,1241.2508371253498,1240.8245895483997,1249.8853295715526,1250.8847339972854,1242.259304315783,1249.876998944208
1,48,1,1,1.0,1.0,0.37066815234720707,0,7,6,0,8,5,2,nan,nan,nan,nan,nan,nan,nan,nan,nan,nan,nan,nan,0.0,nan,nan,nan,nan,nan,nan,nan,nan,nan,nan,nan,nan,nan,nan,nan,nan,nan,nan,1182.009181366302,1251.0938663831912,nan,1251.4645345355384,nan,nan,nan,nan
1,49,1,1,1.0,1.0,0.3941241994034499,0,0,2,8,5,7,4,nan,nan,nan,nan,nan,nan,nan,nan,nan,nan,nan,nan,0.0,nan,nan,nan,nan,nan,nan,nan,nan,nan,nan,nan,nan,nan,nan,nan,nan,nan,nan,1182.009181366302,1252.1023797597736,nan,1252.496503959177,nan,nan,nan,nan
1,50,1,1,1.0,1.0,0.5216603437438607,0,8,7,4,3,6,1,nan,nan,nan,nan,nan,nan,nan,nan,nan,nan,nan,nan,0.0,nan,nan,nan,nan,nan,nan,nan,nan,nan,nan,nan,nan,nan,nan,nan,nan,nan,nan,1182.009181366302,1253.11087802588,nan,1253.632538369624,nan,nan,nan,nan
1,51,1,1,1.0,1.0,0.5452170309145004,0,0,8,2,6,4,3,nan,nan,nan,nan,nan,nan,nan,nan,nan,nan,nan,nan,0.0,nan,nan,nan,nan,nan,nan,nan,nan,nan,nan,nan,nan,nan,nan,nan,nan,nan,nan,1182.009181366302,1254.1192850600928,nan,1254.6645020910073,nan,nan,nan,nan
1,52,1,1,1.0,1.0,0.6567276944406331,0,3,5,7,0,1,6,nan,nan,nan,nan,nan,nan,nan,nan,nan,nan,nan,nan,0.0,nan,nan,nan,nan,nan,nan,nan,nan,nan,nan,nan,nan,nan,nan,nan,nan,nan,nan,1182.009181366302,1255.12774797366,nan,1255.7844756681006,nan,nan,nan,nan
1,53,1,1,1.0,1.0,0.48028888646513224,0,6,3,5,1,2,8,nan,nan,nan,nan,nan,nan,nan,nan,nan,nan,nan,nan,0.0,nan,nan,nan,nan,nan,nan,nan,nan,nan,nan,nan,nan,nan,nan,nan,nan,nan,nan,1182.009181366302,1256.1361915005837,nan,1256.6164803870488,nan,nan,nan,nan
1,54,0,0,0.0,1.0,0.5358546262141317,0,5,8,2,7,6,3,nan,nan,nan,nan,nan,nan,nan,nan,nan,nan,nan,nan,0.0,nan,nan,nan,nan,nan,nan,nan,nan,nan,nan,nan,nan,nan,nan,nan,nan,nan,nan,1182.009181366302,1257.1446823542938,nan,1257.680536980508,nan,nan,nan,nan
1,55,1,1,1.0,1.0,0.511262740008533,0,2,3,8,0,5,7,nan,nan,nan,nan,nan,nan,nan,nan,nan,nan,nan,nan,0.0,nan,nan,nan,nan,nan,nan,nan,nan,nan,nan,nan,nan,nan,nan,nan,nan,nan,nan,1182.009181366302,1258.1531666505616,nan,1258.6644293905701,nan,nan,nan,nan
1,56,1,1,1.0,1.0,0.6068556900136173,0,5,6,3,2,0,1,nan,nan,nan,nan,nan,nan,nan,nan,nan,nan,nan,nan,0.0,nan,nan,nan,nan,nan,nan,nan,nan,nan,nan,nan,nan,nan,nan,nan,nan,nan,nan,1182.009181366302,1259.1616691930685,nan,1259.7685248830821,nan,nan,nan,nan
1,57,0,0,0.0,1.0,0.6383159246761352,0,2,0,8,1,6,3,nan,nan,nan,nan,nan,nan,nan,nan,nan,nan,nan,nan,0.0,nan,nan,nan,nan,nan,nan,nan,nan,nan,nan,nan,nan,nan,nan,nan,nan,nan,nan,1182.009181366302,1260.1701312516816,nan,1260.8084471763577,nan,nan,nan,nan
1,58,1,1,1.0,1.0,0.5658685476519167,0,6,8,3,0,4,2,nan,nan,nan,nan,nan,nan,nan,nan,nan,nan,nan,nan,0.0,nan,nan,nan,nan,nan,nan,nan,nan,nan,nan,nan,nan,nan,nan,nan,nan,nan,nan,1182.009181366302,1261.1785616639536,nan,1261.7444302116055,nan,nan,nan,nan
1,59,1,1,1.0,1.0,0.5574033530429006,0,1,4,0,5,7,3,nan,nan,nan,nan,nan,nan,nan,nan,nan,nan,nan,nan,0.0,nan,nan,nan,nan,nan,nan,nan,nan,nan,nan,nan,nan,nan,nan,nan,nan,nan,nan,1182.009181366302,1262.1870562238619,nan,1262.7444595769048,nan,nan,nan,nan
1,60,1,1,1.0,1.0,0.5888741365633905,0,5,3,7,4,2,0,nan,nan,nan,nan,nan,nan,nan,nan,nan,nan,nan,nan,0.0,nan,nan,nan,nan,nan,nan,nan,nan,nan,nan,nan,nan,nan,nan,nan,nan,nan,nan,1182.009181366302,1263.1955222736578,nan,1263.7843964102212,nan,nan,nan,nan
1,61,1,1,1.0,1.0,0.5408319050911814,0,3,7,4,1,8,5,nan,nan,nan,nan,nan,nan,nan,nan,nan,nan,nan,nan,0.0,nan,nan,nan,nan,nan,nan,nan,nan,nan,nan,nan,nan,nan,nan,nan,nan,nan,nan,1182.009181366302,1264.204004859319,nan,1264.7448367644101,nan,nan,nan,nan
1,62,1,1,1.0,1.0,0.5641607977449894,0,8,4,6,0,2,3,nan,nan,nan,nan,nan,nan,nan,nan,nan,nan,nan,nan,0.0,nan,nan,nan,nan,nan,nan,nan,nan,nan,nan,nan,nan,nan,nan,nan,nan,nan,nan,1182.009181366302,1265.2124652070925,nan,1265.7766260048375,nan,nan,nan,nan
1,63,1,1,1.0,1.0,0.5474105919711292,0,6,1,4,5,7,8,nan,nan,nan,nan,nan,nan,nan,nan,nan,nan,nan,nan,0.0,nan,nan,nan,nan,nan,nan,nan,nan,nan,nan,nan,nan,nan,nan,nan,nan,nan,nan,1182.009181366302,1266.220965754008,nan,1266.768376345979,nan,nan,nan,nan
1,64,1,1,1.0,1.0,0.4749324240256101,1,1,0,2,4,8,6,1.0,1.0,1.0,1.0,1.0,1.0,0.0,1.0,1.0,0.0,0.0,0.0,2.0,5.0,0.0,2.0,1.0,3.0,8.0,6.0,1.0,2.0,3.0,4.0,5.0,6.1264975243248045,1.1042274937499315,1.8714873874559999,3.000304772052914,4.151234241435304,5.134914536727592,1182.009181366302,1267.2294412122574,1268.0378222451545,1267.704373636283,1275.2138262754306,1276.21394430683,1269.0463176604826,1275.2054848142434
1,65,1,1,1.0,1.0,0.39394971798174083,0,6,5,8,3,0,7,nan,nan,nan,nan,nan,nan,nan,nan,nan,nan,nan,nan,0.0,nan,nan,nan,nan,nan,nan,nan,nan,nan,nan,nan,nan,nan,nan,nan,nan,nan,nan,1182.009181366302,1276.4223348621745,nan,1276.8162845801562,nan,nan,nan,nan
1,66,1,1,1.0,1.0,0.3857662023510784,0,4,8,3,2,7,5,nan,nan,nan,nan,nan,nan,nan,nan,nan,nan,nan,nan,0.0,nan,nan,nan,nan,nan,nan,nan,nan,nan,nan,nan,nan,nan,nan,nan,nan,nan,nan,1182.009181366302,1277.4308265710715,nan,1277.8165927734226,nan,nan,nan,nan
1,67,1,1,1.0,1.0,0.5049888256471604,0,7,5,1,6,0,3,nan,nan,nan,nan,nan,nan,nan,nan,nan,nan,nan,nan,0.0,nan,nan,nan,nan,nan,nan,nan,nan,nan,nan,nan,nan,nan,nan,nan,nan,nan,nan,1182.009181366302,1278.4392812168226,nan,1278.9442700424697,nan,nan,nan,nan
1,68,1,1,1.0,1.0,0.4324941218364984,0,0,2,3,4,7,6,nan,nan,nan,nan,nan,nan,nan,nan,nan,nan,nan,nan,0.0,nan,nan,nan,nan,nan,nan,nan,nan,nan,nan,nan,nan,nan,nan,nan,nan,nan,nan,1182.009181366302,1279.4477652281057,nan,1279.8802593499422,nan,nan,nan,nan
1,69,1,1,1.0,1.0,0.5360433624591678,0,6,3,0,8,1,5,nan,nan,nan,nan,nan,nan,nan,nan,nan,nan,nan,nan,0.0,nan,nan,nan,nan,nan,nan,nan,nan,nan,nan,nan,nan,nan,nan,nan,nan,nan,nan,1182.009181366302,1280.4562335587107,nan,1280.9922769211698,nan,nan,nan,nan
1,70,1,1,1.0,1.0,0.5114851181861013,0,3,4,2,5,6,0,nan,nan,nan,nan,nan,nan,nan,nan,nan,nan,nan,nan,0.0,nan,nan,nan,nan,nan,nan,nan,nan,nan,nan,nan,nan,nan,nan,nan,nan,nan,nan,1182.009181366302,1281.4647295440082,nan,1281.9762146621943,nan,nan,nan,nan
1,71,1,1,1.0,1.0,0.5430534058250487,0,8,3,1,0,4,6,nan,nan,nan,nan,nan,nan,nan,nan,nan,nan,nan,nan,0.0,nan,nan,nan,nan,nan,nan,nan,nan,nan,nan,nan,nan,nan,nan,nan,nan,nan,nan,1182.009181366302,1282.4731913174037,nan,1283.0162447232287,nan,nan,nan,nan
1,72,1,1,1.0,1.0,0.5188646512106061,0,5,2,4,1,0,7,nan,nan,nan,nan,nan,nan,nan,nan,nan,nan,nan,nan,0.0,nan,nan,nan,nan,nan,nan,nan,nan,nan,nan,nan,nan,nan,nan,nan,nan,nan,nan,1182.009181366302,1283.4817121063825,nan,1284.000576757593,nan,nan,nan,nan
1,73,1,1,1.0,1.0,0.710108426399529,0,1,7,3,4,8,0,nan,nan,nan,nan,nan,nan,nan,nan,nan,nan,nan,nan,0.0,nan,nan,nan,nan,nan,nan,nan,nan,nan,nan,nan,nan,nan,nan,nan,nan,nan,nan,1182.009181366302,1284.4900960475206,nan,1285.2002044739202,nan,nan,nan,nan
1,74,1,1,nan,nan,nan,0,0,4,2,1,3,8,nan,nan,nan,nan,nan,nan,nan,nan,nan,nan,nan,nan,0.0,nan,nan,nan,nan,nan,nan,nan,nan,nan,nan,nan,nan,nan,nan,nan,nan,nan,nan,1182.009181366302,1285.4985620973166,nan,nan,nan,nan,nan,nan
1,75,1,1,1.0,1.0,0.7651048211846501,0,8,5,0,4,2,3,nan,nan,nan,nan,nan,nan,nan,nan,nan,nan,nan,nan,0.0,nan,nan,nan,nan,nan,nan,nan,nan,nan,nan,nan,nan,nan,nan,nan,nan,nan,nan,1182.009181366302,1286.5070532360114,nan,1287.272158057196,nan,nan,nan,nan
1,76,0,0,0.0,1.0,0.5725416024215519,0,1,7,5,2,6,4,nan,nan,nan,nan,nan,nan,nan,nan,nan,nan,nan,nan,0.0,nan,nan,nan,nan,nan,nan,nan,nan,nan,nan,nan,nan,nan,nan,nan,nan,nan,nan,1182.009181366302,1287.5156284791883,nan,1288.0881700816099,nan,nan,nan,nan
1,77,1,1,1.0,1.0,0.5321186734363437,0,0,6,4,1,3,8,nan,nan,nan,nan,nan,nan,nan,nan,nan,nan,nan,nan,0.0,nan,nan,nan,nan,nan,nan,nan,nan,nan,nan,nan,nan,nan,nan,nan,nan,nan,nan,1182.009181366302,1288.5240392195992,nan,1289.0561578930356,nan,nan,nan,nan
1,78,0,0,0.0,1.0,0.6596653664018959,0,2,3,8,6,5,1,nan,nan,nan,nan,nan,nan,nan,nan,nan,nan,nan,nan,0.0,nan,nan,nan,nan,nan,nan,nan,nan,nan,nan,nan,nan,nan,nan,nan,nan,nan,nan,1182.009181366302,1289.5324873081408,nan,1290.1921526745427,nan,nan,nan,nan
1,79,1,1,1.0,1.0,0.40320692071691155,0,1,7,6,5,3,2,nan,nan,nan,nan,nan,nan,nan,nan,nan,nan,nan,nan,0.0,nan,nan,nan,nan,nan,nan,nan,nan,nan,nan,nan,nan,nan,nan,nan,nan,nan,nan,1182.009181366302,1290.5409519325476,nan,1290.9441588532645,nan,nan,nan,nan
1,80,1,1,1.0,1.0,0.6187395206652582,0,0,6,5,8,2,4,nan,nan,nan,nan,nan,nan,nan,nan,nan,nan,nan,nan,0.0,nan,nan,nan,nan,nan,nan,nan,nan,nan,nan,nan,nan,nan,nan,nan,nan,nan,nan,1182.009181366302,1291.5494037272874,nan,1292.1681432479527,nan,nan,nan,nan
1,81,1,1,1.0,1.0,0.6105400396045297,0,7,2,3,0,6,5,nan,nan,nan,nan,nan,nan,nan,nan,nan,nan,nan,nan,0.0,nan,nan,nan,nan,nan,nan,nan,nan,nan,nan,nan,nan,nan,nan,nan,nan,nan,nan,1182.009181366302,1292.5578948659822,nan,1293.1684349055868,nan,nan,nan,nan
1,82,1,1,1.0,1.0,0.5457553002052009,0,3,4,7,5,0,8,nan,nan,nan,nan,nan,nan,nan,nan,nan,nan,nan,nan,0.0,nan,nan,nan,nan,nan,nan,nan,nan,nan,nan,nan,nan,nan,nan,nan,nan,nan,nan,1182.009181366302,1293.5663657623809,nan,1294.112121062586,nan,nan,nan,nan
1,83,1,1,1.0,1.0,0.5052716447971761,0,2,7,0,6,8,4,nan,nan,nan,nan,nan,nan,nan,nan,nan,nan,nan,nan,0.0,nan,nan,nan,nan,nan,nan,nan,nan,nan,nan,nan,nan,nan,nan,nan,nan,nan,nan,1182.009181366302,1294.5748372292146,nan,1295.0801088740118,nan,nan,nan,nan
1,84,1,1,1.0,1.0,0.5287858522497118,0,5,2,3,4,7,1,nan,nan,nan,nan,nan,nan,nan,nan,nan,nan,nan,nan,0.0,nan,nan,nan,nan,nan,nan,nan,nan,nan,nan,nan,nan,nan,nan,nan,nan,nan,nan,1182.009181366302,1295.5833075556438,nan,1296.1120934078936,nan,nan,nan,nan
1,85,1,1,1.0,1.0,0.5283237050753087,0,0,5,1,3,8,4,nan,nan,nan,nan,nan,nan,nan,nan,nan,nan,nan,nan,0.0,nan,nan,nan,nan,nan,nan,nan,nan,nan,nan,nan,nan,nan,nan,nan,nan,nan,nan,1182.009181366302,1296.5917807328515,nan,1297.1201044379268,nan,nan,nan,nan
1,86,1,1,1.0,1.0,0.5598765972536057,0,7,1,2,4,6,5,nan,nan,nan,nan,nan,nan,nan,nan,nan,nan,nan,nan,0.0,nan,nan,nan,nan,nan,nan,nan,nan,nan,nan,nan,nan,nan,nan,nan,nan,nan,nan,1182.009181366302,1297.6002507740632,nan,1298.1601273713168,nan,nan,nan,nan
1,87,1,1,1.0,1.0,0.6795838905964047,0,2,0,3,5,8,6,nan,nan,nan,nan,nan,nan,nan,nan,nan,nan,nan,nan,0.0,nan,nan,nan,nan,nan,nan,nan,nan,nan,nan,nan,nan,nan,nan,nan,nan,nan,nan,1182.009181366302,1298.6087245217059,nan,1299.2883084123023,nan,nan,nan,nan
1,88,1,1,1.0,1.0,0.5828163279220462,0,7,4,2,1,3,0,nan,nan,nan,nan,nan,nan,nan,nan,nan,nan,nan,nan,0.0,nan,nan,nan,nan,nan,nan,nan,nan,nan,nan,nan,nan,nan,nan,nan,nan,nan,nan,1182.009181366302,1299.6172393236775,nan,1300.2000556515995,nan,nan,nan,nan
1,89,1,1,1.0,1.0,0.5104031630326062,0,2,5,6,4,7,3,nan,nan,nan,nan,nan,nan,nan,nan,nan,nan,nan,nan,0.0,nan,nan,nan,nan,nan,nan,nan,nan,nan,nan,nan,nan,nan,nan,nan,nan,nan,nan,1182.009181366302,1300.6256720167585,nan,1301.136075179791,nan,nan,nan,nan
1,90,1,1,1.0,1.0,0.4615469705313444,0,1,8,3,6,0,5,nan,nan,nan,nan,nan,nan,nan,nan,nan,nan,nan,nan,0.0,nan,nan,nan,nan,nan,nan,nan,nan,nan,nan,nan,nan,nan,nan,nan,nan,nan,nan,1182.009181366302,1301.6424915019888,nan,1302.1040384725202,nan,nan,nan,nan
1,91,1,1,1.0,1.0,0.5970967109315097,0,6,2,8,7,3,1,nan,nan,nan,nan,nan,nan,nan,nan,nan,nan,nan,nan,0.0,nan,nan,nan,nan,nan,nan,nan,nan,nan,nan,nan,nan,nan,nan,nan,nan,nan,nan,1182.009181366302,1302.6509663898032,nan,1303.2480631007347,nan,nan,nan,nan
1,92,1,1,1.0,1.0,0.5885935979895294,0,4,5,2,8,6,0,nan,nan,nan,nan,nan,nan,nan,nan,nan,nan,nan,nan,0.0,nan,nan,nan,nan,nan,nan,nan,nan,nan,nan,nan,nan,nan,nan,nan,nan,nan,nan,1182.009181366302,1303.659424171783,nan,1304.2480177697726,nan,nan,nan,nan
1,93,1,1,1.0,1.0,0.5321822508703917,0,1,2,6,5,7,3,nan,nan,nan,nan,nan,nan,nan,nan,nan,nan,nan,nan,0.0,nan,nan,nan,nan,nan,nan,nan,nan,nan,nan,nan,nan,nan,nan,nan,nan,nan,nan,1182.009181366302,1304.667899344815,nan,1305.2000815956853,nan,nan,nan,nan
1,94,1,1,1.0,1.0,0.5876313848420978,0,7,5,1,8,0,4,nan,nan,nan,nan,nan,nan,nan,nan,nan,nan,nan,nan,0.0,nan,nan,nan,nan,nan,nan,nan,nan,nan,nan,nan,nan,nan,nan,nan,nan,nan,nan,1182.009181366302,1305.6763862071093,nan,1306.2640175919514,nan,nan,nan,nan
1,95,1,1,1.0,1.0,0.5391766135580838,0,3,6,5,2,4,8,nan,nan,nan,nan,nan,nan,nan,nan,nan,nan,nan,nan,0.0,nan,nan,nan,nan,nan,nan,nan,nan,nan,nan,nan,nan,nan,nan,nan,nan,nan,nan,1182.009181366302,1306.6848308744375,nan,1307.2240074879956,nan,nan,nan,nan
1,96,1,1,1.0,1.0,0.5547251221723855,0,0,3,8,5,7,6,nan,nan,nan,nan,nan,nan,nan,nan,nan,nan,nan,nan,0.0,nan,nan,nan,nan,nan,nan,nan,nan,nan,nan,nan,nan,nan,nan,nan,nan,nan,nan,1182.009181366302,1307.6932758267503,nan,1308.2480009489227,nan,nan,nan,nan
1,97,1,1,1.0,1.0,0.5461803846992552,0,2,1,6,3,5,7,nan,nan,nan,nan,nan,nan,nan,nan,nan,nan,nan,nan,0.0,nan,nan,nan,nan,nan,nan,nan,nan,nan,nan,nan,nan,nan,nan,nan,nan,nan,nan,1182.009181366302,1308.7017963307444,nan,1309.2479767154437,nan,nan,nan,nan
1,98,1,1,1.0,1.0,0.47372787585482,0,0,4,2,6,8,5,nan,nan,nan,nan,nan,nan,nan,nan,nan,nan,nan,nan,0.0,nan,nan,nan,nan,nan,nan,nan,nan,nan,nan,nan,nan,nan,nan,nan,nan,nan,nan,1182.009181366302,1309.7102458446752,nan,1310.18397372053,nan,nan,nan,nan
1,99,1,1,1.0,1.0,0.5134816749487072,1,4,7,5,8,6,2,1.0,1.0,1.0,1.0,1.0,1.0,1.0,1.0,1.0,0.0,0.0,0.0,3.0,4.0,7.0,5.0,0.0,1.0,3.0,6.0,1.0,2.0,3.0,4.0,5.0,6.244565491564572,1.1352067645639181,2.3272003531455994,3.324961176374927,4.325543921208009,5.444834112888202,1182.009181366302,1310.718727860134,1311.5271402541548,1311.2322095350828,1318.8198183968198,1319.8189933169633,1312.5355914789252,1318.8114629660267
1,100,1,1,1.0,1.0,0.579599542543292,0,7,5,8,3,0,4,nan,nan,nan,nan,nan,nan,nan,nan,nan,nan,nan,nan,0.0,nan,nan,nan,nan,nan,nan,nan,nan,nan,nan,nan,nan,nan,nan,nan,nan,nan,nan,1182.009181366302,1320.0283041757066,nan,1320.6079037182499,nan,nan,nan,nan
1,101,1,1,1.0,1.0,0.45102905482053757,0,1,8,5,7,2,3,nan,nan,nan,nan,nan,nan,nan,nan,nan,nan,nan,nan,0.0,nan,nan,nan,nan,nan,nan,nan,nan,nan,nan,nan,nan,nan,nan,nan,nan,nan,nan,1182.009181366302,1321.0367990205996,nan,1321.48782807542,nan,nan,nan,nan
1,102,1,1,1.0,1.0,0.33053345954976976,0,3,4,1,6,8,0,nan,nan,nan,nan,nan,nan,nan,nan,nan,nan,nan,nan,0.0,nan,nan,nan,nan,nan,nan,nan,nan,nan,nan,nan,nan,nan,nan,nan,nan,nan,nan,1182.009181366302,1322.0452719128225,nan,1322.3758053723723,nan,nan,nan,nan
1,103,1,1,1.0,1.0,0.458083288744092,0,5,6,0,1,4,2,nan,nan,nan,nan,nan,nan,nan,nan,nan,nan,nan,nan,0.0,nan,nan,nan,nan,nan,nan,nan,nan,nan,nan,nan,nan,nan,nan,nan,nan,nan,nan,1182.009181366302,1323.0537544984836,nan,1323.5118377872277,nan,nan,nan,nan
1,104,1,1,1.0,1.0,0.4496118216775358,0,3,2,1,7,5,0,nan,nan,nan,nan,nan,nan,nan,nan,nan,nan,nan,nan,0.0,nan,nan,nan,nan,nan,nan,nan,nan,nan,nan,nan,nan,nan,nan,nan,nan,nan,nan,1182.009181366302,1324.0622205485124,nan,1324.51183237019,nan,nan,nan,nan
1,105,1,1,1.0,1.0,0.3851309991441667,0,1,5,0,4,6,8,nan,nan,nan,nan,nan,nan,nan,nan,nan,nan,nan,nan,0.0,nan,nan,nan,nan,nan,nan,nan,nan,nan,nan,nan,nan,nan,nan,nan,nan,nan,nan,1182.009181366302,1325.07069971296,nan,1325.4558307121042,nan,nan,nan,nan
1,106,1,1,1.0,1.0,0.39293019962497056,0,4,6,8,2,1,5,nan,nan,nan,nan,nan,nan,nan,nan,nan,nan,nan,nan,0.0,nan,nan,nan,nan,nan,nan,nan,nan,nan,nan,nan,nan,nan,nan,nan,nan,nan,nan,1182.009181366302,1326.0791363974568,nan,1326.4720665970817,nan,nan,nan,nan
1,107,1,1,1.0,1.0,0.47275482886470854,0,2,3,6,4,0,7,nan,nan,nan,nan,nan,nan,nan,nan,nan,nan,nan,nan,0.0,nan,nan,nan,nan,nan,nan,nan,nan,nan,nan,nan,nan,nan,nan,nan,nan,nan,nan,1182.009181366302,1327.0876110002864,nan,1327.5603658291511,nan,nan,nan,nan
1,108,0,0,1.0,0.0,0.5996748718898743,0,8,5,0,7,6,1,nan,nan,nan,nan,nan,nan,nan,nan,nan,nan,nan,nan,0.0,nan,nan,nan,nan,nan,nan,nan,nan,nan,nan,nan,nan,nan,nan,nan,nan,nan,nan,1182.009181366302,1328.0960836072918,nan,1328.6957584791817,nan,nan,nan,nan
1,109,1,1,1.0,1.0,0.4233771883882582,0,1,8,2,6,0,3,nan,nan,nan,nan,nan,nan,nan,nan,nan,nan,nan,nan,0.0,nan,nan,nan,nan,nan,nan,nan,nan,nan,nan,nan,nan,nan,nan,nan,nan,nan,nan,1182.009181366302,1329.1045810182113,nan,1329.5279582065996,nan,nan,nan,nan
1,110,1,1,1.0,1.0,0.5267237229272723,0,8,7,5,4,6,0,nan,nan,nan,nan,nan,nan,nan,nan,nan,nan,nan,nan,0.0,nan,nan,nan,nan,nan,nan,nan,nan,nan,nan,nan,nan,nan,nan,nan,nan,nan,nan,1182.009181366302,1330.1130476382095,nan,1330.6397713611368,nan,nan,nan,nan
1,111,1,1,1.0,1.0,0.6142164063639939,0,0,6,8,7,1,2,nan,nan,nan,nan,nan,nan,nan,nan,nan,nan,nan,nan,0.0,nan,nan,nan,nan,nan,nan,nan,nan,nan,nan,nan,nan,nan,nan,nan,nan,nan,nan,1182.009181366302,1331.121546474751,nan,1331.735762881115,nan,nan,nan,nan
1,112,1,1,1.0,1.0,0.5337725395802408,0,1,8,0,4,3,6,nan,nan,nan,nan,nan,nan,nan,nan,nan,nan,nan,nan,0.0,nan,nan,nan,nan,nan,nan,nan,nan,nan,nan,nan,nan,nan,nan,nan,nan,nan,nan,1182.009181366302,1332.1299897164572,nan,1332.6637622560374,nan,nan,nan,nan
1,113,1,1,1.0,1.0,0.5733070964924991,0,8,6,7,2,5,0,nan,nan,nan,nan,nan,nan,nan,nan,nan,nan,nan,nan,0.0,nan,nan,nan,nan,nan,nan,nan,nan,nan,nan,nan,nan,nan,nan,nan,nan,nan,nan,1182.009181366302,1333.13844065601,nan,1333.7117477525026,nan,nan,nan,nan
1,114,1,1,1.0,1.0,0.5728113073855639,0,6,3,0,1,8,7,nan,nan,nan,nan,nan,nan,nan,nan,nan,nan,nan,nan,0.0,nan,nan,nan,nan,nan,nan,nan,nan,nan,nan,nan,nan,nan,nan,nan,nan,nan,nan,1182.009181366302,1334.1469434837345,nan,1334.71975479112,nan,nan,nan,nan
1,115,1,1,1.0,1.0,0.7083536346908659,1,8,5,3,2,1,6,1.0,1.0,1.0,1.0,1.0,1.0,0.0,1.0,1.0,0.0,1.0,0.0,3.0,6.0,5.0,3.0,4.0,1.0,8.0,3.0,2.0,1.0,6.0,5.0,4.0,3.623474179301411,2.3058760000858456,1.1540133978705853,7.151570659596473,6.288072349270806,5.0078237189445645,1182.009181366302,1335.1554126697592,1335.963835612405,1335.86376630445,1344.1732881658245,1345.1731841042638,1336.9806223111227,1344.1649478452746
1,116,1,1,1.0,1.0,0.47381910774856806,0,0,7,2,3,8,5,nan,nan,nan,nan,nan,nan,nan,nan,nan,nan,nan,nan,0.0,nan,nan,nan,nan,nan,nan,nan,nan,nan,nan,nan,nan,nan,nan,nan,nan,nan,nan,1182.009181366302,1345.3818187054712,nan,1345.8556378132198,nan,nan,nan,nan
1,117,1,1,1.0,1.0,0.4814016323070973,0,5,6,8,1,2,4,nan,nan,nan,nan,nan,nan,nan,nan,nan,nan,nan,nan,0.0,nan,nan,nan,nan,nan,nan,nan,nan,nan,nan,nan,nan,nan,nan,nan,nan,nan,nan,1182.009181366302,1346.3902628025971,nan,1346.8716644349042,nan,nan,nan,nan
1,118,1,1,1.0,1.0,0.5848590708337724,0,4,5,3,0,6,1,nan,nan,nan,nan,nan,nan,nan,nan,nan,nan,nan,nan,0.0,nan,nan,nan,nan,nan,nan,nan,nan,nan,nan,nan,nan,nan,nan,nan,nan,nan,nan,1182.009181366302,1347.3987853021827,nan,1347.9836443730164,nan,nan,nan,nan
1,119,1,1,1.0,1.0,0.7927313139662147,0,0,6,5,1,7,8,nan,nan,nan,nan,nan,nan,nan,nan,nan,nan,nan,nan,0.0,nan,nan,nan,nan,nan,nan,nan,nan,nan,nan,nan,nan,nan,nan,nan,nan,nan,nan,1182.009181366302,1348.4072476457804,nan,1349.1999789597467,nan,nan,nan,nan
1,120,0,0,0.0,1.0,0.5118662971071899,0,3,8,4,7,2,6,nan,nan,nan,nan,nan,nan,nan,nan,nan,nan,nan,nan,0.0,nan,nan,nan,nan,nan,nan,nan,nan,nan,nan,nan,nan,nan,nan,nan,nan,nan,nan,1182.009181366302,1349.4157105595805,nan,1349.9275768566877,nan,nan,nan,nan
1,121,1,1,1.0,1.0,0.3593978569842875,0,0,1,6,3,7,4,nan,nan,nan,nan,nan,nan,nan,nan,nan,nan,nan,nan,0.0,nan,nan,nan,nan,nan,nan,nan,nan,nan,nan,nan,nan,nan,nan,nan,nan,nan,nan,1182.009181366302,1350.42420198326,nan,1350.7835998402443,nan,nan,nan,nan
1,122,0,0,0.0,1.0,0.4949076829943806,0,2,3,5,7,1,0,nan,nan,nan,nan,nan,nan,nan,nan,nan,nan,nan,nan,0.0,nan,nan,nan,nan,nan,nan,nan,nan,nan,nan,nan,nan,nan,nan,nan,nan,nan,nan,1182.009181366302,1351.4326637566555,nan,1351.92757143965,nan,nan,nan,nan
1,123,1,1,1.0,1.0,0.39850362320430577,0,6,0,8,4,7,3,nan,nan,nan,nan,nan,nan,nan,nan,nan,nan,nan,nan,0.0,nan,nan,nan,nan,nan,nan,nan,nan,nan,nan,nan,nan,nan,nan,nan,nan,nan,nan,1182.009181366302,1352.4410958795343,nan,1352.8395995027386,nan,nan,nan,nan
1,124,1,1,1.0,1.0,0.44617322855629027,0,4,7,1,6,8,2,nan,nan,nan,nan,nan,nan,nan,nan,nan,nan,nan,nan,0.0,nan,nan,nan,nan,nan,nan,nan,nan,nan,nan,nan,nan,nan,nan,nan,nan,nan,nan,1182.009181366302,1353.4495684867725,nan,1353.8957417153288,nan,nan,nan,nan
1,125,1,1,1.0,1.0,0.4695061123929918,0,1,2,7,4,5,8,nan,nan,nan,nan,nan,nan,nan,nan,nan,nan,nan,nan,0.0,nan,nan,nan,nan,nan,nan,nan,nan,nan,nan,nan,nan,nan,nan,nan,nan,nan,nan,1182.009181366302,1354.4580784419086,nan,1354.9275845543016,nan,nan,nan,nan
1,126,1,1,1.0,1.0,0.45312511129304767,0,2,4,3,7,6,0,nan,nan,nan,nan,nan,nan,nan,nan,nan,nan,nan,nan,0.0,nan,nan,nan,nan,nan,nan,nan,nan,nan,nan,nan,nan,nan,nan,nan,nan,nan,nan,1182.009181366302,1355.466532802675,nan,1355.919657913968,nan,nan,nan,nan
1,127,1,1,1.0,1.0,0.4845083688851446,0,7,5,1,8,3,4,nan,nan,nan,nan,nan,nan,nan,nan,nan,nan,nan,nan,0.0,nan,nan,nan,nan,nan,nan,nan,nan,nan,nan,nan,nan,nan,nan,nan,nan,nan,nan,1182.009181366302,1356.4750285029877,nan,1356.9595368718728,nan,nan,nan,nan
1,128,1,1,1.0,1.0,0.5080339803826064,0,6,7,2,5,4,0,nan,nan,nan,nan,nan,nan,nan,nan,nan,nan,nan,nan,0.0,nan,nan,nan,nan,nan,nan,nan,nan,nan,nan,nan,nan,nan,nan,nan,nan,nan,nan,1182.009181366302,1357.4834879955743,nan,1357.9915219759569,nan,nan,nan,nan
1,129,1,1,1.0,1.0,0.516017640940845,0,1,4,5,2,0,6,nan,nan,nan,nan,nan,nan,nan,nan,nan,nan,nan,nan,0.0,nan,nan,nan,nan,nan,nan,nan,nan,nan,nan,nan,nan,nan,nan,nan,nan,nan,nan,1182.009181366302,1358.4919691556133,nan,1359.0079867965542,nan,nan,nan,nan
1,130,1,1,1.0,1.0,0.4271159921772778,0,6,7,0,3,2,4,nan,nan,nan,nan,nan,nan,nan,nan,nan,nan,nan,nan,0.0,nan,nan,nan,nan,nan,nan,nan,nan,nan,nan,nan,nan,nan,nan,nan,nan,nan,nan,1182.009181366302,1359.5003921552561,nan,1359.9275081474334,nan,nan,nan,nan
1,131,1,1,1.0,1.0,0.4906040960922837,0,7,4,3,2,5,0,nan,nan,nan,nan,nan,nan,nan,nan,nan,nan,nan,nan,0.0,nan,nan,nan,nan,nan,nan,nan,nan,nan,nan,nan,nan,nan,nan,nan,nan,nan,nan,1182.009181366302,1360.5088995445985,nan,1360.9995036406908,nan,nan,nan,nan
1,132,1,1,1.0,1.0,0.4340886874124408,0,2,1,0,7,3,4,nan,nan,nan,nan,nan,nan,nan,nan,nan,nan,nan,nan,0.0,nan,nan,nan,nan,nan,nan,nan,nan,nan,nan,nan,nan,nan,nan,nan,nan,nan,nan,1182.009181366302,1361.5173844110686,nan,1361.951473098481,nan,nan,nan,nan
1,133,1,1,1.0,1.0,0.537620821967721,0,5,2,3,0,7,8,nan,nan,nan,nan,nan,nan,nan,nan,nan,nan,nan,nan,0.0,nan,nan,nan,nan,nan,nan,nan,nan,nan,nan,nan,nan,nan,nan,nan,nan,nan,nan,1182.009181366302,1362.5258416228462,nan,1363.063462444814,nan,nan,nan,nan
1,134,1,1,1.0,1.0,0.45714530907571316,0,8,0,7,6,1,4,nan,nan,nan,nan,nan,nan,nan,nan,nan,nan,nan,nan,0.0,nan,nan,nan,nan,nan,nan,nan,nan,nan,nan,nan,nan,nan,nan,nan,nan,nan,nan,1182.009181366302,1363.5343185064849,nan,1363.9914638155606,nan,nan,nan,nan
1,135,1,1,1.0,1.0,0.43285078229382634,0,2,3,5,4,0,6,nan,nan,nan,nan,nan,nan,nan,nan,nan,nan,nan,nan,0.0,nan,nan,nan,nan,nan,nan,nan,nan,nan,nan,nan,nan,nan,nan,nan,nan,nan,nan,1182.009181366302,1364.5427614632063,nan,1364.9756122455,nan,nan,nan,nan
1,136,1,1,1.0,1.0,0.39227732038125396,0,7,4,3,0,2,1,nan,nan,nan,nan,nan,nan,nan,nan,nan,nan,nan,nan,0.0,nan,nan,nan,nan,nan,nan,nan,nan,nan,nan,nan,nan,nan,nan,nan,nan,nan,nan,1182.009181366302,1365.5512335002422,nan,1365.9435108206235,nan,nan,nan,nan
1,137,1,1,1.0,1.0,0.3921150981914252,0,2,1,5,4,6,0,nan,nan,nan,nan,nan,nan,nan,nan,nan,nan,nan,nan,0.0,nan,nan,nan,nan,nan,nan,nan,nan,nan,nan,nan,nan,nan,nan,nan,nan,nan,nan,1182.009181366302,1366.5597406046,nan,1366.9518557027914,nan,nan,nan,nan
1,138,0,0,0.0,1.0,0.44721070816740394,0,5,7,0,6,8,3,nan,nan,nan,nan,nan,nan,nan,nan,nan,nan,nan,nan,0.0,nan,nan,nan,nan,nan,nan,nan,nan,nan,nan,nan,nan,nan,nan,nan,nan,nan,nan,1182.009181366302,1367.5682306026574,nan,1368.0154413108248,nan,nan,nan,nan
1,139,1,1,1.0,1.0,0.33477689046412706,0,6,1,4,2,3,8,nan,nan,nan,nan,nan,nan,nan,nan,nan,nan,nan,nan,0.0,nan,nan,nan,nan,nan,nan,nan,nan,nan,nan,nan,nan,nan,nan,nan,nan,nan,nan,1182.009181366302,1368.5766593045555,nan,1368.9114361950196,nan,nan,nan,nan
1,140,1,1,1.0,1.0,0.3346046900842339,0,0,2,7,5,1,6,nan,nan,nan,nan,nan,nan,nan,nan,nan,nan,nan,nan,0.0,nan,nan,nan,nan,nan,nan,nan,nan,nan,nan,nan,nan,nan,nan,nan,nan,nan,nan,1182.009181366302,1369.585115090711,nan,1369.9197197807953,nan,nan,nan,nan
1,141,0,0,0.0,1.0,0.5498228243086487,0,6,7,3,0,2,5,nan,nan,nan,nan,nan,nan,nan,nan,nan,nan,nan,nan,0.0,nan,nan,nan,nan,nan,nan,nan,nan,nan,nan,nan,nan,nan,nan,nan,nan,nan,nan,1182.009181366302,1370.5936164930463,nan,1371.143439317355,nan,nan,nan,nan
1,142,1,1,1.0,1.0,0.3732651297468692,0,2,6,8,5,4,3,nan,nan,nan,nan,nan,nan,nan,nan,nan,nan,nan,nan,0.0,nan,nan,nan,nan,nan,nan,nan,nan,nan,nan,nan,nan,nan,nan,nan,nan,nan,nan,1182.009181366302,1371.6020953722764,nan,1371.9753605020232,nan,nan,nan,nan
1,143,1,1,1.0,1.0,0.4048245793674141,0,8,1,5,6,7,4,nan,nan,nan,nan,nan,nan,nan,nan,nan,nan,nan,nan,0.0,nan,nan,nan,nan,nan,nan,nan,nan,nan,nan,nan,nan,nan,nan,nan,nan,nan,nan,1182.009181366302,1372.610563132679,nan,1373.0153877120465,nan,nan,nan,nan
1,144,1,1,1.0,1.0,0.54033098439686,0,6,4,0,1,3,2,nan,nan,nan,nan,nan,nan,nan,nan,nan,nan,nan,nan,0.0,nan,nan,nan,nan,nan,nan,nan,nan,nan,nan,nan,nan,nan,nan,nan,nan,nan,nan,1182.009181366302,1373.6190365951043,nan,1374.1593675795011,nan,nan,nan,nan
1,145,1,1,1.0,1.0,0.6678072575014085,0,2,1,5,6,7,4,nan,nan,nan,nan,nan,nan,nan,nan,nan,nan,nan,nan,0.0,nan,nan,nan,nan,nan,nan,nan,nan,nan,nan,nan,nan,nan,nan,nan,nan,nan,nan,1182.009181366302,1374.6275342912413,nan,1375.2953415487427,nan,nan,nan,nan
1,146,0,0,0.0,1.0,0.49139239778742194,0,1,7,2,3,0,8,nan,nan,nan,nan,nan,nan,nan,nan,nan,nan,nan,nan,0.0,nan,nan,nan,nan,nan,nan,nan,nan,nan,nan,nan,nan,nan,nan,nan,nan,nan,nan,1182.009181366302,1375.6359456018545,nan,1376.127337999642,nan,nan,nan,nan
1,147,1,1,1.0,1.0,0.3948800000362098,0,6,3,8,1,5,7,nan,nan,nan,nan,nan,nan,nan,nan,nan,nan,nan,nan,0.0,nan,nan,nan,nan,nan,nan,nan,nan,nan,nan,nan,nan,nan,nan,nan,nan,nan,nan,1182.009181366302,1376.6444538463838,nan,1377.03933384642,nan,nan,nan,nan
1,148,1,1,1.0,1.0,0.522430969402194,0,3,5,6,8,2,0,nan,nan,nan,nan,nan,nan,nan,nan,nan,nan,nan,nan,0.0,nan,nan,nan,nan,nan,nan,nan,nan,nan,nan,nan,nan,nan,nan,nan,nan,nan,nan,1182.009181366302,1377.652927308809,nan,1378.1753582782112,nan,nan,nan,nan
1,149,1,1,1.0,1.0,0.777879019966349,0,7,2,0,5,6,8,nan,nan,nan,nan,nan,nan,nan,nan,nan,nan,nan,nan,0.0,nan,nan,nan,nan,nan,nan,nan,nan,nan,nan,nan,nan,nan,nan,nan,nan,nan,nan,1182.009181366302,1378.661379673984,nan,1379.4392586939503,nan,nan,nan,nan
1,150,1,1,1.0,1.0,0.5773324258625507,0,0,8,2,4,7,6,nan,nan,nan,nan,nan,nan,nan,nan,nan,nan,nan,nan,0.0,nan,nan,nan,nan,nan,nan,nan,nan,nan,nan,nan,nan,nan,nan,nan,nan,nan,nan,1182.009181366302,1379.6699651808012,nan,1380.2472976066638,nan,nan,nan,nan
1,151,1,1,1.0,1.0,0.608905560337007,0,8,2,7,6,0,1,nan,nan,nan,nan,nan,nan,nan,nan,nan,nan,nan,nan,0.0,nan,nan,nan,nan,nan,nan,nan,nan,nan,nan,nan,nan,nan,nan,nan,nan,nan,nan,1182.009181366302,1380.67837535101,nan,1381.287280911347,nan,nan,nan,nan
1,152,1,1,1.0,1.0,0.552755364915356,0,6,7,1,8,3,0,nan,nan,nan,nan,nan,nan,nan,nan,nan,nan,nan,nan,0.0,nan,nan,nan,nan,nan,nan,nan,nan,nan,nan,nan,nan,nan,nan,nan,nan,nan,nan,1182.009181366302,1381.6867795339786,nan,1382.239534898894,nan,nan,nan,nan
1,153,1,1,1.0,1.0,0.5602817246690392,0,3,2,8,6,5,1,nan,nan,nan,nan,nan,nan,nan,nan,nan,nan,nan,nan,0.0,nan,nan,nan,nan,nan,nan,nan,nan,nan,nan,nan,nan,nan,nan,nan,nan,nan,nan,1182.009181366302,1382.6952575580217,nan,1383.2555392826907,nan,nan,nan,nan
1,154,1,1,1.0,1.0,0.5435452035162598,0,4,3,2,8,6,7,nan,nan,nan,nan,nan,nan,nan,nan,nan,nan,nan,nan,0.0,nan,nan,nan,nan,nan,nan,nan,nan,nan,nan,nan,nan,nan,nan,nan,nan,nan,nan,1182.009181366302,1383.7037310206797,nan,1384.247276224196,nan,nan,nan,nan
1,155,1,1,1.0,1.0,0.49568201531656086,0,7,2,3,6,5,4,nan,nan,nan,nan,nan,nan,nan,nan,nan,nan,nan,nan,0.0,nan,nan,nan,nan,nan,nan,nan,nan,nan,nan,nan,nan,nan,nan,nan,nan,nan,nan,1182.009181366302,1384.7122278611641,nan,1385.2079098764807,nan,nan,nan,nan
1,156,1,1,1.0,1.0,0.4470176952891052,0,4,0,2,1,3,8,nan,nan,nan,nan,nan,nan,nan,nan,nan,nan,nan,nan,0.0,nan,nan,nan,nan,nan,nan,nan,nan,nan,nan,nan,nan,nan,nan,nan,nan,nan,nan,1182.009181366302,1385.7207532119937,nan,1386.1677709072828,nan,nan,nan,nan
1,157,1,1,1.0,1.0,0.4461048045195639,0,2,1,6,7,4,3,nan,nan,nan,nan,nan,nan,nan,nan,nan,nan,nan,nan,0.0,nan,nan,nan,nan,nan,nan,nan,nan,nan,nan,nan,nan,nan,nan,nan,nan,nan,nan,1182.009181366302,1386.7291633822024,nan,1387.175268186722,nan,nan,nan,nan
1,158,1,1,1.0,1.0,0.4296029210090637,0,7,4,1,0,5,8,nan,nan,nan,nan,nan,nan,nan,nan,nan,nan,nan,nan,0.0,nan,nan,nan,nan,nan,nan,nan,nan,nan,nan,nan,nan,nan,nan,nan,nan,nan,nan,1182.009181366302,1387.7376294319984,nan,1388.1672323530074,nan,nan,nan,nan
1,159,1,1,1.0,1.0,0.4770698200445622,0,6,7,8,3,0,2,nan,nan,nan,nan,nan,nan,nan,nan,nan,nan,nan,nan,0.0,nan,nan,nan,nan,nan,nan,nan,nan,nan,nan,nan,nan,nan,nan,nan,nan,nan,nan,1182.009181366302,1388.7461262727156,nan,1389.2231960927602,nan,nan,nan,nan
1,160,1,1,1.0,1.0,0.41266768518835306,0,7,5,0,8,1,4,nan,nan,nan,nan,nan,nan,nan,nan,nan,nan,nan,nan,0.0,nan,nan,nan,nan,nan,nan,nan,nan,nan,nan,nan,nan,nan,nan,nan,nan,nan,nan,1182.009181366302,1389.7545706548262,nan,1390.1672383400146,nan,nan,nan,nan
1,161,0,0,0.0,1.0,0.5646520252339542,0,2,4,5,7,3,8,nan,nan,nan,nan,nan,nan,nan,nan,nan,nan,nan,nan,0.0,nan,nan,nan,nan,nan,nan,nan,nan,nan,nan,nan,nan,nan,nan,nan,nan,nan,nan,1182.009181366302,1390.7630654997192,nan,1391.3277175249532,nan,nan,nan,nan
1,162,1,1,1.0,1.0,0.33160172984935343,0,5,6,7,0,8,2,nan,nan,nan,nan,nan,nan,nan,nan,nan,nan,nan,nan,0.0,nan,nan,nan,nan,nan,nan,nan,nan,nan,nan,nan,nan,nan,nan,nan,nan,nan,nan,1182.009181366302,1391.7715885697398,nan,1392.1031902995892,nan,nan,nan,nan
1,163,1,1,1.0,1.0,0.4914408647455275,0,7,1,5,6,4,3,nan,nan,nan,nan,nan,nan,nan,nan,nan,nan,nan,nan,0.0,nan,nan,nan,nan,nan,nan,nan,nan,nan,nan,nan,nan,nan,nan,nan,nan,nan,nan,1182.009181366302,1392.7800169864204,nan,1393.271457851166,nan,nan,nan,nan
1,164,1,1,1.0,1.0,0.5230636068154126,0,0,2,1,8,6,5,nan,nan,nan,nan,nan,nan,nan,nan,nan,nan,nan,nan,0.0,nan,nan,nan,nan,nan,nan,nan,nan,nan,nan,nan,nan,nan,nan,nan,nan,nan,nan,1182.009181366302,1393.7884816105943,nan,1394.3115452174097,nan,nan,nan,nan
1,165,1,1,1.0,1.0,0.5622306694276631,0,5,4,7,2,0,8,nan,nan,nan,nan,nan,nan,nan,nan,nan,nan,nan,nan,0.0,nan,nan,nan,nan,nan,nan,nan,nan,nan,nan,nan,nan,nan,nan,nan,nan,nan,nan,1182.009181366302,1394.7969291289337,nan,1395.3591597983614,nan,nan,nan,nan
1,166,1,1,1.0,1.0,0.6097292145714164,1,1,5,6,8,3,7,1.0,1.0,1.0,1.0,1.0,1.0,1.0,1.0,1.0,0.0,0.0,0.0,3.0,1.0,5.0,6.0,0.0,6.0,5.0,3.0,2.0,1.0,4.0,5.0,6.0,2.789566416759044,1.9744293647818267,1.1028735532891005,5.604753931518644,6.765127629274502,7.701044806512073,1182.009181366302,1395.805432812078,1396.613832091447,1396.4151620266493,1405.3650245941244,1406.3650613720529,1397.6223796799313,1405.356709647458
1,167,1,1,1.0,1.0,0.3215017707552761,0,6,2,1,3,0,8,nan,nan,nan,nan,nan,nan,nan,nan,nan,nan,nan,nan,0.0,nan,nan,nan,nan,nan,nan,nan,nan,nan,nan,nan,nan,nan,nan,nan,nan,nan,nan,1182.009181366302,1406.5735862096772,nan,1406.8950879804324,nan,nan,nan,nan
1,168,1,1,1.0,1.0,0.34497435367666185,0,4,8,6,5,1,3,nan,nan,nan,nan,nan,nan,nan,nan,nan,nan,nan,nan,0.0,nan,nan,nan,nan,nan,nan,nan,nan,nan,nan,nan,nan,nan,nan,nan,nan,nan,nan,1182.009181366302,1407.5820739271585,nan,1407.9270482808352,nan,nan,nan,nan
1,169,0,0,0.0,1.0,0.5050139143131673,0,8,1,5,2,7,6,nan,nan,nan,nan,nan,nan,nan,nan,nan,nan,nan,nan,0.0,nan,nan,nan,nan,nan,nan,nan,nan,nan,nan,nan,nan,nan,nan,nan,nan,nan,nan,1182.009181366302,1408.590478965547,nan,1409.09549287986,nan,nan,nan,nan
1,170,1,1,1.0,1.0,0.39200276881456375,0,7,4,8,0,1,5,nan,nan,nan,nan,nan,nan,nan,nan,nan,nan,nan,nan,0.0,nan,nan,nan,nan,nan,nan,nan,nan,nan,nan,nan,nan,nan,nan,nan,nan,nan,nan,1182.009181366302,1409.5989720998332,nan,1409.9909748686478,nan,nan,nan,nan
1,171,1,1,1.0,1.0,0.4318229961208999,0,5,1,2,8,0,3,nan,nan,nan,nan,nan,nan,nan,nan,nan,nan,nan,nan,0.0,nan,nan,nan,nan,nan,nan,nan,nan,nan,nan,nan,nan,nan,nan,nan,nan,nan,nan,1182.009181366302,1410.607447272865,nan,1411.039270268986,nan,nan,nan,nan
1,172,1,1,1.0,1.0,0.5030595525167882,0,4,8,0,1,3,7,nan,nan,nan,nan,nan,nan,nan,nan,nan,nan,nan,nan,0.0,nan,nan,nan,nan,nan,nan,nan,nan,nan,nan,nan,nan,nan,nan,nan,nan,nan,nan,1182.009181366302,1411.6159252969082,nan,1412.118984849425,nan,nan,nan,nan
1,173,1,1,1.0,1.0,0.5830974366981536,0,0,6,7,8,2,5,nan,nan,nan,nan,nan,nan,nan,nan,nan,nan,nan,nan,0.0,nan,nan,nan,nan,nan,nan,nan,nan,nan,nan,nan,nan,nan,nan,nan,nan,nan,nan,1182.009181366302,1412.6244053167757,nan,1413.2075027534738,nan,nan,nan,nan
1,174,1,1,1.0,1.0,0.4866722794249654,0,8,7,5,3,6,0,nan,nan,nan,nan,nan,nan,nan,nan,nan,nan,nan,nan,0.0,nan,nan,nan,nan,nan,nan,nan,nan,nan,nan,nan,nan,nan,nan,nan,nan,nan,nan,1182.009181366302,1413.6328405756503,nan,1414.1195128550753,nan,nan,nan,nan
1,175,0,0,0.0,1.0,0.48584776977077127,0,4,1,8,6,0,3,nan,nan,nan,nan,nan,nan,nan,nan,nan,nan,nan,nan,0.0,nan,nan,nan,nan,nan,nan,nan,nan,nan,nan,nan,nan,nan,nan,nan,nan,nan,nan,1182.009181366302,1414.6413479649927,nan,1415.1271957347635,nan,nan,nan,nan
1,176,1,1,1.0,1.0,0.42138376785442233,0,7,0,1,2,3,4,nan,nan,nan,nan,nan,nan,nan,nan,nan,nan,nan,nan,0.0,nan,nan,nan,nan,nan,nan,nan,nan,nan,nan,nan,nan,nan,nan,nan,nan,nan,nan,1182.009181366302,1415.6498348272871,nan,1416.0712185951415,nan,nan,nan,nan
1,177,1,1,1.0,1.0,0.39667270984500647,0,0,7,4,5,1,6,nan,nan,nan,nan,nan,nan,nan,nan,nan,nan,nan,nan,0.0,nan,nan,nan,nan,nan,nan,nan,nan,nan,nan,nan,nan,nan,nan,nan,nan,nan,nan,1182.009181366302,1416.6582894730382,nan,1417.0549621828832,nan,nan,nan,nan
1,178,1,1,1.0,1.0,0.4041936525609344,0,8,2,6,0,4,3,nan,nan,nan,nan,nan,nan,nan,nan,nan,nan,nan,nan,0.0,nan,nan,nan,nan,nan,nan,nan,nan,nan,nan,nan,nan,nan,nan,nan,nan,nan,nan,1182.009181366302,1417.6667612248566,nan,1418.0709548774175,nan,nan,nan,nan
1,179,1,1,1.0,1.0,0.4200141467154026,0,6,8,4,3,7,2,nan,nan,nan,nan,nan,nan,nan,nan,nan,nan,nan,nan,0.0,nan,nan,nan,nan,nan,nan,nan,nan,nan,nan,nan,nan,nan,nan,nan,nan,nan,nan,1182.009181366302,1418.6752495125402,nan,1419.0952636592556,nan,nan,nan,nan
1,180,1,1,1.0,1.0,0.44327119388617575,0,2,0,5,6,8,1,nan,nan,nan,nan,nan,nan,nan,nan,nan,nan,nan,nan,0.0,nan,nan,nan,nan,nan,nan,nan,nan,nan,nan,nan,nan,nan,nan,nan,nan,nan,nan,1182.009181366302,1419.6836608231533,nan,1420.1269320170395,nan,nan,nan,nan
1,181,1,1,1.0,1.0,0.5950810525100678,0,5,4,6,1,0,8,nan,nan,nan,nan,nan,nan,nan,nan,nan,nan,nan,nan,0.0,nan,nan,nan,nan,nan,nan,nan,nan,nan,nan,nan,nan,nan,nan,nan,nan,nan,nan,1182.009181366302,1420.6921645062976,nan,1421.2872455588076,nan,nan,nan,nan
1,182,1,1,1.0,1.0,0.6346167498268187,0,1,2,7,5,6,0,nan,nan,nan,nan,nan,nan,nan,nan,nan,nan,nan,nan,0.0,nan,nan,nan,nan,nan,nan,nan,nan,nan,nan,nan,nan,nan,nan,nan,nan,nan,nan,1182.009181366302,1421.7006245690864,nan,1422.3352413189132,nan,nan,nan,nan
1,183,1,1,1.0,1.0,0.6577971051447093,0,0,6,8,1,4,3,nan,nan,nan,nan,nan,nan,nan,nan,nan,nan,nan,nan,0.0,nan,nan,nan,nan,nan,nan,nan,nan,nan,nan,nan,nan,nan,nan,nan,nan,nan,nan,1182.009181366302,1422.7091162777506,nan,1423.3669133828953,nan,nan,nan,nan
1,184,1,1,1.0,1.0,0.617683224612847,0,1,2,6,5,3,0,nan,nan,nan,nan,nan,nan,nan,nan,nan,nan,nan,nan,0.0,nan,nan,nan,nan,nan,nan,nan,nan,nan,nan,nan,nan,nan,nan,nan,nan,nan,nan,1182.009181366302,1423.7175883147866,nan,1424.3352715393994,nan,nan,nan,nan
1,185,1,1,1.0,1.0,0.38481596345081925,1,5,8,7,6,2,4,1.0,1.0,1.0,1.0,1.0,1.0,0.0,1.0,1.0,0.0,0.0,0.0,2.0,0.0,8.0,7.0,3.0,5.0,6.0,3.0,2.0,1.0,6.0,5.0,4.0,3.1084076329134405,2.3012357098050416,1.1890958305448294,7.276281461119652,6.036135022295639,5.179887094767764,1182.009181366302,1424.7260868661106,1425.534481298644,1425.1109028295614,1433.8606116711162,1434.8603944247589,1426.5429476336576,1433.8523010008503
1,186,1,1,1.0,1.0,0.48171438719145954,0,7,6,3,1,0,2,nan,nan,nan,nan,nan,nan,nan,nan,nan,nan,nan,nan,0.0,nan,nan,nan,nan,nan,nan,nan,nan,nan,nan,nan,nan,nan,nan,nan,nan,nan,nan,1182.009181366302,1435.0691481977701,nan,1435.5508625849616,nan,nan,nan,nan
1,187,1,1,1.0,1.0,0.2571295714005828,0,6,2,7,8,4,5,nan,nan,nan,nan,nan,nan,nan,nan,nan,nan,nan,nan,0.0,nan,nan,nan,nan,nan,nan,nan,nan,nan,nan,nan,nan,nan,nan,nan,nan,nan,nan,1182.009181366302,1436.0776515956968,nan,1436.3347811670974,nan,nan,nan,nan
1,188,1,1,1.0,1.0,0.4246712583117187,0,2,3,1,5,8,4,nan,nan,nan,nan,nan,nan,nan,nan,nan,nan,nan,nan,0.0,nan,nan,nan,nan,nan,nan,nan,nan,nan,nan,nan,nan,nan,nan,nan,nan,nan,nan,1182.009181366302,1437.086083433358,nan,1437.5107546916697,nan,nan,nan,nan
1,189,1,1,1.0,1.0,0.2723741631489247,1,8,6,3,0,7,2,1.0,1.0,1.0,1.0,1.0,1.0,0.0,0.0,0.0,0.0,0.0,1.0,1.0,1.0,0.0,5.0,8.0,0.0,2.0,6.0,5.0,4.0,3.0,2.0,1.0,6.4595966001506895,5.724290164653212,4.892640965525061,3.6517583979293704,2.9248099592514336,1.4708782995585352,1182.009181366302,1438.0945574662182,1438.9029878214933,1438.3669316293672,1446.4123649089597,1447.411983444821,1439.9114698369522,1446.4040111885406
1,190,1,1,1.0,1.0,0.2658382416702807,0,6,2,7,4,3,5,nan,nan,nan,nan,nan,nan,nan,nan,nan,nan,nan,nan,0.0,nan,nan,nan,nan,nan,nan,nan,nan,nan,nan,nan,nan,nan,nan,nan,nan,nan,nan,1182.009181366302,1447.620833011344,nan,1447.8866712530144,nan,nan,nan,nan
1,191,0,0,1.0,0.0,0.28930369718000293,0,4,6,2,3,5,7,nan,nan,nan,nan,nan,nan,nan,nan,nan,nan,nan,nan,0.0,nan,nan,nan,nan,nan,nan,nan,nan,nan,nan,nan,nan,nan,nan,nan,nan,nan,nan,1182.009181366302,1448.6293449623045,nan,1448.9186486594845,nan,nan,nan,nan
1,192,1,1,1.0,1.0,0.44882152415812016,0,7,5,6,4,0,1,nan,nan,nan,nan,nan,nan,nan,nan,nan,nan,nan,nan,0.0,nan,nan,nan,nan,nan,nan,nan,nan,nan,nan,nan,nan,nan,nan,nan,nan,nan,nan,1182.009181366302,1449.6378050250933,nan,1450.0866265492514,nan,nan,nan,nan
1,193,1,1,1.0,1.0,0.5207540101837367,0,5,8,4,1,2,6,nan,nan,nan,nan,nan,nan,nan,nan,nan,nan,nan,nan,0.0,nan,nan,nan,nan,nan,nan,nan,nan,nan,nan,nan,nan,nan,nan,nan,nan,nan,nan,1182.009181366302,1450.6462853299454,nan,1451.1670393401291,nan,nan,nan,nan
1,194,1,1,1.0,1.0,0.5758687215857208,0,2,1,6,0,7,4,nan,nan,nan,nan,nan,nan,nan,nan,nan,nan,nan,nan,0.0,nan,nan,nan,nan,nan,nan,nan,nan,nan,nan,nan,nan,nan,nan,nan,nan,nan,nan,1182.009181366302,1451.6547639241908,nan,1452.2306326457765,nan,nan,nan,nan
1,195,1,1,1.0,1.0,0.5833925153128803,0,0,3,5,4,6,7,nan,nan,nan,nan,nan,nan,nan,nan,nan,nan,nan,nan,0.0,nan,nan,nan,nan,nan,nan,nan,nan,nan,nan,nan,nan,nan,nan,nan,nan,nan,nan,1182.009181366302,1452.6632308294065,nan,1453.2466233447194,nan,nan,nan,nan
1,196,1,1,1.0,1.0,0.5589198011439294,0,8,4,2,1,0,6,nan,nan,nan,nan,nan,nan,nan,nan,nan,nan,nan,nan,0.0,nan,nan,nan,nan,nan,nan,nan,nan,nan,nan,nan,nan,nan,nan,nan,nan,nan,nan,1182.009181366302,1453.6716769221239,nan,1454.2305967232678,nan,nan,nan,nan
1,197,1,1,1.0,1.0,0.526433490915224,0,4,5,8,7,6,1,nan,nan,nan,nan,nan,nan,nan,nan,nan,nan,nan,nan,0.0,nan,nan,nan,nan,nan,nan,nan,nan,nan,nan,nan,nan,nan,nan,nan,nan,nan,nan,1182.009181366302,1454.680157226976,nan,1455.2065907178912,nan,nan,nan,nan
1,198,1,1,1.0,1.0,0.4379783091135323,0,5,6,3,4,0,7,nan,nan,nan,nan,nan,nan,nan,nan,nan,nan,nan,nan,0.0,nan,nan,nan,nan,nan,nan,nan,nan,nan,nan,nan,nan,nan,nan,nan,nan,nan,nan,1182.009181366302,1455.6886264130007,nan,1456.1266047221143,nan,nan,nan,nan
1,199,1,1,1.0,1.0,0.45352339651435614,0,1,7,5,8,4,2,nan,nan,nan,nan,nan,nan,nan,nan,nan,nan,nan,nan,0.0,nan,nan,nan,nan,nan,nan,nan,nan,nan,nan,nan,nan,nan,nan,nan,nan,nan,nan,1182.009181366302,1456.697086190572,nan,1457.1506095870864,nan,nan,nan,nan
1,200,1,1,1.0,1.0,0.501356934197247,0,8,6,4,0,5,7,nan,nan,nan,nan,nan,nan,nan,nan,nan,nan,nan,nan,0.0,nan,nan,nan,nan,nan,nan,nan,nan,nan,nan,nan,nan,nan,nan,nan,nan,nan,nan,1182.009181366302,1457.7055593680125,nan,1458.2069163022097,nan,nan,nan,nan
1,201,1,1,1.0,1.0,0.412710735341534,0,0,8,2,5,1,6,nan,nan,nan,nan,nan,nan,nan,nan,nan,nan,nan,nan,0.0,nan,nan,nan,nan,nan,nan,nan,nan,nan,nan,nan,nan,nan,nan,nan,nan,nan,nan,1182.009181366302,1458.714068182977,nan,1459.1267789183185,nan,nan,nan,nan
1,202,0,0,0.0,1.0,0.46805666317231953,0,2,5,1,3,8,0,nan,nan,nan,nan,nan,nan,nan,nan,nan,nan,nan,nan,0.0,nan,nan,nan,nan,nan,nan,nan,nan,nan,nan,nan,nan,nan,nan,nan,nan,nan,nan,1182.009181366302,1459.722535658162,nan,1460.1905923213344,nan,nan,nan,nan
1,203,1,1,1.0,1.0,0.26765689556486905,0,5,2,3,8,4,6,nan,nan,nan,nan,nan,nan,nan,nan,nan,nan,nan,nan,0.0,nan,nan,nan,nan,nan,nan,nan,nan,nan,nan,nan,nan,nan,nan,nan,nan,nan,nan,1182.009181366302,1460.731021380052,nan,1460.9986782756168,nan,nan,nan,nan
1,204,1,1,1.0,1.0,0.41904965275898576,0,2,3,0,7,5,8,nan,nan,nan,nan,nan,nan,nan,nan,nan,nan,nan,nan,0.0,nan,nan,nan,nan,nan,nan,nan,nan,nan,nan,nan,nan,nan,nan,nan,nan,nan,nan,1182.009181366302,1461.7394880000502,nan,1462.1585376528092,nan,nan,nan,nan
1,205,1,1,1.0,1.0,0.4425892340950668,0,6,2,3,5,1,0,nan,nan,nan,nan,nan,nan,nan,nan,nan,nan,nan,nan,0.0,nan,nan,nan,nan,nan,nan,nan,nan,nan,nan,nan,nan,nan,nan,nan,nan,nan,nan,1182.009181366302,1462.7479514840525,nan,1463.1905407181475,nan,nan,nan,nan
1,206,1,1,1.0,1.0,0.3460295097902417,0,3,5,2,4,7,1,nan,nan,nan,nan,nan,nan,nan,nan,nan,nan,nan,nan,0.0,nan,nan,nan,nan,nan,nan,nan,nan,nan,nan,nan,nan,nan,nan,nan,nan,nan,nan,1182.009181366302,1463.7564471841324,nan,1464.1024766939227,nan,nan,nan,nan
1,207,1,1,1.0,1.0,0.3776143330615014,0,4,7,5,2,1,8,nan,nan,nan,nan,nan,nan,nan,nan,nan,nan,nan,nan,0.0,nan,nan,nan,nan,nan,nan,nan,nan,nan,nan,nan,nan,nan,nan,nan,nan,nan,nan,1182.009181366302,1464.764895272674,nan,1465.1425096057355,nan,nan,nan,nan
1,208,1,1,1.0,1.0,0.2970316226128489,0,0,5,1,8,6,2,nan,nan,nan,nan,nan,nan,nan,nan,nan,nan,nan,nan,0.0,nan,nan,nan,nan,nan,nan,nan,nan,nan,nan,nan,nan,nan,nan,nan,nan,nan,nan,1182.009181366302,1465.7734571162146,nan,1466.0704887388274,nan,nan,nan,nan
1,209,1,1,1.0,1.0,0.2806366514414549,0,5,2,6,3,8,7,nan,nan,nan,nan,nan,nan,nan,nan,nan,nan,nan,nan,0.0,nan,nan,nan,nan,nan,nan,nan,nan,nan,nan,nan,nan,nan,nan,nan,nan,nan,nan,1182.009181366302,1466.7818487549666,nan,1467.062485406408,nan,nan,nan,nan
1,210,1,1,1.0,1.0,0.3521776949055493,0,4,7,3,5,0,2,nan,nan,nan,nan,nan,nan,nan,nan,nan,nan,nan,nan,0.0,nan,nan,nan,nan,nan,nan,nan,nan,nan,nan,nan,nan,nan,nan,nan,nan,nan,nan,1182.009181366302,1467.790307677351,nan,1468.1424853722565,nan,nan,nan,nan
1,211,0,0,0.0,1.0,0.5121967282611877,0,7,3,0,8,5,6,nan,nan,nan,nan,nan,nan,nan,nan,nan,nan,nan,nan,0.0,nan,nan,nan,nan,nan,nan,nan,nan,nan,nan,nan,nan,nan,nan,nan,nan,nan,nan,1182.009181366302,1468.7987882671878,nan,1469.310984995449,nan,nan,nan,nan
1,212,1,1,1.0,1.0,0.271238039014861,0,1,8,5,3,0,2,nan,nan,nan,nan,nan,nan,nan,nan,nan,nan,nan,nan,0.0,nan,nan,nan,nan,nan,nan,nan,nan,nan,nan,nan,nan,nan,nan,nan,nan,nan,nan,1182.009181366302,1469.807258593617,nan,1470.0784966326319,nan,nan,nan,nan
1,213,1,1,1.0,1.0,0.366787368664518,0,4,6,3,0,8,7,nan,nan,nan,nan,nan,nan,nan,nan,nan,nan,nan,nan,0.0,nan,nan,nan,nan,nan,nan,nan,nan,nan,nan,nan,nan,nan,nan,nan,nan,nan,nan,1182.009181366302,1470.8157366176601,nan,1471.1825239863247,nan,nan,nan,nan
1,214,1,1,1.0,1.0,0.2861827053129673,0,7,0,6,8,2,4,nan,nan,nan,nan,nan,nan,nan,nan,nan,nan,nan,nan,0.0,nan,nan,nan,nan,nan,nan,nan,nan,nan,nan,nan,nan,nan,nan,nan,nan,nan,nan,1182.009181366302,1471.8242613980547,nan,1472.1104441033676,nan,nan,nan,nan
1,215,0,0,0.0,1.0,0.5177376503124833,0,0,5,4,1,6,3,nan,nan,nan,nan,nan,nan,nan,nan,nan,nan,nan,nan,0.0,nan,nan,nan,nan,nan,nan,nan,nan,nan,nan,nan,nan,nan,nan,nan,nan,nan,nan,1182.009181366302,1472.8326903849375,nan,1473.35042803525,nan,nan,nan,nan
1,216,1,1,1.0,1.0,0.2774258533027023,0,3,0,6,7,2,8,nan,nan,nan,nan,nan,nan,nan,nan,nan,nan,nan,nan,0.0,nan,nan,nan,nan,nan,nan,nan,nan,nan,nan,nan,nan,nan,nan,nan,nan,nan,nan,1182.009181366302,1473.8411262142472,nan,1474.11855206755,nan,nan,nan,nan
1,217,1,1,1.0,1.0,0.3807960511185229,0,6,3,0,8,1,5,nan,nan,nan,nan,nan,nan,nan,nan,nan,nan,nan,nan,0.0,nan,nan,nan,nan,nan,nan,nan,nan,nan,nan,nan,nan,nan,nan,nan,nan,nan,nan,1182.009181366302,1474.84961592732,nan,1475.2304119784385,nan,nan,nan,nan
1,218,1,1,1.0,1.0,0.4763043262064457,0,5,4,8,6,2,7,nan,nan,nan,nan,nan,nan,nan,nan,nan,nan,nan,nan,0.0,nan,nan,nan,nan,nan,nan,nan,nan,nan,nan,nan,nan,nan,nan,nan,nan,nan,nan,1182.009181366302,1475.8580911003519,nan,1476.3343954265583,nan,nan,nan,nan
1,219,1,1,1.0,1.0,0.4198690305929631,0,1,3,5,2,6,0,nan,nan,nan,nan,nan,nan,nan,nan,nan,nan,nan,nan,0.0,nan,nan,nan,nan,nan,nan,nan,nan,nan,nan,nan,nan,nan,nan,nan,nan,nan,nan,1182.009181366302,1476.8665756818373,nan,1477.2864447124302,nan,nan,nan,nan
1,220,1,1,1.0,1.0,0.507311251712963,0,7,1,2,5,3,8,nan,nan,nan,nan,nan,nan,nan,nan,nan,nan,nan,nan,0.0,nan,nan,nan,nan,nan,nan,nan,nan,nan,nan,nan,nan,nan,nan,nan,nan,nan,nan,1182.009181366302,1477.8750770839397,nan,1478.3823883356526,nan,nan,nan,nan
1,221,1,1,nan,nan,nan,1,5,4,7,3,6,0,1.0,1.0,1.0,1.0,1.0,1.0,0.0,1.0,1.0,0.0,0.0,0.0,2.0,8.0,4.0,7.0,1.0,5.0,6.0,3.0,2.0,1.0,6.0,5.0,4.0,3.3043153618928045,2.070948605425656,1.0473289107903838,7.166215685661882,5.678121611708775,4.550058032153174,1182.009181366302,1478.883504930418,1479.691930724075,nan,1487.9097173260525,1488.9088973780163,1480.7003736807965,1487.9013633206487
1,222,1,1,1.0,1.0,0.4000314751174301,0,8,7,1,5,3,4,nan,nan,nan,nan,nan,nan,nan,nan,nan,nan,nan,nan,0.0,nan,nan,nan,nan,nan,nan,nan,nan,nan,nan,nan,nan,nan,nan,nan,nan,nan,nan,1182.009181366302,1489.1182378870435,nan,1489.518269362161,nan,nan,nan,nan
1,223,1,1,1.0,1.0,0.28750157868489623,0,3,8,4,1,7,6,nan,nan,nan,nan,nan,nan,nan,nan,nan,nan,nan,nan,0.0,nan,nan,nan,nan,nan,nan,nan,nan,nan,nan,nan,nan,nan,nan,nan,nan,nan,nan,1182.009181366302,1490.1267464167904,nan,1490.4142479954753,nan,nan,nan,nan
1,224,1,1,1.0,1.0,0.3110961844213307,0,7,6,1,5,0,3,nan,nan,nan,nan,nan,nan,nan,nan,nan,nan,nan,nan,0.0,nan,nan,nan,nan,nan,nan,nan,nan,nan,nan,nan,nan,nan,nan,nan,nan,nan,nan,1182.009181366302,1491.1351833865047,nan,1491.446279570926,nan,nan,nan,nan
1,225,1,1,1.0,1.0,0.32716157962568104,0,1,8,7,0,4,2,nan,nan,nan,nan,nan,nan,nan,nan,nan,nan,nan,nan,0.0,nan,nan,nan,nan,nan,nan,nan,nan,nan,nan,nan,nan,nan,nan,nan,nan,nan,nan,1182.009181366302,1492.143633185653,nan,1492.4707947652787,nan,nan,nan,nan
1,226,1,1,1.0,1.0,0.2861256853211671,0,2,7,5,3,6,8,nan,nan,nan,nan,nan,nan,nan,nan,nan,nan,nan,nan,0.0,nan,nan,nan,nan,nan,nan,nan,nan,nan,nan,nan,nan,nan,nan,nan,nan,nan,nan,1182.009181366302,1493.1521400047932,nan,1493.4382656901143,nan,nan,nan,nan
1,227,1,1,1.0,1.0,0.3661843817681074,0,7,2,1,8,0,3,nan,nan,nan,nan,nan,nan,nan,nan,nan,nan,nan,nan,0.0,nan,nan,nan,nan,nan,nan,nan,nan,nan,nan,nan,nan,nan,nan,nan,nan,nan,nan,1182.009181366302,1494.1606109011918,nan,1494.52679528296,nan,nan,nan,nan
1,228,1,1,1.0,1.0,0.3891765708103776,0,0,3,4,1,5,7,nan,nan,nan,nan,nan,nan,nan,nan,nan,nan,nan,nan,0.0,nan,nan,nan,nan,nan,nan,nan,nan,nan,nan,nan,nan,nan,nan,nan,nan,nan,nan,1182.009181366302,1495.1690792320296,nan,1495.55825580284,nan,nan,nan,nan
1,229,1,1,1.0,1.0,0.34091481240466237,0,7,4,5,0,2,6,nan,nan,nan,nan,nan,nan,nan,nan,nan,nan,nan,nan,0.0,nan,nan,nan,nan,nan,nan,nan,nan,nan,nan,nan,nan,nan,nan,nan,nan,nan,nan,1182.009181366302,1496.1775524092373,nan,1496.518467221642,nan,nan,nan,nan
1,230,1,1,1.0,1.0,0.3247134245466441,0,8,6,2,5,3,4,nan,nan,nan,nan,nan,nan,nan,nan,nan,nan,nan,nan,0.0,nan,nan,nan,nan,nan,nan,nan,nan,nan,nan,nan,nan,nan,nan,nan,nan,nan,nan,1182.009181366302,1497.1860241610557,nan,1497.5107375856023,nan,nan,nan,nan
1,231,1,1,1.0,1.0,0.4200035980902612,0,2,5,3,1,4,8,nan,nan,nan,nan,nan,nan,nan,nan,nan,nan,nan,nan,0.0,nan,nan,nan,nan,nan,nan,nan,nan,nan,nan,nan,nan,nan,nan,nan,nan,nan,nan,1182.009181366302,1498.1944631263614,nan,1498.6144667244516,nan,nan,nan,nan
1,232,0,0,0.0,1.0,0.4351914548315108,0,5,2,1,4,3,0,nan,nan,nan,nan,nan,nan,nan,nan,nan,nan,nan,nan,0.0,nan,nan,nan,nan,nan,nan,nan,nan,nan,nan,nan,nan,nan,nan,nan,nan,nan,nan,1182.009181366302,1499.2029782135505,nan,1499.638169668382,nan,nan,nan,nan
1,233,1,1,1.0,1.0,0.39469725056551397,0,7,1,8,0,5,3,nan,nan,nan,nan,nan,nan,nan,nan,nan,nan,nan,nan,0.0,nan,nan,nan,nan,nan,nan,nan,nan,nan,nan,nan,nan,nan,nan,nan,nan,nan,nan,1182.009181366302,1500.2114596588071,nan,1500.6061569093727,nan,nan,nan,nan
1,234,1,1,1.0,1.0,0.4502282084431499,0,1,4,2,8,6,0,nan,nan,nan,nan,nan,nan,nan,nan,nan,nan,nan,nan,0.0,nan,nan,nan,nan,nan,nan,nan,nan,nan,nan,nan,nan,nan,nan,nan,nan,nan,nan,1182.009181366302,1501.219913734356,nan,1501.670141942799,nan,nan,nan,nan
1,235,1,1,1.0,1.0,0.5057078481186181,0,3,1,5,7,0,6,nan,nan,nan,nan,nan,nan,nan,nan,nan,nan,nan,nan,0.0,nan,nan,nan,nan,nan,nan,nan,nan,nan,nan,nan,nan,nan,nan,nan,nan,nan,nan,1182.009181366302,1502.2284393701702,nan,1502.7341472182889,nan,nan,nan,nan
1,236,1,1,1.0,1.0,0.44129031780175865,0,6,5,4,1,7,0,nan,nan,nan,nan,nan,nan,nan,nan,nan,nan,nan,nan,0.0,nan,nan,nan,nan,nan,nan,nan,nan,nan,nan,nan,nan,nan,nan,nan,nan,nan,nan,1182.009181366302,1503.236855527619,nan,1503.6781458454207,nan,nan,nan,nan
1,237,1,1,1.0,1.0,0.4968061652034521,0,0,4,3,6,2,7,nan,nan,nan,nan,nan,nan,nan,nan,nan,nan,nan,nan,0.0,nan,nan,nan,nan,nan,nan,nan,nan,nan,nan,nan,nan,nan,nan,nan,nan,nan,nan,1182.009181366302,1504.2453341218643,nan,1504.7421402870677,nan,nan,nan,nan
1,238,1,1,1.0,1.0,0.5283054586034268,0,8,2,6,1,7,5,nan,nan,nan,nan,nan,nan,nan,nan,nan,nan,nan,nan,0.0,nan,nan,nan,nan,nan,nan,nan,nan,nan,nan,nan,nan,nan,nan,nan,nan,nan,nan,1182.009181366302,1505.2537964652292,nan,1505.7821019238327,nan,nan,nan,nan
1,239,1,1,1.0,1.0,0.6078019374981523,0,7,8,0,5,3,6,nan,nan,nan,nan,nan,nan,nan,nan,nan,nan,nan,nan,0.0,nan,nan,nan,nan,nan,nan,nan,nan,nan,nan,nan,nan,nan,nan,nan,nan,nan,nan,1182.009181366302,1506.2622873189393,nan,1506.8700892564375,nan,nan,nan,nan
1,240,1,1,1.0,1.0,0.5753167676739395,0,0,5,7,6,4,3,nan,nan,nan,nan,nan,nan,nan,nan,nan,nan,nan,nan,0.0,nan,nan,nan,nan,nan,nan,nan,nan,nan,nan,nan,nan,nan,nan,nan,nan,nan,nan,1182.009181366302,1507.2707647727802,nan,1507.8460815404542,nan,nan,nan,nan
1,241,1,1,1.0,1.0,0.5188318646978587,1,8,1,6,3,7,0,1.0,1.0,1.0,1.0,1.0,1.0,0.0,1.0,1.0,0.0,0.0,0.0,2.0,4.0,1.0,6.0,4.0,5.0,8.0,3.0,1.0,2.0,6.0,5.0,4.0,3.5481940472964197,1.2118097618222237,2.427362318849191,8.11386929708533,7.210870356764644,6.4029403522145,1182.009181366302,1508.2792576220818,1509.0876335231587,1508.7980894867796,1518.2472280422226,1519.247353486251,1510.096100143157,1518.2388788834214
1,242,1,1,1.0,1.0,0.4542646568734199,0,2,8,1,4,5,7,nan,nan,nan,nan,nan,nan,nan,nan,nan,nan,nan,nan,0.0,nan,nan,nan,nan,nan,nan,nan,nan,nan,nan,nan,nan,nan,nan,nan,nan,nan,nan,1182.009181366302,1519.4557226591278,nan,1519.9099873160012,nan,nan,nan,nan
1,243,1,1,1.0,1.0,0.2617290928028524,0,5,6,7,0,1,8,nan,nan,nan,nan,nan,nan,nan,nan,nan,nan,nan,nan,0.0,nan,nan,nan,nan,nan,nan,nan,nan,nan,nan,nan,nan,nan,nan,nan,nan,nan,nan,1182.009181366302,1520.4642346100882,nan,1520.725963702891,nan,nan,nan,nan
1,244,0,0,1.0,0.0,0.2937555362004787,0,7,4,0,6,3,5,nan,nan,nan,nan,nan,nan,nan,nan,nan,nan,nan,nan,0.0,nan,nan,nan,nan,nan,nan,nan,nan,nan,nan,nan,nan,nan,nan,nan,nan,nan,nan,1182.009181366302,1521.4726670181844,nan,1521.766422554385,nan,nan,nan,nan
1,245,1,1,1.0,1.0,0.4287858239840716,0,3,1,6,8,0,2,nan,nan,nan,nan,nan,nan,nan,nan,nan,nan,nan,nan,0.0,nan,nan,nan,nan,nan,nan,nan,nan,nan,nan,nan,nan,nan,nan,nan,nan,nan,nan,1182.009181366302,1522.481187236961,nan,1522.909973060945,nan,nan,nan,nan
1,246,1,1,1.0,1.0,0.5243157667573541,0,4,0,7,3,8,1,nan,nan,nan,nan,nan,nan,nan,nan,nan,nan,nan,nan,0.0,nan,nan,nan,nan,nan,nan,nan,nan,nan,nan,nan,nan,nan,nan,nan,nan,nan,nan,1182.009181366302,1523.4896358957049,nan,1524.0139516624622,nan,nan,nan,nan
1,247,1,1,1.0,1.0,0.4202100106049329,0,6,4,0,8,5,3,nan,nan,nan,nan,nan,nan,nan,nan,nan,nan,nan,nan,0.0,nan,nan,nan,nan,nan,nan,nan,nan,nan,nan,nan,nan,nan,nan,nan,nan,nan,nan,1182.009181366302,1524.4981432850473,nan,1524.9183532956522,nan,nan,nan,nan
1,248,1,1,1.0,1.0,0.5313660090323538,0,3,7,8,1,2,0,nan,nan,nan,nan,nan,nan,nan,nan,nan,nan,nan,nan,0.0,nan,nan,nan,nan,nan,nan,nan,nan,nan,nan,nan,nan,nan,nan,nan,nan,nan,nan,1182.009181366302,1525.5065651445184,nan,1526.0379311535507,nan,nan,nan,nan
1,249,1,1,1.0,1.0,0.3709139085840434,0,8,0,6,2,3,5,nan,nan,nan,nan,nan,nan,nan,nan,nan,nan,nan,nan,0.0,nan,nan,nan,nan,nan,nan,nan,nan,nan,nan,nan,nan,nan,nan,nan,nan,nan,nan,1182.009181366302,1526.5150557127781,nan,1526.8859696213622,nan,nan,nan,nan
1,250,1,1,1.0,1.0,0.3786016348749399,0,1,8,7,0,2,3,nan,nan,nan,nan,nan,nan,nan,nan,nan,nan,nan,nan,0.0,nan,nan,nan,nan,nan,nan,nan,nan,nan,nan,nan,nan,nan,nan,nan,nan,nan,nan,1182.009181366302,1527.5235251840204,nan,1527.9021268188953,nan,nan,nan,nan
1,251,1,1,1.0,1.0,0.4018923237454146,0,0,1,4,6,3,8,nan,nan,nan,nan,nan,nan,nan,nan,nan,nan,nan,nan,0.0,nan,nan,nan,nan,nan,nan,nan,nan,nan,nan,nan,nan,nan,nan,nan,nan,nan,nan,1182.009181366302,1528.5320405561943,nan,1528.9339328799397,nan,nan,nan,nan
1,252,1,1,1.0,1.0,0.37742360099218786,0,7,2,3,5,4,1,nan,nan,nan,nan,nan,nan,nan,nan,nan,nan,nan,nan,0.0,nan,nan,nan,nan,nan,nan,nan,nan,nan,nan,nan,nan,nan,nan,nan,nan,nan,nan,1182.009181366302,1529.5404618452303,nan,1529.9178854462225,nan,nan,nan,nan
1,253,1,1,1.0,1.0,0.4409687246661633,0,0,1,2,8,3,7,nan,nan,nan,nan,nan,nan,nan,nan,nan,nan,nan,nan,0.0,nan,nan,nan,nan,nan,nan,nan,nan,nan,nan,nan,nan,nan,nan,nan,nan,nan,nan,1182.009181366302,1530.5489373034798,nan,1530.989906028146,nan,nan,nan,nan
1,254,1,1,1.0,1.0,0.4724529078230262,0,3,0,4,7,6,5,nan,nan,nan,nan,nan,nan,nan,nan,nan,nan,nan,nan,0.0,nan,nan,nan,nan,nan,nan,nan,nan,nan,nan,nan,nan,nan,nan,nan,nan,nan,nan,1182.009181366302,1531.5574378503952,nan,1532.0298907582182,nan,nan,nan,nan
1,255,1,1,1.0,1.0,0.4639332592487335,0,2,5,3,4,1,0,nan,nan,nan,nan,nan,nan,nan,nan,nan,nan,nan,nan,0.0,nan,nan,nan,nan,nan,nan,nan,nan,nan,nan,nan,nan,nan,nan,nan,nan,nan,nan,1182.009181366302,1532.5659164446406,nan,1533.0298497038893,nan,nan,nan,nan
1,256,1,1,1.0,1.0,0.4316453787032515,0,6,1,8,3,4,7,nan,nan,nan,nan,nan,nan,nan,nan,nan,nan,nan,nan,0.0,nan,nan,nan,nan,nan,nan,nan,nan,nan,nan,nan,nan,nan,nan,nan,nan,nan,nan,1182.009181366302,1533.5743536993396,nan,1534.0059990780428,nan,nan,nan,nan
1,257,1,1,1.0,1.0,0.49497012002393603,1,5,7,4,6,1,3,1.0,1.0,1.0,1.0,1.0,1.0,1.0,1.0,1.0,0.0,0.0,0.0,3.0,5.0,7.0,4.0,2.0,3.0,6.0,1.0,2.0,3.0,4.0,5.0,6.0,1.0833439058624208,2.058067209087312,2.963262561010197,4.601865581702441,5.465779282851145,6.241966518573463,1182.009181366302,1534.5828562420793,1535.3912412663922,1535.0778263621032,1542.692205845844,1543.6914682916831,1536.4080584705807,1542.6839370853268
1,258,1,1,1.0,1.0,0.4489891629200429,0,1,2,8,7,6,4,nan,nan,nan,nan,nan,nan,nan,nan,nan,nan,nan,nan,0.0,nan,nan,nan,nan,nan,nan,nan,nan,nan,nan,nan,nan,nan,nan,nan,nan,nan,nan,1182.009181366302,1543.9007654655725,nan,1544.3497546284925,nan,nan,nan,nan
1,259,1,1,1.0,1.0,0.2806249624118209,0,8,7,6,3,4,0,nan,nan,nan,nan,nan,nan,nan,nan,nan,nan,nan,nan,0.0,nan,nan,nan,nan,nan,nan,nan,nan,nan,nan,nan,nan,nan,nan,nan,nan,nan,nan,1182.009181366302,1544.9092149795033,nan,1545.1898399419151,nan,nan,nan,nan
1,260,1,1,1.0,1.0,0.26423113187775016,0,5,6,0,1,7,8,nan,nan,nan,nan,nan,nan,nan,nan,nan,nan,nan,nan,0.0,nan,nan,nan,nan,nan,nan,nan,nan,nan,nan,nan,nan,nan,nan,nan,nan,nan,nan,1182.009181366302,1545.9177246496547,nan,1546.1819557815325,nan,nan,nan,nan
1,261,1,1,1.0,1.0,0.27158700162544847,0,8,0,1,4,3,5,nan,nan,nan,nan,nan,nan,nan,nan,nan,nan,nan,nan,0.0,nan,nan,nan,nan,nan,nan,nan,nan,nan,nan,nan,nan,nan,nan,nan,nan,nan,nan,1182.009181366302,1546.9261983972974,nan,1547.1977853989229,nan,nan,nan,nan
1,262,0,0,1.0,0.0,0.26306820823810995,0,5,7,4,6,0,3,nan,nan,nan,nan,nan,nan,nan,nan,nan,nan,nan,nan,0.0,nan,nan,nan,nan,nan,nan,nan,nan,nan,nan,nan,nan,nan,nan,nan,nan,nan,nan,1182.009181366302,1547.9346484814305,nan,1548.1977166896686,nan,nan,nan,nan
1,263,1,1,1.0,1.0,0.4226022860966623,0,0,2,6,8,4,5,nan,nan,nan,nan,nan,nan,nan,nan,nan,nan,nan,nan,0.0,nan,nan,nan,nan,nan,nan,nan,nan,nan,nan,nan,nan,nan,nan,nan,nan,nan,nan,1182.009181366302,1548.943126220489,nan,1549.3657285065856,nan,nan,nan,nan
1,264,1,1,1.0,1.0,0.382186769740656,0,4,5,7,0,8,6,nan,nan,nan,nan,nan,nan,nan,nan,nan,nan,nan,nan,0.0,nan,nan,nan,nan,nan,nan,nan,nan,nan,nan,nan,nan,nan,nan,nan,nan,nan,nan,1182.009181366302,1549.9516193547752,nan,1550.3338061245158,nan,nan,nan,nan
1,265,1,1,1.0,1.0,0.4616153948009014,0,6,1,8,4,5,7,nan,nan,nan,nan,nan,nan,nan,nan,nan,nan,nan,nan,0.0,nan,nan,nan,nan,nan,nan,nan,nan,nan,nan,nan,nan,nan,nan,nan,nan,nan,nan,1182.009181366302,1550.9600762813352,nan,1551.421691676136,nan,nan,nan,nan
1,266,1,1,1.0,1.0,0.3971539589110762,0,7,2,0,6,3,5,nan,nan,nan,nan,nan,nan,nan,nan,nan,nan,nan,nan,0.0,nan,nan,nan,nan,nan,nan,nan,nan,nan,nan,nan,nan,nan,nan,nan,nan,nan,nan,1182.009181366302,1551.968553735409,nan,1552.36570769432,nan,nan,nan,nan
1,267,1,1,1.0,1.0,0.3806324035394937,0,2,1,6,3,0,8,nan,nan,nan,nan,nan,nan,nan,nan,nan,nan,nan,nan,0.0,nan,nan,nan,nan,nan,nan,nan,nan,nan,nan,nan,nan,nan,nan,nan,nan,nan,nan,1182.009181366302,1552.9770243468229,nan,1553.3576567503624,nan,nan,nan,nan
1,268,0,0,0.0,1.0,0.5644550209399313,0,7,6,5,1,2,0,nan,nan,nan,nan,nan,nan,nan,nan,nan,nan,nan,nan,0.0,nan,nan,nan,nan,nan,nan,nan,nan,nan,nan,nan,nan,nan,nan,nan,nan,nan,nan,1182.009181366302,1553.9855231831316,nan,1554.5499782040715,nan,nan,nan,nan
1,269,1,1,1.0,1.0,0.37167940265499055,0,1,3,4,8,0,5,nan,nan,nan,nan,nan,nan,nan,nan,nan,nan,nan,nan,0.0,nan,nan,nan,nan,nan,nan,nan,nan,nan,nan,nan,nan,nan,nan,nan,nan,nan,nan,1182.009181366302,1554.993971556658,nan,1555.365650959313,nan,nan,nan,nan
1,270,1,1,1.0,1.0,0.4272206239402294,0,4,5,7,2,1,6,nan,nan,nan,nan,nan,nan,nan,nan,nan,nan,nan,nan,0.0,nan,nan,nan,nan,nan,nan,nan,nan,nan,nan,nan,nan,nan,nan,nan,nan,nan,nan,1182.009181366302,1556.002411662368,nan,1556.4296322863083,nan,nan,nan,nan
1,271,0,0,0.0,1.0,0.48291123774833977,0,7,4,6,3,8,2,nan,nan,nan,nan,nan,nan,nan,nan,nan,nan,nan,nan,0.0,nan,nan,nan,nan,nan,nan,nan,nan,nan,nan,nan,nan,nan,nan,nan,nan,nan,nan,1182.009181366302,1557.0109395789914,nan,1557.4938508167397,nan,nan,nan,nan
1,272,1,1,1.0,1.0,0.34619828895665705,0,0,3,8,5,4,7,nan,nan,nan,nan,nan,nan,nan,nan,nan,nan,nan,nan,0.0,nan,nan,nan,nan,nan,nan,nan,nan,nan,nan,nan,nan,nan,nan,nan,nan,nan,nan,1182.009181366302,1558.0194193136413,nan,1558.365617602598,nan,nan,nan,nan
1,273,1,1,1.0,1.0,0.40992131526581943,0,3,8,7,1,2,6,nan,nan,nan,nan,nan,nan,nan,nan,nan,nan,nan,nan,0.0,nan,nan,nan,nan,nan,nan,nan,nan,nan,nan,nan,nan,nan,nan,nan,nan,nan,nan,1182.009181366302,1559.027855998138,nan,1559.4377773134038,nan,nan,nan,nan
1,274,1,1,1.0,1.0,0.5296631057281047,0,4,3,1,6,0,2,nan,nan,nan,nan,nan,nan,nan,nan,nan,nan,nan,nan,0.0,nan,nan,nan,nan,nan,nan,nan,nan,nan,nan,nan,nan,nan,nan,nan,nan,nan,nan,1182.009181366302,1560.0363382988144,nan,1560.5660014045425,nan,nan,nan,nan
1,275,1,1,1.0,1.0,0.4967702424619347,0,6,2,5,0,7,1,nan,nan,nan,nan,nan,nan,nan,nan,nan,nan,nan,nan,0.0,nan,nan,nan,nan,nan,nan,nan,nan,nan,nan,nan,nan,nan,nan,nan,nan,nan,nan,1182.009181366302,1561.0448225950822,nan,1561.5415928375442,nan,nan,nan,nan
1,276,1,1,1.0,1.0,0.6808876537252218,0,4,5,2,7,6,0,nan,nan,nan,nan,nan,nan,nan,nan,nan,nan,nan,nan,0.0,nan,nan,nan,nan,nan,nan,nan,nan,nan,nan,nan,nan,nan,nan,nan,nan,nan,nan,1182.009181366302,1562.053292636294,nan,1562.7341802900191,nan,nan,nan,nan
1,277,1,1,1.0,1.0,0.6158848127815872,0,6,1,7,4,0,3,nan,nan,nan,nan,nan,nan,nan,nan,nan,nan,nan,nan,0.0,nan,nan,nan,nan,nan,nan,nan,nan,nan,nan,nan,nan,nan,nan,nan,nan,nan,nan,1182.009181366302,1563.0617438608315,nan,1563.677628673613,nan,nan,nan,nan
1,278,1,1,1.0,1.0,0.6713179810903966,0,5,2,8,3,7,1,nan,nan,nan,nan,nan,nan,nan,nan,nan,nan,nan,nan,0.0,nan,nan,nan,nan,nan,nan,nan,nan,nan,nan,nan,nan,nan,nan,nan,nan,nan,nan,1182.009181366302,1564.0702241656836,nan,1564.741542146774,nan,nan,nan,nan
1,279,1,1,1.0,1.0,0.566830190597102,0,7,0,3,4,6,5,nan,nan,nan,nan,nan,nan,nan,nan,nan,nan,nan,nan,0.0,nan,nan,nan,nan,nan,nan,nan,nan,nan,nan,nan,nan,nan,nan,nan,nan,nan,nan,1182.009181366302,1565.078715589596,nan,1565.645545780193,nan,nan,nan,nan
1,280,1,1,1.0,1.0,0.48644191841594875,0,4,8,1,6,0,3,nan,nan,nan,nan,nan,nan,nan,nan,nan,nan,nan,nan,0.0,nan,nan,nan,nan,nan,nan,nan,nan,nan,nan,nan,nan,nan,nan,nan,nan,nan,nan,1182.009181366302,1566.0871599717066,nan,1566.5736018901225,nan,nan,nan,nan
1,281,1,1,1.0,1.0,0.46193983871489763,0,7,5,4,1,6,2,nan,nan,nan,nan,nan,nan,nan,nan,nan,nan,nan,nan,0.0,nan,nan,nan,nan,nan,nan,nan,nan,nan,nan,nan,nan,nan,nan,nan,nan,nan,nan,1182.009181366302,1567.095633149147,nan,1567.557572987862,nan,nan,nan,nan
1,282,1,1,1.0,1.0,0.3813933359924704,0,4,8,0,6,1,5,nan,nan,nan,nan,nan,nan,nan,nan,nan,nan,nan,nan,0.0,nan,nan,nan,nan,nan,nan,nan,nan,nan,nan,nan,nan,nan,nan,nan,nan,nan,nan,1182.009181366302,1568.1041148793884,nan,1568.4855082153808,nan,nan,nan,nan
1,283,1,1,1.0,1.0,0.47695520985871553,0,6,5,8,2,0,7,nan,nan,nan,nan,nan,nan,nan,nan,nan,nan,nan,nan,0.0,nan,nan,nan,nan,nan,nan,nan,nan,nan,nan,nan,nan,nan,nan,nan,nan,nan,nan,1182.009181366302,1569.1125427258667,nan,1569.5894979357254,nan,nan,nan,nan
1,284,1,1,1.0,1.0,0.3884678117465228,0,3,4,1,5,2,0,nan,nan,nan,nan,nan,nan,nan,nan,nan,nan,nan,nan,0.0,nan,nan,nan,nan,nan,nan,nan,nan,nan,nan,nan,nan,nan,nan,nan,nan,nan,nan,1182.009181366302,1570.1210495450068,nan,1570.5095173567533,nan,nan,nan,nan
1,285,1,1,1.0,1.0,0.3239351010415703,0,4,2,7,0,6,5,nan,nan,nan,nan,nan,nan,nan,nan,nan,nan,nan,nan,0.0,nan,nan,nan,nan,nan,nan,nan,nan,nan,nan,nan,nan,nan,nan,nan,nan,nan,nan,1182.009181366302,1571.1295603555627,nan,1571.4534954566043,nan,nan,nan,nan
1,286,1,1,1.0,1.0,0.29945297841914,0,3,7,8,6,0,2,nan,nan,nan,nan,nan,nan,nan,nan,nan,nan,nan,nan,0.0,nan,nan,nan,nan,nan,nan,nan,nan,nan,nan,nan,nan,nan,nan,nan,nan,nan,nan,1182.009181366302,1572.1379839254078,nan,1572.437436903827,nan,nan,nan,nan
1,287,1,1,1.0,1.0,0.2829987066797912,0,7,2,0,4,3,8,nan,nan,nan,nan,nan,nan,nan,nan,nan,nan,nan,nan,0.0,nan,nan,nan,nan,nan,nan,nan,nan,nan,nan,nan,nan,nan,nan,nan,nan,nan,nan,1182.009181366302,1573.1464682216756,nan,1573.4294669283554,nan,nan,nan,nan
1,288,0,0,1.0,0.0,0.2905572825111449,0,0,7,8,1,5,3,nan,nan,nan,nan,nan,nan,nan,nan,nan,nan,nan,nan,0.0,nan,nan,nan,nan,nan,nan,nan,nan,nan,nan,nan,nan,nan,nan,nan,nan,nan,nan,1182.009181366302,1574.1549334162846,nan,1574.4454906987958,nan,nan,nan,nan
1,289,1,1,1.0,1.0,0.30607585539110005,0,6,5,1,4,3,7,nan,nan,nan,nan,nan,nan,nan,nan,nan,nan,nan,nan,0.0,nan,nan,nan,nan,nan,nan,nan,nan,nan,nan,nan,nan,nan,nan,nan,nan,nan,nan,1182.009181366302,1575.1633766582236,nan,1575.4694525136147,nan,nan,nan,nan
1,290,1,1,1.0,1.0,0.3135645817965269,0,0,8,2,1,6,3,nan,nan,nan,nan,nan,nan,nan,nan,nan,nan,nan,nan,0.0,nan,nan,nan,nan,nan,nan,nan,nan,nan,nan,nan,nan,nan,nan,nan,nan,nan,nan,1182.009181366302,1576.1718829071615,nan,1576.485447488958,nan,nan,nan,nan
1,291,1,1,1.0,1.0,0.40106097189709544,0,7,3,0,8,2,4,nan,nan,nan,nan,nan,nan,nan,nan,nan,nan,nan,nan,0.0,nan,nan,nan,nan,nan,nan,nan,nan,nan,nan,nan,nan,nan,nan,nan,nan,nan,nan,1182.009181366302,1577.1803754712455,nan,1577.5814364431426,nan,nan,nan,nan
1,292,1,1,1.0,1.0,0.3925800968427211,0,1,8,3,6,0,7,nan,nan,nan,nan,nan,nan,nan,nan,nan,nan,nan,nan,0.0,nan,nan,nan,nan,nan,nan,nan,nan,nan,nan,nan,nan,nan,nan,nan,nan,nan,nan,1182.009181366302,1578.1888392402325,nan,1578.5814193370752,nan,nan,nan,nan
1,293,1,1,1.0,1.0,0.2801374411210418,0,4,2,7,3,1,0,nan,nan,nan,nan,nan,nan,nan,nan,nan,nan,nan,nan,0.0,nan,nan,nan,nan,nan,nan,nan,nan,nan,nan,nan,nan,nan,nan,nan,nan,nan,nan,1182.009181366302,1579.1972967372276,nan,1579.4774341783486,nan,nan,nan,nan
1,294,0,0,0.0,1.0,0.4716366659849882,0,5,4,0,7,6,8,nan,nan,nan,nan,nan,nan,nan,nan,nan,nan,nan,nan,0.0,nan,nan,nan,nan,nan,nan,nan,nan,nan,nan,nan,nan,nan,nan,nan,nan,nan,nan,1182.009181366302,1580.205766208237,nan,1580.677402874222,nan,nan,nan,nan
1,295,1,1,1.0,1.0,0.3431537039577961,0,2,1,4,5,8,3,nan,nan,nan,nan,nan,nan,nan,nan,nan,nan,nan,nan,0.0,nan,nan,nan,nan,nan,nan,nan,nan,nan,nan,nan,nan,nan,nan,nan,nan,nan,nan,1182.009181366302,1581.2142470832914,nan,1581.5574007872492,nan,nan,nan,nan
1,296,1,1,1.0,1.0,0.6071442111860961,0,3,2,7,0,6,1,nan,nan,nan,nan,nan,nan,nan,nan,nan,nan,nan,nan,0.0,nan,nan,nan,nan,nan,nan,nan,nan,nan,nan,nan,nan,nan,nan,nan,nan,nan,nan,1182.009181366302,1582.2227145587094,nan,1582.8298587698955,nan,nan,nan,nan
1,297,1,1,1.0,1.0,0.6301919950637966,0,6,1,8,7,0,4,nan,nan,nan,nan,nan,nan,nan,nan,nan,nan,nan,nan,0.0,nan,nan,nan,nan,nan,nan,nan,nan,nan,nan,nan,nan,nan,nan,nan,nan,nan,nan,1182.009181366302,1583.2312025611755,nan,1583.8613945562392,nan,nan,nan,nan
1,298,1,1,1.0,1.0,0.5817343727685511,0,0,8,7,3,4,1,nan,nan,nan,nan,nan,nan,nan,nan,nan,nan,nan,nan,0.0,nan,nan,nan,nan,nan,nan,nan,nan,nan,nan,nan,nan,nan,nan,nan,nan,nan,nan,1182.009181366302,1584.2396680407692,nan,1584.8214024135377,nan,nan,nan,nan
1,299,1,1,1.0,1.0,0.4931965118739754,0,8,3,2,1,0,5,nan,nan,nan,nan,nan,nan,nan,nan,nan,nan,nan,nan,0.0,nan,nan,nan,nan,nan,nan,nan,nan,nan,nan,nan,nan,nan,nan,nan,nan,nan,nan,1182.009181366302,1585.2481252525467,nan,1585.7413217644207,nan,nan,nan,nan
1,300,1,1,1.0,1.0,0.5167358082253486,0,3,2,1,4,8,6,nan,nan,nan,nan,nan,nan,nan,nan,nan,nan,nan,nan,0.0,nan,nan,nan,nan,nan,nan,nan,nan,nan,nan,nan,nan,nan,nan,nan,nan,nan,nan,1182.009181366302,1586.2566158210393,nan,1586.7733516292647,nan,nan,nan,nan
1,301,1,1,1.0,1.0,0.5162605461664498,0,1,4,2,7,5,3,nan,nan,nan,nan,nan,nan,nan,nan,nan,nan,nan,nan,0.0,nan,nan,nan,nan,nan,nan,nan,nan,nan,nan,nan,nan,nan,nan,nan,nan,nan,nan,1182.009181366302,1587.2650644797832,nan,1587.7813250259496,nan,nan,nan,nan
1,302,1,1,1.0,1.0,0.48369497805833817,0,8,2,3,6,7,0,nan,nan,nan,nan,nan,nan,nan,nan,nan,nan,nan,nan,0.0,nan,nan,nan,nan,nan,nan,nan,nan,nan,nan,nan,nan,nan,nan,nan,nan,nan,nan,1182.009181366302,1588.273586694384,nan,1588.7572816724423,nan,nan,nan,nan
1,303,1,1,1.0,1.0,0.587289264658466,0,3,0,8,7,1,2,nan,nan,nan,nan,nan,nan,nan,nan,nan,nan,nan,nan,0.0,nan,nan,nan,nan,nan,nan,nan,nan,nan,nan,nan,nan,nan,nan,nan,nan,nan,nan,1182.009181366302,1589.2820333573036,nan,1589.869322621962,nan,nan,nan,nan
1,304,1,1,1.0,1.0,0.6588411419652402,0,1,6,7,4,2,8,nan,nan,nan,nan,nan,nan,nan,nan,nan,nan,nan,nan,0.0,nan,nan,nan,nan,nan,nan,nan,nan,nan,nan,nan,nan,nan,nan,nan,nan,nan,nan,1182.009181366302,1590.2904637695756,nan,1590.9493049115408,nan,nan,nan,nan
1,305,0,0,0.0,1.0,0.5703754113055766,0,4,1,8,2,6,5,nan,nan,nan,nan,nan,nan,nan,nan,nan,nan,nan,nan,0.0,nan,nan,nan,nan,nan,nan,nan,nan,nan,nan,nan,nan,nan,nan,nan,nan,nan,nan,1182.009181366302,1591.2989312449936,nan,1591.8693066562992,nan,nan,nan,nan
1,306,1,1,1.0,1.0,0.2819854605477303,0,3,4,5,1,8,7,nan,nan,nan,nan,nan,nan,nan,nan,nan,nan,nan,nan,0.0,nan,nan,nan,nan,nan,nan,nan,nan,nan,nan,nan,nan,nan,nan,nan,nan,nan,nan,1182.009181366302,1592.3074266600888,nan,1592.5894121206366,nan,nan,nan,nan
1,307,1,1,1.0,1.0,0.3294013268314302,0,1,5,4,6,7,2,nan,nan,nan,nan,nan,nan,nan,nan,nan,nan,nan,nan,0.0,nan,nan,nan,nan,nan,nan,nan,nan,nan,nan,nan,nan,nan,nan,nan,nan,nan,nan,1182.009181366302,1593.3158961310983,nan,1593.6452974579297,nan,nan,nan,nan
1,308,1,1,1.0,1.0,0.3452195399440825,0,2,7,0,5,6,1,nan,nan,nan,nan,nan,nan,nan,nan,nan,nan,nan,nan,0.0,nan,nan,nan,nan,nan,nan,nan,nan,nan,nan,nan,nan,nan,nan,nan,nan,nan,nan,1182.009181366302,1594.3244112182874,nan,1594.6696307582315,nan,nan,nan,nan
1,309,1,1,1.0,1.0,0.40838833153247833,0,1,3,6,4,8,0,nan,nan,nan,nan,nan,nan,nan,nan,nan,nan,nan,nan,0.0,nan,nan,nan,nan,nan,nan,nan,nan,nan,nan,nan,nan,nan,nan,nan,nan,nan,nan,1182.009181366302,1595.33287384687,nan,1595.7412621784024,nan,nan,nan,nan
1,310,1,1,1.0,1.0,0.36793147563003004,0,5,8,3,6,7,1,nan,nan,nan,nan,nan,nan,nan,nan,nan,nan,nan,nan,0.0,nan,nan,nan,nan,nan,nan,nan,nan,nan,nan,nan,nan,nan,nan,nan,nan,nan,nan,1182.009181366302,1596.3413168035913,nan,1596.7092482792214,nan,nan,nan,nan
1,311,1,1,1.0,1.0,0.39145936793647707,0,2,1,5,0,4,8,nan,nan,nan,nan,nan,nan,nan,nan,nan,nan,nan,nan,0.0,nan,nan,nan,nan,nan,nan,nan,nan,nan,nan,nan,nan,nan,nan,nan,nan,nan,nan,1182.009181366302,1597.3497865598183,nan,1597.7412459277548,nan,nan,nan,nan
1,312,1,1,1.0,1.0,0.4310600678436458,0,5,0,8,2,7,6,nan,nan,nan,nan,nan,nan,nan,nan,nan,nan,nan,nan,0.0,nan,nan,nan,nan,nan,nan,nan,nan,nan,nan,nan,nan,nan,nan,nan,nan,nan,nan,1182.009181366302,1598.3582546054386,nan,1598.7893146732822,nan,nan,nan,nan
1,313,1,1,1.0,1.0,0.49452336807735264,0,1,5,7,8,4,0,nan,nan,nan,nan,nan,nan,nan,nan,nan,nan,nan,nan,0.0,nan,nan,nan,nan,nan,nan,nan,nan,nan,nan,nan,nan,nan,nan,nan,nan,nan,nan,1182.009181366302,1599.3667289230507,nan,1599.861252291128,nan,nan,nan,nan
1,314,1,1,1.0,1.0,0.4860094212926924,0,5,4,3,1,6,7,nan,nan,nan,nan,nan,nan,nan,nan,nan,nan,nan,nan,0.0,nan,nan,nan,nan,nan,nan,nan,nan,nan,nan,nan,nan,nan,nan,nan,nan,nan,nan,1182.009181366302,1600.3752083727159,nan,1600.8612177940086,nan,nan,nan,nan
1,315,1,1,1.0,1.0,0.6054983278736472,0,6,3,2,7,0,8,nan,nan,nan,nan,nan,nan,nan,nan,nan,nan,nan,nan,0.0,nan,nan,nan,nan,nan,nan,nan,nan,nan,nan,nan,nan,nan,nan,nan,nan,nan,nan,1182.009181366302,1601.3837214640807,nan,1601.9892197919544,nan,nan,nan,nan
1,316,1,1,1.0,1.0,0.6450499908532947,0,3,8,1,0,5,2,nan,nan,nan,nan,nan,nan,nan,nan,nan,nan,nan,nan,0.0,nan,nan,nan,nan,nan,nan,nan,nan,nan,nan,nan,nan,nan,nan,nan,nan,nan,nan,1182.009181366302,1602.3921541571617,nan,1603.037204148015,nan,nan,nan,nan
1,317,0,0,0.0,1.0,0.5006005635950714,0,8,2,7,6,0,4,nan,nan,nan,nan,nan,nan,nan,nan,nan,nan,nan,nan,0.0,nan,nan,nan,nan,nan,nan,nan,nan,nan,nan,nan,nan,nan,nan,nan,nan,nan,nan,1182.009181366302,1603.4006273343693,nan,1603.9012278979644,nan,nan,nan,nan
1,318,1,1,1.0,1.0,0.45209618494845927,0,5,4,2,0,7,1,nan,nan,nan,nan,nan,nan,nan,nan,nan,nan,nan,nan,0.0,nan,nan,nan,nan,nan,nan,nan,nan,nan,nan,nan,nan,nan,nan,nan,nan,nan,nan,1182.009181366302,1604.4090930991806,nan,1604.861189284129,nan,nan,nan,nan
1,319,1,1,1.0,1.0,0.47560811159200966,0,6,2,8,1,5,0,nan,nan,nan,nan,nan,nan,nan,nan,nan,nan,nan,nan,0.0,nan,nan,nan,nan,nan,nan,nan,nan,nan,nan,nan,nan,nan,nan,nan,nan,nan,nan,1182.009181366302,1605.417564850999,nan,1605.893172962591,nan,nan,nan,nan
1,320,0,0,0.0,1.0,0.5471237811725587,0,7,8,3,2,4,1,nan,nan,nan,nan,nan,nan,nan,nan,nan,nan,nan,nan,0.0,nan,nan,nan,nan,nan,nan,nan,nan,nan,nan,nan,nan,nan,nan,nan,nan,nan,nan,1182.009181366302,1606.4260374582373,nan,1606.9731612394098,nan,nan,nan,nan
1,321,1,1,1.0,1.0,0.4906172105111182,0,1,7,2,4,6,3,nan,nan,nan,nan,nan,nan,nan,nan,nan,nan,nan,nan,0.0,nan,nan,nan,nan,nan,nan,nan,nan,nan,nan,nan,nan,nan,nan,nan,nan,nan,nan,1182.009181366302,1607.4345274565276,nan,1607.9251446670387,nan,nan,nan,nan
1,322,1,1,1.0,1.0,0.5221775153186172,0,0,3,4,8,2,5,nan,nan,nan,nan,nan,nan,nan,nan,nan,nan,nan,nan,0.0,nan,nan,nan,nan,nan,nan,nan,nan,nan,nan,nan,nan,nan,nan,nan,nan,nan,nan,1182.009181366302,1608.442964426009,nan,1608.9651419413276,nan,nan,nan,nan
1,323,1,1,1.0,1.0,0.5456786083523184,0,8,5,1,6,3,0,nan,nan,nan,nan,nan,nan,nan,nan,nan,nan,nan,nan,0.0,nan,nan,nan,nan,nan,nan,nan,nan,nan,nan,nan,nan,nan,nan,nan,nan,nan,nan,1182.009181366302,1609.451458415715,nan,1609.9971370240673,nan,nan,nan,nan
1,324,1,1,1.0,1.0,0.5932213440537453,0,4,2,5,3,0,8,nan,nan,nan,nan,nan,nan,nan,nan,nan,nan,nan,nan,0.0,nan,nan,nan,nan,nan,nan,nan,nan,nan,nan,nan,nan,nan,nan,nan,nan,nan,nan,1182.009181366302,1610.4598999470472,nan,1611.053121291101,nan,nan,nan,nan
1,325,1,1,1.0,1.0,0.6567148647736758,1,1,4,0,8,6,7,1.0,1.0,1.0,1.0,1.0,1.0,1.0,1.0,0.0,0.0,0.0,0.0,2.0,1.0,4.0,7.0,3.0,0.0,5.0,1.0,4.0,3.0,2.0,6.0,5.0,0.701354140182957,3.6759400251321495,2.4356279431376606,1.523817696608603,6.731484952848405,5.324475080706179,1182.009181366302,1611.4684016343672,1612.2768114623614,1612.1251164991409,1620.0612161403988,1621.0611140746623,1613.293591318652,1620.052883232478
1,326,1,1,1.0,1.0,0.5672886315733194,0,6,0,2,7,8,5,nan,nan,nan,nan,nan,nan,nan,nan,nan,nan,nan,nan,0.0,nan,nan,nan,nan,nan,nan,nan,nan,nan,nan,nan,nan,nan,nan,nan,nan,nan,nan,1182.009181366302,1621.2697421184275,nan,1621.8370307500008,nan,nan,nan,nan
1,327,1,1,1.0,1.0,0.31880187219940126,0,0,1,7,2,4,3,nan,nan,nan,nan,nan,nan,nan,nan,nan,nan,nan,nan,0.0,nan,nan,nan,nan,nan,nan,nan,nan,nan,nan,nan,nan,nan,nan,nan,nan,nan,nan,1182.009181366302,1622.2782133000437,nan,1622.5970151722431,nan,nan,nan,nan
1,328,1,1,1.0,1.0,0.30228601885028183,0,4,8,5,3,6,2,nan,nan,nan,nan,nan,nan,nan,nan,nan,nan,nan,nan,0.0,nan,nan,nan,nan,nan,nan,nan,nan,nan,nan,nan,nan,nan,nan,nan,nan,nan,nan,1182.009181366302,1623.2867138469592,nan,1623.5889998658095,nan,nan,nan,nan
1,329,1,1,1.0,1.0,0.2938253858592361,0,6,1,8,5,7,0,nan,nan,nan,nan,nan,nan,nan,nan,nan,nan,nan,nan,0.0,nan,nan,nan,nan,nan,nan,nan,nan,nan,nan,nan,nan,nan,nan,nan,nan,nan,nan,1182.009181366302,1624.2952015644405,nan,1624.5890269502997,nan,nan,nan,nan
1,330,1,1,1.0,1.0,0.2372999987564981,0,8,5,7,6,4,2,nan,nan,nan,nan,nan,nan,nan,nan,nan,nan,nan,nan,0.0,nan,nan,nan,nan,nan,nan,nan,nan,nan,nan,nan,nan,nan,nan,nan,nan,nan,nan,1182.009181366302,1625.303633117117,nan,1625.5409331158735,nan,nan,nan,nan
1,331,0,0,1.0,0.0,0.1969013032503426,0,1,3,6,0,5,7,nan,nan,nan,nan,nan,nan,nan,nan,nan,nan,nan,nan,0.0,nan,nan,nan,nan,nan,nan,nan,nan,nan,nan,nan,nan,nan,nan,nan,nan,nan,nan,1182.009181366302,1626.3120812056586,nan,1626.508982508909,nan,nan,nan,nan
1,332,1,1,1.0,1.0,0.29239446809515357,0,4,5,8,1,7,6,nan,nan,nan,nan,nan,nan,nan,nan,nan,nan,nan,nan,0.0,nan,nan,nan,nan,nan,nan,nan,nan,nan,nan,nan,nan,nan,nan,nan,nan,nan,nan,1182.009181366302,1627.3205737697426,nan,1627.6129682378378,nan,nan,nan,nan
1,333,1,1,1.0,1.0,0.5558726503513753,0,1,6,2,4,3,7,nan,nan,nan,nan,nan,nan,nan,nan,nan,nan,nan,nan,0.0,nan,nan,nan,nan,nan,nan,nan,nan,nan,nan,nan,nan,nan,nan,nan,nan,nan,nan,1182.009181366302,1628.329054644797,nan,1628.8849272951484,nan,nan,nan,nan
1,334,0,0,0.0,1.0,0.41142664407379925,0,4,0,3,8,6,5,nan,nan,nan,nan,nan,nan,nan,nan,nan,nan,nan,nan,0.0,nan,nan,nan,nan,nan,nan,nan,nan,nan,nan,nan,nan,nan,nan,nan,nan,nan,nan,1182.009181366302,1629.3375246862415,nan,1629.7489513303153,nan,nan,nan,nan
1,335,1,1,nan,nan,nan,0,2,6,8,5,1,3,nan,nan,nan,nan,nan,nan,nan,nan,nan,nan,nan,nan,0.0,nan,nan,nan,nan,nan,nan,nan,nan,nan,nan,nan,nan,nan,nan,nan,nan,nan,nan,1182.009181366302,1630.3459667875431,nan,nan,nan,nan,nan,nan
1,336,1,1,1.0,1.0,0.7144479362759739,0,3,7,1,4,0,6,nan,nan,nan,nan,nan,nan,nan,nan,nan,nan,nan,nan,0.0,nan,nan,nan,nan,nan,nan,nan,nan,nan,nan,nan,nan,nan,nan,nan,nan,nan,nan,1182.009181366302,1631.3544596368447,nan,1632.0689075731207,nan,nan,nan,nan
1,337,1,1,1.0,1.0,0.7380513802636415,0,4,1,5,6,2,8,nan,nan,nan,nan,nan,nan,nan,nan,nan,nan,nan,nan,0.0,nan,nan,nan,nan,nan,nan,nan,nan,nan,nan,nan,nan,nan,nan,nan,nan,nan,nan,1182.009181366302,1632.3629399416968,nan,1633.1009913219605,nan,nan,nan,nan
1,338,1,1,1.0,1.0,0.6014932407997549,0,6,5,4,1,7,3,nan,nan,nan,nan,nan,nan,nan,nan,nan,nan,nan,nan,0.0,nan,nan,nan,nan,nan,nan,nan,nan,nan,nan,nan,nan,nan,nan,nan,nan,nan,nan,1182.009181366302,1633.3714077020995,nan,1633.9729009428993,nan,nan,nan,nan
1,339,1,1,1.0,1.0,0.46506681735627353,0,7,6,1,2,0,4,nan,nan,nan,nan,nan,nan,nan,nan,nan,nan,nan,nan,0.0,nan,nan,nan,nan,nan,nan,nan,nan,nan,nan,nan,nan,nan,nan,nan,nan,nan,nan,1182.009181366302,1634.379849803634,nan,1634.8449166209903,nan,nan,nan,nan
1,340,1,1,1.0,1.0,0.3685760870575905,0,4,7,3,5,8,0,nan,nan,nan,nan,nan,nan,nan,nan,nan,nan,nan,nan,0.0,nan,nan,nan,nan,nan,nan,nan,nan,nan,nan,nan,nan,nan,nan,nan,nan,nan,nan,1182.009181366302,1635.3883318190929,nan,1635.7569079061504,nan,nan,nan,nan
1,341,1,1,1.0,1.0,0.4320237066131085,0,1,2,6,0,3,4,nan,nan,nan,nan,nan,nan,nan,nan,nan,nan,nan,nan,0.0,nan,nan,nan,nan,nan,nan,nan,nan,nan,nan,nan,nan,nan,nan,nan,nan,nan,nan,1182.009181366302,1636.3968434848357,nan,1636.8288671914488,nan,nan,nan,nan
1,342,1,1,1.0,1.0,0.3996223562862724,0,6,3,7,5,0,2,nan,nan,nan,nan,nan,nan,nan,nan,nan,nan,nan,nan,0.0,nan,nan,nan,nan,nan,nan,nan,nan,nan,nan,nan,nan,nan,nan,nan,nan,nan,nan,1182.009181366302,1637.405288722366,nan,1637.8049110786524,nan,nan,nan,nan
1,343,1,1,1.0,1.0,0.3191163376905024,0,4,5,2,8,7,1,nan,nan,nan,nan,nan,nan,nan,nan,nan,nan,nan,nan,0.0,nan,nan,nan,nan,nan,nan,nan,nan,nan,nan,nan,nan,nan,nan,nan,nan,nan,nan,1182.009181366302,1638.413775299443,nan,1638.7328916371334,nan,nan,nan,nan
1,344,1,1,1.0,1.0,0.462628070730716,0,8,1,4,7,6,0,nan,nan,nan,nan,nan,nan,nan,nan,nan,nan,nan,nan,0.0,nan,nan,nan,nan,nan,nan,nan,nan,nan,nan,nan,nan,nan,nan,nan,nan,nan,nan,1182.009181366302,1639.4222384982277,nan,1639.8848665689584,nan,nan,nan,nan
1,345,1,1,1.0,1.0,0.3741552126593888,0,2,4,7,5,0,3,nan,nan,nan,nan,nan,nan,nan,nan,nan,nan,nan,nan,0.0,nan,nan,nan,nan,nan,nan,nan,nan,nan,nan,nan,nan,nan,nan,nan,nan,nan,nan,1182.009181366302,1640.4307113904506,nan,1640.80486660311,nan,nan,nan,nan
1,346,1,1,1.0,1.0,0.3976545948535204,0,0,3,1,8,4,6,nan,nan,nan,nan,nan,nan,nan,nan,nan,nan,nan,nan,0.0,nan,nan,nan,nan,nan,nan,nan,nan,nan,nan,nan,nan,nan,nan,nan,nan,nan,nan,1182.009181366302,1641.4391808616929,nan,1641.8368354565464,nan,nan,nan,nan
1,347,0,0,0.0,1.0,0.4854261064901948,0,5,4,2,0,1,7,nan,nan,nan,nan,nan,nan,nan,nan,nan,nan,nan,nan,0.0,nan,nan,nan,nan,nan,nan,nan,nan,nan,nan,nan,nan,nan,nan,nan,nan,nan,nan,1182.009181366302,1642.4476805531885,nan,1642.9331066596787,nan,nan,nan,nan
1,348,1,1,1.0,1.0,0.30865971837192774,0,0,2,8,6,4,1,nan,nan,nan,nan,nan,nan,nan,nan,nan,nan,nan,nan,0.0,nan,nan,nan,nan,nan,nan,nan,nan,nan,nan,nan,nan,nan,nan,nan,nan,nan,nan,1182.009181366302,1643.4561577220447,nan,1643.7648174404167,nan,nan,nan,nan
1,349,1,1,1.0,1.0,0.3242327456828207,1,7,5,6,8,2,3,1.0,1.0,1.0,1.0,1.0,1.0,0.0,0.0,0.0,1.0,0.0,1.0,2.0,2.0,4.0,2.0,8.0,6.0,3.0,2.0,3.0,4.0,1.0,5.0,6.0,3.033599341288209,4.223972420440987,5.736174280522391,1.6022196759004146,7.000355805037543,8.007289441302419,1182.009181366302,1644.464572738856,1645.2730244768318,1644.788805484539,1654.3325941637158,1655.332755530253,1646.2815042114817,1654.324250136735
1,350,1,1,1.0,1.0,0.49568030470982194,0,6,3,2,1,5,8,nan,nan,nan,nan,nan,nan,nan,nan,nan,nan,nan,nan,0.0,nan,nan,nan,nan,nan,nan,nan,nan,nan,nan,nan,nan,nan,nan,nan,nan,nan,nan,1182.009181366302,1655.5411178607028,nan,1656.0367981654126,nan,nan,nan,nan
1,351,1,1,1.0,1.0,0.2952400529757142,0,4,2,0,6,8,1,nan,nan,nan,nan,nan,nan,nan,nan,nan,nan,nan,nan,0.0,nan,nan,nan,nan,nan,nan,nan,nan,nan,nan,nan,nan,nan,nan,nan,nan,nan,nan,1182.009181366302,1656.5495847659186,nan,1656.8448248188943,nan,nan,nan,nan
1,352,1,1,1.0,1.0,0.2546389363706112,0,0,1,8,3,6,4,nan,nan,nan,nan,nan,nan,nan,nan,nan,nan,nan,nan,0.0,nan,nan,nan,nan,nan,nan,nan,nan,nan,nan,nan,nan,nan,nan,nan,nan,nan,nan,1182.009181366302,1657.558032284258,nan,1657.8126712206285,nan,nan,nan,nan
1,353,0,0,0.0,1.0,0.3981261504814029,0,8,3,6,4,2,1,nan,nan,nan,nan,nan,nan,nan,nan,nan,nan,nan,nan,0.0,nan,nan,nan,nan,nan,nan,nan,nan,nan,nan,nan,nan,nan,nan,nan,nan,nan,nan,1182.009181366302,1658.5665351119824,nan,1658.9646612624638,nan,nan,nan,nan
1,354,1,1,1.0,1.0,0.2696771153714508,0,7,8,3,1,5,6,nan,nan,nan,nan,nan,nan,nan,nan,nan,nan,nan,nan,0.0,nan,nan,nan,nan,nan,nan,nan,nan,nan,nan,nan,nan,nan,nan,nan,nan,nan,nan,1182.009181366302,1659.5749783539213,nan,1659.8446554692928,nan,nan,nan,nan
1,355,1,1,1.0,1.0,0.309124716790393,0,0,7,1,2,6,4,nan,nan,nan,nan,nan,nan,nan,nan,nan,nan,nan,nan,0.0,nan,nan,nan,nan,nan,nan,nan,nan,nan,nan,nan,nan,nan,nan,nan,nan,nan,nan,1182.009181366302,1660.5835362058133,nan,1660.8926609226037,nan,nan,nan,nan
1,356,1,1,1.0,1.0,0.4288813325110823,0,1,8,2,4,3,5,nan,nan,nan,nan,nan,nan,nan,nan,nan,nan,nan,nan,0.0,nan,nan,nan,nan,nan,nan,nan,nan,nan,nan,nan,nan,nan,nan,nan,nan,nan,nan,1182.009181366302,1661.5919840093702,nan,1662.0208653418813,nan,nan,nan,nan
1,357,0,0,0.0,1.0,0.45219825068488717,0,5,3,7,6,1,4,nan,nan,nan,nan,nan,nan,nan,nan,nan,nan,nan,nan,0.0,nan,nan,nan,nan,nan,nan,nan,nan,nan,nan,nan,nan,nan,nan,nan,nan,nan,nan,1182.009181366302,1662.6004309575073,nan,1663.0526292081922,nan,nan,nan,nan
1,358,1,1,1.0,1.0,0.31572279008105397,0,6,2,8,7,4,1,nan,nan,nan,nan,nan,nan,nan,nan,nan,nan,nan,nan,0.0,nan,nan,nan,nan,nan,nan,nan,nan,nan,nan,nan,nan,nan,nan,nan,nan,nan,nan,1182.009181366302,1663.6088938713074,nan,1663.9246166613884,nan,nan,nan,nan
1,359,1,1,1.0,1.0,0.4512351823505014,1,2,3,0,4,7,8,1.0,1.0,1.0,1.0,1.0,1.0,0.0,1.0,0.0,0.0,0.0,0.0,1.0,4.0,3.0,2.0,8.0,1.0,3.0,6.0,1.0,2.0,3.0,4.0,5.0,6.294852886814624,1.079906737897545,2.1110322650056332,2.999007566133514,3.759311585687101,5.334964486537501,1182.009181366302,1664.6173721803352,1665.425798829412,1665.0686073626857,1672.7684624462854,1673.7686015751678,1666.4342859766912,1672.7601187042892
1,360,1,1,1.0,1.0,0.4997153275180608,0,8,1,3,0,5,6,nan,nan,nan,nan,nan,nan,nan,nan,nan,nan,nan,nan,0.0,nan,nan,nan,nan,nan,nan,nan,nan,nan,nan,nan,nan,nan,nan,nan,nan,nan,nan,1182.009181366302,1673.9769889942836,nan,1674.4767043218017,nan,nan,nan,nan
1,361,1,1,1.0,1.0,0.3151591473724693,0,0,3,7,5,2,1,nan,nan,nan,nan,nan,nan,nan,nan,nan,nan,nan,nan,0.0,nan,nan,nan,nan,nan,nan,nan,nan,nan,nan,nan,nan,nan,nan,nan,nan,nan,nan,1182.009181366302,1674.985456184484,nan,1675.3006153318565,nan,nan,nan,nan
1,362,1,1,1.0,1.0,0.27507121092639863,0,8,5,2,7,1,6,nan,nan,nan,nan,nan,nan,nan,nan,nan,nan,nan,nan,0.0,nan,nan,nan,nan,nan,nan,nan,nan,nan,nan,nan,nan,nan,nan,nan,nan,nan,nan,1182.009181366302,1675.99390626885,nan,1676.2689774797764,nan,nan,nan,nan
1,363,1,1,1.0,1.0,0.27409331733360887,0,5,0,4,8,7,2,nan,nan,nan,nan,nan,nan,nan,nan,nan,nan,nan,nan,0.0,nan,nan,nan,nan,nan,nan,nan,nan,nan,nan,nan,nan,nan,nan,nan,nan,nan,nan,1182.009181366302,1677.0023994031362,nan,1677.2764927204698,nan,nan,nan,nan
1,364,1,1,1.0,1.0,0.26608570851385593,1,2,4,8,3,5,1,1.0,1.0,1.0,1.0,1.0,1.0,0.0,0.0,1.0,1.0,0.0,0.0,2.0,1.0,0.0,8.0,3.0,2.0,3.0,4.0,3.0,2.0,1.0,6.0,5.0,5.668689357349649,4.645661815768108,2.8296289790887386,0.8934449481312186,9.644985273014754,8.845204857178032,1182.009181366302,1678.010875431588,1678.8193411391694,1678.2769611401018,1689.512408272596,1690.5123891709372,1679.8277895129286,1689.5040747944731
1,365,1,1,1.0,1.0,0.3634260375984013,0,4,7,6,0,8,2,nan,nan,nan,nan,nan,nan,nan,nan,nan,nan,nan,nan,0.0,nan,nan,nan,nan,nan,nan,nan,nan,nan,nan,nan,nan,nan,nan,nan,nan,nan,nan,1182.009181366302,1690.7209733091295,nan,1691.0843993467279,nan,nan,nan,nan
1,366,1,1,1.0,1.0,0.3229486544150859,1,6,2,8,3,1,7,1.0,1.0,1.0,1.0,1.0,1.0,1.0,1.0,1.0,0.0,0.0,0.0,3.0,6.0,2.0,8.0,4.0,3.0,0.0,6.0,1.0,2.0,3.0,4.0,5.0,5.59014511317946,1.033300556242466,1.9192992579191923,3.1261134943924844,3.894642368890345,4.758883650414646,1182.009181366302,1691.729437363334,1692.53787142504,1692.052386017749,1699.1804162405897,1700.1798534528352,1693.546337474836,1699.1720867536496
1,367,1,1,1.0,1.0,0.5272902168799192,0,7,6,2,5,3,0,nan,nan,nan,nan,nan,nan,nan,nan,nan,nan,nan,nan,0.0,nan,nan,nan,nan,nan,nan,nan,nan,nan,nan,nan,nan,nan,nan,nan,nan,nan,nan,1182.009181366302,1700.3889533374459,nan,1700.9162435543258,nan,nan,nan,nan
1,368,1,1,1.0,1.0,0.5268374776933342,0,3,4,5,1,2,8,nan,nan,nan,nan,nan,nan,nan,nan,nan,nan,nan,nan,0.0,nan,nan,nan,nan,nan,nan,nan,nan,nan,nan,nan,nan,nan,nan,nan,nan,nan,nan,1182.009181366302,1701.3974342125002,nan,1701.9242716901936,nan,nan,nan,nan
1,369,1,1,1.0,1.0,0.542365174042061,0,4,1,3,8,0,6,nan,nan,nan,nan,nan,nan,nan,nan,nan,nan,nan,nan,0.0,nan,nan,nan,nan,nan,nan,nan,nan,nan,nan,nan,nan,nan,nan,nan,nan,nan,nan,1182.009181366302,1702.4058911390603,nan,1702.9482563131023,nan,nan,nan,nan
1,370,1,1,1.0,1.0,0.5419010308105499,0,0,3,7,4,2,1,nan,nan,nan,nan,nan,nan,nan,nan,nan,nan,nan,nan,0.0,nan,nan,nan,nan,nan,nan,nan,nan,nan,nan,nan,nan,nan,nan,nan,nan,nan,nan,1182.009181366302,1703.4143423638307,nan,1703.9562433946412,nan,nan,nan,nan
1,371,1,1,1.0,1.0,0.6453995236661285,0,1,5,4,6,7,3,nan,nan,nan,nan,nan,nan,nan,nan,nan,nan,nan,nan,0.0,nan,nan,nan,nan,nan,nan,nan,nan,nan,nan,nan,nan,nan,nan,nan,nan,nan,nan,1182.009181366302,1704.4228406299371,nan,1705.0682401536033,nan,nan,nan,nan
1,372,1,1,1.0,1.0,0.5329383364878595,0,3,1,8,4,5,2,nan,nan,nan,nan,nan,nan,nan,nan,nan,nan,nan,nan,0.0,nan,nan,nan,nan,nan,nan,nan,nan,nan,nan,nan,nan,nan,nan,nan,nan,nan,nan,1182.009181366302,1705.431287007872,nan,1705.9642253443599,nan,nan,nan,nan
1,373,1,1,1.0,1.0,0.5003941510803998,0,6,4,3,2,7,1,nan,nan,nan,nan,nan,nan,nan,nan,nan,nan,nan,nan,0.0,nan,nan,nan,nan,nan,nan,nan,nan,nan,nan,nan,nan,nan,nan,nan,nan,nan,nan,1182.009181366302,1706.4398240474984,nan,1706.9402181985788,nan,nan,nan,nan
1,374,1,1,1.0,1.0,0.5719420369714499,0,3,2,0,6,5,4,nan,nan,nan,nan,nan,nan,nan,nan,nan,nan,nan,nan,0.0,nan,nan,nan,nan,nan,nan,nan,nan,nan,nan,nan,nan,nan,nan,nan,nan,nan,nan,1182.009181366302,1707.4482761274558,nan,1708.0202181644272,nan,nan,nan,nan
1,375,1,1,1.0,1.0,0.611421569250524,0,1,8,4,0,6,5,nan,nan,nan,nan,nan,nan,nan,nan,nan,nan,nan,nan,0.0,nan,nan,nan,nan,nan,nan,nan,nan,nan,nan,nan,nan,nan,nan,nan,nan,nan,nan,1182.009181366302,1708.4567709725816,nan,1709.068192541832,nan,nan,nan,nan
1,376,1,1,1.0,1.0,0.5629673681687564,0,6,2,0,5,7,1,nan,nan,nan,nan,nan,nan,nan,nan,nan,nan,nan,nan,0.0,nan,nan,nan,nan,nan,nan,nan,nan,nan,nan,nan,nan,nan,nan,nan,nan,nan,nan,1182.009181366302,1709.4652156399097,nan,1710.0281830080785,nan,nan,nan,nan
1,377,1,1,1.0,1.0,0.45048964535817504,0,4,0,1,2,3,8,nan,nan,nan,nan,nan,nan,nan,nan,nan,nan,nan,nan,0.0,nan,nan,nan,nan,nan,nan,nan,nan,nan,nan,nan,nan,nan,nan,nan,nan,nan,nan,1182.009181366302,1710.4736768428702,nan,1710.9241664882284,nan,nan,nan,nan
1,378,1,1,1.0,1.0,0.41032701288349926,0,1,2,5,4,8,7,nan,nan,nan,nan,nan,nan,nan,nan,nan,nan,nan,nan,0.0,nan,nan,nan,nan,nan,nan,nan,nan,nan,nan,nan,nan,nan,nan,nan,nan,nan,nan,1182.009181366302,1711.482146028895,nan,1711.8924730417784,nan,nan,nan,nan
1,379,1,1,1.0,1.0,0.43408612138591707,0,8,1,4,5,6,3,nan,nan,nan,nan,nan,nan,nan,nan,nan,nan,nan,nan,0.0,nan,nan,nan,nan,nan,nan,nan,nan,nan,nan,nan,nan,nan,nan,nan,nan,nan,nan,1182.009181366302,1712.4906368823722,nan,1712.9247230037581,nan,nan,nan,nan
1,380,1,1,1.0,1.0,0.39329541311599314,0,6,0,3,7,4,1,nan,nan,nan,nan,nan,nan,nan,nan,nan,nan,nan,nan,0.0,nan,nan,nan,nan,nan,nan,nan,nan,nan,nan,nan,nan,nan,nan,nan,nan,nan,nan,1182.009181366302,1713.4990889623296,nan,1713.8923843754455,nan,nan,nan,nan
1,381,1,1,1.0,1.0,0.3848940811585635,0,7,2,1,4,8,3,nan,nan,nan,nan,nan,nan,nan,nan,nan,nan,nan,nan,0.0,nan,nan,nan,nan,nan,nan,nan,nan,nan,nan,nan,nan,nan,nan,nan,nan,nan,nan,1182.009181366302,1714.507579530822,nan,1714.8924736119807,nan,nan,nan,nan
1,382,1,1,1.0,1.0,0.4882451768498868,0,0,1,3,5,2,6,nan,nan,nan,nan,nan,nan,nan,nan,nan,nan,nan,nan,0.0,nan,nan,nan,nan,nan,nan,nan,nan,nan,nan,nan,nan,nan,nan,nan,nan,nan,nan,1182.009181366302,1715.5160686739255,nan,1716.0043138507754,nan,nan,nan,nan
1,383,1,1,1.0,1.0,0.4235684904269874,0,7,2,4,0,8,3,nan,nan,nan,nan,nan,nan,nan,nan,nan,nan,nan,nan,0.0,nan,nan,nan,nan,nan,nan,nan,nan,nan,nan,nan,nan,nan,nan,nan,nan,nan,nan,1182.009181366302,1716.5245144816581,nan,1716.948082972085,nan,nan,nan,nan
1,384,1,1,1.0,1.0,0.5191469003912061,0,4,0,8,2,7,1,nan,nan,nan,nan,nan,nan,nan,nan,nan,nan,nan,nan,0.0,nan,nan,nan,nan,nan,nan,nan,nan,nan,nan,nan,nan,nan,nan,nan,nan,nan,nan,1182.009181366302,1717.5329842376523,nan,1718.0521311380435,nan,nan,nan,nan
