block,trial,freq_trials,correct_response,actual_response,acc,rts,probe_trials,fast_rt_trigger,slow_rt_trigger,rt_triggered,rts_runningavg,rts_runningstd,rts_runningfastthresh,rts_runningslowthresh,rts_runningstd,rts_trailingavg,trials_colorind,trials_colorrgb0,trials_colorrgb1,trials_colorrgb2,wm_respdeg,wm_respdeg_in_colorspace,wm_respcolorminusorigcolor,wm_resptexind,wm_resptexrgb0,wm_resptexrgb1,wm_resptexrgb2,wm_rts,time_blockstart,time_encarray_offset,time_encarray_onset,time_response,time_iti_offset,time_iti_onset,time_memprobe_offset,time_memprobe_onset
1,1,1,1,1.0,1.0,0.362637873332,0,nan,nan,nan,nan,nan,nan,nan,nan,nan,476,0.547545041103,0.340739382997,-1.0,nan,nan,nan,nan,nan,nan,nan,nan,2720.09532217,2721.10867843,nan,2721.47131631,nan,nan,nan,nan
1,2,1,1,1.0,1.0,0.274712849467,0,nan,nan,nan,nan,nan,nan,nan,nan,nan,206,0.994723455659,0.014051917983,0.511316161583,nan,nan,nan,nan,nan,nan,nan,nan,2720.09532217,2722.05260796,nan,2722.32732081,nan,nan,nan,nan
1,3,1,1,1.0,1.0,0.247051518352,0,nan,nan,nan,nan,nan,nan,nan,nan,nan,65,1.0,-0.113312155659,-1.0,nan,nan,nan,nan,nan,nan,nan,nan,2720.09532217,2722.9922385,nan,2723.23929002,nan,nan,nan,nan
1,4,1,1,1.0,1.0,0.289172725927,0,nan,nan,nan,nan,nan,nan,nan,nan,nan,293,0.103830259013,0.378659598285,0.564617056734,nan,nan,nan,nan,nan,nan,nan,nan,2720.09532217,2723.9341022,nan,2724.22327493,nan,nan,nan,nan
1,5,1,1,1.0,1.0,0.291411314043,0,nan,nan,nan,nan,nan,nan,nan,nan,nan,1,0.854939129564,0.207877072944,-1.0,nan,nan,nan,nan,nan,nan,nan,nan,2720.09532217,2724.87584161,nan,2725.16725292,nan,nan,nan,nan
1,6,1,1,1.0,1.0,0.285602160788,1,nan,nan,nan,nan,nan,nan,nan,nan,nan,468,0.481236483515,0.363131620867,-1.0,153.434948823,296.565051177,-32.4974488229,422.0,0.128328379107,0.451313674078,-0.730894888444,1.41713175626,2720.09532217,2725.81763034,2726.62605657,2726.1032325,2729.08464013,2730.08653375,2727.65113549,2729.076307
1,7,1,1,1.0,1.0,0.348649548658,0,nan,nan,nan,nan,nan,nan,nan,nan,nan,0,0.846831709088,0.212097570855,-1.0,nan,nan,nan,nan,nan,nan,nan,nan,2720.09532217,2730.22652333,nan,2730.57517288,nan,nan,nan,nan
1,8,0,0,0.0,1.0,0.390817512292,0,nan,nan,nan,nan,nan,nan,nan,nan,nan,331,-0.143297839787,0.450801753776,0.311166711333,nan,nan,nan,nan,nan,nan,nan,nan,2720.09532217,2731.16831149,nan,2731.559129,nan,nan,nan,nan
1,9,1,1,1.0,1.0,0.257048188359,0,nan,nan,nan,nan,nan,nan,nan,nan,nan,221,0.851781464038,0.0945411604707,0.585422935822,nan,nan,nan,nan,nan,nan,nan,nan,2720.09532217,2732.11009822,nan,2732.36714641,nan,nan,nan,nan
1,10,1,1,1.0,1.0,0.235260727699,0,nan,nan,nan,nan,nan,nan,nan,nan,nan,76,1.0,-0.169674511773,-0.773365826749,nan,nan,nan,nan,nan,nan,nan,nan,2720.09532217,2733.05188267,nan,2733.2871434,nan,nan,nan,nan
1,11,1,1,1.0,1.0,0.285413140955,0,nan,nan,nan,nan,nan,nan,nan,nan,nan,286,0.169078956243,0.359734776014,0.594698705761,nan,nan,nan,nan,nan,nan,nan,nan,2720.09532217,2733.99367625,nan,2734.27908939,nan,nan,nan,nan
1,12,1,1,1.0,1.0,0.255624694924,0,nan,nan,nan,nan,nan,nan,nan,nan,nan,352,-0.17544712699,0.470851603012,0.118673592819,nan,nan,nan,nan,nan,nan,nan,nan,2720.09532217,2734.93546355,nan,2735.19108824,nan,nan,nan,nan
1,13,1,1,1.0,1.0,0.217821008759,0,nan,nan,nan,nan,nan,nan,nan,nan,nan,224,0.821619416966,0.11002478857,0.597264883709,nan,nan,nan,nan,nan,nan,nan,nan,2720.09532217,2735.87725056,nan,2736.09507157,nan,nan,nan,nan
1,14,0,0,0.0,1.0,0.315934573475,0,nan,nan,nan,nan,nan,nan,nan,nan,nan,461,0.423959648591,0.380927367285,-1.0,nan,nan,nan,nan,nan,nan,nan,nan,2720.09532217,2736.8191003,nan,2737.13503487,nan,nan,nan,nan
1,15,1,1,1.0,1.0,0.270199465856,0,nan,nan,nan,nan,nan,nan,nan,nan,nan,188,1.0,-0.0857393506835,0.392804289229,nan,nan,nan,nan,nan,nan,nan,nan,2720.09532217,2737.7608226,nan,2738.03102206,nan,nan,nan,nan
1,16,0,0,0.0,1.0,0.296428750677,0,nan,nan,nan,nan,nan,nan,nan,nan,nan,28,1.0,0.082066132397,-1.0,nan,nan,nan,nan,nan,nan,nan,nan,2720.09532217,2738.70258652,nan,2738.99901527,nan,nan,nan,nan
1,17,1,1,1.0,1.0,0.258602541697,0,nan,nan,nan,nan,nan,nan,nan,nan,nan,201,1.0,-0.0135712615467,0.48142235136,nan,nan,nan,nan,nan,nan,nan,nan,2720.09532217,2739.64440005,nan,2739.90300259,nan,nan,nan,nan
1,18,1,1,1.0,1.0,0.252805077529,0,nan,nan,nan,nan,nan,nan,nan,nan,nan,110,1.0,-0.296722754836,-0.346921960777,nan,nan,nan,nan,nan,nan,nan,nan,2720.09532217,2740.58617994,nan,2740.83898502,nan,nan,nan,nan
1,19,1,1,1.0,1.0,0.2549857907,0,nan,nan,nan,nan,nan,nan,nan,nan,nan,471,0.506014005179,0.354993781952,-1.0,nan,nan,nan,nan,nan,nan,nan,nan,2720.09532217,2741.52798349,nan,2741.78296928,nan,nan,nan,nan
1,20,1,1,1.0,1.0,0.233192628017,0,nan,nan,nan,nan,nan,nan,nan,nan,nan,240,0.654373017221,0.188015059697,0.642463954019,nan,nan,nan,nan,nan,nan,nan,nan,2720.09532217,2742.46975711,nan,2742.70294974,nan,nan,nan,nan
1,21,1,1,1.0,1.0,0.251375026826,0,nan,nan,nan,nan,nan,nan,nan,nan,nan,38,1.0,0.0306259494545,-1.0,nan,nan,nan,nan,nan,nan,nan,nan,2720.09532217,2743.4115541,nan,2743.66292913,nan,nan,nan,nan
1,22,1,1,1.0,1.0,0.213495504577,1,nan,nan,nan,nan,nan,nan,nan,nan,nan,216,0.900975005756,0.0682271079607,0.563426584804,-62.0591138193,152.059113819,0.184113819258,216.0,0.900975005756,0.0682271079607,0.563426584804,1.26712611131,2720.09532217,2744.35340926,2745.16175595,2744.56690476,2747.47038005,2748.47858431,2746.18688276,2747.46203865
1,23,0,0,0.0,1.0,0.506255046232,0,nan,nan,nan,nan,nan,nan,nan,nan,nan,149,1.0,-0.269478519393,0.0541436597792,nan,nan,nan,nan,nan,nan,nan,nan,2720.09532217,2748.62056644,nan,2749.12682149,nan,nan,nan,nan
1,24,1,1,1.0,1.0,0.308473848563,0,nan,nan,nan,nan,nan,nan,nan,nan,nan,293,0.103830259013,0.378659598285,0.564617056734,nan,nan,nan,nan,nan,nan,nan,nan,2720.09532217,2749.5623526,nan,2749.87082645,nan,nan,nan,nan
1,25,1,1,1.0,1.0,0.230674073857,0,nan,nan,nan,nan,nan,nan,nan,nan,nan,90,1.0,-0.233635786423,-0.574971871003,nan,nan,nan,nan,nan,nan,nan,nan,2720.09532217,2750.50413791,nan,2750.73481198,nan,nan,nan,nan
1,26,0,0,0.0,1.0,0.328857487591,0,nan,nan,nan,nan,nan,nan,nan,nan,nan,511,0.838703193994,0.216284169582,-1.0,nan,nan,nan,nan,nan,nan,nan,nan,2720.09532217,2751.4459292,nan,2751.77478669,nan,nan,nan,nan
1,27,1,1,1.0,1.0,0.235062299587,0,nan,nan,nan,nan,nan,nan,nan,nan,nan,338,-0.162891363375,0.458928707883,0.250399161362,nan,nan,nan,nan,nan,nan,nan,nan,2720.09532217,2752.38771593,nan,2752.62277823,nan,nan,nan,nan
1,28,1,1,1.0,1.0,0.205253326509,1,nan,nan,nan,nan,nan,nan,nan,nan,nan,452,0.351738073422,0.401406211611,-1.0,148.988930696,301.011069304,-16.8014306963,428.0,0.170378320166,0.443486568519,-0.86866140055,2.25059842033,2720.09532217,2753.32950409,2754.13791721,2753.53475742,2757.42164058,2758.43124752,2755.15468267,2757.41331401
1,29,1,1,1.0,1.0,0.290817455272,0,nan,nan,nan,nan,nan,nan,nan,nan,nan,400,-0.0107874812989,0.471427301814,-0.412692688905,nan,nan,nan,nan,nan,nan,nan,nan,2720.09532217,2758.57184807,nan,2758.86266553,nan,nan,nan,nan
1,30,1,1,1.0,1.0,0.245010788087,0,nan,nan,nan,nan,nan,nan,nan,nan,nan,171,1.0,-0.176011872558,0.256450910142,nan,nan,nan,nan,nan,nan,nan,nan,2720.09532217,2759.51363594,nan,2759.75864673,nan,nan,nan,nan
1,31,1,1,1.0,1.0,0.247219726036,0,nan,nan,nan,nan,nan,nan,nan,nan,nan,20,1.0,0.121558187834,-1.0,nan,nan,nan,nan,nan,nan,nan,nan,2720.09532217,2760.45541184,nan,2760.70263157,nan,nan,nan,nan
1,32,1,1,1.0,1.0,0.249387324788,0,nan,nan,nan,nan,nan,nan,nan,nan,nan,499,0.739831889234,0.263827757734,-1.0,nan,nan,nan,nan,nan,nan,nan,nan,2720.09532217,2761.3972134,nan,2761.64660072,nan,nan,nan,nan
1,33,1,1,1.0,1.0,0.243592141313,0,nan,nan,nan,nan,nan,nan,nan,nan,nan,449,0.328095008353,0.407646248688,-1.0,nan,nan,nan,nan,nan,nan,nan,nan,2720.09532217,2762.33899471,nan,2762.58258685,nan,nan,nan,nan
1,34,1,1,1.0,1.0,0.269800328882,0,nan,nan,nan,nan,nan,nan,nan,nan,nan,368,-0.150457169737,0.477793263397,-0.0457341785459,nan,nan,nan,nan,nan,nan,nan,nan,2720.09532217,2763.280786,nan,2763.55058633,nan,nan,nan,nan
1,35,1,1,1.0,1.0,0.23998166254,0,nan,nan,nan,nan,nan,nan,nan,nan,nan,511,0.838703193994,0.216284169582,-1.0,nan,nan,nan,nan,nan,nan,nan,nan,2720.09532217,2764.22257844,nan,2764.4625601,nan,nan,nan,nan
1,36,0,0,1.0,0.0,0.266175024968,0,0.0,0.0,0.0,nan,nan,nan,nan,nan,nan,56,1.0,-0.0653675053377,-1.0,nan,nan,nan,nan,nan,nan,nan,nan,2720.09532217,2765.16436488,nan,2765.43053991,nan,nan,nan,nan
1,37,1,1,1.0,1.0,0.32437403925,0,nan,nan,nan,nan,nan,nan,nan,nan,nan,296,0.0772713571413,0.386205321608,0.550001308524,nan,nan,nan,nan,nan,nan,nan,nan,2720.09532217,2766.10615361,nan,2766.43052765,nan,nan,nan,nan
1,38,1,1,1.0,1.0,0.310555347765,0,nan,nan,nan,nan,nan,nan,nan,nan,nan,114,1.0,-0.303747463913,-0.303859371662,nan,nan,nan,nan,nan,nan,nan,nan,2720.09532217,2767.04794747,nan,2767.35850281,nan,nan,nan,nan
1,39,1,1,1.0,1.0,0.2567830474,0,nan,nan,nan,nan,nan,nan,nan,nan,nan,339,-0.164955840019,0.45996923152,0.241423096872,nan,nan,nan,nan,nan,nan,nan,nan,2720.09532217,2767.98973249,nan,2768.24651553,nan,nan,nan,nan
1,40,1,1,1.0,1.0,0.258964615932,1,nan,nan,nan,nan,nan,nan,nan,nan,nan,212,0.93926288676,0.0467731277665,0.543851001166,-44.008822425,134.008822425,-15.053677575,191.0,1.0,-0.0691479807067,0.414571651978,1.28369856265,2720.09532217,2768.93152036,2769.73992749,2769.19048497,2772.05688728,2773.06380005,2770.75672346,2772.04855216
1,41,1,1,1.0,1.0,0.367299222678,0,nan,nan,nan,nan,nan,nan,nan,nan,nan,138,1.0,-0.29832987918,-0.0546508148191,nan,nan,nan,nan,nan,nan,nan,nan,2720.09532217,2773.20707624,nan,2773.57437546,nan,nan,nan,nan
1,42,1,1,1.0,1.0,0.33753700566,0,nan,nan,nan,nan,nan,nan,nan,nan,nan,403,0.00657627305109,0.469456436931,-0.450524507496,nan,nan,nan,nan,nan,nan,nan,nan,2720.09532217,2774.14885927,nan,2774.48639627,nan,nan,nan,nan
1,43,1,1,1.0,1.0,0.275724661595,0,nan,nan,nan,nan,nan,nan,nan,nan,nan,290,0.131265381085,0.370776544741,0.578206616232,nan,nan,nan,nan,nan,nan,nan,nan,2720.09532217,2775.09064913,nan,2775.3663738,nan,nan,nan,nan
1,44,1,1,1.0,1.0,0.253920095041,0,nan,nan,nan,nan,nan,nan,nan,nan,nan,178,1.0,-0.139919655122,0.315097826042,nan,nan,nan,nan,nan,nan,nan,nan,2720.09532217,2776.03243586,nan,2776.28635596,nan,nan,nan,nan
1,45,1,1,1.0,1.0,0.216113557864,0,nan,nan,nan,nan,nan,nan,nan,nan,nan,385,-0.0879796604702,0.477733444059,-0.233926720364,nan,nan,nan,nan,nan,nan,nan,nan,2720.09532217,2776.97422573,nan,2777.19033929,nan,nan,nan,nan
1,46,1,1,1.0,1.0,0.274313712493,0,nan,nan,nan,nan,nan,nan,nan,nan,nan,336,-0.158211608236,0.456758111158,0.268135266647,nan,nan,nan,nan,nan,nan,nan,nan,2720.09532217,2777.91601018,nan,2778.19032389,nan,nan,nan,nan
1,47,1,1,1.0,1.0,0.228455157543,0,nan,nan,nan,nan,nan,nan,nan,nan,nan,83,1.0,-0.203097876184,-0.665876706514,nan,nan,nan,nan,nan,nan,nan,nan,2720.09532217,2778.85783768,nan,2779.08629284,nan,nan,nan,nan
1,48,1,1,1.0,1.0,0.230686333089,0,nan,nan,nan,nan,nan,nan,nan,nan,nan,312,-0.0464483572634,0.420925197877,0.455573212045,nan,nan,nan,nan,nan,nan,nan,nan,2720.09532217,2779.79958906,nan,2780.03027539,nan,nan,nan,nan
1,49,1,1,1.0,1.0,0.280905459251,0,nan,nan,nan,nan,nan,nan,nan,nan,nan,426,0.156193047225,0.446210853967,-0.81485970128,nan,nan,nan,nan,nan,nan,nan,nan,2720.09532217,2780.74137322,nan,2781.02227868,nan,nan,nan,nan
1,50,1,1,1.0,1.0,0.291090579005,0,nan,nan,nan,nan,nan,nan,nan,nan,nan,56,1.0,-0.0653675053377,-1.0,nan,nan,nan,nan,nan,nan,nan,nan,2720.09532217,2781.68316537,nan,2781.97425595,nan,nan,nan,nan
1,51,1,1,1.0,1.0,0.285285987309,0,nan,nan,nan,nan,nan,nan,nan,nan,nan,130,1.0,-0.309333154106,-0.136071487739,nan,nan,nan,nan,nan,nan,nan,nan,2720.09532217,2782.62495096,nan,2782.91023695,nan,nan,nan,nan
1,52,1,1,1.0,1.0,0.295473102713,0,nan,nan,nan,nan,nan,nan,nan,nan,nan,292,0.112881669716,0.376069582356,0.569261850688,nan,nan,nan,nan,nan,nan,nan,nan,2720.09532217,2783.56674254,nan,2783.86221564,nan,nan,nan,nan
1,53,1,1,1.0,1.0,0.249660163419,0,nan,nan,nan,nan,nan,nan,nan,nan,nan,216,0.900975005756,0.0682271079607,0.563426584804,nan,nan,nan,nan,nan,nan,nan,nan,2720.09532217,2784.50852984,nan,2784.75819001,nan,nan,nan,nan
1,54,1,1,1.0,1.0,0.163872517936,0,nan,nan,nan,nan,nan,nan,nan,nan,nan,84,1.0,-0.20765784414,-0.652191087791,nan,nan,nan,nan,nan,nan,nan,nan,2720.09532217,2785.45031914,nan,2785.61419166,nan,nan,nan,nan
1,55,1,1,1.0,1.0,0.254023585585,0,nan,nan,nan,nan,nan,nan,nan,nan,nan,370,-0.144805996584,0.478178727438,-0.0671803333712,nan,nan,nan,nan,nan,nan,nan,nan,2720.09532217,2786.39214322,nan,2786.6461668,nan,nan,nan,nan
1,56,0,0,1.0,0.0,0.2402468035,0,0.0,0.0,0.0,nan,nan,nan,nan,nan,nan,44,1.0,-0.00106984144607,-1.0,nan,nan,nan,nan,nan,nan,nan,nan,2720.09532217,2787.33389802,nan,2787.57414482,nan,nan,nan,nan
1,57,1,1,1.0,1.0,0.0264088963741,0,nan,nan,nan,nan,nan,nan,nan,nan,nan,408,0.036737934283,0.465637664749,-0.515938449969,nan,nan,nan,nan,nan,nan,nan,nan,2720.09532217,2788.27568047,nan,2788.30208937,nan,nan,nan,nan
1,58,1,1,1.0,1.0,0.220642336761,0,nan,nan,nan,nan,nan,nan,nan,nan,nan,147,1.0,-0.275801134503,0.0346720467303,nan,nan,nan,nan,nan,nan,nan,nan,2720.09532217,2789.2174692,nan,2789.43811153,nan,nan,nan,nan
1,59,1,1,1.0,1.0,0.246828856936,0,nan,nan,nan,nan,nan,nan,nan,nan,nan,206,0.994723455659,0.014051917983,0.511316161583,nan,nan,nan,nan,nan,nan,nan,nan,2720.09532217,2790.1592642,nan,2790.40609305,nan,nan,nan,nan
1,60,1,1,1.0,1.0,0.233028126648,0,nan,nan,nan,nan,nan,nan,nan,nan,nan,157,1.0,-0.240048375319,0.130425901556,nan,nan,nan,nan,nan,nan,nan,nan,2720.09532217,2791.10104922,nan,2791.33407734,nan,nan,nan,nan
1,61,0,0,1.0,0.0,0.235239060188,0,0.0,0.0,0.0,nan,nan,nan,nan,nan,nan,474,0.530901762182,0.346545376391,-1.0,nan,nan,nan,nan,nan,nan,nan,nan,2720.09532217,2792.04283167,nan,2792.27807073,nan,nan,nan,nan
1,62,1,1,1.0,1.0,0.253431722464,0,nan,nan,nan,nan,nan,nan,nan,nan,nan,239,0.665069831863,0.183388857662,0.640549267122,nan,nan,nan,nan,nan,nan,nan,nan,2720.09532217,2792.98463038,nan,2793.2380621,nan,nan,nan,nan
1,63,1,1,1.0,1.0,0.255599606317,0,nan,nan,nan,nan,nan,nan,nan,nan,nan,28,1.0,0.082066132397,-1.0,nan,nan,nan,nan,nan,nan,nan,nan,2720.09532217,2793.92643934,nan,2794.18203895,nan,nan,nan,nan
1,64,1,1,1.0,1.0,0.257812820724,0,nan,nan,nan,nan,nan,nan,nan,nan,nan,267,0.362924526182,0.298807232282,0.646622522267,nan,nan,nan,nan,nan,nan,nan,nan,2720.09532217,2794.86820213,nan,2795.12601495,nan,nan,nan,nan
1,65,1,1,1.0,1.0,0.180013046076,0,nan,nan,nan,nan,nan,nan,nan,nan,nan,96,1.0,-0.25681952169,-0.503302481145,nan,nan,nan,nan,nan,nan,nan,nan,2720.09532217,2795.80999085,nan,2795.9900039,nan,nan,nan,nan
1,66,1,1,1.0,1.0,0.230203377374,0,nan,nan,nan,nan,nan,nan,nan,nan,nan,237,0.686387300223,0.174031846447,0.636349816437,nan,nan,nan,nan,nan,nan,nan,nan,2720.09532217,2796.75177644,nan,2796.98197982,nan,nan,nan,nan
1,67,1,1,1.0,1.0,0.200411225087,0,nan,nan,nan,nan,nan,nan,nan,nan,nan,490,0.664660387652,0.296157848571,-1.0,nan,nan,nan,nan,nan,nan,nan,nan,2720.09532217,2797.6935703,nan,2797.89398153,nan,nan,nan,nan
1,68,1,1,1.0,1.0,0.242587741697,0,nan,nan,nan,nan,nan,nan,nan,nan,nan,380,-0.109519508899,0.478533032186,-0.177177385375,nan,nan,nan,nan,nan,nan,nan,nan,2720.09532217,2798.63535361,nan,2798.87794135,nan,nan,nan,nan
1,69,1,1,1.0,1.0,0.19679704,0,nan,nan,nan,nan,nan,nan,nan,nan,nan,97,1.0,-0.260369742894,-0.491718830742,nan,nan,nan,nan,nan,nan,nan,nan,2720.09532217,2799.57714091,nan,2799.77393795,nan,nan,nan,nan
1,70,1,1,1.0,1.0,0.230996234459,0,nan,nan,nan,nan,nan,nan,nan,nan,nan,484,0.614398947124,0.316112737715,-1.0,nan,nan,nan,nan,nan,nan,nan,nan,2720.09532217,2800.51892964,nan,2800.74992587,nan,nan,nan,nan
1,71,1,1,1.0,1.0,0.233129621425,0,nan,nan,nan,nan,nan,nan,nan,nan,nan,218,0.881467392804,0.0788246127756,0.572559633417,nan,nan,nan,nan,nan,nan,nan,nan,2720.09532217,2801.4607446,nan,2801.69387422,nan,nan,nan,nan
1,72,1,1,1.0,1.0,0.275338639214,0,nan,nan,nan,nan,nan,nan,nan,nan,nan,145,1.0,-0.281667413287,0.0150551701241,nan,nan,nan,nan,nan,nan,nan,nan,2720.09532217,2802.40250795,nan,2802.67784659,nan,nan,nan,nan
1,73,1,1,1.0,1.0,0.245537648851,0,nan,nan,nan,nan,nan,nan,nan,nan,nan,92,1.0,-0.241703663401,-0.55060883727,nan,nan,nan,nan,nan,nan,nan,nan,2720.09532217,2803.34429439,nan,2803.58983204,nan,nan,nan,nan
1,74,1,1,1.0,1.0,0.17577991361,0,nan,nan,nan,nan,nan,nan,nan,nan,nan,438,0.243622561222,0.428096439079,-1.0,nan,nan,nan,nan,nan,nan,nan,nan,2720.09532217,2804.28607571,nan,2804.46185562,nan,nan,nan,nan
1,75,1,1,1.0,1.0,0.20995573001,0,nan,nan,nan,nan,nan,nan,nan,nan,nan,80,1.0,-0.189075709245,-0.708965549488,nan,nan,nan,nan,nan,nan,nan,nan,2720.09532217,2805.22787612,nan,2805.43783185,nan,nan,nan,nan
1,76,1,1,1.0,1.0,0.212165523262,0,nan,nan,nan,nan,nan,nan,nan,nan,nan,431,0.191957257768,0.43918128748,-0.982298765802,nan,nan,nan,nan,nan,nan,nan,nan,2720.09532217,2806.16966428,nan,2806.3818298,nan,nan,nan,nan
1,77,1,1,1.0,1.0,0.158352739003,0,nan,nan,nan,nan,nan,nan,nan,nan,nan,77,1.0,-0.174593022316,-0.756267193339,nan,nan,nan,nan,nan,nan,nan,nan,2720.09532217,2807.11145301,nan,2807.26980575,nan,nan,nan,nan
1,78,1,1,1.0,1.0,0.192563622433,0,nan,nan,nan,nan,nan,nan,nan,nan,nan,341,-0.168535884224,0.46196150489,0.223260112086,nan,nan,nan,nan,nan,nan,nan,nan,2720.09532217,2808.05324145,nan,2808.24580507,nan,nan,nan,nan
1,79,1,1,1.0,1.0,0.146697654913,0,nan,nan,nan,nan,nan,nan,nan,nan,nan,58,1.0,-0.0760896648475,-1.0,nan,nan,nan,nan,nan,nan,nan,nan,2720.09532217,2808.99507123,nan,2809.14176888,nan,nan,nan,nan
1,80,1,1,1.0,1.0,0.188938603562,0,nan,nan,nan,nan,nan,nan,nan,nan,nan,297,0.0686262056446,0.388646276542,0.544904663634,nan,nan,nan,nan,nan,nan,nan,nan,2720.09532217,2809.93681805,nan,2810.12575665,nan,nan,nan,nan
1,81,1,1,1.0,1.0,0.223129530204,0,1.0,0.0,0.0,0.254981849244,0.0594311518612,0.195550697383,0.314413001106,0.0594311518612,0.186255262893,453,0.359670421306,0.39926174925,-1.0,nan,nan,nan,nan,nan,nan,nan,nan,2720.09532217,2810.87860278,nan,2811.10173231,nan,nan,nan,nan
1,82,1,1,1.0,1.0,0.201326959301,1,0.0,0.0,1.0,0.254588610738,0.0591677871145,0.195420823623,0.313756397852,0.0591677871145,0.204465031022,392,-0.0541067903503,0.475522277549,-0.315549842675,-162.095552494,252.095552494,-23.5294475062,359.0,-0.169222339917,0.474741883077,0.0483828026834,1.575480789,2720.09532217,2811.82038752,2812.62880378,2812.02171448,2815.24576858,2816.24384388,2813.65393002,2815.23743973
1,83,1,1,1.0,1.0,0.337929015164,0,0.0,0.0,0.0,0.253939078403,0.0590957468181,0.194843331585,0.313034825221,0.0590957468181,0.254128501557,132,1.0,-0.307426825298,-0.115555361894,nan,nan,nan,nan,nan,nan,nan,nan,2720.09532217,2816.38768657,nan,2816.72561558,nan,nan,nan,nan
1,84,1,1,1.0,1.0,0.332179447403,0,0.0,0.0,0.0,0.254951005352,0.0594491293865,0.195501875966,0.314400134739,0.0594491293865,0.290478473956,55,1.0,-0.0599996532909,-1.0,nan,nan,nan,nan,nan,nan,nan,nan,2720.09532217,2817.32943652,nan,2817.66161597,nan,nan,nan,nan
1,85,1,1,1.0,1.0,0.214386435284,0,0.0,0.0,0.0,0.255870391567,0.0596848614087,0.196185530158,0.315555252976,0.0596848614087,0.294831632617,214,0.920243657418,0.0575410437433,0.553854850604,nan,nan,nan,nan,nan,nan,nan,nan,2720.09532217,2818.27122183,nan,2818.48560826,nan,nan,nan,nan
1,86,0,0,1.0,0.0,0.232571970089,0,0.0,0.0,0.0,0.255382345022,0.0595011040692,0.195881240953,0.314883449092,0.0595011040692,0.259712617592,338,-0.162891363375,0.458928707883,0.250399161362,nan,nan,nan,nan,nan,nan,nan,nan,2720.09532217,2819.21301169,nan,2819.44558366,nan,nan,nan,nan
1,87,1,1,1.0,1.0,0.146776912094,0,0.0,0.0,0.0,0.255117108105,0.0592046785563,0.195912429548,0.314321786661,0.0592046785563,0.197911772489,459,0.407758158413,0.385709174134,-1.0,nan,nan,nan,nan,nan,nan,nan,nan,2720.09532217,2820.15479415,nan,2820.30157106,nan,nan,nan,nan
1,88,1,1,1.0,1.0,0.11697649199,0,0.0,0.0,0.0,0.253871818495,0.0599855695258,0.193886248969,0.313857388021,0.0599855695258,0.165441791391,57,1.0,-0.0707313323512,-1.0,nan,nan,nan,nan,nan,nan,nan,nan,2720.09532217,2821.09658801,nan,2821.2135645,nan,nan,nan,nan
1,89,1,1,1.0,1.0,0.287160790584,0,1.0,0.0,0.0,0.252316189785,0.061383364648,0.190932825137,0.313699554433,0.061383364648,0.183638064889,298,0.0600896634305,0.391050340636,0.53969689008,nan,nan,nan,nan,nan,nan,nan,nan,2720.09532217,2822.0383716,nan,2822.32553239,nan,nan,nan,nan
1,90,1,1,1.0,1.0,0.297362160869,1,0.0,0.0,1.0,0.252707702154,0.0611479363067,0.191559765847,0.31385563846,0.0611479363067,0.233833147814,53,1.0,-0.049257555853,-1.0,66.838398364,23.161601636,-14.104023364,33.0,1.0,0.0565990290419,-1.0,1.18374526169,2720.09532217,2822.98016546,2823.78857659,2823.27752762,2826.00549041,2827.00766172,2824.80536828,2825.99715957
1,91,1,1,1.0,1.0,0.234127463831,0,0.0,0.0,0.0,0.253203862806,0.0609871666915,0.192216696114,0.314191029497,0.0609871666915,0.272883471761,223,0.83172397378,0.104890589731,0.593432239612,nan,nan,nan,nan,nan,nan,nan,nan,2720.09532217,2827.14733257,nan,2827.38146003,nan,nan,nan,nan
1,92,1,1,1.0,1.0,0.284267047711,0,0.0,0.0,0.0,0.252994232048,0.0606837428754,0.192310489173,0.313677974923,0.0606837428754,0.271918890804,63,1.0,-0.102744642793,-1.0,nan,nan,nan,nan,nan,nan,nan,nan,2720.09532217,2828.08916463,nan,2828.37343168,nan,nan,nan,nan
1,93,0,0,0.0,1.0,0.310450146673,0,0.0,0.0,0.0,0.253334153957,0.0604400865551,0.192894067402,0.313774240512,0.0604400865551,0.276281552739,466,0.464789014893,0.368385601135,-1.0,nan,nan,nan,nan,nan,nan,nan,nan,2720.09532217,2829.0309525,nan,2829.34140265,nan,nan,nan,nan
1,94,1,1,1.0,1.0,0.232656929235,0,0.0,0.0,0.0,0.253948304417,0.0604021943442,0.193546110072,0.314350498761,0.0604021943442,0.27579137454,303,0.0191349273956,0.402522842081,0.512018356663,nan,nan,nan,nan,nan,nan,nan,nan,2720.09532217,2829.97273781,nan,2830.20539474,nan,nan,nan,nan
1,95,1,1,1.0,1.0,0.18685054715,0,0.0,0.0,0.0,0.253721800425,0.060119741568,0.193602058857,0.313841541993,0.060119741568,0.243319207686,177,1.0,-0.145192147526,0.306921212481,nan,nan,nan,nan,nan,nan,nan,nan,2720.09532217,2830.91452682,nan,2831.10137736,nan,nan,nan,nan
1,96,1,1,1.0,1.0,0.205049196491,0,0.0,0.0,0.0,0.253017892496,0.0601906380177,0.192827254478,0.313208530514,0.0601906380177,0.208185557625,462,0.432089675478,0.378486360879,-1.0,nan,nan,nan,nan,nan,nan,nan,nan,2720.09532217,2831.85630842,nan,2832.06135761,nan,nan,nan,nan
1,97,1,1,1.0,1.0,0.231251396937,0,0.0,0.0,0.0,0.252518218579,0.0600740647956,0.192444153784,0.312592283375,0.0600740647956,0.20771704686,314,-0.0594438881467,0.42463230952,0.441925406839,nan,nan,nan,nan,nan,nan,nan,nan,2720.09532217,2832.79809999,nan,2833.02935139,nan,nan,nan,nan
1,98,1,1,1.0,1.0,0.273453002155,0,0.0,0.0,0.0,0.252298972995,0.0598021969831,0.192496776012,0.312101169979,0.0598021969831,0.236584531861,241,0.64365311028,0.192605941253,0.644254782112,nan,nan,nan,nan,nan,nan,nan,nan,2720.09532217,2833.73988387,nan,2834.01333688,nan,nan,nan,nan
1,99,1,1,1.0,1.0,0.275647115021,0,0.0,0.0,0.0,0.252514830436,0.0595342719685,0.192980558467,0.312049102404,0.0595342719685,0.260117171371,409,0.0429436170054,0.464793150178,-0.529461854507,nan,nan,nan,nan,nan,nan,nan,nan,2720.09532217,2834.68166775,nan,2834.95731487,nan,nan,nan,nan
1,100,1,1,1.0,1.0,0.261840967869,0,0.0,0.0,0.0,0.252748489876,0.0592779782911,0.193470511585,0.312026468167,0.0592779782911,0.270313695015,149,1.0,-0.269478519393,0.0541436597792,nan,nan,nan,nan,nan,nan,nan,nan,2720.09532217,2835.62346133,nan,2835.88530229,nan,nan,nan,nan
1,101,1,1,1.0,1.0,0.216017194849,0,0.0,0.0,0.0,0.252839414656,0.0589877816791,0.193851632977,0.311827196335,0.0589877816791,0.251168425913,318,-0.0835627602325,0.431640264478,0.413481556053,nan,nan,nan,nan,nan,nan,nan,nan,2720.09532217,2836.56525347,nan,2836.78127067,nan,nan,nan,nan
1,102,1,1,1.0,1.0,0.186227893515,0,0.0,0.0,0.0,0.252474838222,0.0588081534473,0.193666684775,0.31128299167,0.0588081534473,0.221362018744,407,0.0305886347219,0.46645515455,-0.502577406972,nan,nan,nan,nan,nan,nan,nan,nan,2720.09532217,2837.50703935,nan,2837.69326724,nan,nan,nan,nan
1,103,1,1,1.0,1.0,0.196420140681,0,0.0,0.0,0.0,0.251825358372,0.0588820623945,0.192943295978,0.310707420767,0.0588820623945,0.199555076348,239,0.665069831863,0.183388857662,0.640549267122,nan,nan,nan,nan,nan,nan,nan,nan,2720.09532217,2838.44883093,nan,2838.64525107,nan,nan,nan,nan
1,104,1,1,1.0,1.0,0.18261171272,0,1.0,0.0,0.0,0.251287443637,0.0588468356328,0.192440608005,0.31013427927,0.0588468356328,0.188419915639,460,0.415848916989,0.383334931935,-1.0,nan,nan,nan,nan,nan,nan,nan,nan,2720.09532217,2839.39062222,nan,2839.57323393,nan,nan,nan,nan
1,105,1,1,1.0,1.0,0.18479784287,1,0.0,0.0,1.0,0.250627100071,0.0589454492789,0.191681650792,0.30957254935,0.0589454492789,0.187943232091,382,-0.1011887567,0.478291136399,-0.199732273247,-172.77181009,262.77181009,-5.82193990998,374.0,-0.132039125116,0.478634076427,-0.110628443238,1.36712588323,2720.09532217,2840.33240496,2841.14081495,2840.5172028,2843.54109628,2844.54178308,2842.15761148,2843.53276914
1,106,1,1,1.0,1.0,0.402169537381,0,0.0,0.0,0.0,0.250000154764,0.0590114664234,0.190988688341,0.309011621188,0.0590114664234,0.256526364324,55,1.0,-0.0599996532909,-1.0,nan,nan,nan,nan,nan,nan,nan,nan,2720.09532217,2844.68295469,nan,2845.08512422,nan,nan,nan,nan
1,107,1,1,1.0,1.0,0.308354962734,0,0.0,0.0,0.0,0.251435714978,0.0605465792535,0.190889135724,0.311982294231,0.0605465792535,0.298440780995,107,1.0,-0.290089771429,-0.379592780214,nan,nan,nan,nan,nan,nan,nan,nan,2720.09532217,2845.62475966,nan,2845.93311463,nan,nan,nan,nan
1,108,1,1,1.0,1.0,0.270541583246,0,0.0,1.0,0.0,0.251967670564,0.0605113473362,0.191456323228,0.3124790179,0.0605113473362,0.327022027787,380,-0.109519508899,0.478533032186,-0.177177385375,nan,nan,nan,nan,nan,nan,nan,nan,2720.09532217,2846.56654639,nan,2846.83708798,nan,nan,nan,nan
1,109,1,1,1.0,1.0,0.248750416213,1,0.0,0.0,1.0,0.252139651237,0.060256817166,0.191882834071,0.312396468403,0.060256817166,0.275882320731,440,0.258699398066,0.424657399123,-1.0,160.808715184,289.191284816,-20.1837151843,411.0,0.0555201669072,0.463022710015,-0.557054760163,0.925440362073,2720.09532217,2847.50833341,2848.31674682,2847.75708383,2850.27538853,2851.28085756,2849.33352311,2850.26699468
1,110,1,1,1.0,1.0,0.315486114589,0,0.0,0.0,0.0,0.252108557338,0.0599806432956,0.192127914042,0.312089200633,0.0599806432956,0.278259371349,132,1.0,-0.307426825298,-0.115555361894,nan,nan,nan,nan,nan,nan,nan,nan,2720.09532217,2851.42553074,nan,2851.74101685,nan,nan,nan,nan
1,111,1,1,1.0,1.0,0.30967610603,0,0.0,0.0,0.0,0.252684716949,0.0600096245554,0.192675092394,0.312694341505,0.0600096245554,0.291304212277,389,-0.0691208065164,0.476626077068,-0.280234315682,nan,nan,nan,nan,nan,nan,nan,nan,2720.09532217,2852.36729723,nan,2852.67697333,nan,nan,nan,nan
1,112,1,1,1.0,1.0,0.287862986559,0,0.0,0.0,0.0,0.253198152887,0.0599809137303,0.193217239156,0.313179066617,0.0599809137303,0.304341735726,278,0.248285521772,0.335802812283,0.621962573991,nan,nan,nan,nan,nan,nan,nan,nan,2720.09532217,2853.30908481,nan,2853.5969478,nan,nan,nan,nan
1,113,1,1,1.0,1.0,0.250067568209,0,0.0,0.0,0.0,0.25350766033,0.0598015119399,0.19370614839,0.31330917227,0.0598015119399,0.282535553599,473,0.522594813828,0.349396171415,-1.0,nan,nan,nan,nan,nan,nan,nan,nan,2720.09532217,2854.25087325,nan,2854.50094082,nan,nan,nan,nan
1,114,1,1,1.0,1.0,0.196263336868,0,0.0,0.0,0.0,0.253477217037,0.0595371871966,0.193940029841,0.313014404234,0.0595371871966,0.244731297212,108,1.0,-0.292426609412,-0.368663285579,nan,nan,nan,nan,nan,nan,nan,nan,2720.09532217,2855.19266455,nan,2855.38892788,nan,nan,nan,nan
1,115,1,1,1.0,1.0,0.222466107516,0,0.0,0.0,0.0,0.252975340895,0.0595150855343,0.193460255361,0.31249042643,0.0595150855343,0.222932337531,197,1.0,-0.035797595552,0.455774741445,nan,nan,nan,nan,nan,nan,nan,nan,2720.09532217,2856.13444985,nan,2856.35691596,nan,nan,nan,nan
1,116,1,1,1.0,1.0,0.216681472724,0,0.0,0.0,0.0,0.252710043214,0.0593234241876,0.193386619026,0.312033467401,0.0593234241876,0.211803639036,50,1.0,-0.033148730948,-1.0,nan,nan,nan,nan,nan,nan,nan,nan,2720.09532217,2857.07623744,nan,2857.29291891,nan,nan,nan,nan
1,117,1,1,1.0,1.0,0.21086604736,0,0.0,0.0,0.0,0.252399452089,0.0591609991618,0.193238452927,0.311560451251,0.0591609991618,0.2166712092,250,0.546428449327,0.232286661223,0.654747725831,nan,nan,nan,nan,nan,nan,nan,nan,2720.09532217,2858.01802645,nan,2858.2288925,nan,nan,nan,nan
1,118,0,0,0.0,1.0,0.349071208329,0,0.0,0.0,0.0,0.252044465724,0.0590315751557,0.193012890568,0.311076040879,0.0590315751557,0.258872909471,155,1.0,-0.2479831371,0.111611878621,nan,nan,nan,nan,nan,nan,nan,nan,2720.09532217,2858.95981375,nan,2859.30888496,nan,nan,nan,nan
1,119,1,1,1.0,1.0,0.263235951483,0,0.0,0.0,0.0,0.252866726254,0.0594499825923,0.193416743662,0.312316708847,0.0594499825923,0.274391069058,409,0.0429436170054,0.464793150178,-0.529461854507,nan,nan,nan,nan,nan,nan,nan,nan,2720.09532217,2859.9016002,nan,2860.16483615,nan,nan,nan,nan
1,120,1,1,1.0,1.0,0.273444449238,0,0.0,0.0,0.0,0.252953862601,0.0592072324153,0.193746630185,0.312161095016,0.0592072324153,0.29525053635,313,-0.0530221528698,0.42279583272,0.448797959603,nan,nan,nan,nan,nan,nan,nan,nan,2720.09532217,2860.84338978,nan,2861.11683423,nan,nan,nan,nan
1,121,1,1,1.0,1.0,0.227644909522,0,0.0,0.0,0.0,0.253124617489,0.0589894364368,0.194135181053,0.312114053926,0.0589894364368,0.254775103414,59,1.0,-0.0814409933332,-1.0,nan,nan,nan,nan,nan,nan,nan,nan,2720.09532217,2861.78518449,nan,2862.0128294,nan,nan,nan,nan
1,122,1,1,1.0,1.0,0.237846279808,0,0.0,0.0,0.0,0.25291404139,0.0587904447341,0.194123596656,0.311704486125,0.0587904447341,0.246311879523,214,0.920243657418,0.0575410437433,0.553854850604,nan,nan,nan,nan,nan,nan,nan,nan,2720.09532217,2862.72696923,nan,2862.96481551,nan,nan,nan,nan
1,123,1,1,1.0,1.0,0.296040162328,0,0.0,0.0,0.0,0.252790535148,0.0585647644803,0.194225770668,0.311355299628,0.0585647644803,0.253843783886,346,-0.174317561957,0.466431294057,0.176670174816,nan,nan,nan,nan,nan,nan,nan,nan,2720.09532217,2863.66875339,nan,2863.96479355,nan,nan,nan,nan
1,124,1,1,1.0,1.0,0.306230983988,0,0.0,0.0,0.0,0.253142158133,0.0584553740288,0.194686784104,0.311597532162,0.0584553740288,0.280039142041,441,0.266287261384,0.422891888867,-1.0,nan,nan,nan,nan,nan,nan,nan,nan,2720.09532217,2864.61054697,nan,2864.91677795,nan,nan,nan,nan
1,125,1,1,1.0,1.0,0.300420405227,0,0.0,0.0,0.0,0.253570293826,0.0584124984423,0.195157795383,0.311982792268,0.0584124984423,0.300897183847,348,-0.175384772129,0.468017843042,0.157582163916,nan,nan,nan,nan,nan,nan,nan,nan,2720.09532217,2865.55233284,nan,2865.85275325,nan,nan,nan,nan
1,126,1,1,1.0,1.0,0.270623121236,0,0.0,0.0,0.0,0.253945094717,0.0583278904323,0.195617204284,0.312272985149,0.0583278904323,0.292424836817,299,0.0516645560415,0.393417669654,0.534378752182,nan,nan,nan,nan,nan,nan,nan,nan,2720.09532217,2866.49412071,nan,2866.76474383,nan,nan,nan,nan
1,127,1,1,1.0,1.0,0.272819799895,0,0.0,0.0,0.0,0.254077460007,0.0581148151522,0.195962644854,0.312192275159,0.0581148151522,0.281287775453,358,-0.170583909915,0.474268316859,0.0585874414746,nan,nan,nan,nan,nan,nan,nan,nan,2720.09532217,2867.43590716,nan,2867.70872696,nan,nan,nan,nan
1,128,1,1,1.0,1.0,0.227008856309,0,0.0,0.0,0.0,0.254225037486,0.057909263033,0.196315774453,0.312134300519,0.057909263033,0.256817259147,293,0.103830259013,0.378659598285,0.564617056734,nan,nan,nan,nan,nan,nan,nan,nan,2720.09532217,2868.37770301,nan,2868.60471187,nan,nan,nan,nan
1,129,1,1,1.0,1.0,0.221221085347,0,0.0,0.0,0.0,0.254012411071,0.0577323594714,0.196280051599,0.311744770542,0.0577323594714,0.24034991385,196,1.0,-0.0413610816081,0.449130757868,nan,nan,nan,nan,nan,nan,nan,nan,2720.09532217,2869.31948547,nan,2869.54070655,nan,nan,nan,nan
1,130,1,1,1.0,1.0,0.239411466871,0,0.0,0.0,0.0,0.253758214747,0.0575800203469,0.1961781944,0.311338235094,0.0575800203469,0.229213802842,93,1.0,-0.245614297951,-0.538619881923,nan,nan,nan,nan,nan,nan,nan,nan,2720.09532217,2870.26127419,nan,2870.50068566,nan,nan,nan,nan
1,131,1,1,1.0,1.0,0.249612266955,0,0.0,0.0,0.0,0.253647855148,0.0573718252843,0.196276029864,0.311019680432,0.0573718252843,0.236748273058,464,0.448404880525,0.373503555275,-1.0,nan,nan,nan,nan,nan,nan,nan,nan,2720.09532217,2871.20306206,nan,2871.45267433,nan,nan,nan,nan
1,132,1,1,1.0,1.0,0.251800962957,0,0.0,0.0,0.0,0.253617049131,0.057153508664,0.196463540467,0.310770557795,0.057153508664,0.246941565594,387,-0.0787219327085,0.477231755363,-0.256974454483,nan,nan,nan,nan,nan,nan,nan,nan,2720.09532217,2872.14485193,nan,2872.39665289,nan,nan,nan,nan
1,133,1,1,1.0,1.0,0.229993545392,0,0.0,0.0,0.0,0.253603290903,0.0569368242783,0.196666466624,0.310540115181,0.0569368242783,0.243802258434,11,0.934659501434,0.163852895862,-1.0,nan,nan,nan,nan,nan,nan,nan,nan,2720.09532217,2873.08663781,nan,2873.31663135,nan,nan,nan,nan
1,134,1,1,1.0,1.0,0.168201158172,0,0.0,0.0,0.0,0.253425774019,0.0567590268087,0.19666674721,0.310184800828,0.0567590268087,0.216665222174,213,0.929785093221,0.0521668813814,0.548906519778,nan,nan,nan,nan,nan,nan,nan,nan,2720.09532217,2874.02842226,nan,2874.19662342,nan,nan,nan,nan
1,135,1,1,1.0,1.0,0.0823479401879,0,1.0,0.0,0.0,0.252789769423,0.0570205592294,0.195769210194,0.309810328653,0.0570205592294,0.160180881251,29,1.0,0.0770173926463,-1.0,nan,nan,nan,nan,nan,nan,nan,nan,2720.09532217,2874.97021982,nan,2875.05256776,nan,nan,nan,nan
1,136,0,0,1.0,0.0,0.0445770402439,0,0.0,0.0,0.0,0.251527237355,0.0586587967136,0.192868440641,0.310186034069,0.0586587967136,0.0983753795347,364,-0.160194321586,0.476704516321,-0.00341124574885,nan,nan,nan,nan,nan,nan,nan,nan,2720.09532217,2875.91200342,nan,2875.95658046,nan,nan,nan,nan
1,137,1,1,1.0,1.0,0.23076815618,0,0.0,0.0,0.0,0.250005544729,0.0610586035876,0.188946941142,0.311064148317,0.0610586035876,0.119231045537,106,1.0,-0.287630069369,-0.390564445695,nan,nan,nan,nan,nan,nan,nan,nan,2720.09532217,2876.85379214,nan,2877.0845603,nan,nan,nan,nan
1,138,1,1,1.0,1.0,0.26493713021,0,0.0,0.0,0.0,0.249865125835,0.0608573894551,0.18900773638,0.31072251529,0.0608573894551,0.180094108878,429,0.177531820842,0.442080780324,-0.901885199234,nan,nan,nan,nan,nan,nan,nan,nan,2720.09532217,2877.79560026,nan,2878.06053739,nan,nan,nan,nan
1,139,1,1,1.0,1.0,0.267170016363,0,0.0,0.0,0.0,0.249974343258,0.0606499646234,0.189324378634,0.310624307881,0.0606499646234,0.254291767584,213,0.929785093221,0.0521668813814,0.548906519778,nan,nan,nan,nan,nan,nan,nan,nan,2720.09532217,2878.73736389,nan,2879.00453391,nan,nan,nan,nan
1,140,1,1,1.0,1.0,0.261357727053,0,0.0,0.0,0.0,0.250098053136,0.0604488770695,0.189649176067,0.310546930206,0.0604488770695,0.264488291209,58,1.0,-0.0760896648475,-1.0,nan,nan,nan,nan,nan,nan,nan,nan,2720.09532217,2879.67916146,nan,2879.94051919,nan,nan,nan,nan
1,141,1,1,1.0,1.0,0.223539215804,0,0.0,0.0,0.0,0.250178479378,0.0602400644682,0.18993841491,0.310418543847,0.0602400644682,0.250688986407,177,1.0,-0.145192147526,0.306921212481,nan,nan,nan,nan,nan,nan,nan,nan,2720.09532217,2880.62094619,nan,2880.84448541,nan,nan,nan,nan
1,142,0,0,0.0,1.0,0.361742951267,0,0.0,0.0,0.0,0.249989548431,0.060067678661,0.18992186977,0.310057227092,0.060067678661,0.282213298041,467,0.473005185182,0.365775667588,-1.0,nan,nan,nan,nan,nan,nan,nan,nan,2720.09532217,2881.56272523,nan,2881.92446818,nan,nan,nan,nan
1,143,1,1,1.0,1.0,0.23593327339,0,0.0,0.0,0.0,0.250776544226,0.0605809109971,0.190195633228,0.311357455223,0.0605809109971,0.273738480154,221,0.851781464038,0.0945411604707,0.585422935822,nan,nan,nan,nan,nan,nan,nan,nan,2720.09532217,2882.50452621,nan,2882.74045949,nan,nan,nan,nan
1,144,1,1,1.0,1.0,0.278129746905,0,0.0,0.0,0.0,0.250672745129,0.0603813883438,0.190291356785,0.311054133473,0.0603813883438,0.291935323854,136,1.0,-0.301914900238,-0.074841205769,nan,nan,nan,nan,nan,nan,nan,nan,2720.09532217,2883.44631237,nan,2883.72444212,nan,nan,nan,nan
1,145,1,1,1.0,1.0,0.200317713025,0,0.0,0.0,0.0,0.250863418752,0.0602145513491,0.190648867403,0.311077970101,0.0602145513491,0.238126911107,462,0.432089675478,0.378486360879,-1.0,nan,nan,nan,nan,nan,nan,nan,nan,2720.09532217,2884.3881088,nan,2884.58842651,nan,nan,nan,nan
1,146,1,1,1.0,1.0,0.250458152208,0,0.0,0.0,0.0,0.250514827678,0.0601521819793,0.190362645699,0.310667009658,0.0601521819793,0.242968537379,356,-0.17284377641,0.473239407326,0.0788368070227,nan,nan,nan,nan,nan,nan,nan,nan,2720.09532217,2885.32994599,nan,2885.58040414,nan,nan,nan,nan
1,147,1,1,1.0,1.0,0.244703167526,0,0.0,0.0,0.0,0.25051443949,0.0599458275843,0.190568611906,0.310460267074,0.0599458275843,0.231826344253,310,-0.032854544558,0.417080732083,0.468828018046,nan,nan,nan,nan,nan,nan,nan,nan,2720.09532217,2886.27168083,nan,2886.516384,nan,nan,nan,nan
1,148,1,1,1.0,1.0,0.190929441713,0,0.0,0.0,0.0,0.250474907028,0.0597434918827,0.190731415145,0.310218398911,0.0597434918827,0.228696920482,175,1.0,-0.155629953633,0.290361762956,nan,nan,nan,nan,nan,nan,nan,nan,2720.09532217,2887.21346671,nan,2887.40439615,nan,nan,nan,nan
1,149,0,0,1.0,0.0,0.193108159292,0,0.0,0.0,0.0,0.250072572803,0.0597408012904,0.190331771512,0.309813374093,0.0597408012904,0.209580256177,72,1.0,-0.149607777062,-0.853203742106,nan,nan,nan,nan,nan,nan,nan,nan,2720.09532217,2888.15525202,nan,2888.34836017,nan,nan,nan,nan
1,150,1,1,1.0,1.0,0.235328580951,0,0.0,0.0,0.0,0.249690261303,0.0597213743397,0.189968886963,0.309411635642,0.0597213743397,0.206455393985,444,0.289241202529,0.417409780569,-1.0,nan,nan,nan,nan,nan,nan,nan,nan,2720.09532217,2889.0970282,nan,2889.33235678,nan,nan,nan,nan
1,151,1,1,1.0,1.0,0.253501571482,0,0.0,0.0,0.0,0.249594516767,0.0595334428822,0.190061073885,0.309127959649,0.0595334428822,0.227312770575,256,0.481312611765,0.257047908656,0.656065722404,nan,nan,nan,nan,nan,nan,nan,nan,2720.09532217,2890.03882947,nan,2890.29233104,nan,nan,nan,nan
1,152,1,1,1.0,1.0,0.239711674862,0,0.0,0.0,0.0,0.249620391301,0.0593368310398,0.190283560262,0.308957222341,0.0593368310398,0.242847275765,406,0.0244967455079,0.467245700284,-0.489366101921,nan,nan,nan,nan,nan,nan,nan,nan,2720.09532217,2890.98061278,nan,2891.22032445,nan,nan,nan,nan
1,153,1,1,1.0,1.0,0.225853639888,0,0.0,0.0,0.0,0.249555202378,0.0591467468028,0.190408455575,0.30870194918,0.0591467468028,0.239688962077,227,0.791019951953,0.125257787881,0.608066708266,nan,nan,nan,nan,nan,nan,nan,nan,2720.09532217,2891.92244541,nan,2892.14829905,nan,nan,nan,nan
1,154,1,1,1.0,1.0,0.204069030122,0,0.0,0.0,0.0,0.249400290204,0.0589840687653,0.190416221439,0.30838435897,0.0589840687653,0.22321144829,382,-0.1011887567,0.478291136399,-0.199732273247,nan,nan,nan,nan,nan,nan,nan,nan,2720.09532217,2892.86422615,nan,2893.06829518,nan,nan,nan,nan
1,155,1,1,1.0,1.0,0.174305672757,0,0.0,0.0,0.0,0.249105931373,0.0589048867841,0.190201044589,0.308010818157,0.0589048867841,0.201409447589,502,0.764740937618,0.25241357569,-1.0,nan,nan,nan,nan,nan,nan,nan,nan,2720.09532217,2893.80598494,nan,2893.98029062,nan,nan,nan,nan
1,156,1,1,1.0,1.0,0.208480348811,0,0.0,0.0,0.0,0.248623349059,0.0590191864491,0.18960416261,0.307642535508,0.0590191864491,0.195618350563,362,-0.164239727892,0.476000155386,0.0174578511848,nan,nan,nan,nan,nan,nan,nan,nan,2720.09532217,2894.7477751,nan,2894.95625545,nan,nan,nan,nan
1,157,1,1,1.0,1.0,0.218662332452,0,0.0,0.0,0.0,0.248366022134,0.0589168856018,0.189449136533,0.307282907736,0.0589168856018,0.200482784673,432,0.199227897075,0.437687328843,-1.0,nan,nan,nan,nan,nan,nan,nan,nan,2720.09532217,2895.6895604,nan,2895.90822273,nan,nan,nan,nan
1,158,1,1,1.0,1.0,0.188905532297,0,0.0,0.0,0.0,0.248176826659,0.0587764737579,0.189400352901,0.306953300417,0.0587764737579,0.20534940452,25,1.0,0.0970682892709,-1.0,nan,nan,nan,nan,nan,nan,nan,nan,2720.09532217,2896.63134257,nan,2896.8202481,nan,nan,nan,nan
1,159,1,1,1.0,1.0,0.2310381438,0,0.0,0.0,0.0,0.247801691884,0.0587784215548,0.189023270329,0.306580113439,0.0587784215548,0.212868669517,347,-0.174938837379,0.46723881498,0.167157479366,nan,nan,nan,nan,nan,nan,nan,nan,2720.09532217,2897.57314327,nan,2897.80418142,nan,nan,nan,nan
1,160,1,1,1.0,1.0,0.273248872138,0,0.0,0.0,0.0,0.247696260764,0.0586082773653,0.189087983399,0.306304538129,0.0586082773653,0.231064182745,135,1.0,-0.303502321856,-0.0849788702499,nan,nan,nan,nan,nan,nan,nan,nan,2720.09532217,2898.51492801,nan,2898.78817688,nan,nan,nan,nan
1,161,1,1,1.0,1.0,0.235448607127,0,0.0,0.0,0.0,0.247855964585,0.0584595347782,0.189396429807,0.306315499364,0.0584595347782,0.246578541022,280,0.228089347314,0.342018854333,0.61587222022,nan,nan,nan,nan,nan,nan,nan,nan,2720.09532217,2899.45671531,nan,2899.69216392,nan,nan,nan,nan
1,162,1,1,1.0,1.0,0.26158266922,0,0.0,0.0,0.0,0.247778900253,0.0582858526346,0.189493047619,0.306064752888,0.0582858526346,0.256760049495,204,1.0,0.00303256528985,0.499654420455,nan,nan,nan,nan,nan,nan,nan,nan,2720.09532217,2900.39856647,nan,2900.66014914,nan,nan,nan,nan
1,163,1,1,1.0,1.0,0.271861586138,0,0.0,0.0,0.0,0.247864108704,0.0581157373999,0.189748371304,0.305979846104,0.0581157373999,0.256297620828,414,0.0747837862165,0.460162189034,-0.600089175003,nan,nan,nan,nan,nan,nan,nan,nan,2720.09532217,2901.34027537,nan,2901.61213696,nan,nan,nan,nan
1,164,1,1,1.0,1.0,0.226033536659,0,0.0,0.0,0.0,0.248011332492,0.0579674889396,0.190043843552,0.305978821431,0.0579674889396,0.253159264006,17,0.981069150956,0.135921910835,-1.0,nan,nan,nan,nan,nan,nan,nan,nan,2720.09532217,2902.28208206,nan,2902.50811559,nan,nan,nan,nan
1,165,1,1,1.0,1.0,0.25226966379,0,0.0,0.0,0.0,0.247877321541,0.0578158099,0.190061511641,0.305693131441,0.0578158099,0.250054928862,445,0.296953900578,0.415520102116,-1.0,nan,nan,nan,nan,nan,nan,nan,nan,2720.09532217,2903.22383173,nan,2903.47610139,nan,nan,nan,nan
1,166,0,0,1.0,0.0,0.254433556285,0,0.0,0.0,0.0,0.247903941797,0.057641352325,0.190262589473,0.305545294122,0.057641352325,0.244245585578,37,1.0,0.0358565504353,-1.0,nan,nan,nan,nan,nan,nan,nan,nan,2720.09532217,2904.16565552,nan,2904.42008908,nan,nan,nan,nan
1,167,1,1,1.0,1.0,0.328643379093,0,0.0,0.0,0.0,0.247943276825,0.0574696927026,0.190473584122,0.305412969527,0.0574696927026,0.278448866389,145,1.0,-0.281667413287,0.0150551701241,nan,nan,nan,nan,nan,nan,nan,nan,2720.09532217,2905.10742343,nan,2905.43606681,nan,nan,nan,nan
1,168,1,1,1.0,1.0,0.266817350348,0,0.0,0.0,0.0,0.24842651097,0.0576346429644,0.190791868005,0.306061153934,0.0576346429644,0.283298095242,506,0.797774742377,0.236703125255,-1.0,nan,nan,nan,nan,nan,nan,nan,nan,2720.09532217,2906.04923155,nan,2906.3160489,nan,nan,nan,nan
1,169,1,1,1.0,1.0,0.293006721477,0,0.0,0.0,0.0,0.248535980252,0.0574802660428,0.191055714209,0.306016246295,0.0574802660428,0.296155816972,423,0.135229581944,0.450080889006,-0.750039916123,nan,nan,nan,nan,nan,nan,nan,nan,2720.09532217,2906.99102427,nan,2907.28403099,nan,nan,nan,nan
1,170,1,1,1.0,1.0,0.335137052229,0,0.0,0.0,0.0,0.248799120732,0.0574113543676,0.191387766365,0.3062104751,0.0574113543676,0.298320374684,367,-0.15309091083,0.477560897992,-0.0350816338538,nan,nan,nan,nan,nan,nan,nan,nan,2720.09532217,2907.9328703,nan,2908.26800735,nan,nan,nan,nan
1,171,1,1,1.0,1.0,0.305384813633,0,0.0,1.0,0.0,0.249306990918,0.0576217452876,0.19168524563,0.306928736205,0.0576217452876,0.31117619578,158,1.0,-0.235949227405,0.139764106,nan,nan,nan,nan,nan,nan,nan,nan,2720.09532217,2908.87460029,nan,2909.17998511,nan,nan,nan,nan
1,172,1,1,1.0,1.0,0.275584393472,1,0.0,0.0,1.0,0.249634931401,0.0576119034215,0.19202302798,0.307246834823,0.0576119034215,0.305368753111,331,-0.143297839787,0.450801753776,0.311166711333,-152.318938432,242.318938432,9.58456343151,345.0,-0.173519535469,0.465595146217,0.186119282857,1.58380963677,2720.09532217,2909.81639301,2910.62479986,2910.0919774,2913.23343411,2914.24141,2911.633257,2913.22509927
1,173,1,1,1.0,1.0,0.276226148708,0,0.0,0.0,0.0,0.249785800367,0.0574780510041,0.192307749363,0.307263851371,0.0574780510041,0.285731785271,508,0.814199817736,0.228638933499,-1.0,nan,nan,nan,nan,nan,nan,nan,nan,2720.09532217,2914.38364388,nan,2914.65987003,nan,nan,nan,nan
1,174,0,0,0.0,1.0,0.310442449001,0,0.0,0.0,0.0,0.24993863475,0.057346728757,0.192591905993,0.307285363507,0.057346728757,0.287417663727,456,0.383612429175,0.392633185378,-1.0,nan,nan,nan,nan,nan,nan,nan,nan,2720.09532217,2915.32543289,nan,2915.63587534,nan,nan,nan,nan
1,175,1,1,1.0,1.0,0.240640238451,0,0.0,0.0,0.0,0.250286357821,0.0573643154585,0.192922042362,0.307650673279,0.0573643154585,0.275769612053,500,0.748145934353,0.260058294274,-1.0,nan,nan,nan,nan,nan,nan,nan,nan,2720.09532217,2916.26722076,nan,2916.507861,nan,nan,nan,nan
1,176,0,0,1.0,0.0,0.226798454125,0,0.0,0.0,0.0,0.250231237139,0.0572048035762,0.193026433563,0.307436040715,0.0572048035762,0.259293713859,297,0.0686262056446,0.388646276542,0.544904663634,nan,nan,nan,nan,nan,nan,nan,nan,2720.09532217,2917.2090132,nan,2917.43581165,nan,nan,nan,nan
1,177,1,1,1.0,1.0,0.301029374183,0,0.0,0.0,0.0,0.250098096326,0.0570692435821,0.193028852744,0.307167339908,0.0570692435821,0.256156022253,73,1.0,-0.1546788618,-0.830916872461,nan,nan,nan,nan,nan,nan,nan,nan,2720.09532217,2918.15079879,nan,2918.45182816,nan,nan,nan,nan
1,178,1,1,1.0,1.0,0.27922024607,0,0.0,0.0,0.0,0.250385843659,0.0570356953758,0.193350148283,0.307421539034,0.0570356953758,0.269016024792,377,-0.121259861678,0.478700828387,-0.143695900877,nan,nan,nan,nan,nan,nan,nan,nan,2720.09532217,2919.09258694,nan,2919.37180719,nan,nan,nan,nan
1,179,1,1,1.0,1.0,0.329407441255,0,0.0,0.0,0.0,0.250547834683,0.0569160745578,0.193631760126,0.307463909241,0.0569160745578,0.303219020502,84,1.0,-0.20765784414,-0.652191087791,nan,nan,nan,nan,nan,nan,nan,nan,2720.09532217,2920.03437282,nan,2920.36378026,nan,nan,nan,nan
1,180,1,1,1.0,1.0,0.25162933406,0,0.0,0.0,0.0,0.250988391145,0.0570604077682,0.193927983377,0.308048798913,0.0570604077682,0.286752340461,270,0.331159066004,0.309369715406,0.641393874915,nan,nan,nan,nan,nan,nan,nan,nan,2720.09532217,2920.97616069,nan,2921.22779002,nan,nan,nan,nan
1,181,1,1,1.0,1.0,0.285810852423,0,0.0,0.0,0.0,0.250991951939,0.0569017058244,0.194090246114,0.307893657763,0.0569017058244,0.288949209246,18,0.988682696815,0.131162580546,-1.0,nan,nan,nan,nan,nan,nan,nan,nan,2720.09532217,2921.91795255,nan,2922.20376341,nan,nan,nan,nan
1,182,1,1,1.0,1.0,0.32000035356,0,0.0,0.0,0.0,0.251184321555,0.0568029646902,0.194381356865,0.307987286245,0.0568029646902,0.285813513348,144,1.0,-0.284423189345,0.00519445478499,nan,nan,nan,nan,nan,nan,nan,nan,2720.09532217,2922.85974299,nan,2923.17974334,nan,nan,nan,nan
1,183,1,1,1.0,1.0,0.266205245338,0,0.0,0.0,0.0,0.251562431621,0.0568746465556,0.194687785065,0.308437078176,0.0568746465556,0.290672150441,406,0.0244967455079,0.467245700284,-0.489366101921,nan,nan,nan,nan,nan,nan,nan,nan,2720.09532217,2923.80152887,nan,2924.06773411,nan,nan,nan,nan
1,184,1,1,1.0,1.0,0.23642221617,0,0.0,0.0,0.0,0.251642446996,0.0567293096504,0.194913137346,0.308371756647,0.0567293096504,0.27420927169,235,0.707591924495,0.164537776567,0.631659631194,nan,nan,nan,nan,nan,nan,nan,nan,2720.09532217,2924.74328851,nan,2924.97971073,nan,nan,nan,nan
1,185,1,1,1.0,1.0,0.254584943177,0,0.0,0.0,0.0,0.25155972835,0.0565860091482,0.194973719202,0.308145737499,0.0565860091482,0.252404134895,328,-0.132159558243,0.44685796506,0.336046158271,nan,nan,nan,nan,nan,nan,nan,nan,2720.09532217,2925.68510632,nan,2925.93969126,nan,nan,nan,nan
1,186,1,1,1.0,1.0,0.232802614279,0,0.0,0.0,0.0,0.251576080863,0.0564333026951,0.195142778168,0.308009383558,0.0564333026951,0.241269924542,214,0.920243657418,0.0575410437433,0.553854850604,nan,nan,nan,nan,nan,nan,nan,nan,2720.09532217,2926.6268825,nan,2926.85968512,nan,nan,nan,nan
1,187,1,1,1.0,1.0,0.202981096867,0,0.0,0.0,0.0,0.251475148247,0.0562981365842,0.195177011663,0.307773284831,0.0562981365842,0.230122884774,322,-0.105067232891,0.43811622051,0.383559350674,nan,nan,nan,nan,nan,nan,nan,nan,2720.09532217,2927.56868121,nan,2927.7716623,nan,nan,nan,nan
1,188,1,1,1.0,1.0,0.205214553222,0,0.0,0.0,0.0,0.251215821769,0.0562586849499,0.194957136819,0.307474506719,0.0562586849499,0.213666088122,268,0.35230222188,0.302367520405,0.645005310408,nan,nan,nan,nan,nan,nan,nan,nan,2720.09532217,2928.51044,nan,2928.71565455,nan,nan,nan,nan
1,189,0,0,0.0,1.0,0.34336839657,0,0.0,0.0,0.0,0.25097113417,0.0562085436834,0.194762590487,0.307179677854,0.0562085436834,0.250521348886,161,1.0,-0.223158351501,0.167490545043,nan,nan,nan,nan,nan,nan,nan,nan,2720.09532217,2929.45226037,nan,2929.79562877,nan,nan,nan,nan
1,190,1,1,1.0,1.0,0.209551176231,0,0.0,0.0,0.0,0.251460008575,0.056458973045,0.19500103553,0.30791898162,0.056458973045,0.252711375341,207,0.985653507947,0.0195431921708,0.51699622314,nan,nan,nan,nan,nan,nan,nan,nan,2720.09532217,2930.39404967,nan,2930.60360084,nan,nan,nan,nan
1,191,1,1,1.0,1.0,0.0837762803421,0,0.0,0.0,0.0,0.251239435773,0.0563917902633,0.194847645509,0.307631226036,0.0563917902633,0.212231951048,448,0.32026743599,0.409662251776,-1.0,nan,nan,nan,nan,nan,nan,nan,nan,2720.09532217,2931.33583412,nan,2931.4196104,nan,nan,nan,nan
1,192,1,1,1.0,1.0,0.165963140258,0,1.0,0.0,0.0,0.250362665325,0.0575277553504,0.192834909975,0.307890420676,0.0575277553504,0.15309686561,247,0.578947625354,0.219392674348,0.6523805853,nan,nan,nan,nan,nan,nan,nan,nan,2720.09532217,2932.27762455,nan,2932.44358769,nan,nan,nan,nan
1,193,1,1,1.0,1.0,0.192120010208,1,0.0,0.0,1.0,0.249923084466,0.0576984673949,0.192224617071,0.307621551861,0.0576984673949,0.147286476936,409,0.0429436170054,0.464793150178,-0.529461854507,171.792783588,278.207216412,-9.37090858808,396.0,-0.0330153705648,0.473684876347,-0.363523780775,1.4254469194,2720.09532217,2933.21941299,2934.02782726,2933.41153301,2936.4947733,2937.5006084,2935.05294894,2936.48643904
1,194,1,1,1.0,1.0,0.342539332109,0,0.0,0.0,0.0,0.249623586672,0.0576982325825,0.191925354089,0.307321819254,0.0576982325825,0.233540827525,208,0.97651257568,0.025020743352,0.522574479073,nan,nan,nan,nan,nan,nan,nan,nan,2720.09532217,2937.64494915,nan,2937.98748848,nan,nan,nan,nan
1,195,1,1,1.0,1.0,0.312681322219,0,0.0,0.0,0.0,0.250102533813,0.0579327035975,0.192169830216,0.30803523741,0.0579327035975,0.282446888178,379,-0.113535935895,0.478614986251,-0.165970515924,nan,nan,nan,nan,nan,nan,nan,nan,2720.09532217,2938.58677351,nan,2938.89945484,nan,nan,nan,nan
1,196,1,1,1.0,1.0,0.314873439376,0,0.0,1.0,0.0,0.250423450677,0.0579565912942,0.192466859382,0.308380041971,0.0579565912942,0.323364697901,305,0.00361192545304,0.406859252708,0.500196907155,nan,nan,nan,nan,nan,nan,nan,nan,2720.09532217,2939.52856224,nan,2939.84343568,nan,nan,nan,nan
1,197,0,0,0.0,1.0,0.405054157192,1,0.0,0.0,1.0,0.25075227715,0.0579906339507,0.192761643199,0.3087429111,0.0579906339507,0.344202972929,135,1.0,-0.303502321856,-0.0849788702499,-35.9650049995,125.965005,31.0431299995,179.0,1.0,-0.13461441766,0.323204131591,1.26709503564,2720.09532217,2940.47037691,2941.2787601,2940.87543107,2943.58735397,2944.59849588,2942.3038832,2943.57902541
1,198,1,1,1.0,1.0,0.321757411351,0,0.0,0.0,0.0,0.251535535424,0.0588734891884,0.192662046235,0.310409024612,0.0588734891884,0.347228335973,340,-0.166837174664,0.460980112934,0.232376404312,nan,nan,nan,nan,nan,nan,nan,nan,2720.09532217,2944.73760708,nan,2945.05936449,nan,nan,nan,nan
1,199,0,0,0.0,1.0,0.371971120709,0,0.0,0.0,0.0,0.251890191363,0.0589352276669,0.192954963696,0.31082541903,0.0589352276669,0.366260896417,158,1.0,-0.235949227405,0.139764106,nan,nan,nan,nan,nan,nan,nan,nan,2720.09532217,2945.67935618,nan,2946.0513273,nan,nan,nan,nan
1,200,1,1,1.0,1.0,0.334180834121,0,0.0,0.0,0.0,0.252493613118,0.0593969890806,0.193096624038,0.311890602199,0.0593969890806,0.342636455394,374,-0.132039125116,0.478634076427,-0.110628443238,nan,nan,nan,nan,nan,nan,nan,nan,2720.09532217,2946.62114348,nan,2946.95532432,nan,nan,nan,nan
1,201,1,1,1.0,1.0,0.288348793227,0,0.0,0.0,0.0,0.252902049223,0.059527804349,0.193374244875,0.312429853572,0.059527804349,0.331500249352,35,1.0,0.0462653595507,-1.0,nan,nan,nan,nan,nan,nan,nan,nan,2720.09532217,2947.56293078,nan,2947.85127958,nan,nan,nan,nan
1,202,1,1,1.0,1.0,0.274569160189,0,0.0,0.0,0.0,0.253078401184,0.0594318924836,0.1936465087,0.312510293667,0.0594318924836,0.299032929179,459,0.407758158413,0.385709174134,-1.0,nan,nan,nan,nan,nan,nan,nan,nan,2720.09532217,2948.50472093,nan,2948.7792901,nan,nan,nan,nan
1,203,1,1,1.0,1.0,0.276773821621,0,0.0,0.0,0.0,0.25318479108,0.0593037860062,0.193881005074,0.312488577086,0.0593037860062,0.279897258345,57,1.0,-0.0707313323512,-1.0,nan,nan,nan,nan,nan,nan,nan,nan,2720.09532217,2949.4465071,nan,2949.72328092,nan,nan,nan,nan
1,204,0,0,1.0,0.0,0.214962332917,0,0.0,0.0,0.0,0.253300993201,0.05918058638,0.194120406821,0.312481579581,0.05918058638,0.255435104909,291,0.122027637739,0.373441943191,0.573791926984,nan,nan,nan,nan,nan,nan,nan,nan,2720.09532217,2950.38829696,nan,2950.6032593,nan,nan,nan,nan
1,205,1,1,1.0,1.0,0.201159606921,0,0.0,0.0,0.0,0.253113058591,0.0590960515079,0.194017007084,0.312209110099,0.0590960515079,0.230965253819,88,1.0,-0.225257592204,-0.599932847766,nan,nan,nan,nan,nan,nan,nan,nan,2720.09532217,2951.33009567,nan,2951.53125527,nan,nan,nan,nan
1,206,1,1,1.0,1.0,0.259346932115,0,0.0,0.0,0.0,0.25285962712,0.0590627623383,0.193796864782,0.311922389458,0.0590627623383,0.225156290651,347,-0.174938837379,0.46723881498,0.167157479366,nan,nan,nan,nan,nan,nan,nan,nan,2720.09532217,2952.27187527,nan,2952.5312222,nan,nan,nan,nan
1,207,1,1,1.0,1.0,0.19753230724,0,0.0,0.0,0.0,0.252891118892,0.0589209569798,0.193970161912,0.311812075871,0.0589209569798,0.219346282092,126,1.0,-0.311411754845,-0.177408431044,nan,nan,nan,nan,nan,nan,nan,nan,2720.09532217,2953.21367255,nan,2953.41120486,nan,nan,nan,nan
1,208,1,1,1.0,1.0,0.255731891782,0,0.0,0.0,0.0,0.252623685019,0.0589036592663,0.193720025753,0.311527344285,0.0589036592663,0.237537043712,390,-0.0641960347588,0.476284203309,-0.291947553613,nan,nan,nan,nan,nan,nan,nan,nan,2720.09532217,2954.15545757,nan,2954.41118946,nan,nan,nan,nan
1,209,1,1,1.0,1.0,0.281942074944,0,0.0,0.0,0.0,0.252638628321,0.0587622866456,0.193876341675,0.311400914966,0.0587622866456,0.245068757989,48,1.0,-0.0224273256894,-1.0,nan,nan,nan,nan,nan,nan,nan,nan,2720.09532217,2955.09724117,nan,2955.37918324,nan,nan,nan,nan
1,210,0,0,0.0,1.0,0.348126679251,0,0.0,0.0,0.0,0.252778836199,0.0586564036254,0.194122432574,0.311435239825,0.0586564036254,0.295266881993,120,1.0,-0.310161497659,-0.240162905937,nan,nan,nan,nan,nan,nan,nan,nan,2720.09532217,2956.03902619,nan,2956.38715286,nan,nan,nan,nan
1,211,1,1,1.0,1.0,0.246333642048,0,0.0,0.0,0.0,0.253232873547,0.0588835743983,0.194349299149,0.312116447945,0.0588835743983,0.292134132081,342,-0.170052622031,0.462913557708,0.21407524247,nan,nan,nan,nan,nan,nan,nan,nan,2720.09532217,2956.9808095,nan,2957.22714314,nan,nan,nan,nan
1,212,1,1,1.0,1.0,0.248524048598,0,0.0,0.0,0.0,0.253200175768,0.0587457851237,0.194454390644,0.311945960891,0.0587457851237,0.280994789966,249,0.557275547736,0.228026269286,0.654084877906,nan,nan,nan,nan,nan,nan,nan,nan,2720.09532217,2957.92261077,nan,2958.17113481,nan,nan,nan,nan
1,213,0,0,1.0,0.0,0.242717176094,0,0.0,0.0,0.0,0.253178118564,0.0586079457614,0.194570172803,0.311786064325,0.0586079457614,0.245858288913,178,1.0,-0.139919655122,0.315097826042,nan,nan,nan,nan,nan,nan,nan,nan,2720.09532217,2958.8643975,nan,2959.10711467,nan,nan,nan,nan
1,214,1,1,1.0,1.0,0.220915175392,0,0.0,0.0,0.0,0.253129006158,0.0584745791445,0.194654427013,0.311603585302,0.0584745791445,0.237385466695,366,-0.155593376329,0.477302029306,-0.0244766492797,nan,nan,nan,nan,nan,nan,nan,nan,2720.09532217,2959.80618138,nan,2960.02709655,nan,nan,nan,nan
1,215,0,0,0.0,1.0,0.319093742466,0,0.0,0.0,0.0,0.252978474238,0.0583791489225,0.194599325316,0.311357623161,0.0583791489225,0.260908697984,100,1.0,-0.270427092546,-0.457439896749,nan,nan,nan,nan,nan,nan,nan,nan,2720.09532217,2960.74797295,nan,2961.0670667,nan,nan,nan,nan
1,216,1,1,1.0,1.0,0.257305061561,0,0.0,0.0,0.0,0.253285987114,0.0584166929625,0.194869294151,0.311702680076,0.0584166929625,0.265771326473,204,1.0,0.00303256528985,0.499654420455,nan,nan,nan,nan,nan,nan,nan,nan,2720.09532217,2961.68975969,nan,2961.94706475,nan,nan,nan,nan
1,217,1,1,1.0,1.0,0.267489896098,0,0.0,0.0,0.0,0.25330459394,0.0582819508527,0.195022643087,0.311586544793,0.0582819508527,0.281296233375,478,0.56422249903,0.334793662244,-1.0,nan,nan,nan,nan,nan,nan,nan,nan,2720.09532217,2962.63154841,nan,2962.89903831,nan,nan,nan,nan
1,218,1,1,1.0,1.0,0.229689631145,0,0.0,0.0,0.0,0.253369963996,0.0581554419224,0.195214522074,0.311525405919,0.0581554419224,0.251494862935,329,-0.136053278316,0.448203788942,0.3278337444,nan,nan,nan,nan,nan,nan,nan,nan,2720.09532217,2963.57333828,nan,2963.80302791,nan,nan,nan,nan
1,219,1,1,1.0,1.0,0.239880167705,0,0.0,0.0,0.0,0.253261338616,0.0580439651916,0.195217373425,0.311305303808,0.0580439651916,0.245686564983,455,0.375608248681,0.394875365091,-1.0,nan,nan,nan,nan,nan,nan,nan,nan,2720.09532217,2964.51512358,nan,2964.75500375,nan,nan,nan,nan
1,220,1,1,1.0,1.0,0.274069953884,0,0.0,0.0,0.0,0.253200237379,0.0579183195628,0.195281917816,0.311118556942,0.0579183195628,0.247879917578,123,1.0,-0.311441137266,-0.208672863777,nan,nan,nan,nan,nan,nan,nan,nan,2720.09532217,2965.45691545,nan,2965.7309854,nan,nan,nan,nan
1,221,1,1,1.0,1.0,0.244272669835,0,0.0,0.0,0.0,0.253295099727,0.0578035865744,0.195491513152,0.311098686301,0.0578035865744,0.252740930475,324,-0.114799643766,0.441158325109,0.368064040095,nan,nan,nan,nan,nan,nan,nan,nan,2720.09532217,2966.39871073,nan,2966.6429834,nan,nan,nan,nan
1,222,1,1,1.0,1.0,0.222465252271,0,0.0,0.0,0.0,0.253254274252,0.0576758398286,0.195578434424,0.310930114081,0.0576758398286,0.246935958664,14,0.95801504718,0.150023555696,-1.0,nan,nan,nan,nan,nan,nan,nan,nan,2720.09532217,2967.3404949,nan,2967.56296015,nan,nan,nan,nan
1,223,1,1,1.0,1.0,0.224653948273,0,0.0,0.0,0.0,0.253115584964,0.0575827155253,0.195532869439,0.310698300489,0.0575827155253,0.230463956793,59,1.0,-0.0814409933332,-1.0,nan,nan,nan,nan,nan,nan,nan,nan,2720.09532217,2968.28227935,nan,2968.50693329,nan,nan,nan,nan
1,224,1,1,1.0,1.0,0.186865372234,0,0.0,0.0,0.0,0.252987954306,0.0574849240692,0.195503030237,0.310472878375,0.0574849240692,0.211328190926,493,0.689769084006,0.285700779988,-1.0,nan,nan,nan,nan,nan,nan,nan,nan,2720.09532217,2969.22406893,nan,2969.4109343,nan,nan,nan,nan
1,225,1,1,1.0,1.0,0.293057468836,0,0.0,0.0,0.0,0.252692764208,0.057525609808,0.1951671544,0.310218374016,0.057525609808,0.234858929781,24,1.0,0.102019060141,-1.0,nan,nan,nan,nan,nan,nan,nan,nan,2720.09532217,2970.16585452,nan,2970.45891199,nan,nan,nan,nan
1,226,1,1,1.0,1.0,0.295246164838,0,0.0,0.0,0.0,0.252872162895,0.0574603988683,0.195411764027,0.310332561763,0.0574603988683,0.258389668636,411,0.0555201669072,0.463022710015,-0.557054760163,nan,nan,nan,nan,nan,nan,nan,nan,2720.09532217,2971.10764923,nan,2971.4028954,nan,nan,nan,nan
1,227,1,1,1.0,1.0,0.265447455342,0,0.0,0.0,0.0,0.253059658479,0.0574020726197,0.195657585859,0.310461731098,0.0574020726197,0.284583696339,104,1.0,-0.282351481576,-0.412644567278,nan,nan,nan,nan,nan,nan,nan,nan,2720.09532217,2972.04943226,nan,2972.31487971,nan,nan,nan,nan
1,228,1,1,1.0,1.0,0.32363592094,0,0.0,0.0,0.0,0.253114230271,0.0572813719965,0.195832858275,0.310395602268,0.0572813719965,0.294776513707,20,1.0,0.121558187834,-1.0,nan,nan,nan,nan,nan,nan,nan,nan,2720.09532217,2972.99122241,nan,2973.31485833,nan,nan,nan,nan
1,229,1,1,1.0,1.0,0.245840707852,0,0.0,0.0,0.0,0.253423535932,0.057345284311,0.196078251621,0.310768820243,0.057345284311,0.278308028045,195,1.0,-0.0469245268387,0.442396054288,nan,nan,nan,nan,nan,nan,nan,nan,2720.09532217,2973.93301142,nan,2974.17885213,nan,nan,nan,nan
1,230,1,1,1.0,1.0,0.256024116999,0,0.0,0.0,0.0,0.253390423145,0.0572221237199,0.196168299426,0.310612546865,0.0572221237199,0.275166915264,285,0.178734351563,0.356878681702,0.598527012995,nan,nan,nan,nan,nan,nan,nan,nan,2720.09532217,2974.87479901,nan,2975.13082312,nan,nan,nan,nan
1,231,1,1,1.0,1.0,0.314214293205,0,0.0,0.0,0.0,0.253401873988,0.0570978552341,0.196304018754,0.310499729222,0.0570978552341,0.272026372685,337,-0.160643365934,0.457858386897,0.259303564052,nan,nan,nan,nan,nan,nan,nan,nan,2720.09532217,2975.81658431,nan,2976.1307986,nan,nan,nan,nan
1,232,1,1,1.0,1.0,0.26044940541,0,0.0,0.0,0.0,0.253665131214,0.0571138495292,0.196551281685,0.310778980744,0.0571138495292,0.276895938538,16,0.973419431522,0.140652110383,-1.0,nan,nan,nan,nan,nan,nan,nan,nan,2720.09532217,2976.7583488,nan,2977.01879821,nan,nan,nan,nan
1,233,1,1,1.0,1.0,0.302604254568,0,0.0,0.0,0.0,0.253694373776,0.0569923594261,0.196702014349,0.310686733202,0.0569923594261,0.292422651061,381,-0.105403061426,0.478425078289,-0.188431136224,nan,nan,nan,nan,nan,nan,nan,nan,2720.09532217,2977.70016462,nan,2978.00276887,nan,nan,nan,nan
1,234,1,1,1.0,1.0,0.392811201338,0,0.0,1.0,0.0,0.253904287427,0.0569597344879,0.196944552939,0.310864021915,0.0569597344879,0.318621620439,476,0.547545041103,0.340739382997,-1.0,nan,nan,nan,nan,nan,nan,nan,nan,2720.09532217,2978.64194593,nan,2979.03475713,nan,nan,nan,nan
1,235,1,1,1.0,1.0,0.322995021066,1,0.0,0.0,1.0,0.254497906717,0.0575556407916,0.196942265926,0.312053547509,0.0575556407916,0.339470158991,100,1.0,-0.270427092546,-0.457439896749,15.3033474623,74.6966525377,4.3841525377,106.0,1.0,-0.287630069369,-0.390564445695,1.7671871222,2720.09532217,2979.58373922,2980.39215519,2979.90673424,2983.20083887,2984.20616906,2981.4172783,2983.19250176
1,236,1,1,1.0,1.0,0.283639832458,0,0.0,0.0,0.0,0.2547893838,0.0576058658168,0.197183517983,0.312395249616,0.0576058658168,0.333148684954,263,0.405698801511,0.284171736334,0.651829885785,nan,nan,nan,nan,nan,nan,nan,nan,2720.09532217,2984.35102726,nan,2984.6346671,nan,nan,nan,nan
1,237,1,1,1.0,1.0,0.261824147077,0,0.0,0.0,0.0,0.254911631463,0.0575142292256,0.197397402238,0.312425860689,0.0575142292256,0.289486333534,457,0.391639248186,0.390358177281,-1.0,nan,nan,nan,nan,nan,nan,nan,nan,2720.09532217,2985.29281143,nan,2985.55463558,nan,nan,nan,nan
1,238,1,1,1.0,1.0,0.248034820717,0,0.0,0.0,0.0,0.254940798196,0.0573945119409,0.197546286255,0.312335310137,0.0573945119409,0.264499600084,179,1.0,-0.13461441766,0.323204131591,nan,nan,nan,nan,nan,nan,nan,nan,2720.09532217,2986.23459673,nan,2986.48263156,nan,nan,nan,nan
1,239,0,0,1.0,0.0,0.25821708946,0,0.0,0.0,0.0,0.254911781484,0.0572755503279,0.197636231156,0.312187331812,0.0572755503279,0.256025352418,101,1.0,-0.273572672894,-0.446152610616,nan,nan,nan,nan,nan,nan,nan,nan,2720.09532217,2987.17639173,nan,2987.43460882,nan,nan,nan,nan
1,240,1,1,1.0,1.0,0.212411562679,0,0.0,0.0,0.0,0.254925611224,0.0571559996121,0.197769611612,0.312081610836,0.0571559996121,0.239554490952,309,-0.0258396312562,0.415106541901,0.475305697888,nan,nan,nan,nan,nan,nan,nan,nan,2720.09532217,2988.11817989,nan,2988.33059145,nan,nan,nan,nan
1,241,1,1,1.0,1.0,0.182598027983,0,0.0,0.0,0.0,0.254748469355,0.0571025063304,0.197645963025,0.311850975686,0.0571025063304,0.217742226707,80,1.0,-0.189075709245,-0.708965549488,nan,nan,nan,nan,nan,nan,nan,nan,2720.09532217,2989.05996776,nan,2989.24256579,nan,nan,nan,nan
1,242,1,1,1.0,1.0,0.248802874237,0,0.0,0.0,0.0,0.254449089931,0.0571723455785,0.197276744352,0.311621435509,0.0571723455785,0.214604154966,203,1.0,-0.00249325098487,0.493674673203,nan,nan,nan,nan,nan,nan,nan,nan,2720.09532217,2990.00175478,nan,2990.25055765,nan,nan,nan,nan
1,243,1,1,1.0,1.0,0.298995201243,0,0.0,0.0,0.0,0.254425758461,0.0570552483032,0.197370510158,0.311481006764,0.0570552483032,0.243465367821,116,1.0,-0.306446923025,-0.282515442494,nan,nan,nan,nan,nan,nan,nan,nan,2720.09532217,2990.94354322,nan,2991.24253842,nan,nan,nan,nan
1,244,1,1,1.0,1.0,0.269183377211,0,0.0,0.0,0.0,0.254609171806,0.0570091751139,0.197599996692,0.311618346919,0.0570091751139,0.272327150897,292,0.112881669716,0.376069582356,0.569261850688,nan,nan,nan,nan,nan,nan,nan,nan,2720.09532217,2991.8853328,nan,2992.15451618,nan,nan,nan,nan
1,245,1,1,1.0,1.0,0.303387133172,0,0.0,0.0,0.0,0.254668902156,0.0568998518539,0.197769050302,0.311568754009,0.0568998518539,0.290521903875,205,1.0,0.00854800403903,0.505535240796,nan,nan,nan,nan,nan,nan,nan,nan,2720.09532217,2992.82711582,nan,2993.13050296,nan,nan,nan,nan
1,246,1,1,1.0,1.0,0.305581816239,0,0.0,0.0,0.0,0.254867752078,0.0568685022687,0.197999249809,0.311736254347,0.0568685022687,0.292717442208,72,1.0,-0.149607777062,-0.853203742106,nan,nan,nan,nan,nan,nan,nan,nan,2720.09532217,2993.76890854,nan,2994.07449036,nan,nan,nan,nan
1,247,1,1,1.0,1.0,0.331793710007,0,0.0,1.0,0.0,0.25507390681,0.0568444592326,0.198229447578,0.311918366043,0.0568444592326,0.313587553139,225,0.81146624694,0.115131125244,0.600981946568,nan,nan,nan,nan,nan,nan,nan,nan,2720.09532217,2994.71068159,nan,2995.0424753,nan,nan,nan,nan
1,248,1,1,1.0,1.0,0.277976364247,1,0.0,0.0,1.0,0.255384513301,0.0569380679496,0.198446445352,0.312322581251,0.0569380679496,0.305117296831,494,0.698129958021,0.282143999684,-1.0,122.684981521,327.315018479,-20.0287315207,466.0,0.464789014893,0.368385601135,-1.0,1.6338232074,2720.09532217,2995.652484,2996.46089883,2995.93046036,2999.13622943,3000.13353355,2997.4860265,2999.12789859
1,249,1,1,1.0,1.0,0.300283558259,0,0.0,0.0,0.0,0.255475609474,0.05684119071,0.198634418764,0.312316800184,0.05684119071,0.303351210838,137,1.0,-0.300190217086,-0.0647316600203,nan,nan,nan,nan,nan,nan,nan,nan,2720.09532217,3000.27809325,nan,3000.57837681,nan,nan,nan,nan
1,250,1,1,1.0,1.0,0.302484228392,0,0.0,0.0,0.0,0.255655561076,0.056797678251,0.198857882825,0.312453239327,0.056797678251,0.293581383633,92,1.0,-0.241703663401,-0.55060883727,nan,nan,nan,nan,nan,nan,nan,nan,2720.09532217,3001.219872,nan,3001.52235623,nan,nan,nan,nan
1,251,1,1,1.0,1.0,0.280665977101,0,0.0,0.0,0.0,0.255842875745,0.0567609809573,0.199081894788,0.312603856702,0.0567609809573,0.294477921251,18,0.988682696815,0.131162580546,-1.0,nan,nan,nan,nan,nan,nan,nan,nan,2720.09532217,3002.16166073,nan,3002.44232671,nan,nan,nan,nan
1,252,0,0,0.0,1.0,0.370860949799,0,0.0,0.0,0.0,0.255941772563,0.0566693763167,0.199272396247,0.31261114888,0.0566693763167,0.318003718431,505,0.789537956352,0.240683140511,-1.0,nan,nan,nan,nan,nan,nan,nan,nan,2720.09532217,3003.10345117,nan,3003.47431212,nan,nan,nan,nan
1,253,1,1,1.0,1.0,0.269058789476,0,0.0,0.0,0.0,0.256397801044,0.0570164269744,0.19938137407,0.313414228019,0.0570164269744,0.306861905459,208,0.97651257568,0.025020743352,0.522574479073,nan,nan,nan,nan,nan,nan,nan,nan,2720.09532217,3004.0452359,nan,3004.31429469,nan,nan,nan,nan
1,254,1,1,1.0,1.0,0.271260885056,0,0.0,0.0,0.0,0.256447844477,0.0569091797492,0.199538664728,0.313357024226,0.0569091797492,0.303726874777,47,1.0,-0.0170755915744,-1.0,nan,nan,nan,nan,nan,nan,nan,nan,2720.09532217,3004.98702577,nan,3005.25828665,nan,nan,nan,nan
1,255,1,1,1.0,1.0,0.265449450992,0,0.0,0.0,0.0,0.256506163534,0.0568046178754,0.199701545659,0.31331078141,0.0568046178754,0.268589708508,271,0.320642857732,0.312811632898,0.639400143054,nan,nan,nan,nan,nan,nan,nan,nan,2720.09532217,3005.92881621,nan,3006.19426566,nan,nan,nan,nan
1,256,1,1,1.0,1.0,0.26766066975,0,0.0,0.0,0.0,0.25654123525,0.0566958822094,0.19984535304,0.313237117459,0.0566958822094,0.268123668599,315,-0.0657111424032,0.426434809442,0.434956515233,nan,nan,nan,nan,nan,nan,nan,nan,2720.09532217,3006.8706055,nan,3007.13826617,nan,nan,nan,nan
1,257,0,0,1.0,0.0,0.229844154092,0,0.0,0.0,0.0,0.256584670541,0.0565892905829,0.199995379958,0.313173961124,0.0565892905829,0.254318091611,159,1.0,-0.231765974528,0.149055008463,nan,nan,nan,nan,nan,nan,nan,nan,2720.09532217,3007.81238967,nan,3008.04223382,nan,nan,nan,nan
1,258,1,1,1.0,1.0,0.232028288534,0,0.0,0.0,0.0,0.256480621839,0.0565036175945,0.199977004244,0.312984239433,0.0565036175945,0.243177704125,505,0.789537956352,0.240683140511,-1.0,nan,nan,nan,nan,nan,nan,nan,nan,2720.09532217,3008.75419265,nan,3008.98622094,nan,nan,nan,nan
1,259,1,1,0.0,0.0,0.290296581574,0,0.0,0.0,0.0,0.256385845353,0.0564144722424,0.199971373111,0.312800317595,0.0564144722424,0.250723008066,125,1.0,-0.311567427947,-0.187805059354,nan,nan,nan,nan,nan,nan,nan,nan,2720.09532217,3009.69595686,nan,3009.98625344,nan,nan,nan,nan
1,260,1,1,1.0,1.0,0.236423926777,0,0.0,0.0,0.0,0.256516774837,0.0563447197918,0.200172055045,0.312861494628,0.0563447197918,0.252916265628,8,0.91102658764,0.177400941622,-1.0,nan,nan,nan,nan,nan,nan,nan,nan,2720.09532217,3010.6377567,nan,3010.87418063,nan,nan,nan,nan
1,261,1,1,1.0,1.0,0.302619934955,0,0.0,0.0,0.0,0.256439494652,0.0562500112446,0.200189483407,0.312689505896,0.0562500112446,0.276446814435,62,1.0,-0.0974372467467,-1.0,nan,nan,nan,nan,nan,nan,nan,nan,2720.09532217,3011.579546,nan,3011.88216593,nan,nan,nan,nan
1,262,0,0,1.0,0.0,0.232827132684,0,0.0,0.0,0.0,0.256616431205,0.0562145943391,0.200401836865,0.312831025544,0.0562145943391,0.257290331472,254,0.503011129055,0.248947817922,0.65613358125,nan,nan,nan,nan,nan,nan,nan,nan,2720.09532217,3012.52133159,nan,3012.75415872,nan,nan,nan,nan
1,263,1,1,1.0,1.0,0.227016268822,0,0.0,0.0,0.0,0.256525632355,0.056126384498,0.200399247857,0.312652016853,0.056126384498,0.254154445487,498,0.731507943485,0.267561876527,-1.0,nan,nan,nan,nan,nan,nan,nan,nan,2720.09532217,3013.4631226,nan,3013.69013887,nan,nan,nan,nan
1,264,1,1,1.0,1.0,0.317299906921,0,0.0,0.0,0.0,0.256413429452,0.0560490111147,0.200364418337,0.312462440567,0.0560490111147,0.259047769476,138,1.0,-0.29832987918,-0.0546508148191,nan,nan,nan,nan,nan,nan,nan,nan,2720.09532217,3014.40491303,nan,3014.72221294,nan,nan,nan,nan
1,265,1,1,1.0,1.0,0.255406880169,0,0.0,0.0,0.0,0.256644060049,0.0560676479934,0.200576412055,0.312711708042,0.0560676479934,0.266574351971,368,-0.150457169737,0.477793263397,-0.0457341785459,nan,nan,nan,nan,nan,nan,nan,nan,2720.09532217,3015.34670262,nan,3015.6021095,nan,nan,nan,nan
1,266,1,1,1.0,1.0,0.265592855169,0,0.0,0.0,0.0,0.256639391445,0.0559618114006,0.200677580045,0.312601202846,0.0559618114006,0.279433214086,475,0.539218753276,0.343659807328,-1.0,nan,nan,nan,nan,nan,nan,nan,nan,2720.09532217,3016.28848735,nan,3016.55408021,nan,nan,nan,nan
1,267,1,1,1.0,1.0,0.227798292122,0,0.0,0.0,0.0,0.256673051083,0.0558592084876,0.200813842596,0.312532259571,0.0558592084876,0.249599342487,326,-0.12383419111,0.444071765824,0.352223541474,nan,nan,nan,nan,nan,nan,nan,nan,2720.09532217,3017.23027408,nan,3017.45807237,nan,nan,nan,nan
1,268,1,1,1.0,1.0,0.229993260291,0,0.0,0.0,0.0,0.256564905919,0.0557823969462,0.200782508972,0.312347302865,0.0557823969462,0.241128135861,240,0.654373017221,0.188015059697,0.642463954019,nan,nan,nan,nan,nan,nan,nan,nan,2720.09532217,3018.17206452,nan,3018.40205778,nan,nan,nan,nan
1,269,1,1,1.0,1.0,0.256197741604,0,0.0,0.0,0.0,0.256465757987,0.055701793255,0.200763964732,0.312167551242,0.055701793255,0.237996431339,111,1.0,-0.298677811705,-0.336106236365,nan,nan,nan,nan,nan,nan,nan,nan,2720.09532217,3019.11385096,nan,3019.37004871,nan,nan,nan,nan
1,270,1,1,1.0,1.0,0.250390298897,0,0.0,0.0,0.0,0.256464761644,0.0555981643145,0.200866597329,0.312062925958,0.0555981643145,0.245527100264,30,1.0,0.071945658744,-1.0,nan,nan,nan,nan,nan,nan,nan,nan,2720.09532217,3020.05564083,nan,3020.30603113,nan,nan,nan,nan
1,271,1,1,1.0,1.0,0.260567150777,0,0.0,0.0,0.0,0.256442263634,0.0554963359767,0.200945927657,0.31193859961,0.0554963359767,0.255718397093,386,-0.0833946583454,0.477495592553,-0.245424736514,nan,nan,nan,nan,nan,nan,nan,nan,2720.09532217,3020.99743212,nan,3021.25799927,nan,nan,nan,nan
1,272,1,1,1.0,1.0,0.238788243034,0,0.0,0.0,0.0,0.256457484619,0.0553944142,0.201063070419,0.311851898819,0.0553944142,0.249915230903,284,0.188465149253,0.353984098999,0.602236276499,nan,nan,nan,nan,nan,nan,nan,nan,2720.09532217,3021.93921344,nan,3022.17800168,nan,nan,nan,nan
1,273,1,1,1.0,1.0,0.29696929612,0,0.0,0.0,0.0,0.256392524172,0.0553028327063,0.201089691466,0.311695356879,0.0553028327063,0.26544156331,180,1.0,-0.129278616986,0.331238955499,nan,nan,nan,nan,nan,nan,nan,nan,2720.09532217,3022.88100616,nan,3023.17797545,nan,nan,nan,nan
1,274,1,1,1.0,1.0,0.267165739904,0,0.0,0.0,0.0,0.256541157037,0.0552558532007,0.201285303836,0.311797010237,0.0552558532007,0.267641093019,390,-0.0641960347588,0.476284203309,-0.291947553613,nan,nan,nan,nan,nan,nan,nan,nan,2720.09532217,3023.82279232,nan,3024.08995806,nan,nan,nan,nan
1,275,1,1,1.0,1.0,0.277347723546,0,0.0,0.0,0.0,0.256579932887,0.055158650155,0.201421282732,0.311738583042,0.055158650155,0.28049425319,474,0.530901762182,0.346545376391,-1.0,nan,nan,nan,nan,nan,nan,nan,nan,2720.09532217,3024.76458304,nan,3025.04193076,nan,nan,nan,nan
1,276,1,1,1.0,1.0,0.279552955239,0,0.0,0.0,0.0,0.256655452125,0.0550724595412,0.201582992584,0.311727911666,0.0550724595412,0.27468880623,6,0.895129075663,0.186272780825,-1.0,nan,nan,nan,nan,nan,nan,nan,nan,2720.09532217,3025.70637005,nan,3025.98592301,nan,nan,nan,nan
1,277,1,1,1.0,1.0,0.337741991039,0,0.0,0.0,0.0,0.256738414093,0.0549898126601,0.201748601433,0.311728226753,0.0549898126601,0.298214223275,491,0.673033477965,0.292707709811,-1.0,nan,nan,nan,nan,nan,nan,nan,nan,2720.09532217,3026.64815736,nan,3026.98589935,nan,nan,nan,nan
1,278,1,1,1.0,1.0,0.43593110668,0,0.0,1.0,0.0,0.257030845779,0.055105040243,0.201925805536,0.312135886022,0.055105040243,0.351075350986,31,1.0,0.0668515730764,-1.0,nan,nan,nan,nan,nan,nan,nan,nan,2720.09532217,3027.58994922,nan,3028.02588033,nan,nan,nan,nan
1,279,1,1,1.0,1.0,0.374113630853,1,0.0,0.0,1.0,0.257674371897,0.0560388742521,0.201635497645,0.313713246149,0.0560388742521,0.382595576191,330,-0.139766326074,0.449518327743,0.319540245599,-141.604835497,231.604835497,-0.426414503246,329.0,-0.136053278316,0.448203788942,0.3278337444,1.08374691528,2720.09532217,3028.53174165,3029.34014765,3028.90585528,3031.46539141,3032.47179356,3030.36527446,3031.45705629
1,280,1,1,1.0,1.0,0.338180756604,0,0.0,0.0,0.0,0.258091716911,0.0563695027523,0.201722214159,0.314461219664,0.0563695027523,0.382741831379,409,0.0429436170054,0.464793150178,-0.529461854507,nan,nan,nan,nan,nan,nan,nan,nan,2720.09532217,3032.61559491,nan,3032.95377566,nan,nan,nan,nan
1,281,1,1,1.0,1.0,0.316387878964,0,0.0,0.0,0.0,0.258377749196,0.056471220886,0.20190652831,0.314848970082,0.056471220886,0.342894088807,102,1.0,-0.276610342793,-0.434926949461,nan,nan,nan,nan,nan,nan,nan,nan,2720.09532217,3033.55738791,nan,3033.87377579,nan,nan,nan,nan
1,282,1,1,1.0,1.0,0.374568361905,0,0.0,1.0,0.0,0.258584190939,0.0564763944699,0.202107796469,0.315060585409,0.0564763944699,0.343045665824,195,1.0,-0.0469245268387,0.442396054288,nan,nan,nan,nan,nan,nan,nan,nan,2720.09532217,3034.49917379,nan,3034.87374215,nan,nan,nan,nan
1,283,1,1,1.0,1.0,0.400788238447,1,0.0,0.0,1.0,0.258995482325,0.056796185468,0.202199296857,0.315791667793,0.056796185468,0.363914826439,430,0.184725017221,0.440645728776,-0.941904167281,158.617948291,291.382051709,-10.9616982914,414.0,0.0747837862165,0.460162189034,-0.600089175003,1.09218124923,2720.09532217,3035.44096622,3036.24936908,3035.84175446,3038.36627772,3039.36687842,3037.25783021,3038.35797282
1,284,1,1,1.0,1.0,0.373498389788,0,0.0,0.0,0.0,0.259496516799,0.0573166650892,0.20217985171,0.316813181888,0.0573166650892,0.38295166338,77,1.0,-0.174593022316,-0.756267193339,nan,nan,nan,nan,nan,nan,nan,nan,2720.09532217,3039.50815779,nan,3039.88165618,nan,nan,nan,nan
1,285,0,0,0.0,1.0,0.367691802443,0,0.0,0.0,0.0,0.259897931845,0.0576127887191,0.202285143126,0.317510720564,0.0576127887191,0.380659476893,0,0.846831709088,0.212097570855,-1.0,nan,nan,nan,nan,nan,nan,nan,nan,2720.09532217,3040.44994309,nan,3040.8176349,nan,nan,nan,nan
1,286,1,1,1.0,1.0,0.321915355627,0,0.0,0.0,0.0,0.260276155952,0.0578637553045,0.202412400648,0.318139911257,0.0578637553045,0.354368515953,95,1.0,-0.253175017597,-0.514975443931,nan,nan,nan,nan,nan,nan,nan,nan,2720.09532217,3041.39173125,nan,3041.71364661,nan,nan,nan,nan
1,287,1,1,1.0,1.0,0.340066678647,0,0.0,0.0,0.0,0.26049167763,0.0578769839354,0.202614693694,0.318368661565,0.0578769839354,0.343224612239,396,-0.0330153705648,0.473684876347,-0.363523780775,nan,nan,nan,nan,nan,nan,nan,nan,2720.09532217,3042.33356787,nan,3042.67363455,nan,nan,nan,nan
1,288,1,1,1.0,1.0,0.334308843012,0,0.0,1.0,0.0,0.260768942441,0.0579660258692,0.202802916572,0.318734968311,0.0579660258692,0.332096959096,233,0.728670395113,0.154909781369,0.626482233315,nan,nan,nan,nan,nan,nan,nan,nan,2720.09532217,3043.27530813,nan,3043.60961698,nan,nan,nan,nan
1,289,1,1,1.0,1.0,0.312496863946,1,0.0,0.0,1.0,0.261024289318,0.0580267719372,0.202997517381,0.319051061256,0.0580267719372,0.328957461868,430,0.184725017221,0.440645728776,-0.941904167281,162.002415045,287.997584955,-14.3461650446,410.0,0.0492046846968,0.463921527344,-0.54316189137,1.10050610563,2720.09532217,3044.217098,3045.0255134,3044.52959486,3047.15917154,3048.16513465,3046.04230281,3047.15075089
1,290,1,1,1.0,1.0,0.308204431145,0,0.0,0.0,0.0,0.261202395113,0.0580050964731,0.20319729864,0.319207491586,0.0580050964731,0.318336712701,73,1.0,-0.1546788618,-0.830916872461,nan,nan,nan,nan,nan,nan,nan,nan,2720.09532217,3048.30929978,nan,3048.61750421,nan,nan,nan,nan
1,291,1,1,1.0,1.0,0.294426223554,0,0.0,0.0,0.0,0.261364471099,0.0579705167383,0.203393954361,0.319334987838,0.0579705167383,0.305042506215,204,1.0,0.00303256528985,0.499654420455,nan,nan,nan,nan,nan,nan,nan,nan,2720.09532217,3049.25107938,nan,3049.5455056,nan,nan,nan,nan
1,292,1,1,1.0,1.0,0.328595482628,0,0.0,0.0,0.0,0.261478085369,0.0579031588248,0.203574926544,0.319381244194,0.0579031588248,0.310408712442,156,1.0,-0.244060613314,0.121041471254,nan,nan,nan,nan,nan,nan,nan,nan,2720.09532217,3050.19287694,nan,3050.52147243,nan,nan,nan,nan
1,293,1,1,1.0,1.0,0.282809342549,0,0.0,0.0,0.0,0.261707939469,0.057936759221,0.203771180248,0.31964469869,0.057936759221,0.30194368291,299,0.0516645560415,0.393417669654,0.534378752182,nan,nan,nan,nan,nan,nan,nan,nan,2720.09532217,3051.13465398,nan,3051.41746333,nan,nan,nan,nan
1,294,1,1,1.0,1.0,0.260940058739,0,0.0,0.0,0.0,0.26177995791,0.0578508977243,0.203929060185,0.319630855634,0.0578508977243,0.290781627972,16,0.973419431522,0.140652110383,-1.0,nan,nan,nan,nan,nan,nan,nan,nan,2720.09532217,3052.07650743,nan,3052.33744748,nan,nan,nan,nan
1,295,1,1,1.0,1.0,0.327193086501,0,0.0,0.0,0.0,0.26177710111,0.0577524487424,0.204024652367,0.319529549852,0.0577524487424,0.290314162596,172,1.0,-0.170984061773,0.265024678188,nan,nan,nan,nan,nan,nan,nan,nan,2720.09532217,3053.01823799,nan,3053.34543108,nan,nan,nan,nan
1,296,1,1,1.0,1.0,0.289405080664,0,0.0,0.0,0.0,0.261998850213,0.0577797182737,0.204219131939,0.319778568486,0.0577797182737,0.292512741968,502,0.764740937618,0.25241357569,-1.0,nan,nan,nan,nan,nan,nan,nan,nan,2720.09532217,3053.96002643,nan,3054.24943151,nan,nan,nan,nan
1,297,1,1,1.0,1.0,0.299600178783,0,0.0,0.0,0.0,0.262091438829,0.0577039519784,0.204387486851,0.319795390808,0.0577039519784,0.30539944865,139,1.0,-0.296335611021,-0.0445992895203,nan,nan,nan,nan,nan,nan,nan,nan,2720.09532217,3054.90181202,nan,3055.2014122,nan,nan,nan,nan
1,298,0,0,1.0,0.0,0.253791515948,0,0.0,0.0,0.0,0.262217730883,0.0576476878443,0.204570043039,0.319865418727,0.0576476878443,0.280932258465,261,0.427225806086,0.276617811781,0.653674462902,nan,nan,nan,nan,nan,nan,nan,nan,2720.09532217,3055.84360161,nan,3056.09739312,nan,nan,nan,nan
1,299,1,1,1.0,1.0,0.239981377439,0,0.0,0.0,0.0,0.262189454994,0.0575529452548,0.204636509739,0.319742400249,0.0575529452548,0.264457690724,454,0.367627362238,0.397084843583,-1.0,nan,nan,nan,nan,nan,nan,nan,nan,2720.09532217,3056.78539119,nan,3057.02537257,nan,nan,nan,nan
1,300,1,1,1.0,1.0,0.258173754613,0,0.0,0.0,0.0,0.262115180487,0.0574709267332,0.204644253754,0.31958610722,0.0574709267332,0.250648882667,52,1.0,-0.0438860552364,-1.0,nan,nan,nan,nan,nan,nan,nan,nan,2720.09532217,3057.72718049,nan,3057.98535424,nan,nan,nan,nan
1,301,1,1,1.0,1.0,0.284373674309,0,0.0,0.0,0.0,0.262102042401,0.057375511661,0.20472653074,0.319477554062,0.057375511661,0.260842935454,129,1.0,-0.310070485259,-0.146368003411,nan,nan,nan,nan,nan,nan,nan,nan,2720.09532217,3058.66896665,nan,3058.95334032,nan,nan,nan,nan
1,302,0,0,0.0,1.0,0.366476430383,0,0.0,0.0,0.0,0.262176034533,0.0572944594206,0.204881575113,0.319470493954,0.0572944594206,0.303007953102,326,-0.12383419111,0.444071765824,0.352223541474,nan,nan,nan,nan,nan,nan,nan,nan,2720.09532217,3059.61084603,nan,3059.97732246,nan,nan,nan,nan
1,303,1,1,1.0,1.0,0.296740362537,0,0.0,0.0,0.0,0.262521400082,0.0575125016637,0.205008898419,0.320033901746,0.0575125016637,0.315863489076,145,1.0,-0.281667413287,0.0150551701241,nan,nan,nan,nan,nan,nan,nan,nan,2720.09532217,3060.55254495,nan,3060.84928532,nan,nan,nan,nan
1,304,1,1,1.0,1.0,0.466941196879,0,0.0,0.0,0.0,0.262634333952,0.0574510497019,0.20518328425,0.320085383654,0.0574510497019,0.376719329933,383,-0.0968787136249,0.478131214543,-0.211081409456,nan,nan,nan,nan,nan,nan,nan,nan,2720.09532217,3061.49433682,nan,3061.96127801,nan,nan,nan,nan
1,305,1,1,1.0,1.0,0.341128668049,0,0.0,1.0,0.0,0.263306396001,0.0585373472284,0.204769048773,0.321843743229,0.0585373472284,0.368270075822,240,0.654373017221,0.188015059697,0.642463954019,nan,nan,nan,nan,nan,nan,nan,nan,2720.09532217,3062.43613381,nan,3062.77726248,nan,nan,nan,nan
1,306,1,1,1.0,1.0,0.311330813798,1,0.0,0.0,1.0,0.263561550991,0.0586103901584,0.204951160833,0.32217194115,0.0586103901584,0.373133559575,75,1.0,-0.164714458691,-0.791355921409,62.3189384315,27.6810615685,-25.0533134315,39.0,1.0,0.0253789930673,-1.0,1.37552543532,2720.09532217,3063.37791256,3064.18632426,3063.68924337,3066.59502111,3067.60239516,3065.20312022,3066.58659875
1,307,1,1,1.0,1.0,0.336036250752,0,0.0,0.0,0.0,0.263717659693,0.0585780213975,0.205139638296,0.322295681091,0.0585780213975,0.329498577533,229,0.770397026975,0.135265939772,0.614681466938,nan,nan,nan,nan,nan,nan,nan,nan,2720.09532217,3067.74514051,nan,3068.08117676,nan,nan,nan,nan
1,308,0,0,0.0,1.0,0.426232648955,0,0.0,0.0,0.0,0.263953225137,0.0586275337381,0.205325691398,0.322580758875,0.0586275337381,0.357866571168,476,0.547545041103,0.340739382997,-1.0,nan,nan,nan,nan,nan,nan,nan,nan,2720.09532217,3068.68693009,nan,3069.11316274,nan,nan,nan,nan
1,309,1,1,1.0,1.0,0.356424451398,0,0.0,0.0,0.0,0.264480106383,0.0592558215963,0.205224284786,0.323735927979,0.0592558215963,0.372897783702,80,1.0,-0.189075709245,-0.708965549488,nan,nan,nan,nan,nan,nan,nan,nan,2720.09532217,3069.62871882,nan,3069.98514327,nan,nan,nan,nan
1,310,1,1,1.0,1.0,0.318607365538,0,0.0,0.0,0.0,0.264777660897,0.0593898899895,0.205387770908,0.324167550887,0.0593898899895,0.367088155297,207,0.985653507947,0.0195431921708,0.51699622314,nan,nan,nan,nan,nan,nan,nan,nan,2720.09532217,3070.57051496,nan,3070.88912232,nan,nan,nan,nan
1,311,1,1,1.0,1.0,0.336728183145,0,0.0,1.0,0.0,0.264951305106,0.0593725371257,0.20557876798,0.324323842232,0.0593725371257,0.33725333336,441,0.266287261384,0.422891888867,-1.0,nan,nan,nan,nan,nan,nan,nan,nan,2720.09532217,3071.51237039,nan,3071.84909858,nan,nan,nan,nan
1,312,1,1,1.0,1.0,0.331013682415,1,0.0,0.0,1.0,0.265182098926,0.0594161243944,0.205765974532,0.32459822332,0.0594161243944,0.328783077033,126,1.0,-0.311411754845,-0.177408431044,-24.6768631703,114.67686317,26.0831131703,163.0,1.0,-0.214247802105,0.185723682048,1.69206641184,2720.09532217,3072.45408243,3073.2624984,3072.78509611,3075.98792525,3076.99347411,3074.2792881,3075.97947438
1,313,0,0,0.0,1.0,0.326981258811,0,0.0,0.0,0.0,0.265393097591,0.0594374184095,0.205955679181,0.324830516,0.0594374184095,0.33157437479,345,-0.173519535469,0.465595146217,0.186119282857,nan,nan,nan,nan,nan,nan,nan,nan,2720.09532217,3077.13803923,nan,3077.46502049,nan,nan,nan,nan
1,314,1,1,1.0,1.0,0.257183324778,0,0.0,0.0,0.0,0.265589864879,0.0594440880399,0.206145776839,0.325033952919,0.0594440880399,0.305059422002,229,0.770397026975,0.135265939772,0.614681466938,nan,nan,nan,nan,nan,nan,nan,nan,2720.09532217,3078.07981428,nan,3078.3369976,nan,nan,nan,nan
1,315,1,1,1.0,1.0,0.283399780106,0,0.0,0.0,0.0,0.265563092458,0.0593512463866,0.206211846072,0.324914338845,0.0593512463866,0.289188121232,71,1.0,-0.144504067012,-0.877980773838,nan,nan,nan,nan,nan,nan,nan,nan,2720.09532217,3079.02160044,nan,3079.30500022,nan,nan,nan,nan
1,316,1,1,1.0,1.0,0.277639948821,0,0.0,0.0,0.0,0.265619716864,0.0592654576446,0.206354259219,0.324885174508,0.0592654576446,0.272741017902,387,-0.0787219327085,0.477231755363,-0.256974454483,nan,nan,nan,nan,nan,nan,nan,nan,2720.09532217,3079.96338916,nan,3080.24102911,nan,nan,nan,nan
1,317,0,0,0.0,1.0,0.383768183528,0,0.0,0.0,0.0,0.265657755572,0.0591754601555,0.206482295417,0.324833215728,0.0591754601555,0.314935970819,97,1.0,-0.260369742894,-0.491718830742,nan,nan,nan,nan,nan,nan,nan,nan,2720.09532217,3080.90517846,nan,3081.28894664,nan,nan,nan,nan
1,318,1,1,1.0,1.0,0.305958145356,0,0.0,0.0,0.0,0.266030343673,0.0594521346954,0.206578208978,0.325482478369,0.0594521346954,0.322455425902,363,-0.162287729338,0.476365729747,0.00704812682028,nan,nan,nan,nan,nan,nan,nan,nan,2720.09532217,3081.84696519,nan,3082.15292334,nan,nan,nan,nan
1,319,1,1,1.0,1.0,0.300164957589,0,0.0,0.0,0.0,0.266155902798,0.0594006641175,0.206755238681,0.325556566916,0.0594006641175,0.329963762158,419,0.107894673663,0.454841969249,-0.678098861371,nan,nan,nan,nan,nan,nan,nan,nan,2720.09532217,3082.78875506,nan,3083.08892002,nan,nan,nan,nan
1,320,1,1,1.0,1.0,0.270353418658,0,0.0,0.0,0.0,0.266262514255,0.0593379503311,0.206924563924,0.325600464586,0.0593379503311,0.292158840535,190,1.0,-0.0746884387243,0.407399635172,nan,nan,nan,nan,nan,nan,nan,nan,2720.09532217,3083.73054464,nan,3084.00089806,nan,nan,nan,nan
1,321,0,0,0.0,1.0,0.32054916682,0,0.0,0.0,0.0,0.266275298331,0.0592456022284,0.207029696103,0.32552090056,0.0592456022284,0.297022514356,477,0.555879874869,0.337784025865,-1.0,nan,nan,nan,nan,nan,nan,nan,nan,2720.09532217,3084.67233394,nan,3084.9928831,nan,nan,nan,nan
1,322,1,1,1.0,1.0,0.242752813385,0,0.0,0.0,0.0,0.266444375803,0.0592305206488,0.207213855154,0.325674896452,0.0592305206488,0.277885132954,400,-0.0107874812989,0.471427301814,-0.412692688905,nan,nan,nan,nan,nan,nan,nan,nan,2720.09532217,3085.61411611,nan,3085.85686892,nan,nan,nan,nan
1,323,1,1,1.0,1.0,0.244927824649,0,0.0,0.0,0.0,0.266370799522,0.0591531664357,0.207217633087,0.325523965958,0.0591531664357,0.269409934951,257,0.470472903111,0.261039853404,0.655841377839,nan,nan,nan,nan,nan,nan,nan,nan,2720.09532217,3086.55590768,nan,3086.80083551,nan,nan,nan,nan
1,324,1,1,1.0,1.0,0.303114009439,0,0.0,0.0,0.0,0.266304412603,0.059073539823,0.20723087278,0.325377952426,0.059073539823,0.263598215824,394,-0.0437090198531,0.474655926729,-0.339401417396,nan,nan,nan,nan,nan,nan,nan,nan,2720.09532217,3087.49770781,nan,3087.80082182,nan,nan,nan,nan
1,325,1,1,1.0,1.0,0.281316000095,0,0.0,0.0,0.0,0.26641802247,0.0590176372497,0.20740038522,0.32543565972,0.0590176372497,0.276452611395,83,1.0,-0.203097876184,-0.665876706514,nan,nan,nan,nan,nan,nan,nan,nan,2720.09532217,3088.43949768,nan,3088.72081368,nan,nan,nan,nan
1,326,1,1,1.0,1.0,0.28352636355,0,0.0,0.0,0.0,0.266463862401,0.0589325474899,0.207531314911,0.325396409891,0.0589325474899,0.289318791028,364,-0.160194321586,0.476704516321,-0.00341124574885,nan,nan,nan,nan,nan,nan,nan,nan,2720.09532217,3089.38127671,nan,3089.66480308,nan,nan,nan,nan
1,327,1,1,1.0,1.0,0.253684319148,0,0.0,0.0,0.0,0.266516201362,0.0588496553525,0.207666546009,0.325365856714,0.0588496553525,0.272842227598,486,0.631151757674,0.309603058574,-1.0,nan,nan,nan,nan,nan,nan,nan,nan,2720.09532217,3090.32309823,nan,3090.57678255,nan,nan,nan,nan
1,328,1,1,1.0,1.0,0.263900229416,0,0.0,0.0,0.0,0.266476960132,0.0587638737476,0.207713086384,0.325240833879,0.0587638737476,0.267036970705,138,1.0,-0.29832987918,-0.0546508148191,nan,nan,nan,nan,nan,nan,nan,nan,2720.09532217,3091.26484818,nan,3091.52874841,nan,nan,nan,nan
1,329,1,1,1.0,1.0,0.298101419583,0,0.0,0.0,0.0,0.266469104245,0.0586743982637,0.207794705982,0.325143502509,0.0586743982637,0.271895322716,5,0.88714030954,0.190659852496,-1.0,nan,nan,nan,nan,nan,nan,nan,nan,2720.09532217,3092.20664061,nan,3092.50474203,nan,nan,nan,nan
1,330,1,1,1.0,1.0,0.276288585155,0,0.0,0.0,0.0,0.266565251101,0.0586110316139,0.207954219487,0.325176282715,0.0586110316139,0.279430078052,248,0.568115903494,0.223728204869,0.653295769881,nan,nan,nan,nan,nan,nan,nan,nan,2720.09532217,3093.14843105,nan,3093.42471963,nan,nan,nan,nan
1,331,1,1,1.0,1.0,0.246489020297,0,0.0,0.0,0.0,0.266594715749,0.0585245999187,0.208070115831,0.325119315668,0.0585245999187,0.273626341679,152,1.0,-0.259184487343,0.0830625546756,nan,nan,nan,nan,nan,nan,nan,nan,2720.09532217,3094.0902155,nan,3094.33670452,nan,nan,nan,nan
1,332,1,1,1.0,1.0,0.256712058035,0,0.0,0.0,0.0,0.266533973467,0.0584465443865,0.20808742908,0.324980517853,0.0584465443865,0.259829887829,369,-0.147694689129,0.477999187239,-0.0564338676883,nan,nan,nan,nan,nan,nan,nan,nan,2720.09532217,3095.03198398,nan,3095.28869604,nan,nan,nan,nan
1,333,1,1,1.0,1.0,0.266807942127,0,0.0,0.0,0.0,0.266504389384,0.0583609380973,0.208143451287,0.324865327482,0.0583609380973,0.256669673487,233,0.728670395113,0.154909781369,0.626482233315,nan,nan,nan,nan,nan,nan,nan,nan,2720.09532217,3095.97385938,nan,3096.24066732,nan,nan,nan,nan
1,334,1,1,1.0,1.0,0.317078100867,0,0.0,0.0,0.0,0.266505300954,0.0582732455417,0.208232055412,0.324778546496,0.0582732455417,0.28019936701,136,1.0,-0.301914900238,-0.074841205769,nan,nan,nan,nan,nan,nan,nan,nan,2720.09532217,3096.9155851,nan,3097.2326632,nan,nan,nan,nan
1,335,1,1,1.0,1.0,0.231279336556,0,0.0,0.0,0.0,0.266656716523,0.0582515128479,0.208405203675,0.324908229371,0.0582515128479,0.271721793183,406,0.0244967455079,0.467245700284,-0.489366101921,nan,nan,nan,nan,nan,nan,nan,nan,2720.09532217,3097.85736499,nan,3098.08864433,nan,nan,nan,nan
1,336,1,1,1.0,1.0,0.169465567044,0,0.0,0.0,0.0,0.266551112403,0.0581965164163,0.208354595987,0.32474762882,0.0581965164163,0.239274334822,94,1.0,-0.249439013202,-0.526745155233,nan,nan,nan,nan,nan,nan,nan,nan,2720.09532217,3098.79915828,nan,3098.96862384,nan,nan,nan,nan
1,337,1,1,1.0,1.0,0.219649055973,0,1.0,0.0,0.0,0.266262167328,0.0583500090773,0.207912158251,0.324612176405,0.0583500090773,0.206797986524,325,-0.119404900653,0.442631039184,0.360186421743,nan,nan,nan,nan,nan,nan,nan,nan,2720.09532217,3099.74095271,nan,3099.96060176,nan,nan,nan,nan
1,338,1,1,1.0,1.0,0.261852656899,1,0.0,0.0,1.0,0.26612384949,0.0583185117695,0.207805337721,0.32444236126,0.0583185117695,0.216989093305,92,1.0,-0.241703663401,-0.55060883727,24.6768631703,65.3231368297,0.635636829663,93.0,1.0,-0.245614297951,-0.538619881923,2.11723450548,2720.09532217,3100.68273573,3101.49115227,3100.94458839,3104.64985825,3105.65016473,3102.51625172,3104.64153026
1,339,1,1,1.0,1.0,0.272762495268,0,0.0,0.0,0.0,0.266111212826,0.0582326399397,0.207878572886,0.324343852765,0.0582326399397,0.251421402713,147,1.0,-0.275801134503,0.0346720467303,nan,nan,nan,nan,nan,nan,nan,nan,2720.09532217,3105.79173946,nan,3106.06450196,nan,nan,nan,nan
1,340,1,1,1.0,1.0,0.234958524001,0,0.0,0.0,0.0,0.266130833128,0.0581478064992,0.207983026629,0.324278639627,0.0581478064992,0.256524558722,334,-0.152796554809,0.454467054946,0.285576400052,nan,nan,nan,nan,nan,nan,nan,nan,2720.09532217,3106.73351593,nan,3106.96847445,nan,nan,nan,nan
1,341,1,1,1.0,1.0,0.277152716648,0,0.0,0.0,0.0,0.266039149866,0.0580867658235,0.207952384042,0.324125915689,0.0580867658235,0.261624578639,397,-0.0275613476434,0.473159987783,-0.37569455347,nan,nan,nan,nan,nan,nan,nan,nan,2720.09532217,3107.67530466,nan,3107.95245737,nan,nan,nan,nan
1,342,1,1,1.0,1.0,0.295337966352,0,0.0,0.0,0.0,0.266071740971,0.0580046451995,0.208067095771,0.32407638617,0.0580046451995,0.269149735667,216,0.900975005756,0.0682271079607,0.563426584804,nan,nan,nan,nan,nan,nan,nan,nan,2720.09532217,3108.61709538,nan,3108.91243334,nan,nan,nan,nan
1,343,1,1,1.0,1.0,0.257539126789,0,0.0,0.0,0.0,0.266157314729,0.0579413335177,0.208215981211,0.324098648247,0.0579413335177,0.276676603263,440,0.258699398066,0.424657399123,-1.0,nan,nan,nan,nan,nan,nan,nan,nan,2720.09532217,3109.55888524,nan,3109.81642437,nan,nan,nan,nan
1,344,1,1,1.0,1.0,0.211751846306,0,0.0,0.0,0.0,0.266132188817,0.0578586751376,0.208273513679,0.323990863954,0.0578586751376,0.254876313149,84,1.0,-0.20765784414,-0.652191087791,nan,nan,nan,nan,nan,nan,nan,nan,2720.09532217,3110.50067283,nan,3110.71242468,nan,nan,nan,nan
1,345,1,1,1.0,1.0,0.19794940541,0,0.0,0.0,0.0,0.265974106426,0.0578486508178,0.208125455608,0.323822757243,0.0578486508178,0.222413459502,251,0.535576518695,0.236509187076,0.655284151108,nan,nan,nan,nan,nan,nan,nan,nan,2720.09532217,3111.44246213,nan,3111.64041153,nan,nan,nan,nan
1,346,1,1,1.0,1.0,0.248136600654,0,0.0,0.0,0.0,0.265776933379,0.0578803961558,0.207896537223,0.323657329535,0.0578803961558,0.219279284123,469,0.489482198204,0.360453357602,-1.0,nan,nan,nan,nan,nan,nan,nan,nan,2720.09532217,3112.38425028,nan,3112.63238688,nan,nan,nan,nan
1,347,1,1,1.0,1.0,0.218335895392,0,0.0,0.0,0.0,0.265725949759,0.0578044508801,0.207921498879,0.323530400639,0.0578044508801,0.221473967152,39,1.0,0.0253789930673,-1.0,nan,nan,nan,nan,nan,nan,nan,nan,2720.09532217,3113.32604044,nan,3113.54437633,nan,nan,nan,nan
1,348,1,1,1.0,1.0,0.244526406866,0,0.0,0.0,0.0,0.265589378997,0.0577769739775,0.207812405019,0.323366352974,0.0577769739775,0.236999634304,401,-0.00506340639596,0.470796889516,-0.425203102762,nan,nan,nan,nan,nan,nan,nan,nan,2720.09532217,3114.2678303,nan,3114.51235671,nan,nan,nan,nan
1,349,1,1,1.0,1.0,0.222736665397,0,0.0,0.0,0.0,0.265528853215,0.057704916982,0.207823936233,0.323233770197,0.057704916982,0.228532989218,123,1.0,-0.311441137266,-0.208672863777,nan,nan,nan,nan,nan,nan,nan,nan,2720.09532217,3115.20960706,nan,3115.43234372,nan,nan,nan,nan
1,350,1,1,1.0,1.0,0.224919944536,0,0.0,0.0,0.0,0.265406239496,0.057667566103,0.207738673393,0.323073805599,0.057667566103,0.230727672266,217,0.891250405156,0.0735373331823,0.568048345461,nan,nan,nan,nan,nan,nan,nan,nan,2720.09532217,3116.15140548,nan,3116.37632542,nan,nan,nan,nan
1,351,1,1,1.0,1.0,0.267117273295,0,0.0,0.0,0.0,0.265290564368,0.0576256582665,0.207664906101,0.322916222634,0.0576256582665,0.238257961076,281,0.218083397074,0.345068392493,0.612644422055,nan,nan,nan,nan,nan,nan,nan,nan,2720.09532217,3117.0931942,nan,3117.36031148,nan,nan,nan,nan
1,352,1,1,1.0,1.0,0.229316152981,0,0.0,0.0,0.0,0.265295768667,0.0575435942531,0.207752174414,0.32283936292,0.0575435942531,0.240451123604,89,1.0,-0.229484098413,-0.587370487375,nan,nan,nan,nan,nan,nan,nan,nan,2720.09532217,3118.03497922,nan,3118.26429538,nan,nan,nan,nan
1,353,1,1,1.0,1.0,0.2314943003,0,0.0,0.0,0.0,0.265193553849,0.0574936991158,0.207699854734,0.322687252965,0.0574936991158,0.242642575526,412,0.0618891196837,0.462096609288,-0.571158935758,nan,nan,nan,nan,nan,nan,nan,nan,2720.09532217,3118.9767708,nan,3119.2082651,nan,nan,nan,nan
1,354,1,1,1.0,1.0,0.225688568258,0,0.0,0.0,0.0,0.265098088542,0.057440137006,0.207657951536,0.322538225548,0.057440137006,0.22883300718,94,1.0,-0.249439013202,-0.526745155233,nan,nan,nan,nan,nan,nan,nan,nan,2720.09532217,3119.91856124,nan,3120.1442498,nan,nan,nan,nan
1,355,1,1,1.0,1.0,0.179882186174,0,0.0,0.0,0.0,0.264986762213,0.057397073188,0.207589689025,0.322383835401,0.057397073188,0.212355018244,433,0.206536295144,0.436163724167,-1.0,nan,nan,nan,nan,nan,nan,nan,nan,2720.09532217,3120.86034569,nan,3121.04022787,nan,nan,nan,nan
1,356,1,1,1.0,1.0,0.174075028626,0,1.0,0.0,0.0,0.264747031013,0.0574933795668,0.207253651446,0.32224041058,0.0574933795668,0.193215261019,63,1.0,-0.102744642793,-1.0,nan,nan,nan,nan,nan,nan,nan,nan,2720.09532217,3121.80213584,nan,3121.97621087,nan,nan,nan,nan
1,357,1,1,1.0,1.0,0.136276474164,1,0.0,0.0,1.0,0.264492334377,0.057612781542,0.206879552835,0.322105115919,0.057612781542,0.163411229655,370,-0.144805996584,0.478178727438,-0.0671803333712,-155.810485846,245.810485846,-14.345764154,350.0,-0.175756816429,0.469490941964,0.138247479403,2.35056512087,2720.09532217,3122.74392599,3123.55233997,3122.88020247,3126.9360708,3127.9423173,3124.56912852,3126.92773939
1,358,1,1,1.0,1.0,0.297834282916,0,0.0,0.0,0.0,0.264133186309,0.0579297377677,0.206203448542,0.322062924077,0.0579297377677,0.202728595235,164,1.0,-0.209685835145,0.194761549991,nan,nan,nan,nan,nan,nan,nan,nan,2720.09532217,3128.08628143,nan,3128.38411572,nan,nan,nan,nan
1,359,1,1,1.0,1.0,0.268012765562,0,0.0,0.0,0.0,0.264227323451,0.0578761115282,0.206351211923,0.322103434979,0.0578761115282,0.234041174214,440,0.258699398066,0.424657399123,-1.0,nan,nan,nan,nan,nan,nan,nan,nan,2720.09532217,3129.02807187,nan,3129.29608464,nan,nan,nan,nan
1,360,1,1,1.0,1.0,0.286210559541,0,0.0,0.0,0.0,0.264237867858,0.0577957922708,0.206442075587,0.322033660129,0.0577957922708,0.284019202673,381,-0.105403061426,0.478425078289,-0.188431136224,nan,nan,nan,nan,nan,nan,nan,nan,2720.09532217,3129.96986145,nan,3130.25607201,nan,nan,nan,nan
1,361,0,0,1.0,0.0,0.240378803748,0,0.0,0.0,0.0,0.264298903112,0.0577270493593,0.206571853753,0.322025952472,0.0577270493593,0.264867376284,279,0.238157575771,0.338930353633,0.618978422254,nan,nan,nan,nan,nan,nan,nan,nan,2720.09532217,3130.91167555,nan,3131.15205436,nan,nan,nan,nan
1,362,1,1,1.0,1.0,0.22659917071,0,0.0,0.0,0.0,0.264232642449,0.057660746961,0.206571895488,0.32189338941,0.057660746961,0.251062844666,116,1.0,-0.306446923025,-0.282515442494,nan,nan,nan,nan,nan,nan,nan,nan,2720.09532217,3131.85343634,nan,3132.08003551,nan,nan,nan,nan
1,363,1,1,1.0,1.0,0.428805656789,0,0.0,0.0,0.0,0.264128682583,0.0576149188878,0.206513763695,0.321743601471,0.0576149188878,0.298594543749,420,0.1146601879,0.45369410126,-0.695047497311,nan,nan,nan,nan,nan,nan,nan,nan,2720.09532217,3132.7952282,nan,3133.22403386,nan,nan,nan,nan
1,364,1,1,1.0,1.0,0.294989291695,0,0.0,0.0,0.0,0.264582338159,0.0581793359604,0.206403002199,0.32276167412,0.0581793359604,0.316798039731,271,0.320642857732,0.312811632898,0.639400143054,nan,nan,nan,nan,nan,nan,nan,nan,2720.09532217,3133.73701294,nan,3134.03200223,nan,nan,nan,nan
1,365,1,1,1.0,1.0,0.29719053203,0,0.0,1.0,0.0,0.264665873746,0.0581211598275,0.206544713918,0.322787033573,0.0581211598275,0.340328493505,382,-0.1011887567,0.478291136399,-0.199732273247,nan,nan,nan,nan,nan,nan,nan,nan,2720.09532217,3134.67880138,nan,3134.97599191,nan,nan,nan,nan
1,366,0,0,0.0,1.0,0.419388590613,1,0.0,0.0,1.0,0.264754982399,0.0580663803216,0.206688602077,0.32282136272,0.0580663803216,0.337189471446,1,0.854939129564,0.207877072944,-1.0,87.510447078,2.489552922,1.786427922,4.0,0.879126049628,0.195014037372,-1.0,2.22554687463,2720.09532217,3135.62058669,3136.42900266,3136.03997528,3139.68772352,3140.68717527,3137.44579521,3139.67940037
1,367,1,1,1.0,1.0,0.314280150807,0,0.0,0.0,0.0,0.265177478596,0.058546099995,0.206631378601,0.323723578591,0.058546099995,0.343619757817,130,1.0,-0.309333154106,-0.136071487739,nan,nan,nan,nan,nan,nan,nan,nan,2720.09532217,3140.82960074,nan,3141.14388089,nan,nan,nan,nan
1,368,0,0,0.0,1.0,0.33247423853,0,0.0,0.0,0.0,0.265311273343,0.0585222860866,0.206788987256,0.32383355943,0.0585222860866,0.355380993317,401,-0.00506340639596,0.470796889516,-0.425203102762,nan,nan,nan,nan,nan,nan,nan,nan,2720.09532217,3141.77138604,nan,3142.10386028,nan,nan,nan,nan
1,369,1,1,1.0,1.0,0.278668866842,0,0.0,0.0,0.0,0.265493781401,0.0585472096916,0.206946571709,0.324040991092,0.0585472096916,0.308474418727,72,1.0,-0.149607777062,-0.853203742106,nan,nan,nan,nan,nan,nan,nan,nan,2720.09532217,3142.71317477,nan,3142.99184364,nan,nan,nan,nan
1,370,1,1,1.0,1.0,0.264860438881,0,0.0,0.0,0.0,0.265529486239,0.058471835416,0.207057650823,0.324001321655,0.058471835416,0.292001181418,188,1.0,-0.0857393506835,0.392804289229,nan,nan,nan,nan,nan,nan,nan,nan,2720.09532217,3143.6549635,nan,3143.91982393,nan,nan,nan,nan
1,371,1,1,1.0,1.0,0.259054706898,0,0.0,0.0,0.0,0.265527678003,0.0583927762919,0.207134901711,0.323920454295,0.0583927762919,0.267528004207,368,-0.150457169737,0.477793263397,-0.0457341785459,nan,nan,nan,nan,nan,nan,nan,nan,2720.09532217,3144.59675422,nan,3144.85580893,nan,nan,nan,nan
