block,trial,time,setsize,freqtrials,colorind,colordeg,colorrgb,correctresp,actualresp,acc,rts,probe_trials,fast_rt_trigger,slow_rt_trigger,rt_trailingavg,rt_runningavg,rt_runningstd,rt_runningslowthresh,rt_runningfastthresh,wm_mousepos,wm_respdeg,wm_colorind,wm_colorrgb,wm_colorhsv,wm_degdiff,wm_rts,timeBlockStart,timeEncArrayOnset,timeResponse,timeProbeOnset,timeProbeOffset
0,0,19:12:49:499000,6,1,476,334.6875,[ 0.54754504  0.34073938 -1.        ],1,1,1,0.362637873,0,nan,nan,nan,nan,nan,nan,nan,nan,nan,nan,[ nan  nan  nan],nan,nan,nan,2720.095322,2721.108678,2721.471316,nan,nan
0,1,19:12:50:435000,6,1,206,144.84375,[ 0.99472346  0.01405192  0.51131616],1,1,1,0.274712849,0,nan,nan,nan,nan,nan,nan,nan,nan,nan,nan,[ nan  nan  nan],nan,nan,nan,2720.095322,2722.052608,2722.327321,nan,nan
0,2,19:12:51:371000,6,1,65,45.703125,[ 1.         -0.11331216 -1.        ],1,1,1,0.247051518,0,nan,nan,nan,nan,nan,nan,nan,nan,nan,nan,[ nan  nan  nan],nan,nan,nan,2720.095322,2722.992239,2723.23929,nan,nan
0,3,19:12:52:323000,6,1,293,206.015625,[ 0.10383026  0.3786596   0.56461706],1,1,1,0.289172726,0,nan,nan,nan,nan,nan,nan,nan,nan,nan,nan,[ nan  nan  nan],nan,nan,nan,2720.095322,2723.934102,2724.223275,nan,nan
0,4,19:12:53:259000,6,1,1,0.703125,[ 0.85493913  0.20787707 -1.        ],1,1,1,0.291411314,0,nan,nan,nan,nan,nan,nan,nan,nan,nan,nan,[ nan  nan  nan],nan,nan,nan,2720.095322,2724.875842,2725.167253,nan,nan
0,5,19:12:57:673000,6,1,468,329.0625,[ 0.48123648  0.36313162 -1.        ],1,1,1,0.285602161,1,nan,nan,nan,nan,nan,nan,nan,nan,153.4349488,422,[ 0.12832838  0.45131367 -0.73089489],nan,-32.49744882,1.417131756,2720.095322,2725.81763,2726.103233,2727.651135,2729.076307
0,6,19:12:58:609000,6,1,0,0,[ 0.84683171  0.21209757 -1.        ],1,1,1,0.348649549,0,nan,nan,nan,nan,nan,nan,nan,nan,nan,nan,[ nan  nan  nan],nan,nan,nan,2720.095322,2730.226523,2730.575173,nan,nan
0,7,19:12:59:561000,6,0,331,232.734375,[-0.14329784  0.45080175  0.31116671],0,0,1,0.390817512,0,nan,nan,nan,nan,nan,nan,nan,nan,nan,nan,[ nan  nan  nan],nan,nan,nan,2720.095322,2731.168311,2731.559129,nan,nan
0,8,19:13:00:497000,6,1,221,155.390625,[ 0.85178146  0.09454116  0.58542294],1,1,1,0.257048188,0,nan,nan,nan,nan,nan,nan,nan,nan,nan,nan,[ nan  nan  nan],nan,nan,nan,2720.095322,2732.110098,2732.367146,nan,nan
0,9,19:13:01:433000,6,1,76,53.4375,[ 1.         -0.16967451 -0.77336583],1,1,1,0.235260728,0,nan,nan,nan,nan,nan,nan,nan,nan,nan,nan,[ nan  nan  nan],nan,nan,nan,2720.095322,2733.051883,2733.287143,nan,nan
0,10,19:13:02:385000,6,1,286,201.09375,[ 0.16907896  0.35973478  0.59469871],1,1,1,0.285413141,0,nan,nan,nan,nan,nan,nan,nan,nan,nan,nan,[ nan  nan  nan],nan,nan,nan,2720.095322,2733.993676,2734.279089,nan,nan
0,11,19:13:03:321000,6,1,352,247.5,[-0.17544713  0.4708516   0.11867359],1,1,1,0.255624695,0,nan,nan,nan,nan,nan,nan,nan,nan,nan,nan,[ nan  nan  nan],nan,nan,nan,2720.095322,2734.935464,2735.191088,nan,nan
0,12,19:13:04:257000,6,1,224,157.5,[ 0.82161942  0.11002479  0.59726488],1,1,1,0.217821009,0,nan,nan,nan,nan,nan,nan,nan,nan,nan,nan,[ nan  nan  nan],nan,nan,nan,2720.095322,2735.877251,2736.095072,nan,nan
0,13,19:13:05:208000,6,0,461,324.140625,[ 0.42395965  0.38092737 -1.        ],0,0,1,0.315934573,0,nan,nan,nan,nan,nan,nan,nan,nan,nan,nan,[ nan  nan  nan],nan,nan,nan,2720.095322,2736.8191,2737.135035,nan,nan
0,14,19:13:06:144000,6,1,188,132.1875,[ 1.         -0.08573935  0.39280429],1,1,1,0.270199466,0,nan,nan,nan,nan,nan,nan,nan,nan,nan,nan,[ nan  nan  nan],nan,nan,nan,2720.095322,2737.760823,2738.031022,nan,nan
0,15,19:13:07:080000,6,0,28,19.6875,[ 1.          0.08206613 -1.        ],0,0,1,0.296428751,0,nan,nan,nan,nan,nan,nan,nan,nan,nan,nan,[ nan  nan  nan],nan,nan,nan,2720.095322,2738.702587,2738.999015,nan,nan
0,16,19:13:08:032000,6,1,201,141.328125,[ 1.         -0.01357126  0.48142235],1,1,1,0.258602542,0,nan,nan,nan,nan,nan,nan,nan,nan,nan,nan,[ nan  nan  nan],nan,nan,nan,2720.095322,2739.6444,2739.903003,nan,nan
0,17,19:13:08:968000,6,1,110,77.34375,[ 1.         -0.29672275 -0.34692196],1,1,1,0.252805078,0,nan,nan,nan,nan,nan,nan,nan,nan,nan,nan,[ nan  nan  nan],nan,nan,nan,2720.095322,2740.58618,2740.838985,nan,nan
0,18,19:13:09:920000,6,1,471,331.171875,[ 0.50601401  0.35499378 -1.        ],1,1,1,0.254985791,0,nan,nan,nan,nan,nan,nan,nan,nan,nan,nan,[ nan  nan  nan],nan,nan,nan,2720.095322,2741.527983,2741.782969,nan,nan
0,19,19:13:10:856000,6,1,240,168.75,[ 0.65437302  0.18801506  0.64246395],1,1,1,0.233192628,0,nan,nan,nan,nan,nan,nan,nan,nan,nan,nan,[ nan  nan  nan],nan,nan,nan,2720.095322,2742.469757,2742.70295,nan,nan
0,20,19:13:11:792000,6,1,38,26.71875,[ 1.          0.03062595 -1.        ],1,1,1,0.251375027,0,nan,nan,nan,nan,nan,nan,nan,nan,nan,nan,[ nan  nan  nan],nan,nan,nan,2720.095322,2743.411554,2743.662929,nan,nan
0,21,19:13:16:066000,6,1,216,151.875,[ 0.90097501  0.06822711  0.56342658],1,1,1,0.213495505,1,nan,nan,nan,nan,nan,nan,nan,nan,-62.05911382,216,[ 0.90097501  0.06822711  0.56342658],nan,0.184113819,1.267126111,2720.095322,2744.353409,2744.566905,2746.186883,2747.462039
0,22,19:13:17:002000,6,0,149,104.765625,[ 1.         -0.26947852  0.05414366],0,0,1,0.506255046,0,nan,nan,nan,nan,nan,nan,nan,nan,nan,nan,[ nan  nan  nan],nan,nan,nan,2720.095322,2748.620566,2749.126821,nan,nan
0,23,19:13:17:954000,6,1,293,206.015625,[ 0.10383026  0.3786596   0.56461706],1,1,1,0.308473849,0,nan,nan,nan,nan,nan,nan,nan,nan,nan,nan,[ nan  nan  nan],nan,nan,nan,2720.095322,2749.562353,2749.870826,nan,nan
0,24,19:13:18:890000,6,1,90,63.28125,[ 1.         -0.23363579 -0.57497187],1,1,1,0.230674074,0,nan,nan,nan,nan,nan,nan,nan,nan,nan,nan,[ nan  nan  nan],nan,nan,nan,2720.095322,2750.504138,2750.734812,nan,nan
0,25,19:13:19:826000,6,0,511,359.296875,[ 0.83870319  0.21628417 -1.        ],0,0,1,0.328857488,0,nan,nan,nan,nan,nan,nan,nan,nan,nan,nan,[ nan  nan  nan],nan,nan,nan,2720.095322,2751.445929,2751.774787,nan,nan
0,26,19:13:20:777000,6,1,338,237.65625,[-0.16289136  0.45892871  0.25039916],1,1,1,0.2350623,0,nan,nan,nan,nan,nan,nan,nan,nan,nan,nan,[ nan  nan  nan],nan,nan,nan,2720.095322,2752.387716,2752.622778,nan,nan
0,27,19:13:26:019000,6,1,452,317.8125,[ 0.35173807  0.40140621 -1.        ],1,1,1,0.205253327,1,nan,nan,nan,nan,nan,nan,nan,nan,148.9889307,428,[ 0.17037832  0.44348657 -0.8686614 ],nan,-16.8014307,2.25059842,2720.095322,2753.329504,2753.534757,2755.154683,2757.413314
0,28,19:13:26:955000,6,1,400,281.25,[-0.01078748  0.4714273  -0.41269269],1,1,1,0.290817455,0,nan,nan,nan,nan,nan,nan,nan,nan,nan,nan,[ nan  nan  nan],nan,nan,nan,2720.095322,2758.571848,2758.862666,nan,nan
0,29,19:13:27:906000,6,1,171,120.234375,[ 1.         -0.17601187  0.25645091],1,1,1,0.245010788,0,nan,nan,nan,nan,nan,nan,nan,nan,nan,nan,[ nan  nan  nan],nan,nan,nan,2720.095322,2759.513636,2759.758647,nan,nan
0,30,19:13:28:842000,6,1,20,14.0625,[ 1.          0.12155819 -1.        ],1,1,1,0.247219726,0,nan,nan,nan,nan,nan,nan,nan,nan,nan,nan,[ nan  nan  nan],nan,nan,nan,2720.095322,2760.455412,2760.702632,nan,nan
0,31,19:13:29:778000,6,1,499,350.859375,[ 0.73983189  0.26382776 -1.        ],1,1,1,0.249387325,0,nan,nan,nan,nan,nan,nan,nan,nan,nan,nan,[ nan  nan  nan],nan,nan,nan,2720.095322,2761.397213,2761.646601,nan,nan
0,32,19:13:30:730000,6,1,449,315.703125,[ 0.32809501  0.40764625 -1.        ],1,1,1,0.243592141,0,nan,nan,nan,nan,nan,nan,nan,nan,nan,nan,[ nan  nan  nan],nan,nan,nan,2720.095322,2762.338995,2762.582587,nan,nan
0,33,19:13:31:666000,6,1,368,258.75,[-0.15045717  0.47779326 -0.04573418],1,1,1,0.269800329,0,nan,nan,nan,nan,nan,nan,nan,nan,nan,nan,[ nan  nan  nan],nan,nan,nan,2720.095322,2763.280786,2763.550586,nan,nan
0,34,19:13:32:602000,6,1,511,359.296875,[ 0.83870319  0.21628417 -1.        ],1,1,1,0.239981663,0,nan,nan,nan,nan,nan,nan,nan,nan,nan,nan,[ nan  nan  nan],nan,nan,nan,2720.095322,2764.222578,2764.46256,nan,nan
0,35,19:13:33:554000,6,0,56,39.375,[ 1.         -0.06536751 -1.        ],0,1,0,0.266175025,0,0,0,nan,nan,nan,nan,nan,nan,nan,nan,[ nan  nan  nan],nan,nan,nan,2720.095322,2765.164365,2765.43054,nan,nan
0,36,19:13:34:490000,6,1,296,208.125,[ 0.07727136  0.38620532  0.55000131],1,1,1,0.324374039,0,nan,nan,nan,nan,nan,nan,nan,nan,nan,nan,[ nan  nan  nan],nan,nan,nan,2720.095322,2766.106154,2766.430528,nan,nan
0,37,19:13:35:441000,6,1,114,80.15625,[ 1.         -0.30374746 -0.30385937],1,1,1,0.310555348,0,nan,nan,nan,nan,nan,nan,nan,nan,nan,nan,[ nan  nan  nan],nan,nan,nan,2720.095322,2767.047947,2767.358503,nan,nan
0,38,19:13:36:377000,6,1,339,238.359375,[-0.16495584  0.45996923  0.2414231 ],1,1,1,0.256783047,0,nan,nan,nan,nan,nan,nan,nan,nan,nan,nan,[ nan  nan  nan],nan,nan,nan,2720.095322,2767.989732,2768.246516,nan,nan
0,39,19:13:40:652000,6,1,212,149.0625,[ 0.93926289  0.04677313  0.543851  ],1,1,1,0.258964616,1,nan,nan,nan,nan,nan,nan,nan,nan,-44.00882243,191,[ 1.         -0.06914798  0.41457165],nan,-15.05367758,1.283698563,2720.095322,2768.93152,2769.190485,2770.756723,2772.048552
0,40,19:13:41:588000,6,1,138,97.03125,[ 1.         -0.29832988 -0.05465081],1,1,1,0.367299223,0,nan,nan,nan,nan,nan,nan,nan,nan,nan,nan,[ nan  nan  nan],nan,nan,nan,2720.095322,2773.207076,2773.574375,nan,nan
0,41,19:13:42:539000,6,1,403,283.359375,[ 0.00657627  0.46945644 -0.45052451],1,1,1,0.337537006,0,nan,nan,nan,nan,nan,nan,nan,nan,nan,nan,[ nan  nan  nan],nan,nan,nan,2720.095322,2774.148859,2774.486396,nan,nan
0,42,19:13:43:475000,6,1,290,203.90625,[ 0.13126538  0.37077654  0.57820662],1,1,1,0.275724662,0,nan,nan,nan,nan,nan,nan,nan,nan,nan,nan,[ nan  nan  nan],nan,nan,nan,2720.095322,2775.090649,2775.366374,nan,nan
0,43,19:13:44:411000,6,1,178,125.15625,[ 1.         -0.13991966  0.31509783],1,1,1,0.253920095,0,nan,nan,nan,nan,nan,nan,nan,nan,nan,nan,[ nan  nan  nan],nan,nan,nan,2720.095322,2776.032436,2776.286356,nan,nan
0,44,19:13:45:363000,6,1,385,270.703125,[-0.08797966  0.47773344 -0.23392672],1,1,1,0.216113558,0,nan,nan,nan,nan,nan,nan,nan,nan,nan,nan,[ nan  nan  nan],nan,nan,nan,2720.095322,2776.974226,2777.190339,nan,nan
0,45,19:13:46:299000,6,1,336,236.25,[-0.15821161  0.45675811  0.26813527],1,1,1,0.274313712,0,nan,nan,nan,nan,nan,nan,nan,nan,nan,nan,[ nan  nan  nan],nan,nan,nan,2720.095322,2777.91601,2778.190324,nan,nan
0,46,19:13:47:250000,6,1,83,58.359375,[ 1.         -0.20309788 -0.66587671],1,1,1,0.228455158,0,nan,nan,nan,nan,nan,nan,nan,nan,nan,nan,[ nan  nan  nan],nan,nan,nan,2720.095322,2778.857838,2779.086293,nan,nan
0,47,19:13:48:186000,6,1,312,219.375,[-0.04644836  0.4209252   0.45557321],1,1,1,0.230686333,0,nan,nan,nan,nan,nan,nan,nan,nan,nan,nan,[ nan  nan  nan],nan,nan,nan,2720.095322,2779.799589,2780.030275,nan,nan
0,48,19:13:49:122000,6,1,426,299.53125,[ 0.15619305  0.44621085 -0.8148597 ],1,1,1,0.280905459,0,nan,nan,nan,nan,nan,nan,nan,nan,nan,nan,[ nan  nan  nan],nan,nan,nan,2720.095322,2780.741373,2781.022279,nan,nan
0,49,19:13:50:074000,6,1,56,39.375,[ 1.         -0.06536751 -1.        ],1,1,1,0.291090579,0,nan,nan,nan,nan,nan,nan,nan,nan,nan,nan,[ nan  nan  nan],nan,nan,nan,2720.095322,2781.683165,2781.974256,nan,nan
0,50,19:13:51:010000,6,1,130,91.40625,[ 1.         -0.30933315 -0.13607149],1,1,1,0.285285987,0,nan,nan,nan,nan,nan,nan,nan,nan,nan,nan,[ nan  nan  nan],nan,nan,nan,2720.095322,2782.624951,2782.910237,nan,nan
0,51,19:13:51:946000,6,1,292,205.3125,[ 0.11288167  0.37606958  0.56926185],1,1,1,0.295473103,0,nan,nan,nan,nan,nan,nan,nan,nan,nan,nan,[ nan  nan  nan],nan,nan,nan,2720.095322,2783.566743,2783.862216,nan,nan
0,52,19:13:52:898000,6,1,216,151.875,[ 0.90097501  0.06822711  0.56342658],1,1,1,0.249660163,0,nan,nan,nan,nan,nan,nan,nan,nan,nan,nan,[ nan  nan  nan],nan,nan,nan,2720.095322,2784.50853,2784.75819,nan,nan
0,53,19:13:53:834000,6,1,84,59.0625,[ 1.         -0.20765784 -0.65219109],1,1,1,0.163872518,0,nan,nan,nan,nan,nan,nan,nan,nan,nan,nan,[ nan  nan  nan],nan,nan,nan,2720.095322,2785.450319,2785.614192,nan,nan
0,54,19:13:54:785000,6,1,370,260.15625,[-0.144806    0.47817873 -0.06718033],1,1,1,0.254023586,0,nan,nan,nan,nan,nan,nan,nan,nan,nan,nan,[ nan  nan  nan],nan,nan,nan,2720.095322,2786.392143,2786.646167,nan,nan
0,55,19:13:55:721000,6,0,44,30.9375,[ 1.         -0.00106984 -1.        ],0,1,0,0.240246804,0,0,0,nan,nan,nan,nan,nan,nan,nan,nan,[ nan  nan  nan],nan,nan,nan,2720.095322,2787.333898,2787.574145,nan,nan
0,56,19:13:56:657000,6,1,408,286.875,[ 0.03673793  0.46563766 -0.51593845],1,1,1,0.026408896,0,nan,nan,nan,nan,nan,nan,nan,nan,nan,nan,[ nan  nan  nan],nan,nan,nan,2720.095322,2788.27568,2788.302089,nan,nan
0,57,19:13:57:609000,6,1,147,103.359375,[ 1.         -0.27580113  0.03467205],1,1,1,0.220642337,0,nan,nan,nan,nan,nan,nan,nan,nan,nan,nan,[ nan  nan  nan],nan,nan,nan,2720.095322,2789.217469,2789.438112,nan,nan
0,58,19:13:58:545000,6,1,206,144.84375,[ 0.99472346  0.01405192  0.51131616],1,1,1,0.246828857,0,nan,nan,nan,nan,nan,nan,nan,nan,nan,nan,[ nan  nan  nan],nan,nan,nan,2720.095322,2790.159264,2790.406093,nan,nan
0,59,19:13:59:481000,6,1,157,110.390625,[ 1.         -0.24004838  0.1304259 ],1,1,1,0.233028127,0,nan,nan,nan,nan,nan,nan,nan,nan,nan,nan,[ nan  nan  nan],nan,nan,nan,2720.095322,2791.101049,2791.334077,nan,nan
0,60,19:14:00:432000,6,0,474,333.28125,[ 0.53090176  0.34654538 -1.        ],0,1,0,0.23523906,0,0,0,nan,nan,nan,nan,nan,nan,nan,nan,[ nan  nan  nan],nan,nan,nan,2720.095322,2792.042832,2792.278071,nan,nan
0,61,19:14:01:368000,6,1,239,168.046875,[ 0.66506983  0.18338886  0.64054927],1,1,1,0.253431722,0,nan,nan,nan,nan,nan,nan,nan,nan,nan,nan,[ nan  nan  nan],nan,nan,nan,2720.095322,2792.98463,2793.238062,nan,nan
0,62,19:14:02:320000,6,1,28,19.6875,[ 1.          0.08206613 -1.        ],1,1,1,0.255599606,0,nan,nan,nan,nan,nan,nan,nan,nan,nan,nan,[ nan  nan  nan],nan,nan,nan,2720.095322,2793.926439,2794.182039,nan,nan
0,63,19:14:03:256000,6,1,267,187.734375,[ 0.36292453  0.29880723  0.64662252],1,1,1,0.257812821,0,nan,nan,nan,nan,nan,nan,nan,nan,nan,nan,[ nan  nan  nan],nan,nan,nan,2720.095322,2794.868202,2795.126015,nan,nan
0,64,19:14:04:192000,6,1,96,67.5,[ 1.         -0.25681952 -0.50330248],1,1,1,0.180013046,0,nan,nan,nan,nan,nan,nan,nan,nan,nan,nan,[ nan  nan  nan],nan,nan,nan,2720.095322,2795.809991,2795.990004,nan,nan
0,65,19:14:05:144000,6,1,237,166.640625,[ 0.6863873   0.17403185  0.63634982],1,1,1,0.230203377,0,nan,nan,nan,nan,nan,nan,nan,nan,nan,nan,[ nan  nan  nan],nan,nan,nan,2720.095322,2796.751776,2796.98198,nan,nan
0,66,19:14:06:080000,6,1,490,344.53125,[ 0.66466039  0.29615785 -1.        ],1,1,1,0.200411225,0,nan,nan,nan,nan,nan,nan,nan,nan,nan,nan,[ nan  nan  nan],nan,nan,nan,2720.095322,2797.69357,2797.893982,nan,nan
0,67,19:14:07:016000,6,1,380,267.1875,[-0.10951951  0.47853303 -0.17717739],1,1,1,0.242587742,0,nan,nan,nan,nan,nan,nan,nan,nan,nan,nan,[ nan  nan  nan],nan,nan,nan,2720.095322,2798.635354,2798.877941,nan,nan
0,68,19:14:07:967000,6,1,97,68.203125,[ 1.         -0.26036974 -0.49171883],1,1,1,0.19679704,0,nan,nan,nan,nan,nan,nan,nan,nan,nan,nan,[ nan  nan  nan],nan,nan,nan,2720.095322,2799.577141,2799.773938,nan,nan
0,69,19:14:08:903000,6,1,484,340.3125,[ 0.61439895  0.31611274 -1.        ],1,1,1,0.230996234,0,nan,nan,nan,nan,nan,nan,nan,nan,nan,nan,[ nan  nan  nan],nan,nan,nan,2720.095322,2800.51893,2800.749926,nan,nan
0,70,19:14:09:855000,6,1,218,153.28125,[ 0.88146739  0.07882461  0.57255963],1,1,1,0.233129621,0,nan,nan,nan,nan,nan,nan,nan,nan,nan,nan,[ nan  nan  nan],nan,nan,nan,2720.095322,2801.460745,2801.693874,nan,nan
0,71,19:14:10:791000,6,1,145,101.953125,[ 1.         -0.28166741  0.01505517],1,1,1,0.275338639,0,nan,nan,nan,nan,nan,nan,nan,nan,nan,nan,[ nan  nan  nan],nan,nan,nan,2720.095322,2802.402508,2802.677847,nan,nan
0,72,19:14:11:727000,6,1,92,64.6875,[ 1.         -0.24170366 -0.55060884],1,1,1,0.245537649,0,nan,nan,nan,nan,nan,nan,nan,nan,nan,nan,[ nan  nan  nan],nan,nan,nan,2720.095322,2803.344294,2803.589832,nan,nan
0,73,19:14:12:678000,6,1,438,307.96875,[ 0.24362256  0.42809644 -1.        ],1,1,1,0.175779914,0,nan,nan,nan,nan,nan,nan,nan,nan,nan,nan,[ nan  nan  nan],nan,nan,nan,2720.095322,2804.286076,2804.461856,nan,nan
0,74,19:14:13:614000,6,1,80,56.25,[ 1.         -0.18907571 -0.70896555],1,1,1,0.20995573,0,nan,nan,nan,nan,nan,nan,nan,nan,nan,nan,[ nan  nan  nan],nan,nan,nan,2720.095322,2805.227876,2805.437832,nan,nan
0,75,19:14:14:550000,6,1,431,303.046875,[ 0.19195726  0.43918129 -0.98229877],1,1,1,0.212165523,0,nan,nan,nan,nan,nan,nan,nan,nan,nan,nan,[ nan  nan  nan],nan,nan,nan,2720.095322,2806.169664,2806.38183,nan,nan
0,76,19:14:15:502000,6,1,77,54.140625,[ 1.         -0.17459302 -0.75626719],1,1,1,0.158352739,0,nan,nan,nan,nan,nan,nan,nan,nan,nan,nan,[ nan  nan  nan],nan,nan,nan,2720.095322,2807.111453,2807.269806,nan,nan
0,77,19:14:16:438000,6,1,341,239.765625,[-0.16853588  0.4619615   0.22326011],1,1,1,0.192563622,0,nan,nan,nan,nan,nan,nan,nan,nan,nan,nan,[ nan  nan  nan],nan,nan,nan,2720.095322,2808.053241,2808.245805,nan,nan
0,78,19:14:17:374000,6,1,58,40.78125,[ 1.         -0.07608966 -1.        ],1,1,1,0.146697655,0,nan,nan,nan,nan,nan,nan,nan,nan,nan,nan,[ nan  nan  nan],nan,nan,nan,2720.095322,2808.995071,2809.141769,nan,nan
0,79,19:14:18:326000,6,1,297,208.828125,[ 0.06862621  0.38864628  0.54490466],1,1,1,0.188938604,0,nan,nan,nan,nan,nan,nan,nan,nan,nan,nan,[ nan  nan  nan],nan,nan,nan,2720.095322,2809.936818,2810.125757,nan,nan
0,80,19:14:19:262000,6,1,453,318.515625,[ 0.35967042  0.39926175 -1.        ],1,1,1,0.22312953,0,1,0,0.186255263,0.254981849,0.059431152,0.314413001,0.195550697,nan,nan,nan,[ nan  nan  nan],nan,nan,nan,2720.095322,2810.878603,2811.101732,nan,nan
0,81,19:14:23:832000,6,1,392,275.625,[-0.05410679  0.47552228 -0.31554984],1,1,1,0.201326959,1,0,0,0.204465031,0.254588611,0.059167787,0.313756398,0.195420824,nan,-162.0955525,359,[-0.16922234  0.47474188  0.0483828 ],nan,-23.52944751,1.575480789,2720.095322,2811.820388,2812.021714,2813.65393,2815.23744
0,82,19:14:24:768000,6,1,132,92.8125,[ 1.         -0.30742683 -0.11555536],1,1,1,0.337929015,0,0,0,0.254128502,0.253939078,0.059095747,0.313034825,0.194843332,nan,nan,nan,[ nan  nan  nan],nan,nan,nan,2720.095322,2816.387687,2816.725616,nan,nan
0,83,19:14:25:720000,6,1,55,38.671875,[ 1.         -0.05999965 -1.        ],1,1,1,0.332179447,0,0,0,0.290478474,0.254951005,0.059449129,0.314400135,0.195501876,nan,nan,nan,[ nan  nan  nan],nan,nan,nan,2720.095322,2817.329437,2817.661616,nan,nan
0,84,19:14:26:656000,6,1,214,150.46875,[ 0.92024366  0.05754104  0.55385485],1,1,1,0.214386435,0,0,0,0.294831633,0.255870392,0.059684861,0.315555253,0.19618553,nan,nan,nan,[ nan  nan  nan],nan,nan,nan,2720.095322,2818.271222,2818.485608,nan,nan
0,85,19:14:27:592000,6,0,338,237.65625,[-0.16289136  0.45892871  0.25039916],0,1,0,0.23257197,0,0,0,0.259712618,0.255382345,0.059501104,0.314883449,0.195881241,nan,nan,nan,[ nan  nan  nan],nan,nan,nan,2720.095322,2819.213012,2819.445584,nan,nan
0,86,19:14:28:544000,6,1,459,322.734375,[ 0.40775816  0.38570917 -1.        ],1,1,1,0.146776912,0,0,0,0.197911772,0.255117108,0.059204679,0.314321787,0.19591243,nan,nan,nan,[ nan  nan  nan],nan,nan,nan,2720.095322,2820.154794,2820.301571,nan,nan
0,87,19:14:29:480000,6,1,57,40.078125,[ 1.         -0.07073133 -1.        ],1,1,1,0.116976492,0,0,0,0.165441791,0.253871818,0.05998557,0.313857388,0.193886249,nan,nan,nan,[ nan  nan  nan],nan,nan,nan,2720.095322,2821.096588,2821.213565,nan,nan
0,88,19:14:30:431000,6,1,298,209.53125,[ 0.06008966  0.39105034  0.53969689],1,1,1,0.287160791,0,1,0,0.183638065,0.25231619,0.061383365,0.313699554,0.190932825,nan,nan,nan,[ nan  nan  nan],nan,nan,nan,2720.095322,2822.038372,2822.325532,nan,nan
0,89,19:14:34:596000,6,1,53,37.265625,[ 1.         -0.04925756 -1.        ],1,1,1,0.297362161,1,0,0,0.233833148,0.252707702,0.061147936,0.313855638,0.191559766,nan,66.83839836,33,[ 1.          0.05659903 -1.        ],nan,-14.10402336,1.183745262,2720.095322,2822.980165,2823.277528,2824.805368,2825.99716
0,90,19:14:35:532000,6,1,223,156.796875,[ 0.83172397  0.10489059  0.59343224],1,1,1,0.234127464,0,0,0,0.272883472,0.253203863,0.060987167,0.314191029,0.192216696,nan,nan,nan,[ nan  nan  nan],nan,nan,nan,2720.095322,2827.147333,2827.38146,nan,nan
0,91,19:14:36:468000,6,1,63,44.296875,[ 1.         -0.10274464 -1.        ],1,1,1,0.284267048,0,0,0,0.271918891,0.252994232,0.060683743,0.313677975,0.192310489,nan,nan,nan,[ nan  nan  nan],nan,nan,nan,2720.095322,2828.089165,2828.373432,nan,nan
0,92,19:14:37:420000,6,0,466,327.65625,[ 0.46478901  0.3683856  -1.        ],0,0,1,0.310450147,0,0,0,0.276281553,0.253334154,0.060440087,0.313774241,0.192894067,nan,nan,nan,[ nan  nan  nan],nan,nan,nan,2720.095322,2829.030953,2829.341403,nan,nan
0,93,19:14:38:356000,6,1,303,213.046875,[ 0.01913493  0.40252284  0.51201836],1,1,1,0.232656929,0,0,0,0.275791375,0.253948304,0.060402194,0.314350499,0.19354611,nan,nan,nan,[ nan  nan  nan],nan,nan,nan,2720.095322,2829.972738,2830.205395,nan,nan
0,94,19:14:39:308000,6,1,177,124.453125,[ 1.         -0.14519215  0.30692121],1,1,1,0.186850547,0,0,0,0.243319208,0.2537218,0.060119742,0.313841542,0.193602059,nan,nan,nan,[ nan  nan  nan],nan,nan,nan,2720.095322,2830.914527,2831.101377,nan,nan
0,95,19:14:40:244000,6,1,462,324.84375,[ 0.43208968  0.37848636 -1.        ],1,1,1,0.205049196,0,0,0,0.208185558,0.253017892,0.060190638,0.313208531,0.192827254,nan,nan,nan,[ nan  nan  nan],nan,nan,nan,2720.095322,2831.856308,2832.061358,nan,nan
0,96,19:14:41:180000,6,1,314,220.78125,[-0.05944389  0.42463231  0.44192541],1,1,1,0.231251397,0,0,0,0.207717047,0.252518219,0.060074065,0.312592283,0.192444154,nan,nan,nan,[ nan  nan  nan],nan,nan,nan,2720.095322,2832.7981,2833.029351,nan,nan
0,97,19:14:42:131000,6,1,241,169.453125,[ 0.64365311  0.19260594  0.64425478],1,1,1,0.273453002,0,0,0,0.236584532,0.252298973,0.059802197,0.31210117,0.192496776,nan,nan,nan,[ nan  nan  nan],nan,nan,nan,2720.095322,2833.739884,2834.013337,nan,nan
0,98,19:14:43:067000,6,1,409,287.578125,[ 0.04294362  0.46479315 -0.52946185],1,1,1,0.275647115,0,0,0,0.260117171,0.25251483,0.059534272,0.312049102,0.192980558,nan,nan,nan,[ nan  nan  nan],nan,nan,nan,2720.095322,2834.681668,2834.957315,nan,nan
0,99,19:14:44:003000,6,1,149,104.765625,[ 1.         -0.26947852  0.05414366],1,1,1,0.261840968,0,0,0,0.270313695,0.25274849,0.059277978,0.312026468,0.193470512,nan,nan,nan,[ nan  nan  nan],nan,nan,nan,2720.095322,2835.623461,2835.885302,nan,nan
0,100,19:14:44:955000,6,1,318,223.59375,[-0.08356276  0.43164026  0.41348156],1,1,1,0.216017195,0,0,0,0.251168426,0.252839415,0.058987782,0.311827196,0.193851633,nan,nan,nan,[ nan  nan  nan],nan,nan,nan,2720.095322,2836.565253,2836.781271,nan,nan
0,101,19:14:45:891000,6,1,407,286.171875,[ 0.03058863  0.46645515 -0.50257741],1,1,1,0.186227894,0,0,0,0.221362019,0.252474838,0.058808153,0.311282992,0.193666685,nan,nan,nan,[ nan  nan  nan],nan,nan,nan,2720.095322,2837.507039,2837.693267,nan,nan
0,102,19:14:46:842000,6,1,239,168.046875,[ 0.66506983  0.18338886  0.64054927],1,1,1,0.196420141,0,0,0,0.199555076,0.251825358,0.058882062,0.310707421,0.192943296,nan,nan,nan,[ nan  nan  nan],nan,nan,nan,2720.095322,2838.448831,2838.645251,nan,nan
0,103,19:14:47:778000,6,1,460,323.4375,[ 0.41584892  0.38333493 -1.        ],1,1,1,0.182611713,0,1,0,0.188419916,0.251287444,0.058846836,0.310134279,0.192440608,nan,nan,nan,[ nan  nan  nan],nan,nan,nan,2720.095322,2839.390622,2839.573234,nan,nan
0,104,19:14:52:131000,6,1,382,268.59375,[-0.10118876  0.47829114 -0.19973227],1,1,1,0.184797843,1,0,0,0.187943232,0.2506271,0.058945449,0.309572549,0.191681651,nan,-172.7718101,374,[-0.13203913  0.47863408 -0.11062844],nan,-5.82193991,1.367125883,2720.095322,2840.332405,2840.517203,2842.157611,2843.532769
0,105,19:14:53:067000,6,1,55,38.671875,[ 1.         -0.05999965 -1.        ],1,1,1,0.402169537,0,0,0,0.256526364,0.250000155,0.059011466,0.309011621,0.190988688,nan,nan,nan,[ nan  nan  nan],nan,nan,nan,2720.095322,2844.682955,2845.085124,nan,nan
0,106,19:14:54:019000,6,1,107,75.234375,[ 1.         -0.29008977 -0.37959278],1,1,1,0.308354963,0,0,0,0.298440781,0.251435715,0.060546579,0.311982294,0.190889136,nan,nan,nan,[ nan  nan  nan],nan,nan,nan,2720.095322,2845.62476,2845.933115,nan,nan
0,107,19:14:54:955000,6,1,380,267.1875,[-0.10951951  0.47853303 -0.17717739],1,1,1,0.270541583,0,0,1,0.327022028,0.251967671,0.060511347,0.312479018,0.191456323,nan,nan,nan,[ nan  nan  nan],nan,nan,nan,2720.095322,2846.566546,2846.837088,nan,nan
0,108,19:14:58:870000,6,1,440,309.375,[ 0.2586994  0.4246574 -1.       ],1,1,1,0.248750416,1,0,0,0.275882321,0.252139651,0.060256817,0.312396468,0.191882834,nan,160.8087152,411,[ 0.05552017  0.46302271 -0.55705476],nan,-20.18371518,0.925440362,2720.095322,2847.508333,2847.757084,2849.333523,2850.266995
0,109,19:14:59:806000,6,1,132,92.8125,[ 1.         -0.30742683 -0.11555536],1,1,1,0.315486115,0,0,0,0.278259371,0.252108557,0.059980643,0.312089201,0.192127914,nan,nan,nan,[ nan  nan  nan],nan,nan,nan,2720.095322,2851.425531,2851.741017,nan,nan
0,110,19:15:00:758000,6,1,389,273.515625,[-0.06912081  0.47662608 -0.28023432],1,1,1,0.309676106,0,0,0,0.291304212,0.252684717,0.060009625,0.312694342,0.192675092,nan,nan,nan,[ nan  nan  nan],nan,nan,nan,2720.095322,2852.367297,2852.676973,nan,nan
0,111,19:15:01:694000,6,1,278,195.46875,[ 0.24828552  0.33580281  0.62196257],1,1,1,0.287862987,0,0,0,0.304341736,0.253198153,0.059980914,0.313179067,0.193217239,nan,nan,nan,[ nan  nan  nan],nan,nan,nan,2720.095322,2853.309085,2853.596948,nan,nan
0,112,19:15:02:645000,6,1,473,332.578125,[ 0.52259481  0.34939617 -1.        ],1,1,1,0.250067568,0,0,0,0.282535554,0.25350766,0.059801512,0.313309172,0.193706148,nan,nan,nan,[ nan  nan  nan],nan,nan,nan,2720.095322,2854.250873,2854.500941,nan,nan
0,113,19:15:03:581000,6,1,108,75.9375,[ 1.         -0.29242661 -0.36866329],1,1,1,0.196263337,0,0,0,0.244731297,0.253477217,0.059537187,0.313014404,0.19394003,nan,nan,nan,[ nan  nan  nan],nan,nan,nan,2720.095322,2855.192665,2855.388928,nan,nan
0,114,19:15:04:517000,6,1,197,138.515625,[ 1.         -0.0357976   0.45577474],1,1,1,0.222466108,0,0,0,0.222932338,0.252975341,0.059515086,0.312490426,0.193460255,nan,nan,nan,[ nan  nan  nan],nan,nan,nan,2720.095322,2856.13445,2856.356916,nan,nan
0,115,19:15:05:469000,6,1,50,35.15625,[ 1.         -0.03314873 -1.        ],1,1,1,0.216681473,0,0,0,0.211803639,0.252710043,0.059323424,0.312033467,0.193386619,nan,nan,nan,[ nan  nan  nan],nan,nan,nan,2720.095322,2857.076237,2857.292919,nan,nan
0,116,19:15:06:405000,6,1,250,175.78125,[ 0.54642845  0.23228666  0.65474773],1,1,1,0.210866047,0,0,0,0.216671209,0.252399452,0.059160999,0.311560451,0.193238453,nan,nan,nan,[ nan  nan  nan],nan,nan,nan,2720.095322,2858.018026,2858.228893,nan,nan
0,117,19:15:07:341000,6,0,155,108.984375,[ 1.         -0.24798314  0.11161188],0,0,1,0.349071208,0,0,0,0.258872909,0.252044466,0.059031575,0.311076041,0.193012891,nan,nan,nan,[ nan  nan  nan],nan,nan,nan,2720.095322,2858.959814,2859.308885,nan,nan
0,118,19:15:08:293000,6,1,409,287.578125,[ 0.04294362  0.46479315 -0.52946185],1,1,1,0.263235951,0,0,0,0.274391069,0.252866726,0.059449983,0.312316709,0.193416744,nan,nan,nan,[ nan  nan  nan],nan,nan,nan,2720.095322,2859.9016,2860.164836,nan,nan
0,119,19:15:09:229000,6,1,313,220.078125,[-0.05302215  0.42279583  0.44879796],1,1,1,0.273444449,0,0,0,0.295250536,0.252953863,0.059207232,0.312161095,0.19374663,nan,nan,nan,[ nan  nan  nan],nan,nan,nan,2720.095322,2860.84339,2861.116834,nan,nan
0,120,19:15:10:180000,6,1,59,41.484375,[ 1.         -0.08144099 -1.        ],1,1,1,0.22764491,0,0,0,0.254775103,0.253124617,0.058989436,0.312114054,0.194135181,nan,nan,nan,[ nan  nan  nan],nan,nan,nan,2720.095322,2861.785184,2862.012829,nan,nan
0,121,19:15:11:116000,6,1,214,150.46875,[ 0.92024366  0.05754104  0.55385485],1,1,1,0.23784628,0,0,0,0.24631188,0.252914041,0.058790445,0.311704486,0.194123597,nan,nan,nan,[ nan  nan  nan],nan,nan,nan,2720.095322,2862.726969,2862.964816,nan,nan
0,122,19:15:12:052000,6,1,346,243.28125,[-0.17431756  0.46643129  0.17667017],1,1,1,0.296040162,0,0,0,0.253843784,0.252790535,0.058564764,0.3113553,0.194225771,nan,nan,nan,[ nan  nan  nan],nan,nan,nan,2720.095322,2863.668753,2863.964794,nan,nan
0,123,19:15:13:004000,6,1,441,310.078125,[ 0.26628726  0.42289189 -1.        ],1,1,1,0.306230984,0,0,0,0.280039142,0.253142158,0.058455374,0.311597532,0.194686784,nan,nan,nan,[ nan  nan  nan],nan,nan,nan,2720.095322,2864.610547,2864.916778,nan,nan
0,124,19:15:13:940000,6,1,348,244.6875,[-0.17538477  0.46801784  0.15758216],1,1,1,0.300420405,0,0,0,0.300897184,0.253570294,0.058412498,0.311982792,0.195157795,nan,nan,nan,[ nan  nan  nan],nan,nan,nan,2720.095322,2865.552333,2865.852753,nan,nan
0,125,19:15:14:876000,6,1,299,210.234375,[ 0.05166456  0.39341767  0.53437875],1,1,1,0.270623121,0,0,0,0.292424837,0.253945095,0.05832789,0.312272985,0.195617204,nan,nan,nan,[ nan  nan  nan],nan,nan,nan,2720.095322,2866.494121,2866.764744,nan,nan
0,126,19:15:15:827000,6,1,358,251.71875,[-0.17058391  0.47426832  0.05858744],1,1,1,0.2728198,0,0,0,0.281287775,0.25407746,0.058114815,0.312192275,0.195962645,nan,nan,nan,[ nan  nan  nan],nan,nan,nan,2720.095322,2867.435907,2867.708727,nan,nan
0,127,19:15:16:763000,6,1,293,206.015625,[ 0.10383026  0.3786596   0.56461706],1,1,1,0.227008856,0,0,0,0.256817259,0.254225037,0.057909263,0.312134301,0.196315774,nan,nan,nan,[ nan  nan  nan],nan,nan,nan,2720.095322,2868.377703,2868.604712,nan,nan
0,128,19:15:17:699000,6,1,196,137.8125,[ 1.         -0.04136108  0.44913076],1,1,1,0.221221085,0,0,0,0.240349914,0.254012411,0.057732359,0.311744771,0.196280052,nan,nan,nan,[ nan  nan  nan],nan,nan,nan,2720.095322,2869.319485,2869.540707,nan,nan
0,129,19:15:18:651000,6,1,93,65.390625,[ 1.         -0.2456143  -0.53861988],1,1,1,0.239411467,0,0,0,0.229213803,0.253758215,0.05758002,0.311338235,0.196178194,nan,nan,nan,[ nan  nan  nan],nan,nan,nan,2720.095322,2870.261274,2870.500686,nan,nan
0,130,19:15:19:587000,6,1,464,326.25,[ 0.44840488  0.37350356 -1.        ],1,1,1,0.249612267,0,0,0,0.236748273,0.253647855,0.057371825,0.31101968,0.19627603,nan,nan,nan,[ nan  nan  nan],nan,nan,nan,2720.095322,2871.203062,2871.452674,nan,nan
0,131,19:15:20:539000,6,1,387,272.109375,[-0.07872193  0.47723176 -0.25697445],1,1,1,0.251800963,0,0,0,0.246941566,0.253617049,0.057153509,0.310770558,0.19646354,nan,nan,nan,[ nan  nan  nan],nan,nan,nan,2720.095322,2872.144852,2872.396653,nan,nan
0,132,19:15:21:475000,6,1,11,7.734375,[ 0.9346595  0.1638529 -1.       ],1,1,1,0.229993545,0,0,0,0.243802258,0.253603291,0.056936824,0.310540115,0.196666467,nan,nan,nan,[ nan  nan  nan],nan,nan,nan,2720.095322,2873.086638,2873.316631,nan,nan
0,133,19:15:22:411000,6,1,213,149.765625,[ 0.92978509  0.05216688  0.54890652],1,1,1,0.168201158,0,0,0,0.216665222,0.253425774,0.056759027,0.310184801,0.196666747,nan,nan,nan,[ nan  nan  nan],nan,nan,nan,2720.095322,2874.028422,2874.196623,nan,nan
0,134,19:15:23:362000,6,1,29,20.390625,[ 1.          0.07701739 -1.        ],1,1,1,0.08234794,0,1,0,0.160180881,0.252789769,0.057020559,0.309810329,0.19576921,nan,nan,nan,[ nan  nan  nan],nan,nan,nan,2720.095322,2874.97022,2875.052568,nan,nan
0,135,19:15:24:298000,6,0,364,255.9375,[-0.16019432  0.47670452 -0.00341125],0,1,0,0.04457704,0,0,0,0.09837538,0.251527237,0.058658797,0.310186034,0.192868441,nan,nan,nan,[ nan  nan  nan],nan,nan,nan,2720.095322,2875.912003,2875.95658,nan,nan
0,136,19:15:25:234000,6,1,106,74.53125,[ 1.         -0.28763007 -0.39056445],1,1,1,0.230768156,0,0,0,0.119231046,0.250005545,0.061058604,0.311064148,0.188946941,nan,nan,nan,[ nan  nan  nan],nan,nan,nan,2720.095322,2876.853792,2877.08456,nan,nan
0,137,19:15:26:186000,6,1,429,301.640625,[ 0.17753182  0.44208078 -0.9018852 ],1,1,1,0.26493713,0,0,0,0.180094109,0.249865126,0.060857389,0.310722515,0.189007736,nan,nan,nan,[ nan  nan  nan],nan,nan,nan,2720.095322,2877.7956,2878.060537,nan,nan
0,138,19:15:27:122000,6,1,213,149.765625,[ 0.92978509  0.05216688  0.54890652],1,1,1,0.267170016,0,0,0,0.254291768,0.249974343,0.060649965,0.310624308,0.189324379,nan,nan,nan,[ nan  nan  nan],nan,nan,nan,2720.095322,2878.737364,2879.004534,nan,nan
0,139,19:15:28:073000,6,1,58,40.78125,[ 1.         -0.07608966 -1.        ],1,1,1,0.261357727,0,0,0,0.264488291,0.250098053,0.060448877,0.31054693,0.189649176,nan,nan,nan,[ nan  nan  nan],nan,nan,nan,2720.095322,2879.679161,2879.940519,nan,nan
0,140,19:15:29:009000,6,1,177,124.453125,[ 1.         -0.14519215  0.30692121],1,1,1,0.223539216,0,0,0,0.250688986,0.250178479,0.060240064,0.310418544,0.189938415,nan,nan,nan,[ nan  nan  nan],nan,nan,nan,2720.095322,2880.620946,2880.844485,nan,nan
0,141,19:15:29:945000,6,0,467,328.359375,[ 0.47300519  0.36577567 -1.        ],0,0,1,0.361742951,0,0,0,0.282213298,0.249989548,0.060067679,0.310057227,0.18992187,nan,nan,nan,[ nan  nan  nan],nan,nan,nan,2720.095322,2881.562725,2881.924468,nan,nan
0,142,19:15:30:897000,6,1,221,155.390625,[ 0.85178146  0.09454116  0.58542294],1,1,1,0.235933273,0,0,0,0.27373848,0.250776544,0.060580911,0.311357455,0.190195633,nan,nan,nan,[ nan  nan  nan],nan,nan,nan,2720.095322,2882.504526,2882.740459,nan,nan
0,143,19:15:31:833000,6,1,136,95.625,[ 1.         -0.3019149  -0.07484121],1,1,1,0.278129747,0,0,0,0.291935324,0.250672745,0.060381388,0.311054133,0.190291357,nan,nan,nan,[ nan  nan  nan],nan,nan,nan,2720.095322,2883.446312,2883.724442,nan,nan
0,144,19:15:32:769000,6,1,462,324.84375,[ 0.43208968  0.37848636 -1.        ],1,1,1,0.200317713,0,0,0,0.238126911,0.250863419,0.060214551,0.31107797,0.190648867,nan,nan,nan,[ nan  nan  nan],nan,nan,nan,2720.095322,2884.388109,2884.588427,nan,nan
0,145,19:15:33:721000,6,1,356,250.3125,[-0.17284378  0.47323941  0.07883681],1,1,1,0.250458152,0,0,0,0.242968537,0.250514828,0.060152182,0.31066701,0.190362646,nan,nan,nan,[ nan  nan  nan],nan,nan,nan,2720.095322,2885.329946,2885.580404,nan,nan
0,146,19:15:34:657000,6,1,310,217.96875,[-0.03285454  0.41708073  0.46882802],1,1,1,0.244703168,0,0,0,0.231826344,0.250514439,0.059945828,0.310460267,0.190568612,nan,nan,nan,[ nan  nan  nan],nan,nan,nan,2720.095322,2886.271681,2886.516384,nan,nan
0,147,19:15:35:608000,6,1,175,123.046875,[ 1.         -0.15562995  0.29036176],1,1,1,0.190929442,0,0,0,0.22869692,0.250474907,0.059743492,0.310218399,0.190731415,nan,nan,nan,[ nan  nan  nan],nan,nan,nan,2720.095322,2887.213467,2887.404396,nan,nan
0,148,19:15:36:544000,6,0,72,50.625,[ 1.         -0.14960778 -0.85320374],0,1,0,0.193108159,0,0,0,0.209580256,0.250072573,0.059740801,0.309813374,0.190331772,nan,nan,nan,[ nan  nan  nan],nan,nan,nan,2720.095322,2888.155252,2888.34836,nan,nan
0,149,19:15:37:480000,6,1,444,312.1875,[ 0.2892412   0.41740978 -1.        ],1,1,1,0.235328581,0,0,0,0.206455394,0.249690261,0.059721374,0.309411636,0.189968887,nan,nan,nan,[ nan  nan  nan],nan,nan,nan,2720.095322,2889.097028,2889.332357,nan,nan
0,150,19:15:38:432000,6,1,256,180,[ 0.48131261  0.25704791  0.65606572],1,1,1,0.253501571,0,0,0,0.227312771,0.249594517,0.059533443,0.30912796,0.190061074,nan,nan,nan,[ nan  nan  nan],nan,nan,nan,2720.095322,2890.038829,2890.292331,nan,nan
0,151,19:15:39:368000,6,1,406,285.46875,[ 0.02449675  0.4672457  -0.4893661 ],1,1,1,0.239711675,0,0,0,0.242847276,0.249620391,0.059336831,0.308957222,0.19028356,nan,nan,nan,[ nan  nan  nan],nan,nan,nan,2720.095322,2890.980613,2891.220324,nan,nan
0,152,19:15:40:304000,6,1,227,159.609375,[ 0.79101995  0.12525779  0.60806671],1,1,1,0.22585364,0,0,0,0.239688962,0.249555202,0.059146747,0.308701949,0.190408456,nan,nan,nan,[ nan  nan  nan],nan,nan,nan,2720.095322,2891.922445,2892.148299,nan,nan
0,153,19:15:41:255000,6,1,382,268.59375,[-0.10118876  0.47829114 -0.19973227],1,1,1,0.20406903,0,0,0,0.223211448,0.24940029,0.058984069,0.308384359,0.190416221,nan,nan,nan,[ nan  nan  nan],nan,nan,nan,2720.095322,2892.864226,2893.068295,nan,nan
0,154,19:15:42:191000,6,1,502,352.96875,[ 0.76474094  0.25241358 -1.        ],1,1,1,0.174305673,0,0,0,0.201409448,0.249105931,0.058904887,0.308010818,0.190201045,nan,nan,nan,[ nan  nan  nan],nan,nan,nan,2720.095322,2893.805985,2893.980291,nan,nan
0,155,19:15:43:143000,6,1,362,254.53125,[-0.16423973  0.47600016  0.01745785],1,1,1,0.208480349,0,0,0,0.195618351,0.248623349,0.059019186,0.307642536,0.189604163,nan,nan,nan,[ nan  nan  nan],nan,nan,nan,2720.095322,2894.747775,2894.956255,nan,nan
0,156,19:15:44:079000,6,1,432,303.75,[ 0.1992279   0.43768733 -1.        ],1,1,1,0.218662332,0,0,0,0.200482785,0.248366022,0.058916886,0.307282908,0.189449137,nan,nan,nan,[ nan  nan  nan],nan,nan,nan,2720.095322,2895.68956,2895.908223,nan,nan
0,157,19:15:45:015000,6,1,25,17.578125,[ 1.          0.09706829 -1.        ],1,1,1,0.188905532,0,0,0,0.205349405,0.248176827,0.058776474,0.3069533,0.189400353,nan,nan,nan,[ nan  nan  nan],nan,nan,nan,2720.095322,2896.631343,2896.820248,nan,nan
0,158,19:15:45:967000,6,1,347,243.984375,[-0.17493884  0.46723881  0.16715748],1,1,1,0.231038144,0,0,0,0.21286867,0.247801692,0.058778422,0.306580113,0.18902327,nan,nan,nan,[ nan  nan  nan],nan,nan,nan,2720.095322,2897.573143,2897.804181,nan,nan
0,159,19:15:46:903000,6,1,135,94.921875,[ 1.         -0.30350232 -0.08497887],1,1,1,0.273248872,0,0,0,0.231064183,0.247696261,0.058608277,0.306304538,0.189087983,nan,nan,nan,[ nan  nan  nan],nan,nan,nan,2720.095322,2898.514928,2898.788177,nan,nan
0,160,19:15:47:839000,6,1,280,196.875,[ 0.22808935  0.34201885  0.61587222],1,1,1,0.235448607,0,0,0,0.246578541,0.247855965,0.058459535,0.306315499,0.18939643,nan,nan,nan,[ nan  nan  nan],nan,nan,nan,2720.095322,2899.456715,2899.692164,nan,nan
0,161,19:15:48:790000,6,1,204,143.4375,[ 1.          0.00303257  0.49965442],1,1,1,0.261582669,0,0,0,0.256760049,0.2477789,0.058285853,0.306064753,0.189493048,nan,nan,nan,[ nan  nan  nan],nan,nan,nan,2720.095322,2900.398566,2900.660149,nan,nan
0,162,19:15:49:726000,6,1,414,291.09375,[ 0.07478379  0.46016219 -0.60008918],1,1,1,0.271861586,0,0,0,0.256297621,0.247864109,0.058115737,0.305979846,0.189748371,nan,nan,nan,[ nan  nan  nan],nan,nan,nan,2720.095322,2901.340275,2901.612137,nan,nan
0,163,19:15:50:678000,6,1,17,11.953125,[ 0.98106915  0.13592191 -1.        ],1,1,1,0.226033537,0,0,0,0.253159264,0.248011332,0.057967489,0.305978821,0.190043844,nan,nan,nan,[ nan  nan  nan],nan,nan,nan,2720.095322,2902.282082,2902.508116,nan,nan
0,164,19:15:51:614000,6,1,445,312.890625,[ 0.2969539  0.4155201 -1.       ],1,1,1,0.252269664,0,0,0,0.250054929,0.247877322,0.05781581,0.305693131,0.190061512,nan,nan,nan,[ nan  nan  nan],nan,nan,nan,2720.095322,2903.223832,2903.476101,nan,nan
0,165,19:15:52:550000,6,0,37,26.015625,[ 1.          0.03585655 -1.        ],0,1,0,0.254433556,0,0,0,0.244245586,0.247903942,0.057641352,0.305545294,0.190262589,nan,nan,nan,[ nan  nan  nan],nan,nan,nan,2720.095322,2904.165656,2904.420089,nan,nan
0,166,19:15:53:501000,6,1,145,101.953125,[ 1.         -0.28166741  0.01505517],1,1,1,0.328643379,0,0,0,0.278448866,0.247943277,0.057469693,0.30541297,0.190473584,nan,nan,nan,[ nan  nan  nan],nan,nan,nan,2720.095322,2905.107423,2905.436067,nan,nan
0,167,19:15:54:437000,6,1,506,355.78125,[ 0.79777474  0.23670313 -1.        ],1,1,1,0.26681735,0,0,0,0.283298095,0.248426511,0.057634643,0.306061154,0.190791868,nan,nan,nan,[ nan  nan  nan],nan,nan,nan,2720.095322,2906.049232,2906.316049,nan,nan
0,168,19:15:55:373000,6,1,423,297.421875,[ 0.13522958  0.45008089 -0.75003992],1,1,1,0.293006721,0,0,0,0.296155817,0.24853598,0.057480266,0.306016246,0.191055714,nan,nan,nan,[ nan  nan  nan],nan,nan,nan,2720.095322,2906.991024,2907.284031,nan,nan
0,169,19:15:56:325000,6,1,367,258.046875,[-0.15309091  0.4775609  -0.03508163],1,1,1,0.335137052,0,0,0,0.298320375,0.248799121,0.057411354,0.306210475,0.191387766,nan,nan,nan,[ nan  nan  nan],nan,nan,nan,2720.095322,2907.93287,2908.268007,nan,nan
0,170,19:15:57:261000,6,1,158,111.09375,[ 1.         -0.23594923  0.13976411],1,1,1,0.305384814,0,0,1,0.311176196,0.249306991,0.057621745,0.306928736,0.191685246,nan,nan,nan,[ nan  nan  nan],nan,nan,nan,2720.095322,2908.8746,2909.179985,nan,nan
0,171,19:16:01:832000,6,1,331,232.734375,[-0.14329784  0.45080175  0.31116671],1,1,1,0.275584393,1,0,0,0.305368753,0.249634931,0.057611903,0.307246835,0.192023028,nan,-152.3189384,345,[-0.17351954  0.46559515  0.18611928],nan,9.584563432,1.583809637,2720.095322,2909.816393,2910.091977,2911.633257,2913.225099
0,172,19:16:02:768000,6,1,508,357.1875,[ 0.81419982  0.22863893 -1.        ],1,1,1,0.276226149,0,0,0,0.285731785,0.2497858,0.057478051,0.307263851,0.192307749,nan,nan,nan,[ nan  nan  nan],nan,nan,nan,2720.095322,2914.383644,2914.65987,nan,nan
0,173,19:16:03:719000,6,0,456,320.625,[ 0.38361243  0.39263319 -1.        ],0,0,1,0.310442449,0,0,0,0.287417664,0.249938635,0.057346729,0.307285364,0.192591906,nan,nan,nan,[ nan  nan  nan],nan,nan,nan,2720.095322,2915.325433,2915.635875,nan,nan
0,174,19:16:04:655000,6,1,500,351.5625,[ 0.74814593  0.26005829 -1.        ],1,1,1,0.240640238,0,0,0,0.275769612,0.250286358,0.057364315,0.307650673,0.192922042,nan,nan,nan,[ nan  nan  nan],nan,nan,nan,2720.095322,2916.267221,2916.507861,nan,nan
0,175,19:16:05:591000,6,0,297,208.828125,[ 0.06862621  0.38864628  0.54490466],0,1,0,0.226798454,0,0,0,0.259293714,0.250231237,0.057204804,0.307436041,0.193026434,nan,nan,nan,[ nan  nan  nan],nan,nan,nan,2720.095322,2917.209013,2917.435812,nan,nan
0,176,19:16:06:543000,6,1,73,51.328125,[ 1.         -0.15467886 -0.83091687],1,1,1,0.301029374,0,0,0,0.256156022,0.250098096,0.057069244,0.30716734,0.193028853,nan,nan,nan,[ nan  nan  nan],nan,nan,nan,2720.095322,2918.150799,2918.451828,nan,nan
0,177,19:16:07:479000,6,1,377,265.078125,[-0.12125986  0.47870083 -0.1436959 ],1,1,1,0.279220246,0,0,0,0.269016025,0.250385844,0.057035695,0.307421539,0.193350148,nan,nan,nan,[ nan  nan  nan],nan,nan,nan,2720.095322,2919.092587,2919.371807,nan,nan
0,178,19:16:08:415000,6,1,84,59.0625,[ 1.         -0.20765784 -0.65219109],1,1,1,0.329407441,0,0,0,0.303219021,0.250547835,0.056916075,0.307463909,0.19363176,nan,nan,nan,[ nan  nan  nan],nan,nan,nan,2720.095322,2920.034373,2920.36378,nan,nan
0,179,19:16:09:367000,6,1,270,189.84375,[ 0.33115907  0.30936972  0.64139387],1,1,1,0.251629334,0,0,0,0.28675234,0.250988391,0.057060408,0.308048799,0.193927983,nan,nan,nan,[ nan  nan  nan],nan,nan,nan,2720.095322,2920.976161,2921.22779,nan,nan
0,180,19:16:10:303000,6,1,18,12.65625,[ 0.9886827   0.13116258 -1.        ],1,1,1,0.285810852,0,0,0,0.288949209,0.250991952,0.056901706,0.307893658,0.194090246,nan,nan,nan,[ nan  nan  nan],nan,nan,nan,2720.095322,2921.917953,2922.203763,nan,nan
0,181,19:16:11:254000,6,1,144,101.25,[ 1.         -0.28442319  0.00519445],1,1,1,0.320000354,0,0,0,0.285813513,0.251184322,0.056802965,0.307987286,0.194381357,nan,nan,nan,[ nan  nan  nan],nan,nan,nan,2720.095322,2922.859743,2923.179743,nan,nan
0,182,19:16:12:190000,6,1,406,285.46875,[ 0.02449675  0.4672457  -0.4893661 ],1,1,1,0.266205245,0,0,0,0.29067215,0.251562432,0.056874647,0.308437078,0.194687785,nan,nan,nan,[ nan  nan  nan],nan,nan,nan,2720.095322,2923.801529,2924.067734,nan,nan
0,183,19:16:13:126000,6,1,235,165.234375,[ 0.70759192  0.16453778  0.63165963],1,1,1,0.236422216,0,0,0,0.274209272,0.251642447,0.05672931,0.308371757,0.194913137,nan,nan,nan,[ nan  nan  nan],nan,nan,nan,2720.095322,2924.743289,2924.979711,nan,nan
0,184,19:16:14:078000,6,1,328,230.625,[-0.13215956  0.44685797  0.33604616],1,1,1,0.254584943,0,0,0,0.252404135,0.251559728,0.056586009,0.308145737,0.194973719,nan,nan,nan,[ nan  nan  nan],nan,nan,nan,2720.095322,2925.685106,2925.939691,nan,nan
0,185,19:16:15:014000,6,1,214,150.46875,[ 0.92024366  0.05754104  0.55385485],1,1,1,0.232802614,0,0,0,0.241269925,0.251576081,0.056433303,0.308009384,0.195142778,nan,nan,nan,[ nan  nan  nan],nan,nan,nan,2720.095322,2926.626883,2926.859685,nan,nan
0,186,19:16:15:950000,6,1,322,226.40625,[-0.10506723  0.43811622  0.38355935],1,1,1,0.202981097,0,0,0,0.230122885,0.251475148,0.056298137,0.307773285,0.195177012,nan,nan,nan,[ nan  nan  nan],nan,nan,nan,2720.095322,2927.568681,2927.771662,nan,nan
0,187,19:16:16:901000,6,1,268,188.4375,[ 0.35230222  0.30236752  0.64500531],1,1,1,0.205214553,0,0,0,0.213666088,0.251215822,0.056258685,0.307474507,0.194957137,nan,nan,nan,[ nan  nan  nan],nan,nan,nan,2720.095322,2928.51044,2928.715655,nan,nan
0,188,19:16:17:837000,6,0,161,113.203125,[ 1.         -0.22315835  0.16749055],0,0,1,0.343368397,0,0,0,0.250521349,0.250971134,0.056208544,0.307179678,0.19476259,nan,nan,nan,[ nan  nan  nan],nan,nan,nan,2720.095322,2929.45226,2929.795629,nan,nan
0,189,19:16:18:789000,6,1,207,145.546875,[ 0.98565351  0.01954319  0.51699622],1,1,1,0.209551176,0,0,0,0.252711375,0.251460009,0.056458973,0.307918982,0.195001036,nan,nan,nan,[ nan  nan  nan],nan,nan,nan,2720.095322,2930.39405,2930.603601,nan,nan
0,190,19:16:19:725000,6,1,448,315,[ 0.32026744  0.40966225 -1.        ],1,1,1,0.08377628,0,0,0,0.212231951,0.251239436,0.05639179,0.307631226,0.194847646,nan,nan,nan,[ nan  nan  nan],nan,nan,nan,2720.095322,2931.335834,2931.41961,nan,nan
0,191,19:16:20:661000,6,1,247,173.671875,[ 0.57894763  0.21939267  0.65238059],1,1,1,0.16596314,0,1,0,0.153096866,0.250362665,0.057527755,0.307890421,0.19283491,nan,nan,nan,[ nan  nan  nan],nan,nan,nan,2720.095322,2932.277625,2932.443588,nan,nan
0,192,19:16:25:091000,6,1,409,287.578125,[ 0.04294362  0.46479315 -0.52946185],1,1,1,0.19212001,1,0,0,0.147286477,0.249923084,0.057698467,0.307621552,0.192224617,nan,171.7927836,396,[-0.03301537  0.47368488 -0.36352378],nan,-9.370908588,1.425446919,2720.095322,2933.219413,2933.411533,2935.052949,2936.486439
0,193,19:16:26:027000,6,1,208,146.25,[ 0.97651258  0.02502074  0.52257448],1,1,1,0.342539332,0,0,0,0.233540828,0.249623587,0.057698233,0.307321819,0.191925354,nan,nan,nan,[ nan  nan  nan],nan,nan,nan,2720.095322,2937.644949,2937.987488,nan,nan
0,194,19:16:26:979000,6,1,379,266.484375,[-0.11353594  0.47861499 -0.16597052],1,1,1,0.312681322,0,0,0,0.282446888,0.250102534,0.057932704,0.308035237,0.19216983,nan,nan,nan,[ nan  nan  nan],nan,nan,nan,2720.095322,2938.586774,2938.899455,nan,nan
0,195,19:16:27:915000,6,1,305,214.453125,[ 0.00361193  0.40685925  0.50019691],1,1,1,0.314873439,0,0,1,0.323364698,0.250423451,0.057956591,0.308380042,0.192466859,nan,nan,nan,[ nan  nan  nan],nan,nan,nan,2720.095322,2939.528562,2939.843436,nan,nan
0,196,19:16:32:189000,6,0,135,94.921875,[ 1.         -0.30350232 -0.08497887],0,0,1,0.405054157,1,0,0,0.344202973,0.250752277,0.057990634,0.308742911,0.192761643,nan,-35.965005,179,[ 1.         -0.13461442  0.32320413],nan,31.04313,1.267095036,2720.095322,2940.470377,2940.875431,2942.303883,2943.579025
0,197,19:16:33:125000,6,1,340,239.0625,[-0.16683717  0.46098011  0.2323764 ],1,1,1,0.321757411,0,0,0,0.347228336,0.251535535,0.058873489,0.310409025,0.192662046,nan,nan,nan,[ nan  nan  nan],nan,nan,nan,2720.095322,2944.737607,2945.059364,nan,nan
0,198,19:16:34:061000,6,0,158,111.09375,[ 1.         -0.23594923  0.13976411],0,0,1,0.371971121,0,0,0,0.366260896,0.251890191,0.058935228,0.310825419,0.192954964,nan,nan,nan,[ nan  nan  nan],nan,nan,nan,2720.095322,2945.679356,2946.051327,nan,nan
0,199,19:16:35:013000,6,1,374,262.96875,[-0.13203913  0.47863408 -0.11062844],1,1,1,0.334180834,0,0,0,0.342636455,0.252493613,0.059396989,0.311890602,0.193096624,nan,nan,nan,[ nan  nan  nan],nan,nan,nan,2720.095322,2946.621143,2946.955324,nan,nan
0,200,19:16:35:949000,6,1,35,24.609375,[ 1.          0.04626536 -1.        ],1,1,1,0.288348793,0,0,0,0.331500249,0.252902049,0.059527804,0.312429854,0.193374245,nan,nan,nan,[ nan  nan  nan],nan,nan,nan,2720.095322,2947.562931,2947.85128,nan,nan
0,201,19:16:36:901000,6,1,459,322.734375,[ 0.40775816  0.38570917 -1.        ],1,1,1,0.27456916,0,0,0,0.299032929,0.253078401,0.059431892,0.312510294,0.193646509,nan,nan,nan,[ nan  nan  nan],nan,nan,nan,2720.095322,2948.504721,2948.77929,nan,nan
0,202,19:16:37:837000,6,1,57,40.078125,[ 1.         -0.07073133 -1.        ],1,1,1,0.276773822,0,0,0,0.279897258,0.253184791,0.059303786,0.312488577,0.193881005,nan,nan,nan,[ nan  nan  nan],nan,nan,nan,2720.095322,2949.446507,2949.723281,nan,nan
0,203,19:16:38:773000,6,0,291,204.609375,[ 0.12202764  0.37344194  0.57379193],0,1,0,0.214962333,0,0,0,0.255435105,0.253300993,0.059180586,0.31248158,0.194120407,nan,nan,nan,[ nan  nan  nan],nan,nan,nan,2720.095322,2950.388297,2950.603259,nan,nan
0,204,19:16:39:724000,6,1,88,61.875,[ 1.         -0.22525759 -0.59993285],1,1,1,0.201159607,0,0,0,0.230965254,0.253113059,0.059096052,0.31220911,0.194017007,nan,nan,nan,[ nan  nan  nan],nan,nan,nan,2720.095322,2951.330096,2951.531255,nan,nan
0,205,19:16:40:660000,6,1,347,243.984375,[-0.17493884  0.46723881  0.16715748],1,1,1,0.259346932,0,0,0,0.225156291,0.252859627,0.059062762,0.311922389,0.193796865,nan,nan,nan,[ nan  nan  nan],nan,nan,nan,2720.095322,2952.271875,2952.531222,nan,nan
0,206,19:16:41:596000,6,1,126,88.59375,[ 1.         -0.31141175 -0.17740843],1,1,1,0.197532307,0,0,0,0.219346282,0.252891119,0.058920957,0.311812076,0.193970162,nan,nan,nan,[ nan  nan  nan],nan,nan,nan,2720.095322,2953.213673,2953.411205,nan,nan
0,207,19:16:42:548000,6,1,390,274.21875,[-0.06419603  0.4762842  -0.29194755],1,1,1,0.255731892,0,0,0,0.237537044,0.252623685,0.058903659,0.311527344,0.193720026,nan,nan,nan,[ nan  nan  nan],nan,nan,nan,2720.095322,2954.155458,2954.411189,nan,nan
0,208,19:16:43:484000,6,1,48,33.75,[ 1.         -0.02242733 -1.        ],1,1,1,0.281942075,0,0,0,0.245068758,0.252638628,0.058762287,0.311400915,0.193876342,nan,nan,nan,[ nan  nan  nan],nan,nan,nan,2720.095322,2955.097241,2955.379183,nan,nan
0,209,19:16:44:435000,6,0,120,84.375,[ 1.         -0.3101615  -0.24016291],0,0,1,0.348126679,0,0,0,0.295266882,0.252778836,0.058656404,0.31143524,0.194122433,nan,nan,nan,[ nan  nan  nan],nan,nan,nan,2720.095322,2956.039026,2956.387153,nan,nan
0,210,19:16:45:371000,6,1,342,240.46875,[-0.17005262  0.46291356  0.21407524],1,1,1,0.246333642,0,0,0,0.292134132,0.253232874,0.058883574,0.312116448,0.194349299,nan,nan,nan,[ nan  nan  nan],nan,nan,nan,2720.095322,2956.98081,2957.227143,nan,nan
0,211,19:16:46:307000,6,1,249,175.078125,[ 0.55727555  0.22802627  0.65408488],1,1,1,0.248524049,0,0,0,0.28099479,0.253200176,0.058745785,0.311945961,0.194454391,nan,nan,nan,[ nan  nan  nan],nan,nan,nan,2720.095322,2957.922611,2958.171135,nan,nan
0,212,19:16:47:259000,6,0,178,125.15625,[ 1.         -0.13991966  0.31509783],0,1,0,0.242717176,0,0,0,0.245858289,0.253178119,0.058607946,0.311786064,0.194570173,nan,nan,nan,[ nan  nan  nan],nan,nan,nan,2720.095322,2958.864398,2959.107115,nan,nan
0,213,19:16:48:195000,6,1,366,257.34375,[-0.15559338  0.47730203 -0.02447665],1,1,1,0.220915175,0,0,0,0.237385467,0.253129006,0.058474579,0.311603585,0.194654427,nan,nan,nan,[ nan  nan  nan],nan,nan,nan,2720.095322,2959.806181,2960.027097,nan,nan
0,214,19:16:49:131000,6,0,100,70.3125,[ 1.         -0.27042709 -0.4574399 ],0,0,1,0.319093742,0,0,0,0.260908698,0.252978474,0.058379149,0.311357623,0.194599325,nan,nan,nan,[ nan  nan  nan],nan,nan,nan,2720.095322,2960.747973,2961.067067,nan,nan
0,215,19:16:50:083000,6,1,204,143.4375,[ 1.          0.00303257  0.49965442],1,1,1,0.257305062,0,0,0,0.265771326,0.253285987,0.058416693,0.31170268,0.194869294,nan,nan,nan,[ nan  nan  nan],nan,nan,nan,2720.095322,2961.68976,2961.947065,nan,nan
0,216,19:16:51:019000,6,1,478,336.09375,[ 0.5642225   0.33479366 -1.        ],1,1,1,0.267489896,0,0,0,0.281296233,0.253304594,0.058281951,0.311586545,0.195022643,nan,nan,nan,[ nan  nan  nan],nan,nan,nan,2720.095322,2962.631548,2962.899038,nan,nan
0,217,19:16:51:955000,6,1,329,231.328125,[-0.13605328  0.44820379  0.32783374],1,1,1,0.229689631,0,0,0,0.251494863,0.253369964,0.058155442,0.311525406,0.195214522,nan,nan,nan,[ nan  nan  nan],nan,nan,nan,2720.095322,2963.573338,2963.803028,nan,nan
0,218,19:16:52:906000,6,1,455,319.921875,[ 0.37560825  0.39487537 -1.        ],1,1,1,0.239880168,0,0,0,0.245686565,0.253261339,0.058043965,0.311305304,0.195217373,nan,nan,nan,[ nan  nan  nan],nan,nan,nan,2720.095322,2964.515124,2964.755004,nan,nan
0,219,19:16:53:842000,6,1,123,86.484375,[ 1.         -0.31144114 -0.20867286],1,1,1,0.274069954,0,0,0,0.247879918,0.253200237,0.05791832,0.311118557,0.195281918,nan,nan,nan,[ nan  nan  nan],nan,nan,nan,2720.095322,2965.456915,2965.730985,nan,nan
0,220,19:16:54:794000,6,1,324,227.8125,[-0.11479964  0.44115833  0.36806404],1,1,1,0.24427267,0,0,0,0.25274093,0.2532951,0.057803587,0.311098686,0.195491513,nan,nan,nan,[ nan  nan  nan],nan,nan,nan,2720.095322,2966.398711,2966.642983,nan,nan
0,221,19:16:55:730000,6,1,14,9.84375,[ 0.95801505  0.15002356 -1.        ],1,1,1,0.222465252,0,0,0,0.246935959,0.253254274,0.05767584,0.310930114,0.195578434,nan,nan,nan,[ nan  nan  nan],nan,nan,nan,2720.095322,2967.340495,2967.56296,nan,nan
0,222,19:16:56:666000,6,1,59,41.484375,[ 1.         -0.08144099 -1.        ],1,1,1,0.224653948,0,0,0,0.230463957,0.253115585,0.057582716,0.3106983,0.195532869,nan,nan,nan,[ nan  nan  nan],nan,nan,nan,2720.095322,2968.282279,2968.506933,nan,nan
0,223,19:16:57:618000,6,1,493,346.640625,[ 0.68976908  0.28570078 -1.        ],1,1,1,0.186865372,0,0,0,0.211328191,0.252987954,0.057484924,0.310472878,0.19550303,nan,nan,nan,[ nan  nan  nan],nan,nan,nan,2720.095322,2969.224069,2969.410934,nan,nan
0,224,19:16:58:554000,6,1,24,16.875,[ 1.          0.10201906 -1.        ],1,1,1,0.293057469,0,0,0,0.23485893,0.252692764,0.05752561,0.310218374,0.195167154,nan,nan,nan,[ nan  nan  nan],nan,nan,nan,2720.095322,2970.165855,2970.458912,nan,nan
0,225,19:16:59:490000,6,1,411,288.984375,[ 0.05552017  0.46302271 -0.55705476],1,1,1,0.295246165,0,0,0,0.258389669,0.252872163,0.057460399,0.310332562,0.195411764,nan,nan,nan,[ nan  nan  nan],nan,nan,nan,2720.095322,2971.107649,2971.402895,nan,nan
0,226,19:17:00:441000,6,1,104,73.125,[ 1.         -0.28235148 -0.41264457],1,1,1,0.265447455,0,0,0,0.284583696,0.253059658,0.057402073,0.310461731,0.195657586,nan,nan,nan,[ nan  nan  nan],nan,nan,nan,2720.095322,2972.049432,2972.31488,nan,nan
0,227,19:17:01:377000,6,1,20,14.0625,[ 1.          0.12155819 -1.        ],1,1,1,0.323635921,0,0,0,0.294776514,0.25311423,0.057281372,0.310395602,0.195832858,nan,nan,nan,[ nan  nan  nan],nan,nan,nan,2720.095322,2972.991222,2973.314858,nan,nan
0,228,19:17:02:329000,6,1,195,137.109375,[ 1.         -0.04692453  0.44239605],1,1,1,0.245840708,0,0,0,0.278308028,0.253423536,0.057345284,0.31076882,0.196078252,nan,nan,nan,[ nan  nan  nan],nan,nan,nan,2720.095322,2973.933011,2974.178852,nan,nan
0,229,19:17:03:265000,6,1,285,200.390625,[ 0.17873435  0.35687868  0.59852701],1,1,1,0.256024117,0,0,0,0.275166915,0.253390423,0.057222124,0.310612547,0.196168299,nan,nan,nan,[ nan  nan  nan],nan,nan,nan,2720.095322,2974.874799,2975.130823,nan,nan
0,230,19:17:04:201000,6,1,337,236.953125,[-0.16064337  0.45785839  0.25930356],1,1,1,0.314214293,0,0,0,0.272026373,0.253401874,0.057097855,0.310499729,0.196304019,nan,nan,nan,[ nan  nan  nan],nan,nan,nan,2720.095322,2975.816584,2976.130799,nan,nan
0,231,19:17:05:152000,6,1,16,11.25,[ 0.97341943  0.14065211 -1.        ],1,1,1,0.260449405,0,0,0,0.276895939,0.253665131,0.05711385,0.310778981,0.196551282,nan,nan,nan,[ nan  nan  nan],nan,nan,nan,2720.095322,2976.758349,2977.018798,nan,nan
0,232,19:17:06:088000,6,1,381,267.890625,[-0.10540306  0.47842508 -0.18843114],1,1,1,0.302604255,0,0,0,0.292422651,0.253694374,0.056992359,0.310686733,0.196702014,nan,nan,nan,[ nan  nan  nan],nan,nan,nan,2720.095322,2977.700165,2978.002769,nan,nan
0,233,19:17:07:024000,6,1,476,334.6875,[ 0.54754504  0.34073938 -1.        ],1,1,1,0.392811201,0,0,1,0.31862162,0.253904287,0.056959734,0.310864022,0.196944553,nan,nan,nan,[ nan  nan  nan],nan,nan,nan,2720.095322,2978.641946,2979.034757,nan,nan
0,234,19:17:11:798000,6,1,100,70.3125,[ 1.         -0.27042709 -0.4574399 ],1,1,1,0.322995021,1,0,0,0.339470159,0.254497907,0.057555641,0.312053548,0.196942266,nan,15.30334746,106,[ 1.         -0.28763007 -0.39056445],nan,4.384152538,1.767187122,2720.095322,2979.583739,2979.906734,2981.417278,2983.192502
0,235,19:17:12:734000,6,1,263,184.921875,[ 0.4056988   0.28417174  0.65182989],1,1,1,0.283639832,0,0,0,0.333148685,0.254789384,0.057605866,0.31239525,0.197183518,nan,nan,nan,[ nan  nan  nan],nan,nan,nan,2720.095322,2984.351027,2984.634667,nan,nan
0,236,19:17:13:686000,6,1,457,321.328125,[ 0.39163925  0.39035818 -1.        ],1,1,1,0.261824147,0,0,0,0.289486334,0.254911631,0.057514229,0.312425861,0.197397402,nan,nan,nan,[ nan  nan  nan],nan,nan,nan,2720.095322,2985.292811,2985.554636,nan,nan
0,237,19:17:14:622000,6,1,179,125.859375,[ 1.         -0.13461442  0.32320413],1,1,1,0.248034821,0,0,0,0.2644996,0.254940798,0.057394512,0.31233531,0.197546286,nan,nan,nan,[ nan  nan  nan],nan,nan,nan,2720.095322,2986.234597,2986.482632,nan,nan
0,238,19:17:15:573000,6,0,101,71.015625,[ 1.         -0.27357267 -0.44615261],0,1,0,0.258217089,0,0,0,0.256025352,0.254911781,0.05727555,0.312187332,0.197636231,nan,nan,nan,[ nan  nan  nan],nan,nan,nan,2720.095322,2987.176392,2987.434609,nan,nan
0,239,19:17:16:509000,6,1,309,217.265625,[-0.02583963  0.41510654  0.4753057 ],1,1,1,0.212411563,0,0,0,0.239554491,0.254925611,0.057156,0.312081611,0.197769612,nan,nan,nan,[ nan  nan  nan],nan,nan,nan,2720.095322,2988.11818,2988.330591,nan,nan
0,240,19:17:17:445000,6,1,80,56.25,[ 1.         -0.18907571 -0.70896555],1,1,1,0.182598028,0,0,0,0.217742227,0.254748469,0.057102506,0.311850976,0.197645963,nan,nan,nan,[ nan  nan  nan],nan,nan,nan,2720.095322,2989.059968,2989.242566,nan,nan
0,241,19:17:18:397000,6,1,203,142.734375,[ 1.         -0.00249325  0.49367467],1,1,1,0.248802874,0,0,0,0.214604155,0.25444909,0.057172346,0.311621436,0.197276744,nan,nan,nan,[ nan  nan  nan],nan,nan,nan,2720.095322,2990.001755,2990.250558,nan,nan
0,242,19:17:19:333000,6,1,116,81.5625,[ 1.         -0.30644692 -0.28251544],1,1,1,0.298995201,0,0,0,0.243465368,0.254425758,0.057055248,0.311481007,0.19737051,nan,nan,nan,[ nan  nan  nan],nan,nan,nan,2720.095322,2990.943543,2991.242538,nan,nan
0,243,19:17:20:269000,6,1,292,205.3125,[ 0.11288167  0.37606958  0.56926185],1,1,1,0.269183377,0,0,0,0.272327151,0.254609172,0.057009175,0.311618347,0.197599997,nan,nan,nan,[ nan  nan  nan],nan,nan,nan,2720.095322,2991.885333,2992.154516,nan,nan
0,244,19:17:21:220000,6,1,205,144.140625,[ 1.          0.008548    0.50553524],1,1,1,0.303387133,0,0,0,0.290521904,0.254668902,0.056899852,0.311568754,0.19776905,nan,nan,nan,[ nan  nan  nan],nan,nan,nan,2720.095322,2992.827116,2993.130503,nan,nan
0,245,19:17:22:156000,6,1,72,50.625,[ 1.         -0.14960778 -0.85320374],1,1,1,0.305581816,0,0,0,0.292717442,0.254867752,0.056868502,0.311736254,0.19799925,nan,nan,nan,[ nan  nan  nan],nan,nan,nan,2720.095322,2993.768909,2994.07449,nan,nan
0,246,19:17:23:092000,6,1,225,158.203125,[ 0.81146625  0.11513113  0.60098195],1,1,1,0.33179371,0,0,1,0.313587553,0.255073907,0.056844459,0.311918366,0.198229448,nan,nan,nan,[ nan  nan  nan],nan,nan,nan,2720.095322,2994.710682,2995.042475,nan,nan
0,247,19:17:27:726000,6,1,494,347.34375,[ 0.69812996  0.282144   -1.        ],1,1,1,0.277976364,1,0,0,0.305117297,0.255384513,0.056938068,0.312322581,0.198446445,nan,122.6849815,466,[ 0.46478901  0.3683856  -1.        ],nan,-20.02873152,1.633823207,2720.095322,2995.652484,2995.93046,2997.486027,2999.127899
0,248,19:17:28:662000,6,1,137,96.328125,[ 1.         -0.30019022 -0.06473166],1,1,1,0.300283558,0,0,0,0.303351211,0.255475609,0.056841191,0.3123168,0.198634419,nan,nan,nan,[ nan  nan  nan],nan,nan,nan,2720.095322,3000.278093,3000.578377,nan,nan
0,249,19:17:29:613000,6,1,92,64.6875,[ 1.         -0.24170366 -0.55060884],1,1,1,0.302484228,0,0,0,0.293581384,0.255655561,0.056797678,0.312453239,0.198857883,nan,nan,nan,[ nan  nan  nan],nan,nan,nan,2720.095322,3001.219872,3001.522356,nan,nan
0,250,19:17:30:549000,6,1,18,12.65625,[ 0.9886827   0.13116258 -1.        ],1,1,1,0.280665977,0,0,0,0.294477921,0.255842876,0.056760981,0.312603857,0.199081895,nan,nan,nan,[ nan  nan  nan],nan,nan,nan,2720.095322,3002.161661,3002.442327,nan,nan
0,251,19:17:31:501000,6,0,505,355.078125,[ 0.78953796  0.24068314 -1.        ],0,0,1,0.37086095,0,0,0,0.318003718,0.255941773,0.056669376,0.312611149,0.199272396,nan,nan,nan,[ nan  nan  nan],nan,nan,nan,2720.095322,3003.103451,3003.474312,nan,nan
0,252,19:17:32:437000,6,1,208,146.25,[ 0.97651258  0.02502074  0.52257448],1,1,1,0.269058789,0,0,0,0.306861905,0.256397801,0.057016427,0.313414228,0.199381374,nan,nan,nan,[ nan  nan  nan],nan,nan,nan,2720.095322,3004.045236,3004.314295,nan,nan
0,253,19:17:33:373000,6,1,47,33.046875,[ 1.         -0.01707559 -1.        ],1,1,1,0.271260885,0,0,0,0.303726875,0.256447844,0.05690918,0.313357024,0.199538665,nan,nan,nan,[ nan  nan  nan],nan,nan,nan,2720.095322,3004.987026,3005.258287,nan,nan
0,254,19:17:34:324000,6,1,271,190.546875,[ 0.32064286  0.31281163  0.63940014],1,1,1,0.265449451,0,0,0,0.268589709,0.256506164,0.056804618,0.313310781,0.199701546,nan,nan,nan,[ nan  nan  nan],nan,nan,nan,2720.095322,3005.928816,3006.194266,nan,nan
0,255,19:17:35:260000,6,1,315,221.484375,[-0.06571114  0.42643481  0.43495652],1,1,1,0.26766067,0,0,0,0.268123669,0.256541235,0.056695882,0.313237117,0.199845353,nan,nan,nan,[ nan  nan  nan],nan,nan,nan,2720.095322,3006.870606,3007.138266,nan,nan
0,256,19:17:36:196000,6,0,159,111.796875,[ 1.         -0.23176597  0.14905501],0,1,0,0.229844154,0,0,0,0.254318092,0.256584671,0.056589291,0.313173961,0.19999538,nan,nan,nan,[ nan  nan  nan],nan,nan,nan,2720.095322,3007.81239,3008.042234,nan,nan
0,257,19:17:37:148000,6,1,505,355.078125,[ 0.78953796  0.24068314 -1.        ],1,1,1,0.232028289,0,0,0,0.243177704,0.256480622,0.056503618,0.312984239,0.199977004,nan,nan,nan,[ nan  nan  nan],nan,nan,nan,2720.095322,3008.754193,3008.986221,nan,nan
0,258,19:17:38:084000,6,1,125,87.890625,[ 1.         -0.31156743 -0.18780506],1,0,0,0.290296582,0,0,0,0.250723008,0.256385845,0.056414472,0.312800318,0.199971373,nan,nan,nan,[ nan  nan  nan],nan,nan,nan,2720.095322,3009.695957,3009.986253,nan,nan
0,259,19:17:39:020000,6,1,8,5.625,[ 0.91102659  0.17740094 -1.        ],1,1,1,0.236423927,0,0,0,0.252916266,0.256516775,0.05634472,0.312861495,0.200172055,nan,nan,nan,[ nan  nan  nan],nan,nan,nan,2720.095322,3010.637757,3010.874181,nan,nan
0,260,19:17:39:972000,6,1,62,43.59375,[ 1.         -0.09743725 -1.        ],1,1,1,0.302619935,0,0,0,0.276446814,0.256439495,0.056250011,0.312689506,0.200189483,nan,nan,nan,[ nan  nan  nan],nan,nan,nan,2720.095322,3011.579546,3011.882166,nan,nan
0,261,19:17:40:908000,6,0,254,178.59375,[ 0.50301113  0.24894782  0.65613358],0,1,0,0.232827133,0,0,0,0.257290331,0.256616431,0.056214594,0.312831026,0.200401837,nan,nan,nan,[ nan  nan  nan],nan,nan,nan,2720.095322,3012.521332,3012.754159,nan,nan
0,262,19:17:41:859000,6,1,498,350.15625,[ 0.73150794  0.26756188 -1.        ],1,1,1,0.227016269,0,0,0,0.254154445,0.256525632,0.056126384,0.312652017,0.200399248,nan,nan,nan,[ nan  nan  nan],nan,nan,nan,2720.095322,3013.463123,3013.690139,nan,nan
0,263,19:17:42:795000,6,1,138,97.03125,[ 1.         -0.29832988 -0.05465081],1,1,1,0.317299907,0,0,0,0.259047769,0.256413429,0.056049011,0.312462441,0.200364418,nan,nan,nan,[ nan  nan  nan],nan,nan,nan,2720.095322,3014.404913,3014.722213,nan,nan
0,264,19:17:43:731000,6,1,368,258.75,[-0.15045717  0.47779326 -0.04573418],1,1,1,0.25540688,0,0,0,0.266574352,0.25664406,0.056067648,0.312711708,0.200576412,nan,nan,nan,[ nan  nan  nan],nan,nan,nan,2720.095322,3015.346703,3015.60211,nan,nan
0,265,19:17:44:683000,6,1,475,333.984375,[ 0.53921875  0.34365981 -1.        ],1,1,1,0.265592855,0,0,0,0.279433214,0.256639391,0.055961811,0.312601203,0.20067758,nan,nan,nan,[ nan  nan  nan],nan,nan,nan,2720.095322,3016.288487,3016.55408,nan,nan
0,266,19:17:45:619000,6,1,326,229.21875,[-0.12383419  0.44407177  0.35222354],1,1,1,0.227798292,0,0,0,0.249599342,0.256673051,0.055859208,0.31253226,0.200813843,nan,nan,nan,[ nan  nan  nan],nan,nan,nan,2720.095322,3017.230274,3017.458072,nan,nan
0,267,19:17:46:555000,6,1,240,168.75,[ 0.65437302  0.18801506  0.64246395],1,1,1,0.22999326,0,0,0,0.241128136,0.256564906,0.055782397,0.312347303,0.200782509,nan,nan,nan,[ nan  nan  nan],nan,nan,nan,2720.095322,3018.172065,3018.402058,nan,nan
0,268,19:17:47:506000,6,1,111,78.046875,[ 1.         -0.29867781 -0.33610624],1,1,1,0.256197742,0,0,0,0.237996431,0.256465758,0.055701793,0.312167551,0.200763965,nan,nan,nan,[ nan  nan  nan],nan,nan,nan,2720.095322,3019.113851,3019.370049,nan,nan
0,269,19:17:48:442000,6,1,30,21.09375,[ 1.          0.07194566 -1.        ],1,1,1,0.250390299,0,0,0,0.2455271,0.256464762,0.055598164,0.312062926,0.200866597,nan,nan,nan,[ nan  nan  nan],nan,nan,nan,2720.095322,3020.055641,3020.306031,nan,nan
0,270,19:17:49:394000,6,1,386,271.40625,[-0.08339466  0.47749559 -0.24542474],1,1,1,0.260567151,0,0,0,0.255718397,0.256442264,0.055496336,0.3119386,0.200945928,nan,nan,nan,[ nan  nan  nan],nan,nan,nan,2720.095322,3020.997432,3021.257999,nan,nan
0,271,19:17:50:330000,6,1,284,199.6875,[ 0.18846515  0.3539841   0.60223628],1,1,1,0.238788243,0,0,0,0.249915231,0.256457485,0.055394414,0.311851899,0.20106307,nan,nan,nan,[ nan  nan  nan],nan,nan,nan,2720.095322,3021.939213,3022.178002,nan,nan
0,272,19:17:51:266000,6,1,180,126.5625,[ 1.         -0.12927862  0.33123896],1,1,1,0.296969296,0,0,0,0.265441563,0.256392524,0.055302833,0.311695357,0.201089691,nan,nan,nan,[ nan  nan  nan],nan,nan,nan,2720.095322,3022.881006,3023.177975,nan,nan
0,273,19:17:52:218000,6,1,390,274.21875,[-0.06419603  0.4762842  -0.29194755],1,1,1,0.26716574,0,0,0,0.267641093,0.256541157,0.055255853,0.31179701,0.201285304,nan,nan,nan,[ nan  nan  nan],nan,nan,nan,2720.095322,3023.822792,3024.089958,nan,nan
0,274,19:17:53:154000,6,1,474,333.28125,[ 0.53090176  0.34654538 -1.        ],1,1,1,0.277347724,0,0,0,0.280494253,0.256579933,0.05515865,0.311738583,0.201421283,nan,nan,nan,[ nan  nan  nan],nan,nan,nan,2720.095322,3024.764583,3025.041931,nan,nan
0,275,19:17:54:090000,6,1,6,4.21875,[ 0.89512908  0.18627278 -1.        ],1,1,1,0.279552955,0,0,0,0.274688806,0.256655452,0.05507246,0.311727912,0.201582993,nan,nan,nan,[ nan  nan  nan],nan,nan,nan,2720.095322,3025.70637,3025.985923,nan,nan
0,276,19:17:55:041000,6,1,491,345.234375,[ 0.67303348  0.29270771 -1.        ],1,1,1,0.337741991,0,0,0,0.298214223,0.256738414,0.054989813,0.311728227,0.201748601,nan,nan,nan,[ nan  nan  nan],nan,nan,nan,2720.095322,3026.648157,3026.985899,nan,nan
0,277,19:17:55:977000,6,1,31,21.796875,[ 1.          0.06685157 -1.        ],1,1,1,0.435931107,0,0,1,0.351075351,0.257030846,0.05510504,0.312135886,0.201925806,nan,nan,nan,[ nan  nan  nan],nan,nan,nan,2720.095322,3027.589949,3028.02588,nan,nan
0,278,19:18:00:064000,6,1,330,232.03125,[-0.13976633  0.44951833  0.31954025],1,1,1,0.374113631,1,0,0,0.382595576,0.257674372,0.056038874,0.313713246,0.201635498,nan,-141.6048355,329,[-0.13605328  0.44820379  0.32783374],nan,-0.426414503,1.083746915,2720.095322,3028.531742,3028.905855,3030.365274,3031.457056
0,279,19:18:01:000000,6,1,409,287.578125,[ 0.04294362  0.46479315 -0.52946185],1,1,1,0.338180757,0,0,0,0.382741831,0.258091717,0.056369503,0.31446122,0.201722214,nan,nan,nan,[ nan  nan  nan],nan,nan,nan,2720.095322,3032.615595,3032.953776,nan,nan
0,280,19:18:01:952000,6,1,102,71.71875,[ 1.         -0.27661034 -0.43492695],1,1,1,0.316387879,0,0,0,0.342894089,0.258377749,0.056471221,0.31484897,0.201906528,nan,nan,nan,[ nan  nan  nan],nan,nan,nan,2720.095322,3033.557388,3033.873776,nan,nan
0,281,19:18:02:888000,6,1,195,137.109375,[ 1.         -0.04692453  0.44239605],1,1,1,0.374568362,0,0,1,0.343045666,0.258584191,0.056476394,0.315060585,0.202107796,nan,nan,nan,[ nan  nan  nan],nan,nan,nan,2720.095322,3034.499174,3034.873742,nan,nan
0,282,19:18:06:960000,6,1,430,302.34375,[ 0.18472502  0.44064573 -0.94190417],1,1,1,0.400788238,1,0,0,0.363914826,0.258995482,0.056796185,0.315791668,0.202199297,nan,158.6179483,414,[ 0.07478379  0.46016219 -0.60008918],nan,-10.96169829,1.092181249,2720.095322,3035.440966,3035.841754,3037.25783,3038.357973
0,283,19:18:07:896000,6,1,77,54.140625,[ 1.         -0.17459302 -0.75626719],1,1,1,0.37349839,0,0,0,0.382951663,0.259496517,0.057316665,0.316813182,0.202179852,nan,nan,nan,[ nan  nan  nan],nan,nan,nan,2720.095322,3039.508158,3039.881656,nan,nan
0,284,19:18:08:847000,6,0,0,0,[ 0.84683171  0.21209757 -1.        ],0,0,1,0.367691802,0,0,0,0.380659477,0.259897932,0.057612789,0.317510721,0.202285143,nan,nan,nan,[ nan  nan  nan],nan,nan,nan,2720.095322,3040.449943,3040.817635,nan,nan
0,285,19:18:09:783000,6,1,95,66.796875,[ 1.         -0.25317502 -0.51497544],1,1,1,0.321915356,0,0,0,0.354368516,0.260276156,0.057863755,0.318139911,0.202412401,nan,nan,nan,[ nan  nan  nan],nan,nan,nan,2720.095322,3041.391731,3041.713647,nan,nan
0,286,19:18:10:719000,6,1,396,278.4375,[-0.03301537  0.47368488 -0.36352378],1,1,1,0.340066679,0,0,0,0.343224612,0.260491678,0.057876984,0.318368662,0.202614694,nan,nan,nan,[ nan  nan  nan],nan,nan,nan,2720.095322,3042.333568,3042.673635,nan,nan
0,287,19:18:11:671000,6,1,233,163.828125,[ 0.7286704   0.15490978  0.62648223],1,1,1,0.334308843,0,0,1,0.332096959,0.260768942,0.057966026,0.318734968,0.202802917,nan,nan,nan,[ nan  nan  nan],nan,nan,nan,2720.095322,3043.275308,3043.609617,nan,nan
0,288,19:18:15:758000,6,1,430,302.34375,[ 0.18472502  0.44064573 -0.94190417],1,1,1,0.312496864,1,0,0,0.328957462,0.261024289,0.058026772,0.319051061,0.202997517,nan,162.002415,410,[ 0.04920468  0.46392153 -0.54316189],nan,-14.34616504,1.100506106,2720.095322,3044.217098,3044.529595,3046.042303,3047.150751
0,289,19:18:16:694000,6,1,73,51.328125,[ 1.         -0.15467886 -0.83091687],1,1,1,0.308204431,0,0,0,0.318336713,0.261202395,0.058005096,0.319207492,0.203197299,nan,nan,nan,[ nan  nan  nan],nan,nan,nan,2720.095322,3048.3093,3048.617504,nan,nan
0,290,19:18:17:646000,6,1,204,143.4375,[ 1.          0.00303257  0.49965442],1,1,1,0.294426224,0,0,0,0.305042506,0.261364471,0.057970517,0.319334988,0.203393954,nan,nan,nan,[ nan  nan  nan],nan,nan,nan,2720.095322,3049.251079,3049.545506,nan,nan
0,291,19:18:18:582000,6,1,156,109.6875,[ 1.         -0.24406061  0.12104147],1,1,1,0.328595483,0,0,0,0.310408712,0.261478085,0.057903159,0.319381244,0.203574927,nan,nan,nan,[ nan  nan  nan],nan,nan,nan,2720.095322,3050.192877,3050.521472,nan,nan
0,292,19:18:19:518000,6,1,299,210.234375,[ 0.05166456  0.39341767  0.53437875],1,1,1,0.282809343,0,0,0,0.301943683,0.261707939,0.057936759,0.319644699,0.20377118,nan,nan,nan,[ nan  nan  nan],nan,nan,nan,2720.095322,3051.134654,3051.417463,nan,nan
0,293,19:18:20:469000,6,1,16,11.25,[ 0.97341943  0.14065211 -1.        ],1,1,1,0.260940059,0,0,0,0.290781628,0.261779958,0.057850898,0.319630856,0.20392906,nan,nan,nan,[ nan  nan  nan],nan,nan,nan,2720.095322,3052.076507,3052.337447,nan,nan
0,294,19:18:21:405000,6,1,172,120.9375,[ 1.         -0.17098406  0.26502468],1,1,1,0.327193087,0,0,0,0.290314163,0.261777101,0.057752449,0.31952955,0.204024652,nan,nan,nan,[ nan  nan  nan],nan,nan,nan,2720.095322,3053.018238,3053.345431,nan,nan
0,295,19:18:22:357000,6,1,502,352.96875,[ 0.76474094  0.25241358 -1.        ],1,1,1,0.289405081,0,0,0,0.292512742,0.26199885,0.057779718,0.319778568,0.204219132,nan,nan,nan,[ nan  nan  nan],nan,nan,nan,2720.095322,3053.960026,3054.249432,nan,nan
0,296,19:18:23:293000,6,1,139,97.734375,[ 1.         -0.29633561 -0.04459929],1,1,1,0.299600179,0,0,0,0.305399449,0.262091439,0.057703952,0.319795391,0.204387487,nan,nan,nan,[ nan  nan  nan],nan,nan,nan,2720.095322,3054.901812,3055.201412,nan,nan
0,297,19:18:24:229000,6,0,261,183.515625,[ 0.42722581  0.27661781  0.65367446],0,1,0,0.253791516,0,0,0,0.280932258,0.262217731,0.057647688,0.319865419,0.204570043,nan,nan,nan,[ nan  nan  nan],nan,nan,nan,2720.095322,3055.843602,3056.097393,nan,nan
0,298,19:18:25:180000,6,1,454,319.21875,[ 0.36762736  0.39708484 -1.        ],1,1,1,0.239981377,0,0,0,0.264457691,0.262189455,0.057552945,0.3197424,0.20463651,nan,nan,nan,[ nan  nan  nan],nan,nan,nan,2720.095322,3056.785391,3057.025373,nan,nan
0,299,19:18:26:116000,6,1,52,36.5625,[ 1.         -0.04388606 -1.        ],1,1,1,0.258173755,0,0,0,0.250648883,0.26211518,0.057470927,0.319586107,0.204644254,nan,nan,nan,[ nan  nan  nan],nan,nan,nan,2720.095322,3057.72718,3057.985354,nan,nan
0,300,19:18:27:052000,6,1,129,90.703125,[ 1.         -0.31007049 -0.146368  ],1,1,1,0.284373674,0,0,0,0.260842935,0.262102042,0.057375512,0.319477554,0.204726531,nan,nan,nan,[ nan  nan  nan],nan,nan,nan,2720.095322,3058.668967,3058.95334,nan,nan
0,301,19:18:28:004000,6,0,326,229.21875,[-0.12383419  0.44407177  0.35222354],0,0,1,0.36647643,0,0,0,0.303007953,0.262176035,0.057294459,0.319470494,0.204881575,nan,nan,nan,[ nan  nan  nan],nan,nan,nan,2720.095322,3059.610846,3059.977322,nan,nan
0,302,19:18:28:940000,6,1,145,101.953125,[ 1.         -0.28166741  0.01505517],1,1,1,0.296740363,0,0,0,0.315863489,0.2625214,0.057512502,0.320033902,0.205008898,nan,nan,nan,[ nan  nan  nan],nan,nan,nan,2720.095322,3060.552545,3060.849285,nan,nan
0,303,19:18:29:892000,6,1,383,269.296875,[-0.09687871  0.47813121 -0.21108141],1,1,1,0.466941197,0,0,0,0.37671933,0.262634334,0.05745105,0.320085384,0.205183284,nan,nan,nan,[ nan  nan  nan],nan,nan,nan,2720.095322,3061.494337,3061.961278,nan,nan
0,304,19:18:30:828000,6,1,240,168.75,[ 0.65437302  0.18801506  0.64246395],1,1,1,0.341128668,0,0,1,0.368270076,0.263306396,0.058537347,0.321843743,0.204769049,nan,nan,nan,[ nan  nan  nan],nan,nan,nan,2720.095322,3062.436134,3062.777262,nan,nan
0,305,19:18:35:196000,6,1,75,52.734375,[ 1.         -0.16471446 -0.79135592],1,1,1,0.311330814,1,0,0,0.37313356,0.263561551,0.05861039,0.322171941,0.204951161,nan,62.31893843,39,[ 1.          0.02537899 -1.        ],nan,-25.05331343,1.375525435,2720.095322,3063.377913,3063.689243,3065.20312,3066.586599
0,306,19:18:36:132000,6,1,229,161.015625,[ 0.77039703  0.13526594  0.61468147],1,1,1,0.336036251,0,0,0,0.329498578,0.26371766,0.058578021,0.322295681,0.205139638,nan,nan,nan,[ nan  nan  nan],nan,nan,nan,2720.095322,3067.745141,3068.081177,nan,nan
0,307,19:18:37:083000,6,0,476,334.6875,[ 0.54754504  0.34073938 -1.        ],0,0,1,0.426232649,0,0,0,0.357866571,0.263953225,0.058627534,0.322580759,0.205325691,nan,nan,nan,[ nan  nan  nan],nan,nan,nan,2720.095322,3068.68693,3069.113163,nan,nan
0,308,19:18:38:019000,6,1,80,56.25,[ 1.         -0.18907571 -0.70896555],1,1,1,0.356424451,0,0,0,0.372897784,0.264480106,0.059255822,0.323735928,0.205224285,nan,nan,nan,[ nan  nan  nan],nan,nan,nan,2720.095322,3069.628719,3069.985143,nan,nan
0,309,19:18:38:955000,6,1,207,145.546875,[ 0.98565351  0.01954319  0.51699622],1,1,1,0.318607366,0,0,0,0.367088155,0.264777661,0.05938989,0.324167551,0.205387771,nan,nan,nan,[ nan  nan  nan],nan,nan,nan,2720.095322,3070.570515,3070.889122,nan,nan
0,310,19:18:39:907000,6,1,441,310.078125,[ 0.26628726  0.42289189 -1.        ],1,1,1,0.336728183,0,0,1,0.337253333,0.264951305,0.059372537,0.324323842,0.205578768,nan,nan,nan,[ nan  nan  nan],nan,nan,nan,2720.095322,3071.51237,3071.849099,nan,nan
0,311,19:18:44:587000,6,1,126,88.59375,[ 1.         -0.31141175 -0.17740843],1,1,1,0.331013682,1,0,0,0.328783077,0.265182099,0.059416124,0.324598223,0.205765975,nan,-24.67686317,163,[ 1.         -0.2142478   0.18572368],nan,26.08311317,1.692066412,2720.095322,3072.454082,3072.785096,3074.279288,3075.979474
0,312,19:18:45:523000,6,0,345,242.578125,[-0.17351954  0.46559515  0.18611928],0,0,1,0.326981259,0,0,0,0.331574375,0.265393098,0.059437418,0.324830516,0.205955679,nan,nan,nan,[ nan  nan  nan],nan,nan,nan,2720.095322,3077.138039,3077.46502,nan,nan
0,313,19:18:46:475000,6,1,229,161.015625,[ 0.77039703  0.13526594  0.61468147],1,1,1,0.257183325,0,0,0,0.305059422,0.265589865,0.059444088,0.325033953,0.206145777,nan,nan,nan,[ nan  nan  nan],nan,nan,nan,2720.095322,3078.079814,3078.336998,nan,nan
0,314,19:18:47:411000,6,1,71,49.921875,[ 1.         -0.14450407 -0.87798077],1,1,1,0.28339978,0,0,0,0.289188121,0.265563092,0.059351246,0.324914339,0.206211846,nan,nan,nan,[ nan  nan  nan],nan,nan,nan,2720.095322,3079.0216,3079.305,nan,nan
0,315,19:18:48:362000,6,1,387,272.109375,[-0.07872193  0.47723176 -0.25697445],1,1,1,0.277639949,0,0,0,0.272741018,0.265619717,0.059265458,0.324885175,0.206354259,nan,nan,nan,[ nan  nan  nan],nan,nan,nan,2720.095322,3079.963389,3080.241029,nan,nan
0,316,19:18:49:298000,6,0,97,68.203125,[ 1.         -0.26036974 -0.49171883],0,0,1,0.383768184,0,0,0,0.314935971,0.265657756,0.05917546,0.324833216,0.206482295,nan,nan,nan,[ nan  nan  nan],nan,nan,nan,2720.095322,3080.905178,3081.288947,nan,nan
0,317,19:18:50:234000,6,1,363,255.234375,[-0.16228773  0.47636573  0.00704813],1,1,1,0.305958145,0,0,0,0.322455426,0.266030344,0.059452135,0.325482478,0.206578209,nan,nan,nan,[ nan  nan  nan],nan,nan,nan,2720.095322,3081.846965,3082.152923,nan,nan
0,318,19:18:51:186000,6,1,419,294.609375,[ 0.10789467  0.45484197 -0.67809886],1,1,1,0.300164958,0,0,0,0.329963762,0.266155903,0.059400664,0.325556567,0.206755239,nan,nan,nan,[ nan  nan  nan],nan,nan,nan,2720.095322,3082.788755,3083.08892,nan,nan
0,319,19:18:52:122000,6,1,190,133.59375,[ 1.         -0.07468844  0.40739964],1,1,1,0.270353419,0,0,0,0.292158841,0.266262514,0.05933795,0.325600465,0.206924564,nan,nan,nan,[ nan  nan  nan],nan,nan,nan,2720.095322,3083.730545,3084.000898,nan,nan
0,320,19:18:53:058000,6,0,477,335.390625,[ 0.55587987  0.33778403 -1.        ],0,0,1,0.320549167,0,0,0,0.297022514,0.266275298,0.059245602,0.325520901,0.207029696,nan,nan,nan,[ nan  nan  nan],nan,nan,nan,2720.095322,3084.672334,3084.992883,nan,nan
0,321,19:18:54:009000,6,1,400,281.25,[-0.01078748  0.4714273  -0.41269269],1,1,1,0.242752813,0,0,0,0.277885133,0.266444376,0.059230521,0.325674896,0.207213855,nan,nan,nan,[ nan  nan  nan],nan,nan,nan,2720.095322,3085.614116,3085.856869,nan,nan
0,322,19:18:54:945000,6,1,257,180.703125,[ 0.4704729   0.26103985  0.65584138],1,1,1,0.244927825,0,0,0,0.269409935,0.2663708,0.059153166,0.325523966,0.207217633,nan,nan,nan,[ nan  nan  nan],nan,nan,nan,2720.095322,3086.555908,3086.800836,nan,nan
0,323,19:18:55:881000,6,1,394,277.03125,[-0.04370902  0.47465593 -0.33940142],1,1,1,0.303114009,0,0,0,0.263598216,0.266304413,0.05907354,0.325377952,0.207230873,nan,nan,nan,[ nan  nan  nan],nan,nan,nan,2720.095322,3087.497708,3087.800822,nan,nan
0,324,19:18:56:833000,6,1,83,58.359375,[ 1.         -0.20309788 -0.66587671],1,1,1,0.281316,0,0,0,0.276452611,0.266418022,0.059017637,0.32543566,0.207400385,nan,nan,nan,[ nan  nan  nan],nan,nan,nan,2720.095322,3088.439498,3088.720814,nan,nan
0,325,19:18:57:769000,6,1,364,255.9375,[-0.16019432  0.47670452 -0.00341125],1,1,1,0.283526364,0,0,0,0.289318791,0.266463862,0.058932547,0.32539641,0.207531315,nan,nan,nan,[ nan  nan  nan],nan,nan,nan,2720.095322,3089.381277,3089.664803,nan,nan
0,326,19:18:58:721000,6,1,486,341.71875,[ 0.63115176  0.30960306 -1.        ],1,1,1,0.253684319,0,0,0,0.272842228,0.266516201,0.058849655,0.325365857,0.207666546,nan,nan,nan,[ nan  nan  nan],nan,nan,nan,2720.095322,3090.323098,3090.576783,nan,nan
0,327,19:18:59:657000,6,1,138,97.03125,[ 1.         -0.29832988 -0.05465081],1,1,1,0.263900229,0,0,0,0.267036971,0.26647696,0.058763874,0.325240834,0.207713086,nan,nan,nan,[ nan  nan  nan],nan,nan,nan,2720.095322,3091.264848,3091.528748,nan,nan
0,328,19:19:00:593000,6,1,5,3.515625,[ 0.88714031  0.19065985 -1.        ],1,1,1,0.29810142,0,0,0,0.271895323,0.266469104,0.058674398,0.325143503,0.207794706,nan,nan,nan,[ nan  nan  nan],nan,nan,nan,2720.095322,3092.206641,3092.504742,nan,nan
0,329,19:19:01:544000,6,1,248,174.375,[ 0.5681159   0.2237282   0.65329577],1,1,1,0.276288585,0,0,0,0.279430078,0.266565251,0.058611032,0.325176283,0.207954219,nan,nan,nan,[ nan  nan  nan],nan,nan,nan,2720.095322,3093.148431,3093.42472,nan,nan
0,330,19:19:02:480000,6,1,152,106.875,[ 1.         -0.25918449  0.08306255],1,1,1,0.24648902,0,0,0,0.273626342,0.266594716,0.0585246,0.325119316,0.208070116,nan,nan,nan,[ nan  nan  nan],nan,nan,nan,2720.095322,3094.090216,3094.336705,nan,nan
0,331,19:19:03:416000,6,1,369,259.453125,[-0.14769469  0.47799919 -0.05643387],1,1,1,0.256712058,0,0,0,0.259829888,0.266533973,0.058446544,0.324980518,0.208087429,nan,nan,nan,[ nan  nan  nan],nan,nan,nan,2720.095322,3095.031984,3095.288696,nan,nan
0,332,19:19:04:368000,6,1,233,163.828125,[ 0.7286704   0.15490978  0.62648223],1,1,1,0.266807942,0,0,0,0.256669673,0.266504389,0.058360938,0.324865327,0.208143451,nan,nan,nan,[ nan  nan  nan],nan,nan,nan,2720.095322,3095.973859,3096.240667,nan,nan
0,333,19:19:05:304000,6,1,136,95.625,[ 1.         -0.3019149  -0.07484121],1,1,1,0.317078101,0,0,0,0.280199367,0.266505301,0.058273246,0.324778546,0.208232055,nan,nan,nan,[ nan  nan  nan],nan,nan,nan,2720.095322,3096.915585,3097.232663,nan,nan
0,334,19:19:06:255000,6,1,406,285.46875,[ 0.02449675  0.4672457  -0.4893661 ],1,1,1,0.231279337,0,0,0,0.271721793,0.266656717,0.058251513,0.324908229,0.208405204,nan,nan,nan,[ nan  nan  nan],nan,nan,nan,2720.095322,3097.857365,3098.088644,nan,nan
0,335,19:19:07:191000,6,1,94,66.09375,[ 1.         -0.24943901 -0.52674516],1,1,1,0.169465567,0,0,0,0.239274335,0.266551112,0.058196516,0.324747629,0.208354596,nan,nan,nan,[ nan  nan  nan],nan,nan,nan,2720.095322,3098.799158,3098.968624,nan,nan
0,336,19:19:08:127000,6,1,325,228.515625,[-0.1194049   0.44263104  0.36018642],1,1,1,0.219649056,0,1,0,0.206797987,0.266262167,0.058350009,0.324612176,0.207912158,nan,nan,nan,[ nan  nan  nan],nan,nan,nan,2720.095322,3099.740953,3099.960602,nan,nan
0,337,19:19:13:244000,6,1,92,64.6875,[ 1.         -0.24170366 -0.55060884],1,1,1,0.261852657,1,0,0,0.216989093,0.266123849,0.058318512,0.324442361,0.207805338,nan,24.67686317,93,[ 1.         -0.2456143  -0.53861988],nan,0.63563683,2.117234505,2720.095322,3100.682736,3100.944588,3102.516252,3104.64153
0,338,19:19:14:180000,6,1,147,103.359375,[ 1.         -0.27580113  0.03467205],1,1,1,0.272762495,0,0,0,0.251421403,0.266111213,0.05823264,0.324343853,0.207878573,nan,nan,nan,[ nan  nan  nan],nan,nan,nan,2720.095322,3105.791739,3106.064502,nan,nan
0,339,19:19:15:132000,6,1,334,234.84375,[-0.15279655  0.45446705  0.2855764 ],1,1,1,0.234958524,0,0,0,0.256524559,0.266130833,0.058147806,0.32427864,0.207983027,nan,nan,nan,[ nan  nan  nan],nan,nan,nan,2720.095322,3106.733516,3106.968474,nan,nan
0,340,19:19:16:068000,6,1,397,279.140625,[-0.02756135  0.47315999 -0.37569455],1,1,1,0.277152717,0,0,0,0.261624579,0.26603915,0.058086766,0.324125916,0.207952384,nan,nan,nan,[ nan  nan  nan],nan,nan,nan,2720.095322,3107.675305,3107.952457,nan,nan
0,341,19:19:17:004000,6,1,216,151.875,[ 0.90097501  0.06822711  0.56342658],1,1,1,0.295337966,0,0,0,0.269149736,0.266071741,0.058004645,0.324076386,0.208067096,nan,nan,nan,[ nan  nan  nan],nan,nan,nan,2720.095322,3108.617095,3108.912433,nan,nan
0,342,19:19:17:955000,6,1,440,309.375,[ 0.2586994  0.4246574 -1.       ],1,1,1,0.257539127,0,0,0,0.276676603,0.266157315,0.057941334,0.324098648,0.208215981,nan,nan,nan,[ nan  nan  nan],nan,nan,nan,2720.095322,3109.558885,3109.816424,nan,nan
0,343,19:19:18:891000,6,1,84,59.0625,[ 1.         -0.20765784 -0.65219109],1,1,1,0.211751846,0,0,0,0.254876313,0.266132189,0.057858675,0.323990864,0.208273514,nan,nan,nan,[ nan  nan  nan],nan,nan,nan,2720.095322,3110.500673,3110.712425,nan,nan
0,344,19:19:19:827000,6,1,251,176.484375,[ 0.53557652  0.23650919  0.65528415],1,1,1,0.197949405,0,0,0,0.22241346,0.265974106,0.057848651,0.323822757,0.208125456,nan,nan,nan,[ nan  nan  nan],nan,nan,nan,2720.095322,3111.442462,3111.640412,nan,nan
0,345,19:19:20:779000,6,1,469,329.765625,[ 0.4894822   0.36045336 -1.        ],1,1,1,0.248136601,0,0,0,0.219279284,0.265776933,0.057880396,0.32365733,0.207896537,nan,nan,nan,[ nan  nan  nan],nan,nan,nan,2720.095322,3112.38425,3112.632387,nan,nan
0,346,19:19:21:715000,6,1,39,27.421875,[ 1.          0.02537899 -1.        ],1,1,1,0.218335895,0,0,0,0.221473967,0.26572595,0.057804451,0.323530401,0.207921499,nan,nan,nan,[ nan  nan  nan],nan,nan,nan,2720.095322,3113.32604,3113.544376,nan,nan
0,347,19:19:22:667000,6,1,401,281.953125,[-0.00506341  0.47079689 -0.4252031 ],1,1,1,0.244526407,0,0,0,0.236999634,0.265589379,0.057776974,0.323366353,0.207812405,nan,nan,nan,[ nan  nan  nan],nan,nan,nan,2720.095322,3114.26783,3114.512357,nan,nan
0,348,19:19:23:603000,6,1,123,86.484375,[ 1.         -0.31144114 -0.20867286],1,1,1,0.222736665,0,0,0,0.228532989,0.265528853,0.057704917,0.32323377,0.207823936,nan,nan,nan,[ nan  nan  nan],nan,nan,nan,2720.095322,3115.209607,3115.432344,nan,nan
0,349,19:19:24:539000,6,1,217,152.578125,[ 0.89125041  0.07353733  0.56804835],1,1,1,0.224919945,0,0,0,0.230727672,0.265406239,0.057667566,0.323073806,0.207738673,nan,nan,nan,[ nan  nan  nan],nan,nan,nan,2720.095322,3116.151405,3116.376325,nan,nan
0,350,19:19:25:490000,6,1,281,197.578125,[ 0.2180834   0.34506839  0.61264442],1,1,1,0.267117273,0,0,0,0.238257961,0.265290564,0.057625658,0.322916223,0.207664906,nan,nan,nan,[ nan  nan  nan],nan,nan,nan,2720.095322,3117.093194,3117.360311,nan,nan
0,351,19:19:26:426000,6,1,89,62.578125,[ 1.         -0.2294841  -0.58737049],1,1,1,0.229316153,0,0,0,0.240451124,0.265295769,0.057543594,0.322839363,0.207752174,nan,nan,nan,[ nan  nan  nan],nan,nan,nan,2720.095322,3118.034979,3118.264295,nan,nan
0,352,19:19:27:362000,6,1,412,289.6875,[ 0.06188912  0.46209661 -0.57115894],1,1,1,0.2314943,0,0,0,0.242642576,0.265193554,0.057493699,0.322687253,0.207699855,nan,nan,nan,[ nan  nan  nan],nan,nan,nan,2720.095322,3118.976771,3119.208265,nan,nan
0,353,19:19:28:314000,6,1,94,66.09375,[ 1.         -0.24943901 -0.52674516],1,1,1,0.225688568,0,0,0,0.228833007,0.265098089,0.057440137,0.322538226,0.207657952,nan,nan,nan,[ nan  nan  nan],nan,nan,nan,2720.095322,3119.918561,3120.14425,nan,nan
0,354,19:19:29:250000,6,1,433,304.453125,[ 0.2065363   0.43616372 -1.        ],1,1,1,0.179882186,0,0,0,0.212355018,0.264986762,0.057397073,0.322383835,0.207589689,nan,nan,nan,[ nan  nan  nan],nan,nan,nan,2720.095322,3120.860346,3121.040228,nan,nan
0,355,19:19:30:201000,6,1,63,44.296875,[ 1.         -0.10274464 -1.        ],1,1,1,0.174075029,0,1,0,0.193215261,0.264747031,0.05749338,0.322240411,0.207253651,nan,nan,nan,[ nan  nan  nan],nan,nan,nan,2720.095322,3121.802136,3121.976211,nan,nan
0,356,19:19:35:537000,6,1,370,260.15625,[-0.144806    0.47817873 -0.06718033],1,1,1,0.136276474,1,0,0,0.16341123,0.264492334,0.057612782,0.322105116,0.206879553,nan,-155.8104858,350,[-0.17575682  0.46949094  0.13824748],nan,-14.34576415,2.350565121,2720.095322,3122.743926,3122.880202,3124.569129,3126.927739
0,357,19:19:36:473000,6,1,164,115.3125,[ 1.         -0.20968584  0.19476155],1,1,1,0.297834283,0,0,0,0.202728595,0.264133186,0.057929738,0.322062924,0.206203449,nan,nan,nan,[ nan  nan  nan],nan,nan,nan,2720.095322,3128.086281,3128.384116,nan,nan
0,358,19:19:37:424000,6,1,440,309.375,[ 0.2586994  0.4246574 -1.       ],1,1,1,0.268012766,0,0,0,0.234041174,0.264227323,0.057876112,0.322103435,0.206351212,nan,nan,nan,[ nan  nan  nan],nan,nan,nan,2720.095322,3129.028072,3129.296085,nan,nan
0,359,19:19:38:360000,6,1,381,267.890625,[-0.10540306  0.47842508 -0.18843114],1,1,1,0.28621056,0,0,0,0.284019203,0.264237868,0.057795792,0.32203366,0.206442076,nan,nan,nan,[ nan  nan  nan],nan,nan,nan,2720.095322,3129.969861,3130.256072,nan,nan
0,360,19:19:39:296000,6,0,279,196.171875,[ 0.23815758  0.33893035  0.61897842],0,1,0,0.240378804,0,0,0,0.264867376,0.264298903,0.057727049,0.322025952,0.206571854,nan,nan,nan,[ nan  nan  nan],nan,nan,nan,2720.095322,3130.911676,3131.152054,nan,nan
0,361,19:19:40:248000,6,1,116,81.5625,[ 1.         -0.30644692 -0.28251544],1,1,1,0.226599171,0,0,0,0.251062845,0.264232642,0.057660747,0.321893389,0.206571895,nan,nan,nan,[ nan  nan  nan],nan,nan,nan,2720.095322,3131.853436,3132.080036,nan,nan
0,362,19:19:41:184000,6,1,420,295.3125,[ 0.11466019  0.4536941  -0.6950475 ],1,1,1,0.428805657,0,0,0,0.298594544,0.264128683,0.057614919,0.321743601,0.206513764,nan,nan,nan,[ nan  nan  nan],nan,nan,nan,2720.095322,3132.795228,3133.224034,nan,nan
0,363,19:19:42:135000,6,1,271,190.546875,[ 0.32064286  0.31281163  0.63940014],1,1,1,0.294989292,0,0,0,0.31679804,0.264582338,0.058179336,0.322761674,0.206403002,nan,nan,nan,[ nan  nan  nan],nan,nan,nan,2720.095322,3133.737013,3134.032002,nan,nan
0,364,19:19:43:071000,6,1,382,268.59375,[-0.10118876  0.47829114 -0.19973227],1,1,1,0.297190532,0,0,1,0.340328494,0.264665874,0.05812116,0.322787034,0.206544714,nan,nan,nan,[ nan  nan  nan],nan,nan,nan,2720.095322,3134.678801,3134.975992,nan,nan
0,365,19:19:48:282000,6,0,1,0.703125,[ 0.85493913  0.20787707 -1.        ],0,0,1,0.419388591,1,0,0,0.337189471,0.264754982,0.05806638,0.322821363,0.206688602,nan,87.51044708,4,[ 0.87912605  0.19501404 -1.        ],nan,1.786427922,2.225546875,2720.095322,3135.620587,3136.039975,3137.445795,3139.6794
0,366,19:19:49:218000,6,1,130,91.40625,[ 1.         -0.30933315 -0.13607149],1,1,1,0.314280151,0,0,0,0.343619758,0.265177479,0.0585461,0.323723579,0.206631379,nan,nan,nan,[ nan  nan  nan],nan,nan,nan,2720.095322,3140.829601,3141.143881,nan,nan
0,367,19:19:50:169000,6,0,401,281.953125,[-0.00506341  0.47079689 -0.4252031 ],0,0,1,0.332474239,0,0,0,0.355380993,0.265311273,0.058522286,0.323833559,0.206788987,nan,nan,nan,[ nan  nan  nan],nan,nan,nan,2720.095322,3141.771386,3142.10386,nan,nan
0,368,19:19:51:105000,6,1,72,50.625,[ 1.         -0.14960778 -0.85320374],1,1,1,0.278668867,0,0,0,0.308474419,0.265493781,0.05854721,0.324040991,0.206946572,nan,nan,nan,[ nan  nan  nan],nan,nan,nan,2720.095322,3142.713175,3142.991844,nan,nan
0,369,19:19:52:041000,6,1,188,132.1875,[ 1.         -0.08573935  0.39280429],1,1,1,0.264860439,0,0,0,0.292001181,0.265529486,0.058471835,0.324001322,0.207057651,nan,nan,nan,[ nan  nan  nan],nan,nan,nan,2720.095322,3143.654964,3143.919824,nan,nan
0,370,19:19:52:993000,6,1,368,258.75,[-0.15045717  0.47779326 -0.04573418],1,1,1,0.259054707,0,0,0,0.267528004,0.265527678,0.058392776,0.323920454,0.207134902,nan,nan,nan,[ nan  nan  nan],nan,nan,nan,2720.095322,3144.596754,3144.855809,nan,nan
0,371,19:19:53:929000,6,1,417,293.203125,[ 0.0945046   0.45705356 -0.6457202 ],1,1,1,0.285255767,0,0,0,0.269723638,0.265510231,0.058314992,0.323825223,0.207195238,nan,nan,nan,[ nan  nan  nan],nan,nan,nan,2720.095322,3145.53853,3145.823786,nan,nan
0,372,19:19:54:865000,6,1,365,256.640625,[-0.15796203  0.47701659 -0.01391969],1,1,1,0.279429793,0,0,0,0.274580089,0.26556331,0.058245533,0.323808843,0.207317777,nan,nan,nan,[ nan  nan  nan],nan,nan,nan,2720.095322,3146.480334,3146.759764,nan,nan
0,373,19:19:55:817000,6,1,127,89.296875,[ 1.         -0.31111021 -0.16703665],1,1,1,0.281634454,0,0,0,0.282106671,0.265600486,0.058171822,0.323772308,0.207428663,nan,nan,nan,[ nan  nan  nan],nan,nan,nan,2720.095322,3147.422117,3147.703752,nan,nan
0,374,19:19:56:753000,6,1,303,213.046875,[ 0.01913493  0.40252284  0.51201836],1,1,1,0.219833799,0,0,0,0.260299349,0.265643357,0.058099901,0.323743258,0.207543456,nan,nan,nan,[ nan  nan  nan],nan,nan,nan,2720.095322,3148.363906,3148.58374,nan,nan
0,375,19:19:57:704000,6,0,32,22.5,[ 1.         0.0617358 -1.       ],0,1,0,0.19005134,0,0,0,0.230506531,0.265521198,0.058070457,0.323591656,0.207450741,nan,nan,nan,[ nan  nan  nan],nan,nan,nan,2720.095322,3149.305686,3149.495738,nan,nan
0,376,19:19:58:640000,6,1,234,164.53125,[ 0.71814775  0.15974031  0.6291316 ],1,1,1,0.104254857,0,0,0,0.171379999,0.265320481,0.058123294,0.323443774,0.207197187,nan,nan,nan,[ nan  nan  nan],nan,nan,nan,2720.095322,3150.247481,3150.351736,nan,nan
0,377,19:19:59:576000,6,1,81,56.953125,[ 1.         -0.19380425 -0.69421917],1,1,1,0.098441142,0,0,0,0.13091578,0.264893251,0.058634339,0.32352759,0.206258912,nan,nan,nan,[ nan  nan  nan],nan,nan,nan,2720.095322,3151.18926,3151.287702,nan,nan
0,378,19:20:00:528000,6,1,427,300.234375,[ 0.16326517  0.44486322 -0.84020871],1,1,1,0.228637335,0,1,0,0.143777778,0.264452901,0.059177646,0.323630547,0.205275256,nan,nan,nan,[ nan  nan  nan],nan,nan,nan,2720.095322,3152.131055,3152.359692,nan,nan
0,379,19:20:05:099000,6,1,369,259.453125,[-0.14769469  0.47799919 -0.05643387],1,1,1,0.230816053,1,0,0,0.185964843,0.264358401,0.059128075,0.323486477,0.205230326,nan,-165.8946422,364,[-0.16019432  0.47670452 -0.00341125],nan,-3.558482764,1.592136204,2720.095322,3153.072849,3153.303665,3154.89805,3156.498237
0,380,19:20:06:035000,6,1,93,65.390625,[ 1.         -0.2456143  -0.53861988],1,1,1,0.255132616,0,0,0,0.238195335,0.264270132,0.059075223,0.323345354,0.205194909,nan,nan,nan,[ nan  nan  nan],nan,nan,nan,2720.095322,3157.648443,3157.903575,nan,nan
0,381,19:20:06:986000,6,1,493,346.640625,[ 0.68976908  0.28570078 -1.        ],1,1,1,0.217322658,0,0,0,0.234423775,0.264246149,0.058999497,0.323245646,0.205246651,nan,nan,nan,[ nan  nan  nan],nan,nan,nan,2720.095322,3158.59023,3158.807553,nan,nan
0,382,19:20:07:922000,6,1,80,56.25,[ 1.         -0.18907571 -0.70896555],1,1,1,0.211538878,0,0,0,0.227998051,0.264123313,0.058970985,0.323094298,0.205152327,nan,nan,nan,[ nan  nan  nan],nan,nan,nan,2720.095322,3159.532015,3159.743554,nan,nan
0,383,19:20:08:874000,6,1,264,185.625,[ 0.39496696  0.28788971  0.65071762],1,1,1,0.301721592,0,0,0,0.243527709,0.263986016,0.058955051,0.322941068,0.205030965,nan,nan,nan,[ nan  nan  nan],nan,nan,nan,2720.095322,3160.473801,3160.775523,nan,nan
0,384,19:20:09:810000,6,1,100,70.3125,[ 1.         -0.27042709 -0.4574399 ],1,1,1,0.279915885,0,0,0,0.264392118,0.264084286,0.058909637,0.322993923,0.205174649,nan,nan,nan,[ nan  nan  nan],nan,nan,nan,2720.095322,3161.415597,3161.695512,nan,nan
0,385,19:20:10:746000,6,1,202,142.03125,[ 1.         -0.00802826  0.48759698],1,1,1,0.178111729,0,0,0,0.253249735,0.264125407,0.0588386,0.322964007,0.205286807,nan,nan,nan,[ nan  nan  nan],nan,nan,nan,2720.095322,3162.357388,3162.5355,nan,nan
0,386,19:20:11:697000,6,1,509,357.890625,[ 0.82238638  0.224555   -1.        ],1,1,1,0.172315975,0,0,0,0.21011453,0.263902574,0.058924774,0.322827348,0.2049778,nan,nan,nan,[ nan  nan  nan],nan,nan,nan,2720.095322,3163.299174,3163.47149,nan,nan
0,387,19:20:12:633000,6,1,29,20.390625,[ 1.          0.07701739 -1.        ],1,1,1,0.190513769,0,1,0,0.180313824,0.263665916,0.059031989,0.322697905,0.204633926,nan,nan,nan,[ nan  nan  nan],nan,nan,nan,2720.095322,3164.240961,3164.431475,nan,nan
0,388,19:20:17:204000,6,1,492,345.9375,[ 0.68140332  0.28922202 -1.        ],1,1,1,0.176703916,1,0,0,0.179844553,0.263477379,0.059072419,0.322549799,0.20440496,nan,113.962489,478,[ 0.5642225   0.33479366 -1.        ],nan,-9.899988975,1.583817049,2720.095322,3165.182749,3165.359453,3167.007953,3168.599805
0,389,19:20:18:140000,6,1,195,137.109375,[ 1.         -0.04692453  0.44239605],1,1,1,0.265365917,0,0,0,0.210861201,0.263254311,0.059159841,0.322414152,0.204094471,nan,nan,nan,[ nan  nan  nan],nan,nan,nan,2720.095322,3169.750005,3170.015371,nan,nan
0,390,19:20:19:092000,6,1,244,171.5625,[ 0.61137236  0.20616355  0.64888072],1,1,1,0.22755938,0,0,0,0.223209738,0.263259726,0.059084043,0.322343768,0.204175683,nan,nan,nan,[ nan  nan  nan],nan,nan,nan,2720.095322,3170.691795,3170.919354,nan,nan
0,391,19:20:20:028000,6,1,450,316.40625,[ 0.33594973  0.40559833 -1.        ],1,1,1,0.221748516,0,0,0,0.238224605,0.263168421,0.059035982,0.322204403,0.204132438,nan,nan,nan,[ nan  nan  nan],nan,nan,nan,2720.095322,3171.633581,3171.855329,nan,nan
0,392,19:20:20:964000,6,1,38,26.71875,[ 1.          0.03062595 -1.        ],1,1,1,0.231939908,0,0,0,0.227082602,0.263062757,0.058997641,0.322060398,0.204065117,nan,nan,nan,[ nan  nan  nan],nan,nan,nan,2720.095322,3172.575374,3172.807314,nan,nan
0,393,19:20:21:915000,6,0,471,331.171875,[ 0.50601401  0.35499378 -1.        ],0,1,0,0.218136042,0,0,0,0.223941489,0.262983564,0.058943391,0.321926955,0.204040174,nan,nan,nan,[ nan  nan  nan],nan,nan,nan,2720.095322,3173.517161,3173.735297,nan,nan
0,394,19:20:22:851000,6,1,42,29.53125,[ 1.          0.00954879 -1.        ],1,1,1,0.252334666,0,0,0,0.234136872,0.262869738,0.058911774,0.321781512,0.203957965,nan,nan,nan,[ nan  nan  nan],nan,nan,nan,2720.095322,3174.458947,3174.711282,nan,nan
0,395,19:20:23:787000,6,1,240,168.75,[ 0.65437302  0.18801506  0.64246395],1,1,1,0.278528884,0,0,0,0.249666531,0.262843067,0.058839536,0.321682603,0.204003531,nan,nan,nan,[ nan  nan  nan],nan,nan,nan,2720.095322,3175.400744,3175.679273,nan,nan
0,396,19:20:24:739000,6,1,288,202.5,[ 0.15000513  0.36533195  0.58668724],1,1,1,0.232666908,0,0,0,0.254510153,0.262882678,0.05877047,0.321653148,0.204112208,nan,nan,nan,[ nan  nan  nan],nan,nan,nan,2720.095322,3176.342594,3176.575261,nan,nan
0,397,19:20:25:675000,6,1,26,18.28125,[ 1.          0.09209217 -1.        ],1,1,1,0.202924362,0,0,0,0.238040051,0.262806568,0.058715942,0.32152251,0.204090625,nan,nan,nan,[ nan  nan  nan],nan,nan,nan,2720.095322,3177.284315,3177.48724,nan,nan
0,398,19:20:26:627000,6,1,206,144.84375,[ 0.99472346  0.01405192  0.51131616],1,1,1,0.229111168,0,0,0,0.221567479,0.26265611,0.058718709,0.321374819,0.203937401,nan,nan,nan,[ nan  nan  nan],nan,nan,nan,2720.095322,3178.226105,3178.455216,nan,nan
0,399,19:20:27:563000,6,1,470,330.46875,[ 0.49774161  0.35774078 -1.        ],1,1,1,0.295296912,0,0,0,0.242444147,0.262572037,0.05866906,0.321241097,0.203902977,nan,nan,nan,[ nan  nan  nan],nan,nan,nan,2720.095322,3179.167897,3179.463194,nan,nan
0,400,19:20:28:499000,6,1,350,246.09375,[-0.17575682  0.46949094  0.13824748],1,1,1,0.289498308,0,0,0,0.271302129,0.262653849,0.058618462,0.321272311,0.204035388,nan,nan,nan,[ nan  nan  nan],nan,nan,nan,2720.095322,3180.109685,3180.399183,nan,nan
0,401,19:20:29:450000,6,1,271,190.546875,[ 0.32064286  0.31281163  0.63940014],1,1,1,0.323704915,0,0,0,0.302833378,0.262720793,0.058560633,0.321281426,0.20416016,nan,nan,nan,[ nan  nan  nan],nan,nan,nan,2720.095322,3181.051471,3181.375176,nan,nan
0,402,19:20:30:386000,6,1,189,132.890625,[ 1.         -0.08021946  0.40014347],1,1,1,0.30989278,0,0,0,0.307698668,0.262872495,0.05856659,0.321439085,0.204305905,nan,nan,nan,[ nan  nan  nan],nan,nan,nan,2720.095322,3181.993262,3182.303155,nan,nan
0,403,19:20:31:322000,6,1,31,21.796875,[ 1.          0.06685157 -1.        ],1,1,1,0.304085623,0,0,0,0.312561106,0.262989171,0.058540641,0.321529812,0.20444853,nan,nan,nan,[ nan  nan  nan],nan,nan,nan,2720.095322,3182.935054,3183.239139,nan,nan
0,404,19:20:32:274000,6,1,420,295.3125,[ 0.11466019  0.4536941  -0.6950475 ],1,1,1,0.330221681,0,0,0,0.314733361,0.263090895,0.058503796,0.32159469,0.204587099,nan,nan,nan,[ nan  nan  nan],nan,nan,nan,2720.095322,3183.876896,3184.207118,nan,nan
0,405,19:20:33:210000,6,1,106,74.53125,[ 1.         -0.28763007 -0.39056445],1,1,1,0.332476234,0,0,1,0.322261179,0.26325665,0.058526428,0.321783078,0.204730221,nan,nan,nan,[ nan  nan  nan],nan,nan,nan,2720.095322,3184.818624,3185.1511,nan,nan
0,406,19:20:38:186000,6,1,393,276.328125,[-0.04894566  0.47510217 -0.32744323],1,1,1,0.35067973,1,0,0,0.337792548,0.263427141,0.058554917,0.321982058,0.204872224,nan,-173.5956473,375,[-0.1285567   0.47868243 -0.12160516],nan,-12.73247773,1.975632404,2720.095322,3185.760412,3186.111092,3187.593952,3189.577515
0,407,19:20:39:122000,6,1,15,10.546875,[ 0.96573443  0.14535278 -1.        ],1,1,1,0.262970811,0,0,0,0.315375592,0.263641521,0.058642248,0.322283769,0.204999273,nan,nan,nan,[ nan  nan  nan],nan,nan,nan,2720.095322,3190.736053,3190.999024,nan,nan
0,408,19:20:40:074000,6,1,464,326.25,[ 0.44840488  0.37350356 -1.        ],1,1,1,0.26514069,0,0,0,0.29293041,0.263639877,0.058570348,0.322210225,0.205069529,nan,nan,nan,[ nan  nan  nan],nan,nan,nan,2720.095322,3191.677846,3191.942987,nan,nan
0,409,19:20:41:010000,6,1,307,215.859375,[-0.01138687  0.41105336  0.48795701],1,1,1,0.211321634,0,0,0,0.246477711,0.263643547,0.058498749,0.322142296,0.205144798,nan,nan,nan,[ nan  nan  nan],nan,nan,nan,2720.095322,3192.619631,3192.830953,nan,nan
0,410,19:20:41:962000,6,1,257,180.703125,[ 0.4704729   0.26103985  0.65584138],1,1,1,0.181515797,0,0,0,0.21932604,0.263515932,0.058484338,0.32200027,0.205031594,nan,nan,nan,[ nan  nan  nan],nan,nan,nan,2720.095322,3193.561422,3193.742938,nan,nan
