block,trial,setsize,freq_trials,correct_response,actual_response,acc,rts,probe_trials,timeBlockStart,timeEncArrayOnset,timeResponse,timeWholeReportOnset,timeWholeReportOffset,colorind1,colorind2,colorind3,colorind4,colorind5,colorind6,wholereportResp1,wholereportResp2,wholereportResp3,wholereportResp4,wholereportResp5,wholereportResp6,wholereport_respacc1,wholereport_respacc2,wholereport_respacc3,wholereport_respacc4,wholereport_respacc5,wholereport_respacc6,wholereport_respacc_total,wholereportRespOrder1,wholereportRespOrder2,wholereportRespOrder3,wholereportRespOrder4,wholereportRespOrder5,wholereportRespOrder6,wholereportRespColorInd1,wholereportRespColorInd2,wholereportRespColorInd3,wholereportRespColorInd4,wholereportRespColorInd5,wholereportRespColorInd6,wholereport_rts1,wholereport_rts2,wholereport_rts3,wholereport_rts4,wholereport_rts5,wholereport_rts6
1,1,6,1,1,1.0,1.0,0.673042464768514,0,1389.489985565422,1390.5049206190743,1391.1779630838428,nan,nan,4,1,8,7,2,0,nan,nan,nan,nan,nan,nan,0.0,0.0,0.0,0.0,0.0,0.0,nan,nan,nan,nan,nan,nan,nan,nan,nan,nan,nan,nan,nan,nan,nan,nan,nan,nan,nan
1,2,6,1,1,1.0,1.0,0.6558497338555753,0,1389.489985565422,1391.5300966161303,1392.185946349986,nan,nan,6,2,0,8,5,1,nan,nan,nan,nan,nan,nan,0.0,0.0,0.0,0.0,0.0,0.0,nan,nan,nan,nan,nan,nan,nan,nan,nan,nan,nan,nan,nan,nan,nan,nan,nan,nan,nan
1,3,6,0,0,1.0,0.0,0.2150532545056194,0,1389.489985565422,1392.5468765278347,1392.7619297823403,nan,nan,7,1,2,3,4,5,nan,nan,nan,nan,nan,nan,0.0,0.0,0.0,0.0,0.0,0.0,nan,nan,nan,nan,nan,nan,nan,nan,nan,nan,nan,nan,nan,nan,nan,nan,nan,nan,nan
1,4,6,1,1,nan,nan,nan,0,1389.489985565422,1393.5719843870029,nan,nan,nan,5,6,4,8,2,1,nan,nan,nan,nan,nan,nan,0.0,0.0,0.0,0.0,0.0,0.0,nan,nan,nan,nan,nan,nan,nan,nan,nan,nan,nan,nan,nan,nan,nan,nan,nan,nan,nan
1,5,6,1,1,1.0,1.0,0.3570525834802538,1,1389.489985565422,1394.5888247389812,1394.9458773224615,1396.4056743280962,1401.3313138063531,8,5,1,0,6,7,1.0,1.0,1.0,1.0,1.0,1.0,0.0,0.0,0.0,0.0,1.0,0.0,1.0,4.0,3.0,2.0,1.0,6.0,5.0,1.0,6.0,8.0,7.0,6.0,5.0,4.01747326599434,3.3940235837362707,3.0352544356137514,2.385693355696276,4.897416657069698,4.546012686332688
1,6,6,1,1,1.0,1.0,0.5011878535151482,0,1389.489985565422,1402.5564919700846,1403.0576798235998,nan,nan,0,6,5,2,3,8,nan,nan,nan,nan,nan,nan,0.0,0.0,0.0,0.0,0.0,0.0,nan,nan,nan,nan,nan,nan,nan,nan,nan,nan,nan,nan,nan,nan,nan,nan,nan,nan,nan
1,7,6,1,1,0.0,0.0,0.25237606349401176,0,1389.489985565422,1403.573306948645,1403.825683012139,nan,nan,2,1,0,5,7,3,nan,nan,nan,nan,nan,nan,0.0,0.0,0.0,0.0,0.0,0.0,nan,nan,nan,nan,nan,nan,nan,nan,nan,nan,nan,nan,nan,nan,nan,nan,nan,nan,nan
1,8,6,1,1,1.0,1.0,0.05925327003933489,0,1389.489985565422,1404.5984293476213,1404.6576826176606,nan,nan,0,7,8,4,5,1,nan,nan,nan,nan,nan,nan,0.0,0.0,0.0,0.0,0.0,0.0,nan,nan,nan,nan,nan,nan,nan,nan,nan,nan,nan,nan,nan,nan,nan,nan,nan,nan,nan
1,9,6,1,1,1.0,1.0,0.5943670107517391,0,1389.489985565422,1405.6152386241592,1406.209605634911,nan,nan,8,3,2,6,7,0,nan,nan,nan,nan,nan,nan,0.0,0.0,0.0,0.0,0.0,0.0,nan,nan,nan,nan,nan,nan,nan,nan,nan,nan,nan,nan,nan,nan,nan,nan,nan,nan,nan
1,10,6,1,1,1.0,1.0,0.32120343716815114,0,1389.489985565422,1406.6403650143184,1406.9615684514865,nan,nan,1,0,8,5,4,7,nan,nan,nan,nan,nan,nan,0.0,0.0,0.0,0.0,0.0,0.0,nan,nan,nan,nan,nan,nan,nan,nan,nan,nan,nan,nan,nan,nan,nan,nan,nan,nan,nan
1,11,6,1,1,1.0,1.0,0.11210014158859849,0,1389.489985565422,1407.6654971067328,1407.7775972483214,nan,nan,2,1,5,4,3,6,nan,nan,nan,nan,nan,nan,0.0,0.0,0.0,0.0,0.0,0.0,nan,nan,nan,nan,nan,nan,nan,nan,nan,nan,nan,nan,nan,nan,nan,nan,nan,nan,nan
1,12,6,1,1,nan,nan,nan,0,1389.489985565422,1408.6823066682555,nan,nan,nan,8,6,7,1,2,4,nan,nan,nan,nan,nan,nan,0.0,0.0,0.0,0.0,0.0,0.0,nan,nan,nan,nan,nan,nan,nan,nan,nan,nan,nan,nan,nan,nan,nan,nan,nan,nan,nan
1,13,6,1,1,1.0,1.0,0.7983953070361167,0,1389.489985565422,1409.699097983772,1410.497493290808,nan,nan,6,8,1,7,4,0,nan,nan,nan,nan,nan,nan,0.0,0.0,0.0,0.0,0.0,0.0,nan,nan,nan,nan,nan,nan,nan,nan,nan,nan,nan,nan,nan,nan,nan,nan,nan,nan,nan
1,14,6,1,1,1.0,1.0,0.6768989621195942,0,1389.489985565422,1410.7325640104245,1411.4094629725441,nan,nan,1,6,3,8,0,2,nan,nan,nan,nan,nan,nan,0.0,0.0,0.0,0.0,0.0,0.0,nan,nan,nan,nan,nan,nan,nan,nan,nan,nan,nan,nan,nan,nan,nan,nan,nan,nan,nan
1,15,6,1,1,1.0,1.0,0.4597850318532437,0,1389.489985565422,1411.75768783479,1412.2174728666432,nan,nan,8,0,4,3,7,5,nan,nan,nan,nan,nan,nan,0.0,0.0,0.0,0.0,0.0,0.0,nan,nan,nan,nan,nan,nan,nan,nan,nan,nan,nan,nan,nan,nan,nan,nan,nan,nan,nan
1,16,6,1,1,1.0,1.0,0.25095172272995114,0,1389.489985565422,1412.7744857075159,1413.0254374302458,nan,nan,0,7,1,6,3,2,nan,nan,nan,nan,nan,nan,0.0,0.0,0.0,0.0,0.0,0.0,nan,nan,nan,nan,nan,nan,nan,nan,nan,nan,nan,nan,nan,nan,nan,nan,nan,nan,nan
1,17,6,1,1,1.0,1.0,0.02617126819677651,0,1389.489985565422,1413.7913080987055,1413.8174793669023,nan,nan,6,1,4,5,2,0,nan,nan,nan,nan,nan,nan,0.0,0.0,0.0,0.0,0.0,0.0,nan,nan,nan,nan,nan,nan,nan,nan,nan,nan,nan,nan,nan,nan,nan,nan,nan,nan,nan
1,18,6,1,1,1.0,1.0,0.6653026710264385,0,1389.489985565422,1414.8081031204201,1415.4734057914466,nan,nan,7,3,6,1,5,4,nan,nan,nan,nan,nan,nan,0.0,0.0,0.0,0.0,0.0,0.0,nan,nan,nan,nan,nan,nan,nan,nan,nan,nan,nan,nan,nan,nan,nan,nan,nan,nan,nan
1,19,6,1,1,1.0,1.0,0.3524559761863202,0,1389.489985565422,1415.8249021335505,1416.1773581097368,nan,nan,1,2,3,4,6,5,nan,nan,nan,nan,nan,nan,0.0,0.0,0.0,0.0,0.0,0.0,nan,nan,nan,nan,nan,nan,nan,nan,nan,nan,nan,nan,nan,nan,nan,nan,nan,nan,nan
1,20,6,1,1,1.0,1.0,0.30366573948413134,0,1389.489985565422,1416.84170257207,1417.1453683115542,nan,nan,8,7,2,6,3,4,nan,nan,nan,nan,nan,nan,0.0,0.0,0.0,0.0,0.0,0.0,nan,nan,nan,nan,nan,nan,nan,nan,nan,nan,nan,nan,nan,nan,nan,nan,nan,nan,nan
1,21,6,1,1,1.0,1.0,0.022832220420241356,0,1389.489985565422,1417.8584947430063,1417.8813269634265,nan,nan,4,3,6,2,7,5,nan,nan,nan,nan,nan,nan,0.0,0.0,0.0,0.0,0.0,0.0,nan,nan,nan,nan,nan,nan,nan,nan,nan,nan,nan,nan,nan,nan,nan,nan,nan,nan,nan
1,22,6,1,1,1.0,1.0,0.6456444272771478,0,1389.489985565422,1418.8836219885852,1419.5292664158624,nan,nan,2,8,4,5,1,7,nan,nan,nan,nan,nan,nan,0.0,0.0,0.0,0.0,0.0,0.0,nan,nan,nan,nan,nan,nan,nan,nan,nan,nan,nan,nan,nan,nan,nan,nan,nan,nan,nan
1,23,6,1,1,1.0,1.0,0.4525099447928369,1,1389.489985565422,1419.9087572167628,1420.3612671615556,1421.742315728683,1426.0011925576255,6,7,5,4,3,8,1.0,1.0,1.0,1.0,1.0,1.0,0.0,1.0,0.0,0.0,0.0,0.0,1.0,4.0,3.0,2.0,1.0,6.0,5.0,7.0,7.0,3.0,3.0,0.0,6.0,3.345442892750725,2.866004178998992,1.6885736547410488,1.3126402851194143,4.223986461292952,3.6960078252013773
1,24,6,1,1,nan,nan,nan,0,1389.489985565422,1427.2431426504627,nan,nan,nan,7,5,2,8,6,4,nan,nan,nan,nan,nan,nan,0.0,0.0,0.0,0.0,0.0,0.0,nan,nan,nan,nan,nan,nan,nan,nan,nan,nan,nan,nan,nan,nan,nan,nan,nan,nan,nan
1,25,6,1,1,nan,nan,nan,0,1389.489985565422,1428.2598555644508,nan,nan,nan,5,6,3,2,1,0,nan,nan,nan,nan,nan,nan,0.0,0.0,0.0,0.0,0.0,0.0,nan,nan,nan,nan,nan,nan,nan,nan,nan,nan,nan,nan,nan,nan,nan,nan,nan,nan,nan
1,26,6,1,1,1.0,1.0,0.15607396187260747,0,1389.489985565422,1429.2849762528203,1429.441050214693,nan,nan,7,4,1,0,6,5,nan,nan,nan,nan,nan,nan,0.0,0.0,0.0,0.0,0.0,0.0,nan,nan,nan,nan,nan,nan,nan,nan,nan,nan,nan,nan,nan,nan,nan,nan,nan,nan,nan
1,27,6,1,1,nan,nan,nan,0,1389.489985565422,1430.301780397771,nan,nan,nan,0,8,2,1,7,6,nan,nan,nan,nan,nan,nan,0.0,0.0,0.0,0.0,0.0,0.0,nan,nan,nan,nan,nan,nan,nan,nan,nan,nan,nan,nan,nan,nan,nan,nan,nan,nan,nan
1,28,6,1,1,1.0,1.0,0.6980468339752406,1,1389.489985565422,1431.3269056475256,1432.0249524815008,1433.1437985713128,1436.1858528384473,3,0,6,5,8,2,1.0,1.0,1.0,1.0,1.0,1.0,0.0,0.0,0.0,0.0,0.0,0.0,0.0,5.0,6.0,1.0,2.0,3.0,4.0,4.0,1.0,7.0,8.0,3.0,1.0,2.7350463438779116,3.014715244527906,0.6955117578618228,1.0622382282745093,1.5436669141054153,2.166523596039042
1,29,6,1,1,1.0,1.0,0.46115463436581194,0,1389.489985565422,1437.4277054280974,1437.8888600624632,nan,nan,0,5,1,4,6,7,nan,nan,nan,nan,nan,nan,0.0,0.0,0.0,0.0,0.0,0.0,nan,nan,nan,nan,nan,nan,nan,nan,nan,nan,nan,nan,nan,nan,nan,nan,nan,nan,nan
1,30,6,1,1,1.0,1.0,0.6599944634363055,0,1389.489985565422,1438.4528246910777,1439.112819154514,nan,nan,2,4,0,5,3,6,nan,nan,nan,nan,nan,nan,0.0,0.0,0.0,0.0,0.0,0.0,nan,nan,nan,nan,nan,nan,nan,nan,nan,nan,nan,nan,nan,nan,nan,nan,nan,nan,nan
1,31,6,0,0,1.0,0.0,0.21073062485083938,0,1389.489985565422,1439.4780782342423,1439.6888088590931,nan,nan,7,1,3,2,8,4,nan,nan,nan,nan,nan,nan,0.0,0.0,0.0,0.0,0.0,0.0,nan,nan,nan,nan,nan,nan,nan,nan,nan,nan,nan,nan,nan,nan,nan,nan,nan,nan,nan
1,32,6,1,1,1.0,1.0,0.24203048972412944,0,1389.489985565422,1440.4947971354704,1440.7368276251946,nan,nan,6,2,1,5,4,0,nan,nan,nan,nan,nan,nan,0.0,0.0,0.0,0.0,0.0,0.0,nan,nan,nan,nan,nan,nan,nan,nan,nan,nan,nan,nan,nan,nan,nan,nan,nan,nan,nan
1,33,6,1,1,1.0,1.0,0.28091505635529757,0,1389.489985565422,1441.5198904545978,1441.800805510953,nan,nan,0,7,4,3,8,5,nan,nan,nan,nan,nan,nan,0.0,0.0,0.0,0.0,0.0,0.0,nan,nan,nan,nan,nan,nan,nan,nan,nan,nan,nan,nan,nan,nan,nan,nan,nan,nan,nan
1,34,6,1,1,1.0,1.0,0.7036740642506629,0,1389.489985565422,1442.5450422184076,1443.2487162826583,nan,nan,4,0,5,7,3,1,nan,nan,nan,nan,nan,nan,0.0,0.0,0.0,0.0,0.0,0.0,nan,nan,nan,nan,nan,nan,nan,nan,nan,nan,nan,nan,nan,nan,nan,nan,nan,nan,nan
1,35,6,0,0,1.0,0.0,0.36687956703826785,0,1389.489985565422,1443.5618452229537,1443.928724789992,nan,nan,3,1,0,8,6,5,nan,nan,nan,nan,nan,nan,0.0,0.0,0.0,0.0,0.0,0.0,nan,nan,nan,nan,nan,nan,nan,nan,nan,nan,nan,nan,nan,nan,nan,nan,nan,nan,nan
1,36,6,1,1,1.0,1.0,0.21372841205447912,0,1389.489985565422,1444.5869750343263,1444.8007034463808,nan,nan,0,2,3,4,1,7,nan,nan,nan,nan,nan,nan,0.0,0.0,0.0,0.0,0.0,0.0,nan,nan,nan,nan,nan,nan,nan,nan,nan,nan,nan,nan,nan,nan,nan,nan,nan,nan,nan
1,37,6,1,1,1.0,1.0,0.7085828520357609,0,1389.489985565422,1445.612103990512,1446.3206868425477,nan,nan,4,3,2,5,6,0,nan,nan,nan,nan,nan,nan,0.0,0.0,0.0,0.0,0.0,0.0,nan,nan,nan,nan,nan,nan,nan,nan,nan,nan,nan,nan,nan,nan,nan,nan,nan,nan,nan
1,38,6,1,1,1.0,1.0,0.09178617666475475,0,1389.489985565422,1446.6289089906495,1446.7206951673143,nan,nan,0,6,4,1,5,8,nan,nan,nan,nan,nan,nan,0.0,0.0,0.0,0.0,0.0,0.0,nan,nan,nan,nan,nan,nan,nan,nan,nan,nan,nan,nan,nan,nan,nan,nan,nan,nan,nan
1,39,6,1,1,1.0,1.0,0.7065649405121803,0,1389.489985565422,1447.6540322448127,1448.3605971853249,nan,nan,1,7,8,3,4,5,nan,nan,nan,nan,nan,nan,0.0,0.0,0.0,0.0,0.0,0.0,nan,nan,nan,nan,nan,nan,nan,nan,nan,nan,nan,nan,nan,nan,nan,nan,nan,nan,nan
1,40,6,1,1,1.0,1.0,0.3134419759735465,0,1389.489985565422,1448.6791654773988,1448.9926074533723,nan,nan,2,8,5,0,3,7,nan,nan,nan,nan,nan,nan,0.0,0.0,0.0,0.0,0.0,0.0,nan,nan,nan,nan,nan,nan,nan,nan,nan,nan,nan,nan,nan,nan,nan,nan,nan,nan,nan
1,41,6,1,1,1.0,1.0,0.6242436752654612,0,1389.489985565422,1449.704308403423,1450.3285520786885,nan,nan,8,2,1,3,7,5,nan,nan,nan,nan,nan,nan,0.0,0.0,0.0,0.0,0.0,0.0,nan,nan,nan,nan,nan,nan,nan,nan,nan,nan,nan,nan,nan,nan,nan,nan,nan,nan,nan
1,42,6,1,1,1.0,1.0,0.31913933996111155,0,1389.489985565422,1450.7294416360091,1451.0485809759703,nan,nan,4,3,5,8,6,7,nan,nan,nan,nan,nan,nan,0.0,0.0,0.0,0.0,0.0,0.0,nan,nan,nan,nan,nan,nan,nan,nan,nan,nan,nan,nan,nan,nan,nan,nan,nan,nan,nan
1,43,6,1,1,1.0,1.0,0.7899567424319685,0,1389.489985565422,1451.7545623243786,1452.5445190668106,nan,nan,0,6,2,1,4,5,nan,nan,nan,nan,nan,nan,0.0,0.0,0.0,0.0,0.0,0.0,nan,nan,nan,nan,nan,nan,nan,nan,nan,nan,nan,nan,nan,nan,nan,nan,nan,nan,nan
1,44,6,1,1,nan,nan,nan,0,1389.489985565422,1452.7797023993917,nan,nan,nan,5,7,0,4,3,1,nan,nan,nan,nan,nan,nan,0.0,0.0,0.0,0.0,0.0,0.0,nan,nan,nan,nan,nan,nan,nan,nan,nan,nan,nan,nan,nan,nan,nan,nan,nan,nan,nan
1,45,6,1,1,1.0,1.0,0.4916294305585325,0,1389.489985565422,1453.804838482989,1454.2964679135475,nan,nan,6,1,4,0,5,7,nan,nan,nan,nan,nan,nan,0.0,0.0,0.0,0.0,0.0,0.0,nan,nan,nan,nan,nan,nan,nan,nan,nan,nan,nan,nan,nan,nan,nan,nan,nan,nan,nan
1,46,6,1,1,1.0,1.0,0.31447031814605,0,1389.489985565422,1454.829981693998,1455.144452012144,nan,nan,7,3,0,5,8,1,nan,nan,nan,nan,nan,nan,0.0,0.0,0.0,0.0,0.0,0.0,nan,nan,nan,nan,nan,nan,nan,nan,nan,nan,nan,nan,nan,nan,nan,nan,nan,nan,nan
1,47,6,1,1,nan,nan,nan,0,1389.489985565422,1455.846776430495,nan,nan,nan,6,8,2,0,3,4,nan,nan,nan,nan,nan,nan,0.0,0.0,0.0,0.0,0.0,0.0,nan,nan,nan,nan,nan,nan,nan,nan,nan,nan,nan,nan,nan,nan,nan,nan,nan,nan,nan
1,48,6,1,1,nan,nan,nan,0,1389.489985565422,1456.8718956934754,nan,nan,nan,3,5,0,4,7,2,nan,nan,nan,nan,nan,nan,0.0,0.0,0.0,0.0,0.0,0.0,nan,nan,nan,nan,nan,nan,nan,nan,nan,nan,nan,nan,nan,nan,nan,nan,nan,nan,nan
1,49,6,1,1,1.0,1.0,0.7116513431537896,0,1389.489985565422,1457.8887024042197,1458.6003537473734,nan,nan,2,1,7,8,4,0,nan,nan,nan,nan,nan,nan,0.0,0.0,0.0,0.0,0.0,0.0,nan,nan,nan,nan,nan,nan,nan,nan,nan,nan,nan,nan,nan,nan,nan,nan,nan,nan,nan
1,50,6,0,0,0.0,1.0,0.7344179914798588,0,1389.489985565422,1458.9139402671717,1459.6483582586516,nan,nan,6,7,2,1,8,4,nan,nan,nan,nan,nan,nan,0.0,0.0,0.0,0.0,0.0,0.0,nan,nan,nan,nan,nan,nan,nan,nan,nan,nan,nan,nan,nan,nan,nan,nan,nan,nan,nan
1,51,6,1,1,1.0,1.0,0.3414022233337164,0,1389.489985565422,1459.9389628823847,1460.2803651057184,nan,nan,4,6,3,7,0,1,nan,nan,nan,nan,nan,nan,0.0,0.0,0.0,0.0,0.0,0.0,nan,nan,nan,nan,nan,nan,nan,nan,nan,nan,nan,nan,nan,nan,nan,nan,nan,nan,nan
1,52,6,1,1,1.0,1.0,0.4042172012850642,0,1389.489985565422,1460.9640978255775,1461.3683150268625,nan,nan,0,7,4,5,8,6,nan,nan,nan,nan,nan,nan,0.0,0.0,0.0,0.0,0.0,0.0,nan,nan,nan,nan,nan,nan,nan,nan,nan,nan,nan,nan,nan,nan,nan,nan,nan,nan,nan
1,53,6,1,1,nan,nan,nan,0,1389.489985565422,1461.9892290625721,nan,nan,nan,1,5,8,7,2,3,nan,nan,nan,nan,nan,nan,0.0,0.0,0.0,0.0,0.0,0.0,nan,nan,nan,nan,nan,nan,nan,nan,nan,nan,nan,nan,nan,nan,nan,nan,nan,nan,nan
1,54,6,1,1,1.0,1.0,0.6178925854619592,0,1389.489985565422,1463.0143682821654,1463.6322608676273,nan,nan,3,8,0,4,1,2,nan,nan,nan,nan,nan,nan,0.0,0.0,0.0,0.0,0.0,0.0,nan,nan,nan,nan,nan,nan,nan,nan,nan,nan,nan,nan,nan,nan,nan,nan,nan,nan,nan
1,55,6,0,0,0.0,1.0,0.4806785974651575,0,1389.489985565422,1464.03956908267,1464.520247680135,nan,nan,5,6,1,2,4,3,nan,nan,nan,nan,nan,nan,0.0,0.0,0.0,0.0,0.0,0.0,nan,nan,nan,nan,nan,nan,nan,nan,nan,nan,nan,nan,nan,nan,nan,nan,nan,nan,nan
1,56,6,1,1,1.0,1.0,0.2395894955843687,0,1389.489985565422,1465.0646421599668,1465.3042316555511,nan,nan,2,0,6,8,1,5,nan,nan,nan,nan,nan,nan,0.0,0.0,0.0,0.0,0.0,0.0,nan,nan,nan,nan,nan,nan,nan,nan,nan,nan,nan,nan,nan,nan,nan,nan,nan,nan,nan
1,57,6,1,1,1.0,1.0,0.2464215427171439,1,1389.489985565422,1466.089767694939,1466.336189237656,1467.9149914172012,1472.1572049388196,4,3,7,1,2,6,1.0,1.0,1.0,1.0,1.0,1.0,0.0,1.0,0.0,0.0,0.0,0.0,1.0,4.0,5.0,6.0,1.0,2.0,3.0,2.0,3.0,5.0,8.0,4.0,3.0,2.9313921506982297,3.666356957051903,4.210316665004939,0.7724047899246216,1.4429660616442561,2.082373722922057
1,58,6,1,1,1.0,1.0,0.4489684789441526,0,1389.489985565422,1473.3990569585003,1473.8480254374444,nan,nan,3,2,6,4,5,0,nan,nan,nan,nan,nan,nan,0.0,0.0,0.0,0.0,0.0,0.0,nan,nan,nan,nan,nan,nan,nan,nan,nan,nan,nan,nan,nan,nan,nan,nan,nan,nan,nan
1,59,6,1,1,1.0,1.0,0.2957055661827326,0,1389.489985565422,1474.4242953916546,1474.7200009578373,nan,nan,6,7,0,8,1,3,nan,nan,nan,nan,nan,nan,0.0,0.0,0.0,0.0,0.0,0.0,nan,nan,nan,nan,nan,nan,nan,nan,nan,nan,nan,nan,nan,nan,nan,nan,nan,nan,nan
1,60,6,1,1,1.0,1.0,0.1826708789449185,0,1389.489985565422,1475.4493131602649,1475.6319840392098,nan,nan,5,4,2,7,3,1,nan,nan,nan,nan,nan,nan,0.0,0.0,0.0,0.0,0.0,0.0,nan,nan,nan,nan,nan,nan,nan,nan,nan,nan,nan,nan,nan,nan,nan,nan,nan,nan,nan
1,61,6,1,1,nan,nan,nan,0,1389.489985565422,1476.4744489586446,nan,nan,nan,4,8,1,0,6,5,nan,nan,nan,nan,nan,nan,0.0,0.0,0.0,0.0,0.0,0.0,nan,nan,nan,nan,nan,nan,nan,nan,nan,nan,nan,nan,nan,nan,nan,nan,nan,nan,nan
1,62,6,0,0,0.0,1.0,0.5643486531917006,0,1389.489985565422,1477.4995793404523,1478.063927993644,nan,nan,5,6,0,1,8,7,nan,nan,nan,nan,nan,nan,0.0,0.0,0.0,0.0,0.0,0.0,nan,nan,nan,nan,nan,nan,nan,nan,nan,nan,nan,nan,nan,nan,nan,nan,nan,nan,nan
1,63,6,1,1,1.0,1.0,0.29920284217223525,0,1389.489985565422,1478.5247120028362,1478.8239148450084,nan,nan,7,1,8,3,6,5,nan,nan,nan,nan,nan,nan,0.0,0.0,0.0,0.0,0.0,0.0,nan,nan,nan,nan,nan,nan,nan,nan,nan,nan,nan,nan,nan,nan,nan,nan,nan,nan,nan
1,64,6,1,1,1.0,1.0,0.1299220803193748,0,1389.489985565422,1479.549973813817,1479.6798958941363,nan,nan,8,0,4,6,3,2,nan,nan,nan,nan,nan,nan,0.0,0.0,0.0,0.0,0.0,0.0,nan,nan,nan,nan,nan,nan,nan,nan,nan,nan,nan,nan,nan,nan,nan,nan,nan,nan,nan
1,65,6,0,0,1.0,0.0,0.04887548042461276,0,1389.489985565422,1480.5749864508398,1480.6238619312644,nan,nan,0,5,7,8,2,1,nan,nan,nan,nan,nan,nan,0.0,0.0,0.0,0.0,0.0,0.0,nan,nan,nan,nan,nan,nan,nan,nan,nan,nan,nan,nan,nan,nan,nan,nan,nan,nan,nan
1,66,6,1,1,1.0,1.0,0.11181447538547218,0,1389.489985565422,1481.6001156920101,1481.7119301673956,nan,nan,3,1,6,7,5,4,nan,nan,nan,nan,nan,nan,0.0,0.0,0.0,0.0,0.0,0.0,nan,nan,nan,nan,nan,nan,nan,nan,nan,nan,nan,nan,nan,nan,nan,nan,nan,nan,nan
1,67,6,1,1,1.0,1.0,0.3985899710096419,0,1389.489985565422,1482.6252520605922,1483.0238420316018,nan,nan,1,5,3,6,4,0,nan,nan,nan,nan,nan,nan,0.0,0.0,0.0,0.0,0.0,0.0,nan,nan,nan,nan,nan,nan,nan,nan,nan,nan,nan,nan,nan,nan,nan,nan,nan,nan,nan
1,68,6,1,1,1.0,1.0,0.37341596954502165,0,1389.489985565422,1483.65039242059,1484.023808390135,nan,nan,7,0,4,2,1,8,nan,nan,nan,nan,nan,nan,0.0,0.0,0.0,0.0,0.0,0.0,nan,nan,nan,nan,nan,nan,nan,nan,nan,nan,nan,nan,nan,nan,nan,nan,nan,nan,nan
1,69,6,0,0,1.0,0.0,0.25225603813305497,0,1389.489985565422,1484.6755148195662,1484.9277708576992,nan,nan,3,5,1,8,0,4,nan,nan,nan,nan,nan,nan,0.0,0.0,0.0,0.0,0.0,0.0,nan,nan,nan,nan,nan,nan,nan,nan,nan,nan,nan,nan,nan,nan,nan,nan,nan,nan,nan
1,70,6,1,1,1.0,1.0,0.14709599502384663,0,1389.489985565422,1485.7006617370062,1485.84775773203,nan,nan,1,0,6,4,2,8,nan,nan,nan,nan,nan,nan,0.0,0.0,0.0,0.0,0.0,0.0,nan,nan,nan,nan,nan,nan,nan,nan,nan,nan,nan,nan,nan,nan,nan,nan,nan,nan,nan
1,71,6,1,1,1.0,1.0,0.17828837898559868,0,1389.489985565422,1486.717471868731,1486.8957602477167,nan,nan,7,4,5,8,3,2,nan,nan,nan,nan,nan,nan,0.0,0.0,0.0,0.0,0.0,0.0,nan,nan,nan,nan,nan,nan,nan,nan,nan,nan,nan,nan,nan,nan,nan,nan,nan,nan,nan
1,72,6,1,1,nan,nan,nan,0,1389.489985565422,1487.7426661120262,nan,nan,nan,3,5,0,1,7,8,nan,nan,nan,nan,nan,nan,0.0,0.0,0.0,0.0,0.0,0.0,nan,nan,nan,nan,nan,nan,nan,nan,nan,nan,nan,nan,nan,nan,nan,nan,nan,nan,nan
1,73,6,1,1,1.0,1.0,0.3119512074626982,0,1389.489985565422,1488.767726359889,1489.0796775673516,nan,nan,2,0,4,7,8,5,nan,nan,nan,nan,nan,nan,0.0,0.0,0.0,0.0,0.0,0.0,nan,nan,nan,nan,nan,nan,nan,nan,nan,nan,nan,nan,nan,nan,nan,nan,nan,nan,nan
1,74,6,1,1,1.0,1.0,0.3188154704403132,0,1389.489985565422,1489.7928604478948,1490.111675918335,nan,nan,6,8,7,3,0,2,nan,nan,nan,nan,nan,nan,0.0,0.0,0.0,0.0,0.0,0.0,nan,nan,nan,nan,nan,nan,nan,nan,nan,nan,nan,nan,nan,nan,nan,nan,nan,nan,nan
1,75,6,1,1,nan,nan,nan,0,1389.489985565422,1490.8179922550917,nan,nan,nan,7,4,2,8,5,1,nan,nan,nan,nan,nan,nan,0.0,0.0,0.0,0.0,0.0,0.0,nan,nan,nan,nan,nan,nan,nan,nan,nan,nan,nan,nan,nan,nan,nan,nan,nan,nan,nan
1,76,6,1,1,1.0,1.0,0.5485010065604001,0,1389.489985565422,1491.843116079457,1492.3916170860175,nan,nan,8,5,1,0,3,4,nan,nan,nan,nan,nan,nan,0.0,0.0,0.0,0.0,0.0,0.0,nan,nan,nan,nan,nan,nan,nan,nan,nan,nan,nan,nan,nan,nan,nan,nan,nan,nan,nan
1,77,6,1,1,1.0,1.0,0.4356533423997462,0,1389.489985565422,1492.8599396108184,1493.2955929532181,nan,nan,2,8,7,3,6,0,nan,nan,nan,nan,nan,nan,0.0,0.0,0.0,0.0,0.0,0.0,nan,nan,nan,nan,nan,nan,nan,nan,nan,nan,nan,nan,nan,nan,nan,nan,nan,nan,nan
1,78,6,1,1,1.0,1.0,0.3708318567369133,0,1389.489985565422,1493.8767380537465,1494.2475699104834,nan,nan,7,4,3,8,2,5,nan,nan,nan,nan,nan,nan,0.0,0.0,0.0,0.0,0.0,0.0,nan,nan,nan,nan,nan,nan,nan,nan,nan,nan,nan,nan,nan,nan,nan,nan,nan,nan,nan
1,79,6,1,1,1.0,1.0,0.417685434455052,0,1389.489985565422,1494.901856461307,1495.319541895762,nan,nan,8,0,5,3,7,6,nan,nan,nan,nan,nan,nan,0.0,0.0,0.0,0.0,0.0,0.0,nan,nan,nan,nan,nan,nan,nan,nan,nan,nan,nan,nan,nan,nan,nan,nan,nan,nan,nan
1,80,6,1,1,1.0,1.0,0.2404707281384617,0,1389.489985565422,1495.9270678104367,1496.1675385385752,nan,nan,0,5,3,8,4,2,nan,nan,nan,nan,nan,nan,0.0,0.0,0.0,0.0,0.0,0.0,nan,nan,nan,nan,nan,nan,nan,nan,nan,nan,nan,nan,nan,nan,nan,nan,nan,nan,nan
1,81,6,0,0,1.0,0.0,0.023692070972174406,0,1389.489985565422,1496.9438023916446,1496.9674944626167,nan,nan,8,4,6,0,5,7,nan,nan,nan,nan,nan,nan,0.0,0.0,0.0,0.0,0.0,0.0,nan,nan,nan,nan,nan,nan,nan,nan,nan,nan,nan,nan,nan,nan,nan,nan,nan,nan,nan
1,82,6,1,1,nan,nan,nan,0,1389.489985565422,1497.9689424666576,nan,nan,nan,6,7,5,3,0,2,nan,nan,nan,nan,nan,nan,0.0,0.0,0.0,0.0,0.0,0.0,nan,nan,nan,nan,nan,nan,nan,nan,nan,nan,nan,nan,nan,nan,nan,nan,nan,nan,nan
1,83,6,1,1,nan,nan,nan,0,1389.489985565422,1498.9940597338136,nan,nan,nan,8,5,2,1,4,0,nan,nan,nan,nan,nan,nan,0.0,0.0,0.0,0.0,0.0,0.0,nan,nan,nan,nan,nan,nan,nan,nan,nan,nan,nan,nan,nan,nan,nan,nan,nan,nan,nan
1,84,6,1,1,nan,nan,nan,0,1389.489985565422,1500.0108570363373,nan,nan,nan,5,2,4,7,3,8,nan,nan,nan,nan,nan,nan,0.0,0.0,0.0,0.0,0.0,0.0,nan,nan,nan,nan,nan,nan,nan,nan,nan,nan,nan,nan,nan,nan,nan,nan,nan,nan,nan
1,85,6,1,1,1.0,1.0,0.22742472239769995,0,1389.489985565422,1501.0359939753544,1501.263418697752,nan,nan,8,5,7,0,4,6,nan,nan,nan,nan,nan,nan,0.0,0.0,0.0,0.0,0.0,0.0,nan,nan,nan,nan,nan,nan,nan,nan,nan,nan,nan,nan,nan,nan,nan,nan,nan,nan,nan
1,86,6,1,1,1.0,1.0,0.2262723632156849,0,1389.489985565422,1502.0611235017423,1502.287395864958,nan,nan,7,8,3,2,1,0,nan,nan,nan,nan,nan,nan,0.0,0.0,0.0,0.0,0.0,0.0,nan,nan,nan,nan,nan,nan,nan,nan,nan,nan,nan,nan,nan,nan,nan,nan,nan,nan,nan
1,87,6,1,1,1.0,1.0,0.04942086967639625,1,1389.489985565422,1503.0779336334672,1503.1273545031436,1504.9031422454864,1511.370639416622,1,3,7,5,2,8,1.0,1.0,1.0,1.0,1.0,1.0,0.0,0.0,0.0,0.0,0.0,0.0,0.0,5.0,4.0,3.0,6.0,2.0,1.0,8.0,7.0,4.0,7.0,8.0,0.0,5.589290016330779,5.198521376820281,4.68583787092939,6.437056871363893,3.5339747809339315,2.7662914704997092
1,88,6,1,1,1.0,1.0,0.3552727273199707,0,1389.489985565422,1512.5958592046518,1512.9511319319718,nan,nan,7,2,6,0,8,4,nan,nan,nan,nan,nan,nan,0.0,0.0,0.0,0.0,0.0,0.0,nan,nan,nan,nan,nan,nan,nan,nan,nan,nan,nan,nan,nan,nan,nan,nan,nan,nan,nan
1,89,6,1,1,1.0,1.0,0.1940550582949072,0,1389.489985565422,1513.6210426141042,1513.8150976723991,nan,nan,4,3,2,5,0,6,nan,nan,nan,nan,nan,nan,0.0,0.0,0.0,0.0,0.0,0.0,nan,nan,nan,nan,nan,nan,nan,nan,nan,nan,nan,nan,nan,nan,nan,nan,nan,nan,nan
1,90,6,1,1,nan,nan,nan,0,1389.489985565422,1514.646061523119,nan,nan,nan,0,7,6,3,2,5,nan,nan,nan,nan,nan,nan,0.0,0.0,0.0,0.0,0.0,0.0,nan,nan,nan,nan,nan,nan,nan,nan,nan,nan,nan,nan,nan,nan,nan,nan,nan,nan,nan
1,91,6,1,1,1.0,1.0,0.5441564244683832,0,1389.489985565422,1515.6629084323067,1516.207064856775,nan,nan,6,0,2,7,5,3,nan,nan,nan,nan,nan,nan,0.0,0.0,0.0,0.0,0.0,0.0,nan,nan,nan,nan,nan,nan,nan,nan,nan,nan,nan,nan,nan,nan,nan,nan,nan,nan,nan
1,92,6,1,1,nan,nan,nan,0,1389.489985565422,1516.6880314014852,nan,nan,nan,8,3,6,0,2,7,nan,nan,nan,nan,nan,nan,0.0,0.0,0.0,0.0,0.0,0.0,nan,nan,nan,nan,nan,nan,nan,nan,nan,nan,nan,nan,nan,nan,nan,nan,nan,nan,nan
1,93,6,1,1,nan,nan,nan,0,1389.489985565422,1517.7048321252223,nan,nan,nan,3,4,0,2,1,8,nan,nan,nan,nan,nan,nan,0.0,0.0,0.0,0.0,0.0,0.0,nan,nan,nan,nan,nan,nan,nan,nan,nan,nan,nan,nan,nan,nan,nan,nan,nan,nan,nan
1,94,6,0,0,1.0,0.0,0.6610726974904537,0,1389.489985565422,1518.7299211679492,1519.3909938654397,nan,nan,6,3,8,1,7,0,nan,nan,nan,nan,nan,nan,0.0,0.0,0.0,0.0,0.0,0.0,nan,nan,nan,nan,nan,nan,nan,nan,nan,nan,nan,nan,nan,nan,nan,nan,nan,nan,nan
1,95,6,1,1,nan,nan,nan,0,1389.489985565422,1519.7467541075312,nan,nan,nan,2,0,1,5,6,4,nan,nan,nan,nan,nan,nan,0.0,0.0,0.0,0.0,0.0,0.0,nan,nan,nan,nan,nan,nan,nan,nan,nan,nan,nan,nan,nan,nan,nan,nan,nan,nan,nan
1,96,6,1,1,nan,nan,nan,0,1389.489985565422,1520.771889905911,nan,nan,nan,1,2,8,3,4,5,nan,nan,nan,nan,nan,nan,0.0,0.0,0.0,0.0,0.0,0.0,nan,nan,nan,nan,nan,nan,nan,nan,nan,nan,nan,nan,nan,nan,nan,nan,nan,nan,nan
1,97,6,1,1,1.0,1.0,0.009952425956726074,1,1389.489985565422,1521.7970259895083,1521.806978415465,1523.6222488565836,1531.6649522876833,8,3,0,4,6,7,1.0,1.0,1.0,1.0,1.0,1.0,0.0,0.0,0.0,1.0,0.0,0.0,1.0,4.0,3.0,2.0,1.0,6.0,5.0,3.0,5.0,4.0,4.0,7.0,3.0,7.125734871253371,6.559598094085231,6.045531586045399,5.654441072838381,8.013700016541407,7.63000632612966
1,98,6,1,1,nan,nan,nan,0,1389.489985565422,1532.898463530466,nan,nan,nan,7,4,6,0,2,1,nan,nan,nan,nan,nan,nan,0.0,0.0,0.0,0.0,0.0,0.0,nan,nan,nan,nan,nan,nan,nan,nan,nan,nan,nan,nan,nan,nan,nan,nan,nan,nan,nan
1,99,6,1,1,nan,nan,nan,0,1389.489985565422,1533.9152522801887,nan,nan,nan,5,0,8,4,1,6,nan,nan,nan,nan,nan,nan,0.0,0.0,0.0,0.0,0.0,0.0,nan,nan,nan,nan,nan,nan,nan,nan,nan,nan,nan,nan,nan,nan,nan,nan,nan,nan,nan
1,100,6,1,1,nan,nan,nan,0,1389.489985565422,1534.9320504381321,nan,nan,nan,3,8,1,5,0,4,nan,nan,nan,nan,nan,nan,0.0,0.0,0.0,0.0,0.0,0.0,nan,nan,nan,nan,nan,nan,nan,nan,nan,nan,nan,nan,nan,nan,nan,nan,nan,nan,nan
1,101,6,1,1,nan,nan,nan,0,1389.489985565422,1535.9488799565006,nan,nan,nan,6,1,3,4,8,5,nan,nan,nan,nan,nan,nan,0.0,0.0,0.0,0.0,0.0,0.0,nan,nan,nan,nan,nan,nan,nan,nan,nan,nan,nan,nan,nan,nan,nan,nan,nan,nan,nan
1,102,6,1,1,nan,nan,nan,0,1389.489985565422,1536.9656669956166,nan,nan,nan,4,8,6,2,1,0,nan,nan,nan,nan,nan,nan,0.0,0.0,0.0,0.0,0.0,0.0,nan,nan,nan,nan,nan,nan,nan,nan,nan,nan,nan,nan,nan,nan,nan,nan,nan,nan,nan
1,103,6,1,1,nan,nan,nan,0,1389.489985565422,1537.9824625875335,nan,nan,nan,5,2,7,6,0,8,nan,nan,nan,nan,nan,nan,0.0,0.0,0.0,0.0,0.0,0.0,nan,nan,nan,nan,nan,nan,nan,nan,nan,nan,nan,nan,nan,nan,nan,nan,nan,nan,nan
1,104,6,1,1,nan,nan,nan,0,1389.489985565422,1539.0075869821012,nan,nan,nan,2,8,6,3,7,0,nan,nan,nan,nan,nan,nan,0.0,0.0,0.0,0.0,0.0,0.0,nan,nan,nan,nan,nan,nan,nan,nan,nan,nan,nan,nan,nan,nan,nan,nan,nan,nan,nan
1,105,6,1,1,nan,nan,nan,0,1389.489985565422,1540.0244073774666,nan,nan,nan,0,7,8,4,3,5,nan,nan,nan,nan,nan,nan,0.0,0.0,0.0,0.0,0.0,0.0,nan,nan,nan,nan,nan,nan,nan,nan,nan,nan,nan,nan,nan,nan,nan,nan,nan,nan,nan
1,106,6,1,1,nan,nan,nan,0,1389.489985565422,1541.0412135180086,nan,nan,nan,3,1,5,6,8,0,nan,nan,nan,nan,nan,nan,0.0,0.0,0.0,0.0,0.0,0.0,nan,nan,nan,nan,nan,nan,nan,nan,nan,nan,nan,nan,nan,nan,nan,nan,nan,nan,nan
1,107,6,1,1,nan,nan,nan,0,1389.489985565422,1542.0663299299777,nan,nan,nan,6,5,1,3,2,4,nan,nan,nan,nan,nan,nan,0.0,0.0,0.0,0.0,0.0,0.0,nan,nan,nan,nan,nan,nan,nan,nan,nan,nan,nan,nan,nan,nan,nan,nan,nan,nan,nan
1,108,6,1,1,nan,nan,nan,0,1389.489985565422,1543.0831460487098,nan,nan,nan,5,4,0,1,7,6,nan,nan,nan,nan,nan,nan,0.0,0.0,0.0,0.0,0.0,0.0,nan,nan,nan,nan,nan,nan,nan,nan,nan,nan,nan,nan,nan,nan,nan,nan,nan,nan,nan
1,109,6,1,1,nan,nan,nan,0,1389.489985565422,1544.0999450618401,nan,nan,nan,7,3,1,6,0,2,nan,nan,nan,nan,nan,nan,0.0,0.0,0.0,0.0,0.0,0.0,nan,nan,nan,nan,nan,nan,nan,nan,nan,nan,nan,nan,nan,nan,nan,nan,nan,nan,nan
1,110,6,1,1,nan,nan,nan,0,1389.489985565422,1545.125054631615,nan,nan,nan,6,5,2,1,4,8,nan,nan,nan,nan,nan,nan,0.0,0.0,0.0,0.0,0.0,0.0,nan,nan,nan,nan,nan,nan,nan,nan,nan,nan,nan,nan,nan,nan,nan,nan,nan,nan,nan
1,111,6,1,1,nan,nan,nan,0,1389.489985565422,1546.1418696099427,nan,nan,nan,2,0,5,7,3,4,nan,nan,nan,nan,nan,nan,0.0,0.0,0.0,0.0,0.0,0.0,nan,nan,nan,nan,nan,nan,nan,nan,nan,nan,nan,nan,nan,nan,nan,nan,nan,nan,nan
1,112,6,1,1,nan,nan,nan,0,1389.489985565422,1547.1586689082906,nan,nan,nan,3,4,6,2,0,1,nan,nan,nan,nan,nan,nan,0.0,0.0,0.0,0.0,0.0,0.0,nan,nan,nan,nan,nan,nan,nan,nan,nan,nan,nan,nan,nan,nan,nan,nan,nan,nan,nan
1,113,6,1,1,nan,nan,nan,0,1389.489985565422,1548.1754670660011,nan,nan,nan,2,8,3,5,7,4,nan,nan,nan,nan,nan,nan,0.0,0.0,0.0,0.0,0.0,0.0,nan,nan,nan,nan,nan,nan,nan,nan,nan,nan,nan,nan,nan,nan,nan,nan,nan,nan,nan
1,114,6,1,1,1.0,1.0,0.7900280163157731,1,1389.489985565422,1549.1922689301427,1549.9822969464585,1551.0174764017574,1556.309828095371,3,6,7,4,2,0,1.0,1.0,1.0,1.0,1.0,1.0,0.0,0.0,0.0,0.0,0.0,0.0,0.0,6.0,5.0,4.0,3.0,2.0,1.0,6.0,5.0,1.0,1.0,4.0,2.0,5.265881644561887,4.9387533366680145,4.458368958439678,3.9719413944985718,3.467836150666699,2.97181139071472
1,115,6,1,1,nan,nan,nan,0,1389.489985565422,1557.5433458955958,nan,nan,nan,5,0,6,2,7,8,nan,nan,nan,nan,nan,nan,0.0,0.0,0.0,0.0,0.0,0.0,nan,nan,nan,nan,nan,nan,nan,nan,nan,nan,nan,nan,nan,nan,nan,nan,nan,nan,nan
1,116,6,1,1,nan,nan,nan,0,1389.489985565422,1558.5601500403136,nan,nan,nan,8,4,5,6,1,7,nan,nan,nan,nan,nan,nan,0.0,0.0,0.0,0.0,0.0,0.0,nan,nan,nan,nan,nan,nan,nan,nan,nan,nan,nan,nan,nan,nan,nan,nan,nan,nan,nan
1,117,6,1,1,nan,nan,nan,0,1389.489985565422,1559.5769479130395,nan,nan,nan,6,2,4,8,0,5,nan,nan,nan,nan,nan,nan,0.0,0.0,0.0,0.0,0.0,0.0,nan,nan,nan,nan,nan,nan,nan,nan,nan,nan,nan,nan,nan,nan,nan,nan,nan,nan,nan
1,118,6,1,1,nan,nan,nan,0,1389.489985565422,1560.5937894056551,nan,nan,nan,0,7,5,2,4,1,nan,nan,nan,nan,nan,nan,0.0,0.0,0.0,0.0,0.0,0.0,nan,nan,nan,nan,nan,nan,nan,nan,nan,nan,nan,nan,nan,nan,nan,nan,nan,nan,nan
1,119,6,1,1,nan,nan,nan,0,1389.489985565422,1561.6105550625362,nan,nan,nan,1,6,2,4,0,5,nan,nan,nan,nan,nan,nan,0.0,0.0,0.0,0.0,0.0,0.0,nan,nan,nan,nan,nan,nan,nan,nan,nan,nan,nan,nan,nan,nan,nan,nan,nan,nan,nan
1,120,6,0,0,nan,nan,nan,0,1389.489985565422,1562.6356569344644,nan,nan,nan,4,3,8,7,2,1,nan,nan,nan,nan,nan,nan,0.0,0.0,0.0,0.0,0.0,0.0,nan,nan,nan,nan,nan,nan,nan,nan,nan,nan,nan,nan,nan,nan,nan,nan,nan,nan,nan
1,121,6,1,1,nan,nan,nan,0,1389.489985565422,1563.6608155407012,nan,nan,nan,3,1,5,2,0,7,nan,nan,nan,nan,nan,nan,0.0,0.0,0.0,0.0,0.0,0.0,nan,nan,nan,nan,nan,nan,nan,nan,nan,nan,nan,nan,nan,nan,nan,nan,nan,nan,nan
1,122,6,1,1,nan,nan,nan,0,1389.489985565422,1564.6775985884015,nan,nan,nan,0,3,6,7,2,4,nan,nan,nan,nan,nan,nan,0.0,0.0,0.0,0.0,0.0,0.0,nan,nan,nan,nan,nan,nan,nan,nan,nan,nan,nan,nan,nan,nan,nan,nan,nan,nan,nan
1,123,6,1,1,nan,nan,nan,0,1389.489985565422,1565.70279026567,nan,nan,nan,6,1,0,3,5,8,nan,nan,nan,nan,nan,nan,0.0,0.0,0.0,0.0,0.0,0.0,nan,nan,nan,nan,nan,nan,nan,nan,nan,nan,nan,nan,nan,nan,nan,nan,nan,nan,nan
1,124,6,1,1,nan,nan,nan,0,1389.489985565422,1566.719533114927,nan,nan,nan,0,5,2,1,6,4,nan,nan,nan,nan,nan,nan,0.0,0.0,0.0,0.0,0.0,0.0,nan,nan,nan,nan,nan,nan,nan,nan,nan,nan,nan,nan,nan,nan,nan,nan,nan,nan,nan
1,125,6,1,1,nan,nan,nan,0,1389.489985565422,1567.7446874445304,nan,nan,nan,4,3,5,8,1,7,nan,nan,nan,nan,nan,nan,0.0,0.0,0.0,0.0,0.0,0.0,nan,nan,nan,nan,nan,nan,nan,nan,nan,nan,nan,nan,nan,nan,nan,nan,nan,nan,nan
1,126,6,1,1,nan,nan,nan,0,1389.489985565422,1568.7948107915,nan,nan,nan,1,2,6,3,7,4,nan,nan,nan,nan,nan,nan,0.0,0.0,0.0,0.0,0.0,0.0,nan,nan,nan,nan,nan,nan,nan,nan,nan,nan,nan,nan,nan,nan,nan,nan,nan,nan,nan
1,127,6,1,1,nan,nan,nan,0,1389.489985565422,1569.819948585704,nan,nan,nan,5,0,2,1,3,7,nan,nan,nan,nan,nan,nan,0.0,0.0,0.0,0.0,0.0,0.0,nan,nan,nan,nan,nan,nan,nan,nan,nan,nan,nan,nan,nan,nan,nan,nan,nan,nan,nan
1,128,6,1,1,nan,nan,nan,0,1389.489985565422,1570.8368009116966,nan,nan,nan,6,7,0,5,1,8,nan,nan,nan,nan,nan,nan,0.0,0.0,0.0,0.0,0.0,0.0,nan,nan,nan,nan,nan,nan,nan,nan,nan,nan,nan,nan,nan,nan,nan,nan,nan,nan,nan
1,129,6,1,1,nan,nan,nan,0,1389.489985565422,1571.8535332123283,nan,nan,nan,0,6,7,8,3,2,nan,nan,nan,nan,nan,nan,0.0,0.0,0.0,0.0,0.0,0.0,nan,nan,nan,nan,nan,nan,nan,nan,nan,nan,nan,nan,nan,nan,nan,nan,nan,nan,nan
1,130,6,1,1,nan,nan,nan,0,1389.489985565422,1572.8703362168744,nan,nan,nan,1,4,6,2,8,0,nan,nan,nan,nan,nan,nan,0.0,0.0,0.0,0.0,0.0,0.0,nan,nan,nan,nan,nan,nan,nan,nan,nan,nan,nan,nan,nan,nan,nan,nan,nan,nan,nan
1,131,6,1,1,nan,nan,nan,0,1389.489985565422,1573.8871506252326,nan,nan,nan,8,0,3,7,4,2,nan,nan,nan,nan,nan,nan,0.0,0.0,0.0,0.0,0.0,0.0,nan,nan,nan,nan,nan,nan,nan,nan,nan,nan,nan,nan,nan,nan,nan,nan,nan,nan,nan
1,132,6,1,1,nan,nan,nan,0,1389.489985565422,1574.903945076745,nan,nan,nan,7,5,2,4,3,1,nan,nan,nan,nan,nan,nan,0.0,0.0,0.0,0.0,0.0,0.0,nan,nan,nan,nan,nan,nan,nan,nan,nan,nan,nan,nan,nan,nan,nan,nan,nan,nan,nan
1,133,6,1,1,nan,nan,nan,0,1389.489985565422,1575.9207483662758,nan,nan,nan,8,0,4,3,6,5,nan,nan,nan,nan,nan,nan,0.0,0.0,0.0,0.0,0.0,0.0,nan,nan,nan,nan,nan,nan,nan,nan,nan,nan,nan,nan,nan,nan,nan,nan,nan,nan,nan
1,134,6,1,1,nan,nan,nan,0,1389.489985565422,1576.9375356903765,nan,nan,nan,0,4,5,1,3,8,nan,nan,nan,nan,nan,nan,0.0,0.0,0.0,0.0,0.0,0.0,nan,nan,nan,nan,nan,nan,nan,nan,nan,nan,nan,nan,nan,nan,nan,nan,nan,nan,nan
1,135,6,1,1,nan,nan,nan,0,1389.489985565422,1577.9543455371168,nan,nan,nan,4,2,1,5,8,7,nan,nan,nan,nan,nan,nan,0.0,0.0,0.0,0.0,0.0,0.0,nan,nan,nan,nan,nan,nan,nan,nan,nan,nan,nan,nan,nan,nan,nan,nan,nan,nan,nan
1,136,6,1,1,nan,nan,nan,0,1389.489985565422,1578.9711379930377,nan,nan,nan,6,5,3,7,0,4,nan,nan,nan,nan,nan,nan,0.0,0.0,0.0,0.0,0.0,0.0,nan,nan,nan,nan,nan,nan,nan,nan,nan,nan,nan,nan,nan,nan,nan,nan,nan,nan,nan
1,137,6,0,0,nan,nan,nan,0,1389.489985565422,1579.9879116325174,nan,nan,nan,3,1,2,6,4,0,nan,nan,nan,nan,nan,nan,0.0,0.0,0.0,0.0,0.0,0.0,nan,nan,nan,nan,nan,nan,nan,nan,nan,nan,nan,nan,nan,nan,nan,nan,nan,nan,nan
1,138,6,1,1,nan,nan,nan,0,1389.489985565422,1581.0047388703097,nan,nan,nan,7,4,6,5,8,1,nan,nan,nan,nan,nan,nan,0.0,0.0,0.0,0.0,0.0,0.0,nan,nan,nan,nan,nan,nan,nan,nan,nan,nan,nan,nan,nan,nan,nan,nan,nan,nan,nan
1,139,6,1,1,nan,nan,nan,0,1389.489985565422,1582.0298564226832,nan,nan,nan,1,5,8,0,6,4,nan,nan,nan,nan,nan,nan,0.0,0.0,0.0,0.0,0.0,0.0,nan,nan,nan,nan,nan,nan,nan,nan,nan,nan,nan,nan,nan,nan,nan,nan,nan,nan,nan
1,140,6,0,0,nan,nan,nan,0,1389.489985565422,1583.0550079012755,nan,nan,nan,5,0,7,1,2,3,nan,nan,nan,nan,nan,nan,0.0,0.0,0.0,0.0,0.0,0.0,nan,nan,nan,nan,nan,nan,nan,nan,nan,nan,nan,nan,nan,nan,nan,nan,nan,nan,nan
1,141,6,1,1,nan,nan,nan,0,1389.489985565422,1584.0801419892814,nan,nan,nan,4,2,1,7,3,8,nan,nan,nan,nan,nan,nan,0.0,0.0,0.0,0.0,0.0,0.0,nan,nan,nan,nan,nan,nan,nan,nan,nan,nan,nan,nan,nan,nan,nan,nan,nan,nan,nan
1,142,6,1,1,nan,nan,nan,0,1389.489985565422,1585.096942427801,nan,nan,nan,2,5,8,3,1,0,nan,nan,nan,nan,nan,nan,0.0,0.0,0.0,0.0,0.0,0.0,nan,nan,nan,nan,nan,nan,nan,nan,nan,nan,nan,nan,nan,nan,nan,nan,nan,nan,nan
1,143,6,1,1,nan,nan,nan,0,1389.489985565422,1586.1221278330777,nan,nan,nan,4,0,7,1,2,6,nan,nan,nan,nan,nan,nan,0.0,0.0,0.0,0.0,0.0,0.0,nan,nan,nan,nan,nan,nan,nan,nan,nan,nan,nan,nan,nan,nan,nan,nan,nan,nan,nan
1,144,6,0,0,nan,nan,nan,0,1389.489985565422,1587.1471986295655,nan,nan,nan,8,1,4,6,3,2,nan,nan,nan,nan,nan,nan,0.0,0.0,0.0,0.0,0.0,0.0,nan,nan,nan,nan,nan,nan,nan,nan,nan,nan,nan,nan,nan,nan,nan,nan,nan,nan,nan
1,145,6,1,1,nan,nan,nan,0,1389.489985565422,1588.1640101869125,nan,nan,nan,5,6,0,7,8,1,nan,nan,nan,nan,nan,nan,0.0,0.0,0.0,0.0,0.0,0.0,nan,nan,nan,nan,nan,nan,nan,nan,nan,nan,nan,nan,nan,nan,nan,nan,nan,nan,nan
1,146,6,1,1,nan,nan,nan,0,1389.489985565422,1589.1808439819142,nan,nan,nan,0,7,6,2,5,3,nan,nan,nan,nan,nan,nan,0.0,0.0,0.0,0.0,0.0,0.0,nan,nan,nan,nan,nan,nan,nan,nan,nan,nan,nan,nan,nan,nan,nan,nan,nan,nan,nan
1,147,6,1,1,nan,nan,nan,0,1389.489985565422,1590.2059264674317,nan,nan,nan,1,5,4,3,0,8,nan,nan,nan,nan,nan,nan,0.0,0.0,0.0,0.0,0.0,0.0,nan,nan,nan,nan,nan,nan,nan,nan,nan,nan,nan,nan,nan,nan,nan,nan,nan,nan,nan
1,148,6,1,1,1.0,1.0,0.07059382973238826,1,1389.489985565422,1591.2227559858002,1591.2933498155326,1593.039609566331,1597.0401429813355,5,1,3,8,2,0,1.0,1.0,1.0,1.0,1.0,1.0,0.0,0.0,0.0,0.0,0.0,0.0,0.0,5.0,4.0,3.0,2.0,6.0,1.0,7.0,7.0,4.0,1.0,6.0,1.0,3.5790479322895408,3.242620639037341,2.6443726127035916,2.2917378812562674,3.9708135535474867,1.5226926659233868
1,149,6,1,1,nan,nan,nan,0,1389.489985565422,1598.2736431055237,nan,nan,nan,4,2,0,7,1,8,nan,nan,nan,nan,nan,nan,0.0,0.0,0.0,0.0,0.0,0.0,nan,nan,nan,nan,nan,nan,nan,nan,nan,nan,nan,nan,nan,nan,nan,nan,nan,nan,nan
1,150,6,1,1,nan,nan,nan,0,1389.489985565422,1599.2987689257134,nan,nan,nan,3,7,8,6,4,2,nan,nan,nan,nan,nan,nan,0.0,0.0,0.0,0.0,0.0,0.0,nan,nan,nan,nan,nan,nan,nan,nan,nan,nan,nan,nan,nan,nan,nan,nan,nan,nan,nan
1,151,6,0,0,1.0,0.0,0.07308129500597715,0,1389.489985565422,1600.3240142010618,1600.3970954960678,nan,nan,2,1,3,7,6,5,nan,nan,nan,nan,nan,nan,0.0,0.0,0.0,0.0,0.0,0.0,nan,nan,nan,nan,nan,nan,nan,nan,nan,nan,nan,nan,nan,nan,nan,nan,nan,nan,nan
1,152,6,1,1,1.0,1.0,0.07208716426976025,1,1389.489985565422,1601.3490519265179,1601.4211390907876,1603.1826024556067,1606.5913734997157,8,7,5,2,0,1,1.0,1.0,1.0,1.0,1.0,1.0,0.0,0.0,0.0,0.0,0.0,0.0,0.0,5.0,4.0,3.0,2.0,1.0,6.0,3.0,5.0,4.0,0.0,8.0,7.0,3.100027169799432,2.3890660447068512,1.901290830457583,1.3822069133166224,0.8783095045946538,3.379387596156448
1,153,6,1,1,1.0,1.0,0.3243460531812161,0,1389.489985565422,1607.8165633524768,1608.140909405658,nan,nan,1,0,4,6,2,7,nan,nan,nan,nan,nan,nan,0.0,0.0,0.0,0.0,0.0,0.0,nan,nan,nan,nan,nan,nan,nan,nan,nan,nan,nan,nan,nan,nan,nan,nan,nan,nan,nan
1,154,6,1,1,1.0,1.0,0.01916759298183024,0,1389.489985565422,1608.8417732759845,1608.8609408689663,nan,nan,2,7,6,4,5,0,nan,nan,nan,nan,nan,nan,0.0,0.0,0.0,0.0,0.0,0.0,nan,nan,nan,nan,nan,nan,nan,nan,nan,nan,nan,nan,nan,nan,nan,nan,nan,nan,nan
1,155,6,1,1,1.0,1.0,0.7060212618671358,0,1389.489985565422,1609.8668172734324,1610.5728385352995,nan,nan,6,5,3,1,8,2,nan,nan,nan,nan,nan,nan,0.0,0.0,0.0,0.0,0.0,0.0,nan,nan,nan,nan,nan,nan,nan,nan,nan,nan,nan,nan,nan,nan,nan,nan,nan,nan,nan
1,156,6,0,0,1.0,0.0,0.3688544291071594,0,1389.489985565422,1610.8919915598817,1611.2608459889889,nan,nan,3,7,1,0,2,5,nan,nan,nan,nan,nan,nan,0.0,0.0,0.0,0.0,0.0,0.0,nan,nan,nan,nan,nan,nan,nan,nan,nan,nan,nan,nan,nan,nan,nan,nan,nan,nan,nan
1,157,6,1,1,1.0,1.0,0.14381083054468036,0,1389.489985565422,1611.9170495271683,1612.060860357713,nan,nan,8,6,5,3,7,0,nan,nan,nan,nan,nan,nan,0.0,0.0,0.0,0.0,0.0,0.0,nan,nan,nan,nan,nan,nan,nan,nan,nan,nan,nan,nan,nan,nan,nan,nan,nan,nan,nan
1,158,6,1,1,1.0,1.0,0.7505732574500144,0,1389.489985565422,1612.9422126947902,1613.6927859522402,nan,nan,6,4,7,2,8,1,nan,nan,nan,nan,nan,nan,0.0,0.0,0.0,0.0,0.0,0.0,nan,nan,nan,nan,nan,nan,nan,nan,nan,nan,nan,nan,nan,nan,nan,nan,nan,nan,nan
1,159,6,1,1,1.0,1.0,0.5977311467286199,0,1389.489985565422,1613.9590422133915,1614.5567733601201,nan,nan,2,5,4,3,6,7,nan,nan,nan,nan,nan,nan,0.0,0.0,0.0,0.0,0.0,0.0,nan,nan,nan,nan,nan,nan,nan,nan,nan,nan,nan,nan,nan,nan,nan,nan,nan,nan,nan
1,160,6,1,1,1.0,1.0,0.2526169701013714,0,1389.489985565422,1614.9841526381206,1615.236769608222,nan,nan,1,8,0,4,3,6,nan,nan,nan,nan,nan,nan,0.0,0.0,0.0,0.0,0.0,0.0,nan,nan,nan,nan,nan,nan,nan,nan,nan,nan,nan,nan,nan,nan,nan,nan,nan,nan,nan
1,161,6,1,1,nan,nan,nan,0,1389.489985565422,1616.0009616296738,nan,nan,nan,3,2,4,1,6,8,nan,nan,nan,nan,nan,nan,0.0,0.0,0.0,0.0,0.0,0.0,nan,nan,nan,nan,nan,nan,nan,nan,nan,nan,nan,nan,nan,nan,nan,nan,nan,nan,nan
1,162,6,1,1,1.0,1.0,0.45892518130131066,0,1389.489985565422,1617.0177649192046,1617.476690100506,nan,nan,0,3,7,4,2,6,nan,nan,nan,nan,nan,nan,0.0,0.0,0.0,0.0,0.0,0.0,nan,nan,nan,nan,nan,nan,nan,nan,nan,nan,nan,nan,nan,nan,nan,nan,nan,nan,nan
1,163,6,1,1,1.0,1.0,0.29015816282480955,0,1389.489985565422,1618.0345399843063,1618.3246981471311,nan,nan,1,8,3,5,6,7,nan,nan,nan,nan,nan,nan,0.0,0.0,0.0,0.0,0.0,0.0,nan,nan,nan,nan,nan,nan,nan,nan,nan,nan,nan,nan,nan,nan,nan,nan,nan,nan,nan
1,164,6,0,0,1.0,0.0,0.18497046548873186,0,1389.489985565422,1619.0596883269027,1619.2446587923914,nan,nan,2,1,4,6,0,3,nan,nan,nan,nan,nan,nan,0.0,0.0,0.0,0.0,0.0,0.0,nan,nan,nan,nan,nan,nan,nan,nan,nan,nan,nan,nan,nan,nan,nan,nan,nan,nan,nan
1,165,6,1,1,1.0,1.0,0.07176643097773194,0,1389.489985565422,1620.0849102244247,1620.1566766554024,nan,nan,3,2,6,0,4,1,nan,nan,nan,nan,nan,nan,0.0,0.0,0.0,0.0,0.0,0.0,nan,nan,nan,nan,nan,nan,nan,nan,nan,nan,nan,nan,nan,nan,nan,nan,nan,nan,nan
1,166,6,1,1,1.0,1.0,0.5746471860911697,0,1389.489985565422,1621.1099525114987,1621.6845996975899,nan,nan,6,4,8,3,7,5,nan,nan,nan,nan,nan,nan,0.0,0.0,0.0,0.0,0.0,0.0,nan,nan,nan,nan,nan,nan,nan,nan,nan,nan,nan,nan,nan,nan,nan,nan,nan,nan,nan
1,167,6,1,1,1.0,1.0,0.3094848394393921,0,1389.489985565422,1622.135088595096,1622.4445734345354,nan,nan,3,1,7,4,5,0,nan,nan,nan,nan,nan,nan,0.0,0.0,0.0,0.0,0.0,0.0,nan,nan,nan,nan,nan,nan,nan,nan,nan,nan,nan,nan,nan,nan,nan,nan,nan,nan,nan
1,168,6,1,1,1.0,1.0,0.2203637429047376,0,1389.489985565422,1623.1602215424646,1623.3805852853693,nan,nan,7,8,4,0,6,3,nan,nan,nan,nan,nan,nan,0.0,0.0,0.0,0.0,0.0,0.0,nan,nan,nan,nan,nan,nan,nan,nan,nan,nan,nan,nan,nan,nan,nan,nan,nan,nan,nan
1,169,6,0,0,0.0,1.0,0.6275237079244107,0,1389.489985565422,1624.1770268278196,1624.804550535744,nan,nan,8,6,3,4,1,7,nan,nan,nan,nan,nan,nan,0.0,0.0,0.0,0.0,0.0,0.0,nan,nan,nan,nan,nan,nan,nan,nan,nan,nan,nan,nan,nan,nan,nan,nan,nan,nan,nan
1,170,6,1,1,1.0,1.0,0.2503863766323775,0,1389.489985565422,1625.2021480863914,1625.4525344630238,nan,nan,6,7,0,2,5,4,nan,nan,nan,nan,nan,nan,0.0,0.0,0.0,0.0,0.0,0.0,nan,nan,nan,nan,nan,nan,nan,nan,nan,nan,nan,nan,nan,nan,nan,nan,nan,nan,nan
1,171,6,1,1,1.0,1.0,0.6491730639245361,0,1389.489985565422,1626.227287021,1626.8764600849245,nan,nan,7,1,4,8,6,5,nan,nan,nan,nan,nan,nan,0.0,0.0,0.0,0.0,0.0,0.0,nan,nan,nan,nan,nan,nan,nan,nan,nan,nan,nan,nan,nan,nan,nan,nan,nan,nan,nan
1,172,6,0,0,1.0,0.0,0.34440257656387985,0,1389.489985565422,1627.2440943017136,1627.5884968782775,nan,nan,1,8,2,3,4,7,nan,nan,nan,nan,nan,nan,0.0,0.0,0.0,0.0,0.0,0.0,nan,nan,nan,nan,nan,nan,nan,nan,nan,nan,nan,nan,nan,nan,nan,nan,nan,nan,nan
1,173,6,1,1,1.0,1.0,0.11159010464325547,0,1389.489985565422,1628.260890178848,1628.3724802834913,nan,nan,5,2,7,6,0,1,nan,nan,nan,nan,nan,nan,0.0,0.0,0.0,0.0,0.0,0.0,nan,nan,nan,nan,nan,nan,nan,nan,nan,nan,nan,nan,nan,nan,nan,nan,nan,nan,nan
1,174,6,1,1,1.0,1.0,0.6144657281693071,0,1389.489985565422,1629.2860122926068,1629.900478020776,nan,nan,4,8,1,2,6,7,nan,nan,nan,nan,nan,nan,0.0,0.0,0.0,0.0,0.0,0.0,nan,nan,nan,nan,nan,nan,nan,nan,nan,nan,nan,nan,nan,nan,nan,nan,nan,nan,nan
1,175,6,1,1,1.0,1.0,0.3813253955449909,0,1389.489985565422,1630.31111473497,1630.692440130515,nan,nan,8,5,3,0,2,4,nan,nan,nan,nan,nan,nan,0.0,0.0,0.0,0.0,0.0,0.0,nan,nan,nan,nan,nan,nan,nan,nan,nan,nan,nan,nan,nan,nan,nan,nan,nan,nan,nan
1,176,6,1,1,1.0,1.0,0.17477200133726,0,1389.489985565422,1631.3576139379293,1631.5323859392665,nan,nan,5,7,2,4,0,6,nan,nan,nan,nan,nan,nan,0.0,0.0,0.0,0.0,0.0,0.0,nan,nan,nan,nan,nan,nan,nan,nan,nan,nan,nan,nan,nan,nan,nan,nan,nan,nan,nan
1,177,6,1,1,nan,nan,nan,0,1389.489985565422,1632.378088982543,nan,nan,nan,1,6,0,8,7,2,nan,nan,nan,nan,nan,nan,0.0,0.0,0.0,0.0,0.0,0.0,nan,nan,nan,nan,nan,nan,nan,nan,nan,nan,nan,nan,nan,nan,nan,nan,nan,nan,nan
1,178,6,1,1,1.0,1.0,0.7805710877291858,0,1389.489985565422,1633.4317192987073,1634.2122903864365,nan,nan,7,2,8,6,1,3,nan,nan,nan,nan,nan,nan,0.0,0.0,0.0,0.0,0.0,0.0,nan,nan,nan,nan,nan,nan,nan,nan,nan,nan,nan,nan,nan,nan,nan,nan,nan,nan,nan
1,179,6,1,1,1.0,1.0,0.3829587120562792,0,1389.489985565422,1634.453364378307,1634.8363230903633,nan,nan,6,8,0,4,7,5,nan,nan,nan,nan,nan,nan,0.0,0.0,0.0,0.0,0.0,0.0,nan,nan,nan,nan,nan,nan,nan,nan,nan,nan,nan,nan,nan,nan,nan,nan,nan,nan,nan
1,180,6,0,0,1.0,0.0,0.28609924716874957,0,1389.489985565422,1635.47019503708,1635.7562942842487,nan,nan,4,5,2,8,3,0,nan,nan,nan,nan,nan,nan,0.0,0.0,0.0,0.0,0.0,0.0,nan,nan,nan,nan,nan,nan,nan,nan,nan,nan,nan,nan,nan,nan,nan,nan,nan,nan,nan
1,181,6,1,1,1.0,1.0,0.1969935456290841,0,1389.489985565422,1636.4952875010204,1636.6922810466494,nan,nan,2,8,3,1,5,4,nan,nan,nan,nan,nan,nan,0.0,0.0,0.0,0.0,0.0,0.0,nan,nan,nan,nan,nan,nan,nan,nan,nan,nan,nan,nan,nan,nan,nan,nan,nan,nan,nan
1,182,6,1,1,1.0,1.0,0.05222222558222711,0,1389.489985565422,1637.5121019093785,1637.5643241349608,nan,nan,6,4,0,8,1,5,nan,nan,nan,nan,nan,nan,0.0,0.0,0.0,0.0,0.0,0.0,nan,nan,nan,nan,nan,nan,nan,nan,nan,nan,nan,nan,nan,nan,nan,nan,nan,nan,nan
1,183,6,1,1,1.0,1.0,0.5153209313284606,0,1389.489985565422,1638.5288937950972,1639.0442147264257,nan,nan,4,7,1,5,3,6,nan,nan,nan,nan,nan,nan,0.0,0.0,0.0,0.0,0.0,0.0,nan,nan,nan,nan,nan,nan,nan,nan,nan,nan,nan,nan,nan,nan,nan,nan,nan,nan,nan
1,184,6,1,1,1.0,1.0,0.2745066622737795,0,1389.489985565422,1639.5457013610285,1639.8202080233023,nan,nan,6,3,8,0,1,7,nan,nan,nan,nan,nan,nan,0.0,0.0,0.0,0.0,0.0,0.0,nan,nan,nan,nan,nan,nan,nan,nan,nan,nan,nan,nan,nan,nan,nan,nan,nan,nan,nan
1,185,6,1,1,1.0,1.0,0.0173449725843966,0,1389.489985565422,1640.5708154921886,1640.588160464773,nan,nan,3,1,5,7,8,4,nan,nan,nan,nan,nan,nan,0.0,0.0,0.0,0.0,0.0,0.0,nan,nan,nan,nan,nan,nan,nan,nan,nan,nan,nan,nan,nan,nan,nan,nan,nan,nan,nan
1,186,6,1,1,nan,nan,nan,0,1389.489985565422,1641.5876199221238,nan,nan,nan,2,8,0,1,6,5,nan,nan,nan,nan,nan,nan,0.0,0.0,0.0,0.0,0.0,0.0,nan,nan,nan,nan,nan,nan,nan,nan,nan,nan,nan,nan,nan,nan,nan,nan,nan,nan,nan
1,187,6,1,1,nan,nan,nan,0,1389.489985565422,1642.6127089648508,nan,nan,nan,3,2,4,5,1,0,nan,nan,nan,nan,nan,nan,0.0,0.0,0.0,0.0,0.0,0.0,nan,nan,nan,nan,nan,nan,nan,nan,nan,nan,nan,nan,nan,nan,nan,nan,nan,nan,nan
1,188,6,1,1,nan,nan,nan,0,1389.489985565422,1643.6379052037373,nan,nan,nan,0,6,8,1,4,2,nan,nan,nan,nan,nan,nan,0.0,0.0,0.0,0.0,0.0,0.0,nan,nan,nan,nan,nan,nan,nan,nan,nan,nan,nan,nan,nan,nan,nan,nan,nan,nan,nan
1,189,6,1,1,1.0,1.0,0.05206770356744528,1,1389.489985565422,1644.688024559291,1644.7400922628585,1646.513239443535,1651.1888472046703,2,3,6,0,7,1,1.0,1.0,1.0,1.0,1.0,1.0,0.0,0.0,0.0,0.0,0.0,1.0,1.0,5.0,6.0,1.0,2.0,3.0,4.0,5.0,1.0,5.0,7.0,5.0,1.0,4.336418455000967,4.647812869632617,2.202607661485672,3.064777865773067,3.5536789251491427,4.0164101417176425
1,190,6,1,1,1.0,1.0,0.6455423629377037,0,1389.489985565422,1652.422361583449,1653.0679039463867,nan,nan,4,6,5,7,2,3,nan,nan,nan,nan,nan,nan,0.0,0.0,0.0,0.0,0.0,0.0,nan,nan,nan,nan,nan,nan,nan,nan,nan,nan,nan,nan,nan,nan,nan,nan,nan,nan,nan
1,191,6,1,1,1.0,1.0,0.25243108719587326,0,1389.489985565422,1653.4474654512014,1653.6998965383973,nan,nan,7,3,0,6,1,5,nan,nan,nan,nan,nan,nan,0.0,0.0,0.0,0.0,0.0,0.0,nan,nan,nan,nan,nan,nan,nan,nan,nan,nan,nan,nan,nan,nan,nan,nan,nan,nan,nan
1,192,6,1,1,1.0,1.0,0.38723743706941605,0,1389.489985565422,1654.4726251978427,1654.8598626349121,nan,nan,1,7,6,4,2,0,nan,nan,nan,nan,nan,nan,0.0,0.0,0.0,0.0,0.0,0.0,nan,nan,nan,nan,nan,nan,nan,nan,nan,nan,nan,nan,nan,nan,nan,nan,nan,nan,nan
1,193,6,1,1,1.0,1.0,0.5703507855068892,0,1389.489985565422,1655.4894424569793,1656.0597932424862,nan,nan,5,1,2,0,7,8,nan,nan,nan,nan,nan,nan,0.0,0.0,0.0,0.0,0.0,0.0,nan,nan,nan,nan,nan,nan,nan,nan,nan,nan,nan,nan,nan,nan,nan,nan,nan,nan,nan
1,194,6,1,1,1.0,1.0,0.273589507676661,0,1389.489985565422,1656.506234342698,1656.7798238503747,nan,nan,1,3,0,8,4,5,nan,nan,nan,nan,nan,nan,0.0,0.0,0.0,0.0,0.0,0.0,nan,nan,nan,nan,nan,nan,nan,nan,nan,nan,nan,nan,nan,nan,nan,nan,nan,nan,nan
1,195,6,1,1,1.0,1.0,0.5443765188101679,0,1389.489985565422,1657.5313632988837,1658.0757398176938,nan,nan,3,1,5,0,7,2,nan,nan,nan,nan,nan,nan,0.0,0.0,0.0,0.0,0.0,0.0,nan,nan,nan,nan,nan,nan,nan,nan,nan,nan,nan,nan,nan,nan,nan,nan,nan,nan,nan
1,196,6,1,1,1.0,1.0,0.15127493627369404,0,1389.489985565422,1658.5565053694881,1658.7077803057618,nan,nan,0,2,7,1,5,4,nan,nan,nan,nan,nan,nan,0.0,0.0,0.0,0.0,0.0,0.0,nan,nan,nan,nan,nan,nan,nan,nan,nan,nan,nan,nan,nan,nan,nan,nan,nan,nan,nan
1,197,6,1,1,1.0,1.0,0.4301227596588433,0,1389.489985565422,1659.581618930446,1660.0117416901048,nan,nan,6,8,5,2,7,3,nan,nan,nan,nan,nan,nan,0.0,0.0,0.0,0.0,0.0,0.0,nan,nan,nan,nan,nan,nan,nan,nan,nan,nan,nan,nan,nan,nan,nan,nan,nan,nan,nan
1,198,6,1,1,1.0,1.0,0.14096785057336092,0,1389.489985565422,1660.6067706944887,1660.747738545062,nan,nan,2,7,1,8,6,5,nan,nan,nan,nan,nan,nan,0.0,0.0,0.0,0.0,0.0,0.0,nan,nan,nan,nan,nan,nan,nan,nan,nan,nan,nan,nan,nan,nan,nan,nan,nan,nan,nan
1,199,6,1,1,1.0,1.0,0.45979729085229337,0,1389.489985565422,1661.6318925232626,1662.091689814115,nan,nan,3,5,4,6,7,0,nan,nan,nan,nan,nan,nan,0.0,0.0,0.0,0.0,0.0,0.0,nan,nan,nan,nan,nan,nan,nan,nan,nan,nan,nan,nan,nan,nan,nan,nan,nan,nan,nan
1,200,6,1,1,1.0,1.0,0.130675874883309,0,1389.489985565422,1662.6570009524003,1662.7876768272836,nan,nan,8,2,0,5,4,7,nan,nan,nan,nan,nan,nan,0.0,0.0,0.0,0.0,0.0,0.0,nan,nan,nan,nan,nan,nan,nan,nan,nan,nan,nan,nan,nan,nan,nan,nan,nan,nan,nan
1,201,6,1,1,1.0,1.0,0.6418087419588119,0,1389.489985565422,1663.6738261943683,1664.3156349363271,nan,nan,3,5,2,7,6,1,nan,nan,nan,nan,nan,nan,0.0,0.0,0.0,0.0,0.0,0.0,nan,nan,nan,nan,nan,nan,nan,nan,nan,nan,nan,nan,nan,nan,nan,nan,nan,nan,nan
1,202,6,0,0,1.0,0.0,0.2889869874343276,0,1389.489985565422,1664.6906383219175,1664.9796253093518,nan,nan,8,1,4,3,5,6,nan,nan,nan,nan,nan,nan,0.0,0.0,0.0,0.0,0.0,0.0,nan,nan,nan,nan,nan,nan,nan,nan,nan,nan,nan,nan,nan,nan,nan,nan,nan,nan,nan
1,203,6,1,1,1.0,1.0,0.05618877010419965,0,1389.489985565422,1665.7074299226515,1665.7636186927557,nan,nan,1,5,0,2,8,4,nan,nan,nan,nan,nan,nan,0.0,0.0,0.0,0.0,0.0,0.0,nan,nan,nan,nan,nan,nan,nan,nan,nan,nan,nan,nan,nan,nan,nan,nan,nan,nan,nan
1,204,6,1,1,1.0,1.0,0.279378957580775,0,1389.489985565422,1666.7242161063477,1667.0035950639285,nan,nan,4,7,5,3,6,1,nan,nan,nan,nan,nan,nan,0.0,0.0,0.0,0.0,0.0,0.0,nan,nan,nan,nan,nan,nan,nan,nan,nan,nan,nan,nan,nan,nan,nan,nan,nan,nan,nan
1,205,6,0,0,0.0,1.0,0.5025169725995511,0,1389.489985565422,1667.7410345058888,1668.2435514784884,nan,nan,0,5,4,1,7,3,nan,nan,nan,nan,nan,nan,0.0,0.0,0.0,0.0,0.0,0.0,nan,nan,nan,nan,nan,nan,nan,nan,nan,nan,nan,nan,nan,nan,nan,nan,nan,nan,nan
1,206,6,1,1,1.0,1.0,0.09373281407169998,0,1389.489985565422,1668.7578218302224,1668.851554644294,nan,nan,8,1,7,2,3,6,nan,nan,nan,nan,nan,nan,0.0,0.0,0.0,0.0,0.0,0.0,nan,nan,nan,nan,nan,nan,nan,nan,nan,nan,nan,nan,nan,nan,nan,nan,nan,nan,nan
1,207,6,1,1,1.0,1.0,0.24487546575255692,0,1389.489985565422,1669.7746293961536,1670.0195048619062,nan,nan,3,8,0,4,1,5,nan,nan,nan,nan,nan,nan,0.0,0.0,0.0,0.0,0.0,0.0,nan,nan,nan,nan,nan,nan,nan,nan,nan,nan,nan,nan,nan,nan,nan,nan,nan,nan,nan
1,208,6,1,1,1.0,1.0,0.02803978929296136,1,1389.489985565422,1670.7914195712656,1670.8194593605585,1672.6166495655198,1678.225688771112,0,4,2,1,8,7,1.0,1.0,1.0,1.0,1.0,1.0,0.0,0.0,0.0,0.0,0.0,0.0,0.0,4.0,3.0,2.0,1.0,6.0,5.0,4.0,7.0,3.0,8.0,1.0,6.0,4.456106149358675,3.5136328763328493,2.8895502805244178,2.552593848668039,5.575952927349135,4.992712368955836
1,209,6,1,1,nan,nan,nan,0,1389.489985565422,1679.450900861295,nan,nan,nan,4,7,0,6,2,5,nan,nan,nan,nan,nan,nan,0.0,0.0,0.0,0.0,0.0,0.0,nan,nan,nan,nan,nan,nan,nan,nan,nan,nan,nan,nan,nan,nan,nan,nan,nan,nan,nan
1,210,6,1,1,nan,nan,nan,0,1389.489985565422,1680.467703865841,nan,nan,nan,3,1,8,5,0,4,nan,nan,nan,nan,nan,nan,0.0,0.0,0.0,0.0,0.0,0.0,nan,nan,nan,nan,nan,nan,nan,nan,nan,nan,nan,nan,nan,nan,nan,nan,nan,nan,nan
1,211,6,1,1,nan,nan,nan,0,1389.489985565422,1681.4928122952115,nan,nan,nan,4,2,7,1,8,3,nan,nan,nan,nan,nan,nan,0.0,0.0,0.0,0.0,0.0,0.0,nan,nan,nan,nan,nan,nan,nan,nan,nan,nan,nan,nan,nan,nan,nan,nan,nan,nan,nan
1,212,6,0,0,nan,nan,nan,0,1389.489985565422,1682.5179603528231,nan,nan,nan,1,3,2,6,4,5,nan,nan,nan,nan,nan,nan,0.0,0.0,0.0,0.0,0.0,0.0,nan,nan,nan,nan,nan,nan,nan,nan,nan,nan,nan,nan,nan,nan,nan,nan,nan,nan,nan
1,213,6,1,1,nan,nan,nan,0,1389.489985565422,1683.5430818963796,nan,nan,nan,6,7,4,1,0,2,nan,nan,nan,nan,nan,nan,0.0,0.0,0.0,0.0,0.0,0.0,nan,nan,nan,nan,nan,nan,nan,nan,nan,nan,nan,nan,nan,nan,nan,nan,nan,nan,nan
1,214,6,1,1,nan,nan,nan,0,1389.489985565422,1684.5598811944947,nan,nan,nan,1,2,8,6,7,3,nan,nan,nan,nan,nan,nan,0.0,0.0,0.0,0.0,0.0,0.0,nan,nan,nan,nan,nan,nan,nan,nan,nan,nan,nan,nan,nan,nan,nan,nan,nan,nan,nan
1,215,6,1,1,nan,nan,nan,0,1389.489985565422,1685.5850075848866,nan,nan,nan,5,7,1,4,2,8,nan,nan,nan,nan,nan,nan,0.0,0.0,0.0,0.0,0.0,0.0,nan,nan,nan,nan,nan,nan,nan,nan,nan,nan,nan,nan,nan,nan,nan,nan,nan,nan,nan
1,216,6,1,1,nan,nan,nan,0,1389.489985565422,1686.601792913396,nan,nan,nan,1,2,4,6,8,0,nan,nan,nan,nan,nan,nan,0.0,0.0,0.0,0.0,0.0,0.0,nan,nan,nan,nan,nan,nan,nan,nan,nan,nan,nan,nan,nan,nan,nan,nan,nan,nan,nan
1,217,6,1,1,nan,nan,nan,0,1389.489985565422,1687.6269446772058,nan,nan,nan,8,1,6,2,0,3,nan,nan,nan,nan,nan,nan,0.0,0.0,0.0,0.0,0.0,0.0,nan,nan,nan,nan,nan,nan,nan,nan,nan,nan,nan,nan,nan,nan,nan,nan,nan,nan,nan
1,218,6,1,1,nan,nan,nan,0,1389.489985565422,1688.6520687867887,nan,nan,nan,2,8,3,6,7,4,nan,nan,nan,nan,nan,nan,0.0,0.0,0.0,0.0,0.0,0.0,nan,nan,nan,nan,nan,nan,nan,nan,nan,nan,nan,nan,nan,nan,nan,nan,nan,nan,nan
1,219,6,1,1,nan,nan,nan,0,1389.489985565422,1689.6688837653492,nan,nan,nan,8,5,2,3,0,1,nan,nan,nan,nan,nan,nan,0.0,0.0,0.0,0.0,0.0,0.0,nan,nan,nan,nan,nan,nan,nan,nan,nan,nan,nan,nan,nan,nan,nan,nan,nan,nan,nan
1,220,6,1,1,nan,nan,nan,0,1389.489985565422,1690.694011866115,nan,nan,nan,3,1,0,5,7,6,nan,nan,nan,nan,nan,nan,0.0,0.0,0.0,0.0,0.0,0.0,nan,nan,nan,nan,nan,nan,nan,nan,nan,nan,nan,nan,nan,nan,nan,nan,nan,nan,nan
1,221,6,1,1,nan,nan,nan,0,1389.489985565422,1691.710822568275,nan,nan,nan,2,7,4,6,3,1,nan,nan,nan,nan,nan,nan,0.0,0.0,0.0,0.0,0.0,0.0,nan,nan,nan,nan,nan,nan,nan,nan,nan,nan,nan,nan,nan,nan,nan,nan,nan,nan,nan
1,222,6,1,1,nan,nan,nan,0,1389.489985565422,1692.7276312746108,nan,nan,nan,4,5,0,3,6,2,nan,nan,nan,nan,nan,nan,0.0,0.0,0.0,0.0,0.0,0.0,nan,nan,nan,nan,nan,nan,nan,nan,nan,nan,nan,nan,nan,nan,nan,nan,nan,nan,nan
1,223,6,1,1,nan,nan,nan,0,1389.489985565422,1693.7444223051425,nan,nan,nan,5,3,2,6,8,0,nan,nan,nan,nan,nan,nan,0.0,0.0,0.0,0.0,0.0,0.0,nan,nan,nan,nan,nan,nan,nan,nan,nan,nan,nan,nan,nan,nan,nan,nan,nan,nan,nan
1,224,6,1,1,nan,nan,nan,0,1389.489985565422,1694.761209059041,nan,nan,nan,2,7,0,1,5,3,nan,nan,nan,nan,nan,nan,0.0,0.0,0.0,0.0,0.0,0.0,nan,nan,nan,nan,nan,nan,nan,nan,nan,nan,nan,nan,nan,nan,nan,nan,nan,nan,nan
1,225,6,1,1,nan,nan,nan,0,1389.489985565422,1695.7780006595422,nan,nan,nan,8,5,6,2,0,1,nan,nan,nan,nan,nan,nan,0.0,0.0,0.0,0.0,0.0,0.0,nan,nan,nan,nan,nan,nan,nan,nan,nan,nan,nan,nan,nan,nan,nan,nan,nan,nan,nan
1,226,6,1,1,nan,nan,nan,0,1389.489985565422,1696.794802238699,nan,nan,nan,1,2,3,5,6,4,nan,nan,nan,nan,nan,nan,0.0,0.0,0.0,0.0,0.0,0.0,nan,nan,nan,nan,nan,nan,nan,nan,nan,nan,nan,nan,nan,nan,nan,nan,nan,nan,nan
1,227,6,1,1,nan,nan,nan,0,1389.489985565422,1697.811610089615,nan,nan,nan,2,5,6,0,8,3,nan,nan,nan,nan,nan,nan,0.0,0.0,0.0,0.0,0.0,0.0,nan,nan,nan,nan,nan,nan,nan,nan,nan,nan,nan,nan,nan,nan,nan,nan,nan,nan,nan
1,228,6,1,1,nan,nan,nan,0,1389.489985565422,1698.828406251967,nan,nan,nan,3,1,4,6,5,8,nan,nan,nan,nan,nan,nan,0.0,0.0,0.0,0.0,0.0,0.0,nan,nan,nan,nan,nan,nan,nan,nan,nan,nan,nan,nan,nan,nan,nan,nan,nan,nan,nan
1,229,6,1,1,nan,nan,nan,0,1389.489985565422,1699.8535323571414,nan,nan,nan,7,6,8,5,0,4,nan,nan,nan,nan,nan,nan,0.0,0.0,0.0,0.0,0.0,0.0,nan,nan,nan,nan,nan,nan,nan,nan,nan,nan,nan,nan,nan,nan,nan,nan,nan,nan,nan
1,230,6,0,0,nan,nan,nan,0,1389.489985565422,1700.8786730021238,nan,nan,nan,8,3,7,0,1,2,nan,nan,nan,nan,nan,nan,0.0,0.0,0.0,0.0,0.0,0.0,nan,nan,nan,nan,nan,nan,nan,nan,nan,nan,nan,nan,nan,nan,nan,nan,nan,nan,nan
1,231,6,1,1,nan,nan,nan,0,1389.489985565422,1701.8954742960632,nan,nan,nan,3,8,0,4,6,1,nan,nan,nan,nan,nan,nan,0.0,0.0,0.0,0.0,0.0,0.0,nan,nan,nan,nan,nan,nan,nan,nan,nan,nan,nan,nan,nan,nan,nan,nan,nan,nan,nan
1,232,6,0,0,nan,nan,nan,0,1389.489985565422,1702.912293551024,nan,nan,nan,2,6,4,3,7,8,nan,nan,nan,nan,nan,nan,0.0,0.0,0.0,0.0,0.0,0.0,nan,nan,nan,nan,nan,nan,nan,nan,nan,nan,nan,nan,nan,nan,nan,nan,nan,nan,nan
1,233,6,1,1,nan,nan,nan,0,1389.489985565422,1703.9290651949123,nan,nan,nan,8,5,1,2,0,6,nan,nan,nan,nan,nan,nan,0.0,0.0,0.0,0.0,0.0,0.0,nan,nan,nan,nan,nan,nan,nan,nan,nan,nan,nan,nan,nan,nan,nan,nan,nan,nan,nan
1,234,6,1,1,nan,nan,nan,0,1389.489985565422,1704.9458713354543,nan,nan,nan,5,0,4,6,2,8,nan,nan,nan,nan,nan,nan,0.0,0.0,0.0,0.0,0.0,0.0,nan,nan,nan,nan,nan,nan,nan,nan,nan,nan,nan,nan,nan,nan,nan,nan,nan,nan,nan
1,235,6,1,1,nan,nan,nan,0,1389.489985565422,1705.9626794715878,nan,nan,nan,6,1,8,3,5,7,nan,nan,nan,nan,nan,nan,0.0,0.0,0.0,0.0,0.0,0.0,nan,nan,nan,nan,nan,nan,nan,nan,nan,nan,nan,nan,nan,nan,nan,nan,nan,nan,nan
1,236,6,1,1,nan,nan,nan,0,1389.489985565422,1706.9878089979757,nan,nan,nan,3,2,6,5,7,8,nan,nan,nan,nan,nan,nan,0.0,0.0,0.0,0.0,0.0,0.0,nan,nan,nan,nan,nan,nan,nan,nan,nan,nan,nan,nan,nan,nan,nan,nan,nan,nan,nan
1,237,6,1,1,nan,nan,nan,0,1389.489985565422,1708.0045923308935,nan,nan,nan,0,7,5,6,2,4,nan,nan,nan,nan,nan,nan,0.0,0.0,0.0,0.0,0.0,0.0,nan,nan,nan,nan,nan,nan,nan,nan,nan,nan,nan,nan,nan,nan,nan,nan,nan,nan,nan
1,238,6,1,1,nan,nan,nan,0,1389.489985565422,1709.0297318354715,nan,nan,nan,5,4,2,0,6,7,nan,nan,nan,nan,nan,nan,0.0,0.0,0.0,0.0,0.0,0.0,nan,nan,nan,nan,nan,nan,nan,nan,nan,nan,nan,nan,nan,nan,nan,nan,nan,nan,nan
1,239,6,1,1,nan,nan,nan,0,1389.489985565422,1710.046539971605,nan,nan,nan,1,8,0,2,5,3,nan,nan,nan,nan,nan,nan,0.0,0.0,0.0,0.0,0.0,0.0,nan,nan,nan,nan,nan,nan,nan,nan,nan,nan,nan,nan,nan,nan,nan,nan,nan,nan,nan
1,240,6,0,0,nan,nan,nan,0,1389.489985565422,1711.0633478227537,nan,nan,nan,7,2,3,6,4,0,nan,nan,nan,nan,nan,nan,0.0,0.0,0.0,0.0,0.0,0.0,nan,nan,nan,nan,nan,nan,nan,nan,nan,nan,nan,nan,nan,nan,nan,nan,nan,nan,nan
1,241,6,1,1,nan,nan,nan,0,1389.489985565422,1712.0801360022742,nan,nan,nan,0,6,8,7,1,4,nan,nan,nan,nan,nan,nan,0.0,0.0,0.0,0.0,0.0,0.0,nan,nan,nan,nan,nan,nan,nan,nan,nan,nan,nan,nan,nan,nan,nan,nan,nan,nan,nan
1,242,6,1,1,nan,nan,nan,0,1389.489985565422,1713.0969375811983,nan,nan,nan,1,2,5,3,7,8,nan,nan,nan,nan,nan,nan,0.0,0.0,0.0,0.0,0.0,0.0,nan,nan,nan,nan,nan,nan,nan,nan,nan,nan,nan,nan,nan,nan,nan,nan,nan,nan,nan
1,243,6,1,1,nan,nan,nan,0,1389.489985565422,1714.1137334583327,nan,nan,nan,4,3,8,7,5,6,nan,nan,nan,nan,nan,nan,0.0,0.0,0.0,0.0,0.0,0.0,nan,nan,nan,nan,nan,nan,nan,nan,nan,nan,nan,nan,nan,nan,nan,nan,nan,nan,nan
1,244,6,1,1,nan,nan,nan,0,1389.489985565422,1715.1388612741139,nan,nan,nan,7,2,0,4,3,1,nan,nan,nan,nan,nan,nan,0.0,0.0,0.0,0.0,0.0,0.0,nan,nan,nan,nan,nan,nan,nan,nan,nan,nan,nan,nan,nan,nan,nan,nan,nan,nan,nan
1,245,6,1,1,nan,nan,nan,0,1389.489985565422,1716.1556577212177,nan,nan,nan,3,6,5,2,4,8,nan,nan,nan,nan,nan,nan,0.0,0.0,0.0,0.0,0.0,0.0,nan,nan,nan,nan,nan,nan,nan,nan,nan,nan,nan,nan,nan,nan,nan,nan,nan,nan,nan
1,246,6,1,1,nan,nan,nan,0,1389.489985565422,1717.1724675681908,nan,nan,nan,8,0,7,1,2,6,nan,nan,nan,nan,nan,nan,0.0,0.0,0.0,0.0,0.0,0.0,nan,nan,nan,nan,nan,nan,nan,nan,nan,nan,nan,nan,nan,nan,nan,nan,nan,nan,nan
1,247,6,1,1,nan,nan,nan,0,1389.489985565422,1718.1975993751548,nan,nan,nan,7,1,6,4,0,5,nan,nan,nan,nan,nan,nan,0.0,0.0,0.0,0.0,0.0,0.0,nan,nan,nan,nan,nan,nan,nan,nan,nan,nan,nan,nan,nan,nan,nan,nan,nan,nan,nan
1,248,6,1,1,nan,nan,nan,0,1389.489985565422,1719.2227440117858,nan,nan,nan,3,8,4,2,5,6,nan,nan,nan,nan,nan,nan,0.0,0.0,0.0,0.0,0.0,0.0,nan,nan,nan,nan,nan,nan,nan,nan,nan,nan,nan,nan,nan,nan,nan,nan,nan,nan,nan
1,249,6,1,1,nan,nan,nan,0,1389.489985565422,1720.2478564323392,nan,nan,nan,6,4,2,0,3,1,nan,nan,nan,nan,nan,nan,0.0,0.0,0.0,0.0,0.0,0.0,nan,nan,nan,nan,nan,nan,nan,nan,nan,nan,nan,nan,nan,nan,nan,nan,nan,nan,nan
1,250,6,1,1,nan,nan,nan,0,1389.489985565422,1721.2646243697964,nan,nan,nan,4,3,7,2,1,5,nan,nan,nan,nan,nan,nan,0.0,0.0,0.0,0.0,0.0,0.0,nan,nan,nan,nan,nan,nan,nan,nan,nan,nan,nan,nan,nan,nan,nan,nan,nan,nan,nan
1,251,6,1,1,nan,nan,nan,0,1389.489985565422,1722.3182606732007,nan,nan,nan,7,4,0,6,3,1,nan,nan,nan,nan,nan,nan,0.0,0.0,0.0,0.0,0.0,0.0,nan,nan,nan,nan,nan,nan,nan,nan,nan,nan,nan,nan,nan,nan,nan,nan,nan,nan,nan
1,252,6,1,1,nan,nan,nan,0,1389.489985565422,1723.339935117634,nan,nan,nan,5,6,7,3,8,0,nan,nan,nan,nan,nan,nan,0.0,0.0,0.0,0.0,0.0,0.0,nan,nan,nan,nan,nan,nan,nan,nan,nan,nan,nan,nan,nan,nan,nan,nan,nan,nan,nan
1,253,6,0,0,nan,nan,nan,0,1389.489985565422,1724.35673812218,nan,nan,nan,7,5,6,0,3,2,nan,nan,nan,nan,nan,nan,0.0,0.0,0.0,0.0,0.0,0.0,nan,nan,nan,nan,nan,nan,nan,nan,nan,nan,nan,nan,nan,nan,nan,nan,nan,nan,nan
1,254,6,1,1,nan,nan,nan,0,1389.489985565422,1725.3735339993145,nan,nan,nan,1,2,4,3,5,0,nan,nan,nan,nan,nan,nan,0.0,0.0,0.0,0.0,0.0,0.0,nan,nan,nan,nan,nan,nan,nan,nan,nan,nan,nan,nan,nan,nan,nan,nan,nan,nan,nan
1,255,6,1,1,nan,nan,nan,0,1389.489985565422,1726.390323034022,nan,nan,nan,4,5,3,8,1,2,nan,nan,nan,nan,nan,nan,0.0,0.0,0.0,0.0,0.0,0.0,nan,nan,nan,nan,nan,nan,nan,nan,nan,nan,nan,nan,nan,nan,nan,nan,nan,nan,nan
1,256,6,1,1,nan,nan,nan,0,1389.489985565422,1727.4071280341595,nan,nan,nan,3,2,5,1,0,4,nan,nan,nan,nan,nan,nan,0.0,0.0,0.0,0.0,0.0,0.0,nan,nan,nan,nan,nan,nan,nan,nan,nan,nan,nan,nan,nan,nan,nan,nan,nan,nan,nan
1,257,6,1,1,nan,nan,nan,0,1389.489985565422,1728.4239313236903,nan,nan,nan,6,8,1,7,5,3,nan,nan,nan,nan,nan,nan,0.0,0.0,0.0,0.0,0.0,0.0,nan,nan,nan,nan,nan,nan,nan,nan,nan,nan,nan,nan,nan,nan,nan,nan,nan,nan,nan
1,258,6,1,1,nan,nan,nan,0,1389.489985565422,1729.4407166521996,nan,nan,nan,4,2,8,5,1,0,nan,nan,nan,nan,nan,nan,0.0,0.0,0.0,0.0,0.0,0.0,nan,nan,nan,nan,nan,nan,nan,nan,nan,nan,nan,nan,nan,nan,nan,nan,nan,nan,nan
1,259,6,1,1,nan,nan,nan,0,1389.489985565422,1730.4658533059992,nan,nan,nan,7,8,4,3,2,5,nan,nan,nan,nan,nan,nan,0.0,0.0,0.0,0.0,0.0,0.0,nan,nan,nan,nan,nan,nan,nan,nan,nan,nan,nan,nan,nan,nan,nan,nan,nan,nan,nan
1,260,6,1,1,nan,nan,nan,0,1389.489985565422,1731.4909953766037,nan,nan,nan,5,4,1,2,7,8,nan,nan,nan,nan,nan,nan,0.0,0.0,0.0,0.0,0.0,0.0,nan,nan,nan,nan,nan,nan,nan,nan,nan,nan,nan,nan,nan,nan,nan,nan,nan,nan,nan
1,261,6,1,1,nan,nan,nan,0,1389.489985565422,1732.5078000915237,nan,nan,nan,3,2,7,5,6,4,nan,nan,nan,nan,nan,nan,0.0,0.0,0.0,0.0,0.0,0.0,nan,nan,nan,nan,nan,nan,nan,nan,nan,nan,nan,nan,nan,nan,nan,nan,nan,nan,nan
1,262,6,1,1,nan,nan,nan,0,1389.489985565422,1733.5245973940473,nan,nan,nan,0,7,3,6,2,5,nan,nan,nan,nan,nan,nan,0.0,0.0,0.0,0.0,0.0,0.0,nan,nan,nan,nan,nan,nan,nan,nan,nan,nan,nan,nan,nan,nan,nan,nan,nan,nan,nan
1,263,6,0,0,nan,nan,nan,0,1389.489985565422,1734.5413986879867,nan,nan,nan,6,2,1,4,0,7,nan,nan,nan,nan,nan,nan,0.0,0.0,0.0,0.0,0.0,0.0,nan,nan,nan,nan,nan,nan,nan,nan,nan,nan,nan,nan,nan,nan,nan,nan,nan,nan,nan
1,264,6,1,1,nan,nan,nan,0,1389.489985565422,1735.5582005521283,nan,nan,nan,0,3,7,8,4,2,nan,nan,nan,nan,nan,nan,0.0,0.0,0.0,0.0,0.0,0.0,nan,nan,nan,nan,nan,nan,nan,nan,nan,nan,nan,nan,nan,nan,nan,nan,nan,nan,nan
1,265,6,1,1,nan,nan,nan,0,1389.489985565422,1736.5833246614784,nan,nan,nan,1,4,6,5,7,3,nan,nan,nan,nan,nan,nan,0.0,0.0,0.0,0.0,0.0,0.0,nan,nan,nan,nan,nan,nan,nan,nan,nan,nan,nan,nan,nan,nan,nan,nan,nan,nan,nan
1,266,6,1,1,nan,nan,nan,0,1389.489985565422,1737.6001185430214,nan,nan,nan,8,7,2,0,5,1,nan,nan,nan,nan,nan,nan,0.0,0.0,0.0,0.0,0.0,0.0,nan,nan,nan,nan,nan,nan,nan,nan,nan,nan,nan,nan,nan,nan,nan,nan,nan,nan,nan
1,267,6,1,1,nan,nan,nan,0,1389.489985565422,1738.6169400787912,nan,nan,nan,6,4,0,1,7,2,nan,nan,nan,nan,nan,nan,0.0,0.0,0.0,0.0,0.0,0.0,nan,nan,nan,nan,nan,nan,nan,nan,nan,nan,nan,nan,nan,nan,nan,nan,nan,nan,nan
1,268,6,0,0,nan,nan,nan,0,1389.489985565422,1739.6337185648736,nan,nan,nan,2,0,7,4,1,6,nan,nan,nan,nan,nan,nan,0.0,0.0,0.0,0.0,0.0,0.0,nan,nan,nan,nan,nan,nan,nan,nan,nan,nan,nan,nan,nan,nan,nan,nan,nan,nan,nan
1,269,6,1,1,nan,nan,nan,0,1389.489985565422,1740.6505275564268,nan,nan,nan,5,7,6,3,8,2,nan,nan,nan,nan,nan,nan,0.0,0.0,0.0,0.0,0.0,0.0,nan,nan,nan,nan,nan,nan,nan,nan,nan,nan,nan,nan,nan,nan,nan,nan,nan,nan,nan
1,270,6,1,1,nan,nan,nan,0,1389.489985565422,1741.6673140251078,nan,nan,nan,4,2,0,5,3,6,nan,nan,nan,nan,nan,nan,0.0,0.0,0.0,0.0,0.0,0.0,nan,nan,nan,nan,nan,nan,nan,nan,nan,nan,nan,nan,nan,nan,nan,nan,nan,nan,nan
1,271,6,1,1,nan,nan,nan,0,1389.489985565422,1742.6924512491096,nan,nan,nan,5,3,4,0,1,8,nan,nan,nan,nan,nan,nan,0.0,0.0,0.0,0.0,0.0,0.0,nan,nan,nan,nan,nan,nan,nan,nan,nan,nan,nan,nan,nan,nan,nan,nan,nan,nan,nan
1,272,6,1,1,nan,nan,nan,0,1389.489985565422,1743.717578779906,nan,nan,nan,4,1,8,6,3,2,nan,nan,nan,nan,nan,nan,0.0,0.0,0.0,0.0,0.0,0.0,nan,nan,nan,nan,nan,nan,nan,nan,nan,nan,nan,nan,nan,nan,nan,nan,nan,nan,nan
1,273,6,1,1,nan,nan,nan,0,1389.489985565422,1744.7343997454736,nan,nan,nan,6,7,2,5,4,1,nan,nan,nan,nan,nan,nan,0.0,0.0,0.0,0.0,0.0,0.0,nan,nan,nan,nan,nan,nan,nan,nan,nan,nan,nan,nan,nan,nan,nan,nan,nan,nan,nan
1,274,6,1,1,nan,nan,nan,0,1389.489985565422,1745.75117509556,nan,nan,nan,3,4,0,8,5,2,nan,nan,nan,nan,nan,nan,0.0,0.0,0.0,0.0,0.0,0.0,nan,nan,nan,nan,nan,nan,nan,nan,nan,nan,nan,nan,nan,nan,nan,nan,nan,nan,nan
1,275,6,1,1,nan,nan,nan,0,1389.489985565422,1746.7679726830684,nan,nan,nan,4,1,7,6,8,3,nan,nan,nan,nan,nan,nan,0.0,0.0,0.0,0.0,0.0,0.0,nan,nan,nan,nan,nan,nan,nan,nan,nan,nan,nan,nan,nan,nan,nan,nan,nan,nan,nan
1,276,6,1,1,nan,nan,nan,0,1389.489985565422,1747.7847426163498,nan,nan,nan,8,6,5,4,3,0,nan,nan,nan,nan,nan,nan,0.0,0.0,0.0,0.0,0.0,0.0,nan,nan,nan,nan,nan,nan,nan,nan,nan,nan,nan,nan,nan,nan,nan,nan,nan,nan,nan
1,277,6,1,1,nan,nan,nan,0,1389.489985565422,1748.8015724199358,nan,nan,nan,0,3,8,5,1,2,nan,nan,nan,nan,nan,nan,0.0,0.0,0.0,0.0,0.0,0.0,nan,nan,nan,nan,nan,nan,nan,nan,nan,nan,nan,nan,nan,nan,nan,nan,nan,nan,nan
1,278,6,1,1,nan,nan,nan,0,1389.489985565422,1749.8184275969397,nan,nan,nan,7,4,6,2,5,0,nan,nan,nan,nan,nan,nan,0.0,0.0,0.0,0.0,0.0,0.0,nan,nan,nan,nan,nan,nan,nan,nan,nan,nan,nan,nan,nan,nan,nan,nan,nan,nan,nan
1,279,6,1,1,nan,nan,nan,0,1389.489985565422,1750.8351684506051,nan,nan,nan,2,1,3,7,8,4,nan,nan,nan,nan,nan,nan,0.0,0.0,0.0,0.0,0.0,0.0,nan,nan,nan,nan,nan,nan,nan,nan,nan,nan,nan,nan,nan,nan,nan,nan,nan,nan,nan
1,280,6,1,1,nan,nan,nan,0,1389.489985565422,1751.8519674635027,nan,nan,nan,1,3,5,8,4,7,nan,nan,nan,nan,nan,nan,0.0,0.0,0.0,0.0,0.0,0.0,nan,nan,nan,nan,nan,nan,nan,nan,nan,nan,nan,nan,nan,nan,nan,nan,nan,nan,nan
1,281,6,1,1,nan,nan,nan,0,1389.489985565422,1752.8688095263205,nan,nan,nan,5,8,0,4,2,6,nan,nan,nan,nan,nan,nan,0.0,0.0,0.0,0.0,0.0,0.0,nan,nan,nan,nan,nan,nan,nan,nan,nan,nan,nan,nan,nan,nan,nan,nan,nan,nan,nan
1,282,6,1,1,nan,nan,nan,0,1389.489985565422,1753.8855814551935,nan,nan,nan,3,1,8,6,5,4,nan,nan,nan,nan,nan,nan,0.0,0.0,0.0,0.0,0.0,0.0,nan,nan,nan,nan,nan,nan,nan,nan,nan,nan,nan,nan,nan,nan,nan,nan,nan,nan,nan
1,283,6,1,1,nan,nan,nan,0,1389.489985565422,1754.9023667837027,nan,nan,nan,0,8,2,7,4,5,nan,nan,nan,nan,nan,nan,0.0,0.0,0.0,0.0,0.0,0.0,nan,nan,nan,nan,nan,nan,nan,nan,nan,nan,nan,nan,nan,nan,nan,nan,nan,nan,nan
1,284,6,1,1,nan,nan,nan,0,1389.489985565422,1755.919208561303,nan,nan,nan,1,6,5,3,2,8,nan,nan,nan,nan,nan,nan,0.0,0.0,0.0,0.0,0.0,0.0,nan,nan,nan,nan,nan,nan,nan,nan,nan,nan,nan,nan,nan,nan,nan,nan,nan,nan,nan
1,285,6,1,1,nan,nan,nan,0,1389.489985565422,1756.944328964455,nan,nan,nan,0,5,1,7,4,2,nan,nan,nan,nan,nan,nan,0.0,0.0,0.0,0.0,0.0,0.0,nan,nan,nan,nan,nan,nan,nan,nan,nan,nan,nan,nan,nan,nan,nan,nan,nan,nan,nan
1,286,6,1,1,nan,nan,nan,0,1389.489985565422,1757.961113722762,nan,nan,nan,8,6,0,5,2,4,nan,nan,nan,nan,nan,nan,0.0,0.0,0.0,0.0,0.0,0.0,nan,nan,nan,nan,nan,nan,nan,nan,nan,nan,nan,nan,nan,nan,nan,nan,nan,nan,nan
1,287,6,1,1,nan,nan,nan,0,1389.489985565422,1758.9779124509078,nan,nan,nan,1,7,5,3,8,6,nan,nan,nan,nan,nan,nan,0.0,0.0,0.0,0.0,0.0,0.0,nan,nan,nan,nan,nan,nan,nan,nan,nan,nan,nan,nan,nan,nan,nan,nan,nan,nan,nan
1,288,6,1,1,nan,nan,nan,0,1389.489985565422,1759.9947143148165,nan,nan,nan,2,8,3,5,0,7,nan,nan,nan,nan,nan,nan,0.0,0.0,0.0,0.0,0.0,0.0,nan,nan,nan,nan,nan,nan,nan,nan,nan,nan,nan,nan,nan,nan,nan,nan,nan,nan,nan
1,289,6,1,1,nan,nan,nan,0,1389.489985565422,1761.0115113323554,nan,nan,nan,8,7,1,0,3,6,nan,nan,nan,nan,nan,nan,0.0,0.0,0.0,0.0,0.0,0.0,nan,nan,nan,nan,nan,nan,nan,nan,nan,nan,nan,nan,nan,nan,nan,nan,nan,nan,nan
1,290,6,1,1,nan,nan,nan,0,1389.489985565422,1762.0366371525452,nan,nan,nan,5,1,2,7,4,3,nan,nan,nan,nan,nan,nan,0.0,0.0,0.0,0.0,0.0,0.0,nan,nan,nan,nan,nan,nan,nan,nan,nan,nan,nan,nan,nan,nan,nan,nan,nan,nan,nan
1,291,6,1,1,nan,nan,nan,0,1389.489985565422,1763.0534179194365,nan,nan,nan,2,7,8,3,1,0,nan,nan,nan,nan,nan,nan,0.0,0.0,0.0,0.0,0.0,0.0,nan,nan,nan,nan,nan,nan,nan,nan,nan,nan,nan,nan,nan,nan,nan,nan,nan,nan,nan
1,292,6,1,1,nan,nan,nan,0,1389.489985565422,1764.0702671094332,nan,nan,nan,6,0,4,7,2,3,nan,nan,nan,nan,nan,nan,0.0,0.0,0.0,0.0,0.0,0.0,nan,nan,nan,nan,nan,nan,nan,nan,nan,nan,nan,nan,nan,nan,nan,nan,nan,nan,nan
1,293,6,1,1,nan,nan,nan,0,1389.489985565422,1765.087050442351,nan,nan,nan,2,5,7,1,4,6,nan,nan,nan,nan,nan,nan,0.0,0.0,0.0,0.0,0.0,0.0,nan,nan,nan,nan,nan,nan,nan,nan,nan,nan,nan,nan,nan,nan,nan,nan,nan,nan,nan
1,294,6,1,1,nan,nan,nan,0,1389.489985565422,1766.103839191841,nan,nan,nan,1,6,3,0,8,2,nan,nan,nan,nan,nan,nan,0.0,0.0,0.0,0.0,0.0,0.0,nan,nan,nan,nan,nan,nan,nan,nan,nan,nan,nan,nan,nan,nan,nan,nan,nan,nan,nan
1,295,6,0,0,nan,nan,nan,0,1389.489985565422,1767.12065217481,nan,nan,nan,4,7,6,2,1,5,nan,nan,nan,nan,nan,nan,0.0,0.0,0.0,0.0,0.0,0.0,nan,nan,nan,nan,nan,nan,nan,nan,nan,nan,nan,nan,nan,nan,nan,nan,nan,nan,nan
1,296,6,1,1,nan,nan,nan,0,1389.489985565422,1768.1457614593673,nan,nan,nan,0,5,3,8,7,4,nan,nan,nan,nan,nan,nan,0.0,0.0,0.0,0.0,0.0,0.0,nan,nan,nan,nan,nan,nan,nan,nan,nan,nan,nan,nan,nan,nan,nan,nan,nan,nan,nan
1,297,6,1,1,nan,nan,nan,0,1389.489985565422,1769.1625770078972,nan,nan,nan,5,2,7,3,6,8,nan,nan,nan,nan,nan,nan,0.0,0.0,0.0,0.0,0.0,0.0,nan,nan,nan,nan,nan,nan,nan,nan,nan,nan,nan,nan,nan,nan,nan,nan,nan,nan,nan
1,298,6,1,1,nan,nan,nan,0,1389.489985565422,1770.1876868626568,nan,nan,nan,6,7,8,0,5,3,nan,nan,nan,nan,nan,nan,0.0,0.0,0.0,0.0,0.0,0.0,nan,nan,nan,nan,nan,nan,nan,nan,nan,nan,nan,nan,nan,nan,nan,nan,nan,nan,nan
1,299,6,1,1,nan,nan,nan,0,1389.489985565422,1771.2128617193084,nan,nan,nan,2,8,4,7,1,0,nan,nan,nan,nan,nan,nan,0.0,0.0,0.0,0.0,0.0,0.0,nan,nan,nan,nan,nan,nan,nan,nan,nan,nan,nan,nan,nan,nan,nan,nan,nan,nan,nan
1,300,6,1,1,nan,nan,nan,0,1389.489985565422,1772.23795703426,nan,nan,nan,8,0,7,2,3,5,nan,nan,nan,nan,nan,nan,0.0,0.0,0.0,0.0,0.0,0.0,nan,nan,nan,nan,nan,nan,nan,nan,nan,nan,nan,nan,nan,nan,nan,nan,nan,nan,nan
1,301,6,1,1,nan,nan,nan,0,1389.489985565422,1773.25476174918,nan,nan,nan,0,5,2,4,6,8,nan,nan,nan,nan,nan,nan,0.0,0.0,0.0,0.0,0.0,0.0,nan,nan,nan,nan,nan,nan,nan,nan,nan,nan,nan,nan,nan,nan,nan,nan,nan,nan,nan
1,302,6,1,1,nan,nan,nan,0,1389.489985565422,1774.2716003907844,nan,nan,nan,3,1,6,5,8,2,nan,nan,nan,nan,nan,nan,0.0,0.0,0.0,0.0,0.0,0.0,nan,nan,nan,nan,nan,nan,nan,nan,nan,nan,nan,nan,nan,nan,nan,nan,nan,nan,nan
1,303,6,1,1,nan,nan,nan,0,1389.489985565422,1775.2883697538637,nan,nan,nan,4,6,5,2,7,1,nan,nan,nan,nan,nan,nan,0.0,0.0,0.0,0.0,0.0,0.0,nan,nan,nan,nan,nan,nan,nan,nan,nan,nan,nan,nan,nan,nan,nan,nan,nan,nan,nan
1,304,6,1,1,nan,nan,nan,0,1389.489985565422,1776.313483029604,nan,nan,nan,8,1,4,5,2,6,nan,nan,nan,nan,nan,nan,0.0,0.0,0.0,0.0,0.0,0.0,nan,nan,nan,nan,nan,nan,nan,nan,nan,nan,nan,nan,nan,nan,nan,nan,nan,nan,nan
1,305,6,1,1,nan,nan,nan,0,1389.489985565422,1777.3303250924218,nan,nan,nan,5,6,2,1,3,0,nan,nan,nan,nan,nan,nan,0.0,0.0,0.0,0.0,0.0,0.0,nan,nan,nan,nan,nan,nan,nan,nan,nan,nan,nan,nan,nan,nan,nan,nan,nan,nan,nan
1,306,6,1,1,nan,nan,nan,0,1389.489985565422,1778.3470679414459,nan,nan,nan,4,3,6,0,5,1,nan,nan,nan,nan,nan,nan,0.0,0.0,0.0,0.0,0.0,0.0,nan,nan,nan,nan,nan,nan,nan,nan,nan,nan,nan,nan,nan,nan,nan,nan,nan,nan,nan
1,307,6,1,1,nan,nan,nan,0,1389.489985565422,1779.36390145123,nan,nan,nan,7,2,0,4,8,5,nan,nan,nan,nan,nan,nan,0.0,0.0,0.0,0.0,0.0,0.0,nan,nan,nan,nan,nan,nan,nan,nan,nan,nan,nan,nan,nan,nan,nan,nan,nan,nan,nan
1,308,6,1,1,nan,nan,nan,0,1389.489985565422,1780.3891185021494,nan,nan,nan,4,1,8,6,2,7,nan,nan,nan,nan,nan,nan,0.0,0.0,0.0,0.0,0.0,0.0,nan,nan,nan,nan,nan,nan,nan,nan,nan,nan,nan,nan,nan,nan,nan,nan,nan,nan,nan
1,309,6,0,0,nan,nan,nan,0,1389.489985565422,1781.4058163061272,nan,nan,nan,3,5,2,4,7,1,nan,nan,nan,nan,nan,nan,0.0,0.0,0.0,0.0,0.0,0.0,nan,nan,nan,nan,nan,nan,nan,nan,nan,nan,nan,nan,nan,nan,nan,nan,nan,nan,nan
1,310,6,1,1,nan,nan,nan,0,1389.489985565422,1782.42263185489,nan,nan,nan,7,4,6,8,3,0,nan,nan,nan,nan,nan,nan,0.0,0.0,0.0,0.0,0.0,0.0,nan,nan,nan,nan,nan,nan,nan,nan,nan,nan,nan,nan,nan,nan,nan,nan,nan,nan,nan
1,311,6,1,1,nan,nan,nan,0,1389.489985565422,1783.4394345742185,nan,nan,nan,1,3,0,7,5,2,nan,nan,nan,nan,nan,nan,0.0,0.0,0.0,0.0,0.0,0.0,nan,nan,nan,nan,nan,nan,nan,nan,nan,nan,nan,nan,nan,nan,nan,nan,nan,nan,nan
1,312,6,1,1,nan,nan,nan,0,1389.489985565422,1784.456215911312,nan,nan,nan,5,2,6,0,8,4,nan,nan,nan,nan,nan,nan,0.0,0.0,0.0,0.0,0.0,0.0,nan,nan,nan,nan,nan,nan,nan,nan,nan,nan,nan,nan,nan,nan,nan,nan,nan,nan,nan
1,313,6,1,1,nan,nan,nan,0,1389.489985565422,1785.473010648042,nan,nan,nan,7,8,0,1,4,6,nan,nan,nan,nan,nan,nan,0.0,0.0,0.0,0.0,0.0,0.0,nan,nan,nan,nan,nan,nan,nan,nan,nan,nan,nan,nan,nan,nan,nan,nan,nan,nan,nan
1,314,6,0,0,nan,nan,nan,0,1389.489985565422,1786.4898108015768,nan,nan,nan,4,0,3,5,2,8,nan,nan,nan,nan,nan,nan,0.0,0.0,0.0,0.0,0.0,0.0,nan,nan,nan,nan,nan,nan,nan,nan,nan,nan,nan,nan,nan,nan,nan,nan,nan,nan,nan
1,315,6,1,1,nan,nan,nan,0,1389.489985565422,1787.5066220737062,nan,nan,nan,6,7,5,4,3,2,nan,nan,nan,nan,nan,nan,0.0,0.0,0.0,0.0,0.0,0.0,nan,nan,nan,nan,nan,nan,nan,nan,nan,nan,nan,nan,nan,nan,nan,nan,nan,nan,nan
1,316,6,1,1,nan,nan,nan,0,1389.489985565422,1788.5317364900839,nan,nan,nan,7,3,8,1,0,4,nan,nan,nan,nan,nan,nan,0.0,0.0,0.0,0.0,0.0,0.0,nan,nan,nan,nan,nan,nan,nan,nan,nan,nan,nan,nan,nan,nan,nan,nan,nan,nan,nan
1,317,6,0,0,nan,nan,nan,0,1389.489985565422,1789.5485437707976,nan,nan,nan,0,2,3,6,7,5,nan,nan,nan,nan,nan,nan,0.0,0.0,0.0,0.0,0.0,0.0,nan,nan,nan,nan,nan,nan,nan,nan,nan,nan,nan,nan,nan,nan,nan,nan,nan,nan,nan
1,318,6,1,1,nan,nan,nan,0,1389.489985565422,1790.5653507667594,nan,nan,nan,6,1,5,4,2,3,nan,nan,nan,nan,nan,nan,0.0,0.0,0.0,0.0,0.0,0.0,nan,nan,nan,nan,nan,nan,nan,nan,nan,nan,nan,nan,nan,nan,nan,nan,nan,nan,nan
1,319,6,1,1,nan,nan,nan,0,1389.489985565422,1791.5904780123383,nan,nan,nan,1,0,8,6,4,7,nan,nan,nan,nan,nan,nan,0.0,0.0,0.0,0.0,0.0,0.0,nan,nan,nan,nan,nan,nan,nan,nan,nan,nan,nan,nan,nan,nan,nan,nan,nan,nan,nan
1,320,6,1,1,nan,nan,nan,0,1389.489985565422,1792.615683374228,nan,nan,nan,8,7,5,1,6,4,nan,nan,nan,nan,nan,nan,0.0,0.0,0.0,0.0,0.0,0.0,nan,nan,nan,nan,nan,nan,nan,nan,nan,nan,nan,nan,nan,nan,nan,nan,nan,nan,nan
1,321,6,1,1,nan,nan,nan,0,1389.489985565422,1793.632425368065,nan,nan,nan,6,5,2,3,0,7,nan,nan,nan,nan,nan,nan,0.0,0.0,0.0,0.0,0.0,0.0,nan,nan,nan,nan,nan,nan,nan,nan,nan,nan,nan,nan,nan,nan,nan,nan,nan,nan,nan
1,322,6,0,0,nan,nan,nan,0,1389.489985565422,1794.6492278024089,nan,nan,nan,2,1,7,4,6,5,nan,nan,nan,nan,nan,nan,0.0,0.0,0.0,0.0,0.0,0.0,nan,nan,nan,nan,nan,nan,nan,nan,nan,nan,nan,nan,nan,nan,nan,nan,nan,nan,nan
1,323,6,1,1,nan,nan,nan,0,1389.489985565422,1795.6660060035065,nan,nan,nan,1,6,0,5,7,2,nan,nan,nan,nan,nan,nan,0.0,0.0,0.0,0.0,0.0,0.0,nan,nan,nan,nan,nan,nan,nan,nan,nan,nan,nan,nan,nan,nan,nan,nan,nan,nan,nan
1,324,6,1,1,nan,nan,nan,0,1389.489985565422,1796.6828221224714,nan,nan,nan,3,0,7,4,8,6,nan,nan,nan,nan,nan,nan,0.0,0.0,0.0,0.0,0.0,0.0,nan,nan,nan,nan,nan,nan,nan,nan,nan,nan,nan,nan,nan,nan,nan,nan,nan,nan,nan
1,325,6,1,1,nan,nan,nan,0,1389.489985565422,1797.6996254120022,nan,nan,nan,6,5,2,3,0,1,nan,nan,nan,nan,nan,nan,0.0,0.0,0.0,0.0,0.0,0.0,nan,nan,nan,nan,nan,nan,nan,nan,nan,nan,nan,nan,nan,nan,nan,nan,nan,nan,nan
1,326,6,1,1,nan,nan,nan,0,1389.489985565422,1798.7164235697128,nan,nan,nan,5,2,1,0,3,4,nan,nan,nan,nan,nan,nan,0.0,0.0,0.0,0.0,0.0,0.0,nan,nan,nan,nan,nan,nan,nan,nan,nan,nan,nan,nan,nan,nan,nan,nan,nan,nan,nan
1,327,6,1,1,nan,nan,nan,0,1389.489985565422,1799.7332140300423,nan,nan,nan,3,6,5,2,1,0,nan,nan,nan,nan,nan,nan,0.0,0.0,0.0,0.0,0.0,0.0,nan,nan,nan,nan,nan,nan,nan,nan,nan,nan,nan,nan,nan,nan,nan,nan,nan,nan,nan
1,328,6,1,1,nan,nan,nan,0,1389.489985565422,1800.7500241617672,nan,nan,nan,8,3,1,4,2,5,nan,nan,nan,nan,nan,nan,0.0,0.0,0.0,0.0,0.0,0.0,nan,nan,nan,nan,nan,nan,nan,nan,nan,nan,nan,nan,nan,nan,nan,nan,nan,nan,nan
1,329,6,1,1,nan,nan,nan,0,1389.489985565422,1801.7751337315422,nan,nan,nan,1,0,5,7,8,2,nan,nan,nan,nan,nan,nan,0.0,0.0,0.0,0.0,0.0,0.0,nan,nan,nan,nan,nan,nan,nan,nan,nan,nan,nan,nan,nan,nan,nan,nan,nan,nan,nan
1,330,6,1,1,nan,nan,nan,0,1389.489985565422,1802.7919367358554,nan,nan,nan,8,7,6,0,2,4,nan,nan,nan,nan,nan,nan,0.0,0.0,0.0,0.0,0.0,0.0,nan,nan,nan,nan,nan,nan,nan,nan,nan,nan,nan,nan,nan,nan,nan,nan,nan,nan,nan
1,331,6,1,1,nan,nan,nan,0,1389.489985565422,1803.8170522926375,nan,nan,nan,6,0,8,4,7,5,nan,nan,nan,nan,nan,nan,0.0,0.0,0.0,0.0,0.0,0.0,nan,nan,nan,nan,nan,nan,nan,nan,nan,nan,nan,nan,nan,nan,nan,nan,nan,nan,nan
1,332,6,1,1,nan,nan,nan,0,1389.489985565422,1804.8421803934034,nan,nan,nan,7,1,5,8,2,4,nan,nan,nan,nan,nan,nan,0.0,0.0,0.0,0.0,0.0,0.0,nan,nan,nan,nan,nan,nan,nan,nan,nan,nan,nan,nan,nan,nan,nan,nan,nan,nan,nan
1,333,6,1,1,nan,nan,nan,0,1389.489985565422,1805.8590096267872,nan,nan,nan,6,4,1,2,0,3,nan,nan,nan,nan,nan,nan,0.0,0.0,0.0,0.0,0.0,0.0,nan,nan,nan,nan,nan,nan,nan,nan,nan,nan,nan,nan,nan,nan,nan,nan,nan,nan,nan
1,334,6,0,0,nan,nan,nan,0,1389.489985565422,1806.884110928513,nan,nan,nan,0,6,8,3,5,1,nan,nan,nan,nan,nan,nan,0.0,0.0,0.0,0.0,0.0,0.0,nan,nan,nan,nan,nan,nan,nan,nan,nan,nan,nan,nan,nan,nan,nan,nan,nan,nan,nan
1,335,6,1,1,nan,nan,nan,0,1389.489985565422,1807.9093753055204,nan,nan,nan,4,8,7,1,3,2,nan,nan,nan,nan,nan,nan,0.0,0.0,0.0,0.0,0.0,0.0,nan,nan,nan,nan,nan,nan,nan,nan,nan,nan,nan,nan,nan,nan,nan,nan,nan,nan,nan
1,336,6,1,1,nan,nan,nan,0,1389.489985565422,1808.9260696882848,nan,nan,nan,2,3,1,6,0,4,nan,nan,nan,nan,nan,nan,0.0,0.0,0.0,0.0,0.0,0.0,nan,nan,nan,nan,nan,nan,nan,nan,nan,nan,nan,nan,nan,nan,nan,nan,nan,nan,nan
1,337,6,1,1,nan,nan,nan,0,1389.489985565422,1809.9428667058237,nan,nan,nan,6,1,8,0,5,2,nan,nan,nan,nan,nan,nan,0.0,0.0,0.0,0.0,0.0,0.0,nan,nan,nan,nan,nan,nan,nan,nan,nan,nan,nan,nan,nan,nan,nan,nan,nan,nan,nan
1,338,6,1,1,nan,nan,nan,0,1389.489985565422,1810.9596745567396,nan,nan,nan,7,2,1,5,3,8,nan,nan,nan,nan,nan,nan,0.0,0.0,0.0,0.0,0.0,0.0,nan,nan,nan,nan,nan,nan,nan,nan,nan,nan,nan,nan,nan,nan,nan,nan,nan,nan,nan
1,339,6,1,1,nan,nan,nan,0,1389.489985565422,1811.9764664424583,nan,nan,nan,6,0,3,1,5,4,nan,nan,nan,nan,nan,nan,0.0,0.0,0.0,0.0,0.0,0.0,nan,nan,nan,nan,nan,nan,nan,nan,nan,nan,nan,nan,nan,nan,nan,nan,nan,nan,nan
1,340,6,1,1,nan,nan,nan,0,1389.489985565422,1813.001618206501,nan,nan,nan,1,8,2,3,0,7,nan,nan,nan,nan,nan,nan,0.0,0.0,0.0,0.0,0.0,0.0,nan,nan,nan,nan,nan,nan,nan,nan,nan,nan,nan,nan,nan,nan,nan,nan,nan,nan,nan
1,341,6,1,1,1.0,1.0,0.5733793631661683,0,1389.489985565422,1814.026835542405,1814.6002149055712,nan,nan,4,7,6,5,2,3,nan,nan,nan,nan,nan,nan,0.0,0.0,0.0,0.0,0.0,0.0,nan,nan,nan,nan,nan,nan,nan,nan,nan,nan,nan,nan,nan,nan,nan,nan,nan,nan,nan
1,342,6,1,1,1.0,1.0,0.3726085766684264,0,1389.489985565422,1815.0435350569896,1815.416143633658,nan,nan,3,6,8,1,0,5,nan,nan,nan,nan,nan,nan,0.0,0.0,0.0,0.0,0.0,0.0,nan,nan,nan,nan,nan,nan,nan,nan,nan,nan,nan,nan,nan,nan,nan,nan,nan,nan,nan
1,343,6,1,1,1.0,1.0,0.17149168346077204,0,1389.489985565422,1816.0686343631241,1816.240126046585,nan,nan,5,1,6,0,2,7,nan,nan,nan,nan,nan,nan,0.0,0.0,0.0,0.0,0.0,0.0,nan,nan,nan,nan,nan,nan,nan,nan,nan,nan,nan,nan,nan,nan,nan,nan,nan,nan,nan
1,344,6,1,1,1.0,1.0,0.16264942265115678,0,1389.489985565422,1817.085465877084,1817.2481152997352,nan,nan,4,0,2,8,7,5,nan,nan,nan,nan,nan,nan,0.0,0.0,0.0,0.0,0.0,0.0,nan,nan,nan,nan,nan,nan,nan,nan,nan,nan,nan,nan,nan,nan,nan,nan,nan,nan,nan
1,345,6,1,1,1.0,1.0,0.28980321786366403,0,1389.489985565422,1818.1022691668477,1818.3920723847114,nan,nan,1,3,5,7,0,6,nan,nan,nan,nan,nan,nan,0.0,0.0,0.0,0.0,0.0,0.0,nan,nan,nan,nan,nan,nan,nan,nan,nan,nan,nan,nan,nan,nan,nan,nan,nan,nan,nan
1,346,6,1,1,1.0,1.0,0.13698705122806132,0,1389.489985565422,1819.1190704605542,1819.2560575117823,nan,nan,0,8,4,1,2,5,nan,nan,nan,nan,nan,nan,0.0,0.0,0.0,0.0,0.0,0.0,nan,nan,nan,nan,nan,nan,nan,nan,nan,nan,nan,nan,nan,nan,nan,nan,nan,nan,nan
1,347,6,1,1,1.0,1.0,0.40769423521123827,0,1389.489985565422,1820.1442966347095,1820.5519908699207,nan,nan,8,3,1,0,7,6,nan,nan,nan,nan,nan,nan,0.0,0.0,0.0,0.0,0.0,0.0,nan,nan,nan,nan,nan,nan,nan,nan,nan,nan,nan,nan,nan,nan,nan,nan,nan,nan,nan
1,348,6,1,1,1.0,1.0,0.11900602886453271,0,1389.489985565422,1821.1610012808815,1821.280007309746,nan,nan,4,5,8,1,6,3,nan,nan,nan,nan,nan,nan,0.0,0.0,0.0,0.0,0.0,0.0,nan,nan,nan,nan,nan,nan,nan,nan,nan,nan,nan,nan,nan,nan,nan,nan,nan,nan,nan
1,349,6,1,1,1.0,1.0,0.08618317940272391,0,1389.489985565422,1822.1778068512212,1822.263990030624,nan,nan,7,0,5,4,2,6,nan,nan,nan,nan,nan,nan,0.0,0.0,0.0,0.0,0.0,0.0,nan,nan,nan,nan,nan,nan,nan,nan,nan,nan,nan,nan,nan,nan,nan,nan,nan,nan,nan
1,350,6,1,1,1.0,1.0,0.1890456317923963,1,1389.489985565422,1823.2029152803589,1823.3919609121513,1825.028147555422,1833.6125869436655,5,3,4,1,0,7,1.0,1.0,1.0,1.0,1.0,1.0,0.0,0.0,1.0,1.0,1.0,0.0,3.0,4.0,3.0,2.0,1.0,6.0,5.0,0.0,4.0,4.0,1.0,0.0,4.0,7.154320334782824,6.794248866848648,6.320644363295287,5.857245166087523,8.552631481550634,8.02556344307959
1,351,6,1,1,1.0,1.0,0.36991384672001004,0,1389.489985565422,1834.837781072827,1835.207694919547,nan,nan,0,2,5,7,1,3,nan,nan,nan,nan,nan,nan,0.0,0.0,0.0,0.0,0.0,0.0,nan,nan,nan,nan,nan,nan,nan,nan,nan,nan,nan,nan,nan,nan,nan,nan,nan,nan,nan
1,352,6,1,1,1.0,1.0,0.3131095536518842,0,1389.489985565422,1835.8545487252995,1836.1676582789514,nan,nan,1,5,7,0,2,8,nan,nan,nan,nan,nan,nan,0.0,0.0,0.0,0.0,0.0,0.0,nan,nan,nan,nan,nan,nan,nan,nan,nan,nan,nan,nan,nan,nan,nan,nan,nan,nan,nan
1,353,6,1,1,1.0,1.0,0.05624179821461439,0,1389.489985565422,1836.8713819498662,1836.9276237480808,nan,nan,8,1,3,2,5,4,nan,nan,nan,nan,nan,nan,0.0,0.0,0.0,0.0,0.0,0.0,nan,nan,nan,nan,nan,nan,nan,nan,nan,nan,nan,nan,nan,nan,nan,nan,nan,nan,nan
1,354,6,1,1,1.0,1.0,0.4314319216646254,0,1389.489985565422,1837.8881766865961,1838.3196086082608,nan,nan,6,3,0,5,4,1,nan,nan,nan,nan,nan,nan,0.0,0.0,0.0,0.0,0.0,0.0,nan,nan,nan,nan,nan,nan,nan,nan,nan,nan,nan,nan,nan,nan,nan,nan,nan,nan,nan
1,355,6,1,1,nan,nan,nan,0,1389.489985565422,1838.9049617301207,nan,nan,nan,2,7,8,6,1,3,nan,nan,nan,nan,nan,nan,0.0,0.0,0.0,0.0,0.0,0.0,nan,nan,nan,nan,nan,nan,nan,nan,nan,nan,nan,nan,nan,nan,nan,nan,nan,nan,nan
1,356,6,0,0,1.0,0.0,0.22982152691110969,0,1389.489985565422,1839.921763879247,1840.1515854061581,nan,nan,3,6,2,7,8,5,nan,nan,nan,nan,nan,nan,0.0,0.0,0.0,0.0,0.0,0.0,nan,nan,nan,nan,nan,nan,nan,nan,nan,nan,nan,nan,nan,nan,nan,nan,nan,nan,nan
1,357,6,1,1,nan,nan,nan,0,1389.489985565422,1840.9385614667553,nan,nan,nan,0,8,6,4,5,7,nan,nan,nan,nan,nan,nan,0.0,0.0,0.0,0.0,0.0,0.0,nan,nan,nan,nan,nan,nan,nan,nan,nan,nan,nan,nan,nan,nan,nan,nan,nan,nan,nan
1,358,6,1,1,1.0,1.0,0.4281344981864095,0,1389.489985565422,1841.9553804367315,1842.383514934918,nan,nan,5,7,2,0,6,3,nan,nan,nan,nan,nan,nan,0.0,0.0,0.0,0.0,0.0,0.0,nan,nan,nan,nan,nan,nan,nan,nan,nan,nan,nan,nan,nan,nan,nan,nan,nan,nan,nan
1,359,6,1,1,1.0,1.0,0.14734374382533133,0,1389.489985565422,1842.9721583526116,1843.119502096437,nan,nan,7,1,4,2,3,5,nan,nan,nan,nan,nan,nan,0.0,0.0,0.0,0.0,0.0,0.0,nan,nan,nan,nan,nan,nan,nan,nan,nan,nan,nan,nan,nan,nan,nan,nan,nan,nan,nan
1,360,6,1,1,1.0,1.0,0.6184870111756027,0,1389.489985565422,1843.9889781777747,1844.6074651889503,nan,nan,6,4,8,0,5,1,nan,nan,nan,nan,nan,nan,0.0,0.0,0.0,0.0,0.0,0.0,nan,nan,nan,nan,nan,nan,nan,nan,nan,nan,nan,nan,nan,nan,nan,nan,nan,nan,nan
1,361,6,1,1,1.0,1.0,0.19335400662384927,0,1389.489985565422,1845.0140991513617,1845.2074531579856,nan,nan,5,6,0,1,2,4,nan,nan,nan,nan,nan,nan,0.0,0.0,0.0,0.0,0.0,0.0,nan,nan,nan,nan,nan,nan,nan,nan,nan,nan,nan,nan,nan,nan,nan,nan,nan,nan,nan
1,362,6,1,1,1.0,1.0,0.20020829141139984,0,1389.489985565422,1846.039231528528,1846.2394398199394,nan,nan,3,8,7,5,4,1,nan,nan,nan,nan,nan,nan,0.0,0.0,0.0,0.0,0.0,0.0,nan,nan,nan,nan,nan,nan,nan,nan,nan,nan,nan,nan,nan,nan,nan,nan,nan,nan,nan
1,363,6,1,1,1.0,1.0,0.24737176881171763,0,1389.489985565422,1847.056031682063,1847.3034034508746,nan,nan,5,6,8,0,7,4,nan,nan,nan,nan,nan,nan,0.0,0.0,0.0,0.0,0.0,0.0,nan,nan,nan,nan,nan,nan,nan,nan,nan,nan,nan,nan,nan,nan,nan,nan,nan,nan,nan
1,364,6,1,1,nan,nan,nan,0,1389.489985565422,1848.0728372524027,nan,nan,nan,1,0,5,4,6,7,nan,nan,nan,nan,nan,nan,0.0,0.0,0.0,0.0,0.0,0.0,nan,nan,nan,nan,nan,nan,nan,nan,nan,nan,nan,nan,nan,nan,nan,nan,nan,nan,nan
1,365,6,1,1,1.0,1.0,0.7413697792217135,0,1389.489985565422,1849.0979750466067,1849.8393448258284,nan,nan,2,4,3,0,5,8,nan,nan,nan,nan,nan,nan,0.0,0.0,0.0,0.0,0.0,0.0,nan,nan,nan,nan,nan,nan,nan,nan,nan,nan,nan,nan,nan,nan,nan,nan,nan,nan,nan
1,366,6,1,1,1.0,1.0,0.21222566976211965,0,1389.489985565422,1850.1231142662,1850.335339935962,nan,nan,7,6,8,2,0,5,nan,nan,nan,nan,nan,nan,0.0,0.0,0.0,0.0,0.0,0.0,nan,nan,nan,nan,nan,nan,nan,nan,nan,nan,nan,nan,nan,nan,nan,nan,nan,nan,nan
1,367,6,1,1,1.0,1.0,0.0030120420269668102,0,1389.489985565422,1851.1483244749252,1851.1513365169521,nan,nan,3,1,2,8,7,4,nan,nan,nan,nan,nan,nan,0.0,0.0,0.0,0.0,0.0,0.0,nan,nan,nan,nan,nan,nan,nan,nan,nan,nan,nan,nan,nan,nan,nan,nan,nan,nan,nan
1,368,6,1,1,1.0,1.0,0.05787539971061051,1,1389.489985565422,1852.1733673319686,1852.2312427316792,1853.9902568345424,1860.2993921460584,7,5,8,0,3,6,1.0,1.0,1.0,1.0,1.0,1.0,0.0,0.0,0.0,0.0,0.0,0.0,0.0,4.0,3.0,2.0,1.0,6.0,5.0,1.0,6.0,7.0,3.0,0.0,5.0,4.950642421841621,4.262981360079721,3.983265133574605,3.6474433848634362,6.27787250909023,5.750346320681274
1,369,6,1,1,1.0,1.0,0.31415158067829907,0,1389.489985565422,1861.5329213500954,1861.8470729307737,nan,nan,5,0,1,8,4,2,nan,nan,nan,nan,nan,nan,0.0,0.0,0.0,0.0,0.0,0.0,nan,nan,nan,nan,nan,nan,nan,nan,nan,nan,nan,nan,nan,nan,nan,nan,nan,nan,nan
1,370,6,1,1,nan,nan,nan,0,1389.489985565422,1862.5580568634905,nan,nan,nan,0,6,3,2,7,1,nan,nan,nan,nan,nan,nan,0.0,0.0,0.0,0.0,0.0,0.0,nan,nan,nan,nan,nan,nan,nan,nan,nan,nan,nan,nan,nan,nan,nan,nan,nan,nan,nan
1,371,6,1,1,nan,nan,nan,0,1389.489985565422,1863.5748598680366,nan,nan,nan,8,3,7,5,0,2,nan,nan,nan,nan,nan,nan,0.0,0.0,0.0,0.0,0.0,0.0,nan,nan,nan,nan,nan,nan,nan,nan,nan,nan,nan,nan,nan,nan,nan,nan,nan,nan,nan
1,372,6,1,1,nan,nan,nan,0,1389.489985565422,1864.5916483325418,nan,nan,nan,7,4,2,8,5,1,nan,nan,nan,nan,nan,nan,0.0,0.0,0.0,0.0,0.0,0.0,nan,nan,nan,nan,nan,nan,nan,nan,nan,nan,nan,nan,nan,nan,nan,nan,nan,nan,nan
1,373,6,1,1,nan,nan,nan,0,1389.489985565422,1865.6167926839553,nan,nan,nan,2,8,4,1,6,7,nan,nan,nan,nan,nan,nan,0.0,0.0,0.0,0.0,0.0,0.0,nan,nan,nan,nan,nan,nan,nan,nan,nan,nan,nan,nan,nan,nan,nan,nan,nan,nan,nan
1,374,6,1,1,nan,nan,nan,0,1389.489985565422,1866.6335871354677,nan,nan,nan,7,1,8,0,2,5,nan,nan,nan,nan,nan,nan,0.0,0.0,0.0,0.0,0.0,0.0,nan,nan,nan,nan,nan,nan,nan,nan,nan,nan,nan,nan,nan,nan,nan,nan,nan,nan,nan
1,375,6,1,1,nan,nan,nan,0,1389.489985565422,1867.6503855783958,nan,nan,nan,1,4,3,2,5,6,nan,nan,nan,nan,nan,nan,0.0,0.0,0.0,0.0,0.0,0.0,nan,nan,nan,nan,nan,nan,nan,nan,nan,nan,nan,nan,nan,nan,nan,nan,nan,nan,nan
1,376,6,1,1,1.0,1.0,0.5156941225286573,0,1389.489985565422,1868.6671905785333,1869.182884701062,nan,nan,5,6,4,1,8,0,nan,nan,nan,nan,nan,nan,0.0,0.0,0.0,0.0,0.0,0.0,nan,nan,nan,nan,nan,nan,nan,nan,nan,nan,nan,nan,nan,nan,nan,nan,nan,nan,nan
1,377,6,1,1,nan,nan,nan,0,1389.489985565422,1869.6839918724727,nan,nan,nan,7,4,0,5,1,8,nan,nan,nan,nan,nan,nan,0.0,0.0,0.0,0.0,0.0,0.0,nan,nan,nan,nan,nan,nan,nan,nan,nan,nan,nan,nan,nan,nan,nan,nan,nan,nan,nan
1,378,6,0,0,nan,nan,nan,0,1389.489985565422,1870.709118832834,nan,nan,nan,8,1,5,2,3,7,nan,nan,nan,nan,nan,nan,0.0,0.0,0.0,0.0,0.0,0.0,nan,nan,nan,nan,nan,nan,nan,nan,nan,nan,nan,nan,nan,nan,nan,nan,nan,nan,nan
1,379,6,1,1,1.0,1.0,0.7208992962259799,1,1389.489985565422,1871.7259132845793,1872.4468125808053,1873.5511495508254,1879.7185985692777,0,2,3,7,1,6,1.0,1.0,1.0,1.0,1.0,1.0,0.0,0.0,0.0,0.0,1.0,0.0,1.0,5.0,4.0,3.0,2.0,1.0,6.0,5.0,3.0,8.0,3.0,1.0,5.0,5.652707687811926,5.22183084837161,4.878286696970463,4.350673554232344,4.038827832322568,6.140762296272442
1,380,6,0,0,nan,nan,nan,0,1389.489985565422,1880.9521126630716,nan,nan,nan,5,6,4,1,0,3,nan,nan,nan,nan,nan,nan,0.0,0.0,0.0,0.0,0.0,0.0,nan,nan,nan,nan,nan,nan,nan,nan,nan,nan,nan,nan,nan,nan,nan,nan,nan,nan,nan
1,381,6,1,1,nan,nan,nan,0,1389.489985565422,1881.9688783199526,nan,nan,nan,8,5,2,4,7,0,nan,nan,nan,nan,nan,nan,0.0,0.0,0.0,0.0,0.0,0.0,nan,nan,nan,nan,nan,nan,nan,nan,nan,nan,nan,nan,nan,nan,nan,nan,nan,nan,nan
1,382,6,1,1,nan,nan,nan,0,1389.489985565422,1882.985727795167,nan,nan,nan,0,8,6,3,1,7,nan,nan,nan,nan,nan,nan,0.0,0.0,0.0,0.0,0.0,0.0,nan,nan,nan,nan,nan,nan,nan,nan,nan,nan,nan,nan,nan,nan,nan,nan,nan,nan,nan
1,383,6,1,1,1.0,1.0,0.19608180783689022,0,1389.489985565422,1884.0025097024627,1884.1985915102996,nan,nan,8,3,4,1,7,2,nan,nan,nan,nan,nan,nan,0.0,0.0,0.0,0.0,0.0,0.0,nan,nan,nan,nan,nan,nan,nan,nan,nan,nan,nan,nan,nan,nan,nan,nan,nan,nan,nan
1,384,6,1,1,1.0,1.0,0.2352776995394379,0,1389.489985565422,1885.0193081453908,1885.2545858449303,nan,nan,4,6,7,3,0,5,nan,nan,nan,nan,nan,nan,0.0,0.0,0.0,0.0,0.0,0.0,nan,nan,nan,nan,nan,nan,nan,nan,nan,nan,nan,nan,nan,nan,nan,nan,nan,nan,nan
1,385,6,1,1,1.0,1.0,0.2644353511277586,0,1389.489985565422,1886.0780636374839,1886.3424989886116,nan,nan,5,4,6,0,3,8,nan,nan,nan,nan,nan,nan,0.0,0.0,0.0,0.0,0.0,0.0,nan,nan,nan,nan,nan,nan,nan,nan,nan,nan,nan,nan,nan,nan,nan,nan,nan,nan,nan
1,386,6,1,1,1.0,1.0,0.31156376167200506,0,1389.489985565422,1887.1029106334317,1887.4144743951038,nan,nan,2,5,3,7,4,0,nan,nan,nan,nan,nan,nan,0.0,0.0,0.0,0.0,0.0,0.0,nan,nan,nan,nan,nan,nan,nan,nan,nan,nan,nan,nan,nan,nan,nan,nan,nan,nan,nan
1,387,6,0,0,nan,nan,nan,0,1389.489985565422,1888.1197199099697,nan,nan,nan,1,2,6,3,8,7,nan,nan,nan,nan,nan,nan,0.0,0.0,0.0,0.0,0.0,0.0,nan,nan,nan,nan,nan,nan,nan,nan,nan,nan,nan,nan,nan,nan,nan,nan,nan,nan,nan
1,388,6,1,1,nan,nan,nan,0,1389.489985565422,1889.1365300416946,nan,nan,nan,4,5,7,2,6,3,nan,nan,nan,nan,nan,nan,0.0,0.0,0.0,0.0,0.0,0.0,nan,nan,nan,nan,nan,nan,nan,nan,nan,nan,nan,nan,nan,nan,nan,nan,nan,nan,nan
1,389,6,1,1,nan,nan,nan,0,1389.489985565422,1890.1616390412673,nan,nan,nan,3,0,1,6,5,4,nan,nan,nan,nan,nan,nan,0.0,0.0,0.0,0.0,0.0,0.0,nan,nan,nan,nan,nan,nan,nan,nan,nan,nan,nan,nan,nan,nan,nan,nan,nan,nan,nan
1,390,6,1,1,nan,nan,nan,0,1389.489985565422,1891.1784334927797,nan,nan,nan,1,2,4,7,0,3,nan,nan,nan,nan,nan,nan,0.0,0.0,0.0,0.0,0.0,0.0,nan,nan,nan,nan,nan,nan,nan,nan,nan,nan,nan,nan,nan,nan,nan,nan,nan,nan,nan
1,391,6,0,0,nan,nan,nan,0,1389.489985565422,1892.195257024141,nan,nan,nan,2,1,6,3,7,8,nan,nan,nan,nan,nan,nan,0.0,0.0,0.0,0.0,0.0,0.0,nan,nan,nan,nan,nan,nan,nan,nan,nan,nan,nan,nan,nan,nan,nan,nan,nan,nan,nan
1,392,6,1,1,nan,nan,nan,0,1389.489985565422,1893.212050905684,nan,nan,nan,6,5,8,1,3,2,nan,nan,nan,nan,nan,nan,0.0,0.0,0.0,0.0,0.0,0.0,nan,nan,nan,nan,nan,nan,nan,nan,nan,nan,nan,nan,nan,nan,nan,nan,nan,nan,nan
1,393,6,1,1,nan,nan,nan,0,1389.489985565422,1894.2371750150342,nan,nan,nan,0,8,1,2,4,3,nan,nan,nan,nan,nan,nan,0.0,0.0,0.0,0.0,0.0,0.0,nan,nan,nan,nan,nan,nan,nan,nan,nan,nan,nan,nan,nan,nan,nan,nan,nan,nan,nan
1,394,6,1,1,1.0,1.0,0.05632618651725352,1,1389.489985565422,1895.253982010996,1895.3103081975132,1897.0791943292134,1902.4131940277293,8,1,7,4,3,0,1.0,1.0,1.0,1.0,1.0,1.0,0.0,0.0,1.0,0.0,0.0,0.0,1.0,4.0,3.0,2.0,1.0,6.0,5.0,4.0,4.0,7.0,1.0,2.0,4.0,4.333097938913852,3.8768589347600937,3.3256093149539083,2.7253459428902715,5.300104601774365,4.812337655574083
1,395,6,1,1,nan,nan,nan,0,1389.489985565422,1903.6550386347808,nan,nan,nan,5,6,8,0,7,2,nan,nan,nan,nan,nan,nan,0.0,0.0,0.0,0.0,0.0,0.0,nan,nan,nan,nan,nan,nan,nan,nan,nan,nan,nan,nan,nan,nan,nan,nan,nan,nan,nan
1,396,6,1,1,1.0,1.0,0.6301822306122631,0,1389.489985565422,1904.671872144565,1905.3020543751772,nan,nan,8,0,5,1,4,7,nan,nan,nan,nan,nan,nan,0.0,0.0,0.0,0.0,0.0,0.0,nan,nan,nan,nan,nan,nan,nan,nan,nan,nan,nan,nan,nan,nan,nan,nan,nan,nan,nan
1,397,6,1,1,nan,nan,nan,0,1389.489985565422,1905.688651486067,nan,nan,nan,7,2,3,8,1,0,nan,nan,nan,nan,nan,nan,0.0,0.0,0.0,0.0,0.0,0.0,nan,nan,nan,nan,nan,nan,nan,nan,nan,nan,nan,nan,nan,nan,nan,nan,nan,nan,nan
1,398,6,1,1,1.0,1.0,0.4685283643193543,0,1389.489985565422,1906.705475302413,1907.1740036667325,nan,nan,0,8,1,4,6,3,nan,nan,nan,nan,nan,nan,0.0,0.0,0.0,0.0,0.0,0.0,nan,nan,nan,nan,nan,nan,nan,nan,nan,nan,nan,nan,nan,nan,nan,nan,nan,nan,nan
1,399,6,1,1,1.0,1.0,0.7557067009620368,1,1389.489985565422,1907.7222726049367,1908.4779793058988,1909.539146427298,1919.0653779935092,8,4,2,7,5,6,1.0,1.0,1.0,1.0,1.0,1.0,0.0,1.0,0.0,0.0,0.0,0.0,1.0,4.0,3.0,2.0,1.0,6.0,5.0,4.0,4.0,4.0,6.0,8.0,8.0,8.600386248435825,7.592365634860471,6.816884086001664,6.1677446633111686,9.49618099280633,8.960528990486637
1,400,6,1,1,nan,nan,nan,0,1389.489985565422,1920.2989103335422,nan,nan,nan,2,3,6,1,0,8,nan,nan,nan,nan,nan,nan,0.0,0.0,0.0,0.0,0.0,0.0,nan,nan,nan,nan,nan,nan,nan,nan,nan,nan,nan,nan,nan,nan,nan,nan,nan,nan,nan
1,401,6,1,1,nan,nan,nan,0,1389.489985565422,1921.3157116272487,nan,nan,nan,5,4,1,7,2,0,nan,nan,nan,nan,nan,nan,0.0,0.0,0.0,0.0,0.0,0.0,nan,nan,nan,nan,nan,nan,nan,nan,nan,nan,nan,nan,nan,nan,nan,nan,nan,nan,nan
1,402,6,1,1,1.0,1.0,0.16116663673892617,0,1389.489985565422,1922.332503798185,1922.4936704349238,nan,nan,7,8,6,1,0,3,nan,nan,nan,nan,nan,nan,0.0,0.0,0.0,0.0,0.0,0.0,nan,nan,nan,nan,nan,nan,nan,nan,nan,nan,nan,nan,nan,nan,nan,nan,nan,nan,nan
1,403,6,1,1,nan,nan,nan,0,1389.489985565422,1923.3576330393553,nan,nan,nan,3,2,1,4,6,7,nan,nan,nan,nan,nan,nan,0.0,0.0,0.0,0.0,0.0,0.0,nan,nan,nan,nan,nan,nan,nan,nan,nan,nan,nan,nan,nan,nan,nan,nan,nan,nan,nan
1,404,6,1,1,nan,nan,nan,0,1389.489985565422,1924.3744166572578,nan,nan,nan,4,5,8,2,0,3,nan,nan,nan,nan,nan,nan,0.0,0.0,0.0,0.0,0.0,0.0,nan,nan,nan,nan,nan,nan,nan,nan,nan,nan,nan,nan,nan,nan,nan,nan,nan,nan,nan
1,405,6,0,0,nan,nan,nan,0,1389.489985565422,1925.391234201612,nan,nan,nan,6,0,2,5,7,1,nan,nan,nan,nan,nan,nan,0.0,0.0,0.0,0.0,0.0,0.0,nan,nan,nan,nan,nan,nan,nan,nan,nan,nan,nan,nan,nan,nan,nan,nan,nan,nan,nan
1,406,6,1,1,1.0,1.0,0.40547390561550856,0,1389.489985565422,1926.4080343551468,1926.8135082607623,nan,nan,2,1,8,7,0,4,nan,nan,nan,nan,nan,nan,0.0,0.0,0.0,0.0,0.0,0.0,nan,nan,nan,nan,nan,nan,nan,nan,nan,nan,nan,nan,nan,nan,nan,nan,nan,nan,nan
1,407,6,1,1,1.0,1.0,0.4127156361937523,0,1389.489985565422,1927.4248288066592,1927.837544442853,nan,nan,1,8,0,2,3,7,nan,nan,nan,nan,nan,nan,0.0,0.0,0.0,0.0,0.0,0.0,nan,nan,nan,nan,nan,nan,nan,nan,nan,nan,nan,nan,nan,nan,nan,nan,nan,nan,nan
1,408,6,1,1,1.0,1.0,0.29991102148778737,0,1389.489985565422,1928.4416047269478,1928.7415157484356,nan,nan,0,5,2,7,8,4,nan,nan,nan,nan,nan,nan,0.0,0.0,0.0,0.0,0.0,0.0,nan,nan,nan,nan,nan,nan,nan,nan,nan,nan,nan,nan,nan,nan,nan,nan,nan,nan,nan
1,409,6,1,1,1.0,1.0,0.13105476764030755,0,1389.489985565422,1929.458449640777,1929.5895044084173,nan,nan,1,2,8,6,0,3,nan,nan,nan,nan,nan,nan,0.0,0.0,0.0,0.0,0.0,0.0,nan,nan,nan,nan,nan,nan,nan,nan,nan,nan,nan,nan,nan,nan,nan,nan,nan,nan,nan
1,410,6,1,1,1.0,1.0,0.07392860110849142,0,1389.489985565422,1930.483553223312,1930.5574818244204,nan,nan,0,7,6,1,4,2,nan,nan,nan,nan,nan,nan,0.0,0.0,0.0,0.0,0.0,0.0,nan,nan,nan,nan,nan,nan,nan,nan,nan,nan,nan,nan,nan,nan,nan,nan,nan,nan,nan
1,411,6,1,1,1.0,1.0,0.32908748951740563,0,1389.489985565422,1931.500363925239,1931.8294514147565,nan,nan,4,0,1,2,7,5,nan,nan,nan,nan,nan,nan,0.0,0.0,0.0,0.0,0.0,0.0,nan,nan,nan,nan,nan,nan,nan,nan,nan,nan,nan,nan,nan,nan,nan,nan,nan,nan,nan
1,412,6,0,0,nan,nan,nan,0,1389.489985565422,1932.5254749204032,nan,nan,nan,6,2,3,5,0,1,nan,nan,nan,nan,nan,nan,0.0,0.0,0.0,0.0,0.0,0.0,nan,nan,nan,nan,nan,nan,nan,nan,nan,nan,nan,nan,nan,nan,nan,nan,nan,nan,nan
1,413,6,1,1,1.0,1.0,0.3427199381403625,0,1389.489985565422,1933.5506238334347,1933.893343771575,nan,nan,2,5,8,3,1,4,nan,nan,nan,nan,nan,nan,0.0,0.0,0.0,0.0,0.0,0.0,nan,nan,nan,nan,nan,nan,nan,nan,nan,nan,nan,nan,nan,nan,nan,nan,nan,nan,nan
1,414,6,1,1,1.0,1.0,0.07794988411478698,0,1389.489985565422,1934.567423701752,1934.6453735858668,nan,nan,1,6,4,7,5,8,nan,nan,nan,nan,nan,nan,0.0,0.0,0.0,0.0,0.0,0.0,nan,nan,nan,nan,nan,nan,nan,nan,nan,nan,nan,nan,nan,nan,nan,nan,nan,nan,nan
1,415,6,0,0,nan,nan,nan,0,1389.489985565422,1935.5925671977457,nan,nan,nan,5,0,7,8,1,6,nan,nan,nan,nan,nan,nan,0.0,0.0,0.0,0.0,0.0,0.0,nan,nan,nan,nan,nan,nan,nan,nan,nan,nan,nan,nan,nan,nan,nan,nan,nan,nan,nan
1,416,6,1,1,nan,nan,nan,0,1389.489985565422,1936.609363930067,nan,nan,nan,1,2,3,0,5,7,nan,nan,nan,nan,nan,nan,0.0,0.0,0.0,0.0,0.0,0.0,nan,nan,nan,nan,nan,nan,nan,nan,nan,nan,nan,nan,nan,nan,nan,nan,nan,nan,nan
1,417,6,1,1,1.0,1.0,0.307158739073202,0,1389.489985565422,1937.6261498287786,1937.9333085678518,nan,nan,6,8,0,5,2,4,nan,nan,nan,nan,nan,nan,0.0,0.0,0.0,0.0,0.0,0.0,nan,nan,nan,nan,nan,nan,nan,nan,nan,nan,nan,nan,nan,nan,nan,nan,nan,nan,nan
1,418,6,1,1,1.0,1.0,0.05829420639201999,0,1389.489985565422,1938.642941144295,1938.701235350687,nan,nan,8,1,7,6,4,2,nan,nan,nan,nan,nan,nan,0.0,0.0,0.0,0.0,0.0,0.0,nan,nan,nan,nan,nan,nan,nan,nan,nan,nan,nan,nan,nan,nan,nan,nan,nan,nan,nan
1,419,6,1,1,1.0,1.0,0.4655143264681101,0,1389.489985565422,1939.6597447190434,1940.1252590455115,nan,nan,7,2,5,1,6,3,nan,nan,nan,nan,nan,nan,0.0,0.0,0.0,0.0,0.0,0.0,nan,nan,nan,nan,nan,nan,nan,nan,nan,nan,nan,nan,nan,nan,nan,nan,nan,nan,nan
1,420,6,1,1,nan,nan,nan,0,1389.489985565422,1940.684899048647,nan,nan,nan,1,0,6,5,3,4,nan,nan,nan,nan,nan,nan,0.0,0.0,0.0,0.0,0.0,0.0,nan,nan,nan,nan,nan,nan,nan,nan,nan,nan,nan,nan,nan,nan,nan,nan,nan,nan,nan
1,421,6,1,1,nan,nan,nan,0,1389.489985565422,1941.701699772384,nan,nan,nan,8,7,2,0,6,5,nan,nan,nan,nan,nan,nan,0.0,0.0,0.0,0.0,0.0,0.0,nan,nan,nan,nan,nan,nan,nan,nan,nan,nan,nan,nan,nan,nan,nan,nan,nan,nan,nan
1,422,6,1,1,1.0,1.0,0.19067723769694567,0,1389.489985565422,1942.7185004961211,1942.909177733818,nan,nan,6,3,1,2,5,8,nan,nan,nan,nan,nan,nan,0.0,0.0,0.0,0.0,0.0,0.0,nan,nan,nan,nan,nan,nan,nan,nan,nan,nan,nan,nan,nan,nan,nan,nan,nan,nan,nan
1,423,6,1,1,nan,nan,nan,0,1389.489985565422,1943.7352909564506,nan,nan,nan,1,8,0,4,7,2,nan,nan,nan,nan,nan,nan,0.0,0.0,0.0,0.0,0.0,0.0,nan,nan,nan,nan,nan,nan,nan,nan,nan,nan,nan,nan,nan,nan,nan,nan,nan,nan,nan
1,424,6,1,1,1.0,1.0,0.6050321774091572,0,1389.489985565422,1944.7520942459814,1945.3571264233906,nan,nan,6,5,1,7,8,0,nan,nan,nan,nan,nan,nan,0.0,0.0,0.0,0.0,0.0,0.0,nan,nan,nan,nan,nan,nan,nan,nan,nan,nan,nan,nan,nan,nan,nan,nan,nan,nan,nan
1,425,6,1,1,1.0,1.0,0.39618233288638294,0,1389.489985565422,1945.7688912632875,1946.165073596174,nan,nan,5,3,6,0,1,7,nan,nan,nan,nan,nan,nan,0.0,0.0,0.0,0.0,0.0,0.0,nan,nan,nan,nan,nan,nan,nan,nan,nan,nan,nan,nan,nan,nan,nan,nan,nan,nan,nan
1,426,6,1,1,nan,nan,nan,0,1389.489985565422,1946.7856948380359,nan,nan,nan,6,1,3,7,2,4,nan,nan,nan,nan,nan,nan,0.0,0.0,0.0,0.0,0.0,0.0,nan,nan,nan,nan,nan,nan,nan,nan,nan,nan,nan,nan,nan,nan,nan,nan,nan,nan,nan
1,427,6,1,1,nan,nan,nan,0,1389.489985565422,1947.80248558335,nan,nan,nan,1,7,8,2,6,5,nan,nan,nan,nan,nan,nan,0.0,0.0,0.0,0.0,0.0,0.0,nan,nan,nan,nan,nan,nan,nan,nan,nan,nan,nan,nan,nan,nan,nan,nan,nan,nan,nan
1,428,6,1,1,nan,nan,nan,0,1389.489985565422,1948.819285736885,nan,nan,nan,0,5,7,1,3,2,nan,nan,nan,nan,nan,nan,0.0,0.0,0.0,0.0,0.0,0.0,nan,nan,nan,nan,nan,nan,nan,nan,nan,nan,nan,nan,nan,nan,nan,nan,nan,nan,nan
1,429,6,0,0,nan,nan,nan,0,1389.489985565422,1949.8360870305914,nan,nan,nan,5,1,2,0,4,8,nan,nan,nan,nan,nan,nan,0.0,0.0,0.0,0.0,0.0,0.0,nan,nan,nan,nan,nan,nan,nan,nan,nan,nan,nan,nan,nan,nan,nan,nan,nan,nan,nan
1,430,6,1,1,nan,nan,nan,0,1389.489985565422,1950.8528715039138,nan,nan,nan,6,4,7,1,5,2,nan,nan,nan,nan,nan,nan,0.0,0.0,0.0,0.0,0.0,0.0,nan,nan,nan,nan,nan,nan,nan,nan,nan,nan,nan,nan,nan,nan,nan,nan,nan,nan,nan
1,431,6,1,1,nan,nan,nan,0,1389.489985565422,1951.8697024479043,nan,nan,nan,4,0,2,3,1,8,nan,nan,nan,nan,nan,nan,0.0,0.0,0.0,0.0,0.0,0.0,nan,nan,nan,nan,nan,nan,nan,nan,nan,nan,nan,nan,nan,nan,nan,nan,nan,nan,nan
1,432,6,1,1,1.0,1.0,0.11848145187832415,1,1389.489985565422,1952.8864800785668,1953.0049615304451,1954.7200266164728,1964.5463000631426,6,8,1,4,2,7,1.0,1.0,1.0,1.0,1.0,1.0,0.0,0.0,0.0,1.0,0.0,0.0,1.0,2.0,3.0,4.0,5.0,6.0,1.0,1.0,6.0,4.0,4.0,7.0,8.0,7.5559916261117905,8.010021989466622,8.865691428305581,9.314272746443748,9.793748808093369,7.181052387226373
1,433,6,1,1,nan,nan,nan,0,1389.489985565422,1965.7881489468273,nan,nan,nan,3,6,5,7,4,8,nan,nan,nan,nan,nan,nan,0.0,0.0,0.0,0.0,0.0,0.0,nan,nan,nan,nan,nan,nan,nan,nan,nan,nan,nan,nan,nan,nan,nan,nan,nan,nan,nan
