block,trial,freq_trials,correct_response,actual_response,acc,rts,probe_trials,fast_rt_trigger,slow_rt_trigger,rt_triggered,rts_runningavg,rts_runningstd,rts_runningfastthresh,rts_runningslowthresh,rts_runningstd,rts_trailingavg,trials_colorind0,trials_colorind1,trials_colorind2,trials_colorind3,trials_colorind4,trials_colorind5,wholereport_resp0,wholereport_resp1,wholereport_resp2,wholereport_resp3,wholereport_resp4,wholereport_resp5,wholereport_respacc0,wholereport_respacc1,wholereport_respacc2,wholereport_respacc3,wholereport_respacc4,wholereport_respacc5,wholereport_respacc_total,wholereport_respcolorind0,wholereport_respcolorind1,wholereport_respcolorind2,wholereport_respcolorind3,wholereport_respcolorind4,wholereport_respcolorind5,wholereport_resporder0,wholereport_resporder1,wholereport_resporder2,wholereport_resporder3,wholereport_resporder4,wholereport_resporder5,wholereport_rts0,wholereport_rts1,wholereport_rts2,wholereport_rts3,wholereport_rts4,wholereport_rts5,time_blockstart,time_encarray_offset,time_encarray_onset,time_response,time_iti_offset,time_iti_onset,time_memprobe_offset,time_memprobe_onset
1,1,1,1,1.0,1.0,0.3127046807203442,0,nan,nan,nan,nan,nan,nan,nan,nan,nan,4,0,7,3,8,6,nan,nan,nan,nan,nan,nan,nan,nan,nan,nan,nan,nan,0.0,nan,nan,nan,nan,nan,nan,nan,nan,nan,nan,nan,nan,nan,nan,nan,nan,nan,nan,571.1167448826018,572.1400294845807,nan,572.4527341653011,nan,nan,nan,nan
1,2,1,1,1.0,1.0,0.7275171577348374,0,nan,nan,nan,nan,nan,nan,nan,nan,nan,3,0,1,5,7,2,nan,nan,nan,nan,nan,nan,nan,nan,nan,nan,nan,nan,0.0,nan,nan,nan,nan,nan,nan,nan,nan,nan,nan,nan,nan,nan,nan,nan,nan,nan,nan,571.1167448826018,573.1651734791812,nan,573.8926906369161,nan,nan,nan,nan
1,3,1,1,1.0,1.0,0.518314105051104,0,nan,nan,nan,nan,nan,nan,nan,nan,nan,2,8,4,1,6,3,nan,nan,nan,nan,nan,nan,nan,nan,nan,nan,nan,nan,0.0,nan,nan,nan,nan,nan,nan,nan,nan,nan,nan,nan,nan,nan,nan,nan,nan,nan,nan,571.1167448826018,574.1903294477961,nan,574.7086435528472,nan,nan,nan,nan
1,4,0,0,0.0,1.0,0.5412101218826137,0,nan,nan,nan,nan,nan,nan,nan,nan,nan,8,4,6,7,0,5,nan,nan,nan,nan,nan,nan,nan,nan,nan,nan,nan,nan,0.0,nan,nan,nan,nan,nan,nan,nan,nan,nan,nan,nan,nan,nan,nan,nan,nan,nan,nan,571.1167448826018,575.2154087257222,nan,575.7566188476048,nan,nan,nan,nan
1,5,1,1,1.0,1.0,0.3240745729999617,0,nan,nan,nan,nan,nan,nan,nan,nan,nan,3,2,4,0,5,7,nan,nan,nan,nan,nan,nan,nan,nan,nan,nan,nan,nan,0.0,nan,nan,nan,nan,nan,nan,nan,nan,nan,nan,nan,nan,nan,nan,nan,nan,nan,nan,571.1167448826018,576.240517938626,nan,576.564592511626,nan,nan,nan,nan
1,6,1,1,1.0,1.0,0.306972551275976,0,nan,nan,nan,nan,nan,nan,nan,nan,nan,0,1,8,2,7,3,nan,nan,nan,nan,nan,nan,nan,nan,nan,nan,nan,nan,0.0,nan,nan,nan,nan,nan,nan,nan,nan,nan,nan,nan,nan,nan,nan,nan,nan,nan,nan,571.1167448826018,577.2656297174399,nan,577.5726022687159,nan,nan,nan,nan
1,7,0,0,0.0,1.0,0.4737710746121593,0,nan,nan,nan,nan,nan,nan,nan,nan,nan,7,2,3,4,6,1,nan,nan,nan,nan,nan,nan,nan,nan,nan,nan,nan,nan,0.0,nan,nan,nan,nan,nan,nan,nan,nan,nan,nan,nan,nan,nan,nan,nan,nan,nan,nan,571.1167448826018,578.2907990855165,nan,578.7645701601286,nan,nan,nan,nan
1,8,1,1,1.0,1.0,0.44870263029588386,0,nan,nan,nan,nan,nan,nan,nan,nan,nan,6,0,1,3,8,5,nan,nan,nan,nan,nan,nan,nan,nan,nan,nan,nan,nan,0.0,nan,nan,nan,nan,nan,nan,nan,nan,nan,nan,nan,nan,nan,nan,nan,nan,nan,nan,571.1167448826018,579.3159259743989,nan,579.7646286046947,nan,nan,nan,nan
1,9,1,1,1.0,1.0,0.535442640655674,0,nan,nan,nan,nan,nan,nan,nan,nan,nan,4,1,7,0,5,8,nan,nan,nan,nan,nan,nan,nan,nan,nan,nan,nan,nan,0.0,nan,nan,nan,nan,nan,nan,nan,nan,nan,nan,nan,nan,nan,nan,nan,nan,nan,nan,571.1167448826018,580.341033191653,nan,580.8764758323086,nan,nan,nan,nan
1,10,1,1,1.0,1.0,0.3503318654256873,0,nan,nan,nan,nan,nan,nan,nan,nan,nan,0,7,8,3,1,5,nan,nan,nan,nan,nan,nan,nan,nan,nan,nan,nan,nan,0.0,nan,nan,nan,nan,nan,nan,nan,nan,nan,nan,nan,nan,nan,nan,nan,nan,nan,nan,571.1167448826018,581.3661327113514,nan,581.7164645767771,nan,nan,nan,nan
1,11,1,1,1.0,1.0,0.317196074698586,0,nan,nan,nan,nan,nan,nan,nan,nan,nan,8,3,5,6,2,0,nan,nan,nan,nan,nan,nan,nan,nan,nan,nan,nan,nan,0.0,nan,nan,nan,nan,nan,nan,nan,nan,nan,nan,nan,nan,nan,nan,nan,nan,nan,nan,571.1167448826018,582.39125446853,nan,582.7084505432285,nan,nan,nan,nan
1,12,1,1,1.0,1.0,0.28402892348822206,0,nan,nan,nan,nan,nan,nan,nan,nan,nan,1,4,0,7,8,6,nan,nan,nan,nan,nan,nan,nan,nan,nan,nan,nan,nan,0.0,nan,nan,nan,nan,nan,nan,nan,nan,nan,nan,nan,nan,nan,nan,nan,nan,nan,nan,571.1167448826018,583.4164158539497,nan,583.700444777438,nan,nan,nan,nan
1,13,0,0,0.0,1.0,0.4428658708347939,0,nan,nan,nan,nan,nan,nan,nan,nan,nan,4,7,8,5,3,1,nan,nan,nan,nan,nan,nan,nan,nan,nan,nan,nan,nan,0.0,nan,nan,nan,nan,nan,nan,nan,nan,nan,nan,nan,nan,nan,nan,nan,nan,nan,nan,571.1167448826018,584.4415299135144,nan,584.8843957843492,nan,nan,nan,nan
1,14,1,1,1.0,1.0,0.48173892265185714,0,nan,nan,nan,nan,nan,nan,nan,nan,nan,5,3,4,7,1,2,nan,nan,nan,nan,nan,nan,nan,nan,nan,nan,nan,nan,0.0,nan,nan,nan,nan,nan,nan,nan,nan,nan,nan,nan,nan,nan,nan,nan,nan,nan,nan,571.1167448826018,585.4666357053211,nan,585.948374627973,nan,nan,nan,nan
1,15,1,1,1.0,1.0,0.4165926131536253,0,nan,nan,nan,nan,nan,nan,nan,nan,nan,1,8,6,4,3,7,nan,nan,nan,nan,nan,nan,nan,nan,nan,nan,nan,nan,0.0,nan,nan,nan,nan,nan,nan,nan,nan,nan,nan,nan,nan,nan,nan,nan,nan,nan,nan,571.1167448826018,586.4917594580911,nan,586.9083520712447,nan,nan,nan,nan
1,16,0,0,nan,nan,nan,0,nan,nan,nan,nan,nan,nan,nan,nan,nan,6,3,8,7,2,5,nan,nan,nan,nan,nan,nan,nan,nan,nan,nan,nan,nan,0.0,nan,nan,nan,nan,nan,nan,nan,nan,nan,nan,nan,nan,nan,nan,nan,nan,nan,nan,571.1167448826018,587.5169085844536,nan,nan,nan,nan,nan,nan
1,17,1,1,1.0,1.0,0.4622774509480223,0,nan,nan,nan,nan,nan,nan,nan,nan,nan,3,0,4,6,8,1,nan,nan,nan,nan,nan,nan,nan,nan,nan,nan,nan,nan,0.0,nan,nan,nan,nan,nan,nan,nan,nan,nan,nan,nan,nan,nan,nan,nan,nan,nan,nan,571.1167448826018,588.5419918536791,nan,589.0042693046271,nan,nan,nan,nan
1,18,1,1,1.0,1.0,0.5891098664142191,1,nan,nan,nan,nan,nan,nan,nan,nan,nan,7,4,5,1,6,0,1.0,1.0,1.0,1.0,1.0,1.0,0.0,0.0,0.0,0.0,0.0,0.0,0.0,1.0,6.0,1.0,6.0,4.0,4.0,5.0,6.0,1.0,2.0,3.0,4.0,4.422859866754152,5.134234919270966,2.0392091794055887,2.719661352224648,3.2880519056343473,3.999255045549944,571.1167448826018,589.5671287208679,590.375536870386,590.1562385872821,596.5679552126676,597.5753394702915,591.3923181596911,596.5596261486062
1,19,1,1,1.0,1.0,0.42657779675209895,0,nan,nan,nan,nan,nan,nan,nan,nan,nan,2,1,3,5,4,7,nan,nan,nan,nan,nan,nan,nan,nan,nan,nan,nan,nan,0.0,nan,nan,nan,nan,nan,nan,nan,nan,nan,nan,nan,nan,nan,nan,nan,nan,nan,nan,571.1167448826018,597.8014757681522,nan,598.2280535649043,nan,nan,nan,nan
1,20,1,1,1.0,1.0,0.43342864071018994,0,nan,nan,nan,nan,nan,nan,nan,nan,nan,0,4,5,6,2,1,nan,nan,nan,nan,nan,nan,nan,nan,nan,nan,nan,nan,0.0,nan,nan,nan,nan,nan,nan,nan,nan,nan,nan,nan,nan,nan,nan,nan,nan,nan,nan,571.1167448826018,598.826598095533,nan,599.2600267362432,nan,nan,nan,nan
1,21,1,1,1.0,1.0,0.3202896455768496,0,nan,nan,nan,nan,nan,nan,nan,nan,nan,1,5,0,8,4,6,nan,nan,nan,nan,nan,nan,nan,nan,nan,nan,nan,nan,0.0,nan,nan,nan,nan,nan,nan,nan,nan,nan,nan,nan,nan,nan,nan,nan,nan,nan,nan,571.1167448826018,599.8517232738086,nan,600.1720129193855,nan,nan,nan,nan
1,22,1,1,1.0,1.0,0.28710938000585884,0,nan,nan,nan,nan,nan,nan,nan,nan,nan,4,6,5,1,8,2,nan,nan,nan,nan,nan,nan,nan,nan,nan,nan,nan,nan,0.0,nan,nan,nan,nan,nan,nan,nan,nan,nan,nan,nan,nan,nan,nan,nan,nan,nan,nan,571.1167448826018,600.8768456011312,nan,601.1639549811371,nan,nan,nan,nan
1,23,1,1,1.0,1.0,0.3100093881948851,0,nan,nan,nan,nan,nan,nan,nan,nan,nan,2,1,7,0,6,3,nan,nan,nan,nan,nan,nan,nan,nan,nan,nan,nan,nan,0.0,nan,nan,nan,nan,nan,nan,nan,nan,nan,nan,nan,nan,nan,nan,nan,nan,nan,nan,571.1167448826018,601.9019302958623,nan,602.2119396840571,nan,nan,nan,nan
1,24,1,1,1.0,1.0,0.3328381225001067,0,nan,nan,nan,nan,nan,nan,nan,nan,nan,4,6,3,1,2,5,nan,nan,nan,nan,nan,nan,nan,nan,nan,nan,nan,nan,0.0,nan,nan,nan,nan,nan,nan,nan,nan,nan,nan,nan,nan,nan,nan,nan,nan,nan,nan,571.1167448826018,602.9270549039938,nan,603.259893026494,nan,nan,nan,nan
1,25,1,1,1.0,1.0,0.2756918767699972,0,nan,nan,nan,nan,nan,nan,nan,nan,nan,1,5,7,0,8,6,nan,nan,nan,nan,nan,nan,nan,nan,nan,nan,nan,nan,0.0,nan,nan,nan,nan,nan,nan,nan,nan,nan,nan,nan,nan,nan,nan,nan,nan,nan,nan,571.1167448826018,603.9521778015187,nan,604.2278696782887,nan,nan,nan,nan
1,26,1,1,1.0,1.0,0.3784913147101179,0,nan,nan,nan,nan,nan,nan,nan,nan,nan,4,8,2,6,3,5,nan,nan,nan,nan,nan,nan,nan,nan,nan,nan,nan,nan,0.0,nan,nan,nan,nan,nan,nan,nan,nan,nan,nan,nan,nan,nan,nan,nan,nan,nan,nan,571.1167448826018,604.9773602839559,nan,605.355851598666,nan,nan,nan,nan
1,27,0,0,0.0,1.0,0.44137311103986576,0,nan,nan,nan,nan,nan,nan,nan,nan,nan,1,0,4,5,6,3,nan,nan,nan,nan,nan,nan,nan,nan,nan,nan,nan,nan,0.0,nan,nan,nan,nan,nan,nan,nan,nan,nan,nan,nan,nan,nan,nan,nan,nan,nan,nan,571.1167448826018,606.0024335748749,nan,606.4438066859148,nan,nan,nan,nan
1,28,1,1,1.0,1.0,0.5042409375892021,0,nan,nan,nan,nan,nan,nan,nan,nan,nan,5,7,2,4,0,6,nan,nan,nan,nan,nan,nan,nan,nan,nan,nan,nan,nan,0.0,nan,nan,nan,nan,nan,nan,nan,nan,nan,nan,nan,nan,nan,nan,nan,nan,nan,nan,571.1167448826018,607.0275581830065,nan,607.5317991205957,nan,nan,nan,nan
1,29,1,1,1.0,1.0,0.40709009615238756,0,nan,nan,nan,nan,nan,nan,nan,nan,nan,0,3,6,8,4,1,nan,nan,nan,nan,nan,nan,nan,nan,nan,nan,nan,nan,0.0,nan,nan,nan,nan,nan,nan,nan,nan,nan,nan,nan,nan,nan,nan,nan,nan,nan,nan,571.1167448826018,608.0526685363147,nan,608.4597586324671,nan,nan,nan,nan
1,30,1,1,1.0,1.0,0.3819369784905575,0,nan,nan,nan,nan,nan,nan,nan,nan,nan,4,0,2,5,7,3,nan,nan,nan,nan,nan,nan,nan,nan,nan,nan,nan,nan,0.0,nan,nan,nan,nan,nan,nan,nan,nan,nan,nan,nan,nan,nan,nan,nan,nan,nan,nan,571.1167448826018,609.0778076843126,nan,609.4597446628031,nan,nan,nan,nan
1,31,1,1,1.0,1.0,0.3167818309739232,0,nan,nan,nan,nan,nan,nan,nan,nan,nan,3,7,5,2,1,8,nan,nan,nan,nan,nan,nan,nan,nan,nan,nan,nan,nan,0.0,nan,nan,nan,nan,nan,nan,nan,nan,nan,nan,nan,nan,nan,nan,nan,nan,nan,nan,571.1167448826018,610.1029245948303,nan,610.4197064258042,nan,nan,nan,nan
1,32,1,1,1.0,1.0,0.3236386619973928,0,nan,nan,nan,nan,nan,nan,nan,nan,nan,6,5,1,7,2,3,nan,nan,nan,nan,nan,nan,nan,nan,nan,nan,nan,nan,0.0,nan,nan,nan,nan,nan,nan,nan,nan,nan,nan,nan,nan,nan,nan,nan,nan,nan,nan,571.1167448826018,611.1280506284093,nan,611.4516892904066,nan,nan,nan,nan
1,33,1,1,1.0,1.0,0.2824762936215848,0,nan,nan,nan,nan,nan,nan,nan,nan,nan,0,7,4,5,6,2,nan,nan,nan,nan,nan,nan,nan,nan,nan,nan,nan,nan,0.0,nan,nan,nan,nan,nan,nan,nan,nan,nan,nan,nan,nan,nan,nan,nan,nan,nan,nan,571.1167448826018,612.1531806532876,nan,612.4356569469091,nan,nan,nan,nan
1,34,1,1,1.0,1.0,0.35336585133336484,0,nan,nan,nan,nan,nan,nan,nan,nan,nan,7,1,2,0,3,4,nan,nan,nan,nan,nan,nan,nan,nan,nan,nan,nan,nan,0.0,nan,nan,nan,nan,nan,nan,nan,nan,nan,nan,nan,nan,nan,nan,nan,nan,nan,nan,571.1167448826018,613.1782938576071,nan,613.5316597089404,nan,nan,nan,nan
1,35,1,1,1.0,1.0,0.3201838751556352,0,nan,nan,nan,nan,nan,nan,nan,nan,nan,2,4,7,1,6,0,nan,nan,nan,nan,nan,nan,nan,nan,nan,nan,nan,nan,0.0,nan,nan,nan,nan,nan,nan,nan,nan,nan,nan,nan,nan,nan,nan,nan,nan,nan,nan,571.1167448826018,614.2034198911861,nan,614.5236037663417,nan,nan,nan,nan
1,36,1,1,1.0,1.0,0.4150659269071184,1,nan,nan,nan,nan,nan,nan,nan,nan,nan,6,1,3,0,4,7,1.0,1.0,1.0,1.0,1.0,1.0,0.0,0.0,0.0,1.0,1.0,1.0,3.0,4.0,4.0,7.0,0.0,4.0,7.0,4.0,5.0,6.0,1.0,2.0,3.0,3.528694145847112,4.127892115327995,4.759802223590668,1.066696658730507,1.8171506019425578,2.775925512542017,571.1167448826018,615.2285299593932,616.0369389642146,615.6435958863003,621.8543224891764,622.8623356674216,617.0537370741367,621.8459979866748
1,37,1,1,1.0,1.0,0.7635401102015749,0,nan,nan,nan,nan,nan,nan,nan,nan,nan,8,4,0,1,2,5,nan,nan,nan,nan,nan,nan,nan,nan,nan,nan,nan,nan,0.0,nan,nan,nan,nan,nan,nan,nan,nan,nan,nan,nan,nan,nan,nan,nan,nan,nan,nan,571.1167448826018,623.0878473211196,nan,623.8513874313212,nan,nan,nan,nan
1,38,1,1,1.0,1.0,0.498415011796169,0,nan,nan,nan,nan,nan,nan,nan,nan,nan,5,2,7,4,6,0,nan,nan,nan,nan,nan,nan,nan,nan,nan,nan,nan,nan,0.0,nan,nan,nan,nan,nan,nan,nan,nan,nan,nan,nan,nan,nan,nan,nan,nan,nan,nan,571.1167448826018,624.1129548234749,nan,624.611369835271,nan,nan,nan,nan
1,39,1,1,1.0,1.0,0.40127928036963567,0,nan,nan,nan,nan,nan,nan,nan,nan,nan,3,8,6,5,7,4,nan,nan,nan,nan,nan,nan,nan,nan,nan,nan,nan,nan,0.0,nan,nan,nan,nan,nan,nan,nan,nan,nan,nan,nan,nan,nan,nan,nan,nan,nan,nan,571.1167448826018,625.1380651768413,nan,625.539344457211,nan,nan,nan,nan
1,40,1,1,1.0,1.0,0.4560335751157254,0,nan,nan,nan,nan,nan,nan,nan,nan,nan,7,0,8,4,1,6,nan,nan,nan,nan,nan,nan,nan,nan,nan,nan,nan,nan,0.0,nan,nan,nan,nan,nan,nan,nan,nan,nan,nan,nan,nan,nan,nan,nan,nan,nan,nan,571.1167448826018,626.1632830111193,nan,626.6193165862351,nan,nan,nan,nan
1,41,1,1,1.0,1.0,0.2949954057112336,0,nan,nan,nan,nan,nan,nan,nan,nan,nan,4,3,0,2,6,7,nan,nan,nan,nan,nan,nan,nan,nan,nan,nan,nan,nan,0.0,nan,nan,nan,nan,nan,nan,nan,nan,nan,nan,nan,nan,nan,nan,nan,nan,nan,nan,571.1167448826018,627.1883101165877,nan,627.4833055222989,nan,nan,nan,nan
1,42,1,1,1.0,1.0,0.4298321614624001,0,nan,nan,nan,nan,nan,nan,nan,nan,nan,8,7,1,6,3,0,nan,nan,nan,nan,nan,nan,nan,nan,nan,nan,nan,nan,0.0,nan,nan,nan,nan,nan,nan,nan,nan,nan,nan,nan,nan,nan,nan,nan,nan,nan,nan,571.1167448826018,628.2134338694159,nan,628.6432660308783,nan,nan,nan,nan
1,43,1,1,1.0,1.0,0.3006827751523815,0,nan,nan,nan,nan,nan,nan,nan,nan,nan,2,4,6,5,7,1,nan,nan,nan,nan,nan,nan,nan,nan,nan,nan,nan,nan,0.0,nan,nan,nan,nan,nan,nan,nan,nan,nan,nan,nan,nan,nan,nan,nan,nan,nan,nan,571.1167448826018,629.238557907287,nan,629.5392406824394,nan,nan,nan,nan
1,44,1,1,1.0,1.0,0.25153431249782443,0,nan,nan,nan,nan,nan,nan,nan,nan,nan,5,8,3,1,2,0,nan,nan,nan,nan,nan,nan,nan,nan,nan,nan,nan,nan,0.0,nan,nan,nan,nan,nan,nan,nan,nan,nan,nan,nan,nan,nan,nan,nan,nan,nan,nan,571.1167448826018,630.263677668816,nan,630.5152119813138,nan,nan,nan,nan
1,45,1,1,1.0,1.0,0.31431290425825864,0,nan,nan,nan,nan,nan,nan,nan,nan,nan,3,6,1,2,8,5,nan,nan,nan,nan,nan,nan,nan,nan,nan,nan,nan,nan,0.0,nan,nan,nan,nan,nan,nan,nan,nan,nan,nan,nan,nan,nan,nan,nan,nan,nan,nan,571.1167448826018,631.2888527387986,nan,631.6031656430569,nan,nan,nan,nan
1,46,1,1,1.0,1.0,0.3772468729875982,0,nan,nan,nan,nan,nan,nan,nan,nan,nan,5,7,8,4,0,6,nan,nan,nan,nan,nan,nan,nan,nan,nan,nan,nan,nan,0.0,nan,nan,nan,nan,nan,nan,nan,nan,nan,nan,nan,nan,nan,nan,nan,nan,nan,nan,571.1167448826018,632.3139208980137,nan,632.6911677710013,nan,nan,nan,nan
1,47,1,1,1.0,1.0,0.28805732243927196,0,nan,nan,nan,nan,nan,nan,nan,nan,nan,8,4,7,6,2,1,nan,nan,nan,nan,nan,nan,nan,nan,nan,nan,nan,nan,0.0,nan,nan,nan,nan,nan,nan,nan,nan,nan,nan,nan,nan,nan,nan,nan,nan,nan,nan,571.1167448826018,633.3390768665704,nan,633.6271341890097,nan,nan,nan,nan
1,48,1,1,1.0,1.0,0.4949305749614723,0,nan,nan,nan,nan,nan,nan,nan,nan,nan,1,7,6,5,4,8,nan,nan,nan,nan,nan,nan,nan,nan,nan,nan,nan,nan,0.0,nan,nan,nan,nan,nan,nan,nan,nan,nan,nan,nan,nan,nan,nan,nan,nan,nan,nan,571.1167448826018,634.3641715396661,nan,634.8591021146276,nan,nan,nan,nan
1,49,1,1,1.0,1.0,0.4937705214833841,0,nan,nan,nan,nan,nan,nan,nan,nan,nan,5,2,7,4,1,3,nan,nan,nan,nan,nan,nan,nan,nan,nan,nan,nan,nan,0.0,nan,nan,nan,nan,nan,nan,nan,nan,nan,nan,nan,nan,nan,nan,nan,nan,nan,nan,571.1167448826018,635.3893161044689,nan,635.8830866259523,nan,nan,nan,nan
1,50,1,1,1.0,1.0,0.43663168826606125,0,nan,nan,nan,nan,nan,nan,nan,nan,nan,6,0,2,7,3,1,nan,nan,nan,nan,nan,nan,nan,nan,nan,nan,nan,nan,0.0,nan,nan,nan,nan,nan,nan,nan,nan,nan,nan,nan,nan,nan,nan,nan,nan,nan,nan,571.1167448826018,636.4144298789324,nan,636.8510615671985,nan,nan,nan,nan
1,51,1,1,1.0,1.0,0.31548094033496454,0,nan,nan,nan,nan,nan,nan,nan,nan,nan,2,4,0,1,8,3,nan,nan,nan,nan,nan,nan,nan,nan,nan,nan,nan,nan,0.0,nan,nan,nan,nan,nan,nan,nan,nan,nan,nan,nan,nan,nan,nan,nan,nan,nan,nan,571.1167448826018,637.4395561976125,nan,637.7550371379475,nan,nan,nan,nan
1,52,1,1,1.0,1.0,0.2823046661214903,0,nan,nan,nan,nan,nan,nan,nan,nan,nan,3,2,4,7,5,1,nan,nan,nan,nan,nan,nan,nan,nan,nan,nan,nan,nan,0.0,nan,nan,nan,nan,nan,nan,nan,nan,nan,nan,nan,nan,nan,nan,nan,nan,nan,nan,571.1167448826018,638.464695060451,nan,638.7469997265725,nan,nan,nan,nan
1,53,1,1,1.0,1.0,0.425168284738902,0,nan,nan,nan,nan,nan,nan,nan,nan,nan,7,4,6,8,0,5,nan,nan,nan,nan,nan,nan,nan,nan,nan,nan,nan,nan,0.0,nan,nan,nan,nan,nan,nan,nan,nan,nan,nan,nan,nan,nan,nan,nan,nan,nan,nan,571.1167448826018,639.489787452796,nan,639.9149557375349,nan,nan,nan,nan
1,54,1,1,1.0,1.0,0.5200243927538395,0,nan,nan,nan,nan,nan,nan,nan,nan,nan,5,1,3,7,8,0,nan,nan,nan,nan,nan,nan,nan,nan,nan,nan,nan,nan,0.0,nan,nan,nan,nan,nan,nan,nan,nan,nan,nan,nan,nan,nan,nan,nan,nan,nan,nan,571.1167448826018,640.514902367664,nan,641.0349267604179,nan,nan,nan,nan
1,55,1,1,1.0,1.0,0.4868680752115324,0,nan,nan,nan,nan,nan,nan,nan,nan,nan,7,2,8,5,3,6,nan,nan,nan,nan,nan,nan,nan,nan,nan,nan,nan,nan,0.0,nan,nan,nan,nan,nan,nan,nan,nan,nan,nan,nan,nan,nan,nan,nan,nan,nan,nan,571.1167448826018,641.5400363838999,nan,642.0269044591114,nan,nan,nan,nan
1,56,1,1,1.0,1.0,0.42970785981742665,1,nan,nan,nan,nan,nan,nan,nan,nan,nan,8,4,3,1,2,5,1.0,1.0,1.0,1.0,1.0,1.0,0.0,1.0,0.0,1.0,0.0,1.0,3.0,7.0,4.0,5.0,1.0,7.0,5.0,5.0,4.0,6.0,1.0,3.0,2.0,4.6308638078626245,4.086513644491788,5.190554673143197,1.5533588949474506,3.510530143568758,2.3672725229989737,571.1167448826018,642.5651615621755,643.3735699967947,642.9948694219929,649.6159612977062,650.6140109596308,644.3903752341284,649.6076165534323
1,57,0,0,nan,nan,nan,0,nan,nan,nan,nan,nan,nan,nan,nan,nan,3,2,5,6,0,7,nan,nan,nan,nan,nan,nan,nan,nan,nan,nan,nan,nan,0.0,nan,nan,nan,nan,nan,nan,nan,nan,nan,nan,nan,nan,nan,nan,nan,nan,nan,nan,571.1167448826018,650.8411721757147,nan,nan,nan,nan,nan,nan
1,58,1,1,1.0,1.0,0.41634800122119486,0,nan,nan,nan,nan,nan,nan,nan,nan,nan,0,8,7,3,6,2,nan,nan,nan,nan,nan,nan,nan,nan,nan,nan,nan,nan,0.0,nan,nan,nan,nan,nan,nan,nan,nan,nan,nan,nan,nan,nan,nan,nan,nan,nan,nan,571.1167448826018,651.8662973539904,nan,652.2826453552116,nan,nan,nan,nan
1,59,1,1,1.0,1.0,0.3431927898200229,0,nan,nan,nan,nan,nan,nan,nan,nan,nan,4,5,0,7,2,3,nan,nan,nan,nan,nan,nan,nan,nan,nan,nan,nan,nan,0.0,nan,nan,nan,nan,nan,nan,nan,nan,nan,nan,nan,nan,nan,nan,nan,nan,nan,nan,571.1167448826018,652.891427664028,nan,653.234620453848,nan,nan,nan,nan
1,60,1,1,1.0,1.0,0.2940637136925943,0,nan,nan,nan,nan,nan,nan,nan,nan,nan,3,4,1,0,8,7,nan,nan,nan,nan,nan,nan,nan,nan,nan,nan,nan,nan,0.0,nan,nan,nan,nan,nan,nan,nan,nan,nan,nan,nan,nan,nan,nan,nan,nan,nan,nan,571.1167448826018,653.9165451447479,nan,654.2106088584405,nan,nan,nan,nan
1,61,1,1,1.0,1.0,0.08492594788549468,0,nan,nan,nan,nan,nan,nan,nan,nan,nan,2,8,7,3,1,5,nan,nan,nan,nan,nan,nan,nan,nan,nan,nan,nan,nan,0.0,nan,nan,nan,nan,nan,nan,nan,nan,nan,nan,nan,nan,nan,nan,nan,nan,nan,nan,571.1167448826018,654.941657778807,nan,655.0265837266925,nan,nan,nan,nan
1,62,0,0,1.0,0.0,0.01980073534650728,0,0.0,0.0,0.0,nan,nan,nan,nan,nan,nan,5,2,4,0,3,8,nan,nan,nan,nan,nan,nan,nan,nan,nan,nan,nan,nan,0.0,nan,nan,nan,nan,nan,nan,nan,nan,nan,nan,nan,nan,nan,nan,nan,nan,nan,nan,571.1167448826018,655.9667644259171,nan,655.9865651612636,nan,nan,nan,nan
1,63,1,1,1.0,1.0,0.24262850038940087,0,nan,nan,nan,nan,nan,nan,nan,nan,nan,6,8,0,3,1,7,nan,nan,nan,nan,nan,nan,nan,nan,nan,nan,nan,nan,0.0,nan,nan,nan,nan,nan,nan,nan,nan,nan,nan,nan,nan,nan,nan,nan,nan,nan,nan,571.1167448826018,656.9918782003806,nan,657.23450670077,nan,nan,nan,nan
1,64,1,1,nan,nan,nan,0,nan,nan,nan,nan,nan,nan,nan,nan,nan,4,5,6,0,2,3,nan,nan,nan,nan,nan,nan,nan,nan,nan,nan,nan,nan,0.0,nan,nan,nan,nan,nan,nan,nan,nan,nan,nan,nan,nan,nan,nan,nan,nan,nan,nan,571.1167448826018,658.0169942555949,nan,nan,nan,nan,nan,nan
1,65,1,1,1.0,1.0,0.11232903890777379,0,nan,nan,nan,nan,nan,nan,nan,nan,nan,8,6,4,3,5,2,nan,nan,nan,nan,nan,nan,nan,nan,nan,nan,nan,nan,0.0,nan,nan,nan,nan,nan,nan,nan,nan,nan,nan,nan,nan,nan,nan,nan,nan,nan,nan,571.1167448826018,659.0421254209359,nan,659.1544544598437,nan,nan,nan,nan
1,66,1,1,1.0,1.0,0.2311887596733868,0,nan,nan,nan,nan,nan,nan,nan,nan,nan,3,2,5,6,0,8,nan,nan,nan,nan,nan,nan,nan,nan,nan,nan,nan,nan,0.0,nan,nan,nan,nan,nan,nan,nan,nan,nan,nan,nan,nan,nan,nan,nan,nan,nan,nan,571.1167448826018,660.0672508843127,nan,660.2984396439861,nan,nan,nan,nan
1,67,1,1,1.0,1.0,0.23003811441594735,0,nan,nan,nan,nan,nan,nan,nan,nan,nan,2,1,8,5,7,4,nan,nan,nan,nan,nan,nan,nan,nan,nan,nan,nan,nan,0.0,nan,nan,nan,nan,nan,nan,nan,nan,nan,nan,nan,nan,nan,nan,nan,nan,nan,nan,571.1167448826018,661.0923814793932,nan,661.3224195938092,nan,nan,nan,nan
1,68,0,0,0.0,1.0,0.6875764233991504,0,nan,nan,nan,nan,nan,nan,nan,nan,nan,1,5,3,7,8,6,nan,nan,nan,nan,nan,nan,nan,nan,nan,nan,nan,nan,0.0,nan,nan,nan,nan,nan,nan,nan,nan,nan,nan,nan,nan,nan,nan,nan,nan,nan,nan,571.1167448826018,662.1227985997102,nan,662.8103750231094,nan,nan,nan,nan
1,69,1,1,1.0,1.0,0.43538924225140363,0,nan,nan,nan,nan,nan,nan,nan,nan,nan,5,4,8,0,7,2,nan,nan,nan,nan,nan,nan,nan,nan,nan,nan,nan,nan,0.0,nan,nan,nan,nan,nan,nan,nan,nan,nan,nan,nan,nan,nan,nan,nan,nan,nan,nan,571.1167448826018,663.1509617553093,nan,663.5863509975607,nan,nan,nan,nan
1,70,1,1,1.0,1.0,0.3942582343588583,0,nan,nan,nan,nan,nan,nan,nan,nan,nan,0,5,6,1,3,7,nan,nan,nan,nan,nan,nan,nan,nan,nan,nan,nan,nan,0.0,nan,nan,nan,nan,nan,nan,nan,nan,nan,nan,nan,nan,nan,nan,nan,nan,nan,nan,571.1167448826018,664.1760812316788,nan,664.5703394660377,nan,nan,nan,nan
1,71,1,1,1.0,1.0,0.33712111169006675,0,nan,nan,nan,nan,nan,nan,nan,nan,nan,3,6,4,7,1,5,nan,nan,nan,nan,nan,nan,nan,nan,nan,nan,nan,nan,0.0,nan,nan,nan,nan,nan,nan,nan,nan,nan,nan,nan,nan,nan,nan,nan,nan,nan,nan,571.1167448826018,665.2011924402905,nan,665.5383135519805,nan,nan,nan,nan
1,72,1,1,1.0,1.0,0.39194725052220747,0,nan,nan,nan,nan,nan,nan,nan,nan,nan,4,8,6,1,0,7,nan,nan,nan,nan,nan,nan,nan,nan,nan,nan,nan,nan,0.0,nan,nan,nan,nan,nan,nan,nan,nan,nan,nan,nan,nan,nan,nan,nan,nan,nan,nan,571.1167448826018,666.2263293074793,nan,666.6182765580015,nan,nan,nan,nan
1,73,1,1,1.0,1.0,0.4707732957904227,0,nan,nan,nan,nan,nan,nan,nan,nan,nan,6,0,1,3,4,2,nan,nan,nan,nan,nan,nan,nan,nan,nan,nan,nan,nan,0.0,nan,nan,nan,nan,nan,nan,nan,nan,nan,nan,nan,nan,nan,nan,nan,nan,nan,nan,571.1167448826018,667.251454200712,nan,667.7222274965025,nan,nan,nan,nan
1,74,0,0,0.0,1.0,0.5576313356286846,0,nan,nan,nan,nan,nan,nan,nan,nan,nan,8,4,5,7,3,6,nan,nan,nan,nan,nan,nan,nan,nan,nan,nan,nan,nan,0.0,nan,nan,nan,nan,nan,nan,nan,nan,nan,nan,nan,nan,nan,nan,nan,nan,nan,nan,571.1167448826018,668.2765659795259,nan,668.8341973151546,nan,nan,nan,nan
1,75,1,1,1.0,1.0,0.39649765921058133,1,nan,nan,nan,nan,nan,nan,nan,nan,nan,4,3,0,1,2,7,1.0,1.0,1.0,1.0,1.0,1.0,0.0,0.0,0.0,0.0,0.0,1.0,1.0,5.0,4.0,7.0,4.0,5.0,7.0,6.0,5.0,4.0,3.0,2.0,1.0,4.125108728301711,3.4699336896301247,2.958779472101014,2.5664955238462426,1.9919269516831264,1.312425287149381,571.1167448826018,669.301684315491,670.1101052943268,669.6981819747016,675.2940249407548,676.2909841124783,671.1269561469089,675.2856984425453
1,76,1,1,1.0,1.0,0.7227349664317444,0,nan,nan,nan,nan,nan,nan,nan,nan,nan,3,1,6,2,4,5,nan,nan,nan,nan,nan,nan,nan,nan,nan,nan,nan,nan,0.0,nan,nan,nan,nan,nan,nan,nan,nan,nan,nan,nan,nan,nan,nan,nan,nan,nan,nan,571.1167448826018,676.519263187889,nan,677.2419981543208,nan,nan,nan,nan
1,77,1,1,1.0,1.0,0.5055931453825906,0,nan,nan,nan,nan,nan,nan,nan,nan,nan,8,5,7,3,0,6,nan,nan,nan,nan,nan,nan,nan,nan,nan,nan,nan,nan,0.0,nan,nan,nan,nan,nan,nan,nan,nan,nan,nan,nan,nan,nan,nan,nan,nan,nan,nan,571.1167448826018,677.5443838046631,nan,678.0499769500457,nan,nan,nan,nan
1,78,1,1,1.0,1.0,0.3604926677653566,0,nan,nan,nan,nan,nan,nan,nan,nan,nan,5,7,1,6,2,8,nan,nan,nan,nan,nan,nan,nan,nan,nan,nan,nan,nan,0.0,nan,nan,nan,nan,nan,nan,nan,nan,nan,nan,nan,nan,nan,nan,nan,nan,nan,nan,571.1167448826018,678.5694659335422,nan,678.9299586013076,nan,nan,nan,nan
1,79,1,1,1.0,1.0,0.25533520529279485,0,nan,nan,nan,nan,nan,nan,nan,nan,nan,1,5,4,8,6,0,nan,nan,nan,nan,nan,nan,nan,nan,nan,nan,nan,nan,0.0,nan,nan,nan,nan,nan,nan,nan,nan,nan,nan,nan,nan,nan,nan,nan,nan,nan,nan,571.1167448826018,679.5946016603266,nan,679.8499368656194,nan,nan,nan,nan
1,80,1,1,1.0,1.0,0.31816910550696775,0,nan,nan,nan,nan,nan,nan,nan,nan,nan,5,0,6,3,2,4,nan,nan,nan,nan,nan,nan,nan,nan,nan,nan,nan,nan,0.0,nan,nan,nan,nan,nan,nan,nan,nan,nan,nan,nan,nan,nan,nan,nan,nan,nan,nan,571.1167448826018,680.6197228473029,nan,680.9378919528099,nan,nan,nan,nan
1,81,1,1,1.0,1.0,0.18102051061578095,0,1.0,0.0,0.0,0.39106873807258447,0.1304752864410732,0.26059345163151126,0.5215440245136577,0.1304752864410732,0.2515082738051812,8,1,7,4,5,0,nan,nan,nan,nan,nan,nan,nan,nan,nan,nan,nan,nan,0.0,nan,nan,nan,nan,nan,nan,nan,nan,nan,nan,nan,nan,nan,nan,nan,nan,nan,nan,571.1167448826018,681.644854582788,nan,681.8258750934037,nan,nan,nan,nan
1,82,1,1,1.0,1.0,0.2839257189189084,1,0.0,0.0,1.0,0.3883758120795485,0.13177229982839392,0.25660351225115463,0.5201481119079424,0.13177229982839392,0.2610384450138857,7,4,1,6,2,3,1.0,1.0,1.0,1.0,1.0,1.0,0.0,1.0,0.0,1.0,1.0,0.0,3.0,3.0,4.0,4.0,6.0,2.0,4.0,4.0,5.0,6.0,1.0,2.0,3.0,3.1498441810836084,3.5412739833118394,3.9886822802363895,1.2077892642701045,1.989692943636328,2.6623848179006018,571.1167448826018,682.6699375669705,683.4783688092139,682.9538632858894,688.5206379182055,689.5194279730786,684.4951740464894,688.5123042926425
1,83,1,1,1.0,1.0,0.7598127720993944,0,0.0,0.0,0.0,0.38705365900156574,0.13145528984883717,0.2555983691527286,0.5185089488504029,0.13145528984883717,0.40825300054469454,8,0,3,1,6,5,nan,nan,nan,nan,nan,nan,nan,nan,nan,nan,nan,nan,0.0,nan,nan,nan,nan,nan,nan,nan,nan,nan,nan,nan,nan,nan,nan,nan,nan,nan,nan,571.1167448826018,689.745848796214,nan,690.5056615683134,nan,nan,nan,nan
1,84,1,1,1.0,1.0,0.390684847778175,0,0.0,0.0,0.0,0.39171314791528855,0.13703883822445248,0.25467430969083604,0.5287519861397411,0.13703883822445248,0.4781411129321593,2,6,8,5,4,3,nan,nan,nan,nan,nan,nan,nan,nan,nan,nan,nan,nan,0.0,nan,nan,nan,nan,nan,nan,nan,nan,nan,nan,nan,nan,nan,nan,nan,nan,nan,nan,571.1167448826018,690.7709602899267,nan,691.1616451377049,nan,nan,nan,nan
1,85,1,1,1.0,1.0,0.34957408159971237,0,0.0,0.0,0.0,0.39170045285186744,0.13619033970288888,0.25551011314897853,0.5278907925547563,0.13619033970288888,0.5000239004924273,0,4,3,7,1,8,nan,nan,nan,nan,nan,nan,nan,nan,nan,nan,nan,nan,0.0,nan,nan,nan,nan,nan,nan,nan,nan,nan,nan,nan,nan,nan,nan,nan,nan,nan,nan,571.1167448826018,691.7960504014627,nan,692.1456244830624,nan,nan,nan,nan
1,86,1,1,1.0,1.0,0.2523901691311039,0,0.0,0.0,0.0,0.39118671661708504,0.13543630886387292,0.2557504077532121,0.526623025480958,0.13543630886387292,0.3308830328363304,5,1,6,0,7,2,nan,nan,nan,nan,nan,nan,nan,nan,nan,nan,nan,nan,0.0,nan,nan,nan,nan,nan,nan,nan,nan,nan,nan,nan,nan,nan,nan,nan,nan,nan,nan,571.1167448826018,692.8212112166802,nan,693.0736013858113,nan,nan,nan,nan
1,87,1,1,1.0,1.0,0.15523077477701008,0,1.0,0.0,0.0,0.389514469057013,0.13546696870397898,0.25404750035303403,0.5249814377609919,0.13546696870397898,0.2523983418359421,6,7,8,5,4,3,nan,nan,nan,nan,nan,nan,nan,nan,nan,nan,nan,nan,0.0,nan,nan,nan,nan,nan,nan,nan,nan,nan,nan,nan,nan,nan,nan,nan,nan,nan,nan,571.1167448826018,693.8463406714145,nan,694.0015714461915,nan,nan,nan,nan
1,88,1,1,1.0,1.0,0.32205980335129425,1,0.0,0.0,1.0,0.3867253774584415,0.1370346357998593,0.24969074165858218,0.5237600132583008,0.1370346357998593,0.24322691575313607,0,3,7,2,5,1,1.0,1.0,1.0,1.0,1.0,1.0,0.0,0.0,0.0,1.0,1.0,0.0,2.0,1.0,7.0,4.0,2.0,5.0,4.0,4.0,5.0,6.0,1.0,2.0,3.0,2.5953024250338785,3.1153886835090816,3.923293354397174,0.8120967146824114,1.5420112402061932,2.220075168297626,571.1167448826018,694.871454445878,695.6798318050569,695.1935142492293,700.6470908716437,701.655918567616,696.6883037019288,700.6387643734342
1,89,1,1,1.0,1.0,0.6647311535198241,0,0.0,0.0,0.0,0.3859646059983574,0.1364044901404549,0.24956011585790253,0.5223690961388123,0.1364044901404549,0.38067391054937616,1,7,4,8,2,5,nan,nan,nan,nan,nan,nan,nan,nan,nan,nan,nan,nan,0.0,nan,nan,nan,nan,nan,nan,nan,nan,nan,nan,nan,nan,nan,nan,nan,nan,nan,nan,571.1167448826018,701.880613137735,nan,702.5453442912549,nan,nan,nan,nan
1,90,1,1,1.0,1.0,0.4875830946257338,0,0.0,0.0,0.0,0.3892060774811652,0.13886302826775568,0.25034304921340955,0.5280691057489209,0.13886302826775568,0.4914580171656174,5,0,3,4,6,7,nan,nan,nan,nan,nan,nan,nan,nan,nan,nan,nan,nan,0.0,nan,nan,nan,nan,nan,nan,nan,nan,nan,nan,nan,nan,nan,nan,nan,nan,nan,nan,571.1167448826018,702.9057331843069,nan,703.3933162789326,nan,nan,nan,nan
1,91,1,1,1.0,1.0,0.3663921482511796,0,0.0,0.0,0.0,0.39033684779317174,0.13846032208880346,0.25187652570436825,0.5287971698819752,0.13846032208880346,0.5062354654655792,0,6,4,7,8,1,nan,nan,nan,nan,nan,nan,nan,nan,nan,nan,nan,nan,0.0,nan,nan,nan,nan,nan,nan,nan,nan,nan,nan,nan,nan,nan,nan,nan,nan,nan,nan,571.1167448826018,703.9308840211597,nan,704.2972761694109,nan,nan,nan,nan
1,92,1,1,1.0,1.0,0.27729696431197226,0,0.0,0.0,0.0,0.39006474893473997,0.13769475968341693,0.25236998925132303,0.5277595086181569,0.13769475968341693,0.37709073572962853,7,8,1,4,2,3,nan,nan,nan,nan,nan,nan,nan,nan,nan,nan,nan,nan,0.0,nan,nan,nan,nan,nan,nan,nan,nan,nan,nan,nan,nan,nan,nan,nan,nan,nan,nan,571.1167448826018,704.9559658649378,nan,705.2332628292497,nan,nan,nan,nan
1,93,1,1,1.0,1.0,0.2920646242564544,0,0.0,0.0,0.0,0.3887976951749336,0.13743395605715752,0.2513637391177761,0.5262316512320911,0.13743395605715752,0.3119179122732021,6,0,8,5,7,2,nan,nan,nan,nan,nan,nan,nan,nan,nan,nan,nan,nan,0.0,nan,nan,nan,nan,nan,nan,nan,nan,nan,nan,nan,nan,nan,nan,nan,nan,nan,nan,571.1167448826018,705.981158610899,nan,706.2732232351555,nan,nan,nan,nan
1,94,1,1,1.0,1.0,0.2670372337452136,0,0.0,0.0,0.0,0.38772288327583937,0.13704393171749318,0.2506789515583462,0.5247668149933326,0.13704393171749318,0.27879960743788007,2,4,5,7,3,8,nan,nan,nan,nan,nan,nan,nan,nan,nan,nan,nan,nan,0.0,nan,nan,nan,nan,nan,nan,nan,nan,nan,nan,nan,nan,nan,nan,nan,nan,nan,nan,571.1167448826018,707.0062110898434,nan,707.2732483235886,nan,nan,nan,nan
1,95,1,1,1.0,1.0,0.20182193111395463,0,0.0,0.0,0.0,0.3863966673469314,0.13686836945151665,0.24952829789541475,0.523265036798448,0.13686836945151665,0.2536412630385409,1,3,8,5,6,7,nan,nan,nan,nan,nan,nan,nan,nan,nan,nan,nan,nan,0.0,nan,nan,nan,nan,nan,nan,nan,nan,nan,nan,nan,nan,nan,nan,nan,nan,nan,nan,571.1167448826018,708.0313796026167,nan,708.2332015337306,nan,nan,nan,nan
1,96,0,0,1.0,0.0,0.21668509807204828,0,0.0,0.0,0.0,0.3843904202139643,0.13746130014064992,0.24692912007331438,0.5218517203546142,0.13746130014064992,0.2285147543104055,6,4,1,7,3,2,nan,nan,nan,nan,nan,nan,nan,nan,nan,nan,nan,nan,0.0,nan,nan,nan,nan,nan,nan,nan,nan,nan,nan,nan,nan,nan,nan,nan,nan,nan,nan,571.1167448826018,709.0564939472824,nan,709.2731790453545,nan,nan,nan,nan
1,97,1,1,nan,nan,nan,0,0.0,0.0,0.0,0.3825871371801802,0.13781000971251298,0.24477712746766725,0.5203971468926932,0.13781000971251298,0.20925351459300146,5,1,6,3,2,4,nan,nan,nan,nan,nan,nan,nan,nan,nan,nan,nan,nan,0.0,nan,nan,nan,nan,nan,nan,nan,nan,nan,nan,nan,nan,nan,nan,nan,nan,nan,nan,571.1167448826018,710.0815646723495,nan,nan,nan,nan,nan,nan
1,98,1,1,1.0,1.0,0.7263779162894934,0,0.0,0.0,0.0,0.3825871371801802,0.13781000971251298,0.24477712746766725,0.5203971468926932,0.13781000971251298,0.47153150718077086,7,2,4,0,3,8,nan,nan,nan,nan,nan,nan,nan,nan,nan,nan,nan,nan,0.0,nan,nan,nan,nan,nan,nan,nan,nan,nan,nan,nan,nan,nan,nan,nan,nan,nan,nan,571.1167448826018,711.1067055308959,nan,711.8330834471853,nan,nan,nan,nan
1,99,1,1,1.0,1.0,0.509347852668725,0,0.0,0.0,0.0,0.3862444858941091,0.1415399132977069,0.2447045725964022,0.527784399191816,0.1415399132977069,0.6178628844791092,2,7,3,4,0,6,nan,nan,nan,nan,nan,nan,nan,nan,nan,nan,nan,nan,0.0,nan,nan,nan,nan,nan,nan,nan,nan,nan,nan,nan,nan,nan,nan,nan,nan,nan,nan,571.1167448826018,712.1318287135218,nan,712.6411765661906,nan,nan,nan,nan
1,100,1,1,1.0,1.0,0.4680728715611622,0,0.0,1.0,0.0,0.3875403108075261,0.14135242785679375,0.24618788295073235,0.5288927386643199,0.14135242785679375,0.5679328801731268,7,3,2,8,5,1,nan,nan,nan,nan,nan,nan,nan,nan,nan,nan,nan,nan,0.0,nan,nan,nan,nan,nan,nan,nan,nan,nan,nan,nan,nan,nan,nan,nan,nan,nan,nan,571.1167448826018,713.1569501855411,nan,713.6250230571022,nan,nan,nan,nan
1,101,1,1,1.0,1.0,0.3869358423980884,1,0.0,0.0,1.0,0.3883791916487098,0.1408518088688127,0.2475273827798971,0.5292310005175225,0.1408518088688127,0.45478552220932517,0,4,1,5,6,3,1.0,1.0,1.0,1.0,1.0,1.0,0.0,0.0,0.0,1.0,1.0,0.0,2.0,4.0,3.0,4.0,5.0,6.0,2.0,4.0,5.0,6.0,1.0,2.0,3.0,3.7479807400959544,4.0846271678456105,4.4918837597360834,1.4142710807500407,2.390443657001015,3.115764154237695,571.1167448826018,714.1820690917666,714.9904815176851,714.5690049341647,720.5411419841112,721.5454181309906,716.0072913165204,720.5328097840538
1,102,1,1,1.0,1.0,0.6584584831143729,0,0.0,0.0,0.0,0.3883643117595282,0.14012396351623324,0.24824034824329494,0.5284882752757614,0.14012396351623324,0.5044890656912079,2,7,6,4,0,1,nan,nan,nan,nan,nan,nan,nan,nan,nan,nan,nan,nan,0.0,nan,nan,nan,nan,nan,nan,nan,nan,nan,nan,nan,nan,nan,nan,nan,nan,nan,nan,571.1167448826018,721.7663494409644,nan,722.4248079240788,nan,nan,nan,nan
1,103,1,1,1.0,1.0,0.47331948339706287,0,0.0,0.0,0.0,0.3911203747325368,0.1420252494277106,0.2490951253048262,0.5331456241602475,0.1420252494277106,0.5062379363031747,8,4,1,0,6,7,nan,nan,nan,nan,nan,nan,nan,nan,nan,nan,nan,nan,0.0,nan,nan,nan,nan,nan,nan,nan,nan,nan,nan,nan,nan,nan,nan,nan,nan,nan,nan,571.1167448826018,722.7914506712114,nan,723.2647701546084,nan,nan,nan,nan
1,104,1,1,1.0,1.0,0.4001870796782896,0,0.0,0.0,0.0,0.39195066875945117,0.14154498334083024,0.25040568541862096,0.5334956521002814,0.14154498334083024,0.5106550153965751,2,6,0,4,8,5,nan,nan,nan,nan,nan,nan,nan,nan,nan,nan,nan,nan,0.0,nan,nan,nan,nan,nan,nan,nan,nan,nan,nan,nan,nan,nan,nan,nan,nan,nan,nan,571.1167448826018,723.8165644456749,nan,724.2167515253532,nan,nan,nan,nan
1,105,1,1,1.0,1.0,0.2790554331149906,0,0.0,0.0,0.0,0.39203303286863955,0.14083786453460626,0.2511951683340333,0.5328708974032458,0.14083786453460626,0.3841873320634477,4,3,7,2,0,6,nan,nan,nan,nan,nan,nan,nan,nan,nan,nan,nan,nan,0.0,nan,nan,nan,nan,nan,nan,nan,nan,nan,nan,nan,nan,nan,nan,nan,nan,nan,nan,571.1167448826018,724.8416870580986,nan,725.1207424912136,nan,nan,nan,nan
1,106,1,1,1.0,1.0,0.3659120474476367,0,0.0,0.0,0.0,0.39091444277206877,0.14058463400283042,0.2503298087692384,0.5314990767748992,0.14058463400283042,0.34838485341363895,3,8,0,1,6,4,nan,nan,nan,nan,nan,nan,nan,nan,nan,nan,nan,nan,0.0,nan,nan,nan,nan,nan,nan,nan,nan,nan,nan,nan,nan,nan,nan,nan,nan,nan,nan,571.1167448826018,725.8668182234396,nan,726.2327302708873,nan,nan,nan,nan
1,107,1,1,1.0,1.0,0.1567443466046825,0,0.0,0.0,0.0,0.3906693212492802,0.13991548437186654,0.2507538368774137,0.5305848056211467,0.13991548437186654,0.2672372757224366,2,7,5,0,1,8,nan,nan,nan,nan,nan,nan,nan,nan,nan,nan,nan,nan,0.0,nan,nan,nan,nan,nan,nan,nan,nan,nan,nan,nan,nan,nan,nan,nan,nan,nan,nan,571.1167448826018,726.8919727665489,nan,727.0487171131535,nan,nan,nan,nan
1,108,1,1,1.0,1.0,0.24361264990875497,0,0.0,0.0,0.0,0.3883982049905948,0.14111128243666138,0.24728692255393342,0.5295094874272561,0.14111128243666138,0.2554230146536914,7,6,4,8,0,2,nan,nan,nan,nan,nan,nan,nan,nan,nan,nan,nan,nan,0.0,nan,nan,nan,nan,nan,nan,nan,nan,nan,nan,nan,nan,nan,nan,nan,nan,nan,nan,571.1167448826018,727.9170671545435,nan,728.1606798044522,nan,nan,nan,nan
1,109,1,1,1.0,1.0,0.2424349205684848,0,1.0,0.0,0.0,0.38700603619173096,0.14114020158000848,0.24586583461172248,0.5281462377717394,0.14114020158000848,0.21426397236064076,5,0,1,7,2,6,nan,nan,nan,nan,nan,nan,nan,nan,nan,nan,nan,nan,0.0,nan,nan,nan,nan,nan,nan,nan,nan,nan,nan,nan,nan,nan,nan,nan,nan,nan,nan,571.1167448826018,728.9422214125516,nan,729.1846563331201,nan,nan,nan,nan
1,110,1,1,1.0,1.0,0.36128295242087916,1,0.0,0.0,1.0,0.38562916842389056,0.14116655574435444,0.24446261267953612,0.526795724168245,0.14116655574435444,0.2824435076327063,1,4,5,3,7,2,1.0,1.0,1.0,1.0,1.0,1.0,0.0,0.0,0.0,1.0,1.0,0.0,2.0,7.0,7.0,3.0,3.0,7.0,4.0,4.0,5.0,6.0,1.0,2.0,3.0,3.4193606049520895,3.9866042193607427,4.722158218268305,1.0524122354690917,2.139483241655398,2.8581179650500417,571.1167448826018,729.9673026861274,730.7757156823063,730.3285856385482,736.5513971531182,737.5506179871736,731.792534604203,736.5430638126563
1,111,1,1,nan,nan,nan,0,0.0,0.0,0.0,0.38539948714084327,0.14051880874370684,0.24488067839713643,0.5259182958845501,0.14051880874370684,0.301858936494682,8,6,0,7,3,5,nan,nan,nan,nan,nan,nan,nan,nan,nan,nan,nan,nan,0.0,nan,nan,nan,nan,nan,nan,nan,nan,nan,nan,nan,nan,nan,nan,nan,nan,nan,nan,571.1167448826018,737.776586934051,nan,nan,nan,nan,nan,nan
1,112,1,1,1.0,1.0,0.046701488201506436,0,0.0,0.0,0.0,0.38539948714084327,0.14051880874370684,0.24488067839713643,0.5259182958845501,0.14051880874370684,0.2039922203111928,5,4,7,3,6,8,nan,nan,nan,nan,nan,nan,nan,nan,nan,nan,nan,nan,0.0,nan,nan,nan,nan,nan,nan,nan,nan,nan,nan,nan,nan,nan,nan,nan,nan,nan,nan,571.1167448826018,738.8016952917096,nan,738.8483967799111,nan,nan,nan,nan
1,113,1,1,1.0,1.0,0.38153385353507474,0,0.0,0.0,0.0,0.38223408528159714,0.14360742808572663,0.2386266571958705,0.5258415133673238,0.14360742808572663,0.2141176708682906,3,2,6,1,0,5,nan,nan,nan,nan,nan,nan,nan,nan,nan,nan,nan,nan,0.0,nan,nan,nan,nan,nan,nan,nan,nan,nan,nan,nan,nan,nan,nan,nan,nan,nan,nan,571.1167448826018,739.8268278824398,nan,740.2083617359749,nan,nan,nan,nan
1,114,1,1,1.0,1.0,0.2923981859930791,0,0.0,0.0,0.0,0.3822276016543145,0.14294104844609865,0.23928655320821587,0.5251686501004131,0.14294104844609865,0.24021117590988675,7,1,3,2,5,6,nan,nan,nan,nan,nan,nan,nan,nan,nan,nan,nan,nan,0.0,nan,nan,nan,nan,nan,nan,nan,nan,nan,nan,nan,nan,nan,nan,nan,nan,nan,nan,571.1167448826018,740.8519539160188,nan,741.1443521020119,nan,nan,nan,nan
1,115,1,1,1.0,1.0,0.2272361961659044,0,0.0,0.0,0.0,0.3814034785748536,0.14254137571398073,0.2388621028608729,0.5239448542888343,0.14254137571398073,0.30038941189801943,1,4,0,3,2,5,nan,nan,nan,nan,nan,nan,nan,nan,nan,nan,nan,nan,0.0,nan,nan,nan,nan,nan,nan,nan,nan,nan,nan,nan,nan,nan,nan,nan,nan,nan,nan,571.1167448826018,741.8770756731974,nan,742.1043118693633,nan,nan,nan,nan
1,116,1,1,1.0,1.0,0.25806841551093385,0,0.0,0.0,0.0,0.38000195782568136,0.14264444849400748,0.23735750933167388,0.5226464063196888,0.14264444849400748,0.25923426588997245,6,5,7,0,3,2,nan,nan,nan,nan,nan,nan,nan,nan,nan,nan,nan,nan,0.0,nan,nan,nan,nan,nan,nan,nan,nan,nan,nan,nan,nan,nan,nan,nan,nan,nan,nan,571.1167448826018,742.9022245144006,nan,743.1602929299115,nan,nan,nan,nan
1,117,0,0,1.0,0.0,0.22493861184921116,0,0.0,0.0,0.0,0.3789034574444674,0.14246706906283174,0.23643638838163566,0.5213705265072992,0.14246706906283174,0.2367477411753498,4,3,2,8,0,5,nan,nan,nan,nan,nan,nan,nan,nan,nan,nan,nan,nan,0.0,nan,nan,nan,nan,nan,nan,nan,nan,nan,nan,nan,nan,nan,nan,nan,nan,nan,nan,571.1167448826018,743.9273203278426,nan,744.1522589396918,nan,nan,nan,nan
1,118,1,1,1.0,1.0,0.4397486370289698,0,0.0,0.0,0.0,0.3775287713230812,0.14256720284154614,0.23496156848153507,0.5200959741646274,0.14256720284154614,0.3075852214630383,5,1,4,6,8,7,nan,nan,nan,nan,nan,nan,nan,nan,nan,nan,nan,nan,0.0,nan,nan,nan,nan,nan,nan,nan,nan,nan,nan,nan,nan,nan,nan,nan,nan,nan,nan,571.1167448826018,744.9524740157067,nan,745.3922226527357,nan,nan,nan,nan
1,119,0,0,1.0,0.0,0.4306056254426949,0,0.0,0.0,0.0,0.3780793896036643,0.14205454121481703,0.23602484838884724,0.5201339308184814,0.14205454121481703,0.3650976247736253,1,4,3,2,7,0,nan,nan,nan,nan,nan,nan,nan,nan,nan,nan,nan,nan,0.0,nan,nan,nan,nan,nan,nan,nan,nan,nan,nan,nan,nan,nan,nan,nan,nan,nan,nan,571.1167448826018,745.9775914964266,nan,746.4081971218693,nan,nan,nan,nan
1,120,1,1,1.0,1.0,0.47743939800420776,0,0.0,0.0,0.0,0.37854014605839265,0.14151490766617117,0.23702523839222148,0.5200550537245638,0.14151490766617117,0.4492645534919575,0,6,5,4,8,1,nan,nan,nan,nan,nan,nan,nan,nan,nan,nan,nan,nan,0.0,nan,nan,nan,nan,nan,nan,nan,nan,nan,nan,nan,nan,nan,nan,nan,nan,nan,nan,571.1167448826018,747.0027238020557,nan,747.4801632000599,nan,nan,nan,nan
1,121,1,1,1.0,1.0,0.5562292361282744,0,0.0,0.0,0.0,0.37940013955357366,0.14119716359336423,0.23820297596020942,0.5205973031469379,0.14119716359336423,0.48809141985839233,4,5,1,7,6,2,nan,nan,nan,nan,nan,nan,nan,nan,nan,nan,nan,nan,0.0,nan,nan,nan,nan,nan,nan,nan,nan,nan,nan,nan,nan,nan,nan,nan,nan,nan,nan,571.1167448826018,748.0279151225113,nan,748.5841443586396,nan,nan,nan,nan
1,122,1,1,1.0,1.0,0.379149315005634,0,0.0,0.0,0.0,0.3809245283171486,0.14153446207887116,0.23939006623827747,0.5224589903960197,0.14153446207887116,0.47093931637937203,7,6,2,3,0,8,nan,nan,nan,nan,nan,nan,nan,nan,nan,nan,nan,nan,0.0,nan,nan,nan,nan,nan,nan,nan,nan,nan,nan,nan,nan,nan,nan,nan,nan,nan,nan,571.1167448826018,749.0529693120625,nan,749.4321186270681,nan,nan,nan,nan
1,123,1,1,1.0,1.0,0.34602578345220536,0,0.0,0.0,0.0,0.38090935555380234,0.14092841073257326,0.2399809448212291,0.5218377662863756,0.14092841073257326,0.4271347781953712,2,8,1,6,5,3,nan,nan,nan,nan,nan,nan,nan,nan,nan,nan,nan,nan,0.0,nan,nan,nan,nan,nan,nan,nan,nan,nan,nan,nan,nan,nan,nan,nan,nan,nan,nan,571.1167448826018,750.0780483048875,nan,750.4240740883397,nan,nan,nan,nan
1,124,0,0,0.0,1.0,0.6808612848399207,0,0.0,0.0,0.0,0.38061373206141597,0.14036641319670004,0.24024731886471593,0.520980145258116,0.14036641319670004,0.4686787944325867,0,7,5,4,2,1,nan,nan,nan,nan,nan,nan,nan,nan,nan,nan,nan,nan,0.0,nan,nan,nan,nan,nan,nan,nan,nan,nan,nan,nan,nan,nan,nan,nan,nan,nan,nan,571.1167448826018,751.103176049015,nan,751.7840373338549,nan,nan,nan,nan
1,125,1,1,1.0,1.0,0.4717121151625179,0,0.0,0.0,0.0,0.3831368207402269,0.14243716516136817,0.24069965557885875,0.5255739859015951,0.14243716516136817,0.499533061151548,4,2,3,8,0,5,nan,nan,nan,nan,nan,nan,nan,nan,nan,nan,nan,nan,0.0,nan,nan,nan,nan,nan,nan,nan,nan,nan,nan,nan,nan,nan,nan,nan,nan,nan,nan,571.1167448826018,752.1283120609587,nan,752.6000241761212,nan,nan,nan,nan
1,126,1,1,1.0,1.0,0.3745450232527219,0,0.0,0.0,0.0,0.383874948193746,0.14207079746881768,0.24180415072492834,0.5259457456625637,0.14207079746881768,0.5090394744183868,2,6,4,0,8,7,nan,nan,nan,nan,nan,nan,nan,nan,nan,nan,nan,nan,0.0,nan,nan,nan,nan,nan,nan,nan,nan,nan,nan,nan,nan,nan,nan,nan,nan,nan,nan,571.1167448826018,753.1534589065122,nan,753.528003929765,nan,nan,nan,nan
1,127,1,1,1.0,1.0,0.3814132581464946,0,0.0,0.0,0.0,0.3837978413760516,0.14148503139907545,0.24231280997697616,0.5252828727751271,0.14148503139907545,0.40922346552057814,5,2,6,7,1,8,nan,nan,nan,nan,nan,nan,nan,nan,nan,nan,nan,nan,0.0,nan,nan,nan,nan,nan,nan,nan,nan,nan,nan,nan,nan,nan,nan,nan,nan,nan,nan,571.1167448826018,754.1785547199543,nan,754.5599679781008,nan,nan,nan,nan
1,128,1,1,1.0,1.0,0.276284305145964,0,0.0,0.0,0.0,0.3837782956118749,0.14090414562245182,0.24287414998942305,0.5246824412343267,0.14090414562245182,0.34408086218172684,7,3,8,4,0,1,nan,nan,nan,nan,nan,nan,nan,nan,nan,nan,nan,nan,0.0,nan,nan,nan,nan,nan,nan,nan,nan,nan,nan,nan,nan,nan,nan,nan,nan,nan,nan,571.1167448826018,755.2036784727825,nan,755.4799627779284,nan,nan,nan,nan
1,129,1,1,1.0,1.0,0.427109214651864,0,0.0,0.0,0.0,0.3829043607300382,0.1406618028532448,0.24224255787679339,0.523566163583283,0.1406618028532448,0.36160225931477424,0,1,5,8,4,7,nan,nan,nan,nan,nan,nan,nan,nan,nan,nan,nan,nan,0.0,nan,nan,nan,nan,nan,nan,nan,nan,nan,nan,nan,nan,nan,nan,nan,nan,nan,nan,571.1167448826018,756.2288070722134,nan,756.6559162868652,nan,nan,nan,nan
1,130,1,1,1.0,1.0,0.31408881925744936,0,0.0,0.0,0.0,0.3832608514874723,0.14014924857569558,0.24311160291177672,0.5234101000631679,0.14014924857569558,0.33916077968509245,1,4,7,2,6,5,nan,nan,nan,nan,nan,nan,nan,nan,nan,nan,nan,nan,0.0,nan,nan,nan,nan,nan,nan,nan,nan,nan,nan,nan,nan,nan,nan,nan,nan,nan,nan,571.1167448826018,757.25391029811,nan,757.5679991173674,nan,nan,nan,nan
1,131,1,1,1.0,1.0,0.4088251871871762,0,0.0,0.0,0.0,0.3827074752296321,0.13972347446431957,0.24298400076531254,0.5224309496939517,0.13972347446431957,0.38334107369882986,3,7,1,8,2,0,nan,nan,nan,nan,nan,nan,nan,nan,nan,nan,nan,nan,0.0,nan,nan,nan,nan,nan,nan,nan,nan,nan,nan,nan,nan,nan,nan,nan,nan,nan,nan,571.1167448826018,758.2790426037973,nan,758.6878677909845,nan,nan,nan,nan
1,132,1,1,nan,nan,nan,0,0.0,0.0,0.0,0.38291475865786656,0.1391872065155157,0.24372755214235087,0.5221019651733823,0.1391872065155157,0.3614570032223128,5,8,4,1,3,7,nan,nan,nan,nan,nan,nan,nan,nan,nan,nan,nan,nan,0.0,nan,nan,nan,nan,nan,nan,nan,nan,nan,nan,nan,nan,nan,nan,nan,nan,nan,nan,571.1167448826018,759.304170347983,nan,nan,nan,nan,nan,nan
1,133,1,1,1.0,1.0,0.08653388626407832,0,0.0,0.0,0.0,0.38291475865786656,0.1391872065155157,0.24372755214235087,0.5221019651733823,0.1391872065155157,0.24767953672562726,3,0,6,8,7,4,nan,nan,nan,nan,nan,nan,nan,nan,nan,nan,nan,nan,0.0,nan,nan,nan,nan,nan,nan,nan,nan,nan,nan,nan,nan,nan,nan,nan,nan,nan,nan,571.1167448826018,760.3292818416958,nan,760.4158157279599,nan,nan,nan,nan
1,134,1,1,1.0,1.0,0.11739860649686307,0,0.0,0.0,0.0,0.3805810510012226,0.14109129899639955,0.23948975200482303,0.5216723499976221,0.14109129899639955,0.1019662463804707,0,7,8,1,4,6,nan,nan,nan,nan,nan,nan,nan,nan,nan,nan,nan,nan,0.0,nan,nan,nan,nan,nan,nan,nan,nan,nan,nan,nan,nan,nan,nan,nan,nan,nan,nan,571.1167448826018,761.354403313715,nan,761.4718019202119,nan,nan,nan,nan
1,135,1,1,1.0,1.0,0.30022804788313806,0,1.0,0.0,0.0,0.3785249381535323,0.14243643612909704,0.23608850202443524,0.5209613742826293,0.14243643612909704,0.16805351354802647,8,2,4,6,5,3,nan,nan,nan,nan,nan,nan,nan,nan,nan,nan,nan,nan,0.0,nan,nan,nan,nan,nan,nan,nan,nan,nan,nan,nan,nan,nan,nan,nan,nan,nan,nan,571.1167448826018,762.3795210795361,nan,762.6797491274192,nan,nan,nan,nan
1,136,1,1,1.0,1.0,0.2910867468453944,1,0.0,0.0,1.0,0.37791798551577727,0.14204935782861167,0.2358686276871656,0.519967343344389,0.14204935782861167,0.23623780040846518,5,3,6,8,4,1,1.0,1.0,1.0,1.0,1.0,1.0,0.0,0.0,0.0,1.0,1.0,0.0,2.0,3.0,8.0,4.0,8.0,4.0,5.0,6.0,4.0,5.0,1.0,2.0,3.0,5.507612476532813,3.2128046636935323,3.7402654865873046,0.9977326357620768,1.6925550454761833,2.2690953378914855,571.1167448826018,763.4046482535196,764.2130675217486,763.695735000365,770.7888229463133,771.7917836627457,765.2382289071684,770.7805275235442
1,137,1,1,1.0,1.0,0.7695125751779415,0,0.0,0.0,0.0,0.37725005291062047,0.14170517210776268,0.2355448808028578,0.5189552250183831,0.14170517210776268,0.45360912330215797,7,8,1,4,5,3,nan,nan,nan,nan,nan,nan,nan,nan,nan,nan,nan,nan,0.0,nan,nan,nan,nan,nan,nan,nan,nan,nan,nan,nan,nan,nan,nan,nan,nan,nan,nan,571.1167448826018,772.0140195694985,nan,772.7835321446764,nan,nan,nan,nan
1,138,1,1,1.0,1.0,0.49633524037199095,0,0.0,0.0,0.0,0.38024442330960767,0.14523320444897939,0.23501121886062828,0.5254776277585871,0.14523320444897939,0.5189781874651089,8,6,3,7,2,4,nan,nan,nan,nan,nan,nan,nan,nan,nan,nan,nan,nan,0.0,nan,nan,nan,nan,nan,nan,nan,nan,nan,nan,nan,nan,nan,nan,nan,nan,nan,nan,571.1167448826018,773.0391515900847,nan,773.5354868304566,nan,nan,nan,nan
1,139,1,1,1.0,1.0,0.5031307758763433,0,0.0,1.0,0.0,0.3811238991964439,0.14503177656235444,0.23609212263408946,0.5261556757587984,0.14503177656235444,0.5896595304754252,7,0,2,4,3,6,nan,nan,nan,nan,nan,nan,nan,nan,nan,nan,nan,nan,0.0,nan,nan,nan,nan,nan,nan,nan,nan,nan,nan,nan,nan,nan,nan,nan,nan,nan,nan,571.1167448826018,774.06428132992,nan,774.5674121057964,nan,nan,nan,nan
1,140,1,1,1.0,1.0,0.44601617578882724,1,0.0,0.0,1.0,0.38204124413388674,0.1448694069848901,0.23717183714899664,0.5269106511187769,0.1448694069848901,0.4818273973457205,2,8,0,3,5,4,1.0,1.0,1.0,1.0,1.0,1.0,0.0,0.0,0.0,1.0,1.0,0.0,2.0,7.0,5.0,3.0,3.0,5.0,2.0,4.0,5.0,6.0,1.0,2.0,3.0,3.174894094117917,3.6232671540929005,4.0549185097333975,1.280437575886026,2.0410018596448936,2.800319420930464,571.1167448826018,775.0893951043836,775.897795556346,775.5354112801724,781.0150963750784,782.0251211869763,776.9229341341415,781.0067675961764
1,141,1,1,nan,nan,nan,0,0.0,0.0,0.0,0.38251866899698334,0.1444328213494703,0.23808584764751303,0.5269514903464536,0.1444328213494703,0.47457347583258525,0,2,4,6,1,3,nan,nan,nan,nan,nan,nan,nan,nan,nan,nan,nan,nan,0.0,nan,nan,nan,nan,nan,nan,nan,nan,nan,nan,nan,nan,nan,nan,nan,nan,nan,nan,571.1167448826018,782.2485696047661,nan,nan,nan,nan,nan,nan
1,142,1,1,1.0,1.0,0.5094829879235476,0,0.0,0.0,0.0,0.38251866899698334,0.1444328213494703,0.23808584764751303,0.5269514903464536,0.1444328213494703,0.47774958185618743,3,7,0,5,6,2,nan,nan,nan,nan,nan,nan,nan,nan,nan,nan,nan,nan,0.0,nan,nan,nan,nan,nan,nan,nan,nan,nan,nan,nan,nan,nan,nan,nan,nan,nan,nan,571.1167448826018,783.2737352666445,nan,783.783218254568,nan,nan,nan,nan
1,143,1,1,1.0,1.0,0.3563584983930923,0,0.0,0.0,0.0,0.3834591454334764,0.14430813420383617,0.23915101122964025,0.5277672796373126,0.14430813420383617,0.43292074315831997,2,5,7,4,0,8,nan,nan,nan,nan,nan,nan,nan,nan,nan,nan,nan,nan,0.0,nan,nan,nan,nan,nan,nan,nan,nan,nan,nan,nan,nan,nan,nan,nan,nan,nan,nan,571.1167448826018,784.2988498964114,nan,784.6552083948045,nan,nan,nan,nan
1,144,1,1,1.0,1.0,0.3072037636884488,0,0.0,0.0,0.0,0.38325987596994415,0.14379525171092136,0.2394646242590228,0.5270551276808655,0.14379525171092136,0.3910150833350296,4,6,3,8,5,7,nan,nan,nan,nan,nan,nan,nan,nan,nan,nan,nan,nan,0.0,nan,nan,nan,nan,nan,nan,nan,nan,nan,nan,nan,nan,nan,nan,nan,nan,nan,nan,571.1167448826018,785.3239816318965,nan,785.6311853955849,nan,nan,nan,nan
1,145,0,0,1.0,0.0,0.15406245359918103,0,0.0,0.0,0.0,0.38270472186569965,0.14341569485569614,0.2392890270100035,0.5261204167213958,0.14341569485569614,0.27254157189357403,6,3,7,0,8,1,nan,nan,nan,nan,nan,nan,nan,nan,nan,nan,nan,nan,0.0,nan,nan,nan,nan,nan,nan,nan,nan,nan,nan,nan,nan,nan,nan,nan,nan,nan,nan,571.1167448826018,786.3490951212589,nan,786.503157574858,nan,nan,nan,nan
1,146,1,1,1.0,1.0,0.5769015083787963,0,0.0,0.0,0.0,0.3810478938347829,0.14420503960263392,0.23684285423214896,0.5252529334374167,0.14420503960263392,0.34605590855547536,8,2,3,7,5,6,nan,nan,nan,nan,nan,nan,nan,nan,nan,nan,nan,nan,0.0,nan,nan,nan,nan,nan,nan,nan,nan,nan,nan,nan,nan,nan,nan,nan,nan,nan,nan,571.1167448826018,787.3741900793975,nan,787.9510915877763,nan,nan,nan,nan
1,147,1,1,nan,nan,nan,0,0.0,0.0,0.0,0.38245691264445203,0.14463562683792516,0.23782128580652687,0.5270925394823772,0.14463562683792516,0.36548198098898865,1,3,7,5,6,0,nan,nan,nan,nan,nan,nan,nan,nan,nan,nan,nan,nan,0.0,nan,nan,nan,nan,nan,nan,nan,nan,nan,nan,nan,nan,nan,nan,nan,nan,nan,nan,571.1167448826018,788.3993149726302,nan,nan,nan,nan,nan,nan
1,148,1,1,1.0,1.0,0.7825802108854987,0,0.0,0.0,0.0,0.38245691264445203,0.14463562683792516,0.23782128580652687,0.5270925394823772,0.14463562683792516,0.6797408596321475,4,5,1,2,7,6,nan,nan,nan,nan,nan,nan,nan,nan,nan,nan,nan,nan,0.0,nan,nan,nan,nan,nan,nan,nan,nan,nan,nan,nan,nan,nan,nan,nan,nan,nan,nan,571.1167448826018,789.4244552609744,nan,790.2070354718599,nan,nan,nan,nan
1,149,1,1,1.0,1.0,0.4134534269105643,0,0.0,0.0,0.0,0.38531493620331664,0.1480048422118973,0.23731009399141934,0.5333197784152139,0.1480048422118973,0.5980168188980315,2,1,5,7,6,8,nan,nan,nan,nan,nan,nan,nan,nan,nan,nan,nan,nan,0.0,nan,nan,nan,nan,nan,nan,nan,nan,nan,nan,nan,nan,nan,nan,nan,nan,nan,nan,571.1167448826018,790.449599540676,nan,790.8630529675866,nan,nan,nan,nan
1,150,1,1,1.0,1.0,0.3403016366646625,0,0.0,0.0,0.0,0.38551449996719783,0.14749797026562994,0.2380165297015679,0.5330124702328278,0.14749797026562994,0.5121117581535751,4,2,8,5,0,3,nan,nan,nan,nan,nan,nan,nan,nan,nan,nan,nan,nan,0.0,nan,nan,nan,nan,nan,nan,nan,nan,nan,nan,nan,nan,nan,nan,nan,nan,nan,nan,571.1167448826018,791.4746930733672,nan,791.8149947100319,nan,nan,nan,nan
1,151,1,1,1.0,1.0,0.19516324141295627,0,0.0,0.0,0.0,0.3851960995214053,0.14702631342032457,0.23816978610108075,0.5322224129417299,0.14702631342032457,0.3163061016627277,0,6,5,2,7,1,nan,nan,nan,nan,nan,nan,nan,nan,nan,nan,nan,nan,0.0,nan,nan,nan,nan,nan,nan,nan,nan,nan,nan,nan,nan,nan,nan,nan,nan,nan,nan,571.1167448826018,792.4998228131444,nan,792.6949860545574,nan,nan,nan,nan
1,152,1,1,1.0,1.0,0.19399805617285892,0,0.0,0.0,0.0,0.38386719841575184,0.14736464889246603,0.2365025495232858,0.5312318473082178,0.14736464889246603,0.2431543114168259,5,4,3,0,8,7,nan,nan,nan,nan,nan,nan,nan,nan,nan,nan,nan,nan,0.0,nan,nan,nan,nan,nan,nan,nan,nan,nan,nan,nan,nan,nan,nan,nan,nan,nan,nan,571.1167448826018,793.5249454256264,nan,793.7189434817992,nan,nan,nan,nan
1,153,1,1,1.0,1.0,0.27287000184878707,0,1.0,0.0,0.0,0.38254866270573173,0.14769611550807965,0.23485254719765208,0.5302447782138113,0.14769611550807965,0.22067709981153408,0,5,2,6,1,3,nan,nan,nan,nan,nan,nan,nan,nan,nan,nan,nan,nan,0.0,nan,nan,nan,nan,nan,nan,nan,nan,nan,nan,nan,nan,nan,nan,nan,nan,nan,nan,571.1167448826018,794.5500597702921,nan,794.8229297721409,nan,nan,nan,nan
1,154,1,1,1.0,1.0,0.2876961064757779,1,0.0,0.0,1.0,0.38179225814809764,0.14746555348606039,0.23432670466203726,0.529257811634158,0.14746555348606039,0.251521388165808,2,4,3,0,7,8,1.0,1.0,1.0,1.0,1.0,1.0,0.0,0.0,0.0,1.0,1.0,0.0,2.0,8.0,8.0,5.0,0.0,7.0,2.0,4.0,5.0,6.0,1.0,2.0,3.0,3.632682716997806,4.22534572816221,4.848452088423073,1.3615817324607633,2.3624150665127672,3.1050434243516065,571.1167448826018,795.5751897951704,796.3836022211472,795.8628859016462,802.2842957728426,803.2873953307862,797.4003783786902,802.2759892313625
1,155,1,1,1.0,1.0,0.4651899861637503,0,0.0,0.0,0.0,0.3811477639585612,0.1471644410071511,0.2339833229514101,0.5283122049657123,0.1471644410071511,0.34191869816277176,7,3,8,4,2,1,nan,nan,nan,nan,nan,nan,nan,nan,nan,nan,nan,nan,0.0,nan,nan,nan,nan,nan,nan,nan,nan,nan,nan,nan,nan,nan,nan,nan,nan,nan,nan,571.1167448826018,803.5094986681943,nan,803.974688654358,nan,nan,nan,nan
1,156,1,1,1.0,1.0,0.4401007299311459,0,0.0,0.0,0.0,0.38171947975587545,0.14682562800173826,0.23489385175413718,0.5285451077576138,0.14682562800173826,0.3976622741902247,6,7,1,2,0,5,nan,nan,nan,nan,nan,nan,nan,nan,nan,nan,nan,nan,0.0,nan,nan,nan,nan,nan,nan,nan,nan,nan,nan,nan,nan,nan,nan,nan,nan,nan,nan,571.1167448826018,804.534588209528,nan,804.9746889394592,nan,nan,nan,nan
1,157,1,1,1.0,1.0,0.35893062967807055,0,0.0,0.0,0.0,0.3821139476624651,0.14640689323981448,0.2357070544226506,0.5285208409022796,0.14640689323981448,0.42140711525765556,0,6,2,1,4,7,nan,nan,nan,nan,nan,nan,nan,nan,nan,nan,nan,nan,0.0,nan,nan,nan,nan,nan,nan,nan,nan,nan,nan,nan,nan,nan,nan,nan,nan,nan,nan,571.1167448826018,805.5597096816055,nan,805.9186403112835,nan,nan,nan,nan
1,158,0,0,1.0,0.0,0.2537914133281447,0,0.0,0.0,0.0,0.3819583549243148,0.14592704485324942,0.23603131007106537,0.5278853997775642,0.14592704485324942,0.3509409243124537,7,0,3,5,2,8,nan,nan,nan,nan,nan,nan,nan,nan,nan,nan,nan,nan,0.0,nan,nan,nan,nan,nan,nan,nan,nan,nan,nan,nan,nan,nan,nan,nan,nan,nan,nan,571.1167448826018,806.5848288728739,nan,806.8386202862021,nan,nan,nan,nan
1,159,1,1,1.0,1.0,0.5246192763443105,0,0.0,0.0,0.0,0.381103908647007,0.14581330331792391,0.23529060532908308,0.5269172119649309,0.14581330331792391,0.3791137731168419,1,3,4,2,0,6,nan,nan,nan,nan,nan,nan,nan,nan,nan,nan,nan,nan,0.0,nan,nan,nan,nan,nan,nan,nan,nan,nan,nan,nan,nan,nan,nan,nan,nan,nan,nan,571.1167448826018,807.6099503449514,nan,808.1345696212957,nan,nan,nan,nan
1,160,0,0,1.0,0.0,0.2991070524440147,0,0.0,0.0,0.0,0.38205434154566464,0.14579510644843993,0.2362592350972247,0.5278494479941046,0.14579510644843993,0.35917258070548996,0,4,6,3,7,5,nan,nan,nan,nan,nan,nan,nan,nan,nan,nan,nan,nan,0.0,nan,nan,nan,nan,nan,nan,nan,nan,nan,nan,nan,nan,nan,nan,nan,nan,nan,nan,571.1167448826018,808.6434185569524,nan,808.9425256093964,nan,nan,nan,nan
1,161,1,1,1.0,1.0,0.4739771986496635,0,0.0,0.0,0.0,0.38150863569631166,0.14546936647722986,0.2360392692190818,0.5269780021735415,0.14546936647722986,0.43256784247932956,1,0,8,7,4,2,nan,nan,nan,nan,nan,nan,nan,nan,nan,nan,nan,nan,0.0,nan,nan,nan,nan,nan,nan,nan,nan,nan,nan,nan,nan,nan,nan,nan,nan,nan,nan,571.1167448826018,809.6685388885671,nan,810.1425160872168,nan,nan,nan,nan
1,162,1,1,1.0,1.0,0.39282848057337105,0,0.0,0.0,0.0,0.38211300538881726,0.145184527853648,0.23692847753516927,0.5272975332424652,0.145184527853648,0.38863757722234976,3,4,6,8,2,1,nan,nan,nan,nan,nan,nan,nan,nan,nan,nan,nan,nan,0.0,nan,nan,nan,nan,nan,nan,nan,nan,nan,nan,nan,nan,nan,nan,nan,nan,nan,nan,571.1167448826018,810.6936729048612,nan,811.0865013854345,nan,nan,nan,nan
1,163,1,1,1.0,1.0,0.3516963322763331,0,0.0,0.0,0.0,0.38218258639650915,0.14471494116877284,0.2374676452277363,0.526897527565282,0.14471494116877284,0.40616733716645587,1,5,7,6,3,0,nan,nan,nan,nan,nan,nan,nan,nan,nan,nan,nan,nan,0.0,nan,nan,nan,nan,nan,nan,nan,nan,nan,nan,nan,nan,nan,nan,nan,nan,nan,nan,571.1167448826018,811.718792951433,nan,812.0704892837093,nan,nan,nan,nan
1,164,1,1,1.0,1.0,0.37453418964287266,0,0.0,0.0,0.0,0.3819859008860564,0.14426801227951958,0.2377178886065368,0.5262539131655759,0.14426801227951958,0.37301966749752563,6,8,0,4,1,2,nan,nan,nan,nan,nan,nan,nan,nan,nan,nan,nan,nan,0.0,nan,nan,nan,nan,nan,nan,nan,nan,nan,nan,nan,nan,nan,nan,nan,nan,nan,nan,571.1167448826018,812.7439204104594,nan,813.1184546001023,nan,nan,nan,nan
1,165,1,1,1.0,1.0,0.3573817060678266,0,0.0,0.0,0.0,0.3819381335062924,0.14380610106948075,0.23813203243681166,0.5257442345757731,0.14380610106948075,0.36120407599567744,7,5,3,0,2,6,nan,nan,nan,nan,nan,nan,nan,nan,nan,nan,nan,nan,0.0,nan,nan,nan,nan,nan,nan,nan,nan,nan,nan,nan,nan,nan,nan,nan,nan,nan,nan,571.1167448826018,813.7690407421323,nan,814.1264224482002,nan,nan,nan,nan
1,166,1,1,1.0,1.0,0.37223689042730257,0,0.0,0.0,0.0,0.3817817231404423,0.1433606994089449,0.23842102373149737,0.5251424225493873,0.1433606994089449,0.36805092871266726,2,1,6,3,8,7,nan,nan,nan,nan,nan,nan,nan,nan,nan,nan,nan,nan,0.0,nan,nan,nan,nan,nan,nan,nan,nan,nan,nan,nan,nan,nan,nan,nan,nan,nan,nan,571.1167448826018,814.7941633545561,nan,815.1664002449834,nan,nan,nan,nan
1,167,1,1,1.0,1.0,0.20307920209597796,0,0.0,0.0,0.0,0.3817213128068148,0.1429083108376744,0.2388130019691404,0.5246296236444892,0.1429083108376744,0.31089926619703573,0,6,5,4,3,2,nan,nan,nan,nan,nan,nan,nan,nan,nan,nan,nan,nan,0.0,nan,nan,nan,nan,nan,nan,nan,nan,nan,nan,nan,nan,nan,nan,nan,nan,nan,nan,571.1167448826018,815.8192876775865,nan,816.0223668796825,nan,nan,nan,nan
1,168,1,1,1.0,1.0,0.2579230167903006,0,0.0,0.0,0.0,0.3805977775193253,0.1431565174888786,0.2374412600304467,0.5237542950082039,0.1431565174888786,0.2777463697711937,2,1,6,5,7,8,nan,nan,nan,nan,nan,nan,nan,nan,nan,nan,nan,nan,0.0,nan,nan,nan,nan,nan,nan,nan,nan,nan,nan,nan,nan,nan,nan,nan,nan,nan,nan,571.1167448826018,816.8444256851799,nan,817.1023487019702,nan,nan,nan,nan
1,169,1,1,1.0,1.0,0.2888105446472764,0,0.0,0.0,0.0,0.37983106026476887,0.14303555964102962,0.23679550062373925,0.5228666199057985,0.14303555964102962,0.24993758784451833,4,0,2,3,5,6,nan,nan,nan,nan,nan,nan,nan,nan,nan,nan,nan,nan,0.0,nan,nan,nan,nan,nan,nan,nan,nan,nan,nan,nan,nan,nan,nan,nan,nan,nan,nan,571.1167448826018,817.8695180774666,nan,818.1583286221139,nan,nan,nan,nan
1,170,1,1,1.0,1.0,0.2853945308015682,0,0.0,0.0,0.0,0.37926571544726895,0.1427698640665396,0.23649585138072934,0.5220355795138085,0.1427698640665396,0.27737603074638173,0,7,8,6,2,1,nan,nan,nan,nan,nan,nan,nan,nan,nan,nan,nan,nan,0.0,nan,nan,nan,nan,nan,nan,nan,nan,nan,nan,nan,nan,nan,nan,nan,nan,nan,nan,571.1167448826018,818.8969003565726,nan,819.1822948873742,nan,nan,nan,nan
1,171,1,1,1.0,1.0,0.2544821996707469,0,0.0,0.0,0.0,0.3786862636901967,0.14251831360037137,0.23616795008982533,0.521204577290568,0.14251831360037137,0.2762290917065305,6,8,5,4,3,7,nan,nan,nan,nan,nan,nan,nan,nan,nan,nan,nan,nan,0.0,nan,nan,nan,nan,nan,nan,nan,nan,nan,nan,nan,nan,nan,nan,nan,nan,nan,nan,571.1167448826018,819.9197701446246,nan,820.1742523442954,nan,nan,nan,nan
1,172,1,1,1.0,1.0,0.245346600539051,0,0.0,0.0,0.0,0.377924275567378,0.14241109810528926,0.23551317746208875,0.5203353736726672,0.14241109810528926,0.26174111033712205,7,1,3,6,8,5,nan,nan,nan,nan,nan,nan,nan,nan,nan,nan,nan,nan,0.0,nan,nan,nan,nan,nan,nan,nan,nan,nan,nan,nan,nan,nan,nan,nan,nan,nan,nan,571.1167448826018,820.9448930421495,nan,821.1902396426885,nan,nan,nan,nan
1,173,1,1,1.0,1.0,0.22020830790279433,0,0.0,0.0,0.0,0.3771158751098882,0.14235090113446228,0.23476497397542592,0.5194667762443504,0.14235090113446228,0.2400123693708641,3,8,5,7,1,0,nan,nan,nan,nan,nan,nan,nan,nan,nan,nan,nan,nan,0.0,nan,nan,nan,nan,nan,nan,nan,nan,nan,nan,nan,nan,nan,nan,nan,nan,nan,nan,571.1167448826018,821.9700128036202,nan,822.190221111523,nan,nan,nan,nan
1,174,1,1,1.0,1.0,0.25905056938063353,0,0.0,0.0,0.0,0.37616492015711794,0.14244042959949876,0.23372449055761918,0.5186053497566168,0.14244042959949876,0.2415351592741596,6,3,4,8,7,5,nan,nan,nan,nan,nan,nan,nan,nan,nan,nan,nan,nan,0.0,nan,nan,nan,nan,nan,nan,nan,nan,nan,nan,nan,nan,nan,nan,nan,nan,nan,nan,571.1167448826018,822.995135701145,nan,823.2541862705257,nan,nan,nan,nan
1,175,0,0,0.0,1.0,0.5938780879951082,0,0.0,0.0,0.0,0.3754594120199102,0.1422996093321808,0.23315980268772937,0.517759021352091,0.1422996093321808,0.357712321759512,2,4,5,7,0,3,nan,nan,nan,nan,nan,nan,nan,nan,nan,nan,nan,nan,0.0,nan,nan,nan,nan,nan,nan,nan,nan,nan,nan,nan,nan,nan,nan,nan,nan,nan,nan,571.1167448826018,824.0202526117209,nan,824.614130699716,nan,nan,nan,nan
1,176,1,1,1.0,1.0,0.29673135199118406,0,0.0,0.0,0.0,0.37676730828323474,0.1428701670253202,0.23389714125791453,0.519637475308555,0.1428701670253202,0.3832200031223086,1,0,8,2,6,5,nan,nan,nan,nan,nan,nan,nan,nan,nan,nan,nan,nan,0.0,nan,nan,nan,nan,nan,nan,nan,nan,nan,nan,nan,nan,nan,nan,nan,nan,nan,nan,571.1167448826018,825.0454228350427,nan,825.3421541870339,nan,nan,nan,nan
1,177,1,1,1.0,1.0,0.4155782434390858,0,0.0,0.0,0.0,0.3762909037814963,0.1425773047901489,0.23371359899134742,0.5188682085716452,0.1425773047901489,0.435395894475126,0,4,2,6,1,3,nan,nan,nan,nan,nan,nan,nan,nan,nan,nan,nan,nan,0.0,nan,nan,nan,nan,nan,nan,nan,nan,nan,nan,nan,nan,nan,nan,nan,nan,nan,nan,571.1167448826018,826.0705420263694,nan,826.4861202698085,nan,nan,nan,nan
1,178,1,1,1.0,1.0,0.3824281980050728,0,0.0,0.0,0.0,0.37652337324692586,0.1421867827160734,0.23433659053085246,0.5187101559629993,0.1421867827160734,0.36491259781178087,4,8,1,7,5,0,nan,nan,nan,nan,nan,nan,nan,nan,nan,nan,nan,nan,0.0,nan,nan,nan,nan,nan,nan,nan,nan,nan,nan,nan,nan,nan,nan,nan,nan,nan,nan,571.1167448826018,827.0956492436235,nan,827.4780774416286,nan,nan,nan,nan
1,179,1,1,1.0,1.0,0.38128410989884287,0,0.0,0.0,0.0,0.3765581075102091,0.14176868859335778,0.2347894189168513,0.5183267961035669,0.14176868859335778,0.3930968504476671,8,0,7,5,2,3,nan,nan,nan,nan,nan,nan,nan,nan,nan,nan,nan,nan,0.0,nan,nan,nan,nan,nan,nan,nan,nan,nan,nan,nan,nan,nan,nan,nan,nan,nan,nan,571.1167448826018,828.1207530397805,nan,828.5020371496794,nan,nan,nan,nan
1,180,1,1,1.0,1.0,0.620186127431225,0,0.0,0.0,0.0,0.37658574495107827,0.14135401176134743,0.23523173318973084,0.5179397567124258,0.14135401176134743,0.4612994784450469,7,3,1,2,5,4,nan,nan,nan,nan,nan,nan,nan,nan,nan,nan,nan,nan,0.0,nan,nan,nan,nan,nan,nan,nan,nan,nan,nan,nan,nan,nan,nan,nan,nan,nan,nan,571.1167448826018,829.1458519892767,nan,829.7660381167079,nan,nan,nan,nan
1,181,1,1,1.0,1.0,0.5869967387989163,0,0.0,1.0,0.0,0.3780020262445675,0.14215410335461373,0.2358479228899538,0.5201561295991812,0.14215410335461373,0.5294889920429947,6,5,8,1,4,0,nan,nan,nan,nan,nan,nan,nan,nan,nan,nan,nan,nan,0.0,nan,nan,nan,nan,nan,nan,nan,nan,nan,nan,nan,nan,nan,nan,nan,nan,nan,nan,571.1167448826018,830.1710073876893,nan,830.7580041264882,nan,nan,nan,nan
1,182,1,1,1.0,1.0,0.409864075074438,1,0.0,0.0,1.0,0.379210088166847,0.14262538417707354,0.23658470398977344,0.5218354723439205,0.14262538417707354,0.5390156471015265,5,7,1,3,2,6,1.0,1.0,1.0,1.0,1.0,1.0,0.0,0.0,1.0,1.0,1.0,0.0,3.0,4.0,6.0,1.0,3.0,2.0,3.0,5.0,4.0,3.0,1.0,2.0,6.0,4.298661163193174,3.8185492803459056,3.3310711008380167,1.309567775344476,2.548892874503508,4.882574024319183,571.1167448826018,831.1961294299108,832.0045281712664,831.6059935049852,837.946907526697,838.9480710013304,833.0213305576472,837.9385710502393
1,183,1,1,1.0,1.0,0.4016376453801058,0,0.0,0.0,0.0,0.37938626050539637,0.14223382689195593,0.23715243361344043,0.5216200873973523,0.14223382689195593,0.4661661530844867,6,2,4,7,5,8,nan,nan,nan,nan,nan,nan,nan,nan,nan,nan,nan,nan,0.0,nan,nan,nan,nan,nan,nan,nan,nan,nan,nan,nan,nan,nan,nan,nan,nan,nan,nan,571.1167448826018,839.1721135581029,nan,839.573751203483,nan,nan,nan,nan
1,184,1,1,1.0,1.0,0.4165598271647468,0,0.0,0.0,0.0,0.379513411276109,0.1418367793928476,0.23767663188326138,0.5213501906689566,0.1418367793928476,0.4093538492064302,8,4,0,1,2,6,nan,nan,nan,nan,nan,nan,nan,nan,nan,nan,nan,nan,0.0,nan,nan,nan,nan,nan,nan,nan,nan,nan,nan,nan,nan,nan,nan,nan,nan,nan,nan,571.1167448826018,840.1971936912742,nan,840.6137535184389,nan,nan,nan,nan
1,185,1,1,1.0,1.0,0.3993560263188556,0,0.0,0.0,0.0,0.37972390227547625,0.14146066826046583,0.23826323401501043,0.5211845705359421,0.14146066826046583,0.40585116628790274,2,3,7,4,1,0,nan,nan,nan,nan,nan,nan,nan,nan,nan,nan,nan,nan,0.0,nan,nan,nan,nan,nan,nan,nan,nan,nan,nan,nan,nan,nan,nan,nan,nan,nan,nan,571.1167448826018,841.2223656252609,nan,841.6217216515797,nan,nan,nan,nan
1,186,1,1,1.0,1.0,0.38222406967543066,0,0.0,0.0,0.0,0.37983481823052356,0.14106817039729325,0.23876664783323032,0.5209029886278168,0.14106817039729325,0.39937997438634437,0,8,2,6,5,1,nan,nan,nan,nan,nan,nan,nan,nan,nan,nan,nan,nan,0.0,nan,nan,nan,nan,nan,nan,nan,nan,nan,nan,nan,nan,nan,nan,nan,nan,nan,nan,571.1167448826018,842.247486812179,nan,842.6297108818544,nan,nan,nan,nan
1,187,0,0,0.0,1.0,0.6370800294098444,0,0.0,0.0,0.0,0.37984824099145004,0.14067146672934072,0.23917677426210932,0.5205197077207908,0.14067146672934072,0.47288670846804354,4,2,7,5,3,0,nan,nan,nan,nan,nan,nan,nan,nan,nan,nan,nan,nan,0.0,nan,nan,nan,nan,nan,nan,nan,nan,nan,nan,nan,nan,nan,nan,nan,nan,nan,nan,571.1167448826018,843.272570936766,nan,843.9096509661758,nan,nan,nan,nan
1,188,1,1,1.0,1.0,0.6359544725273736,0,0.0,0.0,0.0,0.3812852900887595,0.14158213547791534,0.23970315461084415,0.5228674255666749,0.14158213547791534,0.5517528572042162,8,4,6,2,0,7,nan,nan,nan,nan,nan,nan,nan,nan,nan,nan,nan,nan,0.0,nan,nan,nan,nan,nan,nan,nan,nan,nan,nan,nan,nan,nan,nan,nan,nan,nan,nan,571.1167448826018,844.2976881323848,nan,844.9336426049122,nan,nan,nan,nan
1,189,1,1,1.0,1.0,0.6424187271040864,0,0.0,0.0,0.0,0.38270011888008515,0.1424515663045886,0.24024855257549654,0.5251516851846738,0.1424515663045886,0.6384844096804349,7,1,3,0,4,5,nan,nan,nan,nan,nan,nan,nan,nan,nan,nan,nan,nan,0.0,nan,nan,nan,nan,nan,nan,nan,nan,nan,nan,nan,nan,nan,nan,nan,nan,nan,nan,571.1167448826018,845.3311674630968,nan,845.9735861902009,nan,nan,nan,nan
1,190,1,1,1.0,1.0,0.5612791321473196,0,0.0,1.0,0.0,0.3841350283177868,0.1433560235328287,0.2407790047849581,0.5274910518506155,0.1433560235328287,0.6132174439262599,2,0,8,6,3,4,nan,nan,nan,nan,nan,nan,nan,nan,nan,nan,nan,nan,0.0,nan,nan,nan,nan,nan,nan,nan,nan,nan,nan,nan,nan,nan,nan,nan,nan,nan,nan,571.1167448826018,846.3562800971558,nan,846.9175592293032,nan,nan,nan,nan
1,191,0,0,0.0,1.0,0.6241945696529001,1,0.0,0.0,1.0,0.3851083475695974,0.14356010098397315,0.24154824658562424,0.5286684485535705,0.14356010098397315,0.6092974763014354,0,3,7,4,2,5,1.0,1.0,1.0,1.0,1.0,1.0,0.0,1.0,0.0,1.0,1.0,0.0,3.0,4.0,3.0,5.0,4.0,2.0,4.0,5.0,4.0,3.0,1.0,2.0,6.0,3.761352572706528,3.2891920023830608,2.859006892715115,1.0355639487388544,2.2174882119870745,4.4731008151429705,571.1167448826018,847.3813665024936,848.1898051571916,848.0055610721465,853.7154610407306,854.719294149254,849.2065969950636,853.707133972377
1,192,1,1,1.0,1.0,0.608698490774259,0,0.0,0.0,0.0,0.3864148296574843,0.1442481796520774,0.2421666500054069,0.5306630093095617,0.1442481796520774,0.5980573975248262,3,2,4,5,8,0,nan,nan,nan,nan,nan,nan,nan,nan,nan,nan,nan,nan,0.0,nan,nan,nan,nan,nan,nan,nan,nan,nan,nan,nan,nan,nan,nan,nan,nan,nan,nan,571.1167448826018,854.9406716335798,nan,855.549370124354,nan,nan,nan,nan
1,193,1,1,1.0,1.0,0.5515129019040614,0,0.0,0.0,0.0,0.387622893033119,0.1447809594656313,0.24284193356748768,0.5324038524987502,0.1447809594656313,0.5948019874437401,0,6,8,1,2,7,nan,nan,nan,nan,nan,nan,nan,nan,nan,nan,nan,nan,0.0,nan,nan,nan,nan,nan,nan,nan,nan,nan,nan,nan,nan,nan,nan,nan,nan,nan,nan,571.1167448826018,855.9657976671588,nan,856.5173105690628,nan,nan,nan,nan
1,194,1,1,1.0,1.0,0.3744016202399507,0,0.0,0.0,0.0,0.3885087849729619,0.14488831805906102,0.24362046691390085,0.5333971030320229,0.14488831805906102,0.511537670972757,7,3,6,4,8,5,nan,nan,nan,nan,nan,nan,nan,nan,nan,nan,nan,nan,0.0,nan,nan,nan,nan,nan,nan,nan,nan,nan,nan,nan,nan,nan,nan,nan,nan,nan,nan,571.1167448826018,856.9908817917458,nan,857.3652834119857,nan,nan,nan,nan
1,195,1,1,1.0,1.0,0.2612614847603254,0,0.0,0.0,0.0,0.38843294000127904,0.1445019907867155,0.24393094921456354,0.5329349307879945,0.1445019907867155,0.3957253356347792,5,1,3,7,0,2,nan,nan,nan,nan,nan,nan,nan,nan,nan,nan,nan,nan,0.0,nan,nan,nan,nan,nan,nan,nan,nan,nan,nan,nan,nan,nan,nan,nan,nan,nan,nan,571.1167448826018,858.0160026935628,nan,858.2772641783231,nan,nan,nan,nan
1,196,1,1,1.0,1.0,0.2921065333648585,0,0.0,0.0,0.0,0.387752878743306,0.14441324409567902,0.24333963464762698,0.532166122838985,0.14441324409567902,0.30925654612171155,1,8,2,0,3,7,nan,nan,nan,nan,nan,nan,nan,nan,nan,nan,nan,nan,0.0,nan,nan,nan,nan,nan,nan,nan,nan,nan,nan,nan,nan,nan,nan,nan,nan,nan,nan,571.1167448826018,859.041126446391,nan,859.3332329797558,nan,nan,nan,nan
1,197,1,1,1.0,1.0,0.21889230713713914,0,0.0,0.0,0.0,0.3872441215870377,0.14419658513153608,0.24304753645550162,0.5314407067185738,0.14419658513153608,0.25742010842077434,3,0,6,7,5,4,nan,nan,nan,nan,nan,nan,nan,nan,nan,nan,nan,nan,0.0,nan,nan,nan,nan,nan,nan,nan,nan,nan,nan,nan,nan,nan,nan,nan,nan,nan,nan,571.1167448826018,860.06631862215,nan,860.2852109292871,nan,nan,nan,nan
1,198,0,0,1.0,0.0,0.2978095830185339,0,0.0,0.0,0.0,0.3863533712460329,0.1443322802254288,0.24202109102060412,0.5306856514714617,0.1443322802254288,0.26960280784017715,8,6,2,4,7,0,nan,nan,nan,nan,nan,nan,nan,nan,nan,nan,nan,nan,0.0,nan,nan,nan,nan,nan,nan,nan,nan,nan,nan,nan,nan,nan,nan,nan,nan,nan,nan,571.1167448826018,861.0913773732027,nan,861.3891869562212,nan,nan,nan,nan
1,199,1,1,1.0,1.0,0.4323082155897282,0,0.0,0.0,0.0,0.38588735130799345,0.14409445520599776,0.2417928961019957,0.5299818065139912,0.14409445520599776,0.31633670191513374,1,4,8,3,6,7,nan,nan,nan,nan,nan,nan,nan,nan,nan,nan,nan,nan,0.0,nan,nan,nan,nan,nan,nan,nan,nan,nan,nan,nan,nan,nan,nan,nan,nan,nan,nan,571.1167448826018,862.1248527125572,nan,862.5571609281469,nan,nan,nan,nan
1,200,1,1,1.0,1.0,0.33517562021734193,0,0.0,0.0,0.0,0.3861303924822434,0.14375579020382007,0.24237460227842333,0.5298861826860635,0.14375579020382007,0.3550978062752013,2,8,5,4,3,0,nan,nan,nan,nan,nan,nan,nan,nan,nan,nan,nan,nan,0.0,nan,nan,nan,nan,nan,nan,nan,nan,nan,nan,nan,nan,nan,nan,nan,nan,nan,nan,571.1167448826018,863.1499596447684,nan,863.4851352649857,nan,nan,nan,nan
1,201,1,1,1.0,1.0,0.3660303621436469,0,0.0,0.0,0.0,0.3858650030433637,0.1434278412584794,0.24243716178488428,0.5292928443018431,0.1434278412584794,0.37783806598357234,8,0,7,1,2,6,nan,nan,nan,nan,nan,nan,nan,nan,nan,nan,nan,nan,0.0,nan,nan,nan,nan,nan,nan,nan,nan,nan,nan,nan,nan,nan,nan,nan,nan,nan,nan,571.1167448826018,864.1750862484914,nan,864.5411166106351,nan,nan,nan,nan
1,202,1,1,1.0,1.0,0.3169072729651816,0,0.0,0.0,0.0,0.3857622328832615,0.1430628714103088,0.2426993614729527,0.5288251042935703,0.1430628714103088,0.3393710851087235,7,6,8,2,4,5,nan,nan,nan,nan,nan,nan,nan,nan,nan,nan,nan,nan,0.0,nan,nan,nan,nan,nan,nan,nan,nan,nan,nan,nan,nan,nan,nan,nan,nan,nan,nan,571.1167448826018,865.2002131373738,nan,865.517120410339,nan,nan,nan,nan
1,203,0,0,1.0,0.0,0.29172422032570466,0,0.0,0.0,0.0,0.38540731040945697,0.14277884106309136,0.24262846934636562,0.5281861514725483,0.14277884106309136,0.3248872851448444,0,8,7,4,2,3,nan,nan,nan,nan,nan,nan,nan,nan,nan,nan,nan,nan,0.0,nan,nan,nan,nan,nan,nan,nan,nan,nan,nan,nan,nan,nan,nan,nan,nan,nan,nan,571.1167448826018,866.2253334690467,nan,866.5170576893725,nan,nan,nan,nan
1,204,1,1,1.0,1.0,0.42658207315253094,0,0.0,0.0,0.0,0.3849268843064634,0.1425693932683712,0.24235749103809218,0.5274962775748346,0.1425693932683712,0.3450711888144724,4,5,8,2,7,6,nan,nan,nan,nan,nan,nan,nan,nan,nan,nan,nan,nan,0.0,nan,nan,nan,nan,nan,nan,nan,nan,nan,nan,nan,nan,nan,nan,nan,nan,nan,nan,571.1167448826018,867.2504461031058,nan,867.6770281762583,nan,nan,nan,nan
1,205,0,0,1.0,0.0,0.3534405463724397,0,0.0,0.0,0.0,0.38513941078016783,0.14223619551799888,0.24290321526216896,0.5273756062981667,0.14223619551799888,0.35724894661689177,5,2,6,8,1,3,nan,nan,nan,nan,nan,nan,nan,nan,nan,nan,nan,nan,0.0,nan,nan,nan,nan,nan,nan,nan,nan,nan,nan,nan,nan,nan,nan,nan,nan,nan,nan,571.1167448826018,868.275580974645,nan,868.6290215210174,nan,nan,nan,nan
1,206,1,1,1.0,1.0,0.3282948411651887,0,0.0,0.0,0.0,0.38497850283901186,0.14189261398933087,0.243085888849681,0.5268711168283428,0.14189261398933087,0.36943915356338647,1,0,5,4,3,7,nan,nan,nan,nan,nan,nan,nan,nan,nan,nan,nan,nan,0.0,nan,nan,nan,nan,nan,nan,nan,nan,nan,nan,nan,nan,nan,nan,nan,nan,nan,nan,571.1167448826018,869.3007033020258,nan,869.628998143191,nan,nan,nan,nan
1,207,1,1,1.0,1.0,0.5590628000209108,0,0.0,0.0,0.0,0.38469222171944706,0.14159087186789487,0.24310134985155218,0.5262830935873419,0.14159087186789487,0.4135993958528464,6,2,4,8,1,3,nan,nan,nan,nan,nan,nan,nan,nan,nan,nan,nan,nan,0.0,nan,nan,nan,nan,nan,nan,nan,nan,nan,nan,nan,nan,nan,nan,nan,nan,nan,nan,571.1167448826018,870.3259006094304,nan,870.8849634094513,nan,nan,nan,nan
1,208,1,1,1.0,1.0,0.5019673013011925,0,0.0,0.0,0.0,0.3855684557812635,0.14177183449938008,0.2437966212818834,0.5273402902806436,0.14177183449938008,0.46310831416243065,8,3,2,6,5,4,nan,nan,nan,nan,nan,nan,nan,nan,nan,nan,nan,nan,0.0,nan,nan,nan,nan,nan,nan,nan,nan,nan,nan,nan,nan,nan,nan,nan,nan,nan,nan,571.1167448826018,871.3509681984433,nan,871.8529354997445,nan,nan,nan,nan
1,209,1,1,1.0,1.0,0.5808076013345271,0,0.0,1.0,0.0,0.3861504500088631,0.14165507943926303,0.24449537056960008,0.5278055294481261,0.14165507943926303,0.5472792342188768,3,0,7,5,8,1,nan,nan,nan,nan,nan,nan,nan,nan,nan,nan,nan,nan,0.0,nan,nan,nan,nan,nan,nan,nan,nan,nan,nan,nan,nan,nan,nan,nan,nan,nan,nan,571.1167448826018,872.3760990786832,nan,872.9569066800177,nan,nan,nan,nan
1,210,1,1,1.0,1.0,0.6356565477908589,1,0.0,0.0,1.0,0.38711889354779677,0.14196445491444928,0.2451544386333475,0.529083348462246,0.14196445491444928,0.5728104834755262,5,4,3,0,2,8,1.0,1.0,1.0,1.0,1.0,1.0,0.0,0.0,0.0,1.0,1.0,0.0,2.0,2.0,3.0,7.0,0.0,2.0,0.0,5.0,4.0,3.0,1.0,2.0,6.0,3.733111300971359,3.2855228237458505,2.868979247054085,1.3734967272612266,2.237707182415761,4.356635896314401,571.1167448826018,873.4012265377096,874.2096224281122,874.0368830855004,879.6185696361354,880.61462847644,875.2264156914316,879.610240287031
1,211,1,1,1.0,1.0,0.6252462868578732,0,0.0,0.0,0.0,0.3883492779747426,0.14268292700409083,0.2456663509706518,0.5310322049788334,0.14268292700409083,0.6139034786610864,8,2,0,5,3,4,nan,nan,nan,nan,nan,nan,nan,nan,nan,nan,nan,nan,0.0,nan,nan,nan,nan,nan,nan,nan,nan,nan,nan,nan,nan,nan,nan,nan,nan,nan,nan,571.1167448826018,880.8354517351836,nan,881.4606980220415,nan,nan,nan,nan
1,212,1,1,1.0,1.0,0.7041099647176452,0,0.0,0.0,0.0,0.3895162583140684,0.1432941806056251,0.2462220777084433,0.5328104389196935,0.1432941806056251,0.6550042664554591,3,0,7,4,8,5,nan,nan,nan,nan,nan,nan,nan,nan,nan,nan,nan,nan,0.0,nan,nan,nan,nan,nan,nan,nan,nan,nan,nan,nan,nan,nan,nan,nan,nan,nan,nan,571.1167448826018,881.8605464082793,nan,882.564656372997,nan,nan,nan,nan
1,213,1,1,1.0,1.0,0.5580740888835862,0,0.0,1.0,0.0,0.3910583843258506,0.14462134742357918,0.24643703690227142,0.5356797317494297,0.14462134742357918,0.6291434468197016,0,1,3,8,2,7,nan,nan,nan,nan,nan,nan,nan,nan,nan,nan,nan,nan,0.0,nan,nan,nan,nan,nan,nan,nan,nan,nan,nan,nan,nan,nan,nan,nan,nan,nan,nan,571.1167448826018,882.8865385618992,nan,883.4446126507828,nan,nan,nan,nan
1,214,1,1,1.0,1.0,0.38985550502547994,1,0.0,0.0,1.0,0.3918730950797908,0.1447367052527788,0.247136389827012,0.5366098003325696,0.1447367052527788,0.5506798528755704,4,3,1,5,0,6,1.0,1.0,1.0,1.0,1.0,1.0,0.0,0.0,0.0,1.0,1.0,0.0,2.0,3.0,5.0,3.0,5.0,0.0,4.0,5.0,4.0,3.0,1.0,2.0,6.0,3.856002271641046,3.2474503199919127,2.607410999655258,1.282007596688345,1.9052017663489096,4.463081990368664,571.1167448826018,883.9107554260409,884.7191886639339,884.3006109310663,890.2281804323429,891.2379609174095,885.7276639819029,890.2198445260292
1,215,1,1,1.0,1.0,0.7346667818492278,0,0.0,0.0,0.0,0.39186330095331356,0.14438504329178242,0.24747825766153114,0.536248344245096,0.14438504329178242,0.560865458586098,5,6,2,7,1,8,nan,nan,nan,nan,nan,nan,nan,nan,nan,nan,nan,nan,0.0,nan,nan,nan,nan,nan,nan,nan,nan,nan,nan,nan,nan,nan,nan,nan,nan,nan,nan,571.1167448826018,891.4617229402647,nan,892.196389722114,nan,nan,nan,nan
1,216,1,1,1.0,1.0,0.7335363783640787,0,0.0,0.0,0.0,0.39351935641657887,0.14598386706195732,0.24753548935462155,0.5395032234785362,0.14598386706195732,0.6193528884129288,6,1,8,4,3,7,nan,nan,nan,nan,nan,nan,nan,nan,nan,nan,nan,nan,0.0,nan,nan,nan,nan,nan,nan,nan,nan,nan,nan,nan,nan,nan,nan,nan,nan,nan,nan,571.1167448826018,892.4868498290889,nan,893.220386207453,nan,nan,nan,nan
1,217,1,1,1.0,1.0,0.5884327646926977,0,0.0,1.0,0.0,0.3951540536374803,0.14751943589194244,0.24763461774553785,0.5426734895294227,0.14751943589194244,0.6855453083020014,2,4,5,0,6,3,nan,nan,nan,nan,nan,nan,nan,nan,nan,nan,nan,nan,0.0,nan,nan,nan,nan,nan,nan,nan,nan,nan,nan,nan,nan,nan,nan,nan,nan,nan,nan,571.1167448826018,893.511940225726,nan,894.1003729904187,nan,nan,nan,nan
1,218,1,1,1.0,1.0,0.4112382351886481,1,0.0,0.0,1.0,0.3960788321592756,0.14776922692519948,0.2483096052340761,0.5438480590844751,0.14776922692519948,0.5777357927484749,5,8,0,4,1,7,1.0,1.0,1.0,1.0,1.0,1.0,0.0,0.0,0.0,1.0,1.0,0.0,2.0,4.0,4.0,3.0,4.0,1.0,5.0,5.0,4.0,3.0,1.0,2.0,6.0,3.7797224139794707,3.2452365537174046,2.5816489180433564,1.0860469432664104,1.740005764644593,4.291654086846393,571.1167448826018,894.5370559958974,895.3454644305166,894.948294231086,900.7043893582886,901.705298527726,896.3706152673694,900.6960545923794
1,219,1,1,1.0,1.0,0.6184581638080999,0,0.0,0.0,0.0,0.3961510197927488,0.1474206695178257,0.2487303502749231,0.5435716893105745,0.1474206695178257,0.5393763878964819,8,0,1,7,4,6,nan,nan,nan,nan,nan,nan,nan,nan,nan,nan,nan,nan,0.0,nan,nan,nan,nan,nan,nan,nan,nan,nan,nan,nan,nan,nan,nan,nan,nan,nan,nan,571.1167448826018,901.9296649529715,nan,902.5481231167796,nan,nan,nan,nan
1,220,1,1,1.0,1.0,0.5693709966726601,0,0.0,0.0,0.0,0.3972046081530111,0.1478613021208548,0.24934330603215632,0.545065910273866,0.1478613021208548,0.533022465223136,4,6,3,2,5,8,nan,nan,nan,nan,nan,nan,nan,nan,nan,nan,nan,nan,0.0,nan,nan,nan,nan,nan,nan,nan,nan,nan,nan,nan,nan,nan,nan,nan,nan,nan,nan,571.1167448826018,902.9547448010999,nan,903.5241157977725,nan,nan,nan,nan
1,221,1,1,1.0,1.0,0.7521896044490859,0,0.0,1.0,0.0,0.39801671375923586,0.14798309108429877,0.2500336226749371,0.5459998048435346,0.14798309108429877,0.6466729216432819,1,2,5,0,4,7,nan,nan,nan,nan,nan,nan,nan,nan,nan,nan,nan,nan,0.0,nan,nan,nan,nan,nan,nan,nan,nan,nan,nan,nan,nan,nan,nan,nan,nan,nan,nan,571.1167448826018,903.9798642774695,nan,904.7320538819185,nan,nan,nan,nan
1,222,1,1,1.0,1.0,0.5990605534170754,1,0.0,0.0,1.0,0.39967949728360136,0.149607256043861,0.25007224123974037,0.5492867533274624,0.149607256043861,0.6402070515129404,2,3,4,1,7,5,1.0,1.0,1.0,1.0,1.0,1.0,0.0,0.0,1.0,1.0,1.0,1.0,4.0,4.0,4.0,4.0,1.0,7.0,5.0,5.0,4.0,3.0,1.0,2.0,6.0,4.024208881426603,3.351490493339952,2.785388686286751,1.160251305962447,2.0648298535961658,4.567834617220797,571.1167448826018,905.0049908812507,905.8134181321366,905.6040514346678,911.4474216963863,912.4534523207694,906.8385270599974,911.4390852198703
1,223,1,1,1.0,1.0,0.7629148958367296,0,0.0,0.0,0.0,0.40061118446179517,0.14987539311537781,0.2507357913464173,0.550486577577173,0.14987539311537781,0.7047216845676303,4,8,7,2,1,0,nan,nan,nan,nan,nan,nan,nan,nan,nan,nan,nan,nan,0.0,nan,nan,nan,nan,nan,nan,nan,nan,nan,nan,nan,nan,nan,nan,nan,nan,nan,nan,571.1167448826018,912.680930848117,nan,913.4438457439537,nan,nan,nan,nan
1,224,1,1,1.0,1.0,0.6977768540964462,0,0.0,0.0,0.0,0.4022963180030739,0.15154486648404697,0.25075145151902695,0.5538411844871209,0.15154486648404697,0.6865841011167504,5,4,6,8,2,3,nan,nan,nan,nan,nan,nan,nan,nan,nan,nan,nan,nan,0.0,nan,nan,nan,nan,nan,nan,nan,nan,nan,nan,nan,nan,nan,nan,nan,nan,nan,nan,571.1167448826018,913.706023810606,nan,914.4038006647024,nan,nan,nan,nan
1,225,1,1,1.0,1.0,0.6406320338137448,0,0.0,1.0,0.0,0.4036642834479507,0.1525183891454592,0.25114589430249146,0.5561826725934099,0.1525183891454592,0.7004412612489735,2,7,5,3,4,1,nan,nan,nan,nan,nan,nan,nan,nan,nan,nan,nan,nan,0.0,nan,nan,nan,nan,nan,nan,nan,nan,nan,nan,nan,nan,nan,nan,nan,nan,nan,nan,571.1167448826018,914.7311740773148,nan,915.3718061111285,nan,nan,nan,nan
1,226,1,1,1.0,1.0,0.7754026474431157,1,0.0,0.0,1.0,0.40475630073074237,0.1530105940698363,0.25174570666090607,0.5577668948005787,0.1530105940698363,0.7046038451177689,5,6,8,1,7,0,1.0,1.0,1.0,1.0,1.0,1.0,0.0,0.0,0.0,1.0,1.0,0.0,2.0,0.0,4.0,7.0,1.0,7.0,1.0,4.0,5.0,6.0,1.0,2.0,3.0,3.0416279293131083,3.440430300310254,4.016476237156894,0.9702884909347631,2.033012914529536,2.689475729363039,571.1167448826018,915.756375661178,916.5647059796029,916.5317783086211,921.6402802260127,922.6399649104569,917.5815000982257,921.6319514471106
1,227,0,0,1.0,0.0,0.5861414524260908,0,0.0,0.0,0.0,0.4064565133303404,0.15470013949043768,0.2517563738399027,0.5611566528207781,0.15470013949043768,0.6673920445609838,4,8,5,3,2,7,nan,nan,nan,nan,nan,nan,nan,nan,nan,nan,nan,nan,0.0,nan,nan,nan,nan,nan,nan,nan,nan,nan,nan,nan,nan,nan,nan,nan,nan,nan,nan,571.1167448826018,922.8654677261948,nan,923.4516091786209,nan,nan,nan,nan
1,228,1,1,1.0,1.0,0.5369647653424181,0,0.0,0.0,0.0,0.4072769925042936,0.15482121487653192,0.2524557776277617,0.5620982073808255,0.15482121487653192,0.6328362884038748,6,4,1,0,7,3,nan,nan,nan,nan,nan,nan,nan,nan,nan,nan,nan,nan,0.0,nan,nan,nan,nan,nan,nan,nan,nan,nan,nan,nan,nan,nan,nan,nan,nan,nan,nan,571.1167448826018,923.8905854920158,nan,924.4275502573582,nan,nan,nan,nan
1,229,1,1,1.0,1.0,0.3518383098416962,0,0.0,0.0,0.0,0.4078664823808305,0.15471508633767936,0.2531513960431512,0.5625815687185098,0.15471508633767936,0.49164817587006837,2,8,4,7,1,6,nan,nan,nan,nan,nan,nan,nan,nan,nan,nan,nan,nan,0.0,nan,nan,nan,nan,nan,nan,nan,nan,nan,nan,nan,nan,nan,nan,nan,nan,nan,nan,571.1167448826018,924.9157126659411,nan,925.2675509757828,nan,nan,nan,nan
1,230,1,1,1.0,1.0,0.35067397996317595,0,0.0,0.0,0.0,0.4076129612381195,0.15441044936120515,0.25320251187691434,0.5620234105993247,0.15441044936120515,0.4131590183824301,5,6,8,3,4,2,nan,nan,nan,nan,nan,nan,nan,nan,nan,nan,nan,nan,0.0,nan,nan,nan,nan,nan,nan,nan,nan,nan,nan,nan,nan,nan,nan,nan,nan,nan,nan,571.1167448826018,925.9408241596539,nan,926.291498139617,nan,nan,nan,nan
1,231,1,1,1.0,1.0,0.26950131385819986,0,0.0,0.0,0.0,0.40735647934048463,0.1541094606666594,0.25324701867382526,0.561465940007144,0.1541094606666594,0.32400453455435735,1,0,4,7,8,6,nan,nan,nan,nan,nan,nan,nan,nan,nan,nan,nan,nan,0.0,nan,nan,nan,nan,nan,nan,nan,nan,nan,nan,nan,nan,nan,nan,nan,nan,nan,nan,571.1167448826018,926.9659635927528,nan,927.235464906611,nan,nan,nan,nan
1,232,1,1,1.0,1.0,0.30840316036483273,0,0.0,0.0,0.0,0.40673829474190937,0.15403915944346605,0.25269913529844334,0.5607774541853754,0.15403915944346605,0.30952615139540285,3,8,7,0,1,5,nan,nan,nan,nan,nan,nan,nan,nan,nan,nan,nan,nan,0.0,nan,nan,nan,nan,nan,nan,nan,nan,nan,nan,nan,nan,nan,nan,nan,nan,nan,nan,571.1167448826018,927.9910796479671,nan,928.299482808332,nan,nan,nan,nan
1,233,1,1,1.0,1.0,0.28323208168148994,0,0.0,0.0,0.0,0.4062992986062974,0.15383468340185288,0.2524646152044445,0.5601339820081502,0.15383468340185288,0.28704551863484085,6,3,8,1,4,0,nan,nan,nan,nan,nan,nan,nan,nan,nan,nan,nan,nan,0.0,nan,nan,nan,nan,nan,nan,nan,nan,nan,nan,nan,nan,nan,nan,nan,nan,nan,nan,571.1167448826018,929.0162270637229,nan,929.2994591454044,nan,nan,nan,nan
1,234,1,1,1.0,1.0,0.23409302718937397,0,0.0,0.0,0.0,0.4057523331977427,0.15371059134269258,0.2520417418550501,0.5594629245404352,0.15371059134269258,0.2752427564118989,1,5,2,8,3,7,nan,nan,nan,nan,nan,nan,nan,nan,nan,nan,nan,nan,0.0,nan,nan,nan,nan,nan,nan,nan,nan,nan,nan,nan,nan,nan,nan,nan,nan,nan,nan,571.1167448826018,930.0413542377064,nan,930.2754472648958,nan,nan,nan,nan
1,235,1,1,1.0,1.0,0.26490614510839805,0,0.0,0.0,0.0,0.40499277874637823,0.1537927486898701,0.25120003005650815,0.5587855274362483,0.1537927486898701,0.26074375132642064,7,1,8,5,4,2,nan,nan,nan,nan,nan,nan,nan,nan,nan,nan,nan,nan,0.0,nan,nan,nan,nan,nan,nan,nan,nan,nan,nan,nan,nan,nan,nan,nan,nan,nan,nan,571.1167448826018,931.0664859731914,nan,931.3313921182998,nan,nan,nan,nan
1,236,1,1,1.0,1.0,0.32776000211015344,0,0.0,0.0,0.0,0.4043756570122902,0.15373381040258852,0.2506418466097017,0.5581094674148788,0.15373381040258852,0.27558639146930847,5,4,6,8,1,0,nan,nan,nan,nan,nan,nan,nan,nan,nan,nan,nan,nan,0.0,nan,nan,nan,nan,nan,nan,nan,nan,nan,nan,nan,nan,nan,nan,nan,nan,nan,nan,571.1167448826018,932.0916011731024,nan,932.4193611752125,nan,nan,nan,nan
1,237,1,1,1.0,1.0,0.3020520886639133,0,0.0,0.0,0.0,0.404039623438158,0.15347983160502865,0.2505597918331294,0.5575194550431867,0.15347983160502865,0.2982394119608216,3,2,5,7,4,8,nan,nan,nan,nan,nan,nan,nan,nan,nan,nan,nan,nan,0.0,nan,nan,nan,nan,nan,nan,nan,nan,nan,nan,nan,nan,nan,nan,nan,nan,nan,nan,571.1167448826018,933.1172808620613,nan,933.4193329507252,nan,nan,nan,nan
1,238,0,0,1.0,0.0,0.3174700514646247,0,0.0,0.0,0.0,0.4035942630242967,0.15329193288986578,0.25030233013443093,0.5568861959141624,0.15329193288986578,0.3157607140795638,7,1,3,4,2,0,nan,nan,nan,nan,nan,nan,nan,nan,nan,nan,nan,nan,0.0,nan,nan,nan,nan,nan,nan,nan,nan,nan,nan,nan,nan,nan,nan,nan,nan,nan,nan,571.1167448826018,934.1418469681521,nan,934.4593170196167,nan,nan,nan,nan
1,239,1,1,1.0,1.0,0.3643177936319262,0,0.0,0.0,0.0,0.403219809930559,0.1530632513778956,0.2501565585526634,0.5562830613084546,0.1530632513778956,0.3279466445868214,0,5,7,1,4,6,nan,nan,nan,nan,nan,nan,nan,nan,nan,nan,nan,nan,0.0,nan,nan,nan,nan,nan,nan,nan,nan,nan,nan,nan,nan,nan,nan,nan,nan,nan,nan,571.1167448826018,935.1669593171682,nan,935.5312771108001,nan,nan,nan,nan
1,240,1,1,1.0,1.0,0.32319932989776134,0,0.0,0.0,0.0,0.4030514029335952,0.15275293930396394,0.25029846362963126,0.5558043422375591,0.15275293930396394,0.3349957249981041,4,3,6,7,0,1,nan,nan,nan,nan,nan,nan,nan,nan,nan,nan,nan,nan,0.0,nan,nan,nan,nan,nan,nan,nan,nan,nan,nan,nan,nan,nan,nan,nan,nan,nan,nan,571.1167448826018,936.1920511393109,nan,936.5152504692087,nan,nan,nan,nan
1,241,1,1,1.0,1.0,0.3220495398854837,0,0.0,0.0,0.0,0.40270721296361317,0.1525131175383185,0.2501940954252947,0.5552203305019316,0.1525131175383185,0.3365222211383904,1,8,3,0,7,6,nan,nan,nan,nan,nan,nan,nan,nan,nan,nan,nan,nan,0.0,nan,nan,nan,nan,nan,nan,nan,nan,nan,nan,nan,nan,nan,nan,nan,nan,nan,nan,571.1167448826018,937.2171911425539,nan,937.5392406824394,nan,nan,nan,nan
1,242,0,0,1.0,0.0,0.3271310814307071,0,0.0,0.0,0.0,0.4023610426928916,0.15227679755104237,0.25008424514184924,0.5546378402439339,0.15227679755104237,0.3241266504046507,5,0,7,2,1,8,nan,nan,nan,nan,nan,nan,nan,nan,nan,nan,nan,nan,0.0,nan,nan,nan,nan,nan,nan,nan,nan,nan,nan,nan,nan,nan,nan,nan,nan,nan,nan,571.1167448826018,938.2520794150769,nan,938.5792104965076,nan,nan,nan,nan
1,243,1,1,1.0,1.0,0.26341110456269234,0,0.0,0.0,0.0,0.40203954713194207,0.1520302958005632,0.25000925133137886,0.5540698429325053,0.1520302958005632,0.3041972419596277,7,4,5,6,8,1,nan,nan,nan,nan,nan,nan,nan,nan,nan,nan,nan,nan,0.0,nan,nan,nan,nan,nan,nan,nan,nan,nan,nan,nan,nan,nan,nan,nan,nan,nan,nan,571.1167448826018,939.2757431939826,nan,939.5391542985453,nan,nan,nan,nan
1,244,1,1,1.0,1.0,0.3502303713466972,0,0.0,0.0,0.0,0.40144963886568996,0.15197462559574684,0.24947501326994312,0.5534242644614368,0.15197462559574684,0.3135908524466989,6,1,8,3,0,4,nan,nan,nan,nan,nan,nan,nan,nan,nan,nan,nan,nan,0.0,nan,nan,nan,nan,nan,nan,nan,nan,nan,nan,nan,nan,nan,nan,nan,nan,nan,nan,571.1167448826018,940.3008940308937,nan,940.6511244022404,nan,nan,nan,nan
1,245,1,1,1.0,1.0,0.285112286277581,0,0.0,0.0,0.0,0.40123260807111794,0.15168879411080105,0.24954381396031688,0.552921402181919,0.15168879411080105,0.29958458739565685,1,2,3,4,7,5,nan,nan,nan,nan,nan,nan,nan,nan,nan,nan,nan,nan,0.0,nan,nan,nan,nan,nan,nan,nan,nan,nan,nan,nan,nan,nan,nan,nan,nan,nan,nan,571.1167448826018,941.3259995375993,nan,941.6111118238769,nan,nan,nan,nan
1,246,0,0,1.0,0.0,0.29993382934480906,0,0.0,0.0,0.0,0.40074264890743216,0.15155546165602762,0.24918718725140454,0.5522981105634598,0.15155546165602762,0.31175882898969576,6,4,2,3,8,1,nan,nan,nan,nan,nan,nan,nan,nan,nan,nan,nan,nan,0.0,nan,nan,nan,nan,nan,nan,nan,nan,nan,nan,nan,nan,nan,nan,nan,nan,nan,nan,571.1167448826018,942.3511412513908,nan,942.6510750807356,nan,nan,nan,nan
1,247,1,1,1.0,1.0,0.3388447988545522,0,0.0,0.0,0.0,0.40031908243868164,0.1513772411495792,0.24894184128910243,0.5516963235882608,0.1513772411495792,0.30796363815898076,0,5,7,6,4,3,nan,nan,nan,nan,nan,nan,nan,nan,nan,nan,nan,nan,0.0,nan,nan,nan,nan,nan,nan,nan,nan,nan,nan,nan,nan,nan,nan,nan,nan,nan,nan,571.1167448826018,943.3762276567286,nan,943.7150724555831,nan,nan,nan,nan
1,248,0,0,0.0,1.0,0.7296579396352172,0,0.0,0.0,0.0,0.40006186786301584,0.15111232944441674,0.2489495384185991,0.5511741973074326,0.15111232944441674,0.45614552261152613,4,2,8,5,3,0,nan,nan,nan,nan,nan,nan,nan,nan,nan,nan,nan,nan,0.0,nan,nan,nan,nan,nan,nan,nan,nan,nan,nan,nan,nan,nan,nan,nan,nan,nan,nan,571.1167448826018,944.4013668046682,nan,945.1310247443034,nan,nan,nan,nan
1,249,1,1,1.0,1.0,0.3605012206826359,0,0.0,0.0,0.0,0.4014351848287333,0.1522844194942566,0.2491507653344767,0.5537196043229899,0.1522844194942566,0.4763346530574684,2,3,1,8,0,6,nan,nan,nan,nan,nan,nan,nan,nan,nan,nan,nan,nan,0.0,nan,nan,nan,nan,nan,nan,nan,nan,nan,nan,nan,nan,nan,nan,nan,nan,nan,nan,571.1167448826018,945.4265159309725,nan,945.7870171516552,nan,nan,nan,nan
1,250,1,1,1.0,1.0,0.7113254458527081,0,0.0,0.0,0.0,0.4012653343550981,0.15199092702960992,0.24927440732548817,0.5532562613847081,0.15199092702960992,0.6004948687235204,6,4,3,1,7,8,nan,nan,nan,nan,nan,nan,nan,nan,nan,nan,nan,nan,0.0,nan,nan,nan,nan,nan,nan,nan,nan,nan,nan,nan,nan,nan,nan,nan,nan,nan,nan,571.1167448826018,946.4516582150245,nan,947.1629836608772,nan,nan,nan,nan
1,251,1,1,1.0,1.0,0.5101868886267766,0,0.0,0.0,0.0,0.4025465744852535,0.15297516825743443,0.24957140622781906,0.555521742742688,0.15297516825743443,0.5273378517207069,7,1,5,2,8,3,nan,nan,nan,nan,nan,nan,nan,nan,nan,nan,nan,nan,0.0,nan,nan,nan,nan,nan,nan,nan,nan,nan,nan,nan,nan,nan,nan,nan,nan,nan,nan,571.1167448826018,947.4767762659467,nan,947.9869631545735,nan,nan,nan,nan
1,252,1,1,1.0,1.0,0.3890324344392866,0,0.0,0.0,0.0,0.4029895387409799,0.1528155248377248,0.2501740139032551,0.5558050635787047,0.1528155248377248,0.5368482563062571,1,3,2,0,5,7,nan,nan,nan,nan,nan,nan,nan,nan,nan,nan,nan,nan,0.0,nan,nan,nan,nan,nan,nan,nan,nan,nan,nan,nan,nan,nan,nan,nan,nan,nan,nan,571.1167448826018,948.5019014442223,nan,948.8909338786616,nan,nan,nan,nan
1,253,1,1,1.0,1.0,0.4198737767874263,0,0.0,0.0,0.0,0.40293233749384183,0.15250466356526896,0.2504276739285729,0.5554370010591108,0.15250466356526896,0.4396976999511632,5,8,3,7,6,1,nan,nan,nan,nan,nan,nan,nan,nan,nan,nan,nan,nan,0.0,nan,nan,nan,nan,nan,nan,nan,nan,nan,nan,nan,nan,nan,nan,nan,nan,nan,nan,571.1167448826018,949.5270280480036,nan,949.946901824791,nan,nan,nan,nan
1,254,1,1,1.0,1.0,0.4826939924969338,0,0.0,0.0,0.0,0.40300148622565235,0.15219694422527524,0.2508045420003771,0.5551984304509276,0.15219694422527524,0.4305334012412156,2,4,7,8,3,0,nan,nan,nan,nan,nan,nan,nan,nan,nan,nan,nan,nan,0.0,nan,nan,nan,nan,nan,nan,nan,nan,nan,nan,nan,nan,nan,nan,nan,nan,nan,nan,571.1167448826018,950.5521643449902,nan,951.0348583374871,nan,nan,nan,nan
1,255,1,1,1.0,1.0,0.3616361856693402,0,0.0,0.0,0.0,0.4033254395031779,0.1519719029929509,0.25135353651022696,0.5552973424961288,0.1519719029929509,0.4214013183179001,0,3,6,5,8,4,nan,nan,nan,nan,nan,nan,nan,nan,nan,nan,nan,nan,0.0,nan,nan,nan,nan,nan,nan,nan,nan,nan,nan,nan,nan,nan,nan,nan,nan,nan,nan,571.1167448826018,951.5772293681512,nan,951.9388655538205,nan,nan,nan,nan
1,256,1,1,1.0,1.0,0.29644597141304985,0,0.0,0.0,0.0,0.40315665709899234,0.15168705726095047,0.25146959983804185,0.5548437143599428,0.15168705726095047,0.3802587165264413,4,2,8,0,7,6,nan,nan,nan,nan,nan,nan,nan,nan,nan,nan,nan,nan,0.0,nan,nan,nan,nan,nan,nan,nan,nan,nan,nan,nan,nan,nan,nan,nan,nan,nan,nan,571.1167448826018,952.6023536911234,nan,952.8987996625365,nan,nan,nan,nan
1,257,1,1,1.0,1.0,0.31931832537520677,0,0.0,0.0,0.0,0.40272637207606515,0.15153189805165454,0.25119447402441064,0.5542582701277197,0.15153189805165454,0.32580016081919894,1,3,4,7,0,2,nan,nan,nan,nan,nan,nan,nan,nan,nan,nan,nan,nan,0.0,nan,nan,nan,nan,nan,nan,nan,nan,nan,nan,nan,nan,nan,nan,nan,nan,nan,nan,571.1167448826018,953.6274771588505,nan,953.9467954842257,nan,nan,nan,nan
1,258,1,1,1.0,1.0,0.270209776062984,0,0.0,0.0,0.0,0.4023914000009613,0.15131928745767542,0.2510721125432859,0.5537106874586367,0.15131928745767542,0.2953246909504135,3,2,5,4,8,0,nan,nan,nan,nan,nan,nan,nan,nan,nan,nan,nan,nan,0.0,nan,nan,nan,nan,nan,nan,nan,nan,nan,nan,nan,nan,nan,nan,nan,nan,nan,nan,571.1167448826018,954.6525789593579,nan,954.9227887354209,nan,nan,nan,nan
1,259,1,1,1.0,1.0,0.26901722175534815,0,0.0,0.0,0.0,0.4018626735052094,0.15124663640819266,0.25061603709701674,0.553109309913402,0.15124663640819266,0.2861817743978463,0,7,6,5,2,8,nan,nan,nan,nan,nan,nan,nan,nan,nan,nan,nan,nan,0.0,nan,nan,nan,nan,nan,nan,nan,nan,nan,nan,nan,nan,nan,nan,nan,nan,nan,nan,571.1167448826018,955.6777335024672,nan,955.9467507242225,nan,nan,nan,nan
1,260,1,1,1.0,1.0,0.33173736894968897,0,0.0,0.0,0.0,0.40133340875720197,0.15117684243488488,0.2501565663223171,0.5525102511920869,0.15117684243488488,0.29032145558934036,5,3,8,1,4,0,nan,nan,nan,nan,nan,nan,nan,nan,nan,nan,nan,nan,0.0,nan,nan,nan,nan,nan,nan,nan,nan,nan,nan,nan,nan,nan,nan,nan,nan,nan,nan,571.1167448826018,956.7029584641568,nan,957.0346958331065,nan,nan,nan,nan
1,261,1,1,1.0,1.0,0.26671821193303913,0,0.0,0.0,0.0,0.401057233996061,0.15094002077879676,0.25011721321726427,0.5519972547748577,0.15094002077879676,0.28915760087935877,7,0,3,5,2,1,nan,nan,nan,nan,nan,nan,nan,nan,nan,nan,nan,nan,0.0,nan,nan,nan,nan,nan,nan,nan,nan,nan,nan,nan,nan,nan,nan,nan,nan,nan,nan,571.1167448826018,957.7279707446578,nan,957.9946889565908,nan,nan,nan,nan
1,262,1,1,1.0,1.0,0.2655598690616898,0,0.0,0.0,0.0,0.4005262497191321,0.1508770654830656,0.2496491842360665,0.5514033152021977,0.1508770654830656,0.28800514998147264,3,2,5,4,1,7,nan,nan,nan,nan,nan,nan,nan,nan,nan,nan,nan,nan,0.0,nan,nan,nan,nan,nan,nan,nan,nan,nan,nan,nan,nan,nan,nan,nan,nan,nan,nan,571.1167448826018,958.7530970633379,nan,959.0186569323996,nan,nan,nan,nan
1,263,0,0,1.0,0.0,0.28040878125466406,0,0.0,0.0,0.0,0.39999488601575633,0.1508167801256048,0.24917810589015155,0.5508116661413611,0.1508167801256048,0.27089562074979767,5,7,6,1,2,8,nan,nan,nan,nan,nan,nan,nan,nan,nan,nan,nan,nan,0.0,nan,nan,nan,nan,nan,nan,nan,nan,nan,nan,nan,nan,nan,nan,nan,nan,nan,nan,571.1167448826018,959.7782285137218,nan,960.0586372949765,nan,nan,nan,nan
1,264,1,1,1.0,1.0,0.31126665917690843,0,0.0,0.0,0.0,0.3995259208990462,0.1507062179295959,0.2488197029694503,0.5502321388286421,0.1507062179295959,0.28574510316442076,4,1,2,6,7,0,nan,nan,nan,nan,nan,nan,nan,nan,nan,nan,nan,nan,0.0,nan,nan,nan,nan,nan,nan,nan,nan,nan,nan,nan,nan,nan,nan,nan,nan,nan,nan,571.1167448826018,960.8033519814489,nan,961.1146186406258,nan,nan,nan,nan
1,265,0,0,1.0,0.0,0.3181197840021923,0,0.0,0.0,0.0,0.3991811581579441,0.15051230379586947,0.24866885436207462,0.5496934619538135,0.15051230379586947,0.3032650748112549,5,7,8,1,3,2,nan,nan,nan,nan,nan,nan,nan,nan,nan,nan,nan,nan,0.0,nan,nan,nan,nan,nan,nan,nan,nan,nan,nan,nan,nan,nan,nan,nan,nan,nan,nan,571.1167448826018,961.8284711727174,nan,962.1465909567196,nan,nan,nan,nan
1,266,1,1,1.0,1.0,0.30895510519621894,0,0.0,0.0,0.0,0.39886574425072324,0.15030393978003548,0.24856180447068776,0.5491696840307587,0.15030393978003548,0.31278051612510654,7,8,5,3,2,6,nan,nan,nan,nan,nan,nan,nan,nan,nan,nan,nan,nan,0.0,nan,nan,nan,nan,nan,nan,nan,nan,nan,nan,nan,nan,nan,nan,nan,nan,nan,nan,571.1167448826018,962.8536114610615,nan,963.1625665662577,nan,nan,nan,nan
1,267,1,1,1.0,1.0,0.4517947757267393,0,0.0,0.0,0.0,0.39851725340167476,0.15011636427697395,0.24840088912470082,0.5486336176786487,0.15011636427697395,0.35962322164171684,6,0,7,5,3,4,nan,nan,nan,nan,nan,nan,nan,nan,nan,nan,nan,nan,0.0,nan,nan,nan,nan,nan,nan,nan,nan,nan,nan,nan,nan,nan,nan,nan,nan,nan,nan,571.1167448826018,963.8787412008969,nan,964.3305359766237,nan,nan,nan,nan
1,268,1,1,1.0,1.0,0.4426372242742218,0,0.0,0.0,0.0,0.3987229581210766,0.14986271225043268,0.24886024587064393,0.5485856703715093,0.14986271225043268,0.40112903506572667,8,3,5,1,6,7,nan,nan,nan,nan,nan,nan,nan,nan,nan,nan,nan,nan,0.0,nan,nan,nan,nan,nan,nan,nan,nan,nan,nan,nan,nan,nan,nan,nan,nan,nan,nan,571.1167448826018,964.9038720810786,nan,965.3465093053528,nan,nan,nan,nan
1,269,1,1,1.0,1.0,0.37751201179344207,0,0.0,0.0,0.0,0.3988918591447425,0.1495989339364366,0.2492929252083059,0.5484907930811791,0.1495989339364366,0.4239813372648011,0,1,3,5,4,2,nan,nan,nan,nan,nan,nan,nan,nan,nan,nan,nan,nan,0.0,nan,nan,nan,nan,nan,nan,nan,nan,nan,nan,nan,nan,nan,nan,nan,nan,nan,nan,571.1167448826018,965.9289416657411,nan,966.3064536775346,nan,nan,nan,nan
1,270,1,1,1.0,1.0,0.504354975768365,0,0.0,0.0,0.0,0.3988099440207912,0.14931791299205016,0.249492031028741,0.5481278570128414,0.14931791299205016,0.44150140394534293,8,0,4,1,3,6,nan,nan,nan,nan,nan,nan,nan,nan,nan,nan,nan,nan,0.0,nan,nan,nan,nan,nan,nan,nan,nan,nan,nan,nan,nan,nan,nan,nan,nan,nan,nan,571.1167448826018,966.9540776776848,nan,967.4584326534532,nan,nan,nan,nan
1,271,1,1,1.0,1.0,0.45519624976441264,0,0.0,0.0,0.0,0.3992127876534155,0.14917471762544368,0.25003807002797185,0.5483875052788592,0.14917471762544368,0.44568774577540654,3,8,0,5,6,1,nan,nan,nan,nan,nan,nan,nan,nan,nan,nan,nan,nan,0.0,nan,nan,nan,nan,nan,nan,nan,nan,nan,nan,nan,nan,nan,nan,nan,nan,nan,nan,571.1167448826018,967.9792022857582,nan,968.4343985355226,nan,nan,nan,nan
1,272,1,1,1.0,1.0,0.374060646048747,0,0.0,0.0,0.0,0.39942565252836226,0.14893070686086923,0.25049494566749303,0.5483563593892316,0.14893070686086923,0.4445372905271749,0,7,4,3,1,6,nan,nan,nan,nan,nan,nan,nan,nan,nan,nan,nan,nan,0.0,nan,nan,nan,nan,nan,nan,nan,nan,nan,nan,nan,nan,nan,nan,nan,nan,nan,nan,571.1167448826018,969.0043251833413,nan,969.37838582939,nan,nan,nan,nan
1,273,1,1,1.0,1.0,0.38090920937247574,0,0.0,0.0,0.0,0.39932957295836374,0.14865653963350603,0.2506730333248577,0.5479861125918698,0.14865653963350603,0.40338870172854513,6,1,0,8,7,2,nan,nan,nan,nan,nan,nan,nan,nan,nan,nan,nan,nan,0.0,nan,nan,nan,nan,nan,nan,nan,nan,nan,nan,nan,nan,nan,nan,nan,nan,nan,nan,571.1167448826018,970.0294432342052,nan,970.4103524435777,nan,nan,nan,nan
1,274,1,1,1.0,1.0,0.28375551698263735,0,0.0,0.0,0.0,0.39926006215237925,0.14838008891234863,0.25087997324003064,0.5476401510647279,0.14838008891234863,0.3462417908012867,5,2,7,6,0,4,nan,nan,nan,nan,nan,nan,nan,nan,nan,nan,nan,nan,0.0,nan,nan,nan,nan,nan,nan,nan,nan,nan,nan,nan,nan,nan,nan,nan,nan,nan,nan,571.1167448826018,971.0545695528854,nan,971.338325069868,nan,nan,nan,nan
