block,trial,freq_trials,correct_response,actual_response,acc,rts,probe_trials,trials_colorind0,trials_colorind1,trials_colorind2,trials_colorind3,trials_colorind4,trials_colorind5,wholereport_resp0,wholereport_resp1,wholereport_resp2,wholereport_resp3,wholereport_resp4,wholereport_resp5,wholereport_respacc0,wholereport_respacc1,wholereport_respacc2,wholereport_respacc3,wholereport_respacc4,wholereport_respacc5,wholereport_respacc_total,wholereport_respcolorind0,wholereport_respcolorind1,wholereport_respcolorind2,wholereport_respcolorind3,wholereport_respcolorind4,wholereport_respcolorind5,wholereport_resporder0,wholereport_resporder1,wholereport_resporder2,wholereport_resporder3,wholereport_resporder4,wholereport_resporder5,wholereport_rts0,wholereport_rts1,wholereport_rts2,wholereport_rts3,wholereport_rts4,wholereport_rts5,time_blockstart,time_encarray_offset,time_encarray_onset,time_response,time_iti_offset,time_iti_onset,time_memprobe_offset,time_memprobe_onset
1,1,1,1,1.0,1.0,0.45028394646942616,0.0,3,8,7,5,4,1,nan,nan,nan,nan,nan,nan,nan,nan,nan,nan,nan,nan,0.0,nan,nan,nan,nan,nan,nan,nan,nan,nan,nan,nan,nan,nan,nan,nan,nan,nan,nan,164.89049099804834,165.904186679516,nan,166.3544706259854,nan,nan,nan,nan
1,2,1,1,1.0,1.0,0.3056915565393865,0.0,6,3,1,4,7,0,nan,nan,nan,nan,nan,nan,nan,nan,nan,nan,nan,nan,0.0,nan,nan,nan,nan,nan,nan,nan,nan,nan,nan,nan,nan,nan,nan,nan,nan,nan,nan,164.89049099804834,166.9128198227845,nan,167.2185113793239,nan,nan,nan,nan
1,3,0,0,0.0,1.0,0.4096542038023472,1.0,0,2,3,7,4,1,1.0,1.0,1.0,1.0,1.0,1.0,1.0,1.0,1.0,0.0,0.0,0.0,3.0,0.0,2.0,3.0,1.0,6.0,8.0,2.0,1.0,3.0,5.0,6.0,4.0,2.098061056807637,1.3637024811469018,7.435091199818999,13.88981245784089,15.201551291625947,12.065740297548473,164.89049099804834,167.91282409941778,168.72125276830047,168.32247830322012,184.99026893312111,186.00060983141884,169.74640010111034,184.98193086963147
1,4,1,1,1.0,1.0,0.6832291334867477,0.0,3,5,4,6,7,8,nan,nan,nan,nan,nan,nan,nan,nan,nan,nan,nan,nan,0.0,nan,nan,nan,nan,nan,nan,nan,nan,nan,nan,nan,nan,nan,nan,nan,nan,nan,nan,164.89049099804834,186.2071495349519,nan,186.89037866843864,nan,nan,nan,nan
1,5,1,1,1.0,1.0,0.4907503258436918,0.0,8,0,1,7,3,6,nan,nan,nan,nan,nan,nan,nan,nan,nan,nan,nan,nan,0.0,nan,nan,nan,nan,nan,nan,nan,nan,nan,nan,nan,nan,nan,nan,nan,nan,nan,nan,164.89049099804834,187.21558139659464,nan,187.70633172243834,nan,nan,nan,nan
1,6,1,1,1.0,1.0,0.5382404532283545,0.0,3,1,8,5,4,7,nan,nan,nan,nan,nan,nan,nan,nan,nan,nan,nan,nan,0.0,nan,nan,nan,nan,nan,nan,nan,nan,nan,nan,nan,nan,nan,nan,nan,nan,nan,nan,164.89049099804834,188.22409422742203,nan,188.76233468065038,nan,nan,nan,nan
1,7,1,1,1.0,1.0,0.5537393987178802,0.0,2,6,5,4,1,3,nan,nan,nan,nan,nan,nan,nan,nan,nan,nan,nan,nan,0.0,nan,nan,nan,nan,nan,nan,nan,nan,nan,nan,nan,nan,nan,nan,nan,nan,nan,nan,164.89049099804834,189.23259194754064,nan,189.78633134625852,nan,nan,nan,nan
1,8,1,1,1.0,1.0,0.6652706223540008,0.0,3,4,7,8,2,1,nan,nan,nan,nan,nan,nan,nan,nan,nan,nan,nan,nan,0.0,nan,nan,nan,nan,nan,nan,nan,nan,nan,nan,nan,nan,nan,nan,nan,nan,nan,nan,164.89049099804834,190.24106258293614,nan,190.90633320529014,nan,nan,nan,nan
1,9,1,1,1.0,1.0,0.6251058792695403,0.0,8,3,2,0,5,4,nan,nan,nan,nan,nan,nan,nan,nan,nan,nan,nan,nan,0.0,nan,nan,nan,nan,nan,nan,nan,nan,nan,nan,nan,nan,nan,nan,nan,nan,nan,nan,164.89049099804834,191.24121397174895,nan,191.8663198510185,nan,nan,nan,nan
1,10,1,1,1.0,1.0,0.6166341030038893,0.0,4,5,7,2,6,3,nan,nan,nan,nan,nan,nan,nan,nan,nan,nan,nan,nan,0.0,nan,nan,nan,nan,nan,nan,nan,nan,nan,nan,nan,nan,nan,nan,nan,nan,nan,nan,164.89049099804834,192.2496726331301,nan,192.866306736134,nan,nan,nan,nan
1,11,1,1,1.0,1.0,0.48014200339093804,0.0,2,3,0,5,8,1,nan,nan,nan,nan,nan,nan,nan,nan,nan,nan,nan,nan,0.0,nan,nan,nan,nan,nan,nan,nan,nan,nan,nan,nan,nan,nan,nan,nan,nan,nan,nan,164.89049099804834,193.2581583787687,nan,193.73830038215965,nan,nan,nan,nan
1,12,1,1,1.0,1.0,0.33567819371819496,0.0,1,2,5,0,4,8,nan,nan,nan,nan,nan,nan,nan,nan,nan,nan,nan,nan,0.0,nan,nan,nan,nan,nan,nan,nan,nan,nan,nan,nan,nan,nan,nan,nan,nan,nan,nan,164.89049099804834,194.26662103179842,nan,194.60229922551662,nan,nan,nan,nan
1,13,1,1,1.0,1.0,0.38318001106381416,0.0,5,8,0,7,1,2,nan,nan,nan,nan,nan,nan,nan,nan,nan,nan,nan,nan,0.0,nan,nan,nan,nan,nan,nan,nan,nan,nan,nan,nan,nan,nan,nan,nan,nan,nan,nan,164.89049099804834,195.27511476026848,nan,195.6582947713323,nan,nan,nan,nan
1,14,1,1,1.0,1.0,0.39101914782077074,0.0,0,2,7,1,3,4,nan,nan,nan,nan,nan,nan,nan,nan,nan,nan,nan,nan,0.0,nan,nan,nan,nan,nan,nan,nan,nan,nan,nan,nan,nan,nan,nan,nan,nan,nan,nan,164.89049099804834,196.2752798339352,nan,196.66629898175597,nan,nan,nan,nan
1,15,1,1,1.0,1.0,0.3902194397523999,0.0,4,1,6,3,5,0,nan,nan,nan,nan,nan,nan,nan,nan,nan,nan,nan,nan,0.0,nan,nan,nan,nan,nan,nan,nan,nan,nan,nan,nan,nan,nan,nan,nan,nan,nan,nan,164.89049099804834,197.29206886095926,nan,197.68228830071166,nan,nan,nan,nan
1,16,1,1,1.0,1.0,0.461715925950557,0.0,8,7,4,2,1,5,nan,nan,nan,nan,nan,nan,nan,nan,nan,nan,nan,nan,0.0,nan,nan,nan,nan,nan,nan,nan,nan,nan,nan,nan,nan,nan,nan,nan,nan,nan,nan,164.89049099804834,198.30055261123925,nan,198.7622685371898,nan,nan,nan,nan
1,17,1,1,1.0,1.0,0.3575839288532734,0.0,7,8,1,5,2,6,nan,nan,nan,nan,nan,nan,nan,nan,nan,nan,nan,nan,0.0,nan,nan,nan,nan,nan,nan,nan,nan,nan,nan,nan,nan,nan,nan,nan,nan,nan,nan,164.89049099804834,199.3006982980296,nan,199.65828222688287,nan,nan,nan,nan
1,18,1,1,1.0,1.0,0.38140981877222657,0.0,3,4,0,8,7,2,nan,nan,nan,nan,nan,nan,nan,nan,nan,nan,nan,nan,0.0,nan,nan,nan,nan,nan,nan,nan,nan,nan,nan,nan,nan,nan,nan,nan,nan,nan,nan,164.89049099804834,200.30084655061364,nan,200.68225636938587,nan,nan,nan,nan
1,19,1,1,1.0,1.0,0.3892369815148413,0.0,7,6,5,3,4,8,nan,nan,nan,nan,nan,nan,nan,nan,nan,nan,nan,nan,0.0,nan,nan,nan,nan,nan,nan,nan,nan,nan,nan,nan,nan,nan,nan,nan,nan,nan,nan,164.89049099804834,201.30101333465427,nan,201.6902503161691,nan,nan,nan,nan
1,20,1,1,1.0,1.0,0.38910526456311345,0.0,3,8,2,4,6,0,nan,nan,nan,nan,nan,nan,nan,nan,nan,nan,nan,nan,0.0,nan,nan,nan,nan,nan,nan,nan,nan,nan,nan,nan,nan,nan,nan,nan,nan,nan,nan,164.89049099804834,202.30113963456824,nan,202.69024489913136,nan,nan,nan,nan
1,21,1,1,1.0,1.0,0.41294911596924067,0.0,8,0,6,7,1,4,nan,nan,nan,nan,nan,nan,nan,nan,nan,nan,nan,nan,0.0,nan,nan,nan,nan,nan,nan,nan,nan,nan,nan,nan,nan,nan,nan,nan,nan,nan,nan,164.89049099804834,203.30128532089293,nan,203.71423443686217,nan,nan,nan,nan
1,22,0,0,1.0,0.0,0.3888024874031544,0.0,6,1,8,5,0,3,nan,nan,nan,nan,nan,nan,nan,nan,nan,nan,nan,nan,0.0,nan,nan,nan,nan,nan,nan,nan,nan,nan,nan,nan,nan,nan,nan,nan,nan,nan,nan,164.89049099804834,204.3014304372482,nan,204.69023292465135,nan,nan,nan,nan
1,23,1,1,1.0,1.0,0.5243118447251618,0.0,4,6,2,7,1,0,nan,nan,nan,nan,nan,nan,nan,nan,nan,nan,nan,nan,0.0,nan,nan,nan,nan,nan,nan,nan,nan,nan,nan,nan,nan,nan,nan,nan,nan,nan,nan,164.89049099804834,205.30988681782037,nan,205.83419866254553,nan,nan,nan,nan
1,24,1,1,1.0,1.0,0.5161405652761459,0.0,6,5,0,1,8,7,nan,nan,nan,nan,nan,nan,nan,nan,nan,nan,nan,nan,0.0,nan,nan,nan,nan,nan,nan,nan,nan,nan,nan,nan,nan,nan,nan,nan,nan,nan,nan,164.89049099804834,206.31007298873737,nan,206.82621355401352,nan,nan,nan,nan
1,25,1,1,1.0,1.0,0.35602328600361943,0.0,0,7,8,4,1,6,nan,nan,nan,nan,nan,nan,nan,nan,nan,nan,nan,nan,0.0,nan,nan,nan,nan,nan,nan,nan,nan,nan,nan,nan,nan,nan,nan,nan,nan,nan,nan,164.89049099804834,207.3101904504001,nan,207.66621373640373,nan,nan,nan,nan
1,26,0,0,1.0,0.0,0.2758640060201287,1.0,2,8,3,1,5,7,1.0,1.0,1.0,1.0,1.0,1.0,0.0,1.0,1.0,1.0,0.0,1.0,4.0,5.0,8.0,3.0,1.0,6.0,7.0,4.0,1.0,2.0,3.0,6.0,5.0,4.3096359288319945,1.4691607682034373,2.3822953421622515,3.11720929434523,6.348305316641927,5.237062045373023,164.89049099804834,208.31035153241828,209.11876024398953,208.5862155384384,216.51147887902334,217.5124348225072,210.1272419989109,216.50314822793007
1,27,1,1,1.0,1.0,0.746123552788049,0.0,1,4,6,3,7,2,nan,nan,nan,nan,nan,nan,nan,nan,nan,nan,nan,nan,0.0,nan,nan,nan,nan,nan,nan,nan,nan,nan,nan,nan,nan,nan,nan,nan,nan,nan,nan,164.89049099804834,217.72004251461476,nan,218.4661660674028,nan,nan,nan,nan
1,28,1,1,1.0,1.0,0.6336363861337304,0.0,8,0,4,6,1,3,nan,nan,nan,nan,nan,nan,nan,nan,nan,nan,nan,nan,0.0,nan,nan,nan,nan,nan,nan,nan,nan,nan,nan,nan,nan,nan,nan,nan,nan,nan,nan,164.89049099804834,218.7284929077141,nan,219.36212929384783,nan,nan,nan,nan
1,29,1,1,1.0,1.0,0.6574830887839198,0.0,3,1,8,7,2,4,nan,nan,nan,nan,nan,nan,nan,nan,nan,nan,nan,nan,0.0,nan,nan,nan,nan,nan,nan,nan,nan,nan,nan,nan,nan,nan,nan,nan,nan,nan,nan,164.89049099804834,219.7286494281143,nan,220.38613251689821,nan,nan,nan,nan
1,30,1,1,1.0,1.0,0.4813274531625211,0.0,0,4,2,3,7,5,nan,nan,nan,nan,nan,nan,nan,nan,nan,nan,nan,nan,0.0,nan,nan,nan,nan,nan,nan,nan,nan,nan,nan,nan,nan,nan,nan,nan,nan,nan,nan,164.89049099804834,220.7288019573316,nan,221.21012941049412,nan,nan,nan,nan
1,31,1,1,1.0,1.0,0.6488342648372054,0.0,8,2,1,5,0,6,nan,nan,nan,nan,nan,nan,nan,nan,nan,nan,nan,nan,0.0,nan,nan,nan,nan,nan,nan,nan,nan,nan,nan,nan,nan,nan,nan,nan,nan,nan,nan,164.89049099804834,221.73727515898645,nan,222.38610942382365,nan,nan,nan,nan
1,32,1,1,1.0,1.0,0.5043744472786784,0.0,5,6,4,8,2,1,nan,nan,nan,nan,nan,nan,nan,nan,nan,nan,nan,nan,0.0,nan,nan,nan,nan,nan,nan,nan,nan,nan,nan,nan,nan,nan,nan,nan,nan,nan,nan,164.89049099804834,222.74574493896216,nan,223.25011938624084,nan,nan,nan,nan
1,33,1,1,1.0,1.0,0.3762001683935523,0.0,3,4,2,1,7,8,nan,nan,nan,nan,nan,nan,nan,nan,nan,nan,nan,nan,0.0,nan,nan,nan,nan,nan,nan,nan,nan,nan,nan,nan,nan,nan,nan,nan,nan,nan,nan,164.89049099804834,223.74590345518664,nan,224.1221036235802,nan,nan,nan,nan
1,34,1,1,1.0,1.0,0.38373681297525764,0.0,4,7,8,5,0,6,nan,nan,nan,nan,nan,nan,nan,nan,nan,nan,nan,nan,0.0,nan,nan,nan,nan,nan,nan,nan,nan,nan,nan,nan,nan,nan,nan,nan,nan,nan,nan,164.89049099804834,224.75436325697228,nan,225.13810006994754,nan,nan,nan,nan
1,35,1,1,1.0,1.0,0.495550571475178,0.0,7,0,1,3,2,8,nan,nan,nan,nan,nan,nan,nan,nan,nan,nan,nan,nan,0.0,nan,nan,nan,nan,nan,nan,nan,nan,nan,nan,nan,nan,nan,nan,nan,nan,nan,nan,164.89049099804834,225.75453716842458,nan,226.25008773989975,nan,nan,nan,nan
1,36,1,1,1.0,1.0,0.511399335693568,0.0,0,4,3,5,8,1,nan,nan,nan,nan,nan,nan,nan,nan,nan,nan,nan,nan,0.0,nan,nan,nan,nan,nan,nan,nan,nan,nan,nan,nan,nan,nan,nan,nan,nan,nan,nan,164.89049099804834,226.75468399561942,nan,227.26608333131298,nan,nan,nan,nan
1,37,1,1,1.0,1.0,0.671258598100394,0.0,1,0,8,2,6,7,nan,nan,nan,nan,nan,nan,nan,nan,nan,nan,nan,nan,0.0,nan,nan,nan,nan,nan,nan,nan,nan,nan,nan,nan,nan,nan,nan,nan,nan,nan,nan,164.89049099804834,227.75481941876933,nan,228.42607801686972,nan,nan,nan,nan
1,38,1,1,1.0,1.0,0.4951137965545058,0.0,2,1,4,8,3,0,nan,nan,nan,nan,nan,nan,nan,nan,nan,nan,nan,nan,0.0,nan,nan,nan,nan,nan,nan,nan,nan,nan,nan,nan,nan,nan,nan,nan,nan,nan,nan,164.89049099804834,228.75496510509402,nan,229.25007890164852,nan,nan,nan,nan
1,39,1,1,1.0,1.0,0.3986467393115163,0.0,3,2,7,1,8,5,nan,nan,nan,nan,nan,nan,nan,nan,nan,nan,nan,nan,0.0,nan,nan,nan,nan,nan,nan,nan,nan,nan,nan,nan,nan,nan,nan,nan,nan,nan,nan,164.89049099804834,229.76342747313902,nan,230.16207421245053,nan,nan,nan,nan
1,40,1,1,1.0,1.0,0.5664446391165257,0.0,0,8,5,6,3,4,nan,nan,nan,nan,nan,nan,nan,nan,nan,nan,nan,nan,0.0,nan,nan,nan,nan,nan,nan,nan,nan,nan,nan,nan,nan,nan,nan,nan,nan,nan,nan,164.89049099804834,230.7636033804156,nan,231.33004801953211,nan,nan,nan,nan
1,41,0,0,0.0,1.0,0.5263269380666316,0.0,4,5,2,3,7,0,nan,nan,nan,nan,nan,nan,nan,nan,nan,nan,nan,nan,0.0,nan,nan,nan,nan,nan,nan,nan,nan,nan,nan,nan,nan,nan,nan,nan,nan,nan,nan,164.89049099804834,231.76373025029898,nan,232.2900571883656,nan,nan,nan,nan
1,42,1,1,1.0,1.0,0.533852749504149,0.0,8,1,7,2,4,5,nan,nan,nan,nan,nan,nan,nan,nan,nan,nan,nan,nan,0.0,nan,nan,nan,nan,nan,nan,nan,nan,nan,nan,nan,nan,nan,nan,nan,nan,nan,nan,164.89049099804834,232.77218919666484,nan,233.306041946169,nan,nan,nan,nan
1,43,1,1,1.0,1.0,0.677699884865433,0.0,1,2,8,6,3,0,nan,nan,nan,nan,nan,nan,nan,nan,nan,nan,nan,nan,0.0,nan,nan,nan,nan,nan,nan,nan,nan,nan,nan,nan,nan,nan,nan,nan,nan,nan,nan,164.89049099804834,233.77234429167584,nan,234.45004417654127,nan,nan,nan,nan
1,44,1,1,1.0,1.0,0.6215307130478323,0.0,4,5,0,8,2,1,nan,nan,nan,nan,nan,nan,nan,nan,nan,nan,nan,nan,0.0,nan,nan,nan,nan,nan,nan,nan,nan,nan,nan,nan,nan,nan,nan,nan,nan,nan,nan,164.89049099804834,234.77249739086255,nan,235.3940281039104,nan,nan,nan,nan
1,45,1,1,1.0,1.0,0.6210671388544142,0.0,0,8,3,5,6,7,nan,nan,nan,nan,nan,nan,nan,nan,nan,nan,nan,nan,0.0,nan,nan,nan,nan,nan,nan,nan,nan,nan,nan,nan,nan,nan,nan,nan,nan,nan,nan,164.89049099804834,235.78095548180863,nan,236.40202262066305,nan,nan,nan,nan
1,46,0,0,0.0,1.0,0.7409013584256172,1.0,7,4,5,1,0,8,1.0,1.0,1.0,1.0,1.0,1.0,0.0,1.0,0.0,0.0,0.0,0.0,1.0,8.0,4.0,1.0,5.0,7.0,6.0,4.0,3.0,2.0,1.0,6.0,5.0,5.309215690009296,4.101309211924672,2.0318640270270407,1.0851365732960403,7.101059178356081,6.340979931876063,164.89049099804834,236.78112084046006,237.58953411364928,237.52202219888568,245.74071347666904,246.74666410451755,238.5980264171958,245.73237940482795
1,47,1,1,nan,nan,nan,0.0,5,1,3,2,8,7,nan,nan,nan,nan,nan,nan,nan,nan,nan,nan,nan,nan,0.0,nan,nan,nan,nan,nan,nan,nan,nan,nan,nan,nan,nan,nan,nan,nan,nan,nan,nan,164.89049099804834,246.94926827400923,nan,nan,nan,nan,nan,nan
1,48,1,1,1.0,1.0,0.18056044587865472,0.0,7,8,4,1,3,6,nan,nan,nan,nan,nan,nan,nan,nan,nan,nan,nan,nan,0.0,nan,nan,nan,nan,nan,nan,nan,nan,nan,nan,nan,nan,nan,nan,nan,nan,nan,nan,164.89049099804834,247.94940455257893,nan,248.12996499845758,nan,nan,nan,nan
1,49,1,1,1.0,1.0,0.37204938288778067,0.0,3,2,6,4,8,0,nan,nan,nan,nan,nan,nan,nan,nan,nan,nan,nan,nan,0.0,nan,nan,nan,nan,nan,nan,nan,nan,nan,nan,nan,nan,nan,nan,nan,nan,nan,nan,164.89049099804834,248.95787091180682,nan,249.3299202946946,nan,nan,nan,nan
1,50,1,1,1.0,1.0,0.3795851720497012,0.0,7,4,1,3,5,2,nan,nan,nan,nan,nan,nan,nan,nan,nan,nan,nan,nan,0.0,nan,nan,nan,nan,nan,nan,nan,nan,nan,nan,nan,nan,nan,nan,nan,nan,nan,nan,164.89049099804834,249.96634696424007,nan,250.34593213628978,nan,nan,nan,nan
1,51,1,1,1.0,1.0,0.3391128056682646,0.0,1,7,6,4,2,5,nan,nan,nan,nan,nan,nan,nan,nan,nan,nan,nan,nan,0.0,nan,nan,nan,nan,nan,nan,nan,nan,nan,nan,nan,nan,nan,nan,nan,nan,nan,nan,164.89049099804834,250.9748118976131,nan,251.31392470328137,nan,nan,nan,nan
1,52,1,1,1.0,1.0,0.3866345793940127,0.0,8,0,1,7,5,3,nan,nan,nan,nan,nan,nan,nan,nan,nan,nan,nan,nan,0.0,nan,nan,nan,nan,nan,nan,nan,nan,nan,nan,nan,nan,nan,nan,nan,nan,nan,nan,164.89049099804834,251.98329051630571,nan,252.36992509569973,nan,nan,nan,nan
1,53,1,1,1.0,1.0,0.37812830647453666,0.0,0,6,3,8,4,2,nan,nan,nan,nan,nan,nan,nan,nan,nan,nan,nan,nan,0.0,nan,nan,nan,nan,nan,nan,nan,nan,nan,nan,nan,nan,nan,nan,nan,nan,nan,nan,164.89049099804834,252.9917808235623,nan,253.36990913003683,nan,nan,nan,nan
1,54,0,0,0.0,1.0,0.5459732478484511,0.0,8,4,5,1,2,7,nan,nan,nan,nan,nan,nan,nan,nan,nan,nan,nan,nan,0.0,nan,nan,nan,nan,nan,nan,nan,nan,nan,nan,nan,nan,nan,nan,nan,nan,nan,nan,164.89049099804834,253.99194162059575,nan,254.5379148684442,nan,nan,nan,nan
1,55,1,1,1.0,1.0,0.5458201486617327,0.0,6,5,0,8,1,3,nan,nan,nan,nan,nan,nan,nan,nan,nan,nan,nan,nan,0.0,nan,nan,nan,nan,nan,nan,nan,nan,nan,nan,nan,nan,nan,nan,nan,nan,nan,nan,164.89049099804834,254.99208189034835,nan,255.53790203901008,nan,nan,nan,nan
1,56,1,1,1.0,1.0,0.4973355885595083,0.0,4,3,5,2,7,0,nan,nan,nan,nan,nan,nan,nan,nan,nan,nan,nan,nan,0.0,nan,nan,nan,nan,nan,nan,nan,nan,nan,nan,nan,nan,nan,nan,nan,nan,nan,nan,164.89049099804834,256.00056193443015,nan,256.49789752298966,nan,nan,nan,nan
1,57,1,1,1.0,1.0,0.48118119640275836,0.0,1,0,3,5,6,4,nan,nan,nan,nan,nan,nan,nan,nan,nan,nan,nan,nan,0.0,nan,nan,nan,nan,nan,nan,nan,nan,nan,nan,nan,nan,nan,nan,nan,nan,nan,nan,164.89049099804834,257.0007156035863,nan,257.48189679998904,nan,nan,nan,nan
1,58,1,1,nan,nan,nan,0.0,5,8,6,7,3,1,nan,nan,nan,nan,nan,nan,nan,nan,nan,nan,nan,nan,0.0,nan,nan,nan,nan,nan,nan,nan,nan,nan,nan,nan,nan,nan,nan,nan,nan,nan,nan,164.89049099804834,258.0091674225405,nan,nan,nan,nan,nan,nan
1,59,1,1,1.0,1.0,0.48820808017626405,0.0,4,1,2,5,0,8,nan,nan,nan,nan,nan,nan,nan,nan,nan,nan,nan,nan,0.0,nan,nan,nan,nan,nan,nan,nan,nan,nan,nan,nan,nan,nan,nan,nan,nan,nan,nan,164.89049099804834,259.017659726087,nan,259.50586780626327,nan,nan,nan,nan
1,60,1,1,1.0,1.0,0.35174391977488995,0.0,7,6,1,0,8,2,nan,nan,nan,nan,nan,nan,nan,nan,nan,nan,nan,nan,0.0,nan,nan,nan,nan,nan,nan,nan,nan,nan,nan,nan,nan,nan,nan,nan,nan,nan,nan,164.89049099804834,260.0261255148798,nan,260.3778694346547,nan,nan,nan,nan
1,61,0,0,0.0,1.0,0.5276600704528391,0.0,2,8,3,7,4,5,nan,nan,nan,nan,nan,nan,nan,nan,nan,nan,nan,nan,0.0,nan,nan,nan,nan,nan,nan,nan,nan,nan,nan,nan,nan,nan,nan,nan,nan,nan,nan,164.89049099804834,261.026315391995,nan,261.55397546244785,nan,nan,nan,nan
1,62,1,1,1.0,1.0,0.46313886530697346,0.0,4,1,7,2,3,0,nan,nan,nan,nan,nan,nan,nan,nan,nan,nan,nan,nan,0.0,nan,nan,nan,nan,nan,nan,nan,nan,nan,nan,nan,nan,nan,nan,nan,nan,nan,nan,164.89049099804834,262.0347230201587,nan,262.4978618854657,nan,nan,nan,nan
1,63,1,1,1.0,1.0,0.7189266285859048,0.0,1,3,2,0,7,5,nan,nan,nan,nan,nan,nan,nan,nan,nan,nan,nan,nan,0.0,nan,nan,nan,nan,nan,nan,nan,nan,nan,nan,nan,nan,nan,nan,nan,nan,nan,nan,164.89049099804834,263.0349220209755,nan,263.7538486495614,nan,nan,nan,nan
1,64,1,1,1.0,1.0,0.6307389051653445,0.0,7,0,3,6,8,4,nan,nan,nan,nan,nan,nan,nan,nan,nan,nan,nan,nan,0.0,nan,nan,nan,nan,nan,nan,nan,nan,nan,nan,nan,nan,nan,nan,nan,nan,nan,nan,164.89049099804834,264.0351010640152,nan,264.6658399691805,nan,nan,nan,nan
1,65,1,1,1.0,1.0,0.7026228434406221,0.0,2,8,1,3,0,6,nan,nan,nan,nan,nan,nan,nan,nan,nan,nan,nan,nan,0.0,nan,nan,nan,nan,nan,nan,nan,nan,nan,nan,nan,nan,nan,nan,nan,nan,nan,nan,164.89049099804834,265.03520968789235,nan,265.73783253133297,nan,nan,nan,nan
1,66,1,1,1.0,1.0,0.6704728603363037,0.0,7,2,8,5,4,0,nan,nan,nan,nan,nan,nan,nan,nan,nan,nan,nan,nan,0.0,nan,nan,nan,nan,nan,nan,nan,nan,nan,nan,nan,nan,nan,nan,nan,nan,nan,nan,164.89049099804834,266.03535109758377,nan,266.7058239579201,nan,nan,nan,nan
1,67,1,1,1.0,1.0,0.6620390024036169,0.0,2,1,6,4,7,8,nan,nan,nan,nan,nan,nan,nan,nan,nan,nan,nan,nan,0.0,nan,nan,nan,nan,nan,nan,nan,nan,nan,nan,nan,nan,nan,nan,nan,nan,nan,nan,164.89049099804834,267.04377668723464,nan,267.70581568963826,nan,nan,nan,nan
1,68,1,1,1.0,1.0,0.5498529025353491,0.0,5,6,0,8,4,3,nan,nan,nan,nan,nan,nan,nan,nan,nan,nan,nan,nan,0.0,nan,nan,nan,nan,nan,nan,nan,nan,nan,nan,nan,nan,nan,nan,nan,nan,nan,nan,164.89049099804834,268.0439662793651,nan,268.59381918190047,nan,nan,nan,nan
1,69,1,1,1.0,1.0,0.4453810644336045,0.0,7,4,2,3,5,0,nan,nan,nan,nan,nan,nan,nan,nan,nan,nan,nan,nan,0.0,nan,nan,nan,nan,nan,nan,nan,nan,nan,nan,nan,nan,nan,nan,nan,nan,nan,nan,164.89049099804834,269.05242323037237,nan,269.497804294806,nan,nan,nan,nan
1,70,1,1,1.0,1.0,0.46888022869825363,0.0,3,0,8,4,6,7,nan,nan,nan,nan,nan,nan,nan,nan,nan,nan,nan,nan,0.0,nan,nan,nan,nan,nan,nan,nan,nan,nan,nan,nan,nan,nan,nan,nan,nan,nan,nan,164.89049099804834,270.0609152484685,nan,270.5297954771668,nan,nan,nan,nan
1,71,1,1,1.0,1.0,0.41238974779844284,0.0,5,3,6,1,0,2,nan,nan,nan,nan,nan,nan,nan,nan,nan,nan,nan,nan,0.0,nan,nan,nan,nan,nan,nan,nan,nan,nan,nan,nan,nan,nan,nan,nan,nan,nan,nan,164.89049099804834,271.06939557753503,nan,271.4817853253335,nan,nan,nan,nan
1,72,1,1,1.0,1.0,0.4199158442206681,0.0,3,1,0,5,8,7,nan,nan,nan,nan,nan,nan,nan,nan,nan,nan,nan,nan,0.0,nan,nan,nan,nan,nan,nan,nan,nan,nan,nan,nan,nan,nan,nan,nan,nan,nan,nan,164.89049099804834,272.0778730553575,nan,272.49778889957815,nan,nan,nan,nan
1,73,1,1,1.0,1.0,0.47543270513415337,0.0,7,8,4,0,5,1,nan,nan,nan,nan,nan,nan,nan,nan,nan,nan,nan,nan,0.0,nan,nan,nan,nan,nan,nan,nan,nan,nan,nan,nan,nan,nan,nan,nan,nan,nan,nan,164.89049099804834,273.08634739741683,nan,273.561780102551,nan,nan,nan,nan
1,74,1,1,1.0,1.0,0.5709666265174747,0.0,0,5,2,3,6,7,nan,nan,nan,nan,nan,nan,nan,nan,nan,nan,nan,nan,0.0,nan,nan,nan,nan,nan,nan,nan,nan,nan,nan,nan,nan,nan,nan,nan,nan,nan,nan,164.89049099804834,274.0948211690411,nan,274.6657877955586,nan,nan,nan,nan
1,75,1,1,1.0,1.0,0.4027795637957752,0.0,5,8,6,7,2,1,nan,nan,nan,nan,nan,nan,nan,nan,nan,nan,nan,nan,0.0,nan,nan,nan,nan,nan,nan,nan,nan,nan,nan,nan,nan,nan,nan,nan,nan,nan,nan,164.89049099804834,275.0949888085015,nan,275.4977683722973,nan,nan,nan,nan
1,76,1,1,1.0,1.0,0.5622907183133066,0.0,3,7,4,8,0,6,nan,nan,nan,nan,nan,nan,nan,nan,nan,nan,nan,nan,0.0,nan,nan,nan,nan,nan,nan,nan,nan,nan,nan,nan,nan,nan,nan,nan,nan,nan,nan,164.89049099804834,276.1034625801258,nan,276.6657532984391,nan,nan,nan,nan
1,77,1,1,1.0,1.0,0.51380644319579,0.0,5,0,7,1,2,4,nan,nan,nan,nan,nan,nan,nan,nan,nan,nan,nan,nan,0.0,nan,nan,nan,nan,nan,nan,nan,nan,nan,nan,nan,nan,nan,nan,nan,nan,nan,nan,164.89049099804834,277.1119403433986,nan,277.6257467865944,nan,nan,nan,nan
1,78,1,1,1.0,1.0,0.4973293161019683,0.0,7,3,1,6,8,5,nan,nan,nan,nan,nan,nan,nan,nan,nan,nan,nan,nan,0.0,nan,nan,nan,nan,nan,nan,nan,nan,nan,nan,nan,nan,nan,nan,nan,nan,nan,nan,164.89049099804834,278.1204192470759,nan,278.6177485631779,nan,nan,nan,nan
1,79,1,1,1.0,1.0,0.536895917262882,0.0,8,6,4,1,5,2,nan,nan,nan,nan,nan,nan,nan,nan,nan,nan,nan,nan,0.0,nan,nan,nan,nan,nan,nan,nan,nan,nan,nan,nan,nan,nan,nan,nan,nan,nan,nan,164.89049099804834,279.1288930187002,nan,279.66578893596306,nan,nan,nan,nan
1,80,1,1,1.0,1.0,0.6003673812374473,0.0,7,8,2,3,0,5,nan,nan,nan,nan,nan,nan,nan,nan,nan,nan,nan,nan,0.0,nan,nan,nan,nan,nan,nan,nan,nan,nan,nan,nan,nan,nan,nan,nan,nan,nan,nan,164.89049099804834,280.13736450951546,nan,280.7377318907529,nan,nan,nan,nan
1,81,1,1,1.0,1.0,0.46387071954086423,0.0,6,1,8,5,2,3,nan,nan,nan,nan,nan,nan,nan,nan,nan,nan,nan,nan,0.0,nan,nan,nan,nan,nan,nan,nan,nan,nan,nan,nan,nan,nan,nan,nan,nan,nan,nan,164.89049099804834,281.1458488297649,nan,281.60971954930574,nan,nan,nan,nan
1,82,1,1,1.0,1.0,0.4873867044225335,0.0,8,7,2,1,5,4,nan,nan,nan,nan,nan,nan,nan,nan,nan,nan,nan,nan,0.0,nan,nan,nan,nan,nan,nan,nan,nan,nan,nan,nan,nan,nan,nan,nan,nan,nan,nan,164.89049099804834,282.1543377120979,nan,282.64172441652045,nan,nan,nan,nan
1,83,0,0,nan,nan,nan,1.0,5,2,1,4,0,8,1.0,1.0,1.0,1.0,1.0,1.0,1.0,1.0,0.0,0.0,1.0,1.0,4.0,5.0,2.0,4.0,6.0,0.0,8.0,4.0,1.0,2.0,3.0,5.0,6.0,7.582956263329834,1.241495936177671,2.4868373149074614,6.103973766323179,9.30319093586877,10.910756547003984,164.89049099804834,283.1627923818305,283.9712398671545,nan,295.94795338856056,296.947171356529,284.9963883408345,295.939623022452
1,84,1,1,1.0,1.0,0.43745639733970165,0.0,7,0,5,2,3,4,nan,nan,nan,nan,nan,nan,nan,nan,nan,nan,nan,nan,0.0,nan,nan,nan,nan,nan,nan,nan,nan,nan,nan,nan,nan,nan,nan,nan,nan,nan,nan,164.89049099804834,297.1481892238371,nan,297.5856456211768,nan,nan,nan,nan
1,85,1,1,1.0,1.0,0.4769548592157662,0.0,3,7,0,5,4,6,nan,nan,nan,nan,nan,nan,nan,nan,nan,nan,nan,nan,0.0,nan,nan,nan,nan,nan,nan,nan,nan,nan,nan,nan,nan,nan,nan,nan,nan,nan,nan,164.89049099804834,298.15668181236833,nan,298.6336366715841,nan,nan,nan,nan
1,86,1,1,1.0,1.0,0.6524875489994884,0.0,4,0,6,3,1,8,nan,nan,nan,nan,nan,nan,nan,nan,nan,nan,nan,nan,0.0,nan,nan,nan,nan,nan,nan,nan,nan,nan,nan,nan,nan,nan,nan,nan,nan,nan,nan,164.89049099804834,299.1651259334758,nan,299.8176134824753,nan,nan,nan,nan
1,87,1,1,1.0,1.0,0.3480116631835699,0.0,5,4,0,7,8,2,nan,nan,nan,nan,nan,nan,nan,nan,nan,nan,nan,nan,0.0,nan,nan,nan,nan,nan,nan,nan,nan,nan,nan,nan,nan,nan,nan,nan,nan,nan,nan,164.89049099804834,300.1735940030776,nan,300.52160566626117,nan,nan,nan,nan
1,88,1,1,1.0,1.0,0.3395230663008988,0.0,8,1,5,6,2,3,nan,nan,nan,nan,nan,nan,nan,nan,nan,nan,nan,nan,0.0,nan,nan,nan,nan,nan,nan,nan,nan,nan,nan,nan,nan,nan,nan,nan,nan,nan,nan,164.89049099804834,301.18206863012165,nan,301.52159169642255,nan,nan,nan,nan
1,89,0,0,1.0,0.0,0.30737621849402785,0.0,3,5,2,0,4,1,nan,nan,nan,nan,nan,nan,nan,nan,nan,nan,nan,nan,0.0,nan,nan,nan,nan,nan,nan,nan,nan,nan,nan,nan,nan,nan,nan,nan,nan,nan,nan,164.89049099804834,302.1822168827057,nan,302.4895931011997,nan,nan,nan,nan
1,90,1,1,1.0,1.0,0.338871325366199,0.0,4,6,3,5,1,8,nan,nan,nan,nan,nan,nan,nan,nan,nan,nan,nan,nan,0.0,nan,nan,nan,nan,nan,nan,nan,nan,nan,nan,nan,nan,nan,nan,nan,nan,nan,nan,164.89049099804834,303.19069293513894,nan,303.52956426050514,nan,nan,nan,nan
1,91,1,1,1.0,1.0,0.39472574600949883,0.0,1,0,4,7,6,3,nan,nan,nan,nan,nan,nan,nan,nan,nan,nan,nan,nan,0.0,nan,nan,nan,nan,nan,nan,nan,nan,nan,nan,nan,nan,nan,nan,nan,nan,nan,nan,164.89049099804834,304.1908585787751,nan,304.5855843247846,nan,nan,nan,nan
1,92,1,1,1.0,1.0,0.3462813845835626,0.0,0,2,7,1,5,6,nan,nan,nan,nan,nan,nan,nan,nan,nan,nan,nan,nan,0.0,nan,nan,nan,nan,nan,nan,nan,nan,nan,nan,nan,nan,nan,nan,nan,nan,nan,nan,164.89049099804834,305.199332350865,nan,305.54561373544857,nan,nan,nan,nan
1,93,1,1,1.0,1.0,0.31409547850489616,0.0,3,7,8,5,2,4,nan,nan,nan,nan,nan,nan,nan,nan,nan,nan,nan,nan,0.0,nan,nan,nan,nan,nan,nan,nan,nan,nan,nan,nan,nan,nan,nan,nan,nan,nan,nan,164.89049099804834,306.199475471396,nan,306.5135709499009,nan,nan,nan,nan
1,94,1,1,1.0,1.0,0.361610125284642,0.0,5,1,2,6,7,0,nan,nan,nan,nan,nan,nan,nan,nan,nan,nan,nan,nan,0.0,nan,nan,nan,nan,nan,nan,nan,nan,nan,nan,nan,nan,nan,nan,nan,nan,nan,nan,164.89049099804834,307.2079483876005,nan,307.5695585128851,nan,nan,nan,nan
1,95,0,0,0.0,1.0,0.46547583770006895,1.0,0,6,5,1,3,7,1.0,1.0,1.0,1.0,1.0,1.0,0.0,0.0,0.0,1.0,0.0,1.0,2.0,2.0,0.0,6.0,1.0,8.0,7.0,4.0,3.0,2.0,1.0,6.0,5.0,3.8665034556761384,2.633706235792488,1.825786187313497,0.9638514746911824,5.993489718995988,5.137390738353133,164.89049099804834,308.2080994914286,309.0165127646178,308.67357532912865,316.0675518293865,317.07108793687075,310.0333354338072,316.0592049276456
1,96,1,1,1.0,1.0,0.7894352404400706,0.0,4,3,7,2,6,0,nan,nan,nan,nan,nan,nan,nan,nan,nan,nan,nan,nan,0.0,nan,nan,nan,nan,nan,nan,nan,nan,nan,nan,nan,nan,nan,nan,nan,nan,nan,nan,164.89049099804834,317.27606528718024,nan,318.0655005276203,nan,nan,nan,nan
1,97,1,1,nan,nan,nan,0.0,8,2,3,5,1,7,nan,nan,nan,nan,nan,nan,nan,nan,nan,nan,nan,nan,0.0,nan,nan,nan,nan,nan,nan,nan,nan,nan,nan,nan,nan,nan,nan,nan,nan,nan,nan,164.89049099804834,318.2845373484306,nan,nan,nan,nan,nan,nan
1,98,1,1,1.0,1.0,0.540459394454956,0.0,6,7,5,3,0,2,nan,nan,nan,nan,nan,nan,nan,nan,nan,nan,nan,nan,0.0,nan,nan,nan,nan,nan,nan,nan,nan,nan,nan,nan,nan,nan,nan,nan,nan,nan,nan,164.89049099804834,319.29301254544407,nan,319.833471939899,nan,nan,nan,nan
1,99,1,1,1.0,1.0,0.4282958172261715,0.0,2,5,8,1,4,7,nan,nan,nan,nan,nan,nan,nan,nan,nan,nan,nan,nan,0.0,nan,nan,nan,nan,nan,nan,nan,nan,nan,nan,nan,nan,nan,nan,nan,nan,nan,nan,164.89049099804834,320.29316963627934,nan,320.7214654535055,nan,nan,nan,nan
1,100,1,1,1.0,1.0,0.5641461554914713,0.0,4,1,6,0,5,8,nan,nan,nan,nan,nan,nan,nan,nan,nan,nan,nan,nan,0.0,nan,nan,nan,nan,nan,nan,nan,nan,nan,nan,nan,nan,nan,nan,nan,nan,nan,nan,164.89049099804834,321.2933233054355,nan,321.85746946092695,nan,nan,nan,nan
1,101,1,1,1.0,1.0,0.42798648262396455,0.0,0,5,8,7,6,2,nan,nan,nan,nan,nan,nan,nan,nan,nan,nan,nan,nan,0.0,nan,nan,nan,nan,nan,nan,nan,nan,nan,nan,nan,nan,nan,nan,nan,nan,nan,nan,164.89049099804834,322.29346357518807,nan,322.72145005781204,nan,nan,nan,nan
1,102,1,1,1.0,1.0,0.5238377219066024,0.0,8,2,1,5,3,4,nan,nan,nan,nan,nan,nan,nan,nan,nan,nan,nan,nan,0.0,nan,nan,nan,nan,nan,nan,nan,nan,nan,nan,nan,nan,nan,nan,nan,nan,nan,nan,164.89049099804834,323.2936029895209,nan,323.8174407114275,nan,nan,nan,nan
1,103,1,1,1.0,1.0,0.5796758914366364,0.0,6,5,3,8,7,0,nan,nan,nan,nan,nan,nan,nan,nan,nan,nan,nan,nan,0.0,nan,nan,nan,nan,nan,nan,nan,nan,nan,nan,nan,nan,nan,nan,nan,nan,nan,nan,164.89049099804834,324.29375779954717,nan,324.8734336909838,nan,nan,nan,nan
1,104,1,1,1.0,1.0,0.5555247012525797,0.0,5,2,8,4,3,7,nan,nan,nan,nan,nan,nan,nan,nan,nan,nan,nan,nan,0.0,nan,nan,nan,nan,nan,nan,nan,nan,nan,nan,nan,nan,nan,nan,nan,nan,nan,nan,164.89049099804834,325.29389920970425,nan,325.84942391095683,nan,nan,nan,nan
1,105,0,0,0.0,1.0,0.5073876795358956,0.0,6,8,2,1,7,3,nan,nan,nan,nan,nan,nan,nan,nan,nan,nan,nan,nan,0.0,nan,nan,nan,nan,nan,nan,nan,nan,nan,nan,nan,nan,nan,nan,nan,nan,nan,nan,164.89049099804834,326.2940369131975,nan,326.8014245927334,nan,nan,nan,nan
1,106,1,1,1.0,1.0,0.5872487439773977,0.0,5,4,1,6,3,0,nan,nan,nan,nan,nan,nan,nan,nan,nan,nan,nan,nan,0.0,nan,nan,nan,nan,nan,nan,nan,nan,nan,nan,nan,nan,nan,nan,nan,nan,nan,nan,164.89049099804834,327.29418402537704,nan,327.88143276935443,nan,nan,nan,nan
1,107,1,1,1.0,1.0,0.6910719769075513,0.0,6,3,7,1,5,8,nan,nan,nan,nan,nan,nan,nan,nan,nan,nan,nan,nan,0.0,nan,nan,nan,nan,nan,nan,nan,nan,nan,nan,nan,nan,nan,nan,nan,nan,nan,nan,164.89049099804834,328.29433826496825,nan,328.9854102418758,nan,nan,nan,nan
1,108,1,1,1.0,1.0,0.7149010030552745,0.0,3,4,5,6,7,2,nan,nan,nan,nan,nan,nan,nan,nan,nan,nan,nan,nan,0.0,nan,nan,nan,nan,nan,nan,nan,nan,nan,nan,nan,nan,nan,nan,nan,nan,nan,nan,164.89049099804834,329.2944990620017,nan,330.009400065057,nan,nan,nan,nan
1,109,0,0,nan,nan,nan,1.0,0,8,1,7,5,3,1.0,1.0,1.0,1.0,1.0,1.0,0.0,0.0,1.0,1.0,0.0,0.0,2.0,2.0,2.0,1.0,7.0,3.0,8.0,4.0,3.0,1.0,2.0,5.0,6.0,3.7001341967843473,2.9950252724811435,1.261826773174107,1.9882124993018806,7.107268678024411,8.082753984257579,164.89049099804834,330.30294175771996,331.11137441778556,nan,340.246015642304,341.25092907296494,332.11985759809613,340.23768527666107
1,110,1,1,1.0,1.0,0.4507797369733453,0.0,8,1,5,0,3,6,nan,nan,nan,nan,nan,nan,nan,nan,nan,nan,nan,nan,0.0,nan,nan,nan,nan,nan,nan,nan,nan,nan,nan,nan,nan,nan,nan,nan,nan,nan,nan,164.89049099804834,341.4545578956604,nan,341.90533763263375,nan,nan,nan,nan
1,111,1,1,1.0,1.0,0.4505952764302492,0.0,3,5,6,2,4,0,nan,nan,nan,nan,nan,nan,nan,nan,nan,nan,nan,nan,0.0,nan,nan,nan,nan,nan,nan,nan,nan,nan,nan,nan,nan,nan,nan,nan,nan,nan,nan,164.89049099804834,342.4547178372741,nan,342.9053131137043,nan,nan,nan,nan
1,112,1,1,1.0,1.0,0.4504096759483218,0.0,4,0,7,8,3,6,nan,nan,nan,nan,nan,nan,nan,nan,nan,nan,nan,nan,0.0,nan,nan,nan,nan,nan,nan,nan,nan,nan,nan,nan,nan,nan,nan,nan,nan,nan,nan,164.89049099804834,343.4549022973515,nan,343.90531197329983,nan,nan,nan,nan
1,113,1,1,1.0,1.0,0.3699918086640537,0.0,1,2,4,3,6,8,nan,nan,nan,nan,nan,nan,nan,nan,nan,nan,nan,nan,0.0,nan,nan,nan,nan,nan,nan,nan,nan,nan,nan,nan,nan,nan,nan,nan,nan,nan,nan,164.89049099804834,344.4633201896213,nan,344.83331199828535,nan,nan,nan,nan
1,114,1,1,1.0,1.0,0.4338125213980675,0.0,8,6,5,7,0,4,nan,nan,nan,nan,nan,nan,nan,nan,nan,nan,nan,nan,0.0,nan,nan,nan,nan,nan,nan,nan,nan,nan,nan,nan,nan,nan,nan,nan,nan,nan,nan,164.89049099804834,345.463480131235,nan,345.89729265263304,nan,nan,nan,nan
1,115,1,1,1.0,1.0,0.5453306301496923,0.0,7,2,4,1,3,6,nan,nan,nan,nan,nan,nan,nan,nan,nan,nan,nan,nan,0.0,nan,nan,nan,nan,nan,nan,nan,nan,nan,nan,nan,nan,nan,nan,nan,nan,nan,nan,164.89049099804834,346.47195276245475,nan,347.01728339260444,nan,nan,nan,nan
1,116,1,1,1.0,1.0,0.617177220992744,0.0,2,7,3,4,1,8,nan,nan,nan,nan,nan,nan,nan,nan,nan,nan,nan,nan,0.0,nan,nan,nan,nan,nan,nan,nan,nan,nan,nan,nan,nan,nan,nan,nan,nan,nan,nan,164.89049099804834,347.47209844877943,nan,348.0892756697722,nan,nan,nan,nan
1,117,0,0,0.0,1.0,0.680731363594532,0.0,7,0,8,5,6,4,nan,nan,nan,nan,nan,nan,nan,nan,nan,nan,nan,nan,0.0,nan,nan,nan,nan,nan,nan,nan,nan,nan,nan,nan,nan,nan,nan,nan,nan,nan,nan,164.89049099804834,348.4805519785732,nan,349.16128334216774,nan,nan,nan,nan
1,118,1,1,1.0,1.0,0.6885551051236689,0.0,0,1,4,8,2,5,nan,nan,nan,nan,nan,nan,nan,nan,nan,nan,nan,nan,0.0,nan,nan,nan,nan,nan,nan,nan,nan,nan,nan,nan,nan,nan,nan,nan,nan,nan,nan,164.89049099804834,349.48071733722463,nan,350.1692724423483,nan,nan,nan,nan
1,119,1,1,1.0,1.0,0.7520918576046824,0.0,2,5,0,6,3,1,nan,nan,nan,nan,nan,nan,nan,nan,nan,nan,nan,nan,0.0,nan,nan,nan,nan,nan,nan,nan,nan,nan,nan,nan,nan,nan,nan,nan,nan,nan,nan,164.89049099804834,350.4891745727509,nan,351.2412664303556,nan,nan,nan,nan
1,120,1,1,nan,nan,nan,0.0,8,0,3,4,6,2,nan,nan,nan,nan,nan,nan,nan,nan,nan,nan,nan,nan,0.0,nan,nan,nan,nan,nan,nan,nan,nan,nan,nan,nan,nan,nan,nan,nan,nan,nan,nan,164.89049099804834,351.49767799535766,nan,nan,nan,nan,nan,nan
1,121,1,1,nan,nan,nan,0.0,0,1,5,2,7,3,nan,nan,nan,nan,nan,nan,nan,nan,nan,nan,nan,nan,0.0,nan,nan,nan,nan,nan,nan,nan,nan,nan,nan,nan,nan,nan,nan,nan,nan,nan,nan,164.89049099804834,352.506142643746,nan,nan,nan,nan,nan,nan
1,122,1,1,1.0,1.0,0.6465754099190235,0.0,4,2,8,1,6,0,nan,nan,nan,nan,nan,nan,nan,nan,nan,nan,nan,nan,0.0,nan,nan,nan,nan,nan,nan,nan,nan,nan,nan,nan,nan,nan,nan,nan,nan,nan,nan,164.89049099804834,353.5146272489801,nan,354.16120265889913,nan,nan,nan,nan
1,123,1,1,1.0,1.0,0.5664474908262491,0.0,1,4,0,7,2,6,nan,nan,nan,nan,nan,nan,nan,nan,nan,nan,nan,nan,0.0,nan,nan,nan,nan,nan,nan,nan,nan,nan,nan,nan,nan,nan,nan,nan,nan,nan,nan,164.89049099804834,354.51479175221175,nan,355.081239243038,nan,nan,nan,nan
1,124,1,1,1.0,1.0,0.4303263067267835,0.0,3,5,8,0,7,1,nan,nan,nan,nan,nan,nan,nan,nan,nan,nan,nan,nan,0.0,nan,nan,nan,nan,nan,nan,nan,nan,nan,nan,nan,nan,nan,nan,nan,nan,nan,nan,164.89049099804834,355.51490978430957,nan,355.94523609103635,nan,nan,nan,nan
1,125,1,1,1.0,1.0,0.3981486679986119,0.0,1,4,2,6,3,8,nan,nan,nan,nan,nan,nan,nan,nan,nan,nan,nan,nan,0.0,nan,nan,nan,nan,nan,nan,nan,nan,nan,nan,nan,nan,nan,nan,nan,nan,nan,nan,164.89049099804834,356.515075142961,nan,356.9132238109596,nan,nan,nan,nan
1,126,1,1,1.0,1.0,0.36567908618599176,0.0,8,2,7,3,5,6,nan,nan,nan,nan,nan,nan,nan,nan,nan,nan,nan,nan,0.0,nan,nan,nan,nan,nan,nan,nan,nan,nan,nan,nan,nan,nan,nan,nan,nan,nan,nan,164.89049099804834,357.52353665512055,nan,357.88921574130654,nan,nan,nan,nan
1,127,1,1,1.0,1.0,0.3655123026110232,0.0,1,6,0,4,7,8,nan,nan,nan,nan,nan,nan,nan,nan,nan,nan,nan,nan,0.0,nan,nan,nan,nan,nan,nan,nan,nan,nan,nan,nan,nan,nan,nan,nan,nan,nan,nan,164.89049099804834,358.52369574131444,nan,358.88920804392546,nan,nan,nan,nan
1,128,1,1,1.0,1.0,0.38905081059783697,0.0,5,7,4,6,3,1,nan,nan,nan,nan,nan,nan,nan,nan,nan,nan,nan,nan,0.0,nan,nan,nan,nan,nan,nan,nan,nan,nan,nan,nan,nan,nan,nan,nan,nan,nan,nan,164.89049099804834,359.53216124512255,nan,359.9212120557204,nan,nan,nan,nan
1,129,1,1,1.0,1.0,0.42855639988556504,0.0,4,8,7,0,6,2,nan,nan,nan,nan,nan,nan,nan,nan,nan,nan,nan,nan,0.0,nan,nan,nan,nan,nan,nan,nan,nan,nan,nan,nan,nan,nan,nan,nan,nan,nan,nan,164.89049099804834,360.54064499540254,nan,360.9692013952881,nan,nan,nan,nan
1,130,1,1,1.0,1.0,0.49204639531672,0.0,3,7,4,1,5,0,nan,nan,nan,nan,nan,nan,nan,nan,nan,nan,nan,nan,0.0,nan,nan,nan,nan,nan,nan,nan,nan,nan,nan,nan,nan,nan,nan,nan,nan,nan,nan,164.89049099804834,361.54915611539036,nan,362.0412025107071,nan,nan,nan,nan
1,131,1,1,1.0,1.0,0.5879007698968053,0.0,1,3,7,2,8,6,nan,nan,nan,nan,nan,nan,nan,nan,nan,nan,nan,nan,0.0,nan,nan,nan,nan,nan,nan,nan,nan,nan,nan,nan,nan,nan,nan,nan,nan,nan,nan,164.89049099804834,362.549289542716,nan,363.1371903126128,nan,nan,nan,nan
1,132,1,1,1.0,1.0,0.4994447659701109,0.0,0,5,4,1,6,8,nan,nan,nan,nan,nan,nan,nan,nan,nan,nan,nan,nan,0.0,nan,nan,nan,nan,nan,nan,nan,nan,nan,nan,nan,nan,nan,nan,nan,nan,nan,nan,164.89049099804834,363.5577382254414,nan,364.05718299141154,nan,nan,nan,nan
1,133,1,1,1.0,1.0,0.7149614444933832,0.0,1,6,3,7,0,2,nan,nan,nan,nan,nan,nan,nan,nan,nan,nan,nan,nan,0.0,nan,nan,nan,nan,nan,nan,nan,nan,nan,nan,nan,nan,nan,nan,nan,nan,nan,nan,164.89049099804834,364.56621513329446,nan,365.28117657778785,nan,nan,nan,nan
1,134,1,1,1.0,1.0,0.6664592083543539,0.0,8,1,0,4,7,6,nan,nan,nan,nan,nan,nan,nan,nan,nan,nan,nan,nan,0.0,nan,nan,nan,nan,nan,nan,nan,nan,nan,nan,nan,nan,nan,nan,nan,nan,nan,nan,164.89049099804834,365.5747034451924,nan,366.2411626535468,nan,nan,nan,nan
1,135,1,1,1.0,1.0,0.6819803914986551,0.0,0,3,6,5,1,2,nan,nan,nan,nan,nan,nan,nan,nan,nan,nan,nan,nan,0.0,nan,nan,nan,nan,nan,nan,nan,nan,nan,nan,nan,nan,nan,nan,nan,nan,nan,nan,164.89049099804834,366.5831757914275,nan,367.26515618292615,nan,nan,nan,nan
1,136,1,1,1.0,1.0,0.5855270191095769,0.0,5,1,7,2,6,3,nan,nan,nan,nan,nan,nan,nan,nan,nan,nan,nan,nan,0.0,nan,nan,nan,nan,nan,nan,nan,nan,nan,nan,nan,nan,nan,nan,nan,nan,nan,nan,164.89049099804834,367.59165184386075,nan,368.1771788629703,nan,nan,nan,nan
1,137,1,1,1.0,1.0,0.6010134196840227,0.0,1,0,8,7,5,6,nan,nan,nan,nan,nan,nan,nan,nan,nan,nan,nan,nan,0.0,nan,nan,nan,nan,nan,nan,nan,nan,nan,nan,nan,nan,nan,nan,nan,nan,nan,nan,164.89049099804834,368.6001418665983,nan,369.2011552862823,nan,nan,nan,nan
1,138,0,0,0.0,1.0,0.4648486156947911,1.0,0,1,7,3,2,5,1.0,1.0,1.0,1.0,1.0,1.0,1.0,1.0,1.0,1.0,0.0,0.0,4.0,0.0,1.0,7.0,3.0,6.0,2.0,4.0,3.0,2.0,1.0,6.0,5.0,6.697594802360982,3.4334293459542096,2.170998443849385,1.2094203638844192,10.089098907075822,7.809068720322102,164.89049099804834,369.6002961061895,370.4087099493481,370.0651447218843,381.54364397283643,382.54391025705263,371.41720481868833,381.53531189635396
1,139,1,1,1.0,1.0,0.76087895501405,0.0,1,3,2,8,0,4,nan,nan,nan,nan,nan,nan,nan,nan,nan,nan,nan,nan,0.0,nan,nan,nan,nan,nan,nan,nan,nan,nan,nan,nan,nan,nan,nan,nan,nan,nan,nan,164.89049099804834,382.7521839449182,nan,383.51306289993227,nan,nan,nan,nan
1,140,1,1,1.0,1.0,0.6483706906437874,0.0,8,7,3,4,6,1,nan,nan,nan,nan,nan,nan,nan,nan,nan,nan,nan,nan,0.0,nan,nan,nan,nan,nan,nan,nan,nan,nan,nan,nan,nan,nan,nan,nan,nan,nan,nan,164.89049099804834,383.7606682656333,nan,384.4090389562771,nan,nan,nan,nan
1,141,1,1,1.0,1.0,0.6239098808728158,0.0,1,4,6,0,2,8,nan,nan,nan,nan,nan,nan,nan,nan,nan,nan,nan,nan,0.0,nan,nan,nan,nan,nan,nan,nan,nan,nan,nan,nan,nan,nan,nan,nan,nan,nan,nan,164.89049099804834,384.7691340544261,nan,385.3930439352989,nan,nan,nan,nan
1,142,1,1,1.0,1.0,0.5434227343648672,0.0,7,5,1,6,3,4,nan,nan,nan,nan,nan,nan,nan,nan,nan,nan,nan,nan,0.0,nan,nan,nan,nan,nan,nan,nan,nan,nan,nan,nan,nan,nan,nan,nan,nan,nan,nan,164.89049099804834,385.77761096227914,nan,386.321033696644,nan,nan,nan,nan
1,143,1,1,1.0,1.0,0.5032614129595459,0.0,8,1,6,2,4,0,nan,nan,nan,nan,nan,nan,nan,nan,nan,nan,nan,nan,0.0,nan,nan,nan,nan,nan,nan,nan,nan,nan,nan,nan,nan,nan,nan,nan,nan,nan,nan,164.89049099804834,386.77777004847303,nan,387.2810314614326,nan,nan,nan,nan
1,144,1,1,1.0,1.0,0.5507757742889225,0.0,1,8,7,6,5,3,nan,nan,nan,nan,nan,nan,nan,nan,nan,nan,nan,nan,0.0,nan,nan,nan,nan,nan,nan,nan,nan,nan,nan,nan,nan,nan,nan,nan,nan,nan,nan,164.89049099804834,387.7862458159216,nan,388.3370215902105,nan,nan,nan,nan
1,145,1,1,1.0,1.0,0.502300622407347,0.0,5,4,8,3,0,7,nan,nan,nan,nan,nan,nan,nan,nan,nan,nan,nan,nan,0.0,nan,nan,nan,nan,nan,nan,nan,nan,nan,nan,nan,nan,nan,nan,nan,nan,nan,nan,164.89049099804834,388.7947124601342,nan,389.2970130825415,nan,nan,nan,nan
1,146,1,1,1.0,1.0,0.47780389012768865,0.0,0,8,3,7,6,1,nan,nan,nan,nan,nan,nan,nan,nan,nan,nan,nan,nan,0.0,nan,nan,nan,nan,nan,nan,nan,nan,nan,nan,nan,nan,nan,nan,nan,nan,nan,nan,164.89049099804834,389.80320020159706,nan,390.28100409172475,nan,nan,nan,nan
1,147,0,0,0.0,1.0,0.7336130365729332,1.0,8,7,4,0,5,6,1.0,1.0,1.0,1.0,1.0,1.0,1.0,1.0,1.0,1.0,0.0,0.0,4.0,8.0,7.0,4.0,0.0,2.0,1.0,4.0,3.0,2.0,1.0,6.0,5.0,5.101631946396083,4.2310729287564754,3.3095851805992424,0.9028170541860163,6.805059344973415,5.893079999834299,164.89049099804834,390.80338580254465,391.61177085060626,391.5369988391176,399.4795598271303,400.48377960687503,392.63692331593484,399.4712325972505
1,148,1,1,1.0,1.0,0.6888527506962419,0.0,7,1,3,5,0,2,nan,nan,nan,nan,nan,nan,nan,nan,nan,nan,nan,nan,0.0,nan,nan,nan,nan,nan,nan,nan,nan,nan,nan,nan,nan,nan,nan,nan,nan,nan,nan,164.89049099804834,400.6880966629833,nan,401.37694941367954,nan,nan,nan,nan
1,149,1,1,1.0,1.0,0.4726791991852224,0.0,2,3,8,6,4,0,nan,nan,nan,nan,nan,nan,nan,nan,nan,nan,nan,nan,0.0,nan,nan,nan,nan,nan,nan,nan,nan,nan,nan,nan,nan,nan,nan,nan,nan,nan,nan,164.89049099804834,401.6882500476204,nan,402.1609292468056,nan,nan,nan,nan
1,150,1,1,1.0,1.0,0.3841969659551978,0.0,8,1,0,2,6,5,nan,nan,nan,nan,nan,nan,nan,nan,nan,nan,nan,nan,0.0,nan,nan,nan,nan,nan,nan,nan,nan,nan,nan,nan,nan,nan,nan,nan,nan,nan,nan,164.89049099804834,402.6967218234204,nan,403.0809187893756,nan,nan,nan,nan
1,151,1,1,1.0,1.0,0.4640420647338033,0.0,4,2,1,7,8,6,nan,nan,nan,nan,nan,nan,nan,nan,nan,nan,nan,nan,0.0,nan,nan,nan,nan,nan,nan,nan,nan,nan,nan,nan,nan,nan,nan,nan,nan,nan,nan,164.89049099804834,403.69687691843137,nan,404.1609189831652,nan,nan,nan,nan
1,152,0,0,0.0,1.0,0.5758774909190834,0.0,0,8,7,1,5,2,nan,nan,nan,nan,nan,nan,nan,nan,nan,nan,nan,nan,0.0,nan,nan,nan,nan,nan,nan,nan,nan,nan,nan,nan,nan,nan,nan,nan,nan,nan,nan,164.89049099804834,404.69702460058033,nan,405.2729020914994,nan,nan,nan,nan
1,153,1,1,1.0,1.0,0.5517471130006015,0.0,1,4,0,6,8,5,nan,nan,nan,nan,nan,nan,nan,nan,nan,nan,nan,nan,0.0,nan,nan,nan,nan,nan,nan,nan,nan,nan,nan,nan,nan,nan,nan,nan,nan,nan,nan,164.89049099804834,405.69715774292126,nan,406.24890485592186,nan,nan,nan,nan
1,154,1,1,1.0,1.0,0.6152593460865319,0.0,6,0,4,2,1,3,nan,nan,nan,nan,nan,nan,nan,nan,nan,nan,nan,nan,0.0,nan,nan,nan,nan,nan,nan,nan,nan,nan,nan,nan,nan,nan,nan,nan,nan,nan,nan,164.89049099804834,406.70562780834734,nan,407.3208871544339,nan,nan,nan,nan
1,155,1,1,1.0,1.0,0.6867803516797721,0.0,7,2,6,8,0,1,nan,nan,nan,nan,nan,nan,nan,nan,nan,nan,nan,nan,0.0,nan,nan,nan,nan,nan,nan,nan,nan,nan,nan,nan,nan,nan,nan,nan,nan,nan,nan,164.89049099804834,407.71410699700937,nan,408.40088734868914,nan,nan,nan,nan
1,156,1,1,1.0,1.0,0.7502865977585316,0.0,4,0,5,7,8,2,nan,nan,nan,nan,nan,nan,nan,nan,nan,nan,nan,nan,0.0,nan,nan,nan,nan,nan,nan,nan,nan,nan,nan,nan,nan,nan,nan,nan,nan,nan,nan,164.89049099804834,408.72259616386145,nan,409.47288276162,nan,nan,nan,nan
1,157,1,1,1.0,1.0,0.7181092444807291,0.0,5,8,1,6,7,0,nan,nan,nan,nan,nan,nan,nan,nan,nan,nan,nan,nan,0.0,nan,nan,nan,nan,nan,nan,nan,nan,nan,nan,nan,nan,nan,nan,nan,nan,nan,nan,164.89049099804834,409.7227586717345,nan,410.4408679162152,nan,nan,nan,nan
1,158,1,1,1.0,1.0,0.7016438068822026,0.0,1,0,2,3,4,8,nan,nan,nan,nan,nan,nan,nan,nan,nan,nan,nan,nan,0.0,nan,nan,nan,nan,nan,nan,nan,nan,nan,nan,nan,nan,nan,nan,nan,nan,nan,nan,164.89049099804834,410.7312099202536,nan,411.4328537271358,nan,nan,nan,nan
1,159,1,1,nan,nan,nan,0.0,7,6,1,4,5,3,nan,nan,nan,nan,nan,nan,nan,nan,nan,nan,nan,nan,0.0,nan,nan,nan,nan,nan,nan,nan,nan,nan,nan,nan,nan,nan,nan,nan,nan,nan,nan,164.89049099804834,411.7396885389462,nan,nan,nan,nan,nan,nan
1,160,1,1,nan,nan,nan,0.0,3,1,7,5,0,2,nan,nan,nan,nan,nan,nan,nan,nan,nan,nan,nan,nan,0.0,nan,nan,nan,nan,nan,nan,nan,nan,nan,nan,nan,nan,nan,nan,nan,nan,nan,nan,164.89049099804834,412.7481594593264,nan,nan,nan,nan,nan,nan
1,161,1,1,nan,nan,nan,0.0,0,2,1,4,6,8,nan,nan,nan,nan,nan,nan,nan,nan,nan,nan,nan,nan,0.0,nan,nan,nan,nan,nan,nan,nan,nan,nan,nan,nan,nan,nan,nan,nan,nan,nan,nan,164.89049099804834,413.7483310904354,nan,nan,nan,nan,nan,nan
1,162,1,1,nan,nan,nan,0.0,5,0,2,8,7,6,nan,nan,nan,nan,nan,nan,nan,nan,nan,nan,nan,nan,0.0,nan,nan,nan,nan,nan,nan,nan,nan,nan,nan,nan,nan,nan,nan,nan,nan,nan,nan,164.89049099804834,414.7484819088131,nan,nan,nan,nan,nan,nan
1,163,1,1,nan,nan,nan,0.0,0,5,8,4,1,2,nan,nan,nan,nan,nan,nan,nan,nan,nan,nan,nan,nan,0.0,nan,nan,nan,nan,nan,nan,nan,nan,nan,nan,nan,nan,nan,nan,nan,nan,nan,nan,164.89049099804834,415.7569425655529,nan,nan,nan,nan,nan,nan
1,164,1,1,1.0,1.0,0.6433688788674772,0.0,7,4,1,0,6,5,nan,nan,nan,nan,nan,nan,nan,nan,nan,nan,nan,nan,0.0,nan,nan,nan,nan,nan,nan,nan,nan,nan,nan,nan,nan,nan,nan,nan,nan,nan,nan,164.89049099804834,416.76543315825984,nan,417.4088020371273,nan,nan,nan,nan
1,165,1,1,1.0,1.0,0.5872447527945042,0.0,1,5,2,6,0,8,nan,nan,nan,nan,nan,nan,nan,nan,nan,nan,nan,nan,0.0,nan,nan,nan,nan,nan,nan,nan,nan,nan,nan,nan,nan,nan,nan,nan,nan,nan,nan,164.89049099804834,417.7655816958286,nan,418.3528264486231,nan,nan,nan,nan
1,166,1,1,1.0,1.0,0.5231209774501622,0.0,5,4,1,8,7,3,nan,nan,nan,nan,nan,nan,nan,nan,nan,nan,nan,nan,0.0,nan,nan,nan,nan,nan,nan,nan,nan,nan,nan,nan,nan,nan,nan,nan,nan,nan,nan,164.89049099804834,418.7657145531848,nan,419.28883553063497,nan,nan,nan,nan
1,167,0,0,0.0,1.0,0.6909596472978592,0.0,0,3,4,5,1,7,nan,nan,nan,nan,nan,nan,nan,nan,nan,nan,nan,nan,0.0,nan,nan,nan,nan,nan,nan,nan,nan,nan,nan,nan,nan,nan,nan,nan,nan,nan,nan,164.89049099804834,419.76588276261464,nan,420.4568424099125,nan,nan,nan,nan
1,168,1,1,1.0,1.0,0.586451031267643,0.0,4,1,5,0,6,8,nan,nan,nan,nan,nan,nan,nan,nan,nan,nan,nan,nan,0.0,nan,nan,nan,nan,nan,nan,nan,nan,nan,nan,nan,nan,nan,nan,nan,nan,nan,nan,164.89049099804834,420.77434655604884,nan,421.3607975873165,nan,nan,nan,nan
1,169,1,1,1.0,1.0,0.6663081045262516,0.0,5,3,8,7,4,2,nan,nan,nan,nan,nan,nan,nan,nan,nan,nan,nan,nan,0.0,nan,nan,nan,nan,nan,nan,nan,nan,nan,nan,nan,nan,nan,nan,nan,nan,nan,nan,164.89049099804834,421.77448739577085,nan,422.4407955002971,nan,nan,nan,nan
1,170,1,1,1.0,1.0,0.6821548733860254,0.0,8,0,2,5,6,7,nan,nan,nan,nan,nan,nan,nan,nan,nan,nan,nan,nan,0.0,nan,nan,nan,nan,nan,nan,nan,nan,nan,nan,nan,nan,nan,nan,nan,nan,nan,nan,164.89049099804834,422.7746362183243,nan,423.45679109171033,nan,nan,nan,nan
1,171,1,1,1.0,1.0,0.7540179993957281,0.0,7,1,8,6,0,2,nan,nan,nan,nan,nan,nan,nan,nan,nan,nan,nan,nan,0.0,nan,nan,nan,nan,nan,nan,nan,nan,nan,nan,nan,nan,nan,nan,nan,nan,nan,nan,164.89049099804834,423.77478276053444,nan,424.52880075993016,nan,nan,nan,nan
1,172,1,1,1.0,1.0,0.7218269612640142,0.0,1,0,3,2,7,6,nan,nan,nan,nan,nan,nan,nan,nan,nan,nan,nan,nan,0.0,nan,nan,nan,nan,nan,nan,nan,nan,nan,nan,nan,nan,nan,nan,nan,nan,nan,nan,164.89049099804834,424.7749452679418,nan,425.4967722292058,nan,nan,nan,nan
1,173,1,1,1.0,1.0,0.6497055334039032,0.0,4,7,5,1,0,2,nan,nan,nan,nan,nan,nan,nan,nan,nan,nan,nan,nan,0.0,nan,nan,nan,nan,nan,nan,nan,nan,nan,nan,nan,nan,nan,nan,nan,nan,nan,nan,164.89049099804834,425.7750687166117,nan,426.4247742500156,nan,nan,nan,nan
1,174,1,1,1.0,1.0,0.4735407745465636,0.0,7,2,0,5,8,6,nan,nan,nan,nan,nan,nan,nan,nan,nan,nan,nan,nan,0.0,nan,nan,nan,nan,nan,nan,nan,nan,nan,nan,nan,nan,nan,nan,nan,nan,nan,nan,164.89049099804834,426.77521554380655,nan,427.2487563183531,nan,nan,nan,nan
1,175,0,0,0.0,1.0,0.5610867366194725,0.0,1,7,3,6,4,5,nan,nan,nan,nan,nan,nan,nan,nan,nan,nan,nan,nan,0.0,nan,nan,nan,nan,nan,nan,nan,nan,nan,nan,nan,nan,nan,nan,nan,nan,nan,nan,164.89049099804834,427.7836759155616,nan,428.3447626521811,nan,nan,nan,nan
1,176,1,1,1.0,1.0,0.48890230152755976,0.0,8,4,7,2,3,1,nan,nan,nan,nan,nan,nan,nan,nan,nan,nan,nan,nan,0.0,nan,nan,nan,nan,nan,nan,nan,nan,nan,nan,nan,nan,nan,nan,nan,nan,nan,nan,164.89049099804834,428.7838358571753,nan,429.27273815870285,nan,nan,nan,nan
1,177,1,1,1.0,1.0,0.5684466185048223,0.0,6,7,4,5,1,3,nan,nan,nan,nan,nan,nan,nan,nan,nan,nan,nan,nan,0.0,nan,nan,nan,nan,nan,nan,nan,nan,nan,nan,nan,nan,nan,nan,nan,nan,nan,nan,164.89049099804834,429.7922996506095,nan,430.3607462691143,nan,nan,nan,nan
1,178,1,1,1.0,1.0,0.5202656909823418,0.0,5,0,2,6,4,8,nan,nan,nan,nan,nan,nan,nan,nan,nan,nan,nan,nan,0.0,nan,nan,nan,nan,nan,nan,nan,nan,nan,nan,nan,nan,nan,nan,nan,nan,nan,nan,164.89049099804834,430.79245959222317,nan,431.3127252832055,nan,nan,nan,nan
1,179,1,1,1.0,1.0,0.4961087992414832,0.0,7,8,5,1,2,6,nan,nan,nan,nan,nan,nan,nan,nan,nan,nan,nan,nan,0.0,nan,nan,nan,nan,nan,nan,nan,nan,nan,nan,nan,nan,nan,nan,nan,nan,nan,nan,164.89049099804834,431.7926263762638,nan,432.2887351755053,nan,nan,nan,nan
1,180,1,1,1.0,1.0,0.44801910407841206,0.0,2,5,6,3,0,4,nan,nan,nan,nan,nan,nan,nan,nan,nan,nan,nan,nan,0.0,nan,nan,nan,nan,nan,nan,nan,nan,nan,nan,nan,nan,nan,nan,nan,nan,nan,nan,164.89049099804834,432.79271219158545,nan,433.24073129566386,nan,nan,nan,nan
1,181,1,1,1.0,1.0,0.47183358995243907,0.0,8,4,2,0,3,5,nan,nan,nan,nan,nan,nan,nan,nan,nan,nan,nan,nan,0.0,nan,nan,nan,nan,nan,nan,nan,nan,nan,nan,nan,nan,nan,nan,nan,nan,nan,nan,164.89049099804834,433.79288382222876,nan,434.2647174121812,nan,nan,nan,nan
1,182,1,1,1.0,1.0,0.5676751350983977,0.0,6,0,5,4,7,8,nan,nan,nan,nan,nan,nan,nan,nan,nan,nan,nan,nan,0.0,nan,nan,nan,nan,nan,nan,nan,nan,nan,nan,nan,nan,nan,nan,nan,nan,nan,nan,164.89049099804834,434.7930292240344,nan,435.3607043591328,nan,nan,nan,nan
1,183,1,1,1.0,1.0,0.5995160695165396,0.0,8,2,1,7,4,0,nan,nan,nan,nan,nan,nan,nan,nan,nan,nan,nan,nan,0.0,nan,nan,nan,nan,nan,nan,nan,nan,nan,nan,nan,nan,nan,nan,nan,nan,nan,nan,164.89049099804834,435.79318888066337,nan,436.3927049501799,nan,nan,nan,nan
1,184,1,1,1.0,1.0,0.5193932824768126,0.0,1,7,0,2,8,5,nan,nan,nan,nan,nan,nan,nan,nan,nan,nan,nan,nan,0.0,nan,nan,nan,nan,nan,nan,nan,nan,nan,nan,nan,nan,nan,nan,nan,nan,nan,nan,164.89049099804834,436.79330862266943,nan,437.31270190514624,nan,nan,nan,nan
1,185,1,1,1.0,1.0,0.5992244109511375,0.0,8,1,5,4,3,6,nan,nan,nan,nan,nan,nan,nan,nan,nan,nan,nan,nan,0.0,nan,nan,nan,nan,nan,nan,nan,nan,nan,nan,nan,nan,nan,nan,nan,nan,nan,nan,164.89049099804834,437.7934628627263,nan,438.39268727367744,nan,nan,nan,nan
1,186,1,1,1.0,1.0,0.6150592057965696,0.0,5,6,2,0,4,1,nan,nan,nan,nan,nan,nan,nan,nan,nan,nan,nan,nan,0.0,nan,nan,nan,nan,nan,nan,nan,nan,nan,nan,nan,nan,nan,nan,nan,nan,nan,nan,164.89049099804834,438.79361339565367,nan,439.40867260145023,nan,nan,nan,nan
1,187,1,1,1.0,1.0,0.6309444629587233,0.0,7,3,4,6,2,8,nan,nan,nan,nan,nan,nan,nan,nan,nan,nan,nan,nan,0.0,nan,nan,nan,nan,nan,nan,nan,nan,nan,nan,nan,nan,nan,nan,nan,nan,nan,nan,164.89049099804834,439.79373798472807,nan,440.4246824476868,nan,nan,nan,nan
1,188,1,1,1.0,1.0,0.6627814052626491,0.0,2,7,3,8,5,6,nan,nan,nan,nan,nan,nan,nan,nan,nan,nan,nan,nan,0.0,nan,nan,nan,nan,nan,nan,nan,nan,nan,nan,nan,nan,nan,nan,nan,nan,nan,nan,164.89049099804834,440.7938842419535,nan,441.45666564721614,nan,nan,nan,nan
1,189,0,0,0.0,1.0,0.5906314677558839,1.0,3,8,1,0,7,2,1.0,1.0,1.0,1.0,1.0,1.0,0.0,0.0,1.0,1.0,0.0,1.0,3.0,4.0,7.0,1.0,0.0,8.0,2.0,4.0,3.0,2.0,1.0,6.0,5.0,4.127559885848314,3.344434500671923,2.472648123279214,1.2098143734037876,6.487231609411538,5.007264658343047,164.89049099804834,441.79403591528535,442.60246600955725,442.38466738304123,450.1368772718124,451.136690530926,443.61100621009246,450.1285523227416
1,190,1,1,1.0,1.0,0.7995232539251447,0.0,5,0,8,3,4,7,nan,nan,nan,nan,nan,nan,nan,nan,nan,nan,nan,nan,0.0,nan,nan,nan,nan,nan,nan,nan,nan,nan,nan,nan,nan,nan,nan,nan,nan,nan,nan,164.89049099804834,451.3370960014872,nan,452.13661925541237,nan,nan,nan,nan
1,191,0,0,0.0,1.0,0.7830313020385802,1.0,3,4,2,6,8,1,1.0,1.0,1.0,1.0,1.0,1.0,0.0,0.0,1.0,1.0,0.0,0.0,2.0,7.0,5.0,2.0,6.0,4.0,3.0,4.0,3.0,2.0,1.0,5.0,6.0,4.696095741353929,2.454856111202389,1.7108981851488352,0.8812947804108262,5.790912348777056,9.942888284102082,164.89049099804834,452.3455820325762,453.1539801955223,453.1286133346148,464.1638980037533,465.16101078595966,454.1791412131861,464.1555687780492
1,192,1,1,nan,nan,nan,0.0,2,5,7,1,4,0,nan,nan,nan,nan,nan,nan,nan,nan,nan,nan,nan,nan,0.0,nan,nan,nan,nan,nan,nan,nan,nan,nan,nan,nan,nan,nan,nan,nan,nan,nan,nan,164.89049099804834,465.3641073247418,nan,nan,nan,nan,nan,nan
1,193,1,1,nan,nan,nan,0.0,3,0,4,7,8,2,nan,nan,nan,nan,nan,nan,nan,nan,nan,nan,nan,nan,0.0,nan,nan,nan,nan,nan,nan,nan,nan,nan,nan,nan,nan,nan,nan,nan,nan,nan,nan,164.89049099804834,466.36425158567727,nan,nan,nan,nan,nan,nan
1,194,1,1,nan,nan,nan,0.0,2,1,8,5,6,7,nan,nan,nan,nan,nan,nan,nan,nan,nan,nan,nan,nan,0.0,nan,nan,nan,nan,nan,nan,nan,nan,nan,nan,nan,nan,nan,nan,nan,nan,nan,nan,164.89049099804834,467.3643844430335,nan,nan,nan,nan,nan,nan
1,195,1,1,1.0,1.0,0.6279141241684556,0.0,0,2,6,4,5,3,nan,nan,nan,nan,nan,nan,nan,nan,nan,nan,nan,nan,0.0,nan,nan,nan,nan,nan,nan,nan,nan,nan,nan,nan,nan,nan,nan,nan,nan,nan,nan,164.89049099804834,468.3645412484184,nan,468.99245537258685,nan,nan,nan,nan
1,196,1,1,1.0,1.0,0.7558027319610119,0.0,1,4,7,3,8,2,nan,nan,nan,nan,nan,nan,nan,nan,nan,nan,nan,nan,0.0,nan,nan,nan,nan,nan,nan,nan,nan,nan,nan,nan,nan,nan,nan,nan,nan,nan,nan,164.89049099804834,469.36468864558265,nan,470.12049137754366,nan,nan,nan,nan
1,197,1,1,1.0,1.0,0.7796425917185843,0.0,3,8,5,0,2,1,nan,nan,nan,nan,nan,nan,nan,nan,nan,nan,nan,nan,0.0,nan,nan,nan,nan,nan,nan,nan,nan,nan,nan,nan,nan,nan,nan,nan,nan,nan,nan,164.89049099804834,470.3648357577622,nan,471.1444783494808,nan,nan,nan,nan
1,198,1,1,1.0,1.0,0.603492088150233,0.0,2,7,1,6,3,8,nan,nan,nan,nan,nan,nan,nan,nan,nan,nan,nan,nan,0.0,nan,nan,nan,nan,nan,nan,nan,nan,nan,nan,nan,nan,nan,nan,nan,nan,nan,nan,164.89049099804834,471.36497944872826,nan,471.9684715368785,nan,nan,nan,nan
1,199,1,1,1.0,1.0,0.6033498225733638,0.0,8,5,3,1,4,7,nan,nan,nan,nan,nan,nan,nan,nan,nan,nan,nan,nan,0.0,nan,nan,nan,nan,nan,nan,nan,nan,nan,nan,nan,nan,nan,nan,nan,nan,nan,nan,164.89049099804834,472.3651131610386,nan,472.96846298361197,nan,nan,nan,nan
1,200,1,1,1.0,1.0,0.40318127116188407,0.0,3,7,2,5,6,8,nan,nan,nan,nan,nan,nan,nan,nan,nan,nan,nan,nan,0.0,nan,nan,nan,nan,nan,nan,nan,nan,nan,nan,nan,nan,nan,nan,nan,nan,nan,nan,164.89049099804834,473.365268826019,nan,473.7684500971809,nan,nan,nan,nan
1,201,1,1,1.0,1.0,0.36303391912952065,0.0,6,1,0,4,5,3,nan,nan,nan,nan,nan,nan,nan,nan,nan,nan,nan,nan,0.0,nan,nan,nan,nan,nan,nan,nan,nan,nan,nan,nan,nan,nan,nan,nan,nan,nan,nan,164.89049099804834,474.3654065299779,nan,474.72844044910744,nan,nan,nan,nan
1,202,1,1,1.0,1.0,0.5468944092281163,0.0,0,2,7,5,4,6,nan,nan,nan,nan,nan,nan,nan,nan,nan,nan,nan,nan,0.0,nan,nan,nan,nan,nan,nan,nan,nan,nan,nan,nan,nan,nan,nan,nan,nan,nan,nan,164.89049099804834,475.36555649293587,nan,475.912450902164,nan,nan,nan,nan
1,203,0,0,0.0,1.0,0.5307280425913632,0.0,1,3,5,4,6,0,nan,nan,nan,nan,nan,nan,nan,nan,nan,nan,nan,nan,0.0,nan,nan,nan,nan,nan,nan,nan,nan,nan,nan,nan,nan,nan,nan,nan,nan,nan,nan,164.89049099804834,476.36570018390194,nan,476.8964282264933,nan,nan,nan,nan
1,204,1,1,1.0,1.0,0.5466144401580095,0.0,4,7,1,2,3,5,nan,nan,nan,nan,nan,nan,nan,nan,nan,nan,nan,nan,0.0,nan,nan,nan,nan,nan,nan,nan,nan,nan,nan,nan,nan,nan,nan,nan,nan,nan,nan,164.89049099804834,477.36582448799163,nan,477.91243892814964,nan,nan,nan,nan
1,205,1,1,1.0,1.0,0.6584253474138677,0.0,6,1,5,0,8,7,nan,nan,nan,nan,nan,nan,nan,nan,nan,nan,nan,nan,0.0,nan,nan,nan,nan,nan,nan,nan,nan,nan,nan,nan,nan,nan,nan,nan,nan,nan,nan,164.89049099804834,478.36599326785654,nan,479.0244186152704,nan,nan,nan,nan
1,206,1,1,1.0,1.0,0.6342861312441528,0.0,0,8,7,3,2,4,nan,nan,nan,nan,nan,nan,nan,nan,nan,nan,nan,nan,0.0,nan,nan,nan,nan,nan,nan,nan,nan,nan,nan,nan,nan,nan,nan,nan,nan,nan,nan,164.89049099804834,479.36612783558667,nan,480.0004139668308,nan,nan,nan,nan
1,207,1,1,1.0,1.0,0.7781355478800833,0.0,2,0,8,6,5,1,nan,nan,nan,nan,nan,nan,nan,nan,nan,nan,nan,nan,0.0,nan,nan,nan,nan,nan,nan,nan,nan,nan,nan,nan,nan,nan,nan,nan,nan,nan,nan,164.89049099804834,480.36627295194194,nan,481.144408499822,nan,nan,nan,nan
1,208,1,1,1.0,1.0,0.7939860229380429,0.0,1,2,6,3,7,0,nan,nan,nan,nan,nan,nan,nan,nan,nan,nan,nan,nan,0.0,nan,nan,nan,nan,nan,nan,nan,nan,nan,nan,nan,nan,nan,nan,nan,nan,nan,nan,164.89049099804834,481.3664231998846,nan,482.16040922282264,nan,nan,nan,nan
1,209,1,1,nan,nan,nan,0.0,6,5,7,0,3,1,nan,nan,nan,nan,nan,nan,nan,nan,nan,nan,nan,nan,0.0,nan,nan,nan,nan,nan,nan,nan,nan,nan,nan,nan,nan,nan,nan,nan,nan,nan,nan,164.89049099804834,482.3748844275251,nan,nan,nan,nan,nan,nan
1,210,1,1,1.0,1.0,0.7213097880594432,0.0,2,7,8,1,5,3,nan,nan,nan,nan,nan,nan,nan,nan,nan,nan,nan,nan,0.0,nan,nan,nan,nan,nan,nan,nan,nan,nan,nan,nan,nan,nan,nan,nan,nan,nan,nan,164.89049099804834,483.3750460795127,nan,484.09635586757213,nan,nan,nan,nan
1,211,1,1,1.0,1.0,0.6011933190748096,0.0,3,2,4,6,1,8,nan,nan,nan,nan,nan,nan,nan,nan,nan,nan,nan,nan,0.0,nan,nan,nan,nan,nan,nan,nan,nan,nan,nan,nan,nan,nan,nan,nan,nan,nan,nan,164.89049099804834,484.37519119586796,nan,484.97638451494277,nan,nan,nan,nan
1,212,0,0,0.0,1.0,0.6250428720377386,1.0,0,4,5,7,6,2,1.0,1.0,1.0,1.0,1.0,1.0,0.0,1.0,1.0,1.0,1.0,0.0,4.0,2.0,4.0,5.0,7.0,6.0,1.0,4.0,3.0,2.0,1.0,6.0,5.0,3.8649773099459708,2.9208297352306545,2.138185885269195,1.0732162157073617,7.513183782808483,6.424893707036972,164.89049099804834,485.3753400188871,486.18376070447266,486.0003828909248,494.7516582189128,495.7524619186297,487.2005759612657,494.7433130275458
1,213,1,1,1.0,1.0,0.5521262977272272,0.0,6,5,8,1,4,3,nan,nan,nan,nan,nan,nan,nan,nan,nan,nan,nan,nan,0.0,nan,nan,nan,nan,nan,nan,nan,nan,nan,nan,nan,nan,nan,nan,nan,nan,nan,nan,164.89049099804834,495.96019990136847,nan,496.5123261990957,nan,nan,nan,nan
1,214,1,1,1.0,1.0,0.7599617848172784,0.0,8,0,6,2,3,7,nan,nan,nan,nan,nan,nan,nan,nan,nan,nan,nan,nan,0.0,nan,nan,nan,nan,nan,nan,nan,nan,nan,nan,nan,nan,nan,nan,nan,nan,nan,nan,164.89049099804834,496.96033960115165,nan,497.7203013859689,nan,nan,nan,nan
1,215,1,1,1.0,1.0,0.6957852668128908,0.0,7,6,2,5,8,4,nan,nan,nan,nan,nan,nan,nan,nan,nan,nan,nan,nan,0.0,nan,nan,nan,nan,nan,nan,nan,nan,nan,nan,nan,nan,nan,nan,nan,nan,nan,nan,164.89049099804834,497.96049526613206,nan,498.65628053294495,nan,nan,nan,nan
1,216,1,1,nan,nan,nan,0.0,1,8,5,4,7,0,nan,nan,nan,nan,nan,nan,nan,nan,nan,nan,nan,nan,0.0,nan,nan,nan,nan,nan,nan,nan,nan,nan,nan,nan,nan,nan,nan,nan,nan,nan,nan,164.89049099804834,498.96063924208283,nan,nan,nan,nan,nan,nan
1,217,1,1,1.0,1.0,0.6791584617458284,0.0,4,2,3,5,6,7,nan,nan,nan,nan,nan,nan,nan,nan,nan,nan,nan,nan,0.0,nan,nan,nan,nan,nan,nan,nan,nan,nan,nan,nan,nan,nan,nan,nan,nan,nan,nan,164.89049099804834,499.9690959076397,nan,500.64825436938554,nan,nan,nan,nan
1,218,1,1,1.0,1.0,0.695008366368711,0.0,5,1,0,2,8,4,nan,nan,nan,nan,nan,nan,nan,nan,nan,nan,nan,nan,0.0,nan,nan,nan,nan,nan,nan,nan,nan,nan,nan,nan,nan,nan,nan,nan,nan,nan,nan,164.89049099804834,500.96925984090194,nan,501.66426820727065,nan,nan,nan,nan
1,219,1,1,nan,nan,nan,0.0,4,2,8,1,5,6,nan,nan,nan,nan,nan,nan,nan,nan,nan,nan,nan,nan,0.0,nan,nan,nan,nan,nan,nan,nan,nan,nan,nan,nan,nan,nan,nan,nan,nan,nan,nan,164.89049099804834,501.9694063826464,nan,nan,nan,nan,nan,nan
1,220,1,1,nan,nan,nan,0.0,6,4,5,7,0,1,nan,nan,nan,nan,nan,nan,nan,nan,nan,nan,nan,nan,0.0,nan,nan,nan,nan,nan,nan,nan,nan,nan,nan,nan,nan,nan,nan,nan,nan,nan,nan,164.89049099804834,502.96953610377386,nan,nan,nan,nan,nan,nan
1,221,1,1,nan,nan,nan,0.0,8,2,3,0,5,4,nan,nan,nan,nan,nan,nan,nan,nan,nan,nan,nan,nan,0.0,nan,nan,nan,nan,nan,nan,nan,nan,nan,nan,nan,nan,nan,nan,nan,nan,nan,nan,164.89049099804834,503.96968122012913,nan,nan,nan,nan,nan,nan
1,222,1,1,1.0,1.0,0.030452207196503878,0.0,4,3,2,7,0,1,nan,nan,nan,nan,nan,nan,nan,nan,nan,nan,nan,nan,0.0,nan,nan,nan,nan,nan,nan,nan,nan,nan,nan,nan,nan,nan,nan,nan,nan,nan,nan,164.89049099804834,504.96981949405745,nan,505.00027170125395,nan,nan,nan,nan
1,223,1,1,1.0,1.0,0.47825434943661094,0.0,8,4,0,5,7,6,nan,nan,nan,nan,nan,nan,nan,nan,nan,nan,nan,nan,0.0,nan,nan,nan,nan,nan,nan,nan,nan,nan,nan,nan,nan,nan,nan,nan,nan,nan,nan,164.89049099804834,505.96997088287026,nan,506.44822523230687,nan,nan,nan,nan
1,224,1,1,1.0,1.0,0.35011171689257026,0.0,5,6,8,4,3,2,nan,nan,nan,nan,nan,nan,nan,nan,nan,nan,nan,nan,0.0,nan,nan,nan,nan,nan,nan,nan,nan,nan,nan,nan,nan,nan,nan,nan,nan,nan,nan,164.89049099804834,506.9701222712174,nan,507.32023398811,nan,nan,nan,nan
1,225,1,1,1.0,1.0,0.26196846831589937,0.0,7,8,4,1,2,6,nan,nan,nan,nan,nan,nan,nan,nan,nan,nan,nan,nan,0.0,nan,nan,nan,nan,nan,nan,nan,nan,nan,nan,nan,nan,nan,nan,nan,nan,nan,nan,164.89049099804834,507.97026539221406,nan,508.23223386052996,nan,nan,nan,nan
1,226,1,1,1.0,1.0,0.28582486417144537,0.0,8,7,1,0,6,2,nan,nan,nan,nan,nan,nan,nan,nan,nan,nan,nan,nan,0.0,nan,nan,nan,nan,nan,nan,nan,nan,nan,nan,nan,nan,nan,nan,nan,nan,nan,nan,164.89049099804834,508.97039368748665,nan,509.2562185516581,nan,nan,nan,nan
1,227,1,1,1.0,1.0,0.3016690667718649,0.0,0,2,4,7,5,3,nan,nan,nan,nan,nan,nan,nan,nan,nan,nan,nan,nan,0.0,nan,nan,nan,nan,nan,nan,nan,nan,nan,nan,nan,nan,nan,nan,nan,nan,nan,nan,164.89049099804834,509.97054365091026,nan,510.2722127176821,nan,nan,nan,nan
1,228,0,0,1.0,0.0,0.3255109223537147,1.0,5,3,1,6,8,2,1.0,1.0,1.0,1.0,1.0,1.0,1.0,0.0,1.0,1.0,0.0,0.0,3.0,5.0,2.0,1.0,6.0,0.0,8.0,4.0,3.0,2.0,1.0,5.0,6.0,4.341142439283431,3.254856909159571,2.3836752311326563,1.0209948369301856,8.54919631453231,10.253502109088004,164.89049099804834,510.97070131171495,511.77910346584395,511.29621223406866,523.0973662654869,524.0974660511129,512.8042781688273,523.0890433122404
1,229,1,1,1.0,1.0,0.6705258884467185,0.0,6,7,5,4,1,3,nan,nan,nan,nan,nan,nan,nan,nan,nan,nan,nan,nan,0.0,nan,nan,nan,nan,nan,nan,nan,nan,nan,nan,nan,nan,nan,nan,nan,nan,nan,nan,164.89049099804834,524.2976143606938,nan,524.9681402491406,nan,nan,nan,nan
1,230,1,1,nan,nan,nan,0.0,1,0,6,8,4,2,nan,nan,nan,nan,nan,nan,nan,nan,nan,nan,nan,nan,0.0,nan,nan,nan,nan,nan,nan,nan,nan,nan,nan,nan,nan,nan,nan,nan,nan,nan,nan,164.89049099804834,525.2977540600114,nan,nan,nan,nan,nan,nan
1,231,1,1,1.0,1.0,0.4781904867850244,0.0,6,7,3,4,0,1,nan,nan,nan,nan,nan,nan,nan,nan,nan,nan,nan,nan,0.0,nan,nan,nan,nan,nan,nan,nan,nan,nan,nan,nan,nan,nan,nan,nan,nan,nan,nan,164.89049099804834,526.2979051638395,nan,526.7760956506245,nan,nan,nan,nan
1,232,1,1,1.0,1.0,0.6060845116153359,0.0,2,4,0,7,6,8,nan,nan,nan,nan,nan,nan,nan,nan,nan,nan,nan,nan,0.0,nan,nan,nan,nan,nan,nan,nan,nan,nan,nan,nan,nan,nan,nan,nan,nan,nan,nan,164.89049099804834,527.2980169230141,nan,527.9041014346294,nan,nan,nan,nan
1,233,1,1,1.0,1.0,0.6459045670926571,0.0,8,6,2,5,1,4,nan,nan,nan,nan,nan,nan,nan,nan,nan,nan,nan,nan,0.0,nan,nan,nan,nan,nan,nan,nan,nan,nan,nan,nan,nan,nan,nan,nan,nan,nan,nan,164.89049099804834,528.2981876987033,nan,528.9440922657959,nan,nan,nan,nan
1,234,1,1,1.0,1.0,0.5497505506500602,0.0,5,4,8,7,3,2,nan,nan,nan,nan,nan,nan,nan,nan,nan,nan,nan,nan,0.0,nan,nan,nan,nan,nan,nan,nan,nan,nan,nan,nan,nan,nan,nan,nan,nan,nan,nan,164.89049099804834,529.2983299642801,nan,529.8480805149302,nan,nan,nan,nan
1,235,1,1,1.0,1.0,0.501599844545126,0.0,0,1,5,3,6,4,nan,nan,nan,nan,nan,nan,nan,nan,nan,nan,nan,nan,0.0,nan,nan,nan,nan,nan,nan,nan,nan,nan,nan,nan,nan,nan,nan,nan,nan,nan,nan,164.89049099804834,530.2984759355895,nan,530.8000757801346,nan,nan,nan,nan
1,236,1,1,1.0,1.0,0.4374629547819495,0.0,4,8,6,2,0,7,nan,nan,nan,nan,nan,nan,nan,nan,nan,nan,nan,nan,0.0,nan,nan,nan,nan,nan,nan,nan,nan,nan,nan,nan,nan,nan,nan,nan,nan,nan,nan,164.89049099804834,531.2986190565862,nan,531.7360820113681,nan,nan,nan,nan
1,237,1,1,1.0,1.0,0.45331228943541646,0.0,1,5,0,8,7,3,nan,nan,nan,nan,nan,nan,nan,nan,nan,nan,nan,nan,0.0,nan,nan,nan,nan,nan,nan,nan,nan,nan,nan,nan,nan,nan,nan,nan,nan,nan,nan,164.89049099804834,532.2987613216974,nan,532.7520736111328,nan,nan,nan,nan
1,238,1,1,1.0,1.0,0.5091456118971109,0.0,6,3,7,1,0,8,nan,nan,nan,nan,nan,nan,nan,nan,nan,nan,nan,nan,0.0,nan,nan,nan,nan,nan,nan,nan,nan,nan,nan,nan,nan,nan,nan,nan,nan,nan,nan,164.89049099804834,533.2989189829677,nan,533.8080645948648,nan,nan,nan,nan
1,239,0,0,0.0,1.0,0.5810061725787818,1.0,0,5,2,6,8,4,1.0,1.0,1.0,1.0,1.0,1.0,0.0,1.0,1.0,1.0,0.0,0.0,3.0,8.0,5.0,2.0,6.0,1.0,0.0,4.0,3.0,2.0,1.0,6.0,5.0,6.9342648345045745,2.7655203989706933,2.118225109297782,1.0776754803955555,10.012792766559869,8.804766546469182,164.89049099804834,534.2990541206673,535.1074790828861,534.8800602932461,546.1757402434014,547.1853393088095,536.1243048883043,546.167420996353
1,240,1,1,1.0,1.0,0.6393577931448817,0.0,2,3,7,8,1,6,nan,nan,nan,nan,nan,nan,nan,nan,nan,nan,nan,nan,0.0,nan,nan,nan,nan,nan,nan,nan,nan,nan,nan,nan,nan,nan,nan,nan,nan,nan,nan,164.89049099804834,547.3926268322393,nan,548.0319846253842,nan,nan,nan,nan
1,241,1,1,1.0,1.0,0.7512442520819604,0.0,8,5,6,7,3,0,nan,nan,nan,nan,nan,nan,nan,nan,nan,nan,nan,nan,0.0,nan,nan,nan,nan,nan,nan,nan,nan,nan,nan,nan,nan,nan,nan,nan,nan,nan,nan,164.89049099804834,548.3927383068949,nan,549.1439825589769,nan,nan,nan,nan
1,242,1,1,nan,nan,nan,0.0,5,6,4,1,0,8,nan,nan,nan,nan,nan,nan,nan,nan,nan,nan,nan,nan,0.0,nan,nan,nan,nan,nan,nan,nan,nan,nan,nan,nan,nan,nan,nan,nan,nan,nan,nan,164.89049099804834,549.3929059463553,nan,nan,nan,nan,nan,nan
1,243,1,1,1.0,1.0,0.6788770672865212,0.0,0,1,6,7,8,2,nan,nan,nan,nan,nan,nan,nan,nan,nan,nan,nan,nan,0.0,nan,nan,nan,nan,nan,nan,nan,nan,nan,nan,nan,nan,nan,nan,nan,nan,nan,nan,164.89049099804834,550.393056194298,nan,551.0719332615845,nan,nan,nan,nan
1,244,1,1,1.0,1.0,0.6307463170960546,0.0,4,7,5,8,1,6,nan,nan,nan,nan,nan,nan,nan,nan,nan,nan,nan,nan,0.0,nan,nan,nan,nan,nan,nan,nan,nan,nan,nan,nan,nan,nan,nan,nan,nan,nan,nan,164.89049099804834,551.3931936132722,nan,552.0239399303682,nan,nan,nan,nan
1,245,1,1,1.0,1.0,0.6145910695195198,0.0,7,4,2,6,8,0,nan,nan,nan,nan,nan,nan,nan,nan,nan,nan,nan,nan,0.0,nan,nan,nan,nan,nan,nan,nan,nan,nan,nan,nan,nan,nan,nan,nan,nan,nan,nan,164.89049099804834,552.3933467124589,nan,553.0079377819784,nan,nan,nan,nan
1,246,1,1,nan,nan,nan,0.0,5,2,7,0,6,4,nan,nan,nan,nan,nan,nan,nan,nan,nan,nan,nan,nan,0.0,nan,nan,nan,nan,nan,nan,nan,nan,nan,nan,nan,nan,nan,nan,nan,nan,nan,nan,164.89049099804834,553.3934832755476,nan,nan,nan,nan,nan,nan
1,247,1,1,nan,nan,nan,0.0,4,1,2,5,3,8,nan,nan,nan,nan,nan,nan,nan,nan,nan,nan,nan,nan,0.0,nan,nan,nan,nan,nan,nan,nan,nan,nan,nan,nan,nan,nan,nan,nan,nan,nan,nan,164.89049099804834,554.3936263965443,nan,nan,nan,nan,nan,nan
1,248,1,1,nan,nan,nan,0.0,3,2,6,0,8,7,nan,nan,nan,nan,nan,nan,nan,nan,nan,nan,nan,nan,0.0,nan,nan,nan,nan,nan,nan,nan,nan,nan,nan,nan,nan,nan,nan,nan,nan,nan,nan,164.89049099804834,555.393779495731,nan,nan,nan,nan,nan,nan
1,249,1,1,nan,nan,nan,0.0,5,3,8,4,0,2,nan,nan,nan,nan,nan,nan,nan,nan,nan,nan,nan,nan,0.0,nan,nan,nan,nan,nan,nan,nan,nan,nan,nan,nan,nan,nan,nan,nan,nan,nan,nan,164.89049099804834,556.3939069355838,nan,nan,nan,nan,nan,nan
1,250,1,1,nan,nan,nan,0.0,3,7,5,1,2,4,nan,nan,nan,nan,nan,nan,nan,nan,nan,nan,nan,nan,0.0,nan,nan,nan,nan,nan,nan,nan,nan,nan,nan,nan,nan,nan,nan,nan,nan,nan,nan,164.89049099804834,557.3940494861454,nan,nan,nan,nan,nan,nan
1,251,1,1,1.0,1.0,0.005716845393180847,0.0,7,3,0,6,8,5,nan,nan,nan,nan,nan,nan,nan,nan,nan,nan,nan,nan,0.0,nan,nan,nan,nan,nan,nan,nan,nan,nan,nan,nan,nan,nan,nan,nan,nan,nan,nan,164.89049099804834,558.3942091427743,nan,558.3999259881675,nan,nan,nan,nan
1,252,0,0,0.0,1.0,0.7655406412668526,1.0,2,0,5,3,1,4,1.0,1.0,1.0,1.0,1.0,1.0,1.0,1.0,1.0,1.0,1.0,0.0,5.0,2.0,0.0,5.0,3.0,1.0,7.0,4.0,3.0,2.0,1.0,5.0,6.0,3.581488278694451,2.869387537240982,2.1993491714820266,1.2626601234078407,4.709755785297602,7.949774898588657,164.89049099804834,559.3943556849845,560.2027669623494,560.1598963262513,569.2123993844725,570.2108056698926,561.2195941931568,569.2040770011954
1,253,1,1,nan,nan,nan,0.0,8,3,2,5,6,7,nan,nan,nan,nan,nan,nan,nan,nan,nan,nan,nan,nan,0.0,nan,nan,nan,nan,nan,nan,nan,nan,nan,nan,nan,nan,nan,nan,nan,nan,nan,nan,164.89049099804834,570.4126024334691,nan,nan,nan,nan,nan,nan
1,254,1,1,1.0,1.0,0.2350823045708239,0.0,3,8,5,2,0,6,nan,nan,nan,nan,nan,nan,nan,nan,nan,nan,nan,nan,0.0,nan,nan,nan,nan,nan,nan,nan,nan,nan,nan,nan,nan,nan,nan,nan,nan,nan,nan,164.89049099804834,571.4127452690154,nan,571.6478275735863,nan,nan,nan,nan
1,255,1,1,1.0,1.0,0.2748932368122041,0.0,0,4,6,5,8,7,nan,nan,nan,nan,nan,nan,nan,nan,nan,nan,nan,nan,0.0,nan,nan,nan,nan,nan,nan,nan,nan,nan,nan,nan,nan,nan,nan,nan,nan,nan,nan,164.89049099804834,572.4128983682021,nan,572.6877916050144,nan,nan,nan,nan
1,256,1,1,1.0,1.0,0.37076956452801824,0.0,3,2,4,1,0,5,nan,nan,nan,nan,nan,nan,nan,nan,nan,nan,nan,nan,0.0,nan,nan,nan,nan,nan,nan,nan,nan,nan,nan,nan,nan,nan,nan,nan,nan,nan,nan,164.89049099804834,573.4130412037484,nan,573.7838107682765,nan,nan,nan,nan
1,257,1,1,1.0,1.0,0.48259444162249565,0.0,1,0,6,2,4,8,nan,nan,nan,nan,nan,nan,nan,nan,nan,nan,nan,nan,0.0,nan,nan,nan,nan,nan,nan,nan,nan,nan,nan,nan,nan,nan,nan,nan,nan,nan,nan,164.89049099804834,574.4131914521568,nan,574.8957858937792,nan,nan,nan,nan
1,258,0,0,0.0,1.0,0.5784488171339035,0.0,7,2,4,3,0,6,nan,nan,nan,nan,nan,nan,nan,nan,nan,nan,nan,nan,0.0,nan,nan,nan,nan,nan,nan,nan,nan,nan,nan,nan,nan,nan,nan,nan,nan,nan,nan,164.89049099804834,575.413326874841,nan,575.9917756919749,nan,nan,nan,nan
1,259,1,1,1.0,1.0,0.5542870778590441,0.0,4,5,6,1,3,0,nan,nan,nan,nan,nan,nan,nan,nan,nan,nan,nan,nan,0.0,nan,nan,nan,nan,nan,nan,nan,nan,nan,nan,nan,nan,nan,nan,nan,nan,nan,nan,164.89049099804834,576.4134802594781,nan,576.9677673373371,nan,nan,nan,nan
1,260,1,1,1.0,1.0,0.6181525513529778,0.0,3,0,8,6,1,4,nan,nan,nan,nan,nan,nan,nan,nan,nan,nan,nan,nan,0.0,nan,nan,nan,nan,nan,nan,nan,nan,nan,nan,nan,nan,nan,nan,nan,nan,nan,nan,164.89049099804834,577.4136248053983,nan,578.0317773567513,nan,nan,nan,nan
1,261,1,1,nan,nan,nan,0.0,0,8,5,2,6,3,nan,nan,nan,nan,nan,nan,nan,nan,nan,nan,nan,nan,0.0,nan,nan,nan,nan,nan,nan,nan,nan,nan,nan,nan,nan,nan,nan,nan,nan,nan,nan,164.89049099804834,578.4137676409446,nan,nan,nan,nan,nan,nan
1,262,1,1,1.0,1.0,0.7378111486323178,0.0,6,0,8,3,2,4,nan,nan,nan,nan,nan,nan,nan,nan,nan,nan,nan,nan,0.0,nan,nan,nan,nan,nan,nan,nan,nan,nan,nan,nan,nan,nan,nan,nan,nan,nan,nan,164.89049099804834,579.4139107619412,nan,580.1517219105735,nan,nan,nan,nan
1,263,1,1,1.0,1.0,0.40171071980148554,0.0,0,3,7,1,8,5,nan,nan,nan,nan,nan,nan,nan,nan,nan,nan,nan,nan,0.0,nan,nan,nan,nan,nan,nan,nan,nan,nan,nan,nan,nan,nan,nan,nan,nan,nan,nan,164.89049099804834,580.4140476104803,nan,580.8157583302818,nan,nan,nan,nan
1,264,1,1,1.0,1.0,0.42555172042921185,0.0,7,4,8,6,2,0,nan,nan,nan,nan,nan,nan,nan,nan,nan,nan,nan,nan,0.0,nan,nan,nan,nan,nan,nan,nan,nan,nan,nan,nan,nan,nan,nan,nan,nan,nan,nan,164.89049099804834,581.4141930118203,nan,581.8397447322495,nan,nan,nan,nan
1,265,1,1,1.0,1.0,0.4493870185688138,0.0,2,6,5,0,3,1,nan,nan,nan,nan,nan,nan,nan,nan,nan,nan,nan,nan,0.0,nan,nan,nan,nan,nan,nan,nan,nan,nan,nan,nan,nan,nan,nan,nan,nan,nan,nan,164.89049099804834,582.4143426897936,nan,582.8637297083624,nan,nan,nan,nan
1,266,1,1,1.0,1.0,0.45724354637786746,0.0,3,8,1,7,4,5,nan,nan,nan,nan,nan,nan,nan,nan,nan,nan,nan,nan,0.0,nan,nan,nan,nan,nan,nan,nan,nan,nan,nan,nan,nan,nan,nan,nan,nan,nan,nan,164.89049099804834,583.4144778279588,nan,583.8717213743366,nan,nan,nan,nan
1,267,1,1,1.0,1.0,0.4570807539857924,0.0,8,1,5,4,3,2,nan,nan,nan,nan,nan,nan,nan,nan,nan,nan,nan,nan,0.0,nan,nan,nan,nan,nan,nan,nan,nan,nan,nan,nan,nan,nan,nan,nan,nan,nan,nan,164.89049099804834,584.4146352033131,nan,584.8717159572989,nan,nan,nan,nan
1,268,1,1,1.0,1.0,0.48094456270337105,0.0,0,7,2,3,6,4,nan,nan,nan,nan,nan,nan,nan,nan,nan,nan,nan,nan,0.0,nan,nan,nan,nan,nan,nan,nan,nan,nan,nan,nan,nan,nan,nan,nan,nan,nan,nan,164.89049099804834,585.414760932792,nan,585.8957054954953,nan,nan,nan,nan
1,269,1,1,1.0,1.0,0.5848034331575036,0.0,7,5,4,1,2,8,nan,nan,nan,nan,nan,nan,nan,nan,nan,nan,nan,nan,0.0,nan,nan,nan,nan,nan,nan,nan,nan,nan,nan,nan,nan,nan,nan,nan,nan,nan,nan,164.89049099804834,586.414911466185,nan,586.9997148993425,nan,nan,nan,nan
1,270,1,1,1.0,1.0,0.49662426207214594,0.0,3,2,8,5,0,7,nan,nan,nan,nan,nan,nan,nan,nan,nan,nan,nan,nan,0.0,nan,nan,nan,nan,nan,nan,nan,nan,nan,nan,nan,nan,nan,nan,nan,nan,nan,nan,164.89049099804834,587.4150691269897,nan,587.9116933890618,nan,nan,nan,nan
1,271,1,1,1.0,1.0,0.44047875283285975,0.0,8,3,1,2,4,0,nan,nan,nan,nan,nan,nan,nan,nan,nan,nan,nan,nan,0.0,nan,nan,nan,nan,nan,nan,nan,nan,nan,nan,nan,nan,nan,nan,nan,nan,nan,nan,164.89049099804834,588.4152182349935,nan,588.8556969878264,nan,nan,nan,nan
1,272,1,1,1.0,1.0,0.7523173722438514,0.0,0,8,3,7,2,1,nan,nan,nan,nan,nan,nan,nan,nan,nan,nan,nan,nan,0.0,nan,nan,nan,nan,nan,nan,nan,nan,nan,nan,nan,nan,nan,nan,nan,nan,nan,nan,164.89049099804834,589.4153653471731,nan,590.1676827194169,nan,nan,nan,nan
1,273,0,0,0.0,1.0,0.6961826970800757,1.0,2,7,0,6,3,4,1.0,1.0,1.0,1.0,1.0,1.0,1.0,1.0,1.0,1.0,0.0,0.0,4.0,2.0,7.0,0.0,6.0,8.0,1.0,4.0,3.0,2.0,1.0,6.0,5.0,6.265957886818796,3.4977988777682185,2.3373987786471844,1.4733183961361647,9.304522927850485,8.49636253900826,164.89049099804834,590.4154976340942,591.2239163243212,591.1116803311743,601.5754056489095,602.580649511423,592.2323997891508,601.567073572427
1,274,1,1,1.0,1.0,0.7276652595028281,0.0,4,5,2,8,1,6,nan,nan,nan,nan,nan,nan,nan,nan,nan,nan,nan,nan,0.0,nan,nan,nan,nan,nan,nan,nan,nan,nan,nan,nan,nan,nan,nan,nan,nan,nan,nan,164.89049099804834,602.7839513230138,nan,603.5116165825166,nan,nan,nan,nan
1,275,1,1,1.0,1.0,0.4071695487946272,0.0,1,4,3,6,5,2,nan,nan,nan,nan,nan,nan,nan,nan,nan,nan,nan,nan,0.0,nan,nan,nan,nan,nan,nan,nan,nan,nan,nan,nan,nan,nan,nan,nan,nan,nan,nan,164.89049099804834,603.7924219588749,nan,604.1995915076695,nan,nan,nan,nan
1,276,1,1,1.0,1.0,0.35100607899948955,0.0,0,1,6,2,8,7,nan,nan,nan,nan,nan,nan,nan,nan,nan,nan,nan,nan,0.0,nan,nan,nan,nan,nan,nan,nan,nan,nan,nan,nan,nan,nan,nan,nan,nan,nan,nan,164.89049099804834,604.7925836108625,nan,605.143589689862,nan,nan,nan,nan
1,277,0,0,0.0,1.0,0.5908427275717258,1.0,1,5,2,6,3,8,1.0,1.0,1.0,1.0,1.0,1.0,1.0,1.0,1.0,1.0,0.0,1.0,5.0,1.0,5.0,2.0,6.0,4.0,8.0,4.0,3.0,2.0,1.0,6.0,5.0,3.863178608007729,2.7923934487625957,2.062762417830527,1.19095722399652,8.062760991975665,4.630679603666067,164.89049099804834,605.7927241655998,606.6011437112466,606.3835668931715,615.7191142258234,616.7297442159615,607.6179789248854,615.7107852851041
1,278,1,1,nan,nan,nan,0.0,7,1,6,5,2,4,nan,nan,nan,nan,nan,nan,nan,nan,nan,nan,nan,nan,0.0,nan,nan,nan,nan,nan,nan,nan,nan,nan,nan,nan,nan,nan,nan,nan,nan,nan,nan,164.89049099804834,616.9359925463796,nan,nan,nan,nan,nan,nan
1,279,1,1,1.0,1.0,0.4713235446251929,0.0,4,5,1,8,7,6,nan,nan,nan,nan,nan,nan,nan,nan,nan,nan,nan,nan,0.0,nan,nan,nan,nan,nan,nan,nan,nan,nan,nan,nan,nan,nan,nan,nan,nan,nan,nan,164.89049099804834,617.9361388031393,nan,618.4074623477645,nan,nan,nan,nan
1,280,1,1,1.0,1.0,0.335205496288836,0.0,2,0,4,7,1,5,nan,nan,nan,nan,nan,nan,nan,nan,nan,nan,nan,nan,0.0,nan,nan,nan,nan,nan,nan,nan,nan,nan,nan,nan,nan,nan,nan,nan,nan,nan,nan,164.89049099804834,618.9362933281809,nan,619.2714988244697,nan,nan,nan,nan
1,281,0,0,0.0,1.0,0.335048405919224,1.0,3,2,8,1,5,6,1.0,1.0,1.0,1.0,1.0,1.0,0.0,1.0,1.0,1.0,0.0,0.0,3.0,6.0,2.0,8.0,1.0,7.0,5.0,5.0,3.0,2.0,1.0,6.0,4.0,5.903017480392009,2.5207036063075066,1.727692629210651,0.8480967655777931,7.222946695517749,4.096338191535324,164.89049099804834,619.9364375891164,620.7448614109308,620.2714859950356,629.0210421639495,630.0208665416576,621.7616835101508,629.0127109428868
1,282,1,1,1.0,1.0,0.5221804296597838,0.0,0,7,2,4,8,5,nan,nan,nan,nan,nan,nan,nan,nan,nan,nan,nan,nan,0.0,nan,nan,nan,nan,nan,nan,nan,nan,nan,nan,nan,nan,nan,nan,nan,nan,nan,nan,164.89049099804834,630.2212574724108,nan,630.7434379020706,nan,nan,nan,nan
1,283,1,1,1.0,1.0,0.3460008455440402,0.0,2,5,8,1,7,4,nan,nan,nan,nan,nan,nan,nan,nan,nan,nan,nan,nan,0.0,nan,nan,nan,nan,nan,nan,nan,nan,nan,nan,nan,nan,nan,nan,nan,nan,nan,nan,164.89049099804834,631.2214017333463,nan,631.5674025788903,nan,nan,nan,nan
1,284,1,1,1.0,1.0,0.4018501345999539,0.0,4,0,3,7,8,1,nan,nan,nan,nan,nan,nan,nan,nan,nan,nan,nan,nan,0.0,nan,nan,nan,nan,nan,nan,nan,nan,nan,nan,nan,nan,nan,nan,nan,nan,nan,nan,164.89049099804834,632.2215434284881,nan,632.623393563088,nan,nan,nan,nan
1,285,1,1,1.0,1.0,0.39339147321879864,0.0,1,5,8,0,4,3,nan,nan,nan,nan,nan,nan,nan,nan,nan,nan,nan,nan,0.0,nan,nan,nan,nan,nan,nan,nan,nan,nan,nan,nan,nan,nan,nan,nan,nan,nan,nan,164.89049099804834,633.2300043706782,nan,633.623395843897,nan,nan,nan,nan
1,286,1,1,1.0,1.0,0.29723289562389255,0.0,6,7,1,5,2,8,nan,nan,nan,nan,nan,nan,nan,nan,nan,nan,nan,nan,0.0,nan,nan,nan,nan,nan,nan,nan,nan,nan,nan,nan,nan,nan,nan,nan,nan,nan,nan,164.89049099804834,634.2301688739099,nan,634.5274017695338,nan,nan,nan,nan
1,287,1,1,1.0,1.0,0.3607762046158314,0.0,5,0,4,7,8,1,nan,nan,nan,nan,nan,nan,nan,nan,nan,nan,nan,nan,0.0,nan,nan,nan,nan,nan,nan,nan,nan,nan,nan,nan,nan,nan,nan,nan,nan,nan,nan,164.89049099804834,635.2386201228946,nan,635.5993963275105,nan,nan,nan,nan
1,288,0,0,0.0,1.0,0.5125756622292101,0.0,0,5,2,3,1,6,nan,nan,nan,nan,nan,nan,nan,nan,nan,nan,nan,nan,0.0,nan,nan,nan,nan,nan,nan,nan,nan,nan,nan,nan,nan,nan,nan,nan,nan,nan,nan,164.89049099804834,636.2388062938116,nan,636.7513819560409,nan,nan,nan,nan
1,289,1,1,1.0,1.0,0.5844136998057365,0.0,3,4,8,1,7,5,nan,nan,nan,nan,nan,nan,nan,nan,nan,nan,nan,nan,0.0,nan,nan,nan,nan,nan,nan,nan,nan,nan,nan,nan,nan,nan,nan,nan,nan,nan,nan,164.89049099804834,637.2389442827553,nan,637.823357982561,nan,nan,nan,nan
1,290,1,1,1.0,1.0,0.4799997378140688,0.0,1,7,3,6,5,0,nan,nan,nan,nan,nan,nan,nan,nan,nan,nan,nan,nan,0.0,nan,nan,nan,nan,nan,nan,nan,nan,nan,nan,nan,nan,nan,nan,nan,nan,nan,nan,164.89049099804834,638.2473690169863,nan,638.7273687548004,nan,nan,nan,nan
1,291,1,1,1.0,1.0,0.5278151659294963,0.0,4,3,8,0,7,2,nan,nan,nan,nan,nan,nan,nan,nan,nan,nan,nan,nan,0.0,nan,nan,nan,nan,nan,nan,nan,nan,nan,nan,nan,nan,nan,nan,nan,nan,nan,nan,164.89049099804834,639.2475634557195,nan,639.775378621649,nan,nan,nan,nan
1,292,1,1,1.0,1.0,0.5276614963077009,0.0,6,5,7,8,0,4,nan,nan,nan,nan,nan,nan,nan,nan,nan,nan,nan,nan,0.0,nan,nan,nan,nan,nan,nan,nan,nan,nan,nan,nan,nan,nan,nan,nan,nan,nan,nan,164.89049099804834,640.2477068617009,nan,640.7753683580086,nan,nan,nan,nan
1,293,1,1,1.0,1.0,0.5431692795827985,0.0,2,4,0,6,1,7,nan,nan,nan,nan,nan,nan,nan,nan,nan,nan,nan,nan,0.0,nan,nan,nan,nan,nan,nan,nan,nan,nan,nan,nan,nan,nan,nan,nan,nan,nan,nan,164.89049099804834,641.2561740758829,nan,641.7993433554657,nan,nan,nan,nan
1,294,1,1,1.0,1.0,0.4789976077154279,0.0,4,2,8,1,5,0,nan,nan,nan,nan,nan,nan,nan,nan,nan,nan,nan,nan,0.0,nan,nan,nan,nan,nan,nan,nan,nan,nan,nan,nan,nan,nan,nan,nan,nan,nan,nan,164.89049099804834,642.256344281137,nan,642.7353418888524,nan,nan,nan,nan
1,295,1,1,1.0,1.0,0.5105500197969377,0.0,8,6,1,3,0,2,nan,nan,nan,nan,nan,nan,nan,nan,nan,nan,nan,nan,0.0,nan,nan,nan,nan,nan,nan,nan,nan,nan,nan,nan,nan,nan,nan,nan,nan,nan,nan,164.89049099804834,643.2648000917397,nan,643.7753501115367,nan,nan,nan,nan
1,296,1,1,1.0,1.0,0.4783840705640614,0.0,3,1,7,6,4,8,nan,nan,nan,nan,nan,nan,nan,nan,nan,nan,nan,nan,0.0,nan,nan,nan,nan,nan,nan,nan,nan,nan,nan,nan,nan,nan,nan,nan,nan,nan,nan,164.89049099804834,644.2649375102483,nan,644.7433215808123,nan,nan,nan,nan
1,297,1,1,1.0,1.0,0.493891853839159,0.0,5,3,1,4,6,2,nan,nan,nan,nan,nan,nan,nan,nan,nan,nan,nan,nan,0.0,nan,nan,nan,nan,nan,nan,nan,nan,nan,nan,nan,nan,nan,nan,nan,nan,nan,nan,164.89049099804834,645.2734326645732,nan,645.7673245184124,nan,nan,nan,nan
1,298,1,1,1.0,1.0,0.5254126195795834,0.0,8,2,5,1,0,3,nan,nan,nan,nan,nan,nan,nan,nan,nan,nan,nan,nan,0.0,nan,nan,nan,nan,nan,nan,nan,nan,nan,nan,nan,nan,nan,nan,nan,nan,nan,nan,164.89049099804834,646.2819055807777,nan,646.8073182003573,nan,nan,nan,nan
1,299,1,1,1.0,1.0,0.5572569747455418,0.0,3,0,1,4,7,2,nan,nan,nan,nan,nan,nan,nan,nan,nan,nan,nan,nan,0.0,nan,nan,nan,nan,nan,nan,nan,nan,nan,nan,nan,nan,nan,nan,nan,nan,nan,nan,164.89049099804834,647.2820541188121,nan,647.8393110935576,nan,nan,nan,nan
1,300,1,1,1.0,1.0,0.5971109573729336,0.0,0,7,4,5,2,1,nan,nan,nan,nan,nan,nan,nan,nan,nan,nan,nan,nan,0.0,nan,nan,nan,nan,nan,nan,nan,nan,nan,nan,nan,nan,nan,nan,nan,nan,nan,nan,164.89049099804834,648.2821846948937,nan,648.8792956522666,nan,nan,nan,nan
1,301,1,1,1.0,1.0,0.6289570238441229,0.0,2,0,6,8,4,3,nan,nan,nan,nan,nan,nan,nan,nan,nan,nan,nan,nan,0.0,nan,nan,nan,nan,nan,nan,nan,nan,nan,nan,nan,nan,nan,nan,nan,nan,nan,nan,164.89049099804834,649.2823457769118,nan,649.911302800756,nan,nan,nan,nan
1,302,1,1,1.0,1.0,0.5728129404596984,0.0,8,2,1,4,6,0,nan,nan,nan,nan,nan,nan,nan,nan,nan,nan,nan,nan,0.0,nan,nan,nan,nan,nan,nan,nan,nan,nan,nan,nan,nan,nan,nan,nan,nan,nan,nan,164.89049099804834,650.2824720768258,nan,650.8552850172855,nan,nan,nan,nan
1,303,1,1,nan,nan,nan,0.0,3,6,8,2,7,5,nan,nan,nan,nan,nan,nan,nan,nan,nan,nan,nan,nan,0.0,nan,nan,nan,nan,nan,nan,nan,nan,nan,nan,nan,nan,nan,nan,nan,nan,nan,nan,164.89049099804834,651.2826186185703,nan,nan,nan,nan,nan,nan
1,304,0,0,nan,nan,nan,0.0,0,3,6,8,4,7,nan,nan,nan,nan,nan,nan,nan,nan,nan,nan,nan,nan,0.0,nan,nan,nan,nan,nan,nan,nan,nan,nan,nan,nan,nan,nan,nan,nan,nan,nan,nan,164.89049099804834,652.2827628795058,nan,nan,nan,nan,nan,nan
1,305,1,1,1.0,1.0,0.724313042126596,0.0,5,1,3,7,8,6,nan,nan,nan,nan,nan,nan,nan,nan,nan,nan,nan,nan,0.0,nan,nan,nan,nan,nan,nan,nan,nan,nan,nan,nan,nan,nan,nan,nan,nan,nan,nan,164.89049099804834,653.2829159786925,nan,654.0072290208191,nan,nan,nan,nan
1,306,1,1,1.0,1.0,0.7561964560300112,0.0,0,4,2,8,6,3,nan,nan,nan,nan,nan,nan,nan,nan,nan,nan,nan,nan,0.0,nan,nan,nan,nan,nan,nan,nan,nan,nan,nan,nan,nan,nan,nan,nan,nan,nan,nan,164.89049099804834,654.2830679379404,nan,655.0392643939704,nan,nan,nan,nan
1,307,0,0,nan,nan,nan,1.0,7,3,4,2,0,5,1.0,1.0,1.0,1.0,1.0,1.0,1.0,0.0,1.0,1.0,0.0,0.0,3.0,7.0,6.0,4.0,2.0,1.0,8.0,4.0,3.0,2.0,1.0,6.0,5.0,4.284901992417872,3.2762357774190605,2.237616566941142,1.180487744975835,6.523562029004097,5.65972198639065,164.89049099804834,655.2832147646695,656.0916425781325,nan,663.6760577033274,664.6838771682233,657.1167594054714,663.6677264822647
1,308,1,1,nan,nan,nan,0.0,1,5,2,0,8,4,nan,nan,nan,nan,nan,nan,nan,nan,nan,nan,nan,nan,0.0,nan,nan,nan,nan,nan,nan,nan,nan,nan,nan,nan,nan,nan,nan,nan,nan,nan,nan,164.89049099804834,664.8845914034173,nan,nan,nan,nan,nan,nan
1,309,1,1,1.0,1.0,0.6904362016357481,0.0,4,1,6,5,7,3,nan,nan,nan,nan,nan,nan,nan,nan,nan,nan,nan,nan,0.0,nan,nan,nan,nan,nan,nan,nan,nan,nan,nan,nan,nan,nan,nan,nan,nan,nan,nan,164.89049099804834,665.8847259711474,nan,666.5751621727832,nan,nan,nan,nan
1,310,1,1,1.0,1.0,0.3862884668633342,0.0,5,3,0,1,8,7,nan,nan,nan,nan,nan,nan,nan,nan,nan,nan,nan,nan,0.0,nan,nan,nan,nan,nan,nan,nan,nan,nan,nan,nan,nan,nan,nan,nan,nan,nan,nan,164.89049099804834,666.8848856277764,nan,667.2711740946397,nan,nan,nan,nan
1,311,1,1,1.0,1.0,0.3221598453819752,0.0,0,1,5,6,7,3,nan,nan,nan,nan,nan,nan,nan,nan,nan,nan,nan,nan,0.0,nan,nan,nan,nan,nan,nan,nan,nan,nan,nan,nan,nan,nan,nan,nan,nan,nan,nan,164.89049099804834,667.8850176292472,nan,668.2071774746291,nan,nan,nan,nan
1,312,0,0,1.0,0.0,0.28165497723966837,0.0,2,0,3,8,4,7,nan,nan,nan,nan,nan,nan,nan,nan,nan,nan,nan,nan,0.0,nan,nan,nan,nan,nan,nan,nan,nan,nan,nan,nan,nan,nan,nan,nan,nan,nan,nan,164.89049099804834,668.8935164897703,nan,669.1751714670099,nan,nan,nan,nan
1,313,1,1,1.0,1.0,0.3535429071635008,0.0,8,2,4,5,0,1,nan,nan,nan,nan,nan,nan,nan,nan,nan,nan,nan,nan,0.0,nan,nan,nan,nan,nan,nan,nan,nan,nan,nan,nan,nan,nan,nan,nan,nan,nan,nan,164.89049099804834,669.8936319560744,nan,670.2471748632379,nan,nan,nan,nan
1,314,1,1,1.0,1.0,0.3693417785689235,0.0,5,6,1,2,7,8,nan,nan,nan,nan,nan,nan,nan,nan,nan,nan,nan,nan,0.0,nan,nan,nan,nan,nan,nan,nan,nan,nan,nan,nan,nan,nan,nan,nan,nan,nan,nan,164.89049099804834,670.8938044421375,nan,671.2631462207064,nan,nan,nan,nan
1,315,1,1,1.0,1.0,0.33718751836568117,0.0,4,2,5,1,8,0,nan,nan,nan,nan,nan,nan,nan,nan,nan,nan,nan,nan,0.0,nan,nan,nan,nan,nan,nan,nan,nan,nan,nan,nan,nan,nan,nan,nan,nan,nan,nan,164.89049099804834,671.893949273508,nan,672.2311367918737,nan,nan,nan,nan
1,316,1,1,1.0,1.0,0.4250348322093487,0.0,6,0,7,5,3,1,nan,nan,nan,nan,nan,nan,nan,nan,nan,nan,nan,nan,0.0,nan,nan,nan,nan,nan,nan,nan,nan,nan,nan,nan,nan,nan,nan,nan,nan,nan,nan,164.89049099804834,672.8940949598327,nan,673.3191297920421,nan,nan,nan,nan
1,317,1,1,1.0,1.0,0.4888877612538636,0.0,4,8,1,6,5,0,nan,nan,nan,nan,nan,nan,nan,nan,nan,nan,nan,nan,0.0,nan,nan,nan,nan,nan,nan,nan,nan,nan,nan,nan,nan,nan,nan,nan,nan,nan,nan,164.89049099804834,673.8942352295853,nan,674.3831229908392,nan,nan,nan,nan
1,318,1,1,0.0,0.0,0.5047345296479762,0.0,8,2,4,0,7,6,nan,nan,nan,nan,nan,nan,nan,nan,nan,nan,nan,nan,0.0,nan,nan,nan,nan,nan,nan,nan,nan,nan,nan,nan,nan,nan,nan,nan,nan,nan,nan,164.89049099804834,674.8943812013604,nan,675.3991157310084,nan,nan,nan,nan
1,319,1,1,1.0,1.0,0.5525816036388278,0.0,6,4,2,5,3,8,nan,nan,nan,nan,nan,nan,nan,nan,nan,nan,nan,nan,0.0,nan,nan,nan,nan,nan,nan,nan,nan,nan,nan,nan,nan,nan,nan,nan,nan,nan,nan,164.89049099804834,675.8945285985246,nan,676.4471102021635,nan,nan,nan,nan
1,320,1,1,1.0,1.0,0.5764342932961881,0.0,0,3,6,1,8,7,nan,nan,nan,nan,nan,nan,nan,nan,nan,nan,nan,nan,0.0,nan,nan,nan,nan,nan,nan,nan,nan,nan,nan,nan,nan,nan,nan,nan,nan,nan,nan,164.89049099804834,676.8946825531311,nan,677.4711168464273,nan,nan,nan,nan
1,321,0,0,0.0,1.0,0.6882916721515357,0.0,7,5,1,2,3,0,nan,nan,nan,nan,nan,nan,nan,nan,nan,nan,nan,nan,0.0,nan,nan,nan,nan,nan,nan,nan,nan,nan,nan,nan,nan,nan,nan,nan,nan,nan,nan,164.89049099804834,677.894803150557,nan,678.5830948227085,nan,nan,nan,nan
1,322,1,1,1.0,1.0,0.4881410812959075,0.0,5,2,4,7,0,3,nan,nan,nan,nan,nan,nan,nan,nan,nan,nan,nan,nan,0.0,nan,nan,nan,nan,nan,nan,nan,nan,nan,nan,nan,nan,nan,nan,nan,nan,nan,nan,164.89049099804834,678.8949642330408,nan,679.3831053143367,nan,nan,nan,nan
1,323,1,1,1.0,1.0,0.39999840361997485,0.0,1,7,0,5,8,2,nan,nan,nan,nan,nan,nan,nan,nan,nan,nan,nan,nan,0.0,nan,nan,nan,nan,nan,nan,nan,nan,nan,nan,nan,nan,nan,nan,nan,nan,nan,nan,164.89049099804834,679.8951030769385,nan,680.2951014805585,nan,nan,nan,nan
1,324,1,1,1.0,1.0,0.42382942512631416,0.0,6,4,7,8,3,0,nan,nan,nan,nan,nan,nan,nan,nan,nan,nan,nan,nan,0.0,nan,nan,nan,nan,nan,nan,nan,nan,nan,nan,nan,nan,nan,nan,nan,nan,nan,nan,164.89049099804834,680.8952510445379,nan,681.3190804696642,nan,nan,nan,nan
1,325,1,1,1.0,1.0,0.4476841101422906,0.0,2,5,4,0,6,7,nan,nan,nan,nan,nan,nan,nan,nan,nan,nan,nan,nan,0.0,nan,nan,nan,nan,nan,nan,nan,nan,nan,nan,nan,nan,nan,nan,nan,nan,nan,nan,164.89049099804834,681.8953970163129,nan,682.3430811264552,nan,nan,nan,nan
1,326,1,1,1.0,1.0,0.39153061900287867,0.0,5,6,3,4,8,1,nan,nan,nan,nan,nan,nan,nan,nan,nan,nan,nan,nan,0.0,nan,nan,nan,nan,nan,nan,nan,nan,nan,nan,nan,nan,nan,nan,nan,nan,nan,nan,164.89049099804834,682.8955370006151,nan,683.287067619618,nan,nan,nan,nan
1,327,1,1,1.0,1.0,0.5273840925656259,0.0,1,3,8,6,7,2,nan,nan,nan,nan,nan,nan,nan,nan,nan,nan,nan,nan,0.0,nan,nan,nan,nan,nan,nan,nan,nan,nan,nan,nan,nan,nan,nan,nan,nan,nan,nan,164.89049099804834,683.8956801216118,nan,684.4230642141774,nan,nan,nan,nan
1,328,1,1,1.0,1.0,0.5192233622074127,0.0,7,8,3,4,2,5,nan,nan,nan,nan,nan,nan,nan,nan,nan,nan,nan,nan,0.0,nan,nan,nan,nan,nan,nan,nan,nan,nan,nan,nan,nan,nan,nan,nan,nan,nan,nan,164.89049099804834,684.8958235271275,nan,685.4150468893349,nan,nan,nan,nan
1,329,1,1,1.0,1.0,0.4870924800634384,0.0,4,7,8,0,6,3,nan,nan,nan,nan,nan,nan,nan,nan,nan,nan,nan,nan,0.0,nan,nan,nan,nan,nan,nan,nan,nan,nan,nan,nan,nan,nan,nan,nan,nan,nan,nan,164.89049099804834,685.8959603756666,nan,686.38305285573,nan,nan,nan,nan
1,330,1,1,1.0,1.0,0.5749295302666724,0.0,3,1,6,2,7,4,nan,nan,nan,nan,nan,nan,nan,nan,nan,nan,nan,nan,0.0,nan,nan,nan,nan,nan,nan,nan,nan,nan,nan,nan,nan,nan,nan,nan,nan,nan,nan,164.89049099804834,686.8961166110821,nan,687.4710461413488,nan,nan,nan,nan
1,331,1,1,1.0,1.0,0.5827843477018178,0.0,8,3,4,7,0,5,nan,nan,nan,nan,nan,nan,nan,nan,nan,nan,nan,nan,0.0,nan,nan,nan,nan,nan,nan,nan,nan,nan,nan,nan,nan,nan,nan,nan,nan,nan,nan,164.89049099804834,687.8962591616437,nan,688.4790435093455,nan,nan,nan,nan
1,332,1,1,1.0,1.0,0.6066427393816411,0.0,5,4,0,1,7,6,nan,nan,nan,nan,nan,nan,nan,nan,nan,nan,nan,nan,0.0,nan,nan,nan,nan,nan,nan,nan,nan,nan,nan,nan,nan,nan,nan,nan,nan,nan,nan,164.89049099804834,688.8963911631145,nan,689.5030339024961,nan,nan,nan,nan
1,333,1,1,1.0,1.0,0.6464790455065668,0.0,7,6,4,5,0,2,nan,nan,nan,nan,nan,nan,nan,nan,nan,nan,nan,nan,0.0,nan,nan,nan,nan,nan,nan,nan,nan,nan,nan,nan,nan,nan,nan,nan,nan,nan,nan,164.89049099804834,689.8965488239191,nan,690.5430278694257,nan,nan,nan,nan
1,334,1,1,1.0,1.0,0.7263081786222756,0.0,3,7,1,2,6,4,nan,nan,nan,nan,nan,nan,nan,nan,nan,nan,nan,nan,0.0,nan,nan,nan,nan,nan,nan,nan,nan,nan,nan,nan,nan,nan,nan,nan,nan,nan,nan,164.89049099804834,690.8966965065338,nan,691.623004685156,nan,nan,nan,nan
1,335,1,1,1.0,1.0,0.6941730203106999,0.0,7,8,0,3,1,5,nan,nan,nan,nan,nan,nan,nan,nan,nan,nan,nan,nan,0.0,nan,nan,nan,nan,nan,nan,nan,nan,nan,nan,nan,nan,nan,nan,nan,nan,nan,nan,164.89049099804834,691.896841622889,nan,692.5910146431997,nan,nan,nan,nan
1,336,1,1,1.0,1.0,0.7340153139084578,0.0,8,0,2,4,6,7,nan,nan,nan,nan,nan,nan,nan,nan,nan,nan,nan,nan,0.0,nan,nan,nan,nan,nan,nan,nan,nan,nan,nan,nan,nan,nan,nan,nan,nan,nan,nan,164.89049099804834,692.8969844584353,nan,693.6309997723438,nan,nan,nan,nan
1,337,1,1,1.0,1.0,0.7658579587005079,0.0,6,4,7,3,0,8,nan,nan,nan,nan,nan,nan,nan,nan,nan,nan,nan,nan,0.0,nan,nan,nan,nan,nan,nan,nan,nan,nan,nan,nan,nan,nan,nan,nan,nan,nan,nan,164.89049099804834,693.8971347068436,nan,694.6629926655442,nan,nan,nan,nan
1,338,1,1,1.0,1.0,0.5813998971134424,0.0,7,5,4,0,6,1,nan,nan,nan,nan,nan,nan,nan,nan,nan,nan,nan,nan,0.0,nan,nan,nan,nan,nan,nan,nan,nan,nan,nan,nan,nan,nan,nan,nan,nan,nan,nan,164.89049099804834,694.9055848149583,nan,695.4869847120717,nan,nan,nan,nan
1,339,1,1,1.0,1.0,0.46123553114011884,0.0,5,8,6,3,7,4,nan,nan,nan,nan,nan,nan,nan,nan,nan,nan,nan,nan,0.0,nan,nan,nan,nan,nan,nan,nan,nan,nan,nan,nan,nan,nan,nan,nan,nan,nan,nan,164.89049099804834,695.9057473223656,nan,696.3669828535058,nan,nan,nan,nan
1,340,1,1,1.0,1.0,0.3170790607109666,0.0,2,1,7,6,3,5,nan,nan,nan,nan,nan,nan,nan,nan,nan,nan,nan,nan,0.0,nan,nan,nan,nan,nan,nan,nan,nan,nan,nan,nan,nan,nan,nan,nan,nan,nan,nan,164.89049099804834,696.9058978557587,nan,697.2229769164696,nan,nan,nan,nan
1,341,1,1,1.0,1.0,0.3089208952151239,0.0,4,8,2,7,5,1,nan,nan,nan,nan,nan,nan,nan,nan,nan,nan,nan,nan,0.0,nan,nan,nan,nan,nan,nan,nan,nan,nan,nan,nan,nan,nan,nan,nan,nan,nan,nan,164.89049099804834,697.9060421171598,nan,698.2149630123749,nan,nan,nan,nan
1,342,1,1,1.0,1.0,0.3327844189479947,0.0,2,3,8,4,0,5,nan,nan,nan,nan,nan,nan,nan,nan,nan,nan,nan,nan,0.0,nan,nan,nan,nan,nan,nan,nan,nan,nan,nan,nan,nan,nan,nan,nan,nan,nan,nan,164.89049099804834,698.9061795356683,nan,699.2389639546163,nan,nan,nan,nan
1,343,1,1,1.0,1.0,0.32462197728455067,0.0,0,6,2,5,8,1,nan,nan,nan,nan,nan,nan,nan,nan,nan,nan,nan,nan,0.0,nan,nan,nan,nan,nan,nan,nan,nan,nan,nan,nan,nan,nan,nan,nan,nan,nan,nan,164.89049099804834,699.9063277882524,nan,700.2309497655369,nan,nan,nan,nan
1,344,1,1,1.0,1.0,0.30848782742395997,0.0,4,0,5,6,2,3,nan,nan,nan,nan,nan,nan,nan,nan,nan,nan,nan,nan,0.0,nan,nan,nan,nan,nan,nan,nan,nan,nan,nan,nan,nan,nan,nan,nan,nan,nan,nan,164.89049099804834,700.9064617855474,nan,701.2149496129714,nan,nan,nan,nan
1,345,1,1,1.0,1.0,0.38835373846814036,0.0,0,1,7,4,8,6,nan,nan,nan,nan,nan,nan,nan,nan,nan,nan,nan,nan,0.0,nan,nan,nan,nan,nan,nan,nan,nan,nan,nan,nan,nan,nan,nan,nan,nan,nan,nan,164.89049099804834,701.9065869450569,nan,702.294940683525,nan,nan,nan,nan
1,346,1,1,1.0,1.0,0.5641886354424059,0.0,3,0,6,7,1,4,nan,nan,nan,nan,nan,nan,nan,nan,nan,nan,nan,nan,0.0,nan,nan,nan,nan,nan,nan,nan,nan,nan,nan,nan,nan,nan,nan,nan,nan,nan,nan,164.89049099804834,702.9067523037083,nan,703.4709409391508,nan,nan,nan,nan
1,347,0,0,0.0,1.0,0.7080366262234747,1.0,4,6,0,8,3,1,1.0,1.0,1.0,1.0,1.0,1.0,0.0,1.0,1.0,1.0,0.0,1.0,4.0,5.0,6.0,0.0,8.0,8.0,1.0,5.0,4.0,1.0,2.0,3.0,6.0,7.540687760338187,4.605718441307545,1.3418323840014637,2.1893002167344093,3.2453550631180406,8.564495688769966,164.89049099804834,703.9068914330564,704.7153853895143,704.6149280592799,714.3250410761684,715.3211742513813,705.7238135454245,714.3167095696554
1,348,1,1,1.0,1.0,0.5135971792042255,0.0,5,8,2,0,4,3,nan,nan,nan,nan,nan,nan,nan,nan,nan,nan,nan,nan,0.0,nan,nan,nan,nan,nan,nan,nan,nan,nan,nan,nan,nan,nan,nan,nan,nan,nan,nan,164.89049099804834,715.5252606607974,nan,716.0388578400016,nan,nan,nan,nan
1,349,1,1,1.0,1.0,0.33744639065116644,0.0,0,6,1,5,3,7,nan,nan,nan,nan,nan,nan,nan,nan,nan,nan,nan,nan,0.0,nan,nan,nan,nan,nan,nan,nan,nan,nan,nan,nan,nan,nan,nan,nan,nan,nan,nan,164.89049099804834,716.5253955135122,nan,716.8628419041634,nan,nan,nan,nan
1,350,1,1,1.0,1.0,0.2652884693816304,0.0,4,3,7,2,1,8,nan,nan,nan,nan,nan,nan,nan,nan,nan,nan,nan,nan,0.0,nan,nan,nan,nan,nan,nan,nan,nan,nan,nan,nan,nan,nan,nan,nan,nan,nan,nan,164.89049099804834,717.5255466173403,nan,717.7908350867219,nan,nan,nan,nan
1,351,1,1,1.0,1.0,0.4011579090729356,0.0,3,7,0,1,6,4,nan,nan,nan,nan,nan,nan,nan,nan,nan,nan,nan,nan,0.0,nan,nan,nan,nan,nan,nan,nan,nan,nan,nan,nan,nan,nan,nan,nan,nan,nan,nan,164.89049099804834,718.5256760530174,nan,718.9268339620903,nan,nan,nan,nan
1,352,1,1,1.0,1.0,0.4089907738380134,0.0,1,5,7,3,4,0,nan,nan,nan,nan,nan,nan,nan,nan,nan,nan,nan,nan,0.0,nan,nan,nan,nan,nan,nan,nan,nan,nan,nan,nan,nan,nan,nan,nan,nan,nan,nan,164.89049099804834,719.5258274418302,nan,719.9348182156682,nan,nan,nan,nan
1,353,0,0,0.0,1.0,0.5528350584208965,0.0,5,7,3,0,2,6,nan,nan,nan,nan,nan,nan,nan,nan,nan,nan,nan,nan,0.0,nan,nan,nan,nan,nan,nan,nan,nan,nan,nan,nan,nan,nan,nan,nan,nan,nan,nan,164.89049099804834,720.5259788301773,nan,721.0788138885982,nan,nan,nan,nan
1,354,1,1,1.0,1.0,0.456701569724828,0.0,0,4,8,7,5,1,nan,nan,nan,nan,nan,nan,nan,nan,nan,nan,nan,nan,0.0,nan,nan,nan,nan,nan,nan,nan,nan,nan,nan,nan,nan,nan,nan,nan,nan,nan,nan,164.89049099804834,721.526112827938,nan,721.9828143976629,nan,nan,nan,nan
1,355,1,1,1.0,1.0,0.39252733206376433,0.0,4,7,5,6,0,3,nan,nan,nan,nan,nan,nan,nan,nan,nan,nan,nan,nan,0.0,nan,nan,nan,nan,nan,nan,nan,nan,nan,nan,nan,nan,nan,nan,nan,nan,nan,nan,164.89049099804834,722.526269633323,nan,722.9187969653867,nan,nan,nan,nan
1,356,1,1,1.0,1.0,0.44039550377056,0.0,7,5,8,3,1,4,nan,nan,nan,nan,nan,nan,nan,nan,nan,nan,nan,nan,0.0,nan,nan,nan,nan,nan,nan,nan,nan,nan,nan,nan,nan,nan,nan,nan,nan,nan,nan,164.89049099804834,723.526399069,nan,723.9667945727706,nan,nan,nan,nan
1,357,1,1,1.0,1.0,0.431897213216871,0.0,3,0,4,7,2,5,nan,nan,nan,nan,nan,nan,nan,nan,nan,nan,nan,nan,0.0,nan,nan,nan,nan,nan,nan,nan,nan,nan,nan,nan,nan,nan,nan,nan,nan,nan,nan,164.89049099804834,724.5348865254782,nan,724.9667837386951,nan,nan,nan,nan
1,358,1,1,1.0,1.0,0.47176117449998856,0.0,6,7,3,0,5,1,nan,nan,nan,nan,nan,nan,nan,nan,nan,nan,nan,nan,0.0,nan,nan,nan,nan,nan,nan,nan,nan,nan,nan,nan,nan,nan,nan,nan,nan,nan,nan,164.89049099804834,725.5350279356353,nan,726.0067891101353,nan,nan,nan,nan
1,359,1,1,1.0,1.0,0.5755943856202066,0.0,5,2,1,8,4,7,nan,nan,nan,nan,nan,nan,nan,nan,nan,nan,nan,nan,0.0,nan,nan,nan,nan,nan,nan,nan,nan,nan,nan,nan,nan,nan,nan,nan,nan,nan,nan,164.89049099804834,726.5351807498373,nan,727.1107751354575,nan,nan,nan,nan
1,360,1,1,1.0,1.0,0.5354524510912597,0.0,4,8,7,0,3,2,nan,nan,nan,nan,nan,nan,nan,nan,nan,nan,nan,nan,0.0,nan,nan,nan,nan,nan,nan,nan,nan,nan,nan,nan,nan,nan,nan,nan,nan,nan,nan,164.89049099804834,727.5353244408034,nan,728.0707768918946,nan,nan,nan,nan
1,361,1,1,1.0,1.0,0.5672862576320767,0.0,6,4,0,5,8,7,nan,nan,nan,nan,nan,nan,nan,nan,nan,nan,nan,nan,0.0,nan,nan,nan,nan,nan,nan,nan,nan,nan,nan,nan,nan,nan,nan,nan,nan,nan,nan,164.89049099804834,728.5354684167542,nan,729.1027546743862,nan,nan,nan,nan
1,362,1,1,1.0,1.0,0.5911460747011006,0.0,0,5,4,7,6,1,nan,nan,nan,nan,nan,nan,nan,nan,nan,nan,nan,nan,0.0,nan,nan,nan,nan,nan,nan,nan,nan,nan,nan,nan,nan,nan,nan,nan,nan,nan,nan,164.89049099804834,729.535615243949,nan,730.1267613186501,nan,nan,nan,nan
1,363,1,1,1.0,1.0,0.662984112277627,0.0,5,2,8,0,1,3,nan,nan,nan,nan,nan,nan,nan,nan,nan,nan,nan,nan,0.0,nan,nan,nan,nan,nan,nan,nan,nan,nan,nan,nan,nan,nan,nan,nan,nan,nan,nan,164.89049099804834,730.5357546582818,nan,731.1987387705594,nan,nan,nan,nan
1,364,0,0,0.0,1.0,0.7348261415027082,1.0,8,3,1,4,0,6,1.0,1.0,1.0,1.0,1.0,1.0,0.0,0.0,1.0,1.0,1.0,0.0,3.0,7.0,2.0,1.0,4.0,0.0,8.0,5.0,4.0,1.0,2.0,3.0,6.0,6.630885446909815,5.287049943115562,1.1452874662354589,2.0085228090174496,2.9352407352998853,7.72650204738602,164.89049099804834,731.5359026254155,732.344320745673,732.2707287669182,741.1372601627372,742.1373941600323,733.3694495470263,741.1289240946062
1,365,1,1,1.0,1.0,0.7012252788990736,0.0,3,1,4,7,2,5,nan,nan,nan,nan,nan,nan,nan,nan,nan,nan,nan,nan,0.0,nan,nan,nan,nan,nan,nan,nan,nan,nan,nan,nan,nan,nan,nan,nan,nan,nan,nan,164.89049099804834,742.3374666324817,nan,743.0386919113807,nan,nan,nan,nan
1,366,1,1,1.0,1.0,0.5730632590129972,0.0,7,0,2,5,3,6,nan,nan,nan,nan,nan,nan,nan,nan,nan,nan,nan,nan,0.0,nan,nan,nan,nan,nan,nan,nan,nan,nan,nan,nan,nan,nan,nan,nan,nan,nan,nan,164.89049099804834,743.3376003452577,nan,743.9106636042707,nan,nan,nan,nan
1,367,1,1,1.0,1.0,0.5649261916987598,0.0,1,4,8,6,7,3,nan,nan,nan,nan,nan,nan,nan,nan,nan,nan,nan,nan,0.0,nan,nan,nan,nan,nan,nan,nan,nan,nan,nan,nan,nan,nan,nan,nan,nan,nan,nan,164.89049099804834,744.3377448911779,nan,744.9026710828766,nan,nan,nan,nan
1,368,1,1,1.0,1.0,0.6127664232626557,0.0,2,8,3,4,5,1,nan,nan,nan,nan,nan,nan,nan,nan,nan,nan,nan,nan,0.0,nan,nan,nan,nan,nan,nan,nan,nan,nan,nan,nan,nan,nan,nan,nan,nan,nan,nan,164.89049099804834,745.3378888671286,nan,745.9506552903913,nan,nan,nan,nan
1,369,1,1,1.0,1.0,0.6285895286127925,0.0,1,6,4,8,3,7,nan,nan,nan,nan,nan,nan,nan,nan,nan,nan,nan,nan,0.0,nan,nan,nan,nan,nan,nan,nan,nan,nan,nan,nan,nan,nan,nan,nan,nan,nan,nan,164.89049099804834,746.3380713318475,nan,746.9666608604603,nan,nan,nan,nan
1,370,1,1,1.0,1.0,0.6364854006096721,0.0,0,2,3,5,8,1,nan,nan,nan,nan,nan,nan,nan,nan,nan,nan,nan,nan,0.0,nan,nan,nan,nan,nan,nan,nan,nan,nan,nan,nan,nan,nan,nan,nan,nan,nan,nan,164.89049099804834,747.3381785298698,nan,747.9746639304794,nan,nan,nan,nan
1,371,1,1,1.0,1.0,0.6203213143162429,0.0,1,7,2,6,5,4,nan,nan,nan,nan,nan,nan,nan,nan,nan,nan,nan,nan,0.0,nan,nan,nan,nan,nan,nan,nan,nan,nan,nan,nan,nan,nan,nan,nan,nan,nan,nan,164.89049099804834,748.3383219358511,nan,748.9586432501674,nan,nan,nan,nan
1,372,1,1,1.0,1.0,0.6361575340852141,0.0,0,6,5,8,3,2,nan,nan,nan,nan,nan,nan,nan,nan,nan,nan,nan,nan,0.0,nan,nan,nan,nan,nan,nan,nan,nan,nan,nan,nan,nan,nan,nan,nan,nan,nan,nan,164.89049099804834,749.3384661967866,nan,749.9746237308718,nan,nan,nan,nan
1,373,1,1,1.0,1.0,0.5720089552924037,0.0,3,4,1,6,5,0,nan,nan,nan,nan,nan,nan,nan,nan,nan,nan,nan,nan,0.0,nan,nan,nan,nan,nan,nan,nan,nan,nan,nan,nan,nan,nan,nan,nan,nan,nan,nan,164.89049099804834,750.3386153047904,nan,750.9106242600828,nan,nan,nan,nan
1,374,1,1,1.0,1.0,0.5638479399494827,0.0,0,6,2,3,7,4,nan,nan,nan,nan,nan,nan,nan,nan,nan,nan,nan,nan,0.0,nan,nan,nan,nan,nan,nan,nan,nan,nan,nan,nan,nan,nan,nan,nan,nan,nan,nan,164.89049099804834,751.3387587103061,nan,751.9026066502556,nan,nan,nan,nan
1,375,1,1,1.0,1.0,0.6437055831775069,0.0,7,5,4,1,3,8,nan,nan,nan,nan,nan,nan,nan,nan,nan,nan,nan,nan,0.0,nan,nan,nan,nan,nan,nan,nan,nan,nan,nan,nan,nan,nan,nan,nan,nan,nan,nan,164.89049099804834,752.3389061074704,nan,752.9826116906479,nan,nan,nan,nan
1,376,0,0,0.0,1.0,0.6595600489526987,0.0,6,4,2,7,1,0,nan,nan,nan,nan,nan,nan,nan,nan,nan,nan,nan,nan,0.0,nan,nan,nan,nan,nan,nan,nan,nan,nan,nan,nan,nan,nan,nan,nan,nan,nan,nan,164.89049099804834,753.3390469476581,nan,753.9986069966108,nan,nan,nan,nan
1,377,1,1,1.0,1.0,0.6513958969153464,0.0,5,8,3,1,4,2,nan,nan,nan,nan,nan,nan,nan,nan,nan,nan,nan,nan,0.0,nan,nan,nan,nan,nan,nan,nan,nan,nan,nan,nan,nan,nan,nan,nan,nan,nan,nan,164.89049099804834,754.3391954852268,nan,754.9905913821422,nan,nan,nan,nan
1,378,1,1,1.0,1.0,0.7392503381706774,0.0,6,5,2,8,3,7,nan,nan,nan,nan,nan,nan,nan,nan,nan,nan,nan,nan,0.0,nan,nan,nan,nan,nan,nan,nan,nan,nan,nan,nan,nan,nan,nan,nan,nan,nan,nan,164.89049099804834,755.3393414570019,nan,756.0785917951725,nan,nan,nan,nan
1,379,1,1,1.0,1.0,0.6510954005643725,0.0,0,1,4,3,2,5,nan,nan,nan,nan,nan,nan,nan,nan,nan,nan,nan,nan,0.0,nan,nan,nan,nan,nan,nan,nan,nan,nan,nan,nan,nan,nan,nan,nan,nan,nan,nan,164.89049099804834,756.3394877137616,nan,756.990583114326,nan,nan,nan,nan
1,380,1,1,1.0,1.0,0.4109434303827584,0.0,8,6,7,5,1,2,nan,nan,nan,nan,nan,nan,nan,nan,nan,nan,nan,nan,0.0,nan,nan,nan,nan,nan,nan,nan,nan,nan,nan,nan,nan,nan,nan,nan,nan,nan,nan,164.89049099804834,757.3396348259412,nan,757.7505782563239,nan,nan,nan,nan
1,381,1,1,1.0,1.0,0.4027932481840253,0.0,4,7,6,0,8,5,nan,nan,nan,nan,nan,nan,nan,nan,nan,nan,nan,nan,0.0,nan,nan,nan,nan,nan,nan,nan,nan,nan,nan,nan,nan,nan,nan,nan,nan,nan,nan,164.89049099804834,758.339767397847,nan,758.742560646031,nan,nan,nan,nan
1,382,1,1,1.0,1.0,0.4586476688273251,0.0,5,4,0,1,3,2,nan,nan,nan,nan,nan,nan,nan,nan,nan,nan,nan,nan,0.0,nan,nan,nan,nan,nan,nan,nan,nan,nan,nan,nan,nan,nan,nan,nan,nan,nan,nan,164.89049099804834,759.3399136546068,nan,759.7985613234341,nan,nan,nan,nan
