block,trial,freq_trials,correct_response,actual_response,acc,rts,probe_trials,trials_colorind0,trials_colorind1,trials_colorind2,trials_colorind3,trials_colorind4,trials_colorind5,wholereport_resp0,wholereport_resp1,wholereport_resp2,wholereport_resp3,wholereport_resp4,wholereport_resp5,wholereport_respacc0,wholereport_respacc1,wholereport_respacc2,wholereport_respacc3,wholereport_respacc4,wholereport_respacc5,wholereport_respacc_total,wholereport_respcolorind0,wholereport_respcolorind1,wholereport_respcolorind2,wholereport_respcolorind3,wholereport_respcolorind4,wholereport_respcolorind5,wholereport_resporder0,wholereport_resporder1,wholereport_resporder2,wholereport_resporder3,wholereport_resporder4,wholereport_resporder5,wholereport_rts0,wholereport_rts1,wholereport_rts2,wholereport_rts3,wholereport_rts4,wholereport_rts5,time_blockstart,time_encarray_offset,time_encarray_onset,time_response,time_iti_offset,time_iti_onset,time_memprobe_offset,time_memprobe_onset
1,1,1,1,0.0,0.0,0.273594354162924,0,3,8,7,1,5,6,nan,nan,nan,nan,nan,nan,nan,nan,nan,nan,nan,nan,0.0,nan,nan,nan,nan,nan,nan,nan,nan,nan,nan,nan,nan,nan,nan,nan,nan,nan,nan,214.90023968042806,215.91460055019706,nan,216.18819490436,nan,nan,nan,nan
1,2,1,1,1.0,1.0,0.3854584362125024,0,3,4,7,8,5,2,nan,nan,nan,nan,nan,nan,nan,nan,nan,nan,nan,nan,0.0,nan,nan,nan,nan,nan,nan,nan,nan,nan,nan,nan,nan,nan,nan,nan,nan,nan,nan,214.90023968042806,216.91474965552334,nan,217.30020809173584,nan,nan,nan,nan
1,3,1,1,1.0,1.0,0.3452524484600872,0,8,6,0,7,3,1,nan,nan,nan,nan,nan,nan,nan,nan,nan,nan,nan,nan,0.0,nan,nan,nan,nan,nan,nan,nan,nan,nan,nan,nan,nan,nan,nan,nan,nan,nan,nan,214.90023968042806,217.91486882581376,nan,218.26012127427384,nan,nan,nan,nan
1,4,1,1,1.0,1.0,0.361126039060764,0,7,4,1,2,5,8,nan,nan,nan,nan,nan,nan,nan,nan,nan,nan,nan,nan,0.0,nan,nan,nan,nan,nan,nan,nan,nan,nan,nan,nan,nan,nan,nan,nan,nan,nan,nan,214.90023968042806,218.9149897065945,nan,219.27611574565526,nan,nan,nan,nan
1,5,1,1,1.0,1.0,0.2809880410786718,0,2,3,5,1,4,0,nan,nan,nan,nan,nan,nan,nan,nan,nan,nan,nan,nan,0.0,nan,nan,nan,nan,nan,nan,nan,nan,nan,nan,nan,nan,nan,nan,nan,nan,nan,nan,214.90023968042806,219.9151305441046,nan,220.19611858518329,nan,nan,nan,nan
1,6,1,1,nan,nan,nan,0,5,8,7,0,1,6,nan,nan,nan,nan,nan,nan,nan,nan,nan,nan,nan,nan,0.0,nan,nan,nan,nan,nan,nan,nan,nan,nan,nan,nan,nan,nan,nan,nan,nan,nan,nan,214.90023968042806,220.9152468633838,nan,nan,nan,nan,nan,nan
1,7,1,1,1.0,1.0,0.560634704073891,0,8,7,6,1,5,3,nan,nan,nan,nan,nan,nan,nan,nan,nan,nan,nan,nan,0.0,nan,nan,nan,nan,nan,nan,nan,nan,nan,nan,nan,nan,nan,nan,nan,nan,nan,nan,214.90023968042806,221.9153745865915,nan,222.4760092906654,nan,nan,nan,nan
1,8,0,0,nan,nan,nan,0,5,6,0,7,4,1,nan,nan,nan,nan,nan,nan,nan,nan,nan,nan,nan,nan,0.0,nan,nan,nan,nan,nan,nan,nan,nan,nan,nan,nan,nan,nan,nan,nan,nan,nan,nan,214.90023968042806,222.91550402028952,nan,nan,nan,nan,nan,nan
1,9,1,1,1.0,1.0,0.5923428271198645,0,4,8,3,5,2,7,nan,nan,nan,nan,nan,nan,nan,nan,nan,nan,nan,nan,0.0,nan,nan,nan,nan,nan,nan,nan,nan,nan,nan,nan,nan,nan,nan,nan,nan,nan,nan,214.90023968042806,223.91562376066577,nan,224.50796658778563,nan,nan,nan,nan
1,10,1,1,1.0,1.0,0.5682259628083557,0,3,7,2,1,8,6,nan,nan,nan,nan,nan,nan,nan,nan,nan,nan,nan,nan,0.0,nan,nan,nan,nan,nan,nan,nan,nan,nan,nan,nan,nan,nan,nan,nan,nan,nan,nan,214.90023968042806,224.91576687898487,nan,225.48399284179322,nan,nan,nan,nan
1,11,1,1,1.0,1.0,0.40006163786165416,0,2,6,8,0,5,3,nan,nan,nan,nan,nan,nan,nan,nan,nan,nan,nan,nan,0.0,nan,nan,nan,nan,nan,nan,nan,nan,nan,nan,nan,nan,nan,nan,nan,nan,nan,nan,214.90023968042806,225.9158863343764,nan,226.31594797223806,nan,nan,nan,nan
1,12,1,1,1.0,1.0,0.3839556938037276,0,5,1,4,7,3,6,nan,nan,nan,nan,nan,nan,nan,nan,nan,nan,nan,nan,0.0,nan,nan,nan,nan,nan,nan,nan,nan,nan,nan,nan,nan,nan,nan,nan,nan,nan,nan,214.90023968042806,226.91601434256881,nan,227.29997003637254,nan,nan,nan,nan
1,13,0,0,nan,nan,nan,0,3,2,8,1,6,4,nan,nan,nan,nan,nan,nan,nan,nan,nan,nan,nan,nan,0.0,nan,nan,nan,nan,nan,nan,nan,nan,nan,nan,nan,nan,nan,nan,nan,nan,nan,nan,214.90023968042806,227.91614235087764,nan,nan,nan,nan,nan,nan
1,14,1,1,1.0,1.0,0.3675917375367135,0,2,6,1,4,5,3,nan,nan,nan,nan,nan,nan,nan,nan,nan,nan,nan,nan,0.0,nan,nan,nan,nan,nan,nan,nan,nan,nan,nan,nan,nan,nan,nan,nan,nan,nan,nan,214.90023968042806,228.916264657164,nan,229.2838563947007,nan,nan,nan,nan
1,15,1,1,1.0,1.0,0.367444627918303,0,8,2,5,1,7,6,nan,nan,nan,nan,nan,nan,nan,nan,nan,nan,nan,nan,0.0,nan,nan,nan,nan,nan,nan,nan,nan,nan,nan,nan,nan,nan,nan,nan,nan,nan,nan,214.90023968042806,229.91640606487636,nan,230.28385069279466,nan,nan,nan,nan
1,16,1,1,1.0,1.0,0.2233010899508372,0,4,5,0,7,2,3,nan,nan,nan,nan,nan,nan,nan,nan,nan,nan,nan,nan,0.0,nan,nan,nan,nan,nan,nan,nan,nan,nan,nan,nan,nan,nan,nan,nan,nan,nan,nan,214.90023968042806,230.91654120048042,nan,231.13984229043126,nan,nan,nan,nan
1,17,0,0,1.0,0.0,0.27118557575158775,0,8,2,3,0,5,7,nan,nan,nan,nan,nan,nan,nan,nan,nan,nan,nan,nan,0.0,nan,nan,nan,nan,nan,nan,nan,nan,nan,nan,nan,nan,nan,nan,nan,nan,nan,nan,214.90023968042806,231.9166575197596,nan,232.1878430955112,nan,nan,nan,nan
1,18,1,1,1.0,1.0,0.40699432394467294,0,4,0,7,6,2,3,nan,nan,nan,nan,nan,nan,nan,nan,nan,nan,nan,nan,0.0,nan,nan,nan,nan,nan,nan,nan,nan,nan,nan,nan,nan,nan,nan,nan,nan,nan,nan,214.90023968042806,232.9167940809857,nan,233.32378840493038,nan,nan,nan,nan
1,19,1,1,1.0,1.0,0.6148583056638017,0,5,2,6,1,3,4,nan,nan,nan,nan,nan,nan,nan,nan,nan,nan,nan,nan,0.0,nan,nan,nan,nan,nan,nan,nan,nan,nan,nan,nan,nan,nan,nan,nan,nan,nan,nan,214.90023968042806,233.91690983006265,nan,234.53176813572645,nan,nan,nan,nan
1,20,1,1,1.0,1.0,0.3507171740056947,0,2,6,0,8,7,3,nan,nan,nan,nan,nan,nan,nan,nan,nan,nan,nan,nan,0.0,nan,nan,nan,nan,nan,nan,nan,nan,nan,nan,nan,nan,nan,nan,nan,nan,nan,nan,214.90023968042806,234.91704325505998,nan,235.26776042906567,nan,nan,nan,nan
1,21,0,0,0.0,1.0,0.3985634569544345,0,0,7,1,6,4,8,nan,nan,nan,nan,nan,nan,nan,nan,nan,nan,nan,nan,0.0,nan,nan,nan,nan,nan,nan,nan,nan,nan,nan,nan,nan,nan,nan,nan,nan,nan,nan,214.90023968042806,235.9171715483535,nan,236.31573500530794,nan,nan,nan,nan
1,22,1,1,1.0,1.0,0.26242428191471845,0,1,3,4,5,8,0,nan,nan,nan,nan,nan,nan,nan,nan,nan,nan,nan,nan,0.0,nan,nan,nan,nan,nan,nan,nan,nan,nan,nan,nan,nan,nan,nan,nan,nan,nan,nan,214.90023968042806,236.91729442495853,nan,237.17971870687325,nan,nan,nan,nan
1,23,1,1,1.0,1.0,0.26225151354447007,0,0,2,3,1,5,6,nan,nan,nan,nan,nan,nan,nan,nan,nan,nan,nan,nan,0.0,nan,nan,nan,nan,nan,nan,nan,nan,nan,nan,nan,nan,nan,nan,nan,nan,nan,nan,214.90023968042806,237.9174244288588,nan,238.17967594240326,nan,nan,nan,nan
1,24,1,1,1.0,1.0,0.2701050608884543,0,4,7,6,8,2,3,nan,nan,nan,nan,nan,nan,nan,nan,nan,nan,nan,nan,0.0,nan,nan,nan,nan,nan,nan,nan,nan,nan,nan,nan,nan,nan,nan,nan,nan,nan,nan,214.90023968042806,238.9175512966467,nan,239.18765635753516,nan,nan,nan,nan
1,25,1,1,1.0,1.0,0.2939545048866421,0,6,1,2,5,7,0,nan,nan,nan,nan,nan,nan,nan,nan,nan,nan,nan,nan,0.0,nan,nan,nan,nan,nan,nan,nan,nan,nan,nan,nan,nan,nan,nan,nan,nan,nan,nan,214.90023968042806,239.9176753135398,nan,240.21162981842645,nan,nan,nan,nan
1,26,1,1,1.0,1.0,0.26975952414795756,0,4,8,3,6,0,1,nan,nan,nan,nan,nan,nan,nan,nan,nan,nan,nan,nan,0.0,nan,nan,nan,nan,nan,nan,nan,nan,nan,nan,nan,nan,nan,nan,nan,nan,nan,nan,214.90023968042806,240.91786062612664,nan,241.1876201502746,nan,nan,nan,nan
1,27,1,1,1.0,1.0,0.2856448036618531,0,1,5,2,7,3,6,nan,nan,nan,nan,nan,nan,nan,nan,nan,nan,nan,nan,0.0,nan,nan,nan,nan,nan,nan,nan,nan,nan,nan,nan,nan,nan,nan,nan,nan,nan,nan,214.90023968042806,241.9179398828419,nan,242.20358468650375,nan,nan,nan,nan
1,28,1,1,1.0,1.0,0.20550081867258996,0,8,2,0,5,4,1,nan,nan,nan,nan,nan,nan,nan,nan,nan,nan,nan,nan,0.0,nan,nan,nan,nan,nan,nan,nan,nan,nan,nan,nan,nan,nan,nan,nan,nan,nan,nan,214.90023968042806,242.91806703584734,nan,243.12356785451993,nan,nan,nan,nan
1,29,1,1,1.0,1.0,0.4853461937746033,0,4,5,1,3,0,8,nan,nan,nan,nan,nan,nan,nan,nan,nan,nan,nan,nan,0.0,nan,nan,nan,nan,nan,nan,nan,nan,nan,nan,nan,nan,nan,nan,nan,nan,nan,nan,214.90023968042806,243.9181893421337,nan,244.4035355359083,nan,nan,nan,nan
1,30,1,1,1.0,1.0,0.2692067223833874,0,1,0,2,6,7,4,nan,nan,nan,nan,nan,nan,nan,nan,nan,nan,nan,nan,0.0,nan,nan,nan,nan,nan,nan,nan,nan,nan,nan,nan,nan,nan,nan,nan,nan,nan,nan,214.90023968042806,244.91832020133734,nan,245.18752692372072,nan,nan,nan,nan
1,31,1,1,1.0,1.0,0.20506490650586784,0,7,3,8,0,5,2,nan,nan,nan,nan,nan,nan,nan,nan,nan,nan,nan,nan,0.0,nan,nan,nan,nan,nan,nan,nan,nan,nan,nan,nan,nan,nan,nan,nan,nan,nan,nan,214.90023968042806,245.91844792442862,nan,246.1235128309345,nan,nan,nan,nan
1,32,1,1,1.0,1.0,0.11690401402302086,0,1,8,2,7,6,3,nan,nan,nan,nan,nan,nan,nan,nan,nan,nan,nan,nan,0.0,nan,nan,nan,nan,nan,nan,nan,nan,nan,nan,nan,nan,nan,nan,nan,nan,nan,nan,214.90023968042806,246.9185867663473,nan,247.0354907803703,nan,nan,nan,nan
1,33,1,1,1.0,1.0,0.09275436354801059,0,7,6,5,8,1,4,nan,nan,nan,nan,nan,nan,nan,nan,nan,nan,nan,nan,0.0,nan,nan,nan,nan,nan,nan,nan,nan,nan,nan,nan,nan,nan,nan,nan,nan,nan,nan,214.90023968042806,247.91871135344263,nan,248.01146571699064,nan,nan,nan,nan
1,34,1,1,1.0,1.0,0.11660095676779747,0,6,4,3,7,8,0,nan,nan,nan,nan,nan,nan,nan,nan,nan,nan,nan,nan,0.0,nan,nan,nan,nan,nan,nan,nan,nan,nan,nan,nan,nan,nan,nan,nan,nan,nan,nan,214.90023968042806,248.91883622552268,nan,249.03543718229048,nan,nan,nan,nan
1,35,1,1,1.0,1.0,0.21245260629802942,0,7,3,0,5,4,8,nan,nan,nan,nan,nan,nan,nan,nan,nan,nan,nan,nan,0.0,nan,nan,nan,nan,nan,nan,nan,nan,nan,nan,nan,nan,nan,nan,nan,nan,nan,nan,214.90023968042806,249.91896394873038,nan,250.1314165550284,nan,nan,nan,nan
1,36,1,1,1.0,1.0,0.26029945944901556,0,2,5,3,0,7,1,nan,nan,nan,nan,nan,nan,nan,nan,nan,nan,nan,nan,0.0,nan,nan,nan,nan,nan,nan,nan,nan,nan,nan,nan,nan,nan,nan,nan,nan,nan,nan,214.90023968042806,250.91908682521898,nan,251.179386284668,nan,nan,nan,nan
1,37,1,1,1.0,1.0,0.2841480482602492,0,7,8,1,4,6,5,nan,nan,nan,nan,nan,nan,nan,nan,nan,nan,nan,nan,0.0,nan,nan,nan,nan,nan,nan,nan,nan,nan,nan,nan,nan,nan,nan,nan,nan,nan,nan,214.90023968042806,251.919216258917,nan,252.20336430717725,nan,nan,nan,nan
1,38,0,0,1.0,0.0,0.2920035910792649,0,6,2,3,1,7,8,nan,nan,nan,nan,nan,nan,nan,nan,nan,nan,nan,nan,0.0,nan,nan,nan,nan,nan,nan,nan,nan,nan,nan,nan,nan,nan,nan,nan,nan,nan,nan,214.90023968042806,252.91934683301952,nan,253.21135042409878,nan,nan,nan,nan
1,39,1,1,1.0,1.0,0.31583678466267884,1,2,4,7,6,5,1,1.0,1.0,1.0,1.0,1.0,1.0,0.0,0.0,0.0,0.0,0.0,0.0,0.0,5.0,3.0,3.0,5.0,1.0,4.0,3.0,2.0,1.0,6.0,5.0,4.0,4.854531049379148,3.7902575188782066,2.468872190453112,8.508877185406163,7.388869328075089,6.053480640635826,214.90023968042806,253.9194756965153,254.72789299313445,254.23531248117797,264.2957660066895,265.29735940974206,255.7446540883975,264.2874583010562
1,40,1,1,1.0,1.0,0.7147309532156214,0,8,0,2,3,1,5,nan,nan,nan,nan,nan,nan,nan,nan,nan,nan,nan,nan,0.0,nan,nan,nan,nan,nan,nan,nan,nan,nan,nan,nan,nan,nan,nan,nan,nan,nan,nan,214.90023968042806,265.50429483281914,nan,266.21902578603476,nan,nan,nan,nan
1,41,1,1,1.0,1.0,0.258597434614785,0,0,5,4,7,8,6,nan,nan,nan,nan,nan,nan,nan,nan,nan,nan,nan,nan,0.0,nan,nan,nan,nan,nan,nan,nan,nan,nan,nan,nan,nan,nan,nan,nan,nan,nan,nan,214.90023968042806,266.50441371800844,nan,266.7630111526232,nan,nan,nan,nan
1,42,1,1,1.0,1.0,0.2504585060523823,0,7,2,3,4,6,1,nan,nan,nan,nan,nan,nan,nan,nan,nan,nan,nan,nan,0.0,nan,nan,nan,nan,nan,nan,nan,nan,nan,nan,nan,nan,nan,nan,nan,nan,nan,nan,214.90023968042806,267.50453174789436,nan,267.75499025394674,nan,nan,nan,nan
1,43,1,1,1.0,1.0,0.2822937819873914,0,5,3,2,7,1,6,nan,nan,nan,nan,nan,nan,nan,nan,nan,nan,nan,nan,0.0,nan,nan,nan,nan,nan,nan,nan,nan,nan,nan,nan,nan,nan,nan,nan,nan,nan,nan,214.90023968042806,268.5046742960112,nan,268.7869680779986,nan,nan,nan,nan
1,44,1,1,1.0,1.0,0.23413731437176466,0,1,7,8,2,6,4,nan,nan,nan,nan,nan,nan,nan,nan,nan,nan,nan,nan,0.0,nan,nan,nan,nan,nan,nan,nan,nan,nan,nan,nan,nan,nan,nan,nan,nan,nan,nan,214.90023968042806,269.504803159507,nan,269.73894047387876,nan,nan,nan,nan
1,45,1,1,1.0,1.0,0.20166883955243975,0,8,4,0,7,2,3,nan,nan,nan,nan,nan,nan,nan,nan,nan,nan,nan,nan,0.0,nan,nan,nan,nan,nan,nan,nan,nan,nan,nan,nan,nan,nan,nan,nan,nan,nan,nan,214.90023968042806,270.5132596853655,nan,270.7149285249179,nan,nan,nan,nan
1,46,1,1,1.0,1.0,0.2415210228646174,1,5,0,8,4,3,7,1.0,1.0,1.0,1.0,1.0,1.0,0.0,0.0,0.0,0.0,0.0,0.0,0.0,7.0,3.0,5.0,5.0,4.0,4.0,3.0,2.0,1.0,6.0,5.0,4.0,4.1061553141335025,2.6582562314579263,1.5794655984500423,6.442038073437288,5.474541900213808,4.802638109889813,214.90023968042806,271.51339596137404,272.3218047050759,271.75491698423866,279.8310910036089,280.8346013940172,273.34694477997255,279.8227659071563
1,47,1,1,nan,nan,nan,0,8,5,1,6,7,4,nan,nan,nan,nan,nan,nan,nan,nan,nan,nan,nan,nan,0.0,nan,nan,nan,nan,nan,nan,nan,nan,nan,nan,nan,nan,nan,nan,nan,nan,nan,nan,214.90023968042806,281.0396109918365,nan,nan,nan,nan,nan,nan
1,48,1,1,1.0,1.0,0.4025776124326512,0,3,8,7,5,0,2,nan,nan,nan,nan,nan,nan,nan,nan,nan,nan,nan,nan,0.0,nan,nan,nan,nan,nan,nan,nan,nan,nan,nan,nan,nan,nan,nan,nan,nan,nan,nan,214.90023968042806,282.0480372974416,nan,282.4506149098743,nan,nan,nan,nan
1,49,1,1,1.0,1.0,0.33849139022640884,0,7,1,2,8,3,5,nan,nan,nan,nan,nan,nan,nan,nan,nan,nan,nan,nan,0.0,nan,nan,nan,nan,nan,nan,nan,nan,nan,nan,nan,nan,nan,nan,nan,nan,nan,nan,214.90023968042806,283.0481647354318,nan,283.3866561256582,nan,nan,nan,nan
1,50,1,1,1.0,1.0,0.3062812127172947,0,1,5,7,4,2,3,nan,nan,nan,nan,nan,nan,nan,nan,nan,nan,nan,nan,0.0,nan,nan,nan,nan,nan,nan,nan,nan,nan,nan,nan,nan,nan,nan,nan,nan,nan,nan,214.90023968042806,284.0483292359859,nan,284.35461044870317,nan,nan,nan,nan
1,51,0,0,1.0,0.0,0.27413375640753657,0,4,2,5,7,0,8,nan,nan,nan,nan,nan,nan,nan,nan,nan,nan,nan,nan,0.0,nan,nan,nan,nan,nan,nan,nan,nan,nan,nan,nan,nan,nan,nan,nan,nan,nan,nan,214.90023968042806,285.0484575292794,nan,285.32259128568694,nan,nan,nan,nan
1,52,1,1,1.0,1.0,0.43396785319782794,0,2,0,4,6,8,1,nan,nan,nan,nan,nan,nan,nan,nan,nan,nan,nan,nan,0.0,nan,nan,nan,nan,nan,nan,nan,nan,nan,nan,nan,nan,nan,nan,nan,nan,nan,nan,214.90023968042806,286.0485818312736,nan,286.48254968447145,nan,nan,nan,nan
1,53,0,0,0.0,1.0,0.4898364602122456,0,5,8,3,7,4,2,nan,nan,nan,nan,nan,nan,nan,nan,nan,nan,nan,nan,0.0,nan,nan,nan,nan,nan,nan,nan,nan,nan,nan,nan,nan,nan,nan,nan,nan,nan,nan,214.90023968042806,287.0487132606795,nan,287.53854972089175,nan,nan,nan,nan
1,54,1,1,1.0,1.0,0.4016390754841268,0,0,6,4,5,3,1,nan,nan,nan,nan,nan,nan,nan,nan,nan,nan,nan,nan,0.0,nan,nan,nan,nan,nan,nan,nan,nan,nan,nan,nan,nan,nan,nan,nan,nan,nan,nan,214.90023968042806,288.0488749103388,nan,288.4505139858229,nan,nan,nan,nan
1,55,1,1,1.0,1.0,0.41753946512471884,1,8,4,3,0,1,5,1.0,1.0,1.0,1.0,1.0,1.0,0.0,1.0,0.0,0.0,0.0,0.0,1.0,7.0,4.0,5.0,5.0,5.0,4.0,3.0,2.0,1.0,6.0,5.0,4.0,2.7717159973690286,1.674804074689746,0.9247508329572156,5.530719266505912,4.602315780008212,3.8349460754543543,214.90023968042806,289.04897469398566,289.8573566386476,289.4665141591104,296.44159189774655,297.44826457614545,290.8741878676228,296.4332268878352
1,56,1,1,1.0,1.0,0.6562306223204359,0,4,1,8,7,5,6,nan,nan,nan,nan,nan,nan,nan,nan,nan,nan,nan,nan,0.0,nan,nan,nan,nan,nan,nan,nan,nan,nan,nan,nan,nan,nan,nan,nan,nan,nan,nan,214.90023968042806,297.65006598550826,nan,298.3062966078287,nan,nan,nan,nan
1,57,1,1,1.0,1.0,0.31203645118512213,0,3,2,5,1,6,0,nan,nan,nan,nan,nan,nan,nan,nan,nan,nan,nan,nan,0.0,nan,nan,nan,nan,nan,nan,nan,nan,nan,nan,nan,nan,nan,nan,nan,nan,nan,nan,214.90023968042806,298.65024673659354,nan,298.96228318777867,nan,nan,nan,nan
1,58,1,1,1.0,1.0,0.2879309906857088,0,4,0,2,3,7,8,nan,nan,nan,nan,nan,nan,nan,nan,nan,nan,nan,nan,0.0,nan,nan,nan,nan,nan,nan,nan,nan,nan,nan,nan,nan,nan,nan,nan,nan,nan,nan,214.90023968042806,299.65033540152945,nan,299.93826639221516,nan,nan,nan,nan
1,59,1,1,1.0,1.0,0.3357695760205388,0,1,3,0,6,2,5,nan,nan,nan,nan,nan,nan,nan,nan,nan,nan,nan,nan,0.0,nan,nan,nan,nan,nan,nan,nan,nan,nan,nan,nan,nan,nan,nan,nan,nan,nan,nan,214.90023968042806,300.65046055882704,nan,300.9862301348476,nan,nan,nan,nan
1,60,0,0,0.0,1.0,0.5276405117474496,0,3,4,1,2,8,0,nan,nan,nan,nan,nan,nan,nan,nan,nan,nan,nan,nan,0.0,nan,nan,nan,nan,nan,nan,nan,nan,nan,nan,nan,nan,nan,nan,nan,nan,nan,nan,214.90023968042806,301.650576307904,nan,302.1782168196514,nan,nan,nan,nan
1,61,1,1,1.0,1.0,0.599472799920477,0,0,6,2,4,7,3,nan,nan,nan,nan,nan,nan,nan,nan,nan,nan,nan,nan,0.0,nan,nan,nan,nan,nan,nan,nan,nan,nan,nan,nan,nan,nan,nan,nan,nan,nan,nan,214.90023968042806,302.6507122988114,nan,303.2501850987319,nan,nan,nan,nan
1,62,1,1,1.0,1.0,0.47934463212732226,0,6,7,3,2,5,8,nan,nan,nan,nan,nan,nan,nan,nan,nan,nan,nan,nan,0.0,nan,nan,nan,nan,nan,nan,nan,nan,nan,nan,nan,nan,nan,nan,nan,nan,nan,nan,214.90023968042806,303.6508314689854,nan,304.13017610111274,nan,nan,nan,nan
1,63,1,1,1.0,1.0,0.359201924293302,0,2,3,0,5,4,7,nan,nan,nan,nan,nan,nan,nan,nan,nan,nan,nan,nan,0.0,nan,nan,nan,nan,nan,nan,nan,nan,nan,nan,nan,nan,nan,nan,nan,nan,nan,nan,214.90023968042806,304.6509301123442,nan,305.0101320366375,nan,nan,nan,nan
1,64,0,0,0.0,1.0,0.4790173415094614,0,1,8,3,0,7,6,nan,nan,nan,nan,nan,nan,nan,nan,nan,nan,nan,nan,0.0,nan,nan,nan,nan,nan,nan,nan,nan,nan,nan,nan,nan,nan,nan,nan,nan,nan,nan,214.90023968042806,305.65109660860617,nan,306.13011395011563,nan,nan,nan,nan
1,65,1,1,1.0,1.0,0.5508664504159242,0,6,4,5,2,0,7,nan,nan,nan,nan,nan,nan,nan,nan,nan,nan,nan,nan,0.0,nan,nan,nan,nan,nan,nan,nan,nan,nan,nan,nan,nan,nan,nan,nan,nan,nan,nan,214.90023968042806,306.6512237614952,nan,307.2020902119111,nan,nan,nan,nan
1,66,1,1,1.0,1.0,0.40175853087566793,0,0,5,1,8,7,2,nan,nan,nan,nan,nan,nan,nan,nan,nan,nan,nan,nan,0.0,nan,nan,nan,nan,nan,nan,nan,nan,nan,nan,nan,nan,nan,nan,nan,nan,nan,nan,214.90023968042806,307.65632413397543,nan,308.0580826648511,nan,nan,nan,nan
1,67,1,1,1.0,1.0,0.310245476430282,0,7,6,3,4,1,8,nan,nan,nan,nan,nan,nan,nan,nan,nan,nan,nan,nan,0.0,nan,nan,nan,nan,nan,nan,nan,nan,nan,nan,nan,nan,nan,nan,nan,nan,nan,nan,214.90023968042806,308.6598208397627,nan,308.97006631619297,nan,nan,nan,nan
1,68,1,1,1.0,1.0,0.29408222797792405,0,8,3,1,6,5,4,nan,nan,nan,nan,nan,nan,nan,nan,nan,nan,nan,nan,0.0,nan,nan,nan,nan,nan,nan,nan,nan,nan,nan,nan,nan,nan,nan,nan,nan,nan,nan,214.90023968042806,309.6599462821614,nan,309.9540285101393,nan,nan,nan,nan
1,69,1,1,1.0,1.0,0.2779258219525218,0,3,5,7,0,2,6,nan,nan,nan,nan,nan,nan,nan,nan,nan,nan,nan,nan,0.0,nan,nan,nan,nan,nan,nan,nan,nan,nan,nan,nan,nan,nan,nan,nan,nan,nan,nan,214.90023968042806,310.66007257974707,nan,310.9379984016996,nan,nan,nan,nan
1,70,0,0,0.0,1.0,0.7897591706132516,0,8,1,6,5,0,2,nan,nan,nan,nan,nan,nan,nan,nan,nan,nan,nan,nan,0.0,nan,nan,nan,nan,nan,nan,nan,nan,nan,nan,nan,nan,nan,nan,nan,nan,nan,nan,214.90023968042806,311.66020543465856,nan,312.4499646052718,nan,nan,nan,nan
1,71,1,1,0.0,0.0,0.7016256474889815,0,1,5,4,0,2,7,nan,nan,nan,nan,nan,nan,nan,nan,nan,nan,nan,nan,0.0,nan,nan,nan,nan,nan,nan,nan,nan,nan,nan,nan,nan,nan,nan,nan,nan,nan,nan,214.90023968042806,312.66032916645054,nan,313.3619548139395,nan,nan,nan,nan
1,72,1,1,1.0,1.0,0.5334770027548075,0,4,2,0,6,5,3,nan,nan,nan,nan,nan,nan,nan,nan,nan,nan,nan,nan,0.0,nan,nan,nan,nan,nan,nan,nan,nan,nan,nan,nan,nan,nan,nan,nan,nan,nan,nan,214.90023968042806,313.6604614511598,nan,314.1939384539146,nan,nan,nan,nan
1,73,1,1,1.0,1.0,0.3733161857817322,0,8,7,2,5,6,1,nan,nan,nan,nan,nan,nan,nan,nan,nan,nan,nan,nan,0.0,nan,nan,nan,nan,nan,nan,nan,nan,nan,nan,nan,nan,nan,nan,nan,nan,nan,nan,214.90023968042806,314.66058774874546,nan,315.0339039345272,nan,nan,nan,nan
1,74,1,1,1.0,1.0,0.25317832455039024,0,6,2,1,8,5,4,nan,nan,nan,nan,nan,nan,nan,nan,nan,nan,nan,nan,0.0,nan,nan,nan,nan,nan,nan,nan,nan,nan,nan,nan,nan,nan,nan,nan,nan,nan,nan,214.90023968042806,315.6607157570543,nan,315.91389408160467,nan,nan,nan,nan
1,75,1,1,1.0,1.0,0.4050220279023051,0,1,6,2,7,3,5,nan,nan,nan,nan,nan,nan,nan,nan,nan,nan,nan,nan,0.0,nan,nan,nan,nan,nan,nan,nan,nan,nan,nan,nan,nan,nan,nan,nan,nan,nan,nan,214.90023968042806,316.6608440503478,nan,317.0658660782501,nan,nan,nan,nan
1,76,1,1,1.0,1.0,0.26891307334881276,0,2,5,1,3,4,6,nan,nan,nan,nan,nan,nan,nan,nan,nan,nan,nan,nan,0.0,nan,nan,nan,nan,nan,nan,nan,nan,nan,nan,nan,nan,nan,nan,nan,nan,nan,nan,214.90023968042806,317.660928723868,nan,317.9298417972168,nan,nan,nan,nan
1,77,1,1,1.0,1.0,0.27671929448843,0,5,4,8,1,2,3,nan,nan,nan,nan,nan,nan,nan,nan,nan,nan,nan,nan,0.0,nan,nan,nan,nan,nan,nan,nan,nan,nan,nan,nan,nan,nan,nan,nan,nan,nan,nan,214.90023968042806,318.6610895182239,nan,318.9378088127123,nan,nan,nan,nan
1,78,1,1,1.0,1.0,0.24457868048921227,0,1,5,6,4,3,8,nan,nan,nan,nan,nan,nan,nan,nan,nan,nan,nan,nan,0.0,nan,nan,nan,nan,nan,nan,nan,nan,nan,nan,nan,nan,nan,nan,nan,nan,nan,nan,214.90023968042806,319.66122579423245,nan,319.90580447472166,nan,nan,nan,nan
1,79,1,1,1.0,1.0,0.2604180594207719,0,5,8,3,1,6,4,nan,nan,nan,nan,nan,nan,nan,nan,nan,nan,nan,nan,0.0,nan,nan,nan,nan,nan,nan,nan,nan,nan,nan,nan,nan,nan,nan,nan,nan,nan,nan,214.90023968042806,320.6613506664289,nan,320.9217687258497,nan,nan,nan,nan
1,80,1,1,1.0,1.0,0.276265706284903,0,6,7,1,4,2,0,nan,nan,nan,nan,nan,nan,nan,nan,nan,nan,nan,nan,0.0,nan,nan,nan,nan,nan,nan,nan,nan,nan,nan,nan,nan,nan,nan,nan,nan,nan,nan,214.90023968042806,321.6614823809359,nan,321.9377480872208,nan,nan,nan,nan
1,81,1,1,1.0,1.0,0.29210137913469225,0,0,5,7,8,1,4,nan,nan,nan,nan,nan,nan,nan,nan,nan,nan,nan,nan,0.0,nan,nan,nan,nan,nan,nan,nan,nan,nan,nan,nan,nan,nan,nan,nan,nan,nan,nan,214.90023968042806,322.66162236314267,nan,322.95372374227736,nan,nan,nan,nan
1,82,1,1,1.0,1.0,0.2679936378262937,0,2,6,0,5,8,3,nan,nan,nan,nan,nan,nan,nan,nan,nan,nan,nan,nan,0.0,nan,nan,nan,nan,nan,nan,nan,nan,nan,nan,nan,nan,nan,nan,nan,nan,nan,nan,214.90023968042806,323.6617113131797,nan,323.929704951006,nan,nan,nan,nan
1,83,1,1,1.0,1.0,0.32381605927366763,1,8,5,1,0,6,2,1.0,1.0,1.0,1.0,1.0,1.0,0.0,0.0,1.0,0.0,0.0,0.0,1.0,4.0,6.0,1.0,5.0,4.0,5.0,2.0,1.0,6.0,5.0,4.0,3.0,1.9982024680357426,1.022212706389837,5.676611585193314,4.7088776415912434,3.693023152416572,2.8135875175939873,214.90023968042806,324.66187125223223,325.4702808512375,324.9856873115059,332.2128007088322,333.21823521412443,326.49541151791345,332.20446734467987
1,84,1,1,1.0,1.0,0.5801977256778628,0,0,7,6,3,2,4,nan,nan,nan,nan,nan,nan,nan,nan,nan,nan,nan,nan,0.0,nan,nan,nan,nan,nan,nan,nan,nan,nan,nan,nan,nan,nan,nan,nan,nan,nan,nan,214.90023968042806,333.42131813126616,nan,334.001515856944,nan,nan,nan,nan
1,85,1,1,1.0,1.0,0.33199518639594316,0,3,1,2,7,8,6,nan,nan,nan,nan,nan,nan,nan,nan,nan,nan,nan,nan,0.0,nan,nan,nan,nan,nan,nan,nan,nan,nan,nan,nan,nan,nan,nan,nan,nan,nan,nan,214.90023968042806,334.42144613945857,nan,334.7534413258545,nan,nan,nan,nan
1,86,1,1,1.0,1.0,0.25983788853045553,0,1,2,4,6,3,7,nan,nan,nan,nan,nan,nan,nan,nan,nan,nan,nan,nan,0.0,nan,nan,nan,nan,nan,nan,nan,nan,nan,nan,nan,nan,nan,nan,nan,nan,nan,nan,214.90023968042806,335.42159552988596,nan,335.6814334184164,nan,nan,nan,nan
1,87,1,1,1.0,1.0,0.23571560729760677,0,4,8,7,1,5,2,nan,nan,nan,nan,nan,nan,nan,nan,nan,nan,nan,nan,0.0,nan,nan,nan,nan,nan,nan,nan,nan,nan,nan,nan,nan,nan,nan,nan,nan,nan,nan,214.90023968042806,336.4217010155553,nan,336.6574166228529,nan,nan,nan,nan
1,88,1,1,1.0,1.0,0.25957132352050394,0,7,2,6,3,1,8,nan,nan,nan,nan,nan,nan,nan,nan,nan,nan,nan,nan,0.0,nan,nan,nan,nan,nan,nan,nan,nan,nan,nan,nan,nan,nan,nan,nan,nan,nan,nan,214.90023968042806,337.42180792661384,nan,337.68137925013434,nan,nan,nan,nan
1,89,1,1,1.0,1.0,0.2753990136552602,0,8,0,3,1,6,4,nan,nan,nan,nan,nan,nan,nan,nan,nan,nan,nan,nan,0.0,nan,nan,nan,nan,nan,nan,nan,nan,nan,nan,nan,nan,nan,nan,nan,nan,nan,nan,214.90023968042806,338.42198411608115,nan,338.6973831297364,nan,nan,nan,nan
1,90,1,1,1.0,1.0,0.34725867095403373,0,2,5,0,8,7,1,nan,nan,nan,nan,nan,nan,nan,nan,nan,nan,nan,nan,0.0,nan,nan,nan,nan,nan,nan,nan,nan,nan,nan,nan,nan,nan,nan,nan,nan,nan,nan,214.90023968042806,339.42208532535005,nan,339.7693439963041,nan,nan,nan,nan
1,91,1,1,1.0,1.0,0.42714036745019257,0,6,7,1,4,0,3,nan,nan,nan,nan,nan,nan,nan,nan,nan,nan,nan,nan,0.0,nan,nan,nan,nan,nan,nan,nan,nan,nan,nan,nan,nan,nan,nan,nan,nan,nan,nan,214.90023968042806,340.42221190803684,nan,340.84935227548704,nan,nan,nan,nan
1,92,1,1,1.0,1.0,0.33094318117946386,0,8,0,5,3,7,4,nan,nan,nan,nan,nan,nan,nan,nan,nan,nan,nan,nan,0.0,nan,nan,nan,nan,nan,nan,nan,nan,nan,nan,nan,nan,nan,nan,nan,nan,nan,nan,214.90023968042806,341.42234248213936,nan,341.7532856633188,nan,nan,nan,nan
1,93,1,1,1.0,1.0,0.28280581487342715,0,4,2,3,5,0,8,nan,nan,nan,nan,nan,nan,nan,nan,nan,nan,nan,nan,0.0,nan,nan,nan,nan,nan,nan,nan,nan,nan,nan,nan,nan,nan,nan,nan,nan,nan,nan,214.90023968042806,342.4224696351448,nan,342.70527545001823,nan,nan,nan,nan
1,94,1,1,1.0,1.0,0.3386410657549277,0,6,1,8,2,7,5,nan,nan,nan,nan,nan,nan,nan,nan,nan,nan,nan,nan,0.0,nan,nan,nan,nan,nan,nan,nan,nan,nan,nan,nan,nan,nan,nan,nan,nan,nan,nan,214.90023968042806,343.4225999241462,nan,343.7612409899011,nan,nan,nan,nan
1,95,1,1,1.0,1.0,0.2984958034940064,0,8,7,3,6,5,0,nan,nan,nan,nan,nan,nan,nan,nan,nan,nan,nan,nan,0.0,nan,nan,nan,nan,nan,nan,nan,nan,nan,nan,nan,nan,nan,nan,nan,nan,nan,nan,214.90023968042806,344.42270712030586,nan,344.72120292379986,nan,nan,nan,nan
1,96,1,1,1.0,1.0,0.2743743775645271,0,0,8,1,4,2,6,nan,nan,nan,nan,nan,nan,nan,nan,nan,nan,nan,nan,0.0,nan,nan,nan,nan,nan,nan,nan,nan,nan,nan,nan,nan,nan,nan,nan,nan,nan,nan,214.90023968042806,345.4228302818956,nan,345.6972046594601,nan,nan,nan,nan
1,97,1,1,1.0,1.0,0.37816282256972045,0,8,7,2,5,6,0,nan,nan,nan,nan,nan,nan,nan,nan,nan,nan,nan,nan,0.0,nan,nan,nan,nan,nan,nan,nan,nan,nan,nan,nan,nan,nan,nan,nan,nan,nan,nan,214.90023968042806,346.42299079103395,nan,346.8011536136037,nan,nan,nan,nan
1,98,1,1,1.0,1.0,0.2820297828875482,0,0,4,8,7,1,2,nan,nan,nan,nan,nan,nan,nan,nan,nan,nan,nan,nan,0.0,nan,nan,nan,nan,nan,nan,nan,nan,nan,nan,nan,nan,nan,nan,nan,nan,nan,nan,214.90023968042806,347.42312108003534,nan,347.7051508629229,nan,nan,nan,nan
1,99,1,1,1.0,1.0,0.28187896695453674,0,4,0,2,3,5,1,nan,nan,nan,nan,nan,nan,nan,nan,nan,nan,nan,nan,0.0,nan,nan,nan,nan,nan,nan,nan,nan,nan,nan,nan,nan,nan,nan,nan,nan,nan,nan,214.90023968042806,348.42324880324304,nan,348.7051277701976,nan,nan,nan,nan
1,100,1,1,1.0,1.0,0.305732972570695,0,3,1,4,5,6,2,nan,nan,nan,nan,nan,nan,nan,nan,nan,nan,nan,nan,0.0,nan,nan,nan,nan,nan,nan,nan,nan,nan,nan,nan,nan,nan,nan,nan,nan,nan,nan,214.90023968042806,349.4233751008287,nan,349.7291080733994,nan,nan,nan,nan
1,101,1,1,1.0,1.0,0.2575668116332963,0,2,8,5,3,1,0,nan,nan,nan,nan,nan,nan,nan,nan,nan,nan,nan,nan,0.0,nan,nan,nan,nan,nan,nan,nan,nan,nan,nan,nan,nan,nan,nan,nan,nan,nan,nan,214.90023968042806,350.4235053898301,nan,350.6810722014634,nan,nan,nan,nan
1,102,1,1,1.0,1.0,0.28143849316984415,0,5,6,8,0,4,3,nan,nan,nan,nan,nan,nan,nan,nan,nan,nan,nan,nan,0.0,nan,nan,nan,nan,nan,nan,nan,nan,nan,nan,nan,nan,nan,nan,nan,nan,nan,nan,214.90023968042806,351.423625700525,nan,351.70506419369485,nan,nan,nan,nan
1,103,1,1,1.0,1.0,0.24929075175896287,0,4,3,0,6,2,8,nan,nan,nan,nan,nan,nan,nan,nan,nan,nan,nan,nan,0.0,nan,nan,nan,nan,nan,nan,nan,nan,nan,nan,nan,nan,nan,nan,nan,nan,nan,nan,214.90023968042806,352.42374772171024,nan,352.6730384734692,nan,nan,nan,nan
1,104,1,1,1.0,1.0,0.20913180487696081,0,5,2,3,7,4,6,nan,nan,nan,nan,nan,nan,nan,nan,nan,nan,nan,nan,0.0,nan,nan,nan,nan,nan,nan,nan,nan,nan,nan,nan,nan,nan,nan,nan,nan,nan,nan,214.90023968042806,353.42388456792105,nan,353.633016372798,nan,nan,nan,nan
1,105,1,1,1.0,1.0,0.28098718577530235,0,6,8,7,1,0,2,nan,nan,nan,nan,nan,nan,nan,nan,nan,nan,nan,nan,0.0,nan,nan,nan,nan,nan,nan,nan,nan,nan,nan,nan,nan,nan,nan,nan,nan,nan,nan,214.90023968042806,354.42402027372736,nan,354.70500745950267,nan,nan,nan,nan
1,106,1,1,1.0,1.0,0.3048209495609626,1,4,5,3,0,6,8,1.0,1.0,1.0,1.0,1.0,1.0,0.0,1.0,0.0,0.0,0.0,0.0,1.0,7.0,5.0,8.0,4.0,4.0,2.0,3.0,2.0,1.0,6.0,5.0,4.0,3.0828600972890854,2.2022598441690207,1.0918913772329688,6.057521595386788,5.178089096560143,4.08153753564693,214.90023968042806,355.4241348823998,356.23255303432234,355.7289558319608,363.3501321563963,364.35514956573024,357.25769424962346,363.341799932532
1,107,1,1,1.0,1.0,0.49009903392288834,0,3,6,0,2,5,1,nan,nan,nan,nan,nan,nan,nan,nan,nan,nan,nan,nan,0.0,nan,nan,nan,nan,nan,nan,nan,nan,nan,nan,nan,nan,nan,nan,nan,nan,nan,nan,214.90023968042806,364.55864872341044,nan,365.04874775733333,nan,nan,nan,nan
1,108,1,1,1.0,1.0,0.28195451747160405,0,0,4,2,1,7,6,nan,nan,nan,nan,nan,nan,nan,nan,nan,nan,nan,nan,0.0,nan,nan,nan,nan,nan,nan,nan,nan,nan,nan,nan,nan,nan,nan,nan,nan,nan,nan,214.90023968042806,365.5587673234986,nan,365.8407218409702,nan,nan,nan,nan
1,109,1,1,1.0,1.0,0.13776621932629496,1,2,8,7,5,4,3,1.0,1.0,1.0,1.0,1.0,1.0,0.0,0.0,0.0,1.0,1.0,0.0,2.0,4.0,4.0,5.0,5.0,4.0,7.0,2.0,6.0,1.0,5.0,4.0,3.0,2.363381720846519,7.3311570034129545,1.1654100097948685,5.227746596210636,4.219202260719612,3.332997299847193,214.90023968042806,366.5589278327534,367.3673143389169,366.6966940520797,375.7433828441426,376.74127284658607,368.375773145468,375.73505090537947
1,110,1,1,1.0,1.0,0.5848838532110676,0,0,3,2,7,8,1,nan,nan,nan,nan,nan,nan,nan,nan,nan,nan,nan,nan,0.0,nan,nan,nan,nan,nan,nan,nan,nan,nan,nan,nan,nan,nan,nan,nan,nan,nan,nan,214.90023968042806,376.9435748849064,nan,377.5284587381175,nan,nan,nan,nan
1,111,0,0,0.0,1.0,0.47274493833538145,0,1,8,6,2,0,5,nan,nan,nan,nan,nan,nan,nan,nan,nan,nan,nan,nan,0.0,nan,nan,nan,nan,nan,nan,nan,nan,nan,nan,nan,nan,nan,nan,nan,nan,nan,nan,214.90023968042806,377.9436872128863,nan,378.41643215122167,nan,nan,nan,nan
1,112,1,1,1.0,1.0,0.30457719217520207,0,7,2,1,3,8,6,nan,nan,nan,nan,nan,nan,nan,nan,nan,nan,nan,nan,0.0,nan,nan,nan,nan,nan,nan,nan,nan,nan,nan,nan,nan,nan,nan,nan,nan,nan,nan,214.90023968042806,378.943831756711,nan,379.2484089488862,nan,nan,nan,nan
1,113,1,1,1.0,1.0,0.3124238970922306,0,2,7,3,8,6,0,nan,nan,nan,nan,nan,nan,nan,nan,nan,nan,nan,nan,0.0,nan,nan,nan,nan,nan,nan,nan,nan,nan,nan,nan,nan,nan,nan,nan,nan,nan,nan,214.90023968042806,379.9439597649034,nan,380.25638366199564,nan,nan,nan,nan
1,114,1,1,1.0,1.0,0.2722988766618073,0,6,8,4,2,0,1,nan,nan,nan,nan,nan,nan,nan,nan,nan,nan,nan,nan,0.0,nan,nan,nan,nan,nan,nan,nan,nan,nan,nan,nan,nan,nan,nan,nan,nan,nan,nan,214.90023968042806,380.94406924187206,nan,381.21636811853386,nan,nan,nan,nan
1,115,0,0,1.0,0.0,0.2001407234929502,0,7,6,2,0,3,5,nan,nan,nan,nan,nan,nan,nan,nan,nan,nan,nan,nan,0.0,nan,nan,nan,nan,nan,nan,nan,nan,nan,nan,nan,nan,nan,nan,nan,nan,nan,nan,214.90023968042806,381.9441961097764,nan,382.14433683326934,nan,nan,nan,nan
1,116,1,1,1.0,1.0,0.35199269466102123,0,1,3,8,5,4,6,nan,nan,nan,nan,nan,nan,nan,nan,nan,nan,nan,nan,0.0,nan,nan,nan,nan,nan,nan,nan,nan,nan,nan,nan,nan,nan,nan,nan,nan,nan,nan,214.90023968042806,382.944318986265,nan,383.296311680926,nan,nan,nan,nan
1,117,1,1,1.0,1.0,0.3438392261741683,0,4,2,6,3,7,1,nan,nan,nan,nan,nan,nan,nan,nan,nan,nan,nan,nan,0.0,nan,nan,nan,nan,nan,nan,nan,nan,nan,nan,nan,nan,nan,nan,nan,nan,nan,nan,214.90023968042806,383.9444555473747,nan,384.28829477354884,nan,nan,nan,nan
1,118,1,1,1.0,1.0,0.4636557837948203,0,3,7,8,2,6,0,nan,nan,nan,nan,nan,nan,nan,nan,nan,nan,nan,nan,0.0,nan,nan,nan,nan,nan,nan,nan,nan,nan,nan,nan,nan,nan,nan,nan,nan,nan,nan,214.90023968042806,384.94460607820656,nan,385.4082618620014,nan,nan,nan,nan
1,119,1,1,1.0,1.0,0.38352690904866904,0,8,2,0,3,4,7,nan,nan,nan,nan,nan,nan,nan,nan,nan,nan,nan,nan,0.0,nan,nan,nan,nan,nan,nan,nan,nan,nan,nan,nan,nan,nan,nan,nan,nan,nan,nan,214.90023968042806,385.94471897627227,nan,386.32824588532094,nan,nan,nan,nan
1,120,1,1,1.0,1.0,0.39939394232351333,0,3,7,5,8,1,6,nan,nan,nan,nan,nan,nan,nan,nan,nan,nan,nan,nan,0.0,nan,nan,nan,nan,nan,nan,nan,nan,nan,nan,nan,nan,nan,nan,nan,nan,nan,nan,214.90023968042806,386.9448392869672,nan,387.3442332292907,nan,nan,nan,nan
1,121,1,1,1.0,1.0,0.2952591055072844,0,8,6,1,3,2,5,nan,nan,nan,nan,nan,nan,nan,nan,nan,nan,nan,nan,0.0,nan,nan,nan,nan,nan,nan,nan,nan,nan,nan,nan,nan,nan,nan,nan,nan,nan,nan,214.90023968042806,387.94495418074075,nan,388.24021328624804,nan,nan,nan,nan
1,122,1,1,1.0,1.0,0.27909044025000185,0,0,3,2,5,6,8,nan,nan,nan,nan,nan,nan,nan,nan,nan,nan,nan,nan,0.0,nan,nan,nan,nan,nan,nan,nan,nan,nan,nan,nan,nan,nan,nan,nan,nan,nan,nan,214.90023968042806,388.945105566876,nan,389.224196007126,nan,nan,nan,nan
1,123,0,0,1.0,0.0,0.2549325219588354,0,6,2,7,4,0,1,nan,nan,nan,nan,nan,nan,nan,nan,nan,nan,nan,nan,0.0,nan,nan,nan,nan,nan,nan,nan,nan,nan,nan,nan,nan,nan,nan,nan,nan,nan,nan,214.90023968042806,389.9452307241736,nan,390.20016324613243,nan,nan,nan,nan
1,124,1,1,0.0,0.0,0.07878179498948157,0,7,3,1,2,6,0,nan,nan,nan,nan,nan,nan,nan,nan,nan,nan,nan,nan,0.0,nan,nan,nan,nan,nan,nan,nan,nan,nan,nan,nan,nan,nan,nan,nan,nan,nan,nan,214.90023968042806,390.9453547410667,nan,391.0241365360562,nan,nan,nan,nan
1,125,1,1,1.0,1.0,0.4866262760479003,0,3,5,0,6,4,8,nan,nan,nan,nan,nan,nan,nan,nan,nan,nan,nan,nan,0.0,nan,nan,nan,nan,nan,nan,nan,nan,nan,nan,nan,nan,nan,nan,nan,nan,nan,nan,214.90023968042806,391.94548474496696,nan,392.43211102101486,nan,nan,nan,nan
1,126,1,1,1.0,1.0,0.29447195469401777,0,5,0,1,8,7,2,nan,nan,nan,nan,nan,nan,nan,nan,nan,nan,nan,nan,0.0,nan,nan,nan,nan,nan,nan,nan,nan,nan,nan,nan,nan,nan,nan,nan,nan,nan,nan,214.90023968042806,392.9456053406466,nan,393.2400772953406,nan,nan,nan,nan
1,127,1,1,1.0,1.0,0.36633930960670114,0,1,8,6,4,3,5,nan,nan,nan,nan,nan,nan,nan,nan,nan,nan,nan,nan,0.0,nan,nan,nan,nan,nan,nan,nan,nan,nan,nan,nan,nan,nan,nan,nan,nan,nan,nan,214.90023968042806,393.9457296426408,nan,394.3120689522475,nan,nan,nan,nan
1,128,1,1,1.0,1.0,0.32618606463074684,0,6,0,7,1,4,8,nan,nan,nan,nan,nan,nan,nan,nan,nan,nan,nan,nan,0.0,nan,nan,nan,nan,nan,nan,nan,nan,nan,nan,nan,nan,nan,nan,nan,nan,nan,nan,214.90023968042806,394.94585936143994,nan,395.2720454260707,nan,nan,nan,nan
1,129,1,1,1.0,1.0,0.2940368977142498,0,1,7,3,8,0,6,nan,nan,nan,nan,nan,nan,nan,nan,nan,nan,nan,nan,0.0,nan,nan,nan,nan,nan,nan,nan,nan,nan,nan,nan,nan,nan,nan,nan,nan,nan,nan,214.90023968042806,395.9459867994301,nan,396.24002369714435,nan,nan,nan,nan
1,130,1,1,1.0,1.0,0.2618897263891995,0,3,4,7,5,8,1,nan,nan,nan,nan,nan,nan,nan,nan,nan,nan,nan,nan,0.0,nan,nan,nan,nan,nan,nan,nan,nan,nan,nan,nan,nan,nan,nan,nan,nan,nan,nan,214.90023968042806,396.9461145226378,nan,397.208004249027,nan,nan,nan,nan
1,131,1,1,1.0,1.0,0.6537525655003265,0,1,2,3,6,7,5,nan,nan,nan,nan,nan,nan,nan,nan,nan,nan,nan,nan,0.0,nan,nan,nan,nan,nan,nan,nan,nan,nan,nan,nan,nan,nan,nan,nan,nan,nan,nan,214.90023968042806,397.94624680723064,nan,398.59999937273096,nan,nan,nan,nan
1,132,1,1,1.0,1.0,0.31757672724779695,1,7,0,5,2,8,4,1.0,1.0,1.0,1.0,1.0,1.0,1.0,0.0,0.0,0.0,0.0,1.0,2.0,7.0,8.0,4.0,5.0,1.0,4.0,3.0,2.0,1.0,6.0,5.0,4.0,3.127986276638694,2.1353283610660583,1.0645848555723205,6.278465509181842,5.486198061495088,4.3341000522486866,214.90023968042806,398.9463739602361,399.7547958183568,399.2639506874839,407.09739402041305,408.09657123254146,400.77992249373347,407.08906749857124
1,133,1,1,1.0,1.0,0.38216614443808794,0,2,8,7,3,6,1,nan,nan,nan,nan,nan,nan,nan,nan,nan,nan,nan,nan,0.0,nan,nan,nan,nan,nan,nan,nan,nan,nan,nan,nan,nan,nan,nan,nan,nan,nan,nan,214.90023968042806,408.2975755126681,nan,408.6797416571062,nan,nan,nan,nan
1,134,1,1,1.0,1.0,0.270030080457218,0,4,3,8,2,0,6,nan,nan,nan,nan,nan,nan,nan,nan,nan,nan,nan,nan,0.0,nan,nan,nan,nan,nan,nan,nan,nan,nan,nan,nan,nan,nan,nan,nan,nan,nan,nan,214.90023968042806,409.29768441955093,nan,409.56771450000815,nan,nan,nan,nan
1,135,1,1,1.0,1.0,0.3178618235979229,0,0,6,1,8,3,2,nan,nan,nan,nan,nan,nan,nan,nan,nan,nan,nan,nan,0.0,nan,nan,nan,nan,nan,nan,nan,nan,nan,nan,nan,nan,nan,nan,nan,nan,nan,nan,214.90023968042806,410.297830673866,nan,410.6156924974639,nan,nan,nan,nan
1,136,1,1,1.0,1.0,0.27769860019907355,0,3,2,0,5,8,4,nan,nan,nan,nan,nan,nan,nan,nan,nan,nan,nan,nan,0.0,nan,nan,nan,nan,nan,nan,nan,nan,nan,nan,nan,nan,nan,nan,nan,nan,nan,nan,214.90023968042806,411.2979552609613,nan,411.5756538611604,nan,nan,nan,nan
1,137,1,1,1.0,1.0,0.22154860303271562,0,1,5,8,4,6,3,nan,nan,nan,nan,nan,nan,nan,nan,nan,nan,nan,nan,0.0,nan,nan,nan,nan,nan,nan,nan,nan,nan,nan,nan,nan,nan,nan,nan,nan,nan,nan,214.90023968042806,412.29807984805666,nan,412.5196284510894,nan,nan,nan,nan
1,138,1,1,1.0,1.0,0.2614110497524962,0,3,8,2,1,0,6,nan,nan,nan,nan,nan,nan,nan,nan,nan,nan,nan,nan,0.0,nan,nan,nan,nan,nan,nan,nan,nan,nan,nan,nan,nan,nan,nan,nan,nan,nan,nan,214.90023968042806,413.29821156256367,nan,413.55962261231616,nan,nan,nan,nan
1,139,1,1,1.0,1.0,0.2532658491982147,1,5,6,0,7,4,1,1.0,1.0,1.0,1.0,1.0,1.0,1.0,0.0,0.0,0.0,0.0,0.0,1.0,5.0,7.0,1.0,4.0,5.0,0.0,3.0,2.0,1.0,6.0,5.0,4.0,3.3829022629652172,2.3665770798688754,1.2728314364794642,6.334205252700485,5.414190724259242,4.487331319134682,214.90023968042806,414.2983375750482,415.1067756837001,414.5516034242464,422.4993575355038,423.509028571425,416.1235741266282,422.4910361453658
1,140,1,1,1.0,1.0,0.43518378876615316,0,7,5,8,0,1,3,nan,nan,nan,nan,nan,nan,nan,nan,nan,nan,nan,nan,0.0,nan,nan,nan,nan,nan,nan,nan,nan,nan,nan,nan,nan,nan,nan,nan,nan,nan,nan,214.90023968042806,423.71624196344055,nan,424.1514257522067,nan,nan,nan,nan
1,141,1,1,1.0,1.0,0.29100717953406274,0,1,4,5,2,3,7,nan,nan,nan,nan,nan,nan,nan,nan,nan,nan,nan,nan,0.0,nan,nan,nan,nan,nan,nan,nan,nan,nan,nan,nan,nan,nan,nan,nan,nan,nan,nan,214.90023968042806,424.7163403216982,nan,425.0073475012323,nan,nan,nan,nan
1,142,1,1,1.0,1.0,0.27487415145151317,0,5,0,1,6,2,3,nan,nan,nan,nan,nan,nan,nan,nan,nan,nan,nan,nan,0.0,nan,nan,nan,nan,nan,nan,nan,nan,nan,nan,nan,nan,nan,nan,nan,nan,nan,nan,214.90023968042806,425.7164603471756,nan,425.9913344986271,nan,nan,nan,nan
1,143,1,1,1.0,1.0,0.20270003285259008,0,0,4,5,1,7,2,nan,nan,nan,nan,nan,nan,nan,nan,nan,nan,nan,nan,0.0,nan,nan,nan,nan,nan,nan,nan,nan,nan,nan,nan,nan,nan,nan,nan,nan,nan,nan,214.90023968042806,426.71659890399314,nan,426.91929893684573,nan,nan,nan,nan
1,144,1,1,1.0,1.0,0.12257486407179385,0,7,3,6,5,2,0,nan,nan,nan,nan,nan,nan,nan,nan,nan,nan,nan,nan,0.0,nan,nan,nan,nan,nan,nan,nan,nan,nan,nan,nan,nan,nan,nan,nan,nan,nan,nan,214.90023968042806,427.71672691230197,nan,427.83930177637376,nan,nan,nan,nan
1,145,0,0,1.0,0.0,0.2104192996630445,0,0,8,1,7,4,2,nan,nan,nan,nan,nan,nan,nan,nan,nan,nan,nan,nan,0.0,nan,nan,nan,nan,nan,nan,nan,nan,nan,nan,nan,nan,nan,nan,nan,nan,nan,nan,214.90023968042806,428.71685606089886,nan,428.9272753605619,nan,nan,nan,nan
1,146,1,1,1.0,1.0,0.3062732300022617,0,8,6,7,3,2,4,nan,nan,nan,nan,nan,nan,nan,nan,nan,nan,nan,nan,0.0,nan,nan,nan,nan,nan,nan,nan,nan,nan,nan,nan,nan,nan,nan,nan,nan,nan,nan,214.90023968042806,429.7169832137879,nan,430.02325644379016,nan,nan,nan,nan
1,147,1,1,1.0,1.0,0.24209948326461017,1,0,2,4,8,7,5,1.0,1.0,1.0,1.0,1.0,1.0,0.0,0.0,0.0,0.0,0.0,0.0,0.0,4.0,7.0,8.0,4.0,5.0,4.0,3.0,2.0,1.0,6.0,5.0,4.0,2.9952927753329277,2.0676875583594665,0.9662369029829279,8.458851911593229,7.331015310483053,4.027049079537392,214.90023968042806,430.7171314638108,431.5255188252777,430.9592309470754,441.0433936492773,442.0414185022237,432.54232154472265,441.0350602850085
1,148,1,1,1.0,1.0,0.3553676644805819,0,2,1,0,6,8,3,nan,nan,nan,nan,nan,nan,nan,nan,nan,nan,nan,nan,0.0,nan,nan,nan,nan,nan,nan,nan,nan,nan,nan,nan,nan,nan,nan,nan,nan,nan,nan,214.90023968042806,442.24358683044557,nan,442.59895449492615,nan,nan,nan,nan
1,149,1,1,1.0,1.0,0.2352061403216794,0,0,6,3,1,7,2,nan,nan,nan,nan,nan,nan,nan,nan,nan,nan,nan,nan,0.0,nan,nan,nan,nan,nan,nan,nan,nan,nan,nan,nan,nan,nan,nan,nan,nan,nan,nan,214.90023968042806,443.2437088516308,nan,443.4789149919525,nan,nan,nan,nan
1,150,1,1,1.0,1.0,0.11507141520269215,0,1,5,4,7,0,6,nan,nan,nan,nan,nan,nan,nan,nan,nan,nan,nan,nan,0.0,nan,nan,nan,nan,nan,nan,nan,nan,nan,nan,nan,nan,nan,nan,nan,nan,nan,nan,214.90023968042806,444.24384341714904,nan,444.35891483235173,nan,nan,nan,nan
1,151,1,1,1.0,1.0,0.1949066410306841,0,0,2,3,1,4,7,nan,nan,nan,nan,nan,nan,nan,nan,nan,nan,nan,nan,0.0,nan,nan,nan,nan,nan,nan,nan,nan,nan,nan,nan,nan,nan,nan,nan,nan,nan,nan,214.90023968042806,445.24397028493695,nan,445.43887692596763,nan,nan,nan,nan
1,152,1,1,1.0,1.0,0.21075172198470682,1,2,0,4,7,8,1,1.0,1.0,1.0,1.0,1.0,1.0,0.0,0.0,0.0,1.0,0.0,0.0,1.0,7.0,5.0,1.0,7.0,5.0,5.0,3.0,2.0,1.0,6.0,5.0,4.0,3.0523958493722603,2.1004804727854207,1.0456205363152549,5.315152553608641,4.612039558822289,3.7804482113569975,214.90023968042806,446.24409971863497,447.05251245375257,446.4548514406197,453.42830241983756,454.4275660162093,448.07766877906397,453.4199753277935
1,153,1,1,1.0,1.0,0.42618358426261693,0,8,2,6,5,4,0,nan,nan,nan,nan,nan,nan,nan,nan,nan,nan,nan,nan,0.0,nan,nan,nan,nan,nan,nan,nan,nan,nan,nan,nan,nan,nan,nan,nan,nan,nan,nan,214.90023968042806,454.62848134629894,nan,455.05466493056156,nan,nan,nan,nan
1,154,1,1,1.0,1.0,0.36201553943101317,0,1,5,7,0,6,3,nan,nan,nan,nan,nan,nan,nan,nan,nan,nan,nan,nan,0.0,nan,nan,nan,nan,nan,nan,nan,nan,nan,nan,nan,nan,nan,nan,nan,nan,nan,nan,214.90023968042806,455.62861676700413,nan,455.99063230643515,nan,nan,nan,nan
1,155,1,1,1.0,1.0,0.521854197839275,0,6,8,2,4,3,5,nan,nan,nan,nan,nan,nan,nan,nan,nan,nan,nan,nan,0.0,nan,nan,nan,nan,nan,nan,nan,nan,nan,nan,nan,nan,nan,nan,nan,nan,nan,nan,214.90023968042806,456.62874591560103,nan,457.1506001134403,nan,nan,nan,nan
1,156,1,1,1.0,1.0,0.609696067404002,0,0,3,6,7,2,4,nan,nan,nan,nan,nan,nan,nan,nan,nan,nan,nan,nan,0.0,nan,nan,nan,nan,nan,nan,nan,nan,nan,nan,nan,nan,nan,nan,nan,nan,nan,nan,214.90023968042806,457.6288756344002,nan,458.2385717018042,nan,nan,nan,nan
1,157,1,1,1.0,1.0,0.521546863950789,0,2,5,0,4,7,1,nan,nan,nan,nan,nan,nan,nan,nan,nan,nan,nan,nan,0.0,nan,nan,nan,nan,nan,nan,nan,nan,nan,nan,nan,nan,nan,nan,nan,nan,nan,nan,214.90023968042806,458.62901704222895,nan,459.15056390617974,nan,nan,nan,nan
1,158,1,1,1.0,1.0,0.5454299494158477,0,8,6,7,1,5,0,nan,nan,nan,nan,nan,nan,nan,nan,nan,nan,nan,nan,0.0,nan,nan,nan,nan,nan,nan,nan,nan,nan,nan,nan,nan,nan,nan,nan,nan,nan,nan,214.90023968042806,459.6291213873774,nan,460.17455133679323,nan,nan,nan,nan
1,159,0,0,0.0,1.0,0.5932437313022092,0,4,8,3,5,6,1,nan,nan,nan,nan,nan,nan,nan,nan,nan,nan,nan,nan,0.0,nan,nan,nan,nan,nan,nan,nan,nan,nan,nan,nan,nan,nan,nan,nan,nan,nan,nan,214.90023968042806,460.6292850327445,nan,461.22252876404673,nan,nan,nan,nan
1,160,1,1,1.0,1.0,0.5691262969048694,0,0,2,7,6,8,5,nan,nan,nan,nan,nan,nan,nan,nan,nan,nan,nan,nan,0.0,nan,nan,nan,nan,nan,nan,nan,nan,nan,nan,nan,nan,nan,nan,nan,nan,nan,nan,214.90023968042806,461.62935374083463,nan,462.1984800377395,nan,nan,nan,nan
1,161,1,1,1.0,1.0,0.5929540735669434,0,4,6,2,8,7,3,nan,nan,nan,nan,nan,nan,nan,nan,nan,nan,nan,nan,0.0,nan,nan,nan,nan,nan,nan,nan,nan,nan,nan,nan,nan,nan,nan,nan,nan,nan,nan,214.90023968042806,462.62951567559503,nan,463.222469749162,nan,nan,nan,nan
1,162,1,1,1.0,1.0,0.6807873903308064,0,6,7,3,1,0,2,nan,nan,nan,nan,nan,nan,nan,nan,nan,nan,nan,nan,0.0,nan,nan,nan,nan,nan,nan,nan,nan,nan,nan,nan,nan,nan,nan,nan,nan,nan,nan,214.90023968042806,463.629650526098,nan,464.3104379164288,nan,nan,nan,nan
1,163,1,1,1.0,1.0,0.5206465299706906,1,7,0,5,6,2,8,1.0,1.0,1.0,1.0,1.0,1.0,0.0,0.0,0.0,0.0,0.0,0.0,0.0,4.0,3.0,2.0,5.0,3.0,5.0,3.0,2.0,1.0,6.0,5.0,4.0,3.6494487521704286,2.635631275945343,1.585541000124067,7.017506622127257,6.217513920622878,4.923008609679528,214.90023968042806,464.62977539829444,465.438191269408,465.15042192826513,473.5142247362528,474.51988902909216,466.4549914228264,473.50589393789414
1,164,0,0,nan,nan,nan,0,0,3,6,1,7,2,nan,nan,nan,nan,nan,nan,nan,nan,nan,nan,nan,nan,0.0,nan,nan,nan,nan,nan,nan,nan,nan,nan,nan,nan,nan,nan,nan,nan,nan,nan,nan,214.90023968042806,474.7227455797838,nan,nan,nan,nan,nan,nan
1,165,1,1,1.0,1.0,0.41127589996904135,1,6,8,2,7,5,1,1.0,1.0,1.0,1.0,1.0,1.0,0.0,0.0,0.0,0.0,0.0,1.0,1.0,5.0,4.0,6.0,5.0,4.0,1.0,3.0,2.0,1.0,6.0,5.0,4.0,6.828972168033943,5.701523012830876,3.796436410630122,11.39665416709613,8.772887172875926,7.7329075515735894,214.90023968042806,475.72286674566567,476.5312783403788,476.1341426456347,488.97453177929856,489.979146347614,477.53974227863364,488.9662032616325
1,166,1,1,1.0,1.0,0.31878553552087396,0,1,4,8,0,7,3,nan,nan,nan,nan,nan,nan,nan,nan,nan,nan,nan,nan,0.0,nan,nan,nan,nan,nan,nan,nan,nan,nan,nan,nan,nan,nan,nan,nan,nan,nan,nan,214.90023968042806,490.18305490352213,nan,490.501840439043,nan,nan,nan,nan
1,167,0,0,1.0,0.0,0.518626052653417,0,5,0,4,6,2,8,nan,nan,nan,nan,nan,nan,nan,nan,nan,nan,nan,nan,0.0,nan,nan,nan,nan,nan,nan,nan,nan,nan,nan,nan,nan,nan,nan,nan,nan,nan,nan,214.90023968042806,491.1831786353141,nan,491.7018046879675,nan,nan,nan,nan
1,168,1,1,1.0,1.0,0.5584890694590285,0,1,7,2,8,5,0,nan,nan,nan,nan,nan,nan,nan,nan,nan,nan,nan,nan,0.0,nan,nan,nan,nan,nan,nan,nan,nan,nan,nan,nan,nan,nan,nan,nan,nan,nan,nan,214.90023968042806,492.18329837580677,nan,492.7417874452658,nan,nan,nan,nan
1,169,1,1,1.0,1.0,0.5343436955008656,0,6,1,8,0,2,4,nan,nan,nan,nan,nan,nan,nan,nan,nan,nan,nan,nan,0.0,nan,nan,nan,nan,nan,nan,nan,nan,nan,nan,nan,nan,nan,nan,nan,nan,nan,nan,214.90023968042806,493.18342866480816,nan,493.717772360309,nan,nan,nan,nan
1,170,1,1,1.0,1.0,0.2781741408398375,0,3,8,6,4,7,0,nan,nan,nan,nan,nan,nan,nan,nan,nan,nan,nan,nan,0.0,nan,nan,nan,nan,nan,nan,nan,nan,nan,nan,nan,nan,nan,nan,nan,nan,nan,nan,214.90023968042806,494.18356380041223,nan,494.46173794125207,nan,nan,nan,nan
1,171,1,1,1.0,1.0,0.2620331299258396,0,2,3,8,7,5,4,nan,nan,nan,nan,nan,nan,nan,nan,nan,nan,nan,nan,0.0,nan,nan,nan,nan,nan,nan,nan,nan,nan,nan,nan,nan,nan,nan,nan,nan,nan,nan,214.90023968042806,495.18368582159746,nan,495.4457189515233,nan,nan,nan,nan
1,172,1,1,1.0,1.0,0.2618843097006902,1,7,6,0,5,4,3,1.0,1.0,1.0,1.0,1.0,1.0,0.0,0.0,0.0,0.0,0.0,0.0,0.0,4.0,5.0,7.0,4.0,5.0,1.0,4.0,5.0,6.0,1.0,2.0,3.0,6.072042974294163,7.175400068517774,8.174903715844266,2.863752203527838,4.24119629827328,5.143848178326152,214.90023968042806,496.1838203869993,496.99223255191464,496.4457046967,506.22669516108,507.23239223996643,498.0090264332248,506.2183663584292
1,173,1,1,1.0,1.0,0.7141787216532975,0,4,0,3,2,7,1,nan,nan,nan,nan,nan,nan,nan,nan,nan,nan,nan,nan,0.0,nan,nan,nan,nan,nan,nan,nan,nan,nan,nan,nan,nan,nan,nan,nan,nan,nan,nan,214.90023968042806,507.4352601945866,nan,508.1494389162399,nan,nan,nan,nan
1,174,1,1,1.0,1.0,0.5220389401074499,0,8,3,2,7,4,6,nan,nan,nan,nan,nan,nan,nan,nan,nan,nan,nan,nan,0.0,nan,nan,nan,nan,nan,nan,nan,nan,nan,nan,nan,nan,nan,nan,nan,nan,nan,nan,214.90023968042806,508.43538107536733,nan,508.9574200154748,nan,nan,nan,nan
1,175,1,1,1.0,1.0,0.28987164108548313,0,3,6,4,5,8,0,nan,nan,nan,nan,nan,nan,nan,nan,nan,nan,nan,nan,0.0,nan,nan,nan,nan,nan,nan,nan,nan,nan,nan,nan,nan,nan,nan,nan,nan,nan,nan,214.90023968042806,509.43550936866086,nan,509.72538100974634,nan,nan,nan,nan
1,176,1,1,1.0,1.0,0.3297192627796903,0,8,5,1,6,0,4,nan,nan,nan,nan,nan,nan,nan,nan,nan,nan,nan,nan,0.0,nan,nan,nan,nan,nan,nan,nan,nan,nan,nan,nan,nan,nan,nan,nan,nan,nan,nan,214.90023968042806,510.43566246540286,nan,510.76538172818255,nan,nan,nan,nan
1,177,1,1,1.0,1.0,0.2735735421301797,0,1,8,0,5,2,6,nan,nan,nan,nan,nan,nan,nan,nan,nan,nan,nan,nan,0.0,nan,nan,nan,nan,nan,nan,nan,nan,nan,nan,nan,nan,nan,nan,nan,nan,nan,nan,214.90023968042806,511.43576367455535,nan,511.7093372166855,nan,nan,nan,nan
1,178,1,1,1.0,1.0,0.32143807131797075,0,6,2,1,3,4,0,nan,nan,nan,nan,nan,nan,nan,nan,nan,nan,nan,nan,0.0,nan,nan,nan,nan,nan,nan,nan,nan,nan,nan,nan,nan,nan,nan,nan,nan,nan,nan,214.90023968042806,512.43589225295,nan,512.757330324268,nan,nan,nan,nan
1,179,1,1,1.0,1.0,0.32128497457597405,0,8,4,6,7,5,3,nan,nan,nan,nan,nan,nan,nan,nan,nan,nan,nan,nan,0.0,nan,nan,nan,nan,nan,nan,nan,nan,nan,nan,nan,nan,nan,nan,nan,nan,nan,nan,214.90023968042806,513.4360236823559,nan,513.7573086569319,nan,nan,nan,nan
1,180,1,1,1.0,1.0,0.2971139418659732,0,0,3,8,4,2,1,nan,nan,nan,nan,nan,nan,nan,nan,nan,nan,nan,nan,0.0,nan,nan,nan,nan,nan,nan,nan,nan,nan,nan,nan,nan,nan,nan,nan,nan,nan,nan,214.90023968042806,514.4361474141479,nan,514.7332613560138,nan,nan,nan,nan
1,181,1,1,1.0,1.0,0.32895377930253744,0,8,5,4,6,1,7,nan,nan,nan,nan,nan,nan,nan,nan,nan,nan,nan,nan,0.0,nan,nan,nan,nan,nan,nan,nan,nan,nan,nan,nan,nan,nan,nan,nan,nan,nan,nan,214.90023968042806,515.4362836901564,nan,515.765237469459,nan,nan,nan,nan
1,182,1,1,1.0,1.0,0.312809917377308,0,5,1,2,7,8,0,nan,nan,nan,nan,nan,nan,nan,nan,nan,nan,nan,nan,0.0,nan,nan,nan,nan,nan,nan,nan,nan,nan,nan,nan,nan,nan,nan,nan,nan,nan,nan,214.90023968042806,516.4364108431619,nan,516.7492207605392,nan,nan,nan,nan
1,183,0,0,nan,nan,nan,0,1,7,5,0,3,4,nan,nan,nan,nan,nan,nan,nan,nan,nan,nan,nan,nan,0.0,nan,nan,nan,nan,nan,nan,nan,nan,nan,nan,nan,nan,nan,nan,nan,nan,nan,nan,214.90023968042806,517.4365337196505,nan,nan,nan,nan,nan,nan
1,184,1,1,1.0,1.0,0.44048857514280826,0,0,4,3,2,1,7,nan,nan,nan,nan,nan,nan,nan,nan,nan,nan,nan,nan,0.0,nan,nan,nan,nan,nan,nan,nan,nan,nan,nan,nan,nan,nan,nan,nan,nan,nan,nan,214.90023968042806,518.4366628682474,nan,518.8771514433902,nan,nan,nan,nan
1,185,1,1,1.0,1.0,0.34435325488448143,0,4,5,2,6,8,1,nan,nan,nan,nan,nan,nan,nan,nan,nan,nan,nan,nan,0.0,nan,nan,nan,nan,nan,nan,nan,nan,nan,nan,nan,nan,nan,nan,nan,nan,nan,nan,214.90023968042806,519.4368037057575,nan,519.781156960642,nan,nan,nan,nan
1,186,1,1,1.0,1.0,0.25621973164379597,0,2,1,4,8,5,7,nan,nan,nan,nan,nan,nan,nan,nan,nan,nan,nan,nan,0.0,nan,nan,nan,nan,nan,nan,nan,nan,nan,nan,nan,nan,nan,nan,nan,nan,nan,nan,214.90023968042806,520.4369140380295,nan,520.6931337696733,nan,nan,nan,nan
1,187,1,1,1.0,1.0,0.3760454123839736,0,5,2,6,3,4,8,nan,nan,nan,nan,nan,nan,nan,nan,nan,nan,nan,nan,0.0,nan,nan,nan,nan,nan,nan,nan,nan,nan,nan,nan,nan,nan,nan,nan,nan,nan,nan,214.90023968042806,521.4370537352515,nan,521.8130991476355,nan,nan,nan,nan
1,188,1,1,1.0,1.0,0.3599160904996097,0,4,8,1,2,7,0,nan,nan,nan,nan,nan,nan,nan,nan,nan,nan,nan,nan,0.0,nan,nan,nan,nan,nan,nan,nan,nan,nan,nan,nan,nan,nan,nan,nan,nan,nan,nan,214.90023968042806,522.43717404583,nan,522.7970901363296,nan,nan,nan,nan
1,189,0,0,1.0,0.0,0.2957403480540961,0,0,7,4,6,2,8,nan,nan,nan,nan,nan,nan,nan,nan,nan,nan,nan,nan,0.0,nan,nan,nan,nan,nan,nan,nan,nan,nan,nan,nan,nan,nan,nan,nan,nan,nan,nan,214.90023968042806,523.4373117473442,nan,523.7330520953983,nan,nan,nan,nan
1,190,1,1,1.0,1.0,0.42358778277412057,0,4,1,7,0,3,5,nan,nan,nan,nan,nan,nan,nan,nan,nan,nan,nan,nan,0.0,nan,nan,nan,nan,nan,nan,nan,nan,nan,nan,nan,nan,nan,nan,nan,nan,nan,nan,214.90023968042806,524.4374394704355,nan,524.8610272532096,nan,nan,nan,nan
1,191,1,1,1.0,1.0,0.27947275433689356,0,0,5,2,8,6,7,nan,nan,nan,nan,nan,nan,nan,nan,nan,nan,nan,nan,0.0,nan,nan,nan,nan,nan,nan,nan,nan,nan,nan,nan,nan,nan,nan,nan,nan,nan,nan,214.90023968042806,525.4375583556248,nan,525.7170311099617,nan,nan,nan,nan
1,192,1,1,1.0,1.0,0.19131528318393975,0,3,4,6,1,5,8,nan,nan,nan,nan,nan,nan,nan,nan,nan,nan,nan,nan,0.0,nan,nan,nan,nan,nan,nan,nan,nan,nan,nan,nan,nan,nan,nan,nan,nan,nan,nan,214.90023968042806,526.437688359525,nan,526.629003642709,nan,nan,nan,nan
1,193,0,0,1.0,0.0,0.25516544573474675,0,1,3,5,0,7,6,nan,nan,nan,nan,nan,nan,nan,nan,nan,nan,nan,nan,0.0,nan,nan,nan,nan,nan,nan,nan,nan,nan,nan,nan,nan,nan,nan,nan,nan,nan,nan,214.90023968042806,527.4378169379197,nan,527.6929823836545,nan,nan,nan,nan
1,194,1,1,1.0,1.0,0.38302399904932827,0,2,1,6,4,5,8,nan,nan,nan,nan,nan,nan,nan,nan,nan,nan,nan,nan,0.0,nan,nan,nan,nan,nan,nan,nan,nan,nan,nan,nan,nan,nan,nan,nan,nan,nan,nan,214.90023968042806,528.4379458015319,nan,528.8209698005812,nan,nan,nan,nan
1,195,1,1,1.0,1.0,0.26286789181176573,0,5,4,1,8,3,0,nan,nan,nan,nan,nan,nan,nan,nan,nan,nan,nan,nan,0.0,nan,nan,nan,nan,nan,nan,nan,nan,nan,nan,nan,nan,nan,nan,nan,nan,nan,nan,214.90023968042806,529.4380766606191,nan,529.7009445524309,nan,nan,nan,nan
1,196,1,1,1.0,1.0,0.28672303771600127,0,8,7,5,2,0,6,nan,nan,nan,nan,nan,nan,nan,nan,nan,nan,nan,nan,0.0,nan,nan,nan,nan,nan,nan,nan,nan,nan,nan,nan,nan,nan,nan,nan,nan,nan,nan,214.90023968042806,530.4381983968196,nan,530.7249214345356,nan,nan,nan,nan
1,197,1,1,1.0,1.0,0.39026116812601686,0,2,8,0,5,7,3,nan,nan,nan,nan,nan,nan,nan,nan,nan,nan,nan,nan,0.0,nan,nan,nan,nan,nan,nan,nan,nan,nan,nan,nan,nan,nan,nan,nan,nan,nan,nan,214.90023968042806,531.4466383870458,nan,531.8368995551718,nan,nan,nan,nan
1,198,1,1,1.0,1.0,0.29407510068267584,0,3,1,2,4,6,0,nan,nan,nan,nan,nan,nan,nan,nan,nan,nan,nan,nan,0.0,nan,nan,nan,nan,nan,nan,nan,nan,nan,nan,nan,nan,nan,nan,nan,nan,nan,nan,214.90023968042806,532.4467926240759,nan,532.7408677247586,nan,nan,nan,nan
1,199,1,1,1.0,1.0,0.4059158047894016,0,7,2,0,1,5,6,nan,nan,nan,nan,nan,nan,nan,nan,nan,nan,nan,nan,0.0,nan,nan,nan,nan,nan,nan,nan,nan,nan,nan,nan,nan,nan,nan,nan,nan,nan,nan,214.90023968042806,533.4469231981784,nan,533.8528390029678,nan,nan,nan,nan
1,200,1,1,1.0,1.0,0.3257527182577178,0,4,5,3,6,8,0,nan,nan,nan,nan,nan,nan,nan,nan,nan,nan,nan,nan,0.0,nan,nan,nan,nan,nan,nan,nan,nan,nan,nan,nan,nan,nan,nan,nan,nan,nan,nan,214.90023968042806,534.4470489256782,nan,534.772801643936,nan,nan,nan,nan
1,201,1,1,1.0,1.0,0.28560945170465857,0,5,0,4,8,2,7,nan,nan,nan,nan,nan,nan,nan,nan,nan,nan,nan,nan,0.0,nan,nan,nan,nan,nan,nan,nan,nan,nan,nan,nan,nan,nan,nan,nan,nan,nan,nan,214.90023968042806,535.4471797848819,nan,535.7327892365865,nan,nan,nan,nan
1,202,1,1,1.0,1.0,0.2934684158535674,1,3,1,6,2,0,4,1.0,1.0,1.0,1.0,1.0,1.0,0.0,0.0,0.0,0.0,0.0,0.0,0.0,7.0,7.0,3.0,5.0,4.0,5.0,3.0,2.0,1.0,6.0,5.0,4.0,3.7683903492288664,2.991526368423365,2.087095772731118,6.790447678184137,5.854474600404501,4.63873996573966,214.90023968042806,536.4473112141714,537.2557210982777,536.7407796300249,545.09838415985,546.1066975672729,538.2725246729096,545.0900573527906
1,203,1,1,nan,nan,nan,0,2,7,1,0,3,6,nan,nan,nan,nan,nan,nan,nan,nan,nan,nan,nan,nan,0.0,nan,nan,nan,nan,nan,nan,nan,nan,nan,nan,nan,nan,nan,nan,nan,nan,nan,nan,214.90023968042806,546.3069095648825,nan,nan,nan,nan,nan,nan
1,204,1,1,1.0,1.0,0.4894775239517912,0,1,2,5,8,7,3,nan,nan,nan,nan,nan,nan,nan,nan,nan,nan,nan,nan,0.0,nan,nan,nan,nan,nan,nan,nan,nan,nan,nan,nan,nan,nan,nan,nan,nan,nan,nan,214.90023968042806,547.3070284500718,nan,547.7965059740236,nan,nan,nan,nan
1,205,1,1,1.0,1.0,0.2653205750975758,0,5,3,1,7,4,0,nan,nan,nan,nan,nan,nan,nan,nan,nan,nan,nan,nan,0.0,nan,nan,nan,nan,nan,nan,nan,nan,nan,nan,nan,nan,nan,nan,nan,nan,nan,nan,214.90023968042806,548.3071618750691,nan,548.5724824501667,nan,nan,nan,nan
1,206,0,0,1.0,0.0,0.20118759712204337,0,7,2,8,5,1,3,nan,nan,nan,nan,nan,nan,nan,nan,nan,nan,nan,nan,0.0,nan,nan,nan,nan,nan,nan,nan,nan,nan,nan,nan,nan,nan,nan,nan,nan,nan,nan,214.90023968042806,549.3072838962544,nan,549.5084714933764,nan,nan,nan,nan
1,207,1,1,1.0,1.0,0.2970321192406118,0,8,6,1,0,2,7,nan,nan,nan,nan,nan,nan,nan,nan,nan,nan,nan,nan,0.0,nan,nan,nan,nan,nan,nan,nan,nan,nan,nan,nan,nan,nan,nan,nan,nan,nan,nan,214.90023968042806,550.307409053552,nan,550.6044411727926,nan,nan,nan,nan
1,208,1,1,1.0,1.0,0.2568666151491925,0,6,1,0,7,5,4,nan,nan,nan,nan,nan,nan,nan,nan,nan,nan,nan,nan,0.0,nan,nan,nan,nan,nan,nan,nan,nan,nan,nan,nan,nan,nan,nan,nan,nan,nan,nan,214.90023968042806,551.3075444742572,nan,551.5644110894063,nan,nan,nan,nan
1,209,1,1,1.0,1.0,0.3047334250295535,0,0,7,5,4,8,1,nan,nan,nan,nan,nan,nan,nan,nan,nan,nan,nan,nan,0.0,nan,nan,nan,nan,nan,nan,nan,nan,nan,nan,nan,nan,nan,nan,nan,nan,nan,nan,214.90023968042806,552.3076642147498,nan,552.6123976397794,nan,nan,nan,nan
1,210,0,0,0.0,1.0,0.4725921266945079,0,6,8,4,1,2,5,nan,nan,nan,nan,nan,nan,nan,nan,nan,nan,nan,nan,0.0,nan,nan,nan,nan,nan,nan,nan,nan,nan,nan,nan,nan,nan,nan,nan,nan,nan,nan,214.90023968042806,553.307780534029,nan,553.7803726607235,nan,nan,nan,nan
1,211,1,1,1.0,1.0,0.5684038628824055,0,2,3,1,8,0,6,nan,nan,nan,nan,nan,nan,nan,nan,nan,nan,nan,nan,0.0,nan,nan,nan,nan,nan,nan,nan,nan,nan,nan,nan,nan,nan,nan,nan,nan,nan,nan,214.90023968042806,554.3079353412613,nan,554.8763392041437,nan,nan,nan,nan
1,212,1,1,1.0,1.0,0.488257882068865,0,5,4,0,7,6,1,nan,nan,nan,nan,nan,nan,nan,nan,nan,nan,nan,nan,0.0,nan,nan,nan,nan,nan,nan,nan,nan,nan,nan,nan,nan,nan,nan,nan,nan,nan,nan,214.90023968042806,555.3080565072596,nan,555.7963143893285,nan,nan,nan,nan
1,213,1,1,1.0,1.0,0.43211843364406377,0,3,7,8,0,1,2,nan,nan,nan,nan,nan,nan,nan,nan,nan,nan,nan,nan,0.0,nan,nan,nan,nan,nan,nan,nan,nan,nan,nan,nan,nan,nan,nan,nan,nan,nan,nan,214.90023968042806,556.3081816644408,nan,556.7403000980848,nan,nan,nan,nan
1,214,0,0,0.0,1.0,0.5119659184711054,0,2,0,5,7,4,1,nan,nan,nan,nan,nan,nan,nan,nan,nan,nan,nan,nan,0.0,nan,nan,nan,nan,nan,nan,nan,nan,nan,nan,nan,nan,nan,nan,nan,nan,nan,nan,214.90023968042806,557.3083222169662,nan,557.8202881354373,nan,nan,nan,nan
1,215,1,1,1.0,1.0,0.6398059406783432,0,0,4,7,2,8,6,nan,nan,nan,nan,nan,nan,nan,nan,nan,nan,nan,nan,0.0,nan,nan,nan,nan,nan,nan,nan,nan,nan,nan,nan,nan,nan,nan,nan,nan,nan,nan,214.90023968042806,558.3084516506642,nan,558.9482575913426,nan,nan,nan,nan
1,216,1,1,1.0,1.0,0.5356816523708403,0,8,0,1,7,5,4,nan,nan,nan,nan,nan,nan,nan,nan,nan,nan,nan,nan,0.0,nan,nan,nan,nan,nan,nan,nan,nan,nan,nan,nan,nan,nan,nan,nan,nan,nan,nan,214.90023968042806,559.3085665444378,nan,559.8442481968086,nan,nan,nan,nan
1,217,1,1,1.0,1.0,0.511493228841573,0,5,8,6,4,3,7,nan,nan,nan,nan,nan,nan,nan,nan,nan,nan,nan,nan,0.0,nan,nan,nan,nan,nan,nan,nan,nan,nan,nan,nan,nan,nan,nan,nan,nan,nan,nan,214.90023968042806,560.3087190709775,nan,560.8202122998191,nan,nan,nan,nan
1,218,0,0,0.0,1.0,0.4793759926687926,0,4,5,0,1,6,3,nan,nan,nan,nan,nan,nan,nan,nan,nan,nan,nan,nan,0.0,nan,nan,nan,nan,nan,nan,nan,nan,nan,nan,nan,nan,nan,nan,nan,nan,nan,nan,214.90023968042806,561.3088319690432,nan,561.788207961712,nan,nan,nan,nan
1,219,1,1,1.0,1.0,0.3912570094689727,0,1,8,6,4,7,2,nan,nan,nan,nan,nan,nan,nan,nan,nan,nan,nan,nan,0.0,nan,nan,nan,nan,nan,nan,nan,nan,nan,nan,nan,nan,nan,nan,nan,nan,nan,nan,214.90023968042806,562.3089086599648,nan,562.7001656694338,nan,nan,nan,nan
1,220,1,1,1.0,1.0,0.3350793579593301,0,8,7,2,3,0,4,nan,nan,nan,nan,nan,nan,nan,nan,nan,nan,nan,nan,0.0,nan,nan,nan,nan,nan,nan,nan,nan,nan,nan,nan,nan,nan,nan,nan,nan,nan,nan,214.90023968042806,563.3090751562268,nan,563.6441545141861,nan,nan,nan,nan
1,221,1,1,1.0,1.0,0.33492882712744176,0,3,0,4,5,1,2,nan,nan,nan,nan,nan,nan,nan,nan,nan,nan,nan,nan,0.0,nan,nan,nan,nan,nan,nan,nan,nan,nan,nan,nan,nan,nan,nan,nan,nan,nan,nan,214.90023968042806,564.3092048750259,nan,564.6441337021533,nan,nan,nan,nan
1,222,1,1,1.0,1.0,0.4947697662282735,0,7,6,8,0,2,5,nan,nan,nan,nan,nan,nan,nan,nan,nan,nan,nan,nan,0.0,nan,nan,nan,nan,nan,nan,nan,nan,nan,nan,nan,nan,nan,nan,nan,nan,nan,nan,214.90023968042806,565.3093323130161,nan,565.8041020792443,nan,nan,nan,nan
1,223,0,0,1.0,0.0,0.3826146008213982,0,3,0,6,1,5,2,nan,nan,nan,nan,nan,nan,nan,nan,nan,nan,nan,nan,0.0,nan,nan,nan,nan,nan,nan,nan,nan,nan,nan,nan,nan,nan,nan,nan,nan,nan,nan,214.90023968042806,566.3094608915271,nan,566.6920754923485,nan,nan,nan,nan
1,224,1,1,1.0,1.0,0.40646632574498653,0,5,7,0,6,3,4,nan,nan,nan,nan,nan,nan,nan,nan,nan,nan,nan,nan,0.0,nan,nan,nan,nan,nan,nan,nan,nan,nan,nan,nan,nan,nan,nan,nan,nan,nan,nan,214.90023968042806,567.3095891848207,nan,567.7160555105656,nan,nan,nan,nan
1,225,1,1,1.0,1.0,0.41433868918102235,0,4,6,3,8,7,0,nan,nan,nan,nan,nan,nan,nan,nan,nan,nan,nan,nan,0.0,nan,nan,nan,nan,nan,nan,nan,nan,nan,nan,nan,nan,nan,nan,nan,nan,nan,nan,214.90023968042806,568.3097191887209,nan,568.7240578779019,nan,nan,nan,nan
1,226,1,1,1.0,1.0,0.40616298327222466,0,0,3,2,7,6,5,nan,nan,nan,nan,nan,nan,nan,nan,nan,nan,nan,nan,0.0,nan,nan,nan,nan,nan,nan,nan,nan,nan,nan,nan,nan,nan,nan,nan,nan,nan,nan,214.90023968042806,569.3098480522167,nan,569.7160110354889,nan,nan,nan,nan
1,227,1,1,1.0,1.0,0.4780203598784283,0,8,7,4,3,2,0,nan,nan,nan,nan,nan,nan,nan,nan,nan,nan,nan,nan,0.0,nan,nan,nan,nan,nan,nan,nan,nan,nan,nan,nan,nan,nan,nan,nan,nan,nan,nan,214.90023968042806,570.3099763455102,nan,570.7879967053887,nan,nan,nan,nan
1,228,0,0,0.0,1.0,0.5338544702390209,0,6,4,7,8,1,2,nan,nan,nan,nan,nan,nan,nan,nan,nan,nan,nan,nan,0.0,nan,nan,nan,nan,nan,nan,nan,nan,nan,nan,nan,nan,nan,nan,nan,nan,nan,nan,214.90023968042806,571.3101049240213,nan,571.8439593942603,nan,nan,nan,nan
1,229,1,1,1.0,1.0,0.38170257792808115,0,3,6,5,0,2,8,nan,nan,nan,nan,nan,nan,nan,nan,nan,nan,nan,nan,0.0,nan,nan,nan,nan,nan,nan,nan,nan,nan,nan,nan,nan,nan,nan,nan,nan,nan,nan,214.90023968042806,572.3102386341197,nan,572.6919412120478,nan,nan,nan,nan
1,230,1,1,1.0,1.0,0.381564591312781,0,8,3,1,7,4,5,nan,nan,nan,nan,nan,nan,nan,nan,nan,nan,nan,nan,0.0,nan,nan,nan,nan,nan,nan,nan,nan,nan,nan,nan,nan,nan,nan,nan,nan,nan,nan,214.90023968042806,573.310360655305,nan,573.6919252466178,nan,nan,nan,nan
1,231,1,1,1.0,1.0,0.42139653279446065,0,7,2,5,1,3,0,nan,nan,nan,nan,nan,nan,nan,nan,nan,nan,nan,nan,0.0,nan,nan,nan,nan,nan,nan,nan,nan,nan,nan,nan,nan,nan,nan,nan,nan,nan,nan,214.90023968042806,574.3104972164147,nan,574.7318937492091,nan,nan,nan,nan
1,232,1,1,1.0,1.0,0.4852298744954169,0,1,3,8,6,0,5,nan,nan,nan,nan,nan,nan,nan,nan,nan,nan,nan,nan,0.0,nan,nan,nan,nan,nan,nan,nan,nan,nan,nan,nan,nan,nan,nan,nan,nan,nan,nan,214.90023968042806,575.3106243694201,nan,575.7958542439155,nan,nan,nan,nan
1,233,1,1,1.0,1.0,0.5490937216673046,1,6,1,7,3,5,0,1.0,1.0,1.0,1.0,1.0,1.0,0.0,0.0,1.0,0.0,0.0,0.0,1.0,3.0,5.0,7.0,5.0,4.0,1.0,3.0,2.0,1.0,6.0,5.0,4.0,3.159701241995208,1.974688297137618,0.9591072152834386,8.158130361465737,5.318255256395787,4.030949481879361,214.90023968042806,576.3107466757065,577.119160266011,576.8598403973738,586.3286732445704,587.3365778239677,578.1276250595693,586.3203384549124
1,234,1,1,1.0,1.0,0.5144174613524228,0,3,2,8,5,7,4,nan,nan,nan,nan,nan,nan,nan,nan,nan,nan,nan,nan,0.0,nan,nan,nan,nan,nan,nan,nan,nan,nan,nan,nan,nan,nan,nan,nan,nan,nan,nan,214.90023968042806,587.5371618722565,nan,588.051579333609,nan,nan,nan,nan
1,235,1,1,1.0,1.0,0.2903158210683614,0,7,0,6,4,1,8,nan,nan,nan,nan,nan,nan,nan,nan,nan,nan,nan,nan,0.0,nan,nan,nan,nan,nan,nan,nan,nan,nan,nan,nan,nan,nan,nan,nan,nan,nan,nan,214.90023968042806,588.5372773362324,nan,588.8275931573007,nan,nan,nan,nan
1,236,1,1,1.0,1.0,0.3940959981409833,0,0,1,2,3,7,6,nan,nan,nan,nan,nan,nan,nan,nan,nan,nan,nan,nan,0.0,nan,nan,nan,nan,nan,nan,nan,nan,nan,nan,nan,nan,nan,nan,nan,nan,nan,nan,214.90023968042806,589.5374344242737,nan,589.9315304224147,nan,nan,nan,nan
1,237,1,1,1.0,1.0,0.3215851809363812,0,7,8,5,4,2,3,nan,nan,nan,nan,nan,nan,nan,nan,nan,nan,nan,nan,0.0,nan,nan,nan,nan,nan,nan,nan,nan,nan,nan,nan,nan,nan,nan,nan,nan,nan,nan,214.90023968042806,590.5459225957748,nan,590.8675077767111,nan,nan,nan,nan
1,238,1,1,1.0,1.0,0.25745876017026603,0,3,0,7,6,8,2,nan,nan,nan,nan,nan,nan,nan,nan,nan,nan,nan,nan,0.0,nan,nan,nan,nan,nan,nan,nan,nan,nan,nan,nan,nan,nan,nan,nan,nan,nan,nan,214.90023968042806,591.5460369193461,nan,591.8034956795163,nan,nan,nan,nan
1,239,1,1,1.0,1.0,0.2492973089683801,0,6,5,8,1,2,0,nan,nan,nan,nan,nan,nan,nan,nan,nan,nan,nan,nan,0.0,nan,nan,nan,nan,nan,nan,nan,nan,nan,nan,nan,nan,nan,nan,nan,nan,nan,nan,214.90023968042806,592.5461686338531,nan,592.7954659428215,nan,nan,nan,nan
1,240,1,1,1.0,1.0,0.20914976589847356,0,2,3,4,0,8,6,nan,nan,nan,nan,nan,nan,nan,nan,nan,nan,nan,nan,0.0,nan,nan,nan,nan,nan,nan,nan,nan,nan,nan,nan,nan,nan,nan,nan,nan,nan,nan,214.90023968042806,593.5462929358473,nan,593.7554427017458,nan,nan,nan,nan
1,241,1,1,1.0,1.0,0.27301589387934655,0,8,0,5,4,2,7,nan,nan,nan,nan,nan,nan,nan,nan,nan,nan,nan,nan,0.0,nan,nan,nan,nan,nan,nan,nan,nan,nan,nan,nan,nan,nan,nan,nan,nan,nan,nan,214.90023968042806,594.5464152421337,nan,594.819431136013,nan,nan,nan,nan
1,242,0,0,1.0,0.0,0.27286707353778183,0,2,4,0,3,5,1,nan,nan,nan,nan,nan,nan,nan,nan,nan,nan,nan,nan,0.0,nan,nan,nan,nan,nan,nan,nan,nan,nan,nan,nan,nan,nan,nan,nan,nan,nan,nan,214.90023968042806,595.5465275701135,nan,595.8193946436513,nan,nan,nan,nan
1,243,1,1,nan,nan,nan,0,3,1,7,5,2,6,nan,nan,nan,nan,nan,nan,nan,nan,nan,nan,nan,nan,0.0,nan,nan,nan,nan,nan,nan,nan,nan,nan,nan,nan,nan,nan,nan,nan,nan,nan,nan,214.90023968042806,596.5466438893927,nan,nan,nan,nan,nan,nan
1,244,1,1,0.0,0.0,0.12055267614778131,0,1,6,0,3,4,5,nan,nan,nan,nan,nan,nan,nan,nan,nan,nan,nan,nan,0.0,nan,nan,nan,nan,nan,nan,nan,nan,nan,nan,nan,nan,nan,nan,nan,nan,nan,nan,214.90023968042806,597.5468026880408,nan,597.6673553641886,nan,nan,nan,nan
1,245,1,1,nan,nan,nan,0,0,8,4,1,2,3,nan,nan,nan,nan,nan,nan,nan,nan,nan,nan,nan,nan,0.0,nan,nan,nan,nan,nan,nan,nan,nan,nan,nan,nan,nan,nan,nan,nan,nan,nan,nan,214.90023968042806,598.5469232837204,nan,nan,nan,nan,nan,nan
1,246,1,1,1.0,1.0,0.5198915950022638,0,4,2,8,0,6,5,nan,nan,nan,nan,nan,nan,nan,nan,nan,nan,nan,nan,0.0,nan,nan,nan,nan,nan,nan,nan,nan,nan,nan,nan,nan,nan,nan,nan,nan,nan,nan,214.90023968042806,599.5553838008782,nan,600.0752753958805,nan,nan,nan,nan
1,247,0,0,1.0,0.0,0.4157559028826654,0,1,8,6,4,7,2,nan,nan,nan,nan,nan,nan,nan,nan,nan,nan,nan,nan,0.0,nan,nan,nan,nan,nan,nan,nan,nan,nan,nan,nan,nan,nan,nan,nan,nan,nan,nan,214.90023968042806,600.5555135196773,nan,600.97126942256,nan,nan,nan,nan
1,248,1,1,1.0,1.0,0.431603264529258,0,6,5,0,7,1,4,nan,nan,nan,nan,nan,nan,nan,nan,nan,nan,nan,nan,0.0,nan,nan,nan,nan,nan,nan,nan,nan,nan,nan,nan,nan,nan,nan,nan,nan,nan,nan,214.90023968042806,601.5556592039065,nan,601.9872624684358,nan,nan,nan,nan
1,249,0,0,0.0,1.0,0.46346847561653703,0,4,7,1,8,5,3,nan,nan,nan,nan,nan,nan,nan,nan,nan,nan,nan,nan,0.0,nan,nan,nan,nan,nan,nan,nan,nan,nan,nan,nan,nan,nan,nan,nan,nan,nan,nan,214.90023968042806,602.5557678255718,nan,603.0192363011884,nan,nan,nan,nan
1,250,1,1,1.0,1.0,0.3109821652760729,0,1,6,8,7,2,0,nan,nan,nan,nan,nan,nan,nan,nan,nan,nan,nan,nan,0.0,nan,nan,nan,nan,nan,nan,nan,nan,nan,nan,nan,nan,nan,nan,nan,nan,nan,nan,214.90023968042806,603.5642397465417,nan,603.8752219118178,nan,nan,nan,nan
1,251,1,1,1.0,1.0,0.5828254580264911,0,8,5,2,3,0,6,nan,nan,nan,nan,nan,nan,nan,nan,nan,nan,nan,nan,0.0,nan,nan,nan,nan,nan,nan,nan,nan,nan,nan,nan,nan,nan,nan,nan,nan,nan,nan,214.90023968042806,604.5643611976411,nan,605.1471866556676,nan,nan,nan,nan
1,252,1,1,1.0,1.0,0.4066798627609387,0,1,7,6,0,2,3,nan,nan,nan,nan,nan,nan,nan,nan,nan,nan,nan,nan,0.0,nan,nan,nan,nan,nan,nan,nan,nan,nan,nan,nan,nan,nan,nan,nan,nan,nan,nan,214.90023968042806,605.5644840741297,nan,605.9711639368907,nan,nan,nan,nan
1,253,1,1,1.0,1.0,0.3585399306612089,0,7,3,8,5,0,1,nan,nan,nan,nan,nan,nan,nan,nan,nan,nan,nan,nan,0.0,nan,nan,nan,nan,nan,nan,nan,nan,nan,nan,nan,nan,nan,nan,nan,nan,nan,nan,214.90023968042806,606.5646126525244,nan,606.9231525831856,nan,nan,nan,nan
1,254,1,1,1.0,1.0,0.4620563938515261,0,6,2,3,7,1,0,nan,nan,nan,nan,nan,nan,nan,nan,nan,nan,nan,nan,0.0,nan,nan,nan,nan,nan,nan,nan,nan,nan,nan,nan,nan,nan,nan,nan,nan,nan,nan,214.90023968042806,607.5730763056781,nan,608.0351326995296,nan,nan,nan,nan
1,255,1,1,1.0,1.0,0.285891697043553,0,0,4,8,5,6,2,nan,nan,nan,nan,nan,nan,nan,nan,nan,nan,nan,nan,0.0,nan,nan,nan,nan,nan,nan,nan,nan,nan,nan,nan,nan,nan,nan,nan,nan,nan,nan,214.90023968042806,608.573210015893,nan,608.8591017129365,nan,nan,nan,nan
1,256,1,1,1.0,1.0,0.3257376082474366,0,1,5,0,3,7,6,nan,nan,nan,nan,nan,nan,nan,nan,nan,nan,nan,nan,0.0,nan,nan,nan,nan,nan,nan,nan,nan,nan,nan,nan,nan,nan,nan,nan,nan,nan,nan,214.90023968042806,609.5733363134786,nan,609.8990739217261,nan,nan,nan,nan
1,257,1,1,1.0,1.0,0.26124768960289657,0,6,1,7,5,2,4,nan,nan,nan,nan,nan,nan,nan,nan,nan,nan,nan,nan,0.0,nan,nan,nan,nan,nan,nan,nan,nan,nan,nan,nan,nan,nan,nan,nan,nan,nan,nan,214.90023968042806,610.5818016773555,nan,610.8430493669584,nan,nan,nan,nan
1,258,1,1,1.0,1.0,0.2770922004710883,0,5,7,3,2,1,6,nan,nan,nan,nan,nan,nan,nan,nan,nan,nan,nan,nan,0.0,nan,nan,nan,nan,nan,nan,nan,nan,nan,nan,nan,nan,nan,nan,nan,nan,nan,nan,214.90023968042806,611.5819470763672,nan,611.8590392768383,nan,nan,nan,nan
1,259,1,1,1.0,1.0,0.4209583398187533,0,3,4,7,8,0,2,nan,nan,nan,nan,nan,nan,nan,nan,nan,nan,nan,nan,0.0,nan,nan,nan,nan,nan,nan,nan,nan,nan,nan,nan,nan,nan,nan,nan,nan,nan,nan,214.90023968042806,612.5820502812276,nan,613.0030086210463,nan,nan,nan,nan
1,260,1,1,1.0,1.0,0.29280442651361227,0,0,1,5,3,2,7,nan,nan,nan,nan,nan,nan,nan,nan,nan,nan,nan,nan,0.0,nan,nan,nan,nan,nan,nan,nan,nan,nan,nan,nan,nan,nan,nan,nan,nan,nan,nan,214.90023968042806,613.5821845616447,nan,613.8749889881583,nan,nan,nan,nan
1,261,1,1,1.0,1.0,0.2526497560320422,0,8,7,1,6,4,2,nan,nan,nan,nan,nan,nan,nan,nan,nan,nan,nan,nan,0.0,nan,nan,nan,nan,nan,nan,nan,nan,nan,nan,nan,nan,nan,nan,nan,nan,nan,nan,214.90023968042806,614.5823205525521,nan,614.8349703085842,nan,nan,nan,nan
1,262,1,1,1.0,1.0,0.2524718559579924,0,6,5,2,7,3,4,nan,nan,nan,nan,nan,nan,nan,nan,nan,nan,nan,nan,0.0,nan,nan,nan,nan,nan,nan,nan,nan,nan,nan,nan,nan,nan,nan,nan,nan,nan,nan,214.90023968042806,615.582479066099,nan,615.834950922057,nan,nan,nan,nan
1,263,1,1,1.0,1.0,0.30834473960567266,0,1,7,6,0,4,5,nan,nan,nan,nan,nan,nan,nan,nan,nan,nan,nan,nan,0.0,nan,nan,nan,nan,nan,nan,nan,nan,nan,nan,nan,nan,nan,nan,nan,nan,nan,nan,214.90023968042806,616.5825740031432,nan,616.8909187427489,nan,nan,nan,nan
1,264,1,1,1.0,1.0,0.30018556921277195,0,0,3,1,8,2,6,nan,nan,nan,nan,nan,nan,nan,nan,nan,nan,nan,nan,0.0,nan,nan,nan,nan,nan,nan,nan,nan,nan,nan,nan,nan,nan,nan,nan,nan,nan,nan,214.90023968042806,617.5827099940507,nan,617.8828955632634,nan,nan,nan,nan
1,265,1,1,1.0,1.0,0.28406052372884005,0,1,0,7,6,4,2,nan,nan,nan,nan,nan,nan,nan,nan,nan,nan,nan,nan,0.0,nan,nan,nan,nan,nan,nan,nan,nan,nan,nan,nan,nan,nan,nan,nan,nan,nan,nan,214.90023968042806,618.5828191859182,nan,618.866879709647,nan,nan,nan,nan
1,266,1,1,1.0,1.0,0.27556351420935243,0,6,7,3,0,1,8,nan,nan,nan,nan,nan,nan,nan,nan,nan,nan,nan,nan,0.0,nan,nan,nan,nan,nan,nan,nan,nan,nan,nan,nan,nan,nan,nan,nan,nan,nan,nan,214.90023968042806,619.5912865453865,nan,619.8668500595959,nan,nan,nan,nan
1,267,1,1,1.0,1.0,0.31537692435085773,0,1,0,5,3,2,4,nan,nan,nan,nan,nan,nan,nan,nan,nan,nan,nan,nan,0.0,nan,nan,nan,nan,nan,nan,nan,nan,nan,nan,nan,nan,nan,nan,nan,nan,nan,nan,214.90023968042806,620.5914476248436,nan,620.9068245491944,nan,nan,nan,nan
1,268,1,1,1.0,1.0,0.21127430337946862,0,4,8,7,2,6,3,nan,nan,nan,nan,nan,nan,nan,nan,nan,nan,nan,nan,0.0,nan,nan,nan,nan,nan,nan,nan,nan,nan,nan,nan,nan,nan,nan,nan,nan,nan,nan,214.90023968042806,621.591538570472,nan,621.8028128738515,nan,nan,nan,nan
1,269,1,1,1.0,1.0,0.23510949255432934,0,8,0,6,4,3,7,nan,nan,nan,nan,nan,nan,nan,nan,nan,nan,nan,nan,0.0,nan,nan,nan,nan,nan,nan,nan,nan,nan,nan,nan,nan,nan,nan,nan,nan,nan,nan,214.90023968042806,622.5916680042865,nan,622.8267774968408,nan,nan,nan,nan
1,270,1,1,1.0,1.0,0.3069500485435128,1,4,1,5,8,0,3,1.0,1.0,1.0,1.0,1.0,1.0,0.0,0.0,0.0,0.0,0.0,0.0,0.0,7.0,5.0,4.0,2.0,1.0,5.0,3.0,2.0,1.0,6.0,5.0,4.0,6.644495204207487,5.702184151043184,4.372582062729634,9.636109952465631,8.548600790207274,7.453111783019267,214.90023968042806,623.5918000037782,624.400214164285,623.8987500523217,635.0849139308557,636.0855000887532,625.4086786728585,635.0765845580027
1,271,1,1,1.0,1.0,0.5414149385178462,0,1,5,7,4,2,0,nan,nan,nan,nan,nan,nan,nan,nan,nan,nan,nan,nan,0.0,nan,nan,nan,nan,nan,nan,nan,nan,nan,nan,nan,nan,nan,nan,nan,nan,nan,nan,214.90023968042806,636.2850586457644,nan,636.8264735842822,nan,nan,nan,nan
1,272,1,1,1.0,1.0,0.333203709567897,0,0,7,4,6,3,8,nan,nan,nan,nan,nan,nan,nan,nan,nan,nan,nan,nan,0.0,nan,nan,nan,nan,nan,nan,nan,nan,nan,nan,nan,nan,nan,nan,nan,nan,nan,nan,214.90023968042806,637.2852245717077,nan,637.6184282812756,nan,nan,nan,nan
1,273,1,1,1.0,1.0,0.1967326826415956,0,1,8,5,0,6,4,nan,nan,nan,nan,nan,nan,nan,nan,nan,nan,nan,nan,0.0,nan,nan,nan,nan,nan,nan,nan,nan,nan,nan,nan,nan,nan,nan,nan,nan,nan,nan,214.90023968042806,638.2936845186632,nan,638.4904172013048,nan,nan,nan,nan
1,274,1,1,1.0,1.0,0.26058854709845036,0,2,1,6,4,7,8,nan,nan,nan,nan,nan,nan,nan,nan,nan,nan,nan,nan,0.0,nan,nan,nan,nan,nan,nan,nan,nan,nan,nan,nan,nan,nan,nan,nan,nan,nan,nan,214.90023968042806,639.2938048293581,nan,639.5543933764566,nan,nan,nan,nan
1,275,1,1,1.0,1.0,0.2604325993452221,0,3,2,4,7,0,6,nan,nan,nan,nan,nan,nan,nan,nan,nan,nan,nan,nan,0.0,nan,nan,nan,nan,nan,nan,nan,nan,nan,nan,nan,nan,nan,nan,nan,nan,nan,nan,214.90023968042806,640.2939359736629,nan,640.5543685730081,nan,nan,nan,nan
1,276,1,1,1.0,1.0,0.3162726969458163,0,5,0,2,3,4,8,nan,nan,nan,nan,nan,nan,nan,nan,nan,nan,nan,nan,0.0,nan,nan,nan,nan,nan,nan,nan,nan,nan,nan,nan,nan,nan,nan,nan,nan,nan,nan,214.90023968042806,641.294061130844,nan,641.6103338277899,nan,nan,nan,nan
1,277,1,1,1.0,1.0,0.2597409557783976,0,2,6,7,4,1,3,nan,nan,nan,nan,nan,nan,nan,nan,nan,nan,nan,nan,0.0,nan,nan,nan,nan,nan,nan,nan,nan,nan,nan,nan,nan,nan,nan,nan,nan,nan,nan,214.90023968042806,642.3025755312992,nan,642.5623164870776,nan,nan,nan,nan
1,278,1,1,1.0,1.0,0.2436355819227174,0,7,0,5,2,3,6,nan,nan,nan,nan,nan,nan,nan,nan,nan,nan,nan,nan,0.0,nan,nan,nan,nan,nan,nan,nan,nan,nan,nan,nan,nan,nan,nan,nan,nan,nan,nan,214.90023968042806,643.3026547880145,nan,643.5462903699372,nan,nan,nan,nan
1,279,1,1,1.0,1.0,0.2114995294250548,0,5,4,3,8,6,2,nan,nan,nan,nan,nan,nan,nan,nan,nan,nan,nan,nan,0.0,nan,nan,nan,nan,nan,nan,nan,nan,nan,nan,nan,nan,nan,nan,nan,nan,nan,nan,214.90023968042806,644.3027808006154,nan,644.5142803300405,nan,nan,nan,nan
1,280,1,1,1.0,1.0,0.2593441017670557,0,4,6,8,0,3,1,nan,nan,nan,nan,nan,nan,nan,nan,nan,nan,nan,nan,0.0,nan,nan,nan,nan,nan,nan,nan,nan,nan,nan,nan,nan,nan,nan,nan,nan,nan,nan,214.90023968042806,645.302911374718,nan,645.562255476485,nan,nan,nan,nan
1,281,1,1,1.0,1.0,0.28319924778770655,0,8,0,5,7,6,4,nan,nan,nan,nan,nan,nan,nan,nan,nan,nan,nan,nan,0.0,nan,nan,nan,nan,nan,nan,nan,nan,nan,nan,nan,nan,nan,nan,nan,nan,nan,nan,214.90023968042806,646.3030396680115,nan,646.5862389157992,nan,nan,nan,nan
1,282,1,1,1.0,1.0,0.27505034080240875,0,4,2,8,3,1,5,nan,nan,nan,nan,nan,nan,nan,nan,nan,nan,nan,nan,0.0,nan,nan,nan,nan,nan,nan,nan,nan,nan,nan,nan,nan,nan,nan,nan,nan,nan,nan,214.90023968042806,647.3031648253091,nan,647.5782151661115,nan,nan,nan,nan
1,283,1,1,1.0,1.0,0.3068941696546972,0,0,8,2,5,3,6,nan,nan,nan,nan,nan,nan,nan,nan,nan,nan,nan,nan,0.0,nan,nan,nan,nan,nan,nan,nan,nan,nan,nan,nan,nan,nan,nan,nan,nan,nan,nan,214.90023968042806,648.3032928335015,nan,648.6101870031562,nan,nan,nan,nan
1,284,1,1,1.0,1.0,0.234729744377546,0,1,6,4,0,8,3,nan,nan,nan,nan,nan,nan,nan,nan,nan,nan,nan,nan,0.0,nan,nan,nan,nan,nan,nan,nan,nan,nan,nan,nan,nan,nan,nan,nan,nan,nan,nan,214.90023968042806,649.3034288244089,nan,649.5381585687865,nan,nan,nan,nan
1,285,1,1,1.0,1.0,0.25058793975040317,0,3,4,8,7,5,1,nan,nan,nan,nan,nan,nan,nan,nan,nan,nan,nan,nan,0.0,nan,nan,nan,nan,nan,nan,nan,nan,nan,nan,nan,nan,nan,nan,nan,nan,nan,nan,214.90023968042806,650.3035548370099,nan,650.5541427767603,nan,nan,nan,nan
1,286,1,1,1.0,1.0,0.2104395414935425,0,1,2,3,8,0,5,nan,nan,nan,nan,nan,nan,nan,nan,nan,nan,nan,nan,0.0,nan,nan,nan,nan,nan,nan,nan,nan,nan,nan,nan,nan,nan,nan,nan,nan,nan,nan,214.90023968042806,651.3036879769061,nan,651.5141275183996,nan,nan,nan,nan
1,287,1,1,1.0,1.0,0.38628721120767295,0,2,6,5,1,4,8,nan,nan,nan,nan,nan,nan,nan,nan,nan,nan,nan,nan,0.0,nan,nan,nan,nan,nan,nan,nan,nan,nan,nan,nan,nan,nan,nan,nan,nan,nan,nan,214.90023968042806,652.3038105682936,nan,652.6900977795012,nan,nan,nan,nan
1,288,1,1,1.0,1.0,0.25017939682584256,0,4,7,6,8,2,3,nan,nan,nan,nan,nan,nan,nan,nan,nan,nan,nan,nan,0.0,nan,nan,nan,nan,nan,nan,nan,nan,nan,nan,nan,nan,nan,nan,nan,nan,nan,nan,214.90023968042806,653.303900373634,nan,653.5540797704598,nan,nan,nan,nan
1,289,1,1,1.0,1.0,0.1299953501438722,0,2,4,5,3,1,0,nan,nan,nan,nan,nan,nan,nan,nan,nan,nan,nan,nan,0.0,nan,nan,nan,nan,nan,nan,nan,nan,nan,nan,nan,nan,nan,nan,nan,nan,nan,nan,214.90023968042806,654.3040631635813,nan,654.4340585137252,nan,nan,nan,nan
1,290,1,1,1.0,1.0,0.12982970918528736,0,7,3,0,4,8,2,nan,nan,nan,nan,nan,nan,nan,nan,nan,nan,nan,nan,0.0,nan,nan,nan,nan,nan,nan,nan,nan,nan,nan,nan,nan,nan,nan,nan,nan,nan,nan,214.90023968042806,655.3042071372038,nan,655.4340368463891,nan,nan,nan,nan
1,291,1,1,1.0,1.0,0.3616896743187681,0,3,7,2,1,4,5,nan,nan,nan,nan,nan,nan,nan,nan,nan,nan,nan,nan,0.0,nan,nan,nan,nan,nan,nan,nan,nan,nan,nan,nan,nan,nan,nan,nan,nan,nan,nan,214.90023968042806,656.3043228863971,nan,656.6660125607159,nan,nan,nan,nan
1,292,1,1,1.0,1.0,0.2735085402382538,0,7,3,4,6,0,2,nan,nan,nan,nan,nan,nan,nan,nan,nan,nan,nan,nan,0.0,nan,nan,nan,nan,nan,nan,nan,nan,nan,nan,nan,nan,nan,nan,nan,nan,nan,nan,214.90023968042806,657.3044625835028,nan,657.577971123741,nan,nan,nan,nan
1,293,1,1,1.0,1.0,0.15342057088855654,0,6,5,3,2,7,1,nan,nan,nan,nan,nan,nan,nan,nan,nan,nan,nan,nan,0.0,nan,nan,nan,nan,nan,nan,nan,nan,nan,nan,nan,nan,nan,nan,nan,nan,nan,nan,214.90023968042806,658.3045406999299,nan,658.4579612708185,nan,nan,nan,nan
1,294,1,1,1.0,1.0,0.22523974464274943,0,2,8,7,0,1,5,nan,nan,nan,nan,nan,nan,nan,nan,nan,nan,nan,nan,0.0,nan,nan,nan,nan,nan,nan,nan,nan,nan,nan,nan,nan,nan,nan,nan,nan,nan,nan,214.90023968042806,659.3047023494728,nan,659.5299420941155,nan,nan,nan,nan
1,295,1,1,1.0,1.0,0.26507254131138325,0,1,6,8,7,4,0,nan,nan,nan,nan,nan,nan,nan,nan,nan,nan,nan,nan,0.0,nan,nan,nan,nan,nan,nan,nan,nan,nan,nan,nan,nan,nan,nan,nan,nan,nan,nan,214.90023968042806,660.3048363447888,nan,660.5699088861002,nan,nan,nan,nan
1,296,1,1,1.0,1.0,0.04892679781187326,0,5,4,6,8,0,7,nan,nan,nan,nan,nan,nan,nan,nan,nan,nan,nan,nan,0.0,nan,nan,nan,nan,nan,nan,nan,nan,nan,nan,nan,nan,nan,nan,nan,nan,nan,nan,214.90023968042806,661.3049634976778,nan,661.3538902954897,nan,nan,nan,nan
1,297,1,1,1.0,1.0,0.008782961056567729,0,3,7,4,2,6,0,nan,nan,nan,nan,nan,nan,nan,nan,nan,nan,nan,nan,0.0,nan,nan,nan,nan,nan,nan,nan,nan,nan,nan,nan,nan,nan,nan,nan,nan,nan,nan,214.90023968042806,662.3050866592675,nan,662.3138696203241,nan,nan,nan,nan
1,298,0,0,nan,nan,nan,0,0,3,7,4,1,6,nan,nan,nan,nan,nan,nan,nan,nan,nan,nan,nan,nan,0.0,nan,nan,nan,nan,nan,nan,nan,nan,nan,nan,nan,nan,nan,nan,nan,nan,nan,nan,214.90023968042806,663.3052149525611,nan,nan,nan,nan,nan,nan
1,299,1,1,1.0,1.0,0.40048415039200336,0,6,1,3,7,2,8,nan,nan,nan,nan,nan,nan,nan,nan,nan,nan,nan,nan,0.0,nan,nan,nan,nan,nan,nan,nan,nan,nan,nan,nan,nan,nan,nan,nan,nan,nan,nan,214.90023968042806,664.3053509435849,nan,664.7058350939769,nan,nan,nan,nan
1,300,1,1,1.0,1.0,0.2403164911083877,0,4,6,1,5,3,0,nan,nan,nan,nan,nan,nan,nan,nan,nan,nan,nan,nan,0.0,nan,nan,nan,nan,nan,nan,nan,nan,nan,nan,nan,nan,nan,nan,nan,nan,nan,nan,214.90023968042806,665.30547039886,nan,665.5457868899684,nan,nan,nan,nan
1,301,1,1,1.0,1.0,0.10415907006245106,0,6,3,2,4,1,5,nan,nan,nan,nan,nan,nan,nan,nan,nan,nan,nan,nan,0.0,nan,nan,nan,nan,nan,nan,nan,nan,nan,nan,nan,nan,nan,nan,nan,nan,nan,nan,214.90023968042806,666.3056086705765,nan,666.4097677406389,nan,nan,nan,nan
1,302,0,0,nan,nan,nan,0,8,2,6,7,3,0,nan,nan,nan,nan,nan,nan,nan,nan,nan,nan,nan,nan,0.0,nan,nan,nan,nan,nan,nan,nan,nan,nan,nan,nan,nan,nan,nan,nan,nan,nan,nan,214.90023968042806,667.3057315470651,nan,nan,nan,nan,nan,nan
1,303,1,1,1.0,1.0,0.49587650992907584,0,1,6,4,8,5,3,nan,nan,nan,nan,nan,nan,nan,nan,nan,nan,nan,nan,0.0,nan,nan,nan,nan,nan,nan,nan,nan,nan,nan,nan,nan,nan,nan,nan,nan,nan,nan,214.90023968042806,668.305868678377,nan,668.8017451883061,nan,nan,nan,nan
1,304,1,1,0.0,0.0,0.2476962081855163,0,0,2,3,4,1,6,nan,nan,nan,nan,nan,nan,nan,nan,nan,nan,nan,nan,0.0,nan,nan,nan,nan,nan,nan,nan,nan,nan,nan,nan,nan,nan,nan,nan,nan,nan,nan,214.90023968042806,669.3060078053968,nan,669.5537040135823,nan,nan,nan,nan
1,305,1,1,1.0,1.0,0.35153939155861735,0,8,5,4,7,0,1,nan,nan,nan,nan,nan,nan,nan,nan,nan,nan,nan,nan,0.0,nan,nan,nan,nan,nan,nan,nan,nan,nan,nan,nan,nan,nan,nan,nan,nan,nan,nan,214.90023968042806,670.3061309669865,nan,670.6576703585451,nan,nan,nan,nan
1,306,1,1,1.0,1.0,0.34342156013008207,0,4,0,1,8,6,3,nan,nan,nan,nan,nan,nan,nan,nan,nan,nan,nan,nan,0.0,nan,nan,nan,nan,nan,nan,nan,nan,nan,nan,nan,nan,nan,nan,nan,nan,nan,nan,214.90023968042806,671.3062390184496,nan,671.6496605785796,nan,nan,nan,nan
1,307,1,1,1.0,1.0,0.27924524748232216,1,0,2,6,4,3,7,1.0,1.0,1.0,1.0,1.0,1.0,0.0,0.0,0.0,0.0,0.0,0.0,0.0,7.0,5.0,1.0,5.0,1.0,4.0,3.0,2.0,1.0,6.0,5.0,4.0,4.544049228192307,3.000848446507007,1.833825362031348,8.120000444701873,6.800480501260608,5.721417601336725,214.90023968042806,672.3063761497615,673.1147905953694,672.5856213972438,682.290958713158,683.2900452647591,674.1315864723874,682.2826310509117
1,308,0,0,nan,nan,nan,0,3,5,4,6,7,0,nan,nan,nan,nan,nan,nan,nan,nan,nan,nan,nan,nan,0.0,nan,nan,nan,nan,nan,nan,nan,nan,nan,nan,nan,nan,nan,nan,nan,nan,nan,nan,214.90023968042806,683.4911350737093,nan,nan,nan,nan,nan,nan
1,309,1,1,1.0,1.0,0.5500599129591137,0,5,6,8,2,0,7,nan,nan,nan,nan,nan,nan,nan,nan,nan,nan,nan,nan,0.0,nan,nan,nan,nan,nan,nan,nan,nan,nan,nan,nan,nan,nan,nan,nan,nan,nan,nan,214.90023968042806,684.4912562397076,nan,685.0413161526667,nan,nan,nan,nan
1,310,1,1,1.0,1.0,0.429920056136325,0,0,2,1,3,8,5,nan,nan,nan,nan,nan,nan,nan,nan,nan,nan,nan,nan,0.0,nan,nan,nan,nan,nan,nan,nan,nan,nan,nan,nan,nan,nan,nan,nan,nan,nan,nan,214.90023968042806,685.4913890945027,nan,685.921309150639,nan,nan,nan,nan
1,311,0,0,0.0,1.0,0.4777865809155628,0,8,5,3,0,6,4,nan,nan,nan,nan,nan,nan,nan,nan,nan,nan,nan,nan,0.0,nan,nan,nan,nan,nan,nan,nan,nan,nan,nan,nan,nan,nan,nan,nan,nan,nan,nan,214.90023968042806,686.4915168177104,nan,686.9693033986259,nan,nan,nan,nan
1,312,1,1,1.0,1.0,0.4696219937177375,0,0,8,4,1,3,7,nan,nan,nan,nan,nan,nan,nan,nan,nan,nan,nan,nan,0.0,nan,nan,nan,nan,nan,nan,nan,nan,nan,nan,nan,nan,nan,nan,nan,nan,nan,nan,214.90023968042806,687.491643115296,nan,687.9612651090138,nan,nan,nan,nan
1,313,1,1,1.0,1.0,0.38947515771724284,0,5,4,6,3,7,2,nan,nan,nan,nan,nan,nan,nan,nan,nan,nan,nan,nan,0.0,nan,nan,nan,nan,nan,nan,nan,nan,nan,nan,nan,nan,nan,nan,nan,nan,nan,nan,214.90023968042806,688.4917702683015,nan,688.8812454260187,nan,nan,nan,nan
1,314,0,0,0.0,1.0,0.46933205076493323,0,0,6,7,2,8,5,nan,nan,nan,nan,nan,nan,nan,nan,nan,nan,nan,nan,0.0,nan,nan,nan,nan,nan,nan,nan,nan,nan,nan,nan,nan,nan,nan,nan,nan,nan,nan,214.90023968042806,689.491898561595,nan,689.9612306123599,nan,nan,nan,nan
1,315,1,1,1.0,1.0,0.41317749221343547,0,8,0,1,4,2,7,nan,nan,nan,nan,nan,nan,nan,nan,nan,nan,nan,nan,0.0,nan,nan,nan,nan,nan,nan,nan,nan,nan,nan,nan,nan,nan,nan,nan,nan,nan,nan,214.90023968042806,690.4920251442818,nan,690.9052026364952,nan,nan,nan,nan
1,316,1,1,1.0,1.0,0.3890295522287488,0,4,5,0,6,7,2,nan,nan,nan,nan,nan,nan,nan,nan,nan,nan,nan,nan,0.0,nan,nan,nan,nan,nan,nan,nan,nan,nan,nan,nan,nan,nan,nan,nan,nan,nan,nan,214.90023968042806,691.4921531525906,nan,691.8811827048194,nan,nan,nan,nan
1,317,1,1,1.0,1.0,0.39686884463299066,1,3,7,4,8,1,0,1.0,1.0,1.0,1.0,1.0,1.0,0.0,0.0,0.0,0.0,0.0,0.0,0.0,7.0,5.0,0.0,7.0,5.0,1.0,3.0,2.0,1.0,6.0,5.0,4.0,5.654510921565816,4.472059281775728,3.2561792479828,8.709955590544268,7.590415861341171,6.733947012573481,214.90023968042806,692.4922808756819,693.3007067251019,692.8891497203149,703.06856879103,704.06879259157,694.3175140060484,703.0602402734803
1,318,1,1,1.0,1.0,0.5000611532013863,1,5,4,0,6,7,8,1.0,1.0,1.0,1.0,1.0,1.0,0.0,0.0,0.0,0.0,0.0,0.0,0.0,1.0,3.0,5.0,4.0,5.0,4.0,3.0,2.0,1.0,6.0,5.0,4.0,4.926074820104986,3.7889289702288806,2.670328063191846,8.397005975944921,6.893544194404967,5.870005790377036,214.90023968042806,704.2688187063904,705.0772157611791,704.7688798595918,714.5284119823482,715.5345233061817,706.094017055002,714.5200834647985
1,319,1,1,1.0,1.0,0.607644799631089,1,6,5,1,8,2,4,1.0,1.0,1.0,1.0,1.0,1.0,0.0,0.0,0.0,0.0,0.0,0.0,0.0,7.0,3.0,2.0,5.0,7.0,5.0,3.0,2.0,1.0,6.0,5.0,4.0,4.69845936819911,3.4896625514375046,2.723303228034638,10.320602168911137,7.144663838669658,6.0420696621295065,214.90023968042806,715.7369619057281,716.54534385039,716.3446067053592,727.9218077841215,728.9190477670636,717.5621534120291,727.9134769857628
1,320,1,1,1.0,1.0,0.3903347229352221,0,3,7,8,6,0,2,nan,nan,nan,nan,nan,nan,nan,nan,nan,nan,nan,nan,0.0,nan,nan,nan,nan,nan,nan,nan,nan,nan,nan,nan,nan,nan,nan,nan,nan,nan,nan,214.90023968042806,729.1219773023622,nan,729.5123120252974,nan,nan,nan,nan
1,321,1,1,1.0,1.0,0.7021493692882359,0,6,0,2,4,7,1,nan,nan,nan,nan,nan,nan,nan,nan,nan,nan,nan,nan,0.0,nan,nan,nan,nan,nan,nan,nan,nan,nan,nan,nan,nan,nan,nan,nan,nan,nan,nan,214.90023968042806,730.122114148573,nan,730.8242635178613,nan,nan,nan,nan
1,322,1,1,1.0,1.0,0.35802818287629634,0,5,6,3,0,1,2,nan,nan,nan,nan,nan,nan,nan,nan,nan,nan,nan,nan,0.0,nan,nan,nan,nan,nan,nan,nan,nan,nan,nan,nan,nan,nan,nan,nan,nan,nan,nan,214.90023968042806,731.1222279019421,nan,731.4802560848184,nan,nan,nan,nan
1,323,1,1,1.0,1.0,0.2698806901462376,0,2,8,0,1,4,7,nan,nan,nan,nan,nan,nan,nan,nan,nan,nan,nan,nan,0.0,nan,nan,nan,nan,nan,nan,nan,nan,nan,nan,nan,nan,nan,nan,nan,nan,nan,nan,214.90023968042806,732.1223573356401,nan,732.3922380257864,nan,nan,nan,nan
1,324,1,1,1.0,1.0,0.25373996421694756,0,4,6,3,5,8,2,nan,nan,nan,nan,nan,nan,nan,nan,nan,nan,nan,nan,0.0,nan,nan,nan,nan,nan,nan,nan,nan,nan,nan,nan,nan,nan,nan,nan,nan,nan,nan,214.90023968042806,733.1224842035444,nan,733.3762241677614,nan,nan,nan,nan
1,325,1,1,1.0,1.0,0.2455867809476331,0,5,8,4,7,2,0,nan,nan,nan,nan,nan,nan,nan,nan,nan,nan,nan,nan,0.0,nan,nan,nan,nan,nan,nan,nan,nan,nan,nan,nan,nan,nan,nan,nan,nan,nan,nan,214.90023968042806,734.1226116415346,nan,734.3681984224822,nan,nan,nan,nan
1,326,1,1,1.0,1.0,0.18943678378127515,0,4,5,1,0,3,7,nan,nan,nan,nan,nan,nan,nan,nan,nan,nan,nan,nan,0.0,nan,nan,nan,nan,nan,nan,nan,nan,nan,nan,nan,nan,nan,nan,nan,nan,nan,nan,214.90023968042806,735.1227416454349,nan,735.3121784292161,nan,nan,nan,nan
1,327,1,1,1.0,1.0,0.22928212478291243,0,5,2,4,7,8,1,nan,nan,nan,nan,nan,nan,nan,nan,nan,nan,nan,nan,0.0,nan,nan,nan,nan,nan,nan,nan,nan,nan,nan,nan,nan,nan,nan,nan,nan,nan,nan,214.90023968042806,736.1228790618479,nan,736.3521611866308,nan,nan,nan,nan
1,328,1,1,1.0,1.0,0.22913330444134772,0,1,6,8,5,3,7,nan,nan,nan,nan,nan,nan,nan,nan,nan,nan,nan,nan,0.0,nan,nan,nan,nan,nan,nan,nan,nan,nan,nan,nan,nan,nan,nan,nan,nan,nan,nan,214.90023968042806,737.1230036489433,nan,737.3521369533846,nan,nan,nan,nan
1,329,1,1,1.0,1.0,0.2849731168244034,0,3,2,0,7,1,8,nan,nan,nan,nan,nan,nan,nan,nan,nan,nan,nan,nan,0.0,nan,nan,nan,nan,nan,nan,nan,nan,nan,nan,nan,nan,nan,nan,nan,nan,nan,nan,214.90023968042806,738.1231265254319,nan,738.4080996422563,nan,nan,nan,nan
1,330,1,1,1.0,1.0,0.3088199950288981,0,8,5,6,0,3,1,nan,nan,nan,nan,nan,nan,nan,nan,nan,nan,nan,nan,0.0,nan,nan,nan,nan,nan,nan,nan,nan,nan,nan,nan,nan,nan,nan,nan,nan,nan,nan,214.90023968042806,739.12325852504,nan,739.4320785200689,nan,nan,nan,nan
1,331,1,1,1.0,1.0,0.30866746860556304,0,4,7,1,2,8,3,nan,nan,nan,nan,nan,nan,nan,nan,nan,nan,nan,nan,0.0,nan,nan,nan,nan,nan,nan,nan,nan,nan,nan,nan,nan,nan,nan,nan,nan,nan,nan,214.90023968042806,740.1233979370445,nan,740.4320654056501,nan,nan,nan,nan
1,332,1,1,1.0,1.0,0.24455558764748275,0,0,6,4,8,3,5,nan,nan,nan,nan,nan,nan,nan,nan,nan,nan,nan,nan,0.0,nan,nan,nan,nan,nan,nan,nan,nan,nan,nan,nan,nan,nan,nan,nan,nan,nan,nan,214.90023968042806,741.1234780491795,nan,741.368033636827,nan,nan,nan,nan
1,333,1,1,1.0,1.0,0.27636121364776045,0,2,4,1,7,5,8,nan,nan,nan,nan,nan,nan,nan,nan,nan,nan,nan,nan,0.0,nan,nan,nan,nan,nan,nan,nan,nan,nan,nan,nan,nan,nan,nan,nan,nan,nan,nan,214.90023968042806,742.1236451155273,nan,742.4000063291751,nan,nan,nan,nan
1,334,1,1,1.0,1.0,0.26824138639494777,0,1,0,6,3,8,7,nan,nan,nan,nan,nan,nan,nan,nan,nan,nan,nan,nan,0.0,nan,nan,nan,nan,nan,nan,nan,nan,nan,nan,nan,nan,nan,nan,nan,nan,nan,nan,214.90023968042806,743.1237574435072,nan,743.3919988299021,nan,nan,nan,nan
1,335,1,1,1.0,1.0,0.25206758943386376,0,7,2,4,6,0,8,nan,nan,nan,nan,nan,nan,nan,nan,nan,nan,nan,nan,0.0,nan,nan,nan,nan,nan,nan,nan,nan,nan,nan,nan,nan,nan,nan,nan,nan,nan,nan,214.90023968042806,744.1239091147436,nan,744.3759767041774,nan,nan,nan,nan
1,336,1,1,1.0,1.0,0.21189980464987457,0,1,0,6,4,5,7,nan,nan,nan,nan,nan,nan,nan,nan,nan,nan,nan,nan,0.0,nan,nan,nan,nan,nan,nan,nan,nan,nan,nan,nan,nan,nan,nan,nan,nan,nan,nan,214.90023968042806,745.1240376931382,nan,745.3359374977881,nan,nan,nan,nan
1,337,1,1,1.0,1.0,0.2677692669676617,0,4,1,0,6,8,5,nan,nan,nan,nan,nan,nan,nan,nan,nan,nan,nan,nan,0.0,nan,nan,nan,nan,nan,nan,nan,nan,nan,nan,nan,nan,nan,nan,nan,nan,nan,nan,214.90023968042806,746.1241557230242,nan,746.3919249899918,nan,nan,nan,nan
1,338,1,1,1.0,1.0,0.25162055855616927,0,8,2,1,4,5,3,nan,nan,nan,nan,nan,nan,nan,nan,nan,nan,nan,nan,0.0,nan,nan,nan,nan,nan,nan,nan,nan,nan,nan,nan,nan,nan,nan,nan,nan,nan,nan,214.90023968042806,747.124288007617,nan,747.3759085661732,nan,nan,nan,nan
1,339,1,1,1.0,1.0,0.29145050432998687,0,2,1,4,6,0,7,nan,nan,nan,nan,nan,nan,nan,nan,nan,nan,nan,nan,0.0,nan,nan,nan,nan,nan,nan,nan,nan,nan,nan,nan,nan,nan,nan,nan,nan,nan,nan,214.90023968042806,748.1244137351168,nan,748.4158642394468,nan,nan,nan,nan
1,340,1,1,1.0,1.0,0.3553009518655017,0,0,3,8,1,2,4,nan,nan,nan,nan,nan,nan,nan,nan,nan,nan,nan,nan,0.0,nan,nan,nan,nan,nan,nan,nan,nan,nan,nan,nan,nan,nan,nan,nan,nan,nan,nan,214.90023968042806,749.1245448794216,nan,749.4798458312871,nan,nan,nan,nan
1,341,1,1,1.0,1.0,0.2911611315794289,0,6,0,5,3,8,2,nan,nan,nan,nan,nan,nan,nan,nan,nan,nan,nan,nan,0.0,nan,nan,nan,nan,nan,nan,nan,nan,nan,nan,nan,nan,nan,nan,nan,nan,nan,nan,214.90023968042806,750.1246694665169,nan,750.4158305980964,nan,nan,nan,nan
1,342,1,1,1.0,1.0,0.2990129680838436,0,4,5,6,1,2,7,nan,nan,nan,nan,nan,nan,nan,nan,nan,nan,nan,nan,0.0,nan,nan,nan,nan,nan,nan,nan,nan,nan,nan,nan,nan,nan,nan,nan,nan,nan,nan,214.90023968042806,751.1247931983089,nan,751.4238061663928,nan,nan,nan,nan
1,343,0,0,1.0,0.0,0.28284800914116204,0,8,4,1,7,0,5,nan,nan,nan,nan,nan,nan,nan,nan,nan,nan,nan,nan,0.0,nan,nan,nan,nan,nan,nan,nan,nan,nan,nan,nan,nan,nan,nan,nan,nan,nan,nan,214.90023968042806,752.1249277637107,nan,752.4077757728519,nan,nan,nan,nan
1,344,1,1,1.0,1.0,0.3866937584243715,0,2,0,8,4,3,1,nan,nan,nan,nan,nan,nan,nan,nan,nan,nan,nan,nan,0.0,nan,nan,nan,nan,nan,nan,nan,nan,nan,nan,nan,nan,nan,nan,nan,nan,nan,nan,214.90023968042806,753.1250597633189,nan,753.5117535217432,nan,nan,nan,nan
1,345,1,1,1.0,1.0,0.3305557353887707,0,0,1,7,6,2,5,nan,nan,nan,nan,nan,nan,nan,nan,nan,nan,nan,nan,0.0,nan,nan,nan,nan,nan,nan,nan,nan,nan,nan,nan,nan,nan,nan,nan,nan,nan,nan,214.90023968042806,754.1251797887962,nan,754.455735524185,nan,nan,nan,nan
1,346,1,1,1.0,1.0,0.24240197043400258,0,5,2,6,0,7,8,nan,nan,nan,nan,nan,nan,nan,nan,nan,nan,nan,nan,0.0,nan,nan,nan,nan,nan,nan,nan,nan,nan,nan,nan,nan,nan,nan,nan,nan,nan,nan,214.90023968042806,755.1253089373931,nan,755.3677109078271,nan,nan,nan,nan
1,347,1,1,1.0,1.0,0.2982566077262163,0,8,4,3,2,6,0,nan,nan,nan,nan,nan,nan,nan,nan,nan,nan,nan,nan,0.0,nan,nan,nan,nan,nan,nan,nan,nan,nan,nan,nan,nan,nan,nan,nan,nan,nan,nan,214.90023968042806,756.1254355201963,nan,756.4236921279225,nan,nan,nan,nan
1,348,1,1,1.0,1.0,0.3780838508391753,0,4,3,6,8,0,1,nan,nan,nan,nan,nan,nan,nan,nan,nan,nan,nan,nan,0.0,nan,nan,nan,nan,nan,nan,nan,nan,nan,nan,nan,nan,nan,nan,nan,nan,nan,nan,214.90023968042806,757.125569800497,nan,757.5036536513362,nan,nan,nan,nan
1,349,1,1,1.0,1.0,0.49802014883607626,0,8,0,5,4,6,7,nan,nan,nan,nan,nan,nan,nan,nan,nan,nan,nan,nan,0.0,nan,nan,nan,nan,nan,nan,nan,nan,nan,nan,nan,nan,nan,nan,nan,nan,nan,nan,214.90023968042806,758.1256978088059,nan,758.6237179576419,nan,nan,nan,nan
1,350,1,1,1.0,1.0,0.48979654675349593,0,3,6,4,0,7,2,nan,nan,nan,nan,nan,nan,nan,nan,nan,nan,nan,nan,0.0,nan,nan,nan,nan,nan,nan,nan,nan,nan,nan,nan,nan,nan,nan,nan,nan,nan,nan,214.90023968042806,759.125814128085,nan,759.6156106748385,nan,nan,nan,nan
1,351,1,1,1.0,1.0,0.4256453225389123,0,5,7,1,6,2,4,nan,nan,nan,nan,nan,nan,nan,nan,nan,nan,nan,nan,0.0,nan,nan,nan,nan,nan,nan,nan,nan,nan,nan,nan,nan,nan,nan,nan,nan,nan,nan,214.90023968042806,760.1259495487902,nan,760.5515948713291,nan,nan,nan,nan
1,352,1,1,1.0,1.0,0.5694789609406143,0,0,4,7,2,1,5,nan,nan,nan,nan,nan,nan,nan,nan,nan,nan,nan,nan,0.0,nan,nan,nan,nan,nan,nan,nan,nan,nan,nan,nan,nan,nan,nan,nan,nan,nan,nan,214.90023968042806,761.1260764165781,nan,761.6955553775188,nan,nan,nan,nan
1,353,1,1,1.0,1.0,0.5933734502177685,0,5,3,1,8,2,6,nan,nan,nan,nan,nan,nan,nan,nan,nan,nan,nan,nan,0.0,nan,nan,nan,nan,nan,nan,nan,nan,nan,nan,nan,nan,nan,nan,nan,nan,nan,nan,214.90023968042806,762.1261682176264,nan,762.7195416678442,nan,nan,nan,nan
1,354,1,1,1.0,1.0,0.32117521250620484,0,1,5,3,7,8,0,nan,nan,nan,nan,nan,nan,nan,nan,nan,nan,nan,nan,0.0,nan,nan,nan,nan,nan,nan,nan,nan,nan,nan,nan,nan,nan,nan,nan,nan,nan,nan,214.90023968042806,763.1263404157944,nan,763.4475156283006,nan,nan,nan,nan
1,355,1,1,1.0,1.0,0.28103793296031654,0,4,1,8,3,2,7,nan,nan,nan,nan,nan,nan,nan,nan,nan,nan,nan,nan,0.0,nan,nan,nan,nan,nan,nan,nan,nan,nan,nan,nan,nan,nan,nan,nan,nan,nan,nan,214.90023968042806,764.1264678537846,nan,764.4075057867449,nan,nan,nan,nan
1,356,1,1,1.0,1.0,0.3128766301088035,0,3,7,0,2,1,6,nan,nan,nan,nan,nan,nan,nan,nan,nan,nan,nan,nan,0.0,nan,nan,nan,nan,nan,nan,nan,nan,nan,nan,nan,nan,nan,nan,nan,nan,nan,nan,214.90023968042806,765.1265964321792,nan,765.439473062288,nan,nan,nan,nan
1,357,1,1,1.0,1.0,0.2727476181462407,0,1,2,5,6,0,7,nan,nan,nan,nan,nan,nan,nan,nan,nan,nan,nan,nan,0.0,nan,nan,nan,nan,nan,nan,nan,nan,nan,nan,nan,nan,nan,nan,nan,nan,nan,nan,214.90023968042806,766.1267121813726,nan,766.3994597995188,nan,nan,nan,nan
1,358,1,1,1.0,1.0,0.2725645863683894,0,8,0,3,2,5,1,nan,nan,nan,nan,nan,nan,nan,nan,nan,nan,nan,nan,0.0,nan,nan,nan,nan,nan,nan,nan,nan,nan,nan,nan,nan,nan,nan,nan,nan,nan,nan,214.90023968042806,767.1268615718,nan,767.3994261581684,nan,nan,nan,nan
1,359,1,1,1.0,1.0,0.28043837542645633,0,3,6,5,7,0,4,nan,nan,nan,nan,nan,nan,nan,nan,nan,nan,nan,nan,0.0,nan,nan,nan,nan,nan,nan,nan,nan,nan,nan,nan,nan,nan,nan,nan,nan,nan,nan,214.90023968042806,768.1269821674796,nan,768.407420542906,nan,nan,nan,nan
1,360,1,1,1.0,1.0,0.320286852424033,0,0,2,7,5,4,6,nan,nan,nan,nan,nan,nan,nan,nan,nan,nan,nan,nan,0.0,nan,nan,nan,nan,nan,nan,nan,nan,nan,nan,nan,nan,nan,nan,nan,nan,nan,nan,214.90023968042806,769.1270959209651,nan,769.4473827733891,nan,nan,nan,nan
1,361,1,1,1.0,1.0,0.3361373501829803,0,7,5,2,8,1,3,nan,nan,nan,nan,nan,nan,nan,nan,nan,nan,nan,nan,0.0,nan,nan,nan,nan,nan,nan,nan,nan,nan,nan,nan,nan,nan,nan,nan,nan,nan,nan,214.90023968042806,770.1272264950676,nan,770.4633638452506,nan,nan,nan,nan
1,362,1,1,1.0,1.0,0.33599195105489343,0,4,1,6,5,8,2,nan,nan,nan,nan,nan,nan,nan,nan,nan,nan,nan,nan,0.0,nan,nan,nan,nan,nan,nan,nan,nan,nan,nan,nan,nan,nan,nan,nan,nan,nan,nan,214.90023968042806,771.1273562138667,nan,771.4633481649216,nan,nan,nan,nan
1,363,1,1,1.0,1.0,0.3438295329688117,0,2,5,4,6,7,8,nan,nan,nan,nan,nan,nan,nan,nan,nan,nan,nan,nan,0.0,nan,nan,nan,nan,nan,nan,nan,nan,nan,nan,nan,nan,nan,nan,nan,nan,nan,nan,214.90023968042806,772.127481656149,nan,772.4713111891178,nan,nan,nan,nan
1,364,1,1,1.0,1.0,0.45566168415825814,0,1,7,8,3,2,4,nan,nan,nan,nan,nan,nan,nan,nan,nan,nan,nan,nan,0.0,nan,nan,nan,nan,nan,nan,nan,nan,nan,nan,nan,nan,nan,nan,nan,nan,nan,nan,214.90023968042806,773.1276222086744,nan,773.5832838928327,nan,nan,nan,nan
1,365,1,1,1.0,1.0,0.45552198705263436,0,8,4,3,7,6,5,nan,nan,nan,nan,nan,nan,nan,nan,nan,nan,nan,nan,0.0,nan,nan,nan,nan,nan,nan,nan,nan,nan,nan,nan,nan,nan,nan,nan,nan,nan,nan,214.90023968042806,774.1277390981559,nan,774.5832610852085,nan,nan,nan,nan
1,366,1,1,1.0,1.0,0.39137560955714434,0,7,3,8,2,0,4,nan,nan,nan,nan,nan,nan,nan,nan,nan,nan,nan,nan,0.0,nan,nan,nan,nan,nan,nan,nan,nan,nan,nan,nan,nan,nan,nan,nan,nan,nan,nan,214.90023968042806,775.1278844971675,nan,775.5192601067247,nan,nan,nan,nan
1,367,1,1,1.0,1.0,0.4552175041753799,0,8,1,6,7,5,0,nan,nan,nan,nan,nan,nan,nan,nan,nan,nan,nan,nan,0.0,nan,nan,nan,nan,nan,nan,nan,nan,nan,nan,nan,nan,nan,nan,nan,nan,nan,nan,214.90023968042806,776.1280065184692,nan,776.5832240226446,nan,nan,nan,nan
1,368,1,1,1.0,1.0,0.3990672219078988,0,2,8,5,3,1,4,nan,nan,nan,nan,nan,nan,nan,nan,nan,nan,nan,nan,0.0,nan,nan,nan,nan,nan,nan,nan,nan,nan,nan,nan,nan,nan,nan,nan,nan,nan,nan,214.90023968042806,777.1281373776728,nan,777.5272045995807,nan,nan,nan,nan
1,369,1,1,1.0,1.0,0.31892580282874405,1,1,4,7,8,3,0,1.0,1.0,1.0,1.0,1.0,1.0,0.0,0.0,0.0,0.0,0.0,0.0,0.0,4.0,5.0,0.0,4.0,7.0,8.0,3.0,2.0,1.0,6.0,5.0,4.0,5.503404762246646,4.327808547532186,3.073692826437764,8.735256744781509,7.6074694654671475,6.496933646965772,214.90023968042806,778.1282505608397,778.9366758400574,778.4471763636684,788.7379132719943,789.7420731118182,779.9618090727599,788.7295867500361
1,370,1,1,1.0,1.0,0.38848416309338063,0,0,7,8,2,5,1,nan,nan,nan,nan,nan,nan,nan,nan,nan,nan,nan,nan,0.0,nan,nan,nan,nan,nan,nan,nan,nan,nan,nan,nan,nan,nan,nan,nan,nan,nan,nan,214.90023968042806,789.9464392472291,nan,790.3349234103225,nan,nan,nan,nan
1,371,1,1,1.0,1.0,0.27632386586628854,1,6,1,5,0,7,2,1.0,1.0,1.0,1.0,1.0,1.0,0.0,0.0,0.0,0.0,0.0,0.0,0.0,4.0,7.0,1.0,8.0,5.0,1.0,3.0,2.0,1.0,6.0,5.0,4.0,6.5826013723853976,5.5895822398597375,4.031947033596225,9.797760967863724,8.533898660214618,7.5586621229304,214.90023968042806,790.9465655449312,791.7549836967373,791.2228894107975,802.5980347743025,803.5945654377574,792.7634479202097,802.5897005548468
1,372,0,0,1.0,0.0,0.41639280796516687,0,3,6,8,5,2,4,nan,nan,nan,nan,nan,nan,nan,nan,nan,nan,nan,nan,0.0,nan,nan,nan,nan,nan,nan,nan,nan,nan,nan,nan,nan,nan,nan,nan,nan,nan,nan,214.90023968042806,803.798213985865,nan,804.2146067938302,nan,nan,nan,nan
1,373,1,1,0.0,0.0,0.0882618164177984,0,2,3,7,1,6,8,nan,nan,nan,nan,nan,nan,nan,nan,nan,nan,nan,nan,0.0,nan,nan,nan,nan,nan,nan,nan,nan,nan,nan,nan,nan,nan,nan,nan,nan,nan,nan,214.90023968042806,804.7982969488949,nan,804.8865587653127,nan,nan,nan,nan
1,374,1,1,1.0,1.0,0.38370737491641194,0,6,4,3,2,8,0,nan,nan,nan,nan,nan,nan,nan,nan,nan,nan,nan,nan,0.0,nan,nan,nan,nan,nan,nan,nan,nan,nan,nan,nan,nan,nan,nan,nan,nan,nan,nan,214.90023968042806,805.8067933880957,nan,806.1905007630121,nan,nan,nan,nan
1,375,0,0,1.0,0.0,0.1756697695236653,0,8,0,2,4,1,7,nan,nan,nan,nan,nan,nan,nan,nan,nan,nan,nan,nan,0.0,nan,nan,nan,nan,nan,nan,nan,nan,nan,nan,nan,nan,nan,nan,nan,nan,nan,nan,214.90023968042806,806.8068911761511,nan,806.9825609456748,nan,nan,nan,nan
1,376,1,1,1.0,1.0,0.3194255765993148,1,7,3,6,5,2,1,1.0,1.0,1.0,1.0,1.0,1.0,1.0,0.0,0.0,0.0,0.0,0.0,1.0,7.0,5.0,4.0,8.0,4.0,4.0,3.0,2.0,1.0,6.0,5.0,4.0,5.5938410081434995,4.049583944841288,2.931586586521007,8.11258138436824,7.353115118807182,6.521808012272231,214.90023968042806,807.8070619488135,808.6154729733244,808.1264875254128,817.7833051610505,818.7886381720891,809.6322722714394,817.7749860516051
1,377,1,1,nan,nan,nan,0,8,7,5,0,1,6,nan,nan,nan,nan,nan,nan,nan,nan,nan,nan,nan,nan,0.0,nan,nan,nan,nan,nan,nan,nan,nan,nan,nan,nan,nan,nan,nan,nan,nan,nan,nan,214.90023968042806,818.9918274300871,nan,nan,nan,nan,nan,nan
1,378,1,1,1.0,1.0,0.32622084638569504,0,0,3,2,1,4,8,nan,nan,nan,nan,nan,nan,nan,nan,nan,nan,nan,nan,0.0,nan,nan,nan,nan,nan,nan,nan,nan,nan,nan,nan,nan,nan,nan,nan,nan,nan,nan,214.90023968042806,819.9919431791641,nan,820.3181640255498,nan,nan,nan,nan
1,379,1,1,1.0,1.0,0.5020565419690683,0,7,8,6,4,5,3,nan,nan,nan,nan,nan,nan,nan,nan,nan,nan,nan,nan,0.0,nan,nan,nan,nan,nan,nan,nan,nan,nan,nan,nan,nan,nan,nan,nan,nan,nan,nan,214.90023968042806,820.9920797402738,nan,821.4941362822428,nan,nan,nan,nan
1,380,0,0,1.0,0.0,0.22996806632727385,0,2,4,8,5,1,0,nan,nan,nan,nan,nan,nan,nan,nan,nan,nan,nan,nan,0.0,nan,nan,nan,nan,nan,nan,nan,nan,nan,nan,nan,nan,nan,nan,nan,nan,nan,nan,214.90023968042806,821.9922054677736,nan,822.2221735341009,nan,nan,nan,nan
1,381,1,1,1.0,1.0,0.3258083120454103,0,5,2,3,8,6,7,nan,nan,nan,nan,nan,nan,nan,nan,nan,nan,nan,nan,0.0,nan,nan,nan,nan,nan,nan,nan,nan,nan,nan,nan,nan,nan,nan,nan,nan,nan,nan,214.90023968042806,822.9923283442622,nan,823.3181366563076,nan,nan,nan,nan
