block,trial,freq_trials,correct_response,actual_response,acc,rts,probe_trials,trials_colorind0,trials_colorind1,trials_colorind2,trials_colorind3,trials_colorind4,trials_colorind5,wholereport_resp0,wholereport_resp1,wholereport_resp2,wholereport_resp3,wholereport_resp4,wholereport_resp5,wholereport_respacc0,wholereport_respacc1,wholereport_respacc2,wholereport_respacc3,wholereport_respacc4,wholereport_respacc5,wholereport_respacc_total,wholereport_respcolorind0,wholereport_respcolorind1,wholereport_respcolorind2,wholereport_respcolorind3,wholereport_respcolorind4,wholereport_respcolorind5,wholereport_resporder0,wholereport_resporder1,wholereport_resporder2,wholereport_resporder3,wholereport_resporder4,wholereport_resporder5,wholereport_rts0,wholereport_rts1,wholereport_rts2,wholereport_rts3,wholereport_rts4,wholereport_rts5,time_blockstart,time_encarray_offset,time_encarray_onset,time_response,time_iti_offset,time_iti_onset,time_memprobe_offset,time_memprobe_onset
1,1,1,1,1.0,1.0,0.6430700079654343,1,7,4,1,5,6,2,1.0,1.0,1.0,1.0,1.0,1.0,0.0,1.0,1.0,0.0,0.0,0.0,2.0,3.0,4.0,1.0,4.0,2.0,0.0,5.0,6.0,1.0,2.0,3.0,4.0,8.668154204031453,9.852300741244107,4.292930724215694,5.964297678146977,7.068941411853302,7.724709893169347,169.6212661296595,170.6341750040301,171.4425991429016,171.27724501199555,182.3439840551,183.34329440724105,172.45105652400525,182.33566950727254
1,2,0,0,0.0,1.0,0.7884075291804038,0,0,4,2,7,5,3,nan,nan,nan,nan,nan,nan,nan,nan,nan,nan,nan,nan,0.0,nan,nan,nan,nan,nan,nan,nan,nan,nan,nan,nan,nan,nan,nan,nan,nan,nan,nan,169.6212661296595,183.55253597412957,nan,184.34094350330997,nan,nan,nan,nan
1,3,1,1,1.0,1.0,0.59595471189823,0,5,0,4,8,7,1,nan,nan,nan,nan,nan,nan,nan,nan,nan,nan,nan,nan,0.0,nan,nan,nan,nan,nan,nan,nan,nan,nan,nan,nan,nan,nan,nan,nan,nan,nan,nan,169.6212661296595,184.56095971388277,nan,185.156914425781,nan,nan,nan,nan
1,4,1,1,nan,nan,nan,0,4,6,2,0,8,7,nan,nan,nan,nan,nan,nan,nan,nan,nan,nan,nan,nan,0.0,nan,nan,nan,nan,nan,nan,nan,nan,nan,nan,nan,nan,nan,nan,nan,nan,nan,nan,169.6212661296595,185.56942507770145,nan,nan,nan,nan,nan,nan
1,5,1,1,1.0,1.0,0.6430141291348264,0,8,5,1,4,6,2,nan,nan,nan,nan,nan,nan,nan,nan,nan,nan,nan,nan,0.0,nan,nan,nan,nan,nan,nan,nan,nan,nan,nan,nan,nan,nan,nan,nan,nan,nan,nan,169.6212661296595,186.57788645010442,nan,187.22090057923924,nan,nan,nan,nan
1,6,1,1,1.0,1.0,0.34648320911219344,0,3,8,6,0,7,5,nan,nan,nan,nan,nan,nan,nan,nan,nan,nan,nan,nan,0.0,nan,nan,nan,nan,nan,nan,nan,nan,nan,nan,nan,nan,nan,nan,nan,nan,nan,nan,169.6212661296595,187.58637262595585,nan,187.93285583506804,nan,nan,nan,nan
1,7,1,1,1.0,1.0,0.442008423502557,0,0,7,5,1,2,8,nan,nan,nan,nan,nan,nan,nan,nan,nan,nan,nan,nan,0.0,nan,nan,nan,nan,nan,nan,nan,nan,nan,nan,nan,nan,nan,nan,nan,nan,nan,nan,169.6212661296595,188.59480748442002,nan,189.03681590792257,nan,nan,nan,nan
1,8,1,1,1.0,1.0,0.36155482387403026,1,1,2,4,0,3,6,1.0,1.0,1.0,1.0,1.0,1.0,0.0,0.0,1.0,0.0,0.0,0.0,1.0,3.0,4.0,4.0,8.0,0.0,3.0,5.0,6.0,1.0,2.0,3.0,4.0,6.5316033500712365,7.362829774385318,2.1407865292858332,4.146765283367131,5.0121944231214,5.771537812135648,169.6212661296595,189.6032537468127,190.41169042990077,189.96480857068673,198.8210884006112,199.82083751593018,191.4201726143947,198.81276672537206
1,9,0,0,nan,nan,nan,0,3,6,8,7,0,5,nan,nan,nan,nan,nan,nan,nan,nan,nan,nan,nan,nan,0.0,nan,nan,nan,nan,nan,nan,nan,nan,nan,nan,nan,nan,nan,nan,nan,nan,nan,nan,169.6212661296595,200.02961979270913,nan,nan,nan,nan,nan,nan
1,10,1,1,0.0,0.0,0.030521552253048867,0,5,8,4,1,2,6,nan,nan,nan,nan,nan,nan,nan,nan,nan,nan,nan,nan,0.0,nan,nan,nan,nan,nan,nan,nan,nan,nan,nan,nan,nan,nan,nan,nan,nan,nan,nan,169.6212661296595,201.0380509449751,nan,201.06857249722816,nan,nan,nan,nan
1,11,1,1,1.0,1.0,0.7019580697524361,0,4,7,6,3,0,8,nan,nan,nan,nan,nan,nan,nan,nan,nan,nan,nan,nan,0.0,nan,nan,nan,nan,nan,nan,nan,nan,nan,nan,nan,nan,nan,nan,nan,nan,nan,nan,169.6212661296595,202.0465342698153,nan,202.74849233956775,nan,nan,nan,nan
1,12,1,1,1.0,1.0,0.5654955956852064,0,8,1,0,6,3,4,nan,nan,nan,nan,nan,nan,nan,nan,nan,nan,nan,nan,0.0,nan,nan,nan,nan,nan,nan,nan,nan,nan,nan,nan,nan,nan,nan,nan,nan,nan,nan,169.6212661296595,203.0549959273776,nan,203.6204915230628,nan,nan,nan,nan
1,13,1,1,1.0,1.0,0.7969966247328557,0,5,3,1,2,7,0,nan,nan,nan,nan,nan,nan,nan,nan,nan,nan,nan,nan,0.0,nan,nan,nan,nan,nan,nan,nan,nan,nan,nan,nan,nan,nan,nan,nan,nan,nan,nan,169.6212661296595,204.06348466908094,nan,204.8604812938138,nan,nan,nan,nan
1,14,1,1,nan,nan,nan,0,7,8,6,4,1,5,nan,nan,nan,nan,nan,nan,nan,nan,nan,nan,nan,nan,0.0,nan,nan,nan,nan,nan,nan,nan,nan,nan,nan,nan,nan,nan,nan,nan,nan,nan,nan,169.6212661296595,205.08026058936957,nan,nan,nan,nan,nan,nan
1,15,1,1,nan,nan,nan,0,0,5,3,2,4,6,nan,nan,nan,nan,nan,nan,nan,nan,nan,nan,nan,nan,0.0,nan,nan,nan,nan,nan,nan,nan,nan,nan,nan,nan,nan,nan,nan,nan,nan,nan,nan,169.6212661296595,206.08872481278377,nan,nan,nan,nan,nan,nan
1,16,1,1,1.0,1.0,0.6992205752758309,0,1,4,0,7,5,2,nan,nan,nan,nan,nan,nan,nan,nan,nan,nan,nan,nan,0.0,nan,nan,nan,nan,nan,nan,nan,nan,nan,nan,nan,nan,nan,nan,nan,nan,nan,nan,169.6212661296595,207.0971679390641,nan,207.79638851433992,nan,nan,nan,nan
1,17,0,0,0.0,1.0,0.5147501687170006,0,2,5,8,6,1,4,nan,nan,nan,nan,nan,nan,nan,nan,nan,nan,nan,nan,0.0,nan,nan,nan,nan,nan,nan,nan,nan,nan,nan,nan,nan,nan,nan,nan,nan,nan,nan,169.6212661296595,208.10562018846394,nan,208.62037035718095,nan,nan,nan,nan
1,18,1,1,1.0,1.0,0.4102230393909849,0,7,2,5,3,6,0,nan,nan,nan,nan,nan,nan,nan,nan,nan,nan,nan,nan,0.0,nan,nan,nan,nan,nan,nan,nan,nan,nan,nan,nan,nan,nan,nan,nan,nan,nan,nan,169.6212661296595,209.11412746139104,nan,209.52435050078202,nan,nan,nan,nan
1,19,1,1,1.0,1.0,0.5457469764514826,0,0,1,7,2,3,6,nan,nan,nan,nan,nan,nan,nan,nan,nan,nan,nan,nan,0.0,nan,nan,nan,nan,nan,nan,nan,nan,nan,nan,nan,nan,nan,nan,nan,nan,nan,nan,169.6212661296595,210.12258598289918,nan,210.66833295935066,nan,nan,nan,nan
1,20,1,1,1.0,1.0,0.5533801442943513,1,6,2,5,3,8,1,1.0,1.0,1.0,1.0,1.0,1.0,0.0,0.0,0.0,0.0,0.0,0.0,0.0,8.0,4.0,1.0,0.0,2.0,4.0,5.0,6.0,1.0,2.0,3.0,4.0,5.570705160032958,6.722593908605631,1.8695080122561194,2.9402840186376125,3.651056124945171,4.53058812225936,169.6212661296595,211.13103709183633,211.9394623711123,211.68441723613068,219.7070983556332,220.70655581739265,212.94793571758782,219.6987655616249
1,21,1,1,nan,nan,nan,0,1,5,8,2,3,4,nan,nan,nan,nan,nan,nan,nan,nan,nan,nan,nan,nan,0.0,nan,nan,nan,nan,nan,nan,nan,nan,nan,nan,nan,nan,nan,nan,nan,nan,nan,nan,169.6212661296595,220.91562205011724,nan,nan,nan,nan,nan,nan
1,22,0,0,0.0,1.0,0.6398971714661457,0,3,0,5,8,1,7,nan,nan,nan,nan,nan,nan,nan,nan,nan,nan,nan,nan,0.0,nan,nan,nan,nan,nan,nan,nan,nan,nan,nan,nan,nan,nan,nan,nan,nan,nan,nan,169.6212661296595,221.92411734902998,nan,222.56401452049613,nan,nan,nan,nan
1,23,1,1,1.0,1.0,0.40747014968656003,1,1,3,4,5,8,6,1.0,1.0,1.0,1.0,1.0,1.0,0.0,0.0,1.0,0.0,0.0,0.0,1.0,6.0,7.0,4.0,8.0,0.0,3.0,5.0,6.0,1.0,2.0,3.0,4.0,5.961008237267379,6.792879264277872,2.035972593119368,3.186425596824847,3.8578133628470823,5.088806350366212,169.6212661296595,222.93255106714787,223.7409695041133,223.34002121683443,231.58362372760894,232.5829295181902,224.74943942943355,231.57529720570892
1,24,1,1,1.0,1.0,0.7556653619394638,0,4,5,1,0,6,7,nan,nan,nan,nan,nan,nan,nan,nan,nan,nan,nan,nan,0.0,nan,nan,nan,nan,nan,nan,nan,nan,nan,nan,nan,nan,nan,nan,nan,nan,nan,nan,169.6212661296595,232.79212917597033,nan,233.5477945379098,nan,nan,nan,nan
1,25,1,1,1.0,1.0,0.5631700653466396,0,1,2,8,7,4,6,nan,nan,nan,nan,nan,nan,nan,nan,nan,nan,nan,nan,0.0,nan,nan,nan,nan,nan,nan,nan,nan,nan,nan,nan,nan,nan,nan,nan,nan,nan,nan,169.6212661296595,233.8006008118973,nan,234.36377087724395,nan,nan,nan,nan
1,26,1,1,1.0,1.0,0.3466964610852301,0,2,6,3,4,7,0,nan,nan,nan,nan,nan,nan,nan,nan,nan,nan,nan,nan,0.0,nan,nan,nan,nan,nan,nan,nan,nan,nan,nan,nan,nan,nan,nan,nan,nan,nan,nan,169.6212661296595,234.8090687415679,nan,235.15576520265313,nan,nan,nan,nan
1,27,1,1,1.0,1.0,0.29020891000982374,0,5,3,1,0,8,2,nan,nan,nan,nan,nan,nan,nan,nan,nan,nan,nan,nan,0.0,nan,nan,nan,nan,nan,nan,nan,nan,nan,nan,nan,nan,nan,nan,nan,nan,nan,nan,169.6212661296595,235.81754237314453,nan,236.10775128315436,nan,nan,nan,nan
1,28,1,1,1.0,1.0,0.28973336942726746,0,7,0,8,5,1,6,nan,nan,nan,nan,nan,nan,nan,nan,nan,nan,nan,nan,0.0,nan,nan,nan,nan,nan,nan,nan,nan,nan,nan,nan,nan,nan,nan,nan,nan,nan,nan,169.6212661296595,236.82598065276397,nan,237.11571402219124,nan,nan,nan,nan
1,29,1,1,1.0,1.0,0.2652350461576134,0,0,4,3,1,2,7,nan,nan,nan,nan,nan,nan,nan,nan,nan,nan,nan,nan,0.0,nan,nan,nan,nan,nan,nan,nan,nan,nan,nan,nan,nan,nan,nan,nan,nan,nan,nan,169.6212661296595,237.83445342909545,nan,238.09968847525306,nan,nan,nan,nan
1,30,1,1,1.0,1.0,0.3127620213199407,0,4,5,1,0,6,8,nan,nan,nan,nan,nan,nan,nan,nan,nan,nan,nan,nan,0.0,nan,nan,nan,nan,nan,nan,nan,nan,nan,nan,nan,nan,nan,nan,nan,nan,nan,nan,169.6212661296595,238.84291907795705,nan,239.155681099277,nan,nan,nan,nan
1,31,1,1,1.0,1.0,0.24027401173952967,0,7,4,0,2,1,5,nan,nan,nan,nan,nan,nan,nan,nan,nan,nan,nan,nan,0.0,nan,nan,nan,nan,nan,nan,nan,nan,nan,nan,nan,nan,nan,nan,nan,nan,nan,nan,169.6212661296595,239.8513815908227,nan,240.09165560256224,nan,nan,nan,nan
1,32,0,0,1.0,0.0,0.23978136532241479,0,4,7,5,6,0,1,nan,nan,nan,nan,nan,nan,nan,nan,nan,nan,nan,nan,0.0,nan,nan,nan,nan,nan,nan,nan,nan,nan,nan,nan,nan,nan,nan,nan,nan,nan,nan,169.6212661296595,240.85984895029105,nan,241.09963031561347,nan,nan,nan,nan
1,33,1,1,1.0,1.0,0.5753000567201525,0,7,5,4,0,6,3,nan,nan,nan,nan,nan,nan,nan,nan,nan,nan,nan,nan,0.0,nan,nan,nan,nan,nan,nan,nan,nan,nan,nan,nan,nan,nan,nan,nan,nan,nan,nan,169.6212661296595,241.86830718663987,nan,242.44360724336002,nan,nan,nan,nan
1,34,1,1,1.0,1.0,0.3507904436555691,0,6,4,0,3,5,8,nan,nan,nan,nan,nan,nan,nan,nan,nan,nan,nan,nan,0.0,nan,nan,nan,nan,nan,nan,nan,nan,nan,nan,nan,nan,nan,nan,nan,nan,nan,nan,169.6212661296595,242.8767896562349,nan,243.22758009989047,nan,nan,nan,nan
1,35,1,1,1.0,1.0,0.27027982485014945,0,5,3,6,8,0,2,nan,nan,nan,nan,nan,nan,nan,nan,nan,nan,nan,nan,0.0,nan,nan,nan,nan,nan,nan,nan,nan,nan,nan,nan,nan,nan,nan,nan,nan,nan,nan,169.6212661296595,243.8852689897176,nan,244.15554881456774,nan,nan,nan,nan
1,36,0,0,0.0,1.0,0.37385701335733756,0,1,0,3,7,8,4,nan,nan,nan,nan,nan,nan,nan,nan,nan,nan,nan,nan,0.0,nan,nan,nan,nan,nan,nan,nan,nan,nan,nan,nan,nan,nan,nan,nan,nan,nan,nan,169.6212661296595,244.89368987851776,nan,245.2675468918751,nan,nan,nan,nan
1,37,1,1,1.0,1.0,0.38135276472894475,0,8,6,4,0,3,5,nan,nan,nan,nan,nan,nan,nan,nan,nan,nan,nan,nan,0.0,nan,nan,nan,nan,nan,nan,nan,nan,nan,nan,nan,nan,nan,nan,nan,nan,nan,nan,169.6212661296595,245.90214811492478,nan,246.28350087965373,nan,nan,nan,nan
1,38,1,1,1.0,1.0,0.32508188678184524,0,0,5,6,2,1,8,nan,nan,nan,nan,nan,nan,nan,nan,nan,nan,nan,nan,0.0,nan,nan,nan,nan,nan,nan,nan,nan,nan,nan,nan,nan,nan,nan,nan,nan,nan,nan,169.6212661296595,246.91061205323786,nan,247.2356939400197,nan,nan,nan,nan
1,39,1,1,1.0,1.0,0.23643005860503763,0,4,8,7,0,5,1,nan,nan,nan,nan,nan,nan,nan,nan,nan,nan,nan,nan,0.0,nan,nan,nan,nan,nan,nan,nan,nan,nan,nan,nan,nan,nan,nan,nan,nan,nan,nan,169.6212661296595,247.91905603482155,nan,248.1554860934266,nan,nan,nan,nan
1,40,1,1,1.0,1.0,0.22789171017939225,0,5,1,2,8,0,7,nan,nan,nan,nan,nan,nan,nan,nan,nan,nan,nan,nan,0.0,nan,nan,nan,nan,nan,nan,nan,nan,nan,nan,nan,nan,nan,nan,nan,nan,nan,nan,169.6212661296595,248.9275436361204,nan,249.15543534629978,nan,nan,nan,nan
1,41,1,1,1.0,1.0,0.283398530096747,0,7,0,3,6,2,4,nan,nan,nan,nan,nan,nan,nan,nan,nan,nan,nan,nan,0.0,nan,nan,nan,nan,nan,nan,nan,nan,nan,nan,nan,nan,nan,nan,nan,nan,nan,nan,169.6212661296595,249.9360446369392,nan,250.21944316703593,nan,nan,nan,nan
1,42,1,1,1.0,1.0,0.20290729781845585,0,5,8,7,1,4,0,nan,nan,nan,nan,nan,nan,nan,nan,nan,nan,nan,nan,0.0,nan,nan,nan,nan,nan,nan,nan,nan,nan,nan,nan,nan,nan,nan,nan,nan,nan,nan,169.6212661296595,250.94448434206424,nan,251.1473916398827,nan,nan,nan,nan
1,43,1,1,1.0,1.0,0.28244545322377235,0,0,6,2,7,3,1,nan,nan,nan,nan,nan,nan,nan,nan,nan,nan,nan,nan,0.0,nan,nan,nan,nan,nan,nan,nan,nan,nan,nan,nan,nan,nan,nan,nan,nan,nan,nan,169.6212661296595,251.95293516595848,nan,252.23538061918225,nan,nan,nan,nan
1,44,1,1,1.0,1.0,0.2899705695454031,0,2,1,0,8,6,3,nan,nan,nan,nan,nan,nan,nan,nan,nan,nan,nan,nan,0.0,nan,nan,nan,nan,nan,nan,nan,nan,nan,nan,nan,nan,nan,nan,nan,nan,nan,nan,169.6212661296595,252.96136660326738,nan,253.25133717281278,nan,nan,nan,nan
1,45,1,1,1.0,1.0,0.23354260355699807,0,1,7,3,2,8,6,nan,nan,nan,nan,nan,nan,nan,nan,nan,nan,nan,nan,0.0,nan,nan,nan,nan,nan,nan,nan,nan,nan,nan,nan,nan,nan,nan,nan,nan,nan,nan,169.6212661296595,253.96985448966734,nan,254.20339709322434,nan,nan,nan,nan
1,46,1,1,1.0,1.0,0.2166315476060845,0,0,3,8,6,4,5,nan,nan,nan,nan,nan,nan,nan,nan,nan,nan,nan,nan,0.0,nan,nan,nan,nan,nan,nan,nan,nan,nan,nan,nan,nan,nan,nan,nan,nan,nan,nan,169.6212661296595,254.98665920470376,nan,255.20329075230984,nan,nan,nan,nan
1,47,1,1,1.0,1.0,0.2641895981505513,0,4,5,3,8,0,1,nan,nan,nan,nan,nan,nan,nan,nan,nan,nan,nan,nan,0.0,nan,nan,nan,nan,nan,nan,nan,nan,nan,nan,nan,nan,nan,nan,nan,nan,nan,nan,169.6212661296595,255.99508636561222,nan,256.2592759637628,nan,nan,nan,nan
1,48,1,1,1.0,1.0,0.18366729037370533,0,3,1,5,6,4,0,nan,nan,nan,nan,nan,nan,nan,nan,nan,nan,nan,nan,0.0,nan,nan,nan,nan,nan,nan,nan,nan,nan,nan,nan,nan,nan,nan,nan,nan,nan,nan,169.6212661296595,257.0035745371133,nan,257.187241827487,nan,nan,nan,nan
1,49,1,1,1.0,1.0,0.19118641957174987,0,7,6,8,0,3,2,nan,nan,nan,nan,nan,nan,nan,nan,nan,nan,nan,nan,0.0,nan,nan,nan,nan,nan,nan,nan,nan,nan,nan,nan,nan,nan,nan,nan,nan,nan,nan,169.6212661296595,258.0120364797767,nan,258.2032228993485,nan,nan,nan,nan
1,50,1,1,1.0,1.0,0.206709056685213,1,0,4,7,6,5,8,1.0,1.0,1.0,1.0,1.0,1.0,0.0,0.0,0.0,0.0,0.0,0.0,0.0,6.0,7.0,4.0,5.0,0.0,3.0,5.0,6.0,1.0,2.0,3.0,4.0,6.040616811485961,7.55993764376035,1.977331424714066,2.945702558499761,3.807770128012635,4.776522150437813,169.6212661296595,259.02050355414394,259.8289034598274,259.22721261082916,268.44667288364144,269.44616398680955,260.84571102581685,268.4383432256873
1,51,1,1,1.0,1.0,0.5477449311874807,0,8,6,5,4,2,0,nan,nan,nan,nan,nan,nan,nan,nan,nan,nan,nan,nan,0.0,nan,nan,nan,nan,nan,nan,nan,nan,nan,nan,nan,nan,nan,nan,nan,nan,nan,nan,169.6212661296595,269.6551954377792,nan,270.20294036896667,nan,nan,nan,nan
1,52,1,1,1.0,1.0,0.3952363833086565,0,0,5,3,6,8,2,nan,nan,nan,nan,nan,nan,nan,nan,nan,nan,nan,nan,0.0,nan,nan,nan,nan,nan,nan,nan,nan,nan,nan,nan,nan,nan,nan,nan,nan,nan,nan,169.6212661296595,270.6636881707818,nan,271.0589245540905,nan,nan,nan,nan
1,53,1,1,1.0,1.0,0.2507721119909547,1,3,6,8,4,2,1,1.0,1.0,1.0,1.0,1.0,1.0,0.0,0.0,1.0,0.0,0.0,0.0,1.0,1.0,4.0,8.0,5.0,3.0,0.0,5.0,6.0,1.0,2.0,3.0,4.0,6.452757693536114,8.06835553899873,1.8216853922931477,2.8064318860997446,4.3403884208528325,5.317092063603923,169.6212661296595,271.6721290163114,272.4805360494065,271.9229011283023,281.5983626350062,282.59759487077827,273.48901338723954,281.5900375386118
1,54,1,1,nan,nan,nan,0,7,0,5,2,3,6,nan,nan,nan,nan,nan,nan,nan,nan,nan,nan,nan,nan,0.0,nan,nan,nan,nan,nan,nan,nan,nan,nan,nan,nan,nan,nan,nan,nan,nan,nan,nan,169.6212661296595,282.8068809126853,nan,nan,nan,nan,nan,nan
1,55,0,0,1.0,0.0,0.059340509586036205,0,2,4,7,1,5,8,nan,nan,nan,nan,nan,nan,nan,nan,nan,nan,nan,nan,0.0,nan,nan,nan,nan,nan,nan,nan,nan,nan,nan,nan,nan,nan,nan,nan,nan,nan,nan,169.6212661296595,283.8153437106521,nan,283.8746842202381,nan,nan,nan,nan
1,56,1,1,1.0,1.0,0.48276350664673373,0,3,7,5,6,0,1,nan,nan,nan,nan,nan,nan,nan,nan,nan,nan,nan,nan,0.0,nan,nan,nan,nan,nan,nan,nan,nan,nan,nan,nan,nan,nan,nan,nan,nan,nan,nan,169.6212661296595,284.8238053681562,nan,285.3065688748029,nan,nan,nan,nan
1,57,1,1,1.0,1.0,0.40230277966475114,0,0,5,3,7,8,6,nan,nan,nan,nan,nan,nan,nan,nan,nan,nan,nan,nan,0.0,nan,nan,nan,nan,nan,nan,nan,nan,nan,nan,nan,nan,nan,nan,nan,nan,nan,nan,169.6212661296595,285.83227073197486,nan,286.2345735116396,nan,nan,nan,nan
1,58,1,1,1.0,1.0,0.3937923706253059,0,7,0,1,2,6,4,nan,nan,nan,nan,nan,nan,nan,nan,nan,nan,nan,nan,0.0,nan,nan,nan,nan,nan,nan,nan,nan,nan,nan,nan,nan,nan,nan,nan,nan,nan,nan,169.6212661296595,286.8407800006098,nan,287.2345723712351,nan,nan,nan,nan
1,59,1,1,1.0,1.0,0.28128967294469476,0,0,2,5,3,7,6,nan,nan,nan,nan,nan,nan,nan,nan,nan,nan,nan,nan,0.0,nan,nan,nan,nan,nan,nan,nan,nan,nan,nan,nan,nan,nan,nan,nan,nan,nan,nan,169.6212661296595,287.84922569274204,nan,288.13051536568673,nan,nan,nan,nan
1,60,1,1,1.0,1.0,0.2728436956531368,0,8,7,1,6,4,3,nan,nan,nan,nan,nan,nan,nan,nan,nan,nan,nan,nan,0.0,nan,nan,nan,nan,nan,nan,nan,nan,nan,nan,nan,nan,nan,nan,nan,nan,nan,nan,169.6212661296595,288.8576605512644,nan,289.13050424691755,nan,nan,nan,nan
1,61,1,1,1.0,1.0,0.28838742984225973,0,6,0,7,4,2,5,nan,nan,nan,nan,nan,nan,nan,nan,nan,nan,nan,nan,0.0,nan,nan,nan,nan,nan,nan,nan,nan,nan,nan,nan,nan,nan,nan,nan,nan,nan,nan,169.6212661296595,289.8661273405305,nan,290.15451477037277,nan,nan,nan,nan
1,62,1,1,1.0,1.0,0.24787981022382155,0,4,6,2,7,3,8,nan,nan,nan,nan,nan,nan,nan,nan,nan,nan,nan,nan,0.0,nan,nan,nan,nan,nan,nan,nan,nan,nan,nan,nan,nan,nan,nan,nan,nan,nan,nan,169.6212661296595,290.8745801600744,nan,291.1224599702982,nan,nan,nan,nan
1,63,1,1,1.0,1.0,0.3034199864487164,0,6,0,7,2,8,5,nan,nan,nan,nan,nan,nan,nan,nan,nan,nan,nan,nan,0.0,nan,nan,nan,nan,nan,nan,nan,nan,nan,nan,nan,nan,nan,nan,nan,nan,nan,nan,169.6212661296595,291.88304381328635,nan,292.18646379973507,nan,nan,nan,nan
1,64,0,0,0.0,1.0,0.7669249543687329,0,8,5,2,0,4,3,nan,nan,nan,nan,nan,nan,nan,nan,nan,nan,nan,nan,0.0,nan,nan,nan,nan,nan,nan,nan,nan,nan,nan,nan,nan,nan,nan,nan,nan,nan,nan,169.6212661296595,292.8915026198956,nan,293.65842757426435,nan,nan,nan,nan
1,65,1,1,1.0,1.0,0.46243072516517714,0,5,2,7,3,8,4,nan,nan,nan,nan,nan,nan,nan,nan,nan,nan,nan,nan,0.0,nan,nan,nan,nan,nan,nan,nan,nan,nan,nan,nan,nan,nan,nan,nan,nan,nan,nan,169.6212661296595,293.89995743508916,nan,294.36238816025434,nan,nan,nan,nan
1,66,1,1,1.0,1.0,0.3099372874130495,0,1,0,2,8,7,6,nan,nan,nan,nan,nan,nan,nan,nan,nan,nan,nan,nan,0.0,nan,nan,nan,nan,nan,nan,nan,nan,nan,nan,nan,nan,nan,nan,nan,nan,nan,nan,169.6212661296595,294.90843192196917,nan,295.2183692093822,nan,nan,nan,nan
1,67,1,1,1.0,1.0,0.28550425125285983,0,2,1,4,6,5,8,nan,nan,nan,nan,nan,nan,nan,nan,nan,nan,nan,nan,0.0,nan,nan,nan,nan,nan,nan,nan,nan,nan,nan,nan,nan,nan,nan,nan,nan,nan,nan,169.6212661296595,295.91686421458144,nan,296.2023684658343,nan,nan,nan,nan
1,68,1,1,1.0,1.0,0.2769738854840398,0,8,4,1,3,0,5,nan,nan,nan,nan,nan,nan,nan,nan,nan,nan,nan,nan,0.0,nan,nan,nan,nan,nan,nan,nan,nan,nan,nan,nan,nan,nan,nan,nan,nan,nan,nan,169.6212661296595,296.925353526487,nan,297.20232741197105,nan,nan,nan,nan
1,69,1,1,1.0,1.0,0.2604844869347289,1,3,2,7,8,5,6,1.0,1.0,1.0,1.0,1.0,1.0,0.0,0.0,0.0,0.0,0.0,0.0,0.0,1.0,4.0,5.0,4.0,3.0,0.0,5.0,6.0,1.0,2.0,3.0,4.0,6.126128589268774,7.1895388482371345,2.0801345768850297,3.373332721355837,4.374934962426778,5.174408503633458,169.6212661296595,297.9338166094967,298.742226778646,298.19430109643145,306.98491299001034,307.984432887868,299.759086802369,306.97657278348925
1,70,1,1,1.0,1.0,0.7925776324118488,0,1,5,3,7,4,0,nan,nan,nan,nan,nan,nan,nan,nan,nan,nan,nan,nan,0.0,nan,nan,nan,nan,nan,nan,nan,nan,nan,nan,nan,nan,nan,nan,nan,nan,nan,nan,169.6212661296595,308.1934771682136,nan,308.9860548006254,nan,nan,nan,nan
1,71,1,1,1.0,1.0,0.5760427325149067,0,4,2,7,3,5,8,nan,nan,nan,nan,nan,nan,nan,nan,nan,nan,nan,nan,0.0,nan,nan,nan,nan,nan,nan,nan,nan,nan,nan,nan,nan,nan,nan,nan,nan,nan,nan,169.6212661296595,309.2020289161592,nan,309.7780716486741,nan,nan,nan,nan
1,72,1,1,1.0,1.0,0.35960333986440673,0,3,1,4,5,6,2,nan,nan,nan,nan,nan,nan,nan,nan,nan,nan,nan,nan,0.0,nan,nan,nan,nan,nan,nan,nan,nan,nan,nan,nan,nan,nan,nan,nan,nan,nan,nan,169.6212661296595,310.2104175890563,nan,310.5700209289207,nan,nan,nan,nan
1,73,0,0,1.0,0.0,0.3031531363376416,0,6,2,3,0,4,8,nan,nan,nan,nan,nan,nan,nan,nan,nan,nan,nan,nan,0.0,nan,nan,nan,nan,nan,nan,nan,nan,nan,nan,nan,nan,nan,nan,nan,nan,nan,nan,169.6212661296595,311.2188473158167,nan,311.5220004521543,nan,nan,nan,nan
1,74,1,1,1.0,1.0,0.4066861349856481,0,2,3,0,7,5,1,nan,nan,nan,nan,nan,nan,nan,nan,nan,nan,nan,nan,0.0,nan,nan,nan,nan,nan,nan,nan,nan,nan,nan,nan,nan,nan,nan,nan,nan,nan,nan,169.6212661296595,312.22730270121247,nan,312.6339888361981,nan,nan,nan,nan
1,75,1,1,1.0,1.0,0.35819353873375803,0,1,5,3,6,7,0,nan,nan,nan,nan,nan,nan,nan,nan,nan,nan,nan,nan,0.0,nan,nan,nan,nan,nan,nan,nan,nan,nan,nan,nan,nan,nan,nan,nan,nan,nan,nan,169.6212661296595,313.23578203475336,nan,313.5939755734871,nan,nan,nan,nan
1,76,1,1,1.0,1.0,0.2456839987426065,0,7,4,6,2,1,8,nan,nan,nan,nan,nan,nan,nan,nan,nan,nan,nan,nan,0.0,nan,nan,nan,nan,nan,nan,nan,nan,nan,nan,nan,nan,nan,nan,nan,nan,nan,nan,169.6212661296595,314.2442382754525,nan,314.4899222741951,nan,nan,nan,nan
1,77,1,1,1.0,1.0,0.47721467778319493,0,8,1,2,0,6,5,nan,nan,nan,nan,nan,nan,nan,nan,nan,nan,nan,nan,0.0,nan,nan,nan,nan,nan,nan,nan,nan,nan,nan,nan,nan,nan,nan,nan,nan,nan,nan,169.6212661296595,315.2527022137656,nan,315.7299168915488,nan,nan,nan,nan
1,78,1,1,1.0,1.0,0.26070258556865156,0,6,2,5,7,3,0,nan,nan,nan,nan,nan,nan,nan,nan,nan,nan,nan,nan,0.0,nan,nan,nan,nan,nan,nan,nan,nan,nan,nan,nan,nan,nan,nan,nan,nan,nan,nan,169.6212661296595,316.26118610880803,nan,316.5218886943767,nan,nan,nan,nan
1,79,1,1,1.0,1.0,0.3482525165891275,0,7,8,1,0,2,3,nan,nan,nan,nan,nan,nan,nan,nan,nan,nan,nan,nan,0.0,nan,nan,nan,nan,nan,nan,nan,nan,nan,nan,nan,nan,nan,nan,nan,nan,nan,nan,169.6212661296595,317.26963180099847,nan,317.6178843175876,nan,nan,nan,nan
1,80,0,0,1.0,0.0,0.2677689819247462,0,8,3,6,1,0,7,nan,nan,nan,nan,nan,nan,nan,nan,nan,nan,nan,nan,0.0,nan,nan,nan,nan,nan,nan,nan,nan,nan,nan,nan,nan,nan,nan,nan,nan,nan,nan,169.6212661296595,318.2780926032574,nan,318.54586158518214,nan,nan,nan,nan
1,81,1,1,1.0,1.0,0.3552912586601451,0,7,2,3,0,5,6,nan,nan,nan,nan,nan,nan,nan,nan,nan,nan,nan,nan,0.0,nan,nan,nan,nan,nan,nan,nan,nan,nan,nan,nan,nan,nan,nan,nan,nan,nan,nan,169.6212661296595,319.2865482737543,nan,319.64183953241445,nan,nan,nan,nan
1,82,1,1,1.0,1.0,0.2748453566455282,1,6,4,0,1,8,3,1.0,1.0,1.0,1.0,1.0,1.0,1.0,0.0,1.0,0.0,0.0,0.0,2.0,6.0,1.0,0.0,3.0,4.0,8.0,5.0,6.0,1.0,2.0,3.0,4.0,6.612469484040048,7.81214721116703,1.0544987195171416,2.3267953154281713,3.3325459924526513,5.452336891437881,169.6212661296595,320.2949845577241,321.1034263725742,320.5698299143696,329.9628713414422,330.96220678201644,322.111889740685,329.9545488108997
1,83,1,1,1.0,1.0,0.734127193398308,0,4,6,5,0,1,7,nan,nan,nan,nan,nan,nan,nan,nan,nan,nan,nan,nan,0.0,nan,nan,nan,nan,nan,nan,nan,nan,nan,nan,nan,nan,nan,nan,nan,nan,nan,nan,169.6212661296595,331.1713958912296,nan,331.90552308462793,nan,nan,nan,nan
1,84,1,1,1.0,1.0,0.41363678220659494,0,2,3,8,4,6,5,nan,nan,nan,nan,nan,nan,nan,nan,nan,nan,nan,nan,0.0,nan,nan,nan,nan,nan,nan,nan,nan,nan,nan,nan,nan,nan,nan,nan,nan,nan,nan,169.6212661296595,332.17986838246,nan,332.59350516466657,nan,nan,nan,nan
1,85,1,1,1.0,1.0,0.3091566937509924,0,3,1,6,0,4,8,nan,nan,nan,nan,nan,nan,nan,nan,nan,nan,nan,nan,0.0,nan,nan,nan,nan,nan,nan,nan,nan,nan,nan,nan,nan,nan,nan,nan,nan,nan,nan,169.6212661296595,333.1883346015238,nan,333.4974912952748,nan,nan,nan,nan
1,86,1,1,1.0,1.0,0.3166450326098129,0,1,8,4,5,2,7,nan,nan,nan,nan,nan,nan,nan,nan,nan,nan,nan,nan,0.0,nan,nan,nan,nan,nan,nan,nan,nan,nan,nan,nan,nan,nan,nan,nan,nan,nan,nan,169.6212661296595,334.1968090884038,nan,334.51345412101364,nan,nan,nan,nan
1,87,1,1,1.0,1.0,0.25217022409196943,0,2,4,0,7,1,5,nan,nan,nan,nan,nan,nan,nan,nan,nan,nan,nan,nan,0.0,nan,nan,nan,nan,nan,nan,nan,nan,nan,nan,nan,nan,nan,nan,nan,nan,nan,nan,169.6212661296595,335.2052741671214,nan,335.45744439121336,nan,nan,nan,nan
1,88,1,1,1.0,1.0,0.25972983706742525,0,4,2,5,1,6,0,nan,nan,nan,nan,nan,nan,nan,nan,nan,nan,nan,nan,0.0,nan,nan,nan,nan,nan,nan,nan,nan,nan,nan,nan,nan,nan,nan,nan,nan,nan,nan,169.6212661296595,336.2137161529972,nan,336.47344599006465,nan,nan,nan,nan
1,89,1,1,1.0,1.0,0.29123725229874253,0,1,4,7,6,8,5,nan,nan,nan,nan,nan,nan,nan,nan,nan,nan,nan,nan,0.0,nan,nan,nan,nan,nan,nan,nan,nan,nan,nan,nan,nan,nan,nan,nan,nan,nan,nan,169.6212661296595,337.22216840233887,nan,337.5134056546376,nan,nan,nan,nan
1,90,1,1,1.0,1.0,0.27472789702005684,0,5,2,6,7,4,8,nan,nan,nan,nan,nan,nan,nan,nan,nan,nan,nan,nan,0.0,nan,nan,nan,nan,nan,nan,nan,nan,nan,nan,nan,nan,nan,nan,nan,nan,nan,nan,169.6212661296595,338.23063604690833,nan,338.5053639439284,nan,nan,nan,nan
1,91,1,1,1.0,1.0,0.2822464560158551,0,8,7,5,6,2,3,nan,nan,nan,nan,nan,nan,nan,nan,nan,nan,nan,nan,0.0,nan,nan,nan,nan,nan,nan,nan,nan,nan,nan,nan,nan,nan,nan,nan,nan,nan,nan,169.6212661296595,339.23909798957175,nan,339.5213444455876,nan,nan,nan,nan
1,92,1,1,1.0,1.0,0.2737685479805805,0,1,6,8,7,0,5,nan,nan,nan,nan,nan,nan,nan,nan,nan,nan,nan,nan,0.0,nan,nan,nan,nan,nan,nan,nan,nan,nan,nan,nan,nan,nan,nan,nan,nan,nan,nan,169.6212661296595,340.24756620434346,nan,340.52133475232404,nan,nan,nan,nan
1,93,1,1,1.0,1.0,0.289258684089873,0,8,0,1,2,6,7,nan,nan,nan,nan,nan,nan,nan,nan,nan,nan,nan,nan,0.0,nan,nan,nan,nan,nan,nan,nan,nan,nan,nan,nan,nan,nan,nan,nan,nan,nan,nan,169.6212661296595,341.2560463931295,nan,341.5453050772194,nan,nan,nan,nan
1,94,1,1,1.0,1.0,0.29674730804981664,0,7,6,8,4,1,3,nan,nan,nan,nan,nan,nan,nan,nan,nan,nan,nan,nan,0.0,nan,nan,nan,nan,nan,nan,nan,nan,nan,nan,nan,nan,nan,nan,nan,nan,nan,nan,169.6212661296595,342.26452743721893,nan,342.56127474526875,nan,nan,nan,nan
1,95,1,1,1.0,1.0,0.2882919225958176,0,3,2,5,8,7,6,nan,nan,nan,nan,nan,nan,nan,nan,nan,nan,nan,nan,0.0,nan,nan,nan,nan,nan,nan,nan,nan,nan,nan,nan,nan,nan,nan,nan,nan,nan,nan,169.6212661296595,343.2729543130263,nan,343.5612462356221,nan,nan,nan,nan
1,96,1,1,1.0,1.0,0.2238122674752958,0,0,3,8,4,2,7,nan,nan,nan,nan,nan,nan,nan,nan,nan,nan,nan,nan,0.0,nan,nan,nan,nan,nan,nan,nan,nan,nan,nan,nan,nan,nan,nan,nan,nan,nan,nan,169.6212661296595,344.28141597058857,nan,344.50522823806386,nan,nan,nan,nan
1,97,1,1,1.0,1.0,0.2233381523983553,0,2,0,1,8,7,5,nan,nan,nan,nan,nan,nan,nan,nan,nan,nan,nan,nan,0.0,nan,nan,nan,nan,nan,nan,nan,nan,nan,nan,nan,nan,nan,nan,nan,nan,nan,nan,169.6212661296595,345.2898719261866,nan,345.51321007858496,nan,nan,nan,nan
1,98,1,1,1.0,1.0,0.19086625648196787,0,6,7,4,1,2,8,nan,nan,nan,nan,nan,nan,nan,nan,nan,nan,nan,nan,0.0,nan,nan,nan,nan,nan,nan,nan,nan,nan,nan,nan,nan,nan,nan,nan,nan,nan,nan,169.6212661296595,346.2983173332177,nan,346.4891835896997,nan,nan,nan,nan
1,99,1,1,1.0,1.0,0.2143507773289457,1,8,1,2,5,4,0,1.0,1.0,1.0,1.0,1.0,1.0,0.0,0.0,0.0,0.0,1.0,0.0,1.0,0.0,6.0,8.0,2.0,4.0,3.0,5.0,6.0,1.0,2.0,3.0,4.0,5.85609366215067,6.663842407928314,2.2875903007225133,3.136648927058559,4.017324445594568,4.864173005567864,169.6212661296595,347.30680864077294,348.1152193801245,347.5211594181019,355.82452552136965,356.82404827018036,349.12371781509137,355.8162012802204
1,100,1,1,1.0,1.0,0.6239098274963908,0,2,6,7,1,5,4,nan,nan,nan,nan,nan,nan,nan,nan,nan,nan,nan,nan,0.0,nan,nan,nan,nan,nan,nan,nan,nan,nan,nan,nan,nan,nan,nan,nan,nan,nan,nan,169.6212661296595,357.03303895238787,nan,357.65694877988426,nan,nan,nan,nan
1,101,1,1,1.0,1.0,0.48739945725537837,0,8,3,1,6,7,5,nan,nan,nan,nan,nan,nan,nan,nan,nan,nan,nan,nan,0.0,nan,nan,nan,nan,nan,nan,nan,nan,nan,nan,nan,nan,nan,nan,nan,nan,nan,nan,169.6212661296595,358.0415228474303,nan,358.5289223046857,nan,nan,nan,nan
1,102,1,1,1.0,1.0,0.3029062429559417,0,3,1,5,0,6,2,nan,nan,nan,nan,nan,nan,nan,nan,nan,nan,nan,nan,0.0,nan,nan,nan,nan,nan,nan,nan,nan,nan,nan,nan,nan,nan,nan,nan,nan,nan,nan,169.6212661296595,359.0499705352704,nan,359.35287677822635,nan,nan,nan,nan
1,103,1,1,1.0,1.0,0.2144522716407664,0,2,0,8,5,1,7,nan,nan,nan,nan,nan,nan,nan,nan,nan,nan,nan,nan,0.0,nan,nan,nan,nan,nan,nan,nan,nan,nan,nan,nan,nan,nan,nan,nan,nan,nan,nan,169.6212661296595,360.05841394665185,nan,360.2728662182926,nan,nan,nan,nan
1,104,1,1,1.0,1.0,0.28596268605906516,0,6,7,0,8,5,3,nan,nan,nan,nan,nan,nan,nan,nan,nan,nan,nan,nan,0.0,nan,nan,nan,nan,nan,nan,nan,nan,nan,nan,nan,nan,nan,nan,nan,nan,nan,nan,169.6212661296595,361.06686420034384,nan,361.3528268864029,nan,nan,nan,nan
1,105,1,1,1.0,1.0,0.23743274225853384,0,3,6,1,0,8,2,nan,nan,nan,nan,nan,nan,nan,nan,nan,nan,nan,nan,0.0,nan,nan,nan,nan,nan,nan,nan,nan,nan,nan,nan,nan,nan,nan,nan,nan,nan,nan,169.6212661296595,362.0753797410871,nan,362.3128124833456,nan,nan,nan,nan
1,106,1,1,1.0,1.0,0.18895753688411787,0,4,1,2,5,3,8,nan,nan,nan,nan,nan,nan,nan,nan,nan,nan,nan,nan,0.0,nan,nan,nan,nan,nan,nan,nan,nan,nan,nan,nan,nan,nan,nan,nan,nan,nan,nan,169.6212661296595,363.0838251481764,nan,363.2727826850605,nan,nan,nan,nan
1,107,1,1,1.0,1.0,0.22048918530344963,0,1,4,5,7,0,6,nan,nan,nan,nan,nan,nan,nan,nan,nan,nan,nan,nan,0.0,nan,nan,nan,nan,nan,nan,nan,nan,nan,nan,nan,nan,nan,nan,nan,nan,nan,nan,169.6212661296595,364.0922754018684,nan,364.31276458717184,nan,nan,nan,nan
1,108,1,1,1.0,1.0,0.2439848249196075,0,8,6,1,5,3,7,nan,nan,nan,nan,nan,nan,nan,nan,nan,nan,nan,nan,0.0,nan,nan,nan,nan,nan,nan,nan,nan,nan,nan,nan,nan,nan,nan,nan,nan,nan,nan,169.6212661296595,365.1007638584124,nan,365.344748683332,nan,nan,nan,nan
1,109,1,1,1.0,1.0,0.2515182089409791,0,1,4,8,2,5,0,nan,nan,nan,nan,nan,nan,nan,nan,nan,nan,nan,nan,0.0,nan,nan,nan,nan,nan,nan,nan,nan,nan,nan,nan,nan,nan,nan,nan,nan,nan,nan,169.6212661296595,366.1092092655017,nan,366.3607274744427,nan,nan,nan,nan
1,110,1,1,1.0,1.0,0.20302361709764227,0,7,5,1,4,6,3,nan,nan,nan,nan,nan,nan,nan,nan,nan,nan,nan,nan,0.0,nan,nan,nan,nan,nan,nan,nan,nan,nan,nan,nan,nan,nan,nan,nan,nan,nan,nan,169.6212661296595,367.1176649359986,nan,367.32068855309626,nan,nan,nan,nan
1,111,1,1,1.0,1.0,0.2185422628535889,0,4,3,7,1,0,8,nan,nan,nan,nan,nan,nan,nan,nan,nan,nan,nan,nan,0.0,nan,nan,nan,nan,nan,nan,nan,nan,nan,nan,nan,nan,nan,nan,nan,nan,nan,nan,169.6212661296595,368.1261325805681,nan,368.34467484342167,nan,nan,nan,nan
1,112,1,1,1.0,1.0,0.2500511035323143,1,8,6,4,7,2,1,1.0,1.0,1.0,1.0,1.0,1.0,0.0,0.0,0.0,0.0,0.0,0.0,0.0,4.0,1.0,3.0,5.0,0.0,3.0,5.0,6.0,1.0,2.0,3.0,4.0,5.667146958876401,6.603527439234313,1.694861168100033,2.500605401932262,3.604071688023396,4.540184748067986,169.6212661296595,369.1346007953398,369.9430083986372,369.3846518988721,377.59397357783746,378.5938056561281,370.95149628503714,377.58565332804574
1,113,1,1,1.0,1.0,0.6379188884166069,0,7,4,8,0,1,2,nan,nan,nan,nan,nan,nan,nan,nan,nan,nan,nan,nan,0.0,nan,nan,nan,nan,nan,nan,nan,nan,nan,nan,nan,nan,nan,nan,nan,nan,nan,nan,169.6212661296595,378.80249784252374,nan,379.44041673094034,nan,nan,nan,nan
1,114,1,1,1.0,1.0,0.4294342521461658,0,4,1,2,5,3,0,nan,nan,nan,nan,nan,nan,nan,nan,nan,nan,nan,nan,0.0,nan,nan,nan,nan,nan,nan,nan,nan,nan,nan,nan,nan,nan,nan,nan,nan,nan,nan,169.6212661296595,379.81095978512894,nan,380.2403940372751,nan,nan,nan,nan
1,115,1,1,1.0,1.0,0.28493291832273826,0,3,4,6,2,5,1,nan,nan,nan,nan,nan,nan,nan,nan,nan,nan,nan,nan,0.0,nan,nan,nan,nan,nan,nan,nan,nan,nan,nan,nan,nan,nan,nan,nan,nan,nan,nan,169.6212661296595,380.81943427200895,nan,381.1043671903317,nan,nan,nan,nan
1,116,1,1,1.0,1.0,0.24446122074732557,0,1,5,8,6,0,2,nan,nan,nan,nan,nan,nan,nan,nan,nan,nan,nan,nan,0.0,nan,nan,nan,nan,nan,nan,nan,nan,nan,nan,nan,nan,nan,nan,nan,nan,nan,nan,169.6212661296595,381.8278865214088,nan,382.0723477421561,nan,nan,nan,nan
1,117,1,1,1.0,1.0,0.2280014721909538,0,8,2,7,5,1,4,nan,nan,nan,nan,nan,nan,nan,nan,nan,nan,nan,nan,0.0,nan,nan,nan,nan,nan,nan,nan,nan,nan,nan,nan,nan,nan,nan,nan,nan,nan,nan,169.6212661296595,382.8363444727147,nan,383.06434594490565,nan,nan,nan,nan
1,118,1,1,1.0,1.0,0.23551005288027227,0,7,5,4,2,6,0,nan,nan,nan,nan,nan,nan,nan,nan,nan,nan,nan,nan,0.0,nan,nan,nan,nan,nan,nan,nan,nan,nan,nan,nan,nan,nan,nan,nan,nan,nan,nan,169.6212661296595,383.844800998515,nan,384.08031105139526,nan,nan,nan,nan
1,119,1,1,1.0,1.0,0.22705267183482647,0,4,0,7,1,2,3,nan,nan,nan,nan,nan,nan,nan,nan,nan,nan,nan,nan,0.0,nan,nan,nan,nan,nan,nan,nan,nan,nan,nan,nan,nan,nan,nan,nan,nan,nan,nan,169.6212661296595,384.85323956323555,nan,385.0802922350704,nan,nan,nan,nan
1,120,1,1,1.0,1.0,0.22655289806425571,0,8,1,4,6,5,7,nan,nan,nan,nan,nan,nan,nan,nan,nan,nan,nan,nan,0.0,nan,nan,nan,nan,nan,nan,nan,nan,nan,nan,nan,nan,nan,nan,nan,nan,nan,nan,169.6212661296595,385.86173571745167,nan,386.0882886155159,nan,nan,nan,nan
1,121,0,0,1.0,0.0,0.2020406051306054,0,4,2,8,0,7,6,nan,nan,nan,nan,nan,nan,nan,nan,nan,nan,nan,nan,0.0,nan,nan,nan,nan,nan,nan,nan,nan,nan,nan,nan,nan,nan,nan,nan,nan,nan,nan,169.6212661296595,386.87019594950834,nan,387.07223655463895,nan,nan,nan,nan
1,122,1,1,1.0,1.0,0.3295618896954693,0,6,8,5,7,2,0,nan,nan,nan,nan,nan,nan,nan,nan,nan,nan,nan,nan,0.0,nan,nan,nan,nan,nan,nan,nan,nan,nan,nan,nan,nan,nan,nan,nan,nan,nan,nan,169.6212661296595,387.8786644493812,nan,388.20822633907665,nan,nan,nan,nan
1,123,1,1,1.0,1.0,0.21710195642663166,0,3,5,2,4,8,1,nan,nan,nan,nan,nan,nan,nan,nan,nan,nan,nan,nan,0.0,nan,nan,nan,nan,nan,nan,nan,nan,nan,nan,nan,nan,nan,nan,nan,nan,nan,nan,169.6212661296595,388.8871315237484,nan,389.104233480175,nan,nan,nan,nan
1,124,1,1,1.0,1.0,0.20067698962520808,0,8,7,6,1,0,5,nan,nan,nan,nan,nan,nan,nan,nan,nan,nan,nan,nan,0.0,nan,nan,nan,nan,nan,nan,nan,nan,nan,nan,nan,nan,nan,nan,nan,nan,nan,nan,169.6212661296595,389.8956139932852,nan,390.09629098291043,nan,nan,nan,nan
1,125,0,0,1.0,0.0,0.232105718285311,0,5,6,7,0,1,3,nan,nan,nan,nan,nan,nan,nan,nan,nan,nan,nan,nan,0.0,nan,nan,nan,nan,nan,nan,nan,nan,nan,nan,nan,nan,nan,nan,nan,nan,nan,nan,169.6212661296595,390.9040451455512,nan,391.1361508638365,nan,nan,nan,nan
1,126,1,1,1.0,1.0,0.5036436730297282,0,0,5,4,6,8,7,nan,nan,nan,nan,nan,nan,nan,nan,nan,nan,nan,nan,0.0,nan,nan,nan,nan,nan,nan,nan,nan,nan,nan,nan,nan,nan,nan,nan,nan,nan,nan,169.6212661296595,391.9125179218245,nan,392.4161615948542,nan,nan,nan,nan
1,127,1,1,1.0,1.0,0.4231170887942426,0,2,8,6,3,1,0,nan,nan,nan,nan,nan,nan,nan,nan,nan,nan,nan,nan,0.0,nan,nan,nan,nan,nan,nan,nan,nan,nan,nan,nan,nan,nan,nan,nan,nan,nan,nan,169.6212661296595,392.9209753029281,nan,393.34409239172237,nan,nan,nan,nan
1,128,1,1,1.0,1.0,0.2466533260885626,0,3,0,1,4,8,5,nan,nan,nan,nan,nan,nan,nan,nan,nan,nan,nan,nan,0.0,nan,nan,nan,nan,nan,nan,nan,nan,nan,nan,nan,nan,nan,nan,nan,nan,nan,nan,169.6212661296595,393.92943610518705,nan,394.1760894312756,nan,nan,nan,nan
1,129,0,0,1.0,0.0,0.26215201505692676,0,0,8,4,1,3,6,nan,nan,nan,nan,nan,nan,nan,nan,nan,nan,nan,nan,0.0,nan,nan,nan,nan,nan,nan,nan,nan,nan,nan,nan,nan,nan,nan,nan,nan,nan,nan,169.6212661296595,394.9379188598832,nan,395.20007087494014,nan,nan,nan,nan
1,130,1,1,1.0,1.0,0.25359057378955185,0,4,5,3,8,1,2,nan,nan,nan,nan,nan,nan,nan,nan,nan,nan,nan,nan,0.0,nan,nan,nan,nan,nan,nan,nan,nan,nan,nan,nan,nan,nan,nan,nan,nan,nan,nan,169.6212661296595,395.9464435236878,nan,396.2000340974773,nan,nan,nan,nan
1,131,1,1,1.0,1.0,0.285172684234567,0,6,2,4,0,8,1,nan,nan,nan,nan,nan,nan,nan,nan,nan,nan,nan,nan,0.0,nan,nan,nan,nan,nan,nan,nan,nan,nan,nan,nan,nan,nan,nan,nan,nan,nan,nan,169.6212661296595,396.9548196523683,nan,397.2399923366029,nan,nan,nan,nan
1,132,1,1,1.0,1.0,0.3087250579847023,0,0,5,8,6,4,7,nan,nan,nan,nan,nan,nan,nan,nan,nan,nan,nan,nan,0.0,nan,nan,nan,nan,nan,nan,nan,nan,nan,nan,nan,nan,nan,nan,nan,nan,nan,nan,169.6212661296595,397.9632824502769,nan,398.2720075082616,nan,nan,nan,nan
1,133,1,1,1.0,1.0,0.29221598780713975,0,7,0,2,3,5,1,nan,nan,nan,nan,nan,nan,nan,nan,nan,nan,nan,nan,0.0,nan,nan,nan,nan,nan,nan,nan,nan,nan,nan,nan,nan,nan,nan,nan,nan,nan,nan,169.6212661296595,398.9717441078392,nan,399.2639600956463,nan,nan,nan,nan
1,134,1,1,1.0,1.0,0.2917609741562046,0,1,8,3,6,0,7,nan,nan,nan,nan,nan,nan,nan,nan,nan,nan,nan,nan,0.0,nan,nan,nan,nan,nan,nan,nan,nan,nan,nan,nan,nan,nan,nan,nan,nan,nan,nan,169.6212661296595,399.9801792514045,nan,400.2719402255607,nan,nan,nan,nan
1,135,1,1,1.0,1.0,0.2592676960048266,0,8,6,4,7,2,3,nan,nan,nan,nan,nan,nan,nan,nan,nan,nan,nan,nan,0.0,nan,nan,nan,nan,nan,nan,nan,nan,nan,nan,nan,nan,nan,nan,nan,nan,nan,nan,169.6212661296595,400.9886426195153,nan,401.24791031552013,nan,nan,nan,nan
1,136,1,1,1.0,1.0,0.2987338589155115,1,6,3,2,0,4,1,1.0,1.0,1.0,1.0,1.0,1.0,0.0,0.0,0.0,0.0,0.0,0.0,0.0,3.0,6.0,5.0,4.0,1.0,0.0,5.0,6.0,1.0,2.0,3.0,4.0,6.6196961044333875,7.403929824125953,1.7726739208446816,3.3089930485002697,4.228596753266174,5.932366894965526,169.6212661296595,401.9971584453597,402.80555350444047,402.2958923042752,411.2649348397972,412.26491374266334,403.82233769254526,411.25661145395134
1,137,0,0,0.0,1.0,0.5821834212983958,0,3,8,7,6,0,5,nan,nan,nan,nan,nan,nan,nan,nan,nan,nan,nan,nan,0.0,nan,nan,nan,nan,nan,nan,nan,nan,nan,nan,nan,nan,nan,nan,nan,nan,nan,nan,169.6212661296595,412.4734679424437,nan,413.0556513637421,nan,nan,nan,nan
1,138,1,1,1.0,1.0,0.38970922178123146,0,5,1,4,0,3,6,nan,nan,nan,nan,nan,nan,nan,nan,nan,nan,nan,nan,0.0,nan,nan,nan,nan,nan,nan,nan,nan,nan,nan,nan,nan,nan,nan,nan,nan,nan,nan,169.6212661296595,413.481908217771,nan,413.8716174395522,nan,nan,nan,nan
1,139,1,1,1.0,1.0,0.32519963156664744,0,8,6,7,3,5,2,nan,nan,nan,nan,nan,nan,nan,nan,nan,nan,nan,nan,0.0,nan,nan,nan,nan,nan,nan,nan,nan,nan,nan,nan,nan,nan,nan,nan,nan,nan,nan,169.6212661296595,414.4903978147777,nan,414.8155974463443,nan,nan,nan,nan
1,140,1,1,1.0,1.0,0.3167413951596245,0,6,4,5,2,8,1,nan,nan,nan,nan,nan,nan,nan,nan,nan,nan,nan,nan,0.0,nan,nan,nan,nan,nan,nan,nan,nan,nan,nan,nan,nan,nan,nan,nan,nan,nan,nan,169.6212661296595,415.49883751990274,nan,415.81557891506236,nan,nan,nan,nan
1,141,1,1,1.0,1.0,0.3242434185813181,1,7,1,0,8,6,3,1.0,1.0,1.0,1.0,1.0,1.0,0.0,1.0,0.0,0.0,0.0,0.0,1.0,5.0,1.0,3.0,0.0,8.0,4.0,5.0,6.0,1.0,2.0,3.0,4.0,7.806351203820668,8.813563569448888,2.2314026707899757,4.261602064303588,5.669790086452849,6.982146985945292,169.6212661296595,416.5073168534436,417.3157293033437,416.83156027202494,427.1752749112202,428.1754610790522,418.3241949522635,427.16694952966645
1,142,1,1,1.0,1.0,0.7514524942380376,0,5,6,7,3,2,8,nan,nan,nan,nan,nan,nan,nan,nan,nan,nan,nan,nan,0.0,nan,nan,nan,nan,nan,nan,nan,nan,nan,nan,nan,nan,nan,nan,nan,nan,nan,nan,169.6212661296595,428.3838399446686,nan,429.1352924389066,nan,nan,nan,nan
1,143,1,1,1.0,1.0,0.6549613737151958,0,1,5,8,2,4,6,nan,nan,nan,nan,nan,nan,nan,nan,nan,nan,nan,nan,0.0,nan,nan,nan,nan,nan,nan,nan,nan,nan,nan,nan,nan,nan,nan,nan,nan,nan,nan,169.6212661296595,429.3923058786313,nan,430.0472672523465,nan,nan,nan,nan
1,144,1,1,1.0,1.0,0.5264562219381332,0,5,4,2,6,0,1,nan,nan,nan,nan,nan,nan,nan,nan,nan,nan,nan,nan,0.0,nan,nan,nan,nan,nan,nan,nan,nan,nan,nan,nan,nan,nan,nan,nan,nan,nan,nan,169.6212661296595,430.400793194829,nan,430.92724941676715,nan,nan,nan,nan
1,145,1,1,1.0,1.0,0.5899654093082063,0,7,0,3,8,4,2,nan,nan,nan,nan,nan,nan,nan,nan,nan,nan,nan,nan,0.0,nan,nan,nan,nan,nan,nan,nan,nan,nan,nan,nan,nan,nan,nan,nan,nan,nan,nan,169.6212661296595,431.4092266278458,nan,431.999192037154,nan,nan,nan,nan
1,146,1,1,1.0,1.0,0.42149203998269513,0,1,5,7,2,8,4,nan,nan,nan,nan,nan,nan,nan,nan,nan,nan,nan,nan,0.0,nan,nan,nan,nan,nan,nan,nan,nan,nan,nan,nan,nan,nan,nan,nan,nan,nan,nan,169.6212661296595,432.4176871450036,nan,432.8391791849863,nan,nan,nan,nan
1,147,0,0,0.0,1.0,0.6849877137574367,0,5,8,6,7,4,2,nan,nan,nan,nan,nan,nan,nan,nan,nan,nan,nan,nan,0.0,nan,nan,nan,nan,nan,nan,nan,nan,nan,nan,nan,nan,nan,nan,nan,nan,nan,nan,169.6212661296595,433.4261858650716,nan,434.11117357882904,nan,nan,nan,nan
1,148,1,1,1.0,1.0,0.46049321081954986,0,3,0,8,5,6,1,nan,nan,nan,nan,nan,nan,nan,nan,nan,nan,nan,nan,0.0,nan,nan,nan,nan,nan,nan,nan,nan,nan,nan,nan,nan,nan,nan,nan,nan,nan,nan,169.6212661296595,434.43463782937033,nan,434.8951310401899,nan,nan,nan,nan
1,149,1,1,1.0,1.0,0.33205448649823666,0,6,3,2,8,4,7,nan,nan,nan,nan,nan,nan,nan,nan,nan,nan,nan,nan,0.0,nan,nan,nan,nan,nan,nan,nan,nan,nan,nan,nan,nan,nan,nan,nan,nan,nan,nan,169.6212661296595,435.4430649902206,nan,435.7751194767188,nan,nan,nan,nan
1,150,1,1,1.0,1.0,0.26754575152881444,0,7,1,6,3,8,5,nan,nan,nan,nan,nan,nan,nan,nan,nan,nan,nan,nan,0.0,nan,nan,nan,nan,nan,nan,nan,nan,nan,nan,nan,nan,nan,nan,nan,nan,nan,nan,169.6212661296595,436.4515434684581,nan,436.7190892199869,nan,nan,nan,nan
1,151,1,1,1.0,1.0,0.29108073440147564,0,5,3,2,4,7,0,nan,nan,nan,nan,nan,nan,nan,nan,nan,nan,nan,nan,0.0,nan,nan,nan,nan,nan,nan,nan,nan,nan,nan,nan,nan,nan,nan,nan,nan,nan,nan,169.6212661296595,437.4599911562982,nan,437.7510718906997,nan,nan,nan,nan
1,152,1,1,1.0,1.0,0.258605417329818,0,4,2,7,5,6,8,nan,nan,nan,nan,nan,nan,nan,nan,nan,nan,nan,nan,0.0,nan,nan,nan,nan,nan,nan,nan,nan,nan,nan,nan,nan,nan,nan,nan,nan,nan,nan,169.6212661296595,438.4684542393079,nan,438.7270596566377,nan,nan,nan,nan
1,153,1,1,1.0,1.0,0.2341025325586088,0,6,4,0,2,1,7,nan,nan,nan,nan,nan,nan,nan,nan,nan,nan,nan,nan,0.0,nan,nan,nan,nan,nan,nan,nan,nan,nan,nan,nan,nan,nan,nan,nan,nan,nan,nan,169.6212661296595,439.4769235944841,nan,439.7110261270427,nan,nan,nan,nan
1,154,1,1,1.0,1.0,0.2496040725382045,0,1,6,5,0,3,2,nan,nan,nan,nan,nan,nan,nan,nan,nan,nan,nan,nan,0.0,nan,nan,nan,nan,nan,nan,nan,nan,nan,nan,nan,nan,nan,nan,nan,nan,nan,nan,169.6212661296595,440.485397796263,nan,440.7350018688012,nan,nan,nan,nan
1,155,1,1,1.0,1.0,0.1771431471570395,1,3,0,8,2,7,6,1.0,1.0,1.0,1.0,1.0,1.0,0.0,0.0,0.0,0.0,0.0,0.0,0.0,6.0,8.0,5.0,4.0,3.0,0.0,5.0,6.0,1.0,2.0,3.0,4.0,6.490214497898705,7.682671591639519,2.7718003858462907,3.626509335357696,4.451132644782774,5.427474500320386,169.6212661296595,441.4938397821388,442.3022562233964,441.67098292929586,451.03669274633285,452.03622062684735,443.3107341314317,451.0283656542306
1,156,1,1,1.0,1.0,0.7215362014248967,0,6,4,0,5,3,2,nan,nan,nan,nan,nan,nan,nan,nan,nan,nan,nan,nan,0.0,nan,nan,nan,nan,nan,nan,nan,nan,nan,nan,nan,nan,nan,nan,nan,nan,nan,nan,169.6212661296595,452.24517681240104,nan,452.96671301382594,nan,nan,nan,nan
1,157,0,0,0.0,1.0,0.7130007038940676,0,1,0,6,4,7,8,nan,nan,nan,nan,nan,nan,nan,nan,nan,nan,nan,nan,0.0,nan,nan,nan,nan,nan,nan,nan,nan,nan,nan,nan,nan,nan,nan,nan,nan,nan,nan,169.6212661296595,453.2536872214405,nan,453.96668792533455,nan,nan,nan,nan
1,158,1,1,1.0,1.0,0.4165490406448953,0,5,4,2,1,8,3,nan,nan,nan,nan,nan,nan,nan,nan,nan,nan,nan,nan,0.0,nan,nan,nan,nan,nan,nan,nan,nan,nan,nan,nan,nan,nan,nan,nan,nan,nan,nan,169.6212661296595,454.26213433907833,nan,454.6786833797232,nan,nan,nan,nan
1,159,1,1,1.0,1.0,0.31206210993696004,0,2,5,0,6,1,8,nan,nan,nan,nan,nan,nan,nan,nan,nan,nan,nan,nan,0.0,nan,nan,nan,nan,nan,nan,nan,nan,nan,nan,nan,nan,nan,nan,nan,nan,nan,nan,169.6212661296595,455.27059913263656,nan,455.5826612425735,nan,nan,nan,nan
1,160,1,1,1.0,1.0,0.3435940433992073,0,1,0,8,5,3,7,nan,nan,nan,nan,nan,nan,nan,nan,nan,nan,nan,nan,0.0,nan,nan,nan,nan,nan,nan,nan,nan,nan,nan,nan,nan,nan,nan,nan,nan,nan,nan,169.6212661296595,456.27903541666456,nan,456.62262946006376,nan,nan,nan,nan
1,161,1,1,1.0,1.0,0.4390668000560254,0,4,5,0,7,1,8,nan,nan,nan,nan,nan,nan,nan,nan,nan,nan,nan,nan,0.0,nan,nan,nan,nan,nan,nan,nan,nan,nan,nan,nan,nan,nan,nan,nan,nan,nan,nan,169.6212661296595,457.28753413667437,nan,457.7266009367304,nan,nan,nan,nan
1,162,1,1,1.0,1.0,0.35055723489494994,0,7,4,3,1,8,0,nan,nan,nan,nan,nan,nan,nan,nan,nan,nan,nan,nan,0.0,nan,nan,nan,nan,nan,nan,nan,nan,nan,nan,nan,nan,nan,nan,nan,nan,nan,nan,169.6212661296595,458.29603485245025,nan,458.6465920873452,nan,nan,nan,nan
1,163,1,1,1.0,1.0,0.3021176666370593,0,1,6,5,8,4,3,nan,nan,nan,nan,nan,nan,nan,nan,nan,nan,nan,nan,0.0,nan,nan,nan,nan,nan,nan,nan,nan,nan,nan,nan,nan,nan,nan,nan,nan,nan,nan,169.6212661296595,459.3044466181309,nan,459.60656428476796,nan,nan,nan,nan
1,164,1,1,1.0,1.0,0.30966530553996563,0,0,8,1,4,3,6,nan,nan,nan,nan,nan,nan,nan,nan,nan,nan,nan,nan,0.0,nan,nan,nan,nan,nan,nan,nan,nan,nan,nan,nan,nan,nan,nan,nan,nan,nan,nan,169.6212661296595,460.31288489775034,nan,460.6225502032903,nan,nan,nan,nan
1,165,1,1,1.0,1.0,0.32515002478612587,0,3,6,5,0,2,7,nan,nan,nan,nan,nan,nan,nan,nan,nan,nan,nan,nan,0.0,nan,nan,nan,nan,nan,nan,nan,nan,nan,nan,nan,nan,nan,nan,nan,nan,nan,nan,169.6212661296595,461.32136964809615,nan,461.6465196728823,nan,nan,nan,nan
1,166,1,1,1.0,1.0,0.3007081506657414,0,7,1,2,3,8,4,nan,nan,nan,nan,nan,nan,nan,nan,nan,nan,nan,nan,0.0,nan,nan,nan,nan,nan,nan,nan,nan,nan,nan,nan,nan,nan,nan,nan,nan,nan,nan,169.6212661296595,462.3298333013081,nan,462.63054145197384,nan,nan,nan,nan
1,167,1,1,1.0,1.0,0.3321745120338164,0,8,2,0,7,4,3,nan,nan,nan,nan,nan,nan,nan,nan,nan,nan,nan,nan,0.0,nan,nan,nan,nan,nan,nan,nan,nan,nan,nan,nan,nan,nan,nan,nan,nan,nan,nan,169.6212661296595,463.3382975247223,nan,463.6704720367561,nan,nan,nan,nan
1,168,1,1,1.0,1.0,0.291676870721858,0,1,4,2,5,0,7,nan,nan,nan,nan,nan,nan,nan,nan,nan,nan,nan,nan,0.0,nan,nan,nan,nan,nan,nan,nan,nan,nan,nan,nan,nan,nan,nan,nan,nan,nan,nan,169.6212661296595,464.34675975248683,nan,464.6384366232087,nan,nan,nan,nan
1,169,1,1,1.0,1.0,0.25120118190534413,0,5,3,4,7,8,6,nan,nan,nan,nan,nan,nan,nan,nan,nan,nan,nan,nan,0.0,nan,nan,nan,nan,nan,nan,nan,nan,nan,nan,nan,nan,nan,nan,nan,nan,nan,nan,169.6212661296595,465.3552288225037,nan,465.60643000440905,nan,nan,nan,nan
1,170,1,1,1.0,1.0,0.35472192137967795,0,2,8,5,6,7,3,nan,nan,nan,nan,nan,nan,nan,nan,nan,nan,nan,nan,0.0,nan,nan,nan,nan,nan,nan,nan,nan,nan,nan,nan,nan,nan,nan,nan,nan,nan,nan,169.6212661296595,466.36368363775546,nan,466.71840555913514,nan,nan,nan,nan
1,171,1,1,1.0,1.0,0.2902160373632796,0,4,6,1,2,0,8,nan,nan,nan,nan,nan,nan,nan,nan,nan,nan,nan,nan,0.0,nan,nan,nan,nan,nan,nan,nan,nan,nan,nan,nan,nan,nan,nan,nan,nan,nan,nan,169.6212661296595,467.3721524227294,nan,467.6623684600927,nan,nan,nan,nan
1,172,1,1,1.0,1.0,0.24176535033620894,0,7,3,2,1,6,5,nan,nan,nan,nan,nan,nan,nan,nan,nan,nan,nan,nan,0.0,nan,nan,nan,nan,nan,nan,nan,nan,nan,nan,nan,nan,nan,nan,nan,nan,nan,nan,169.6212661296595,468.3806060975767,nan,468.6223714479129,nan,nan,nan,nan
1,173,1,1,1.0,1.0,0.2812654396984726,0,2,1,3,5,8,4,nan,nan,nan,nan,nan,nan,nan,nan,nan,nan,nan,nan,0.0,nan,nan,nan,nan,nan,nan,nan,nan,nan,nan,nan,nan,nan,nan,nan,nan,nan,nan,169.6212661296595,469.3890671849367,nan,469.6703326246352,nan,nan,nan,nan
1,174,1,1,1.0,1.0,0.2887945473776199,0,4,8,5,0,2,1,nan,nan,nan,nan,nan,nan,nan,nan,nan,nan,nan,nan,0.0,nan,nan,nan,nan,nan,nan,nan,nan,nan,nan,nan,nan,nan,nan,nan,nan,nan,nan,169.6212661296595,470.3975328337983,nan,470.68632738117594,nan,nan,nan,nan
1,175,1,1,1.0,1.0,0.29628972854698077,0,5,2,8,7,3,0,nan,nan,nan,nan,nan,nan,nan,nan,nan,nan,nan,nan,0.0,nan,nan,nan,nan,nan,nan,nan,nan,nan,nan,nan,nan,nan,nan,nan,nan,nan,nan,169.6212661296595,471.40599249565275,nan,471.70228222419973,nan,nan,nan,nan
1,176,1,1,1.0,1.0,0.3118035275838338,0,1,3,6,5,7,2,nan,nan,nan,nan,nan,nan,nan,nan,nan,nan,nan,nan,0.0,nan,nan,nan,nan,nan,nan,nan,nan,nan,nan,nan,nan,nan,nan,nan,nan,nan,nan,169.6212661296595,472.4144521575654,nan,472.7262556851492,nan,nan,nan,nan
1,177,1,1,1.0,1.0,0.27131900074891746,0,3,6,7,4,1,8,nan,nan,nan,nan,nan,nan,nan,nan,nan,nan,nan,nan,0.0,nan,nan,nan,nan,nan,nan,nan,nan,nan,nan,nan,nan,nan,nan,nan,nan,nan,nan,169.6212661296595,473.4229126747232,nan,473.6942316754721,nan,nan,nan,nan
1,178,0,0,1.0,0.0,0.2548407210269943,0,2,4,6,1,5,7,nan,nan,nan,nan,nan,nan,nan,nan,nan,nan,nan,nan,0.0,nan,nan,nan,nan,nan,nan,nan,nan,nan,nan,nan,nan,nan,nan,nan,nan,nan,nan,169.6212661296595,474.43139172310475,nan,474.68623244413175,nan,nan,nan,nan
1,179,1,1,1.0,1.0,0.45434767549159005,1,3,5,2,4,8,0,1.0,1.0,1.0,1.0,1.0,1.0,0.0,1.0,1.0,1.0,0.0,0.0,3.0,1.0,5.0,2.0,4.0,7.0,3.0,4.0,2.0,1.0,3.0,5.0,6.0,5.64830694149714,2.688927459239494,1.8025779545423575,4.176337179902475,7.559459537267685,9.527647354116198,169.6212661296595,475.43984482774977,476.2482569926069,475.89419250324136,486.8245930891717,487.82441176794237,477.2567360410467,486.81626229081303
1,180,1,1,nan,nan,nan,0,4,7,0,1,3,6,nan,nan,nan,nan,nan,nan,nan,nan,nan,nan,nan,nan,0.0,nan,nan,nan,nan,nan,nan,nan,nan,nan,nan,nan,nan,nan,nan,nan,nan,nan,nan,169.6212661296595,488.0332003168878,nan,nan,nan,nan,nan,nan
1,181,1,1,1.0,1.0,0.5402551668812521,0,5,3,1,0,8,4,nan,nan,nan,nan,nan,nan,nan,nan,nan,nan,nan,nan,0.0,nan,nan,nan,nan,nan,nan,nan,nan,nan,nan,nan,nan,nan,nan,nan,nan,nan,nan,169.6212661296595,489.04157758591464,nan,489.5818327527959,nan,nan,nan,nan
1,182,1,1,1.0,1.0,0.4038060923339799,0,3,2,7,6,1,0,nan,nan,nan,nan,nan,nan,nan,nan,nan,nan,nan,nan,0.0,nan,nan,nan,nan,nan,nan,nan,nan,nan,nan,nan,nan,nan,nan,nan,nan,nan,nan,169.6212661296595,490.0500372478273,nan,490.45384334016126,nan,nan,nan,nan
1,183,1,1,1.0,1.0,0.2513206372386776,0,1,6,8,0,3,5,nan,nan,nan,nan,nan,nan,nan,nan,nan,nan,nan,nan,0.0,nan,nan,nan,nan,nan,nan,nan,nan,nan,nan,nan,nan,nan,nan,nan,nan,nan,nan,169.6212661296595,491.05850489239674,nan,491.3098255296354,nan,nan,nan,nan
1,184,1,1,1.0,1.0,0.29083811747841537,0,7,4,3,1,5,0,nan,nan,nan,nan,nan,nan,nan,nan,nan,nan,nan,nan,0.0,nan,nan,nan,nan,nan,nan,nan,nan,nan,nan,nan,nan,nan,nan,nan,nan,nan,nan,169.6212661296595,492.06696027779253,nan,492.35779839527095,nan,nan,nan,nan
1,185,0,0,1.0,0.0,0.2023485091049224,0,5,6,4,7,1,8,nan,nan,nan,nan,nan,nan,nan,nan,nan,nan,nan,nan,0.0,nan,nan,nan,nan,nan,nan,nan,nan,nan,nan,nan,nan,nan,nan,nan,nan,nan,nan,169.6212661296595,493.0754242161056,nan,493.2777727252105,nan,nan,nan,nan
1,186,1,1,1.0,1.0,0.37789397669257596,0,6,3,2,5,8,0,nan,nan,nan,nan,nan,nan,nan,nan,nan,nan,nan,nan,0.0,nan,nan,nan,nan,nan,nan,nan,nan,nan,nan,nan,nan,nan,nan,nan,nan,nan,nan,169.6212661296595,494.0838855885668,nan,494.46177956525935,nan,nan,nan,nan
1,187,1,1,1.0,1.0,0.24945895856944844,0,4,0,3,7,5,1,nan,nan,nan,nan,nan,nan,nan,nan,nan,nan,nan,nan,0.0,nan,nan,nan,nan,nan,nan,nan,nan,nan,nan,nan,nan,nan,nan,nan,nan,nan,nan,169.6212661296595,495.09234211436706,nan,495.3418010729365,nan,nan,nan,nan
1,188,1,1,1.0,1.0,0.26492429128848016,0,3,4,7,2,0,5,nan,nan,nan,nan,nan,nan,nan,nan,nan,nan,nan,nan,0.0,nan,nan,nan,nan,nan,nan,nan,nan,nan,nan,nan,nan,nan,nan,nan,nan,nan,nan,169.6212661296595,496.1008120396873,nan,496.3657363309758,nan,nan,nan,nan
1,189,0,0,1.0,0.0,0.24045276711694896,0,1,2,0,5,8,6,nan,nan,nan,nan,nan,nan,nan,nan,nan,nan,nan,nan,0.0,nan,nan,nan,nan,nan,nan,nan,nan,nan,nan,nan,nan,nan,nan,nan,nan,nan,nan,169.6212661296595,497.10926942079095,nan,497.3497221879079,nan,nan,nan,nan
1,190,1,1,1.0,1.0,0.23194720468018204,0,4,3,2,6,7,8,nan,nan,nan,nan,nan,nan,nan,nan,nan,nan,nan,nan,0.0,nan,nan,nan,nan,nan,nan,nan,nan,nan,nan,nan,nan,nan,nan,nan,nan,nan,nan,169.6212661296595,498.1177393461694,nan,498.3496865508496,nan,nan,nan,nan
1,191,1,1,1.0,1.0,0.3354334475588985,0,2,1,7,0,3,5,nan,nan,nan,nan,nan,nan,nan,nan,nan,nan,nan,nan,0.0,nan,nan,nan,nan,nan,nan,nan,nan,nan,nan,nan,nan,nan,nan,nan,nan,nan,nan,169.6212661296595,499.1262124075438,nan,499.4616458551027,nan,nan,nan,nan
1,192,1,1,1.0,1.0,0.24696123000467196,0,6,8,4,2,1,3,nan,nan,nan,nan,nan,nan,nan,nan,nan,nan,nan,nan,0.0,nan,nan,nan,nan,nan,nan,nan,nan,nan,nan,nan,nan,nan,nan,nan,nan,nan,nan,169.6212661296595,500.134663231438,nan,500.3816244614427,nan,nan,nan,nan
1,193,1,1,1.0,1.0,0.3024623480741866,0,1,3,5,4,2,7,nan,nan,nan,nan,nan,nan,nan,nan,nan,nan,nan,nan,0.0,nan,nan,nan,nan,nan,nan,nan,nan,nan,nan,nan,nan,nan,nan,nan,nan,nan,nan,169.6212661296595,501.1431197572383,nan,501.4455821053125,nan,nan,nan,nan
1,194,1,1,1.0,1.0,0.26200005871942267,1,7,4,6,3,1,0,1.0,1.0,1.0,1.0,1.0,1.0,0.0,0.0,0.0,0.0,0.0,0.0,0.0,8.0,6.0,7.0,2.0,5.0,1.0,5.0,6.0,1.0,2.0,3.0,4.0,7.287256737996358,8.166907335398719,2.8887753888848238,4.049576817313209,4.99138610099908,5.911254945327528,169.6212661296595,502.1515899676597,502.96000612387434,502.4135900263791,512.1861815543962,513.1862368630827,503.97680342639796,512.1778045704705
1,195,0,0,0.0,1.0,0.6666466149035841,0,3,2,4,1,6,8,nan,nan,nan,nan,nan,nan,nan,nan,nan,nan,nan,nan,0.0,nan,nan,nan,nan,nan,nan,nan,nan,nan,nan,nan,nan,nan,nan,nan,nan,nan,nan,169.6212661296595,513.3946861474542,nan,514.0613327623578,nan,nan,nan,nan
1,196,1,1,1.0,1.0,0.45815171516733244,0,5,1,0,4,7,2,nan,nan,nan,nan,nan,nan,nan,nan,nan,nan,nan,nan,0.0,nan,nan,nan,nan,nan,nan,nan,nan,nan,nan,nan,nan,nan,nan,nan,nan,nan,nan,169.6212661296595,514.4031603492331,nan,514.8613120644004,nan,nan,nan,nan
1,197,1,1,1.0,1.0,0.3617281623883173,0,1,0,5,6,3,4,nan,nan,nan,nan,nan,nan,nan,nan,nan,nan,nan,nan,0.0,nan,nan,nan,nan,nan,nan,nan,nan,nan,nan,nan,nan,nan,nan,nan,nan,nan,nan,169.6212661296595,515.4115855144919,nan,515.7733136768802,nan,nan,nan,nan
1,198,1,1,1.0,1.0,0.32116608938667923,0,5,3,6,8,4,1,nan,nan,nan,nan,nan,nan,nan,nan,nan,nan,nan,nan,0.0,nan,nan,nan,nan,nan,nan,nan,nan,nan,nan,nan,nan,nan,nan,nan,nan,nan,nan,169.6212661296595,516.4200759667438,nan,516.7412420561304,nan,nan,nan,nan
1,199,1,1,1.0,1.0,0.3366710505215451,0,1,7,5,0,2,8,nan,nan,nan,nan,nan,nan,nan,nan,nan,nan,nan,nan,0.0,nan,nan,nan,nan,nan,nan,nan,nan,nan,nan,nan,nan,nan,nan,nan,nan,nan,nan,169.6212661296595,517.4285564406309,nan,517.7652274911525,nan,nan,nan,nan
1,200,1,1,1.0,1.0,0.2641930193058215,0,8,5,6,2,7,1,nan,nan,nan,nan,nan,nan,nan,nan,nan,nan,nan,nan,0.0,nan,nan,nan,nan,nan,nan,nan,nan,nan,nan,nan,nan,nan,nan,nan,nan,nan,nan,169.6212661296595,518.4369995669113,nan,518.7011925862171,nan,nan,nan,nan
1,201,1,1,1.0,1.0,0.2557116901734844,0,5,6,1,8,0,2,nan,nan,nan,nan,nan,nan,nan,nan,nan,nan,nan,nan,0.0,nan,nan,nan,nan,nan,nan,nan,nan,nan,nan,nan,nan,nan,nan,nan,nan,nan,nan,169.6212661296595,519.4454623648198,nan,519.7011740549933,nan,nan,nan,nan
1,202,1,1,1.0,1.0,0.31122991390293464,0,2,7,8,4,5,3,nan,nan,nan,nan,nan,nan,nan,nan,nan,nan,nan,nan,0.0,nan,nan,nan,nan,nan,nan,nan,nan,nan,nan,nan,nan,nan,nan,nan,nan,nan,nan,169.6212661296595,520.4539251627866,nan,520.7651550766896,nan,nan,nan,nan
1,203,1,1,1.0,1.0,0.2627598402905278,0,5,2,4,8,3,0,nan,nan,nan,nan,nan,nan,nan,nan,nan,nan,nan,nan,0.0,nan,nan,nan,nan,nan,nan,nan,nan,nan,nan,nan,nan,nan,nan,nan,nan,nan,nan,169.6212661296595,521.4623748462764,nan,521.7251346865669,nan,nan,nan,nan
1,204,1,1,1.0,1.0,0.23825239401776344,0,4,8,0,1,7,3,nan,nan,nan,nan,nan,nan,nan,nan,nan,nan,nan,nan,0.0,nan,nan,nan,nan,nan,nan,nan,nan,nan,nan,nan,nan,nan,nan,nan,nan,nan,nan,169.6212661296595,522.4708530394128,nan,522.7091054334305,nan,nan,nan,nan
1,205,1,1,1.0,1.0,0.18176911934278905,0,0,3,2,7,4,6,nan,nan,nan,nan,nan,nan,nan,nan,nan,nan,nan,nan,0.0,nan,nan,nan,nan,nan,nan,nan,nan,nan,nan,nan,nan,nan,nan,nan,nan,nan,nan,169.6212661296595,523.47930671426,nan,523.6610758336028,nan,nan,nan,nan
1,206,1,1,1.0,1.0,0.26126194442622364,0,2,6,0,4,8,3,nan,nan,nan,nan,nan,nan,nan,nan,nan,nan,nan,nan,0.0,nan,nan,nan,nan,nan,nan,nan,nan,nan,nan,nan,nan,nan,nan,nan,nan,nan,nan,169.6212661296595,524.4877920348081,nan,524.7490539792343,nan,nan,nan,nan
1,207,1,1,1.0,1.0,0.2768105252762325,0,3,1,5,7,2,6,nan,nan,nan,nan,nan,nan,nan,nan,nan,nan,nan,nan,0.0,nan,nan,nan,nan,nan,nan,nan,nan,nan,nan,nan,nan,nan,nan,nan,nan,nan,nan,169.6212661296595,525.4962305995286,nan,525.7730411248049,nan,nan,nan,nan
1,208,1,1,1.0,1.0,0.22830624011112377,0,7,4,8,1,0,2,nan,nan,nan,nan,nan,nan,nan,nan,nan,nan,nan,nan,0.0,nan,nan,nan,nan,nan,nan,nan,nan,nan,nan,nan,nan,nan,nan,nan,nan,nan,nan,169.6212661296595,526.5047102181707,nan,526.7330164582818,nan,nan,nan,nan
1,209,1,1,1.0,1.0,0.25182896386832,0,0,6,1,5,8,3,nan,nan,nan,nan,nan,nan,nan,nan,nan,nan,nan,nan,0.0,nan,nan,nan,nan,nan,nan,nan,nan,nan,nan,nan,nan,nan,nan,nan,nan,nan,nan,169.6212661296595,527.5131599016604,nan,527.7649888655287,nan,nan,nan,nan
1,210,1,1,1.0,1.0,0.20334235474001616,0,6,0,3,4,5,1,nan,nan,nan,nan,nan,nan,nan,nan,nan,nan,nan,nan,0.0,nan,nan,nan,nan,nan,nan,nan,nan,nan,nan,nan,nan,nan,nan,nan,nan,nan,nan,169.6212661296595,528.5216275462299,nan,528.7249699009699,nan,nan,nan,nan
1,211,1,1,1.0,1.0,0.24286781769478694,0,5,7,1,3,8,2,nan,nan,nan,nan,nan,nan,nan,nan,nan,nan,nan,nan,0.0,nan,nan,nan,nan,nan,nan,nan,nan,nan,nan,nan,nan,nan,nan,nan,nan,nan,nan,169.6212661296595,529.5300857825787,nan,529.7729536002735,nan,nan,nan,nan
1,212,1,1,1.0,1.0,0.2344221255625598,0,2,4,0,8,1,5,nan,nan,nan,nan,nan,nan,nan,nan,nan,nan,nan,nan,0.0,nan,nan,nan,nan,nan,nan,nan,nan,nan,nan,nan,nan,nan,nan,nan,nan,nan,nan,169.6212661296595,530.5385220665485,nan,530.772944192111,nan,nan,nan,nan
1,213,1,1,1.0,1.0,0.2178896774421446,0,0,2,6,3,5,7,nan,nan,nan,nan,nan,nan,nan,nan,nan,nan,nan,nan,0.0,nan,nan,nan,nan,nan,nan,nan,nan,nan,nan,nan,nan,nan,nan,nan,nan,nan,nan,169.6212661296595,531.5470065317932,nan,531.7648962092353,nan,nan,nan,nan
1,214,1,1,1.0,1.0,0.19338878837879747,0,2,0,1,4,7,6,nan,nan,nan,nan,nan,nan,nan,nan,nan,nan,nan,nan,0.0,nan,nan,nan,nan,nan,nan,nan,nan,nan,nan,nan,nan,nan,nan,nan,nan,nan,nan,169.6212661296595,532.555496413901,nan,532.7488852022798,nan,nan,nan,nan
1,215,1,1,1.0,1.0,0.2569073839113116,0,5,1,3,7,6,2,nan,nan,nan,nan,nan,nan,nan,nan,nan,nan,nan,nan,0.0,nan,nan,nan,nan,nan,nan,nan,nan,nan,nan,nan,nan,nan,nan,nan,nan,nan,nan,169.6212661296595,533.5639441017411,nan,533.8208514856524,nan,nan,nan,nan
1,216,1,1,1.0,1.0,0.2724063580390066,0,4,3,7,0,5,8,nan,nan,nan,nan,nan,nan,nan,nan,nan,nan,nan,nan,0.0,nan,nan,nan,nan,nan,nan,nan,nan,nan,nan,nan,nan,nan,nan,nan,nan,nan,nan,169.6212661296595,534.5724126015557,nan,534.8448189595947,nan,nan,nan,nan
1,217,1,1,1.0,1.0,0.25594119261950254,0,2,4,8,7,3,0,nan,nan,nan,nan,nan,nan,nan,nan,nan,nan,nan,nan,0.0,nan,nan,nan,nan,nan,nan,nan,nan,nan,nan,nan,nan,nan,nan,nan,nan,nan,nan,169.6212661296595,535.5808594340924,nan,535.8368006267119,nan,nan,nan,nan
1,218,1,1,1.0,1.0,0.27145641716197133,0,0,7,4,2,1,3,nan,nan,nan,nan,nan,nan,nan,nan,nan,nan,nan,nan,0.0,nan,nan,nan,nan,nan,nan,nan,nan,nan,nan,nan,nan,nan,nan,nan,nan,nan,nan,169.6212661296595,536.5893116834923,nan,536.8607681006542,nan,nan,nan,nan
1,219,1,1,1.0,1.0,0.27095350733725354,1,6,1,2,5,3,7,1.0,1.0,1.0,1.0,1.0,1.0,0.0,0.0,0.0,1.0,0.0,0.0,1.0,7.0,8.0,1.0,5.0,6.0,3.0,5.0,6.0,1.0,2.0,3.0,4.0,7.376395510684233,8.207972603384405,3.000500343972817,4.250308545480948,5.161608250928111,6.26574394304771,169.6212661296595,537.5978007102967,538.4061986202723,537.868754217634,547.6657023759908,548.6654449340422,539.4146833706181,547.6573704372859
1,220,1,1,1.0,1.0,0.5223143431358039,0,3,2,5,0,7,8,nan,nan,nan,nan,nan,nan,nan,nan,nan,nan,nan,nan,0.0,nan,nan,nan,nan,nan,nan,nan,nan,nan,nan,nan,nan,nan,nan,nan,nan,nan,nan,169.6212661296595,548.8742012671428,nan,549.3965156102786,nan,nan,nan,nan
1,221,0,0,0.0,1.0,0.5537761430023238,0,2,4,6,8,3,0,nan,nan,nan,nan,nan,nan,nan,nan,nan,nan,nan,nan,0.0,nan,nan,nan,nan,nan,nan,nan,nan,nan,nan,nan,nan,nan,nan,nan,nan,nan,nan,169.6212661296595,549.8826865876326,nan,550.436462730635,nan,nan,nan,nan
1,222,1,1,1.0,1.0,0.32932183862430975,0,4,6,3,1,0,5,nan,nan,nan,nan,nan,nan,nan,nan,nan,nan,nan,nan,0.0,nan,nan,nan,nan,nan,nan,nan,nan,nan,nan,nan,nan,nan,nan,nan,nan,nan,nan,169.6212661296595,550.8911653509713,nan,551.2204871895956,nan,nan,nan,nan
1,223,1,1,1.0,1.0,0.328841166337952,0,2,5,7,3,6,1,nan,nan,nan,nan,nan,nan,nan,nan,nan,nan,nan,nan,0.0,nan,nan,nan,nan,nan,nan,nan,nan,nan,nan,nan,nan,nan,nan,nan,nan,nan,nan,169.6212661296595,551.8996079070494,nan,552.2284490733873,nan,nan,nan,nan
1,224,1,1,1.0,1.0,0.22428666771156713,0,0,1,6,7,3,2,nan,nan,nan,nan,nan,nan,nan,nan,nan,nan,nan,nan,0.0,nan,nan,nan,nan,nan,nan,nan,nan,nan,nan,nan,nan,nan,nan,nan,nan,nan,nan,169.6212661296595,552.9081146098324,nan,553.132401277544,nan,nan,nan,nan
1,225,1,1,1.0,1.0,0.27183787600370124,0,4,7,3,0,5,6,nan,nan,nan,nan,nan,nan,nan,nan,nan,nan,nan,nan,0.0,nan,nan,nan,nan,nan,nan,nan,nan,nan,nan,nan,nan,nan,nan,nan,nan,nan,nan,169.6212661296595,553.9165503236,nan,554.1883881996037,nan,nan,nan,nan
1,226,1,1,1.0,1.0,0.3113616283517331,0,6,0,2,5,4,1,nan,nan,nan,nan,nan,nan,nan,nan,nan,nan,nan,nan,0.0,nan,nan,nan,nan,nan,nan,nan,nan,nan,nan,nan,nan,nan,nan,nan,nan,nan,nan,169.6212661296595,554.9249886032776,nan,555.2363502316293,nan,nan,nan,nan
1,227,1,1,1.0,1.0,0.2868764196173288,0,1,3,4,7,0,6,nan,nan,nan,nan,nan,nan,nan,nan,nan,nan,nan,nan,0.0,nan,nan,nan,nan,nan,nan,nan,nan,nan,nan,nan,nan,nan,nan,nan,nan,nan,nan,169.6212661296595,555.9334545372403,nan,556.2203309568577,nan,nan,nan,nan
1,228,0,0,1.0,0.0,0.2783945202245377,0,7,5,1,3,2,0,nan,nan,nan,nan,nan,nan,nan,nan,nan,nan,nan,nan,0.0,nan,nan,nan,nan,nan,nan,nan,nan,nan,nan,nan,nan,nan,nan,nan,nan,nan,nan,169.6212661296595,556.941914769297,nan,557.2203092895215,nan,nan,nan,nan
1,229,1,1,1.0,1.0,0.24590067192912102,0,4,8,2,6,7,5,nan,nan,nan,nan,nan,nan,nan,nan,nan,nan,nan,nan,0.0,nan,nan,nan,nan,nan,nan,nan,nan,nan,nan,nan,nan,nan,nan,nan,nan,nan,nan,169.6212661296595,557.9503852648195,nan,558.1962859367486,nan,nan,nan,nan
1,230,1,1,1.0,1.0,0.24542056978680193,0,8,4,7,1,6,2,nan,nan,nan,nan,nan,nan,nan,nan,nan,nan,nan,nan,0.0,nan,nan,nan,nan,nan,nan,nan,nan,nan,nan,nan,nan,nan,nan,nan,nan,nan,nan,169.6212661296595,558.9588454968762,nan,559.204266066663,nan,nan,nan,nan
1,231,1,1,1.0,1.0,0.26889881846727803,0,3,1,8,6,2,4,nan,nan,nan,nan,nan,nan,nan,nan,nan,nan,nan,nan,0.0,nan,nan,nan,nan,nan,nan,nan,nan,nan,nan,nan,nan,nan,nan,nan,nan,nan,nan,169.6212661296595,559.9673430765979,nan,560.2362418950652,nan,nan,nan,nan
1,232,1,1,1.0,1.0,0.2443853851291351,0,2,7,1,0,8,5,nan,nan,nan,nan,nan,nan,nan,nan,nan,nan,nan,nan,0.0,nan,nan,nan,nan,nan,nan,nan,nan,nan,nan,nan,nan,nan,nan,nan,nan,nan,nan,169.6212661296595,560.9758235504851,nan,561.2202089356142,nan,nan,nan,nan
1,233,1,1,nan,nan,nan,0,4,2,5,8,7,3,nan,nan,nan,nan,nan,nan,nan,nan,nan,nan,nan,nan,0.0,nan,nan,nan,nan,nan,nan,nan,nan,nan,nan,nan,nan,nan,nan,nan,nan,nan,nan,169.6212661296595,561.9842347459635,nan,nan,nan,nan,nan,nan
1,234,1,1,1.0,1.0,0.6674899297067896,0,0,4,7,6,1,5,nan,nan,nan,nan,nan,nan,nan,nan,nan,nan,nan,nan,0.0,nan,nan,nan,nan,nan,nan,nan,nan,nan,nan,nan,nan,nan,nan,nan,nan,nan,nan,169.6212661296595,562.9926855698577,nan,563.6601754995645,nan,nan,nan,nan
1,235,1,1,1.0,1.0,0.322985288745258,0,5,0,2,7,3,8,nan,nan,nan,nan,nan,nan,nan,nan,nan,nan,nan,nan,0.0,nan,nan,nan,nan,nan,nan,nan,nan,nan,nan,nan,nan,nan,nan,nan,nan,nan,nan,169.6212661296595,564.0011594865355,nan,564.3241447752807,nan,nan,nan,nan
1,236,1,1,1.0,1.0,0.3545240645762533,0,7,4,1,2,6,0,nan,nan,nan,nan,nan,nan,nan,nan,nan,nan,nan,nan,0.0,nan,nan,nan,nan,nan,nan,nan,nan,nan,nan,nan,nan,nan,nan,nan,nan,nan,nan,169.6212661296595,565.0095986214583,nan,565.3641226860345,nan,nan,nan,nan
1,237,1,1,1.0,1.0,0.3700390040175989,0,5,2,8,1,0,7,nan,nan,nan,nan,nan,nan,nan,nan,nan,nan,nan,nan,0.0,nan,nan,nan,nan,nan,nan,nan,nan,nan,nan,nan,nan,nan,nan,nan,nan,nan,nan,169.6212661296595,566.0180822314578,nan,566.3881212354754,nan,nan,nan,nan
1,238,1,1,1.0,1.0,0.36951072060037404,0,3,8,1,0,4,2,nan,nan,nan,nan,nan,nan,nan,nan,nan,nan,nan,nan,0.0,nan,nan,nan,nan,nan,nan,nan,nan,nan,nan,nan,nan,nan,nan,nan,nan,nan,nan,169.6212661296595,567.0265809515258,nan,567.3960916721262,nan,nan,nan,nan
1,239,0,0,0.0,1.0,0.5291076173307374,0,7,0,6,4,5,1,nan,nan,nan,nan,nan,nan,nan,nan,nan,nan,nan,nan,0.0,nan,nan,nan,nan,nan,nan,nan,nan,nan,nan,nan,nan,nan,nan,nan,nan,nan,nan,169.6212661296595,568.0349873003433,nan,568.5640949176741,nan,nan,nan,nan
1,240,1,1,1.0,1.0,0.712544834939763,0,2,6,7,0,3,5,nan,nan,nan,nan,nan,nan,nan,nan,nan,nan,nan,nan,0.0,nan,nan,nan,nan,nan,nan,nan,nan,nan,nan,nan,nan,nan,nan,nan,nan,nan,nan,169.6212661296595,569.0434691997361,nan,569.7560140346759,nan,nan,nan,nan
1,241,1,1,1.0,1.0,0.3920672530657612,0,3,2,4,1,5,7,nan,nan,nan,nan,nan,nan,nan,nan,nan,nan,nan,nan,0.0,nan,nan,nan,nan,nan,nan,nan,nan,nan,nan,nan,nan,nan,nan,nan,nan,nan,nan,169.6212661296595,570.0519280063454,nan,570.4439952594112,nan,nan,nan,nan
1,242,0,0,0.0,1.0,0.4875699448166415,0,6,8,2,7,1,5,nan,nan,nan,nan,nan,nan,nan,nan,nan,nan,nan,nan,0.0,nan,nan,nan,nan,nan,nan,nan,nan,nan,nan,nan,nan,nan,nan,nan,nan,nan,nan,169.6212661296595,571.0603985018679,nan,571.5479684466845,nan,nan,nan,nan
1,243,1,1,1.0,1.0,0.39109707047464326,0,5,6,3,8,7,4,nan,nan,nan,nan,nan,nan,nan,nan,nan,nan,nan,nan,0.0,nan,nan,nan,nan,nan,nan,nan,nan,nan,nan,nan,nan,nan,nan,nan,nan,nan,nan,169.6212661296595,572.068846759852,nan,572.4599438303267,nan,nan,nan,nan
1,244,0,0,0.0,1.0,0.4386189137585461,0,3,2,8,5,4,1,nan,nan,nan,nan,nan,nan,nan,nan,nan,nan,nan,nan,0.0,nan,nan,nan,nan,nan,nan,nan,nan,nan,nan,nan,nan,nan,nan,nan,nan,nan,nan,169.6212661296595,573.0773129789741,nan,573.5159318927326,nan,nan,nan,nan
1,245,1,1,1.0,1.0,0.35011105926241726,0,5,6,3,4,7,0,nan,nan,nan,nan,nan,nan,nan,nan,nan,nan,nan,nan,0.0,nan,nan,nan,nan,nan,nan,nan,nan,nan,nan,nan,nan,nan,nan,nan,nan,nan,nan,169.6212661296595,574.0857934528613,nan,574.4359045121237,nan,nan,nan,nan
1,246,1,1,1.0,1.0,0.6695956508046947,0,6,8,7,0,2,4,nan,nan,nan,nan,nan,nan,nan,nan,nan,nan,nan,nan,0.0,nan,nan,nan,nan,nan,nan,nan,nan,nan,nan,nan,nan,nan,nan,nan,nan,nan,nan,169.6212661296595,575.0942770628026,nan,575.7638727136073,nan,nan,nan,nan
1,247,1,1,1.0,1.0,0.4371557997073978,0,4,2,5,3,1,7,nan,nan,nan,nan,nan,nan,nan,nan,nan,nan,nan,nan,0.0,nan,nan,nan,nan,nan,nan,nan,nan,nan,nan,nan,nan,nan,nan,nan,nan,nan,nan,169.6212661296595,576.1026982367039,nan,576.5398540364113,nan,nan,nan,nan
1,248,1,1,1.0,1.0,0.3086646175943315,0,7,1,6,2,4,5,nan,nan,nan,nan,nan,nan,nan,nan,nan,nan,nan,nan,0.0,nan,nan,nan,nan,nan,nan,nan,nan,nan,nan,nan,nan,nan,nan,nan,nan,nan,nan,169.6212661296595,577.1111567581538,nan,577.4198213757481,nan,nan,nan,nan
1,249,0,0,0.0,1.0,0.4761965989600867,0,6,5,7,4,0,1,nan,nan,nan,nan,nan,nan,nan,nan,nan,nan,nan,nan,0.0,nan,nan,nan,nan,nan,nan,nan,nan,nan,nan,nan,nan,nan,nan,nan,nan,nan,nan,169.6212661296595,578.1196201263228,nan,578.5958167252829,nan,nan,nan,nan
1,250,1,1,1.0,1.0,0.3557072140974924,0,3,0,8,7,5,6,nan,nan,nan,nan,nan,nan,nan,nan,nan,nan,nan,nan,0.0,nan,nan,nan,nan,nan,nan,nan,nan,nan,nan,nan,nan,nan,nan,nan,nan,nan,nan,169.6212661296595,579.128079217975,nan,579.4837864320725,nan,nan,nan,nan
1,251,1,1,1.0,1.0,0.3392181006493047,0,6,5,0,2,3,7,nan,nan,nan,nan,nan,nan,nan,nan,nan,nan,nan,nan,0.0,nan,nan,nan,nan,nan,nan,nan,nan,nan,nan,nan,nan,nan,nan,nan,nan,nan,nan,169.6212661296595,580.1365423009847,nan,580.475760401634,nan,nan,nan,nan
1,252,0,0,1.0,0.0,0.33872488408815116,0,5,4,3,1,7,8,nan,nan,nan,nan,nan,nan,nan,nan,nan,nan,nan,nan,0.0,nan,nan,nan,nan,nan,nan,nan,nan,nan,nan,nan,nan,nan,nan,nan,nan,nan,nan,169.6212661296595,581.145023059973,nan,581.4837479440612,nan,nan,nan,nan
1,253,1,1,1.0,1.0,0.36219400976551697,0,8,1,5,2,4,6,nan,nan,nan,nan,nan,nan,nan,nan,nan,nan,nan,nan,0.0,nan,nan,nan,nan,nan,nan,nan,nan,nan,nan,nan,nan,nan,nan,nan,nan,nan,nan,169.6212661296595,582.1535115165752,nan,582.5157055263408,nan,nan,nan,nan
1,254,1,1,1.0,1.0,0.40177193039562553,0,7,4,1,3,0,8,nan,nan,nan,nan,nan,nan,nan,nan,nan,nan,nan,nan,0.0,nan,nan,nan,nan,nan,nan,nan,nan,nan,nan,nan,nan,nan,nan,nan,nan,nan,nan,169.6212661296595,583.1619363967329,nan,583.5637083271286,nan,nan,nan,nan
1,255,1,1,1.0,1.0,0.41727803187677637,0,8,3,2,0,1,4,nan,nan,nan,nan,nan,nan,nan,nan,nan,nan,nan,nan,0.0,nan,nan,nan,nan,nan,nan,nan,nan,nan,nan,nan,nan,nan,nan,nan,nan,nan,nan,169.6212661296595,584.1703989095404,nan,584.5876769414172,nan,nan,nan,nan
1,256,1,1,1.0,1.0,0.4327909756684676,0,2,6,1,8,4,3,nan,nan,nan,nan,nan,nan,nan,nan,nan,nan,nan,nan,0.0,nan,nan,nan,nan,nan,nan,nan,nan,nan,nan,nan,nan,nan,nan,nan,nan,nan,nan,169.6212661296595,585.178869690164,nan,585.6116606658325,nan,nan,nan,nan
1,257,1,1,1.0,1.0,0.3603326161392033,0,1,8,3,5,2,7,nan,nan,nan,nan,nan,nan,nan,nan,nan,nan,nan,nan,0.0,nan,nan,nan,nan,nan,nan,nan,nan,nan,nan,nan,nan,nan,nan,nan,nan,nan,nan,169.6212661296595,586.1873176631052,nan,586.5476502792444,nan,nan,nan,nan
1,258,1,1,1.0,1.0,0.6318098453339189,0,2,5,0,1,7,4,nan,nan,nan,nan,nan,nan,nan,nan,nan,nan,nan,nan,0.0,nan,nan,nan,nan,nan,nan,nan,nan,nan,nan,nan,nan,nan,nan,nan,nan,nan,nan,169.6212661296595,587.1957890139311,nan,587.827598859265,nan,nan,nan,nan
1,259,1,1,1.0,1.0,0.43132215965306386,0,0,4,1,8,2,7,nan,nan,nan,nan,nan,nan,nan,nan,nan,nan,nan,nan,0.0,nan,nan,nan,nan,nan,nan,nan,nan,nan,nan,nan,nan,nan,nan,nan,nan,nan,nan,169.6212661296595,588.2042595094535,nan,588.6355816691066,nan,nan,nan,nan
1,260,1,1,1.0,1.0,0.36681855644565076,0,8,7,0,4,5,6,nan,nan,nan,nan,nan,nan,nan,nan,nan,nan,nan,nan,0.0,nan,nan,nan,nan,nan,nan,nan,nan,nan,nan,nan,nan,nan,nan,nan,nan,nan,nan,169.6212661296595,589.2127399833407,nan,589.5795585397864,nan,nan,nan,nan
1,261,1,1,1.0,1.0,0.3503599482937716,0,6,3,8,1,2,4,nan,nan,nan,nan,nan,nan,nan,nan,nan,nan,nan,nan,0.0,nan,nan,nan,nan,nan,nan,nan,nan,nan,nan,nan,nan,nan,nan,nan,nan,nan,nan,169.6212661296595,590.2211705654045,nan,590.5715305136982,nan,nan,nan,nan
1,262,1,1,1.0,1.0,0.357881358359009,0,2,8,1,4,7,5,nan,nan,nan,nan,nan,nan,nan,nan,nan,nan,nan,nan,0.0,nan,nan,nan,nan,nan,nan,nan,nan,nan,nan,nan,nan,nan,nan,nan,nan,nan,nan,169.6212661296595,591.2296262359014,nan,591.5875075942604,nan,nan,nan,nan
1,263,1,1,1.0,1.0,0.3413965213112533,0,0,6,2,7,3,8,nan,nan,nan,nan,nan,nan,nan,nan,nan,nan,nan,nan,0.0,nan,nan,nan,nan,nan,nan,nan,nan,nan,nan,nan,nan,nan,nan,nan,nan,nan,nan,169.6212661296595,592.2380913146189,nan,592.5794878359302,nan,nan,nan,nan
1,264,1,1,1.0,1.0,0.2929184650420211,0,4,0,1,3,8,6,nan,nan,nan,nan,nan,nan,nan,nan,nan,nan,nan,nan,0.0,nan,nan,nan,nan,nan,nan,nan,nan,nan,nan,nan,nan,nan,nan,nan,nan,nan,nan,169.6212661296595,593.2465538274264,nan,593.5394722924684,nan,nan,nan,nan
1,265,1,1,1.0,1.0,0.2684007553034462,0,8,5,7,4,3,2,nan,nan,nan,nan,nan,nan,nan,nan,nan,nan,nan,nan,0.0,nan,nan,nan,nan,nan,nan,nan,nan,nan,nan,nan,nan,nan,nan,nan,nan,nan,nan,169.6212661296595,594.2550314503605,nan,594.523432205664,nan,nan,nan,nan
1,266,1,1,1.0,1.0,0.29990845563588664,1,6,8,3,2,0,4,1.0,1.0,1.0,1.0,1.0,1.0,0.0,0.0,0.0,0.0,1.0,0.0,1.0,1.0,5.0,8.0,4.0,0.0,2.0,3.0,2.0,1.0,6.0,5.0,4.0,3.8216374960611574,2.7984326547011733,2.148966226610355,7.101190077373758,6.213053874322213,4.820922189508565,169.6212661296595,595.2634985247278,596.0719021366676,595.5634069803637,604.2312224899651,605.2313148611574,597.088684899325,604.2228936873144
1,267,1,1,1.0,1.0,0.7713747370871715,0,2,1,6,7,4,8,nan,nan,nan,nan,nan,nan,nan,nan,nan,nan,nan,nan,0.0,nan,nan,nan,nan,nan,nan,nan,nan,nan,nan,nan,nan,nan,nan,nan,nan,nan,nan,169.6212661296595,605.4398054844933,nan,606.2111802215804,nan,nan,nan,nan
1,268,1,1,1.0,1.0,0.5548865929595195,0,4,0,1,6,2,5,nan,nan,nan,nan,nan,nan,nan,nan,nan,nan,nan,nan,0.0,nan,nan,nan,nan,nan,nan,nan,nan,nan,nan,nan,nan,nan,nan,nan,nan,nan,nan,169.6212661296595,606.4482591593405,nan,607.0031457523,nan,nan,nan,nan
1,269,1,1,1.0,1.0,0.5784175844746642,0,2,6,7,5,1,8,nan,nan,nan,nan,nan,nan,nan,nan,nan,nan,nan,nan,0.0,nan,nan,nan,nan,nan,nan,nan,nan,nan,nan,nan,nan,nan,nan,nan,nan,nan,nan,169.6212661296595,607.45671340439,nan,608.0351309888647,nan,nan,nan,nan
1,270,1,1,1.0,1.0,0.44194228114793077,0,0,4,3,8,5,6,nan,nan,nan,nan,nan,nan,nan,nan,nan,nan,nan,nan,0.0,nan,nan,nan,nan,nan,nan,nan,nan,nan,nan,nan,nan,nan,nan,nan,nan,nan,nan,169.6212661296595,608.4651696450892,nan,608.9071119262371,nan,nan,nan,nan
1,271,1,1,1.0,1.0,0.40145319275325164,0,5,7,2,6,3,8,nan,nan,nan,nan,nan,nan,nan,nan,nan,nan,nan,nan,0.0,nan,nan,nan,nan,nan,nan,nan,nan,nan,nan,nan,nan,nan,nan,nan,nan,nan,nan,169.6212661296595,609.4736281665973,nan,609.8750813593506,nan,nan,nan,nan
1,272,1,1,1.0,1.0,0.30497689719777554,0,3,5,1,7,4,2,nan,nan,nan,nan,nan,nan,nan,nan,nan,nan,nan,nan,0.0,nan,nan,nan,nan,nan,nan,nan,nan,nan,nan,nan,nan,nan,nan,nan,nan,nan,nan,169.6212661296595,610.4820886837551,nan,610.7870655809529,nan,nan,nan,nan
1,273,1,1,1.0,1.0,0.2725041460362263,0,1,2,7,4,6,0,nan,nan,nan,nan,nan,nan,nan,nan,nan,nan,nan,nan,0.0,nan,nan,nan,nan,nan,nan,nan,nan,nan,nan,nan,nan,nan,nan,nan,nan,nan,nan,169.6212661296595,611.4905406479957,nan,611.7630447940319,nan,nan,nan,nan
1,274,1,1,1.0,1.0,0.29601803177502006,0,0,5,4,3,7,1,nan,nan,nan,nan,nan,nan,nan,nan,nan,nan,nan,nan,0.0,nan,nan,nan,nan,nan,nan,nan,nan,nan,nan,nan,nan,nan,nan,nan,nan,nan,nan,169.6212661296595,612.4990111435181,nan,612.7950291752932,nan,nan,nan,nan
1,275,1,1,1.0,1.0,0.2875344218336977,0,3,7,0,5,2,8,nan,nan,nan,nan,nan,nan,nan,nan,nan,nan,nan,nan,0.0,nan,nan,nan,nan,nan,nan,nan,nan,nan,nan,nan,nan,nan,nan,nan,nan,nan,nan,169.6212661296595,613.5074625376146,nan,613.7949969594483,nan,nan,nan,nan
1,276,1,1,1.0,1.0,0.2710487295407802,0,5,0,6,8,3,1,nan,nan,nan,nan,nan,nan,nan,nan,nan,nan,nan,nan,0.0,nan,nan,nan,nan,nan,nan,nan,nan,nan,nan,nan,nan,nan,nan,nan,nan,nan,nan,169.6212661296595,614.5159367393935,nan,614.7869854689343,nan,nan,nan,nan
1,277,1,1,1.0,1.0,0.30253561784047633,0,1,5,7,6,0,2,nan,nan,nan,nan,nan,nan,nan,nan,nan,nan,nan,nan,0.0,nan,nan,nan,nan,nan,nan,nan,nan,nan,nan,nan,nan,nan,nan,nan,nan,nan,nan,169.6212661296595,615.5244029584574,nan,615.8269385762978,nan,nan,nan,nan
1,278,0,0,1.0,0.0,0.270054028602317,0,6,4,0,2,3,5,nan,nan,nan,nan,nan,nan,nan,nan,nan,nan,nan,nan,0.0,nan,nan,nan,nan,nan,nan,nan,nan,nan,nan,nan,nan,nan,nan,nan,nan,nan,nan,169.6212661296595,616.5328657564241,nan,616.8029197850265,nan,nan,nan,nan
1,279,1,1,1.0,1.0,0.33356977318180725,0,1,8,6,5,0,7,nan,nan,nan,nan,nan,nan,nan,nan,nan,nan,nan,nan,0.0,nan,nan,nan,nan,nan,nan,nan,nan,nan,nan,nan,nan,nan,nan,nan,nan,nan,nan,169.6212661296595,617.5413271288853,nan,617.8748969020671,nan,nan,nan,nan
1,280,0,0,1.0,0.0,0.26108489965554327,0,5,1,3,0,4,2,nan,nan,nan,nan,nan,nan,nan,nan,nan,nan,nan,nan,0.0,nan,nan,nan,nan,nan,nan,nan,nan,nan,nan,nan,nan,nan,nan,nan,nan,nan,nan,169.6212661296595,618.5497896416928,nan,618.8108745413483,nan,nan,nan,nan
1,281,1,1,1.0,1.0,0.3325545453117229,0,6,4,8,3,0,5,nan,nan,nan,nan,nan,nan,nan,nan,nan,nan,nan,nan,0.0,nan,nan,nan,nan,nan,nan,nan,nan,nan,nan,nan,nan,nan,nan,nan,nan,nan,nan,169.6212661296595,619.5582963444758,nan,619.8908508897875,nan,nan,nan,nan
1,282,1,1,1.0,1.0,0.27613826823653653,0,4,2,5,0,1,3,nan,nan,nan,nan,nan,nan,nan,nan,nan,nan,nan,nan,0.0,nan,nan,nan,nan,nan,nan,nan,nan,nan,nan,nan,nan,nan,nan,nan,nan,nan,nan,169.6212661296595,620.566701552947,nan,620.8428398211836,nan,nan,nan,nan
1,283,1,1,1.0,1.0,0.25965514179551974,0,8,5,4,1,2,0,nan,nan,nan,nan,nan,nan,nan,nan,nan,nan,nan,nan,0.0,nan,nan,nan,nan,nan,nan,nan,nan,nan,nan,nan,nan,nan,nan,nan,nan,nan,nan,169.6212661296595,621.5751555128954,nan,621.834810654691,nan,nan,nan,nan
1,284,0,0,0.0,1.0,0.45916095591383055,0,5,4,3,2,8,1,nan,nan,nan,nan,nan,nan,nan,nan,nan,nan,nan,nan,0.0,nan,nan,nan,nan,nan,nan,nan,nan,nan,nan,nan,nan,nan,nan,nan,nan,nan,nan,169.6212661296595,622.583636842086,nan,623.0427977979998,nan,nan,nan,nan
1,285,1,1,1.0,1.0,0.354665472288616,0,0,7,8,1,5,3,nan,nan,nan,nan,nan,nan,nan,nan,nan,nan,nan,nan,0.0,nan,nan,nan,nan,nan,nan,nan,nan,nan,nan,nan,nan,nan,nan,nan,nan,nan,nan,169.6212661296595,623.592100780399,nan,623.9467662526877,nan,nan,nan,nan
1,286,1,1,1.0,1.0,0.33818662230623886,0,4,2,0,8,7,5,nan,nan,nan,nan,nan,nan,nan,nan,nan,nan,nan,nan,0.0,nan,nan,nan,nan,nan,nan,nan,nan,nan,nan,nan,nan,nan,nan,nan,nan,nan,nan,169.6212661296595,624.6005521744373,nan,624.9387387967436,nan,nan,nan,nan
1,287,1,1,1.0,1.0,0.32964998442912474,0,1,5,4,6,0,7,nan,nan,nan,nan,nan,nan,nan,nan,nan,nan,nan,nan,0.0,nan,nan,nan,nan,nan,nan,nan,nan,nan,nan,nan,nan,nan,nan,nan,nan,nan,nan,169.6212661296595,625.6090685704839,nan,625.9387185549131,nan,nan,nan,nan
1,288,1,1,1.0,1.0,0.34519742493284866,0,7,2,0,1,8,6,nan,nan,nan,nan,nan,nan,nan,nan,nan,nan,nan,nan,0.0,nan,nan,nan,nan,nan,nan,nan,nan,nan,nan,nan,nan,nan,nan,nan,nan,nan,nan,169.6212661296595,626.617484042421,nan,626.9626814673538,nan,nan,nan,nan
1,289,1,1,1.0,1.0,0.32069796131690964,0,5,0,8,4,6,3,nan,nan,nan,nan,nan,nan,nan,nan,nan,nan,nan,nan,0.0,nan,nan,nan,nan,nan,nan,nan,nan,nan,nan,nan,nan,nan,nan,nan,nan,nan,nan,169.6212661296595,627.6259653716115,nan,627.9466633329284,nan,nan,nan,nan
1,290,1,1,1.0,1.0,0.424253482487984,0,3,2,7,1,0,4,nan,nan,nan,nan,nan,nan,nan,nan,nan,nan,nan,nan,0.0,nan,nan,nan,nan,nan,nan,nan,nan,nan,nan,nan,nan,nan,nan,nan,nan,nan,nan,169.6212661296595,628.6344067873433,nan,629.0586602698313,nan,nan,nan,nan
1,291,1,1,1.0,1.0,0.3357558914576657,0,1,5,4,0,3,2,nan,nan,nan,nan,nan,nan,nan,nan,nan,nan,nan,nan,0.0,nan,nan,nan,nan,nan,nan,nan,nan,nan,nan,nan,nan,nan,nan,nan,nan,nan,nan,169.6212661296595,629.6428690150497,nan,629.9786249065073,nan,nan,nan,nan
1,292,1,1,1.0,1.0,0.375308723654598,0,0,2,1,4,7,6,nan,nan,nan,nan,nan,nan,nan,nan,nan,nan,nan,nan,0.0,nan,nan,nan,nan,nan,nan,nan,nan,nan,nan,nan,nan,nan,nan,nan,nan,nan,nan,169.6212661296595,630.6513061543228,nan,631.0266148779774,nan,nan,nan,nan
1,293,1,1,1.0,1.0,0.3027859323192388,0,5,4,8,7,2,1,nan,nan,nan,nan,nan,nan,nan,nan,nan,nan,nan,nan,0.0,nan,nan,nan,nan,nan,nan,nan,nan,nan,nan,nan,nan,nan,nan,nan,nan,nan,nan,169.6212661296595,631.6598034488852,nan,631.9625893812045,nan,nan,nan,nan
1,294,1,1,1.0,1.0,0.30230269412277266,0,1,6,5,2,0,7,nan,nan,nan,nan,nan,nan,nan,nan,nan,nan,nan,nan,0.0,nan,nan,nan,nan,nan,nan,nan,nan,nan,nan,nan,nan,nan,nan,nan,nan,nan,nan,169.6212661296595,632.6682488559745,nan,632.9705515500973,nan,nan,nan,nan
1,295,1,1,1.0,1.0,0.30178011261159554,0,7,5,0,3,4,1,nan,nan,nan,nan,nan,nan,nan,nan,nan,nan,nan,nan,0.0,nan,nan,nan,nan,nan,nan,nan,nan,nan,nan,nan,nan,nan,nan,nan,nan,nan,nan,169.6212661296595,633.6767410188331,nan,633.9785211314447,nan,nan,nan,nan
1,296,1,1,1.0,1.0,0.3173423780826852,0,3,1,7,5,6,8,nan,nan,nan,nan,nan,nan,nan,nan,nan,nan,nan,nan,0.0,nan,nan,nan,nan,nan,nan,nan,nan,nan,nan,nan,nan,nan,nan,nan,nan,nan,nan,169.6212661296595,634.6851773028029,nan,635.0025196808856,nan,nan,nan,nan
1,297,1,1,1.0,1.0,0.2848433980252594,0,8,5,6,2,1,4,nan,nan,nan,nan,nan,nan,nan,nan,nan,nan,nan,nan,0.0,nan,nan,nan,nan,nan,nan,nan,nan,nan,nan,nan,nan,nan,nan,nan,nan,nan,nan,169.6212661296595,635.6936435218668,nan,635.978486919892,nan,nan,nan,nan
1,298,1,1,1.0,1.0,0.30036118847783655,0,4,6,2,7,8,1,nan,nan,nan,nan,nan,nan,nan,nan,nan,nan,nan,nan,0.0,nan,nan,nan,nan,nan,nan,nan,nan,nan,nan,nan,nan,nan,nan,nan,nan,nan,nan,169.6212661296595,636.7021003327682,nan,637.002461521246,nan,nan,nan,nan
1,299,1,1,1.0,1.0,0.28385468415217474,0,3,1,5,0,4,7,nan,nan,nan,nan,nan,nan,nan,nan,nan,nan,nan,nan,0.0,nan,nan,nan,nan,nan,nan,nan,nan,nan,nan,nan,nan,nan,nan,nan,nan,nan,nan,169.6212661296595,637.7105847980129,nan,637.994439482165,nan,nan,nan,nan
1,300,1,1,1.0,1.0,0.23543849372072145,0,2,0,4,7,1,5,nan,nan,nan,nan,nan,nan,nan,nan,nan,nan,nan,nan,0.0,nan,nan,nan,nan,nan,nan,nan,nan,nan,nan,nan,nan,nan,nan,nan,nan,nan,nan,169.6212661296595,638.7190085377661,nan,638.9544470314868,nan,nan,nan,nan
1,301,1,1,1.0,1.0,0.2668880344135687,0,6,5,2,1,0,3,nan,nan,nan,nan,nan,nan,nan,nan,nan,nan,nan,nan,0.0,nan,nan,nan,nan,nan,nan,nan,nan,nan,nan,nan,nan,nan,nan,nan,nan,nan,nan,169.6212661296595,639.7274967092671,nan,639.9943847436807,nan,nan,nan,nan
1,302,1,1,1.0,1.0,0.29036856390303,0,2,8,1,0,4,5,nan,nan,nan,nan,nan,nan,nan,nan,nan,nan,nan,nan,0.0,nan,nan,nan,nan,nan,nan,nan,nan,nan,nan,nan,nan,nan,nan,nan,nan,nan,nan,169.6212661296595,640.7359974249848,nan,641.0263659888878,nan,nan,nan,nan
1,303,1,1,1.0,1.0,0.28988675121217966,0,4,2,8,3,0,6,nan,nan,nan,nan,nan,nan,nan,nan,nan,nan,nan,nan,0.0,nan,nan,nan,nan,nan,nan,nan,nan,nan,nan,nan,nan,nan,nan,nan,nan,nan,nan,169.6212661296595,641.7444533805829,nan,642.034340131795,nan,nan,nan,nan
1,304,1,1,1.0,1.0,0.24943501048255712,0,0,4,7,5,1,3,nan,nan,nan,nan,nan,nan,nan,nan,nan,nan,nan,nan,0.0,nan,nan,nan,nan,nan,nan,nan,nan,nan,nan,nan,nan,nan,nan,nan,nan,nan,nan,169.6212661296595,642.7528842477477,nan,643.0023192582303,nan,nan,nan,nan
1,305,1,1,1.0,1.0,0.23296471335925162,0,1,3,5,4,0,8,nan,nan,nan,nan,nan,nan,nan,nan,nan,nan,nan,nan,0.0,nan,nan,nan,nan,nan,nan,nan,nan,nan,nan,nan,nan,nan,nan,nan,nan,nan,nan,169.6212661296595,643.76134590531,nan,643.9943106186693,nan,nan,nan,nan
1,306,1,1,1.0,1.0,0.27246964938240126,0,0,7,6,5,4,3,nan,nan,nan,nan,nan,nan,nan,nan,nan,nan,nan,nan,0.0,nan,nan,nan,nan,nan,nan,nan,nan,nan,nan,nan,nan,nan,nan,nan,nan,nan,nan,169.6212661296595,644.7698061373667,nan,645.0422757867491,nan,nan,nan,nan
1,307,0,0,0.0,1.0,0.47997754579409957,0,8,0,1,2,7,6,nan,nan,nan,nan,nan,nan,nan,nan,nan,nan,nan,nan,0.0,nan,nan,nan,nan,nan,nan,nan,nan,nan,nan,nan,nan,nan,nan,nan,nan,nan,nan,169.6212661296595,645.7782700756798,nan,646.2582476214739,nan,nan,nan,nan
1,308,1,1,1.0,1.0,0.5195149828214198,0,6,4,5,0,2,1,nan,nan,nan,nan,nan,nan,nan,nan,nan,nan,nan,nan,0.0,nan,nan,nan,nan,nan,nan,nan,nan,nan,nan,nan,nan,nan,nan,nan,nan,nan,nan,169.6212661296595,646.786718618765,nan,647.3062336015864,nan,nan,nan,nan
1,309,1,1,1.0,1.0,0.4389524764264934,0,2,0,3,1,7,5,nan,nan,nan,nan,nan,nan,nan,nan,nan,nan,nan,nan,0.0,nan,nan,nan,nan,nan,nan,nan,nan,nan,nan,nan,nan,nan,nan,nan,nan,nan,nan,169.6212661296595,647.7952361552161,nan,648.2341886316426,nan,nan,nan,nan
1,310,0,0,0.0,1.0,0.58252240071306,0,8,6,2,0,5,1,nan,nan,nan,nan,nan,nan,nan,nan,nan,nan,nan,nan,0.0,nan,nan,nan,nan,nan,nan,nan,nan,nan,nan,nan,nan,nan,nan,nan,nan,nan,nan,169.6212661296595,648.8036556185107,nan,649.3861780192237,nan,nan,nan,nan
1,311,1,1,1.0,1.0,0.4300634595565498,0,2,7,6,5,4,3,nan,nan,nan,nan,nan,nan,nan,nan,nan,nan,nan,nan,0.0,nan,nan,nan,nan,nan,nan,nan,nan,nan,nan,nan,nan,nan,nan,nan,nan,nan,nan,169.6212661296595,649.812117276073,nan,650.2421807356295,nan,nan,nan,nan
1,312,1,1,1.0,1.0,0.6615425362251699,0,1,4,2,3,6,5,nan,nan,nan,nan,nan,nan,nan,nan,nan,nan,nan,nan,0.0,nan,nan,nan,nan,nan,nan,nan,nan,nan,nan,nan,nan,nan,nan,nan,nan,nan,nan,169.6212661296595,650.8205763677252,nan,651.4821189039503,nan,nan,nan,nan
1,313,1,1,1.0,1.0,0.4050627967226319,0,7,6,0,4,1,3,nan,nan,nan,nan,nan,nan,nan,nan,nan,nan,nan,nan,0.0,nan,nan,nan,nan,nan,nan,nan,nan,nan,nan,nan,nan,nan,nan,nan,nan,nan,nan,169.6212661296595,651.8290408762405,nan,652.2341036729631,nan,nan,nan,nan
1,314,1,1,1.0,1.0,0.28458139451686293,0,2,4,6,5,0,7,nan,nan,nan,nan,nan,nan,nan,nan,nan,nan,nan,nan,0.0,nan,nan,nan,nan,nan,nan,nan,nan,nan,nan,nan,nan,nan,nan,nan,nan,nan,nan,169.6212661296595,652.8375019636005,nan,653.1220833581174,nan,nan,nan,nan
1,315,1,1,1.0,1.0,0.2520884015248157,0,1,7,2,8,5,0,nan,nan,nan,nan,nan,nan,nan,nan,nan,nan,nan,nan,0.0,nan,nan,nan,nan,nan,nan,nan,nan,nan,nan,nan,nan,nan,nan,nan,nan,nan,nan,169.6212661296595,653.8459641913068,nan,654.0980525928317,nan,nan,nan,nan
1,316,1,1,1.0,1.0,0.25959470140514895,0,8,3,5,0,2,4,nan,nan,nan,nan,nan,nan,nan,nan,nan,nan,nan,nan,0.0,nan,nan,nan,nan,nan,nan,nan,nan,nan,nan,nan,nan,nan,nan,nan,nan,nan,nan,169.6212661296595,654.8544158705045,nan,655.1140105719096,nan,nan,nan,nan
1,317,1,1,1.0,1.0,0.24314778222469613,0,7,1,4,2,0,8,nan,nan,nan,nan,nan,nan,nan,nan,nan,nan,nan,nan,0.0,nan,nan,nan,nan,nan,nan,nan,nan,nan,nan,nan,nan,nan,nan,nan,nan,nan,nan,169.6212661296595,655.862905467453,nan,656.1060532496776,nan,nan,nan,nan
1,318,1,1,1.0,1.0,0.26665910211158916,0,4,5,8,1,7,3,nan,nan,nan,nan,nan,nan,nan,nan,nan,nan,nan,nan,0.0,nan,nan,nan,nan,nan,nan,nan,nan,nan,nan,nan,nan,nan,nan,nan,nan,nan,nan,169.6212661296595,656.871345172578,nan,657.1380042746896,nan,nan,nan,nan
1,319,1,1,1.0,1.0,0.3301642981241457,0,1,8,0,4,5,2,nan,nan,nan,nan,nan,nan,nan,nan,nan,nan,nan,nan,0.0,nan,nan,nan,nan,nan,nan,nan,nan,nan,nan,nan,nan,nan,nan,nan,nan,nan,nan,169.6212661296595,657.8797902945662,nan,658.2099545926903,nan,nan,nan,nan
1,320,1,1,1.0,1.0,0.2817033476312645,1,0,6,8,3,2,7,1.0,1.0,1.0,1.0,1.0,1.0,0.0,0.0,1.0,0.0,0.0,0.0,1.0,1.0,7.0,8.0,4.0,3.0,0.0,5.0,6.0,1.0,2.0,3.0,4.0,8.859584095829632,9.986925769771915,3.5321635642903857,5.269060468068346,6.284132938075345,7.324433862930164,169.6212661296595,658.8882639261428,659.6966826482094,659.1699672737741,670.7314259061823,671.7315291110426,660.705153428833,670.7230931121157
1,321,1,1,1.0,1.0,0.3817091350792907,0,3,4,6,5,7,1,nan,nan,nan,nan,nan,nan,nan,nan,nan,nan,nan,nan,0.0,nan,nan,nan,nan,nan,nan,nan,nan,nan,nan,nan,nan,nan,nan,nan,nan,nan,nan,169.6212661296595,671.9399501708685,nan,672.3216593059478,nan,nan,nan,nan
1,322,1,1,1.0,1.0,0.34122916974592954,0,8,3,0,7,5,4,nan,nan,nan,nan,nan,nan,nan,nan,nan,nan,nan,nan,0.0,nan,nan,nan,nan,nan,nan,nan,nan,nan,nan,nan,nan,nan,nan,nan,nan,nan,nan,169.6212661296595,672.948442048626,nan,673.289671218372,nan,nan,nan,nan
1,323,1,1,1.0,1.0,0.3407718753442168,0,0,6,8,1,7,2,nan,nan,nan,nan,nan,nan,nan,nan,nan,nan,nan,nan,0.0,nan,nan,nan,nan,nan,nan,nan,nan,nan,nan,nan,nan,nan,nan,nan,nan,nan,nan,169.6212661296595,673.9568846047041,nan,674.2976564800483,nan,nan,nan,nan
1,324,0,0,1.0,0.0,0.27627853566082194,0,4,2,3,6,0,5,nan,nan,nan,nan,nan,nan,nan,nan,nan,nan,nan,nan,0.0,nan,nan,nan,nan,nan,nan,nan,nan,nan,nan,nan,nan,nan,nan,nan,nan,nan,nan,169.6212661296595,674.9653106252081,nan,675.2415891608689,nan,nan,nan,nan
1,325,1,1,1.0,1.0,0.323787264584098,0,5,1,4,7,2,8,nan,nan,nan,nan,nan,nan,nan,nan,nan,nan,nan,nan,0.0,nan,nan,nan,nan,nan,nan,nan,nan,nan,nan,nan,nan,nan,nan,nan,nan,nan,nan,169.6212661296595,675.9737571726437,nan,676.2975444372278,nan,nan,nan,nan
1,326,1,1,1.0,1.0,0.27527642220957205,0,2,8,0,3,5,4,nan,nan,nan,nan,nan,nan,nan,nan,nan,nan,nan,nan,0.0,nan,nan,nan,nan,nan,nan,nan,nan,nan,nan,nan,nan,nan,nan,nan,nan,nan,nan,169.6212661296595,676.9822561778128,nan,677.2575326000224,nan,nan,nan,nan
1,327,1,1,1.0,1.0,0.25879329576855525,0,1,4,7,5,2,0,nan,nan,nan,nan,nan,nan,nan,nan,nan,nan,nan,nan,0.0,nan,nan,nan,nan,nan,nan,nan,nan,nan,nan,nan,nan,nan,nan,nan,nan,nan,nan,169.6212661296595,677.9907138440176,nan,678.2495071397861,nan,nan,nan,nan
1,328,1,1,1.0,1.0,0.23429896391462535,0,3,2,4,7,0,1,nan,nan,nan,nan,nan,nan,nan,nan,nan,nan,nan,nan,0.0,nan,nan,nan,nan,nan,nan,nan,nan,nan,nan,nan,nan,nan,nan,nan,nan,nan,nan,169.6212661296595,678.9991874755942,nan,679.2334864395089,nan,nan,nan,nan
1,329,1,1,1.0,1.0,0.22580594575265422,0,0,3,2,8,4,5,nan,nan,nan,nan,nan,nan,nan,nan,nan,nan,nan,nan,0.0,nan,nan,nan,nan,nan,nan,nan,nan,nan,nan,nan,nan,nan,nan,nan,nan,nan,nan,169.6212661296595,680.007642290846,nan,680.2334482365986,nan,nan,nan,nan
1,330,1,1,1.0,1.0,0.23333476833067834,0,2,0,5,1,7,6,nan,nan,nan,nan,nan,nan,nan,nan,nan,nan,nan,nan,0.0,nan,nan,nan,nan,nan,nan,nan,nan,nan,nan,nan,nan,nan,nan,nan,nan,nan,nan,169.6212661296595,681.0160951103899,nan,681.2494298787205,nan,nan,nan,nan
1,331,1,1,1.0,1.0,0.24883516790578142,0,4,2,6,3,8,5,nan,nan,nan,nan,nan,nan,nan,nan,nan,nan,nan,nan,0.0,nan,nan,nan,nan,nan,nan,nan,nan,nan,nan,nan,nan,nan,nan,nan,nan,nan,nan,169.6212661296595,682.0245852775406,nan,682.2734204454464,nan,nan,nan,nan
1,332,0,0,1.0,0.0,0.20835577277466655,0,7,1,3,2,0,8,nan,nan,nan,nan,nan,nan,nan,nan,nan,nan,nan,nan,0.0,nan,nan,nan,nan,nan,nan,nan,nan,nan,nan,nan,nan,nan,nan,nan,nan,nan,nan,169.6212661296595,683.0330266932724,nan,683.2413824660471,nan,nan,nan,nan
1,333,1,1,1.0,1.0,0.2398700303165242,0,0,3,5,6,2,7,nan,nan,nan,nan,nan,nan,nan,nan,nan,nan,nan,nan,0.0,nan,nan,nan,nan,nan,nan,nan,nan,nan,nan,nan,nan,nan,nan,nan,nan,nan,nan,169.6212661296595,684.0414877806325,nan,684.281357810949,nan,nan,nan,nan
1,334,1,1,1.0,1.0,0.27937582158483565,0,3,4,8,1,6,2,nan,nan,nan,nan,nan,nan,nan,nan,nan,nan,nan,nan,0.0,nan,nan,nan,nan,nan,nan,nan,nan,nan,nan,nan,nan,nan,nan,nan,nan,nan,nan,169.6212661296595,685.0499548549997,nan,685.3293306765845,nan,nan,nan,nan
1,335,1,1,1.0,1.0,0.2868806960177608,0,8,3,4,6,1,0,nan,nan,nan,nan,nan,nan,nan,nan,nan,nan,nan,nan,0.0,nan,nan,nan,nan,nan,nan,nan,nan,nan,nan,nan,nan,nan,nan,nan,nan,nan,nan,169.6212661296595,686.0584358990891,nan,686.3453165951069,nan,nan,nan,nan
1,336,1,1,1.0,1.0,0.35841078212251887,0,7,6,2,1,5,8,nan,nan,nan,nan,nan,nan,nan,nan,nan,nan,nan,nan,0.0,nan,nan,nan,nan,nan,nan,nan,nan,nan,nan,nan,nan,nan,nan,nan,nan,nan,nan,169.6212661296595,687.0668756042141,nan,687.4252863863367,nan,nan,nan,nan
1,337,1,1,1.0,1.0,0.23789887462044135,0,5,0,3,7,1,2,nan,nan,nan,nan,nan,nan,nan,nan,nan,nan,nan,nan,0.0,nan,nan,nan,nan,nan,nan,nan,nan,nan,nan,nan,nan,nan,nan,nan,nan,nan,nan,169.6212661296595,688.0753771752352,nan,688.3132760498556,nan,nan,nan,nan
1,338,1,1,1.0,1.0,0.3494567633024417,0,4,6,8,5,0,1,nan,nan,nan,nan,nan,nan,nan,nan,nan,nan,nan,nan,0.0,nan,nan,nan,nan,nan,nan,nan,nan,nan,nan,nan,nan,nan,nan,nan,nan,nan,nan,169.6212661296595,689.0837957832264,nan,689.4332525465288,nan,nan,nan,nan
1,339,1,1,1.0,1.0,0.29297519917599857,0,0,8,6,4,2,7,nan,nan,nan,nan,nan,nan,nan,nan,nan,nan,nan,nan,0.0,nan,nan,nan,nan,nan,nan,nan,nan,nan,nan,nan,nan,nan,nan,nan,nan,nan,nan,169.6212661296595,690.0922620023484,nan,690.3852372015244,nan,nan,nan,nan
1,340,1,1,1.0,1.0,0.2524886766914278,0,5,2,4,0,7,6,nan,nan,nan,nan,nan,nan,nan,nan,nan,nan,nan,nan,0.0,nan,nan,nan,nan,nan,nan,nan,nan,nan,nan,nan,nan,nan,nan,nan,nan,nan,nan,169.6212661296595,691.1007239449536,nan,691.3532126216451,nan,nan,nan,nan
1,341,1,1,1.0,1.0,0.24400136049371213,0,0,1,7,4,3,5,nan,nan,nan,nan,nan,nan,nan,nan,nan,nan,nan,nan,0.0,nan,nan,nan,nan,nan,nan,nan,nan,nan,nan,nan,nan,nan,nan,nan,nan,nan,nan,169.6212661296595,692.1092038486386,nan,692.3532052091323,nan,nan,nan,nan
1,342,1,1,1.0,1.0,0.3474978667800315,0,5,4,0,1,6,3,nan,nan,nan,nan,nan,nan,nan,nan,nan,nan,nan,nan,0.0,nan,nan,nan,nan,nan,nan,nan,nan,nan,nan,nan,nan,nan,nan,nan,nan,nan,nan,169.6212661296595,693.1176620850456,nan,693.4651599518256,nan,nan,nan,nan
1,343,1,1,1.0,1.0,0.31504250643774867,0,2,3,4,5,7,6,nan,nan,nan,nan,nan,nan,nan,nan,nan,nan,nan,nan,0.0,nan,nan,nan,nan,nan,nan,nan,nan,nan,nan,nan,nan,nan,nan,nan,nan,nan,nan,169.6212661296595,694.1260901012574,nan,694.4411326076952,nan,nan,nan,nan
1,344,1,1,1.0,1.0,0.29053363465936854,0,5,7,2,6,0,1,nan,nan,nan,nan,nan,nan,nan,nan,nan,nan,nan,nan,0.0,nan,nan,nan,nan,nan,nan,nan,nan,nan,nan,nan,nan,nan,nan,nan,nan,nan,nan,169.6212661296595,695.1345734260976,nan,695.425107060757,nan,nan,nan,nan
1,345,1,1,1.0,1.0,0.33803865732625127,1,0,4,5,3,8,7,1.0,1.0,1.0,1.0,1.0,1.0,0.0,1.0,1.0,1.0,0.0,1.0,4.0,7.0,4.0,5.0,3.0,4.0,7.0,5.0,6.0,1.0,2.0,3.0,4.0,4.491591797966976,5.219186295289546,2.405597352248151,2.9966709307627752,3.5170725630014203,4.020473904151004,169.6212661296595,696.143037934613,696.95144753356,696.4810765919392,703.2272402651724,704.2266227466171,697.9682297260151,703.2189200153807
1,346,1,1,1.0,1.0,0.5491527366102673,0,3,8,7,1,5,6,nan,nan,nan,nan,nan,nan,nan,nan,nan,nan,nan,nan,0.0,nan,nan,nan,nan,nan,nan,nan,nan,nan,nan,nan,nan,nan,nan,nan,nan,nan,nan,169.6212661296595,704.4357605385012,nan,704.9849132751115,nan,nan,nan,nan
1,347,1,1,1.0,1.0,0.3647045675897971,0,6,1,5,2,0,8,nan,nan,nan,nan,nan,nan,nan,nan,nan,nan,nan,nan,0.0,nan,nan,nan,nan,nan,nan,nan,nan,nan,nan,nan,nan,nan,nan,nan,nan,nan,nan,169.6212661296595,705.4442190599511,nan,705.8089236275409,nan,nan,nan,nan
1,348,0,0,1.0,0.0,0.2761653523775749,0,8,7,6,1,4,2,nan,nan,nan,nan,nan,nan,nan,nan,nan,nan,nan,nan,0.0,nan,nan,nan,nan,nan,nan,nan,nan,nan,nan,nan,nan,nan,nan,nan,nan,nan,nan,169.6212661296595,706.4526855641743,nan,706.7288509165519,nan,nan,nan,nan
1,349,1,1,1.0,1.0,0.43567101832013577,0,2,6,5,3,0,4,nan,nan,nan,nan,nan,nan,nan,nan,nan,nan,nan,nan,0.0,nan,nan,nan,nan,nan,nan,nan,nan,nan,nan,nan,nan,nan,nan,nan,nan,nan,nan,169.6212661296595,707.4611717399675,nan,707.8968427582877,nan,nan,nan,nan
1,350,0,0,0.0,1.0,0.48319856356829405,0,4,5,3,0,2,8,nan,nan,nan,nan,nan,nan,nan,nan,nan,nan,nan,nan,0.0,nan,nan,nan,nan,nan,nan,nan,nan,nan,nan,nan,nan,nan,nan,nan,nan,nan,nan,169.6212661296595,708.4696111599915,nan,708.9528097235598,nan,nan,nan,nan
1,351,1,1,1.0,1.0,0.370764859195333,1,3,7,1,2,0,6,1.0,1.0,1.0,1.0,1.0,1.0,0.0,0.0,0.0,0.0,0.0,0.0,0.0,6.0,8.0,3.0,4.0,5.0,0.0,5.0,6.0,1.0,2.0,3.0,4.0,5.212429798615631,5.955689481110312,2.4687210894189775,3.0440684721106663,3.773159154690802,4.452617141068913,169.6212661296595,709.4780443079071,710.2864621746703,709.8488091671024,717.2873702063225,718.2870705701644,711.2949486356229,717.2790348464623
1,352,1,1,1.0,1.0,0.7926859690342098,0,5,8,7,0,1,3,nan,nan,nan,nan,nan,nan,nan,nan,nan,nan,nan,nan,0.0,nan,nan,nan,nan,nan,nan,nan,nan,nan,nan,nan,nan,nan,nan,nan,nan,nan,nan,169.6212661296595,718.4958819267922,nan,719.2885678958264,nan,nan,nan,nan
1,353,1,1,1.0,1.0,0.4321720316656865,0,1,0,6,7,3,8,nan,nan,nan,nan,nan,nan,nan,nan,nan,nan,nan,nan,0.0,nan,nan,nan,nan,nan,nan,nan,nan,nan,nan,nan,nan,nan,nan,nan,nan,nan,nan,169.6212661296595,719.5043515670113,nan,719.936523598677,nan,nan,nan,nan
1,354,1,1,1.0,1.0,0.3756881867884658,0,0,5,4,6,7,2,nan,nan,nan,nan,nan,nan,nan,nan,nan,nan,nan,nan,0.0,nan,nan,nan,nan,nan,nan,nan,nan,nan,nan,nan,nan,nan,nan,nan,nan,nan,nan,169.6212661296595,720.5128183562774,nan,720.8885065430659,nan,nan,nan,nan
1,355,1,1,1.0,1.0,0.415196543908678,0,6,8,0,7,5,1,nan,nan,nan,nan,nan,nan,nan,nan,nan,nan,nan,nan,0.0,nan,nan,nan,nan,nan,nan,nan,nan,nan,nan,nan,nan,nan,nan,nan,nan,nan,nan,169.6212661296595,721.5212811542442,nan,721.9364776981529,nan,nan,nan,nan
1,356,1,1,1.0,1.0,0.4947389758308418,0,0,5,6,1,7,3,nan,nan,nan,nan,nan,nan,nan,nan,nan,nan,nan,nan,0.0,nan,nan,nan,nan,nan,nan,nan,nan,nan,nan,nan,nan,nan,nan,nan,nan,nan,nan,169.6212661296595,722.529741671402,nan,723.0244806472328,nan,nan,nan,nan
1,357,1,1,1.0,1.0,0.4702258276520297,1,8,6,7,0,3,5,1.0,1.0,1.0,1.0,1.0,1.0,0.0,0.0,0.0,0.0,0.0,0.0,0.0,7.0,4.0,1.0,4.0,4.0,0.0,5.0,6.0,1.0,2.0,3.0,4.0,4.53599069674965,5.1595467197475955,1.6188225694932044,2.497260652424302,3.3123429297702387,3.9596440516179428,169.6212661296595,723.5382038991083,724.3466237615794,724.0084297267604,730.5557356096688,731.555514945183,725.3550988186034,730.547407377162
1,358,1,1,1.0,1.0,0.452005609520711,0,0,2,8,3,1,7,nan,nan,nan,nan,nan,nan,nan,nan,nan,nan,nan,nan,0.0,nan,nan,nan,nan,nan,nan,nan,nan,nan,nan,nan,nan,nan,nan,nan,nan,nan,nan,169.6212661296595,731.7642678570701,nan,732.2162734665908,nan,nan,nan,nan
1,359,1,1,1.0,1.0,0.483500195434317,0,7,5,6,2,4,8,nan,nan,nan,nan,nan,nan,nan,nan,nan,nan,nan,nan,0.0,nan,nan,nan,nan,nan,nan,nan,nan,nan,nan,nan,nan,nan,nan,nan,nan,nan,nan,169.6212661296595,732.7727329357294,nan,733.2562331311638,nan,nan,nan,nan
1,360,1,1,1.0,1.0,0.3390359241166152,0,3,2,1,5,6,4,nan,nan,nan,nan,nan,nan,nan,nan,nan,nan,nan,nan,0.0,nan,nan,nan,nan,nan,nan,nan,nan,nan,nan,nan,nan,nan,nan,nan,nan,nan,nan,169.6212661296595,733.7811794832232,nan,734.1202154073399,nan,nan,nan,nan
1,361,1,1,1.0,1.0,0.28254295617807657,0,4,6,8,0,5,7,nan,nan,nan,nan,nan,nan,nan,nan,nan,nan,nan,nan,0.0,nan,nan,nan,nan,nan,nan,nan,nan,nan,nan,nan,nan,nan,nan,nan,nan,nan,nan,169.6212661296595,734.7896388599765,nan,735.0721818161546,nan,nan,nan,nan
1,362,1,1,1.0,1.0,0.3540642042644322,0,2,5,4,6,7,3,nan,nan,nan,nan,nan,nan,nan,nan,nan,nan,nan,nan,0.0,nan,nan,nan,nan,nan,nan,nan,nan,nan,nan,nan,nan,nan,nan,nan,nan,nan,nan,169.6212661296595,735.7980891136685,nan,736.152153317933,nan,nan,nan,nan
1,363,0,0,1.0,0.0,0.2655774468439631,0,5,4,3,7,0,8,nan,nan,nan,nan,nan,nan,nan,nan,nan,nan,nan,nan,0.0,nan,nan,nan,nan,nan,nan,nan,nan,nan,nan,nan,nan,nan,nan,nan,nan,nan,nan,169.6212661296595,736.8065653110971,nan,737.072142757941,nan,nan,nan,nan
1,364,1,1,1.0,1.0,0.4330843397183344,0,4,0,7,6,8,1,nan,nan,nan,nan,nan,nan,nan,nan,nan,nan,nan,nan,0.0,nan,nan,nan,nan,nan,nan,nan,nan,nan,nan,nan,nan,nan,nan,nan,nan,nan,nan,169.6212661296595,737.8150286792661,nan,738.2481130189844,nan,nan,nan,nan
1,365,1,1,1.0,1.0,0.296608466131147,0,5,8,6,0,7,4,nan,nan,nan,nan,nan,nan,nan,nan,nan,nan,nan,nan,0.0,nan,nan,nan,nan,nan,nan,nan,nan,nan,nan,nan,nan,nan,nan,nan,nan,nan,nan,169.6212661296595,738.8234817839111,nan,739.1200902500423,nan,nan,nan,nan
1,366,1,1,1.0,1.0,0.28814538317965344,1,3,6,2,5,4,8,1.0,1.0,1.0,1.0,1.0,1.0,0.0,0.0,0.0,1.0,0.0,0.0,1.0,4.0,4.0,4.0,5.0,8.0,6.0,1.0,6.0,5.0,4.0,3.0,2.0,1.8272538927267306,6.665151284891181,5.970170376356691,5.38549749442609,4.850167935946956,2.867485254071653,169.6212661296595,739.8319437265163,740.6403826904134,740.120089109696,748.3496765724849,749.3491052395548,741.648820970091,748.3413149837288
1,367,1,1,1.0,1.0,0.5456611624686047,0,0,2,8,1,7,5,nan,nan,nan,nan,nan,nan,nan,nan,nan,nan,nan,nan,0.0,nan,nan,nan,nan,nan,nan,nan,nan,nan,nan,nan,nan,nan,nan,nan,nan,nan,nan,169.6212661296595,749.5581959905685,nan,750.1038571530371,nan,nan,nan,nan
1,368,0,0,0.0,1.0,0.35319066926604137,0,5,0,2,8,6,7,nan,nan,nan,nan,nan,nan,nan,nan,nan,nan,nan,nan,0.0,nan,nan,nan,nan,nan,nan,nan,nan,nan,nan,nan,nan,nan,nan,nan,nan,nan,nan,169.6212661296595,750.5666439634515,nan,750.9198346327175,nan,nan,nan,nan
1,369,1,1,1.0,1.0,0.6486767113674432,0,2,5,4,3,7,0,nan,nan,nan,nan,nan,nan,nan,nan,nan,nan,nan,nan,0.0,nan,nan,nan,nan,nan,nan,nan,nan,nan,nan,nan,nan,nan,nan,nan,nan,nan,nan,169.6212661296595,751.5751415431732,nan,752.2238182545407,nan,nan,nan,nan
1,370,1,1,1.0,1.0,0.7681839395663701,0,4,0,8,6,5,2,nan,nan,nan,nan,nan,nan,nan,nan,nan,nan,nan,nan,0.0,nan,nan,nan,nan,nan,nan,nan,nan,nan,nan,nan,nan,nan,nan,nan,nan,nan,nan,169.6212661296595,752.5835764016374,nan,753.3517603412038,nan,nan,nan,nan
1,371,1,1,1.0,1.0,0.45569960202556103,0,7,2,4,0,6,5,nan,nan,nan,nan,nan,nan,nan,nan,nan,nan,nan,nan,0.0,nan,nan,nan,nan,nan,nan,nan,nan,nan,nan,nan,nan,nan,nan,nan,nan,nan,nan,169.6212661296595,753.5920423356583,nan,754.0477419376839,nan,nan,nan,nan
1,372,0,0,0.0,1.0,0.6632348677376285,0,6,0,1,8,2,3,nan,nan,nan,nan,nan,nan,nan,nan,nan,nan,nan,nan,0.0,nan,nan,nan,nan,nan,nan,nan,nan,nan,nan,nan,nan,nan,nan,nan,nan,nan,nan,169.6212661296595,754.6005017124116,nan,755.2637365801493,nan,nan,nan,nan
1,373,1,1,1.0,1.0,0.7187248669797555,0,8,3,2,4,5,0,nan,nan,nan,nan,nan,nan,nan,nan,nan,nan,nan,nan,0.0,nan,nan,nan,nan,nan,nan,nan,nan,nan,nan,nan,nan,nan,nan,nan,nan,nan,nan,169.6212661296595,755.6089687867789,nan,756.3276936537586,nan,nan,nan,nan
1,374,1,1,1.0,1.0,0.5422420028480701,0,2,1,8,3,6,7,nan,nan,nan,nan,nan,nan,nan,nan,nan,nan,nan,nan,0.0,nan,nan,nan,nan,nan,nan,nan,nan,nan,nan,nan,nan,nan,nan,nan,nan,nan,nan,169.6212661296595,756.6174350058427,nan,757.1596770086908,nan,nan,nan,nan
1,375,1,1,1.0,1.0,0.5177542282035574,0,7,8,0,2,1,3,nan,nan,nan,nan,nan,nan,nan,nan,nan,nan,nan,nan,0.0,nan,nan,nan,nan,nan,nan,nan,nan,nan,nan,nan,nan,nan,nan,nan,nan,nan,nan,169.6212661296595,757.6259169052355,nan,758.143671133439,nan,nan,nan,nan
1,376,1,1,1.0,1.0,0.45326373947318643,1,6,4,8,0,3,7,1.0,1.0,1.0,1.0,1.0,1.0,0.0,1.0,0.0,0.0,0.0,0.0,1.0,3.0,4.0,2.0,8.0,2.0,0.0,5.0,6.0,1.0,2.0,3.0,4.0,4.831246951245703,5.566536767291836,1.9599288627505302,2.7049333344912156,3.311663260217756,4.17553834017599,169.6212661296595,758.6343594613136,759.442772196373,759.0876232007868,766.060267072462,767.0596957395319,760.4512441174011,766.051945682324
1,377,1,1,1.0,1.0,0.4506571041420102,0,0,7,2,1,4,5,nan,nan,nan,nan,nan,nan,nan,nan,nan,nan,nan,nan,0.0,nan,nan,nan,nan,nan,nan,nan,nan,nan,nan,nan,nan,nan,nan,nan,nan,nan,nan,169.6212661296595,767.26878506504,nan,767.719442169182,nan,nan,nan,nan
1,378,1,1,1.0,1.0,0.3301603068248369,0,8,0,7,4,5,6,nan,nan,nan,nan,nan,nan,nan,nan,nan,nan,nan,nan,0.0,nan,nan,nan,nan,nan,nan,nan,nan,nan,nan,nan,nan,nan,nan,nan,nan,nan,nan,169.6212661296595,768.2772375994828,nan,768.6073979063076,nan,nan,nan,nan
1,379,0,0,1.0,0.0,0.2976519185467623,0,0,8,4,2,1,7,nan,nan,nan,nan,nan,nan,nan,nan,nan,nan,nan,nan,0.0,nan,nan,nan,nan,nan,nan,nan,nan,nan,nan,nan,nan,nan,nan,nan,nan,nan,nan,169.6212661296595,769.2857380301575,nan,769.5833899487043,nan,nan,nan,nan
1,380,1,1,1.0,1.0,0.31318681477569044,0,5,0,8,1,6,4,nan,nan,nan,nan,nan,nan,nan,nan,nan,nan,nan,nan,0.0,nan,nan,nan,nan,nan,nan,nan,nan,nan,nan,nan,nan,nan,nan,nan,nan,nan,nan,169.6212661296595,770.2941765948781,nan,770.6073634096538,nan,nan,nan,nan
1,381,1,1,1.0,1.0,0.28070665104314685,1,7,2,1,6,4,8,1.0,1.0,1.0,1.0,1.0,1.0,0.0,1.0,0.0,0.0,1.0,0.0,2.0,5.0,2.0,5.0,4.0,4.0,5.0,6.0,1.0,2.0,3.0,4.0,5.0,4.626087107753847,1.5790351030882448,2.411089161876589,2.93099843285745,3.5867640631622635,4.122294899600092,169.6212661296595,771.3026342610829,772.111062676413,771.583340912126,777.7867679404444,778.7860797180329,773.1194969646749,777.7784496863605
