block,trial,freq_trials,correct_response,actual_response,acc,rts,probe_trials,fast_rt_trigger,slow_rt_trigger,rt_triggered,rts_runningavg,rts_runningstd,rts_runningfastthresh,rts_runningslowthresh,rts_runningstd,rts_trailingavg,trials_colorind0,trials_colorind1,trials_colorind2,trials_colorind3,trials_colorind4,trials_colorind5,wholereport_resp0,wholereport_resp1,wholereport_resp2,wholereport_resp3,wholereport_resp4,wholereport_resp5,wholereport_respacc0,wholereport_respacc1,wholereport_respacc2,wholereport_respacc3,wholereport_respacc4,wholereport_respacc5,wholereport_respacc_total,wholereport_respcolorind0,wholereport_respcolorind1,wholereport_respcolorind2,wholereport_respcolorind3,wholereport_respcolorind4,wholereport_respcolorind5,wholereport_resporder0,wholereport_resporder1,wholereport_resporder2,wholereport_resporder3,wholereport_resporder4,wholereport_resporder5,wholereport_rts0,wholereport_rts1,wholereport_rts2,wholereport_rts3,wholereport_rts4,wholereport_rts5,time_blockstart,time_encarray_offset,time_encarray_onset,time_response,time_iti_offset,time_iti_onset,time_memprobe_offset,time_memprobe_onset
1,1,1,1,1.0,1.0,0.5160641773836687,0,nan,nan,nan,nan,nan,nan,nan,nan,nan,8,2,6,7,5,1,nan,nan,nan,nan,nan,nan,nan,nan,nan,nan,nan,nan,0.0,nan,nan,nan,nan,nan,nan,nan,nan,nan,nan,nan,nan,nan,nan,nan,nan,nan,nan,791.7600299009355,792.7719349513063,nan,793.28799912869,nan,nan,nan,nan
1,2,1,1,1.0,1.0,0.40316462563350797,0,nan,nan,nan,nan,nan,nan,nan,nan,nan,5,2,6,0,4,7,nan,nan,nan,nan,nan,nan,nan,nan,nan,nan,nan,nan,0.0,nan,nan,nan,nan,nan,nan,nan,nan,nan,nan,nan,nan,nan,nan,nan,nan,nan,nan,791.7600299009355,793.7888086596504,nan,794.1919732852839,nan,nan,nan,nan
1,3,1,1,1.0,1.0,0.47440733469557017,0,nan,nan,nan,nan,nan,nan,nan,nan,nan,3,8,5,7,2,0,nan,nan,nan,nan,nan,nan,nan,nan,nan,nan,nan,nan,0.0,nan,nan,nan,nan,nan,nan,nan,nan,nan,nan,nan,nan,nan,nan,nan,nan,nan,nan,791.7600299009355,794.8055372539675,nan,795.279944588663,nan,nan,nan,nan
1,4,0,0,0.0,1.0,0.4655807539820671,0,nan,nan,nan,nan,nan,nan,nan,nan,nan,7,6,2,0,1,8,nan,nan,nan,nan,nan,nan,nan,nan,nan,nan,nan,nan,0.0,nan,nan,nan,nan,nan,nan,nan,nan,nan,nan,nan,nan,nan,nan,nan,nan,nan,nan,791.7600299009355,795.8223462454043,nan,796.2879269993864,nan,nan,nan,nan
1,5,1,1,1.0,1.0,0.48076327110175043,0,nan,nan,nan,nan,nan,nan,nan,nan,nan,3,2,0,4,6,1,nan,nan,nan,nan,nan,nan,nan,nan,nan,nan,nan,nan,0.0,nan,nan,nan,nan,nan,nan,nan,nan,nan,nan,nan,nan,nan,nan,nan,nan,nan,nan,791.7600299009355,796.8391486797482,nan,797.3199119508499,nan,nan,nan,nan
1,6,1,1,1.0,1.0,0.46393859945237637,0,nan,nan,nan,nan,nan,nan,nan,nan,nan,8,1,7,0,5,2,nan,nan,nan,nan,nan,nan,nan,nan,nan,nan,nan,nan,0.0,nan,nan,nan,nan,nan,nan,nan,nan,nan,nan,nan,nan,nan,nan,nan,nan,nan,nan,791.7600299009355,797.855941705755,nan,798.3198803052073,nan,nan,nan,nan
1,7,0,0,0.0,1.0,0.6711117927916348,0,nan,nan,nan,nan,nan,nan,nan,nan,nan,7,5,1,4,0,6,nan,nan,nan,nan,nan,nan,nan,nan,nan,nan,nan,nan,0.0,nan,nan,nan,nan,nan,nan,nan,nan,nan,nan,nan,nan,nan,nan,nan,nan,nan,nan,791.7600299009355,798.8727429996943,nan,799.543854792486,nan,nan,nan,nan
1,8,1,1,1.0,1.0,0.6142801303649321,1,nan,nan,nan,nan,nan,nan,nan,nan,nan,3,0,4,6,5,1,1.0,1.0,1.0,1.0,1.0,1.0,1.0,0.0,0.0,0.0,0.0,1.0,2.0,3.0,5.0,2.0,8.0,4.0,1.0,3.0,2.0,1.0,6.0,5.0,4.0,5.330930066760629,4.307982952333987,2.8036182709038258,8.298084124457091,7.226299162372015,6.1714537658263,791.7600299009355,799.8895425830269,800.6979484757176,800.5038227133919,810.0491642829729,811.0455475515919,801.7147583224578,810.0408394717379
1,9,1,1,1.0,1.0,0.43756833393126726,0,nan,nan,nan,nan,nan,nan,nan,nan,nan,2,4,7,5,6,3,nan,nan,nan,nan,nan,nan,nan,nan,nan,nan,nan,nan,0.0,nan,nan,nan,nan,nan,nan,nan,nan,nan,nan,nan,nan,nan,nan,nan,nan,nan,nan,791.7600299009355,811.2660219119862,nan,811.7035902459174,nan,nan,nan,nan
1,10,1,1,1.0,1.0,0.46072698978241533,0,nan,nan,nan,nan,nan,nan,nan,nan,nan,1,6,3,7,0,8,nan,nan,nan,nan,nan,nan,nan,nan,nan,nan,nan,nan,0.0,nan,nan,nan,nan,nan,nan,nan,nan,nan,nan,nan,nan,nan,nan,nan,nan,nan,nan,791.7600299009355,812.2828326140298,nan,812.7435596038122,nan,nan,nan,nan
1,11,1,1,1.0,1.0,0.4199108959874138,0,nan,nan,nan,nan,nan,nan,nan,nan,nan,4,7,8,2,5,6,nan,nan,nan,nan,nan,nan,nan,nan,nan,nan,nan,nan,0.0,nan,nan,nan,nan,nan,nan,nan,nan,nan,nan,nan,nan,nan,nan,nan,nan,nan,nan,791.7600299009355,813.2996093896218,nan,813.7195202856092,nan,nan,nan,nan
1,12,1,1,1.0,1.0,0.427078501554206,0,nan,nan,nan,nan,nan,nan,nan,nan,nan,3,1,5,0,4,2,nan,nan,nan,nan,nan,nan,nan,nan,nan,nan,nan,nan,0.0,nan,nan,nan,nan,nan,nan,nan,nan,nan,nan,nan,nan,nan,nan,nan,nan,nan,nan,791.7600299009355,814.3164263637736,nan,814.7435048653278,nan,nan,nan,nan
1,13,1,1,1.0,1.0,0.37826260610017926,0,nan,nan,nan,nan,nan,nan,nan,nan,nan,2,3,4,7,6,5,nan,nan,nan,nan,nan,nan,nan,nan,nan,nan,nan,nan,0.0,nan,nan,nan,nan,nan,nan,nan,nan,nan,nan,nan,nan,nan,nan,nan,nan,nan,nan,791.7600299009355,815.3332270875107,nan,815.7114896936109,nan,nan,nan,nan
1,14,1,1,1.0,1.0,0.5294149511028081,0,nan,nan,nan,nan,nan,nan,nan,nan,nan,0,8,6,4,5,2,nan,nan,nan,nan,nan,nan,nan,nan,nan,nan,nan,nan,0.0,nan,nan,nan,nan,nan,nan,nan,nan,nan,nan,nan,nan,nan,nan,nan,nan,nan,nan,791.7600299009355,816.3500343683409,nan,816.8794493194437,nan,nan,nan,nan
1,15,1,1,1.0,1.0,0.6086047189310193,0,nan,nan,nan,nan,nan,nan,nan,nan,nan,7,5,1,3,4,0,nan,nan,nan,nan,nan,nan,nan,nan,nan,nan,nan,nan,0.0,nan,nan,nan,nan,nan,nan,nan,nan,nan,nan,nan,nan,nan,nan,nan,nan,nan,nan,791.7600299009355,817.3668239732506,nan,817.9754286921816,nan,nan,nan,nan
1,16,1,1,1.0,1.0,0.5917766259517521,0,nan,nan,nan,nan,nan,nan,nan,nan,nan,5,8,0,4,7,6,nan,nan,nan,nan,nan,nan,nan,nan,nan,nan,nan,nan,0.0,nan,nan,nan,nan,nan,nan,nan,nan,nan,nan,nan,nan,nan,nan,nan,nan,nan,nan,791.7600299009355,818.3836292584892,nan,818.975405884441,nan,nan,nan,nan
1,17,1,1,1.0,1.0,0.5989553502295166,0,nan,nan,nan,nan,nan,nan,nan,nan,nan,8,0,2,1,6,4,nan,nan,nan,nan,nan,nan,nan,nan,nan,nan,nan,nan,0.0,nan,nan,nan,nan,nan,nan,nan,nan,nan,nan,nan,nan,nan,nan,nan,nan,nan,nan,791.7600299009355,819.4004211442079,nan,819.9993764944375,nan,nan,nan,nan
1,18,0,0,0.0,1.0,0.662132685421966,0,nan,nan,nan,nan,nan,nan,nan,nan,nan,6,5,7,0,8,2,nan,nan,nan,nan,nan,nan,nan,nan,nan,nan,nan,nan,0.0,nan,nan,nan,nan,nan,nan,nan,nan,nan,nan,nan,nan,nan,nan,nan,nan,nan,nan,791.7600299009355,820.417216166039,nan,821.079348851461,nan,nan,nan,nan
1,19,1,1,1.0,1.0,0.613321351702325,0,nan,nan,nan,nan,nan,nan,nan,nan,nan,3,7,0,5,4,8,nan,nan,nan,nan,nan,nan,nan,nan,nan,nan,nan,nan,0.0,nan,nan,nan,nan,nan,nan,nan,nan,nan,nan,nan,nan,nan,nan,nan,nan,nan,nan,791.7600299009355,821.4340166045586,nan,822.0473379562609,nan,nan,nan,nan
1,20,1,1,1.0,1.0,0.6524864529492334,1,nan,nan,nan,nan,nan,nan,nan,nan,nan,1,2,5,6,8,0,1.0,1.0,1.0,1.0,1.0,1.0,1.0,0.0,0.0,0.0,0.0,0.0,1.0,1.0,5.0,2.0,8.0,6.0,3.0,3.0,2.0,1.0,6.0,5.0,4.0,4.610343521111645,3.3625509502599016,2.416844970663078,8.120515613700263,7.200177786056884,5.369272380135953,791.7600299009355,822.4508301576134,823.2592274973867,823.1033166105626,832.4354167124256,833.4466552076628,824.2760410504416,832.4270847736625
1,21,1,1,1.0,1.0,0.5781071146484464,0,nan,nan,nan,nan,nan,nan,nan,nan,nan,7,8,3,1,2,6,nan,nan,nan,nan,nan,nan,nan,nan,nan,nan,nan,nan,0.0,nan,nan,nan,nan,nan,nan,nan,nan,nan,nan,nan,nan,nan,nan,nan,nan,nan,nan,791.7600299009355,833.6689479120541,nan,834.2470550267026,nan,nan,nan,nan
1,22,1,1,1.0,1.0,0.5609562926692888,0,nan,nan,nan,nan,nan,nan,nan,nan,nan,2,6,1,4,5,8,nan,nan,nan,nan,nan,nan,nan,nan,nan,nan,nan,nan,0.0,nan,nan,nan,nan,nan,nan,nan,nan,nan,nan,nan,nan,nan,nan,nan,nan,nan,nan,791.7600299009355,834.6940449374961,nan,835.2550012301654,nan,nan,nan,nan
1,23,1,1,1.0,1.0,0.5761236998951063,0,nan,nan,nan,nan,nan,nan,nan,nan,nan,1,3,8,5,2,6,nan,nan,nan,nan,nan,nan,nan,nan,nan,nan,nan,nan,0.0,nan,nan,nan,nan,nan,nan,nan,nan,nan,nan,nan,nan,nan,nan,nan,nan,nan,nan,791.7600299009355,835.7108861447778,nan,836.2870098446729,nan,nan,nan,nan
1,24,1,1,nan,nan,nan,0,nan,nan,nan,nan,nan,nan,nan,nan,nan,6,4,2,0,7,8,nan,nan,nan,nan,nan,nan,nan,nan,nan,nan,nan,nan,0.0,nan,nan,nan,nan,nan,nan,nan,nan,nan,nan,nan,nan,nan,nan,nan,nan,nan,nan,791.7600299009355,836.7276834473014,nan,nan,nan,nan,nan,nan
1,25,1,1,nan,nan,nan,0,nan,nan,nan,nan,nan,nan,nan,nan,nan,3,8,6,7,0,5,nan,nan,nan,nan,nan,nan,nan,nan,nan,nan,nan,nan,0.0,nan,nan,nan,nan,nan,nan,nan,nan,nan,nan,nan,nan,nan,nan,nan,nan,nan,nan,791.7600299009355,837.7528081270866,nan,nan,nan,nan,nan,nan
1,26,1,1,nan,nan,nan,0,nan,nan,nan,nan,nan,nan,nan,nan,nan,0,5,8,3,1,4,nan,nan,nan,nan,nan,nan,nan,nan,nan,nan,nan,nan,0.0,nan,nan,nan,nan,nan,nan,nan,nan,nan,nan,nan,nan,nan,nan,nan,nan,nan,nan,791.7600299009355,838.7696156930178,nan,nan,nan,nan,nan,nan
1,27,1,1,nan,nan,nan,0,nan,nan,nan,nan,nan,nan,nan,nan,nan,1,3,7,6,5,8,nan,nan,nan,nan,nan,nan,nan,nan,nan,nan,nan,nan,0.0,nan,nan,nan,nan,nan,nan,nan,nan,nan,nan,nan,nan,nan,nan,nan,nan,nan,nan,791.7600299009355,839.7947526319185,nan,nan,nan,nan,nan,nan
1,28,1,1,nan,nan,nan,0,nan,nan,nan,nan,nan,nan,nan,nan,nan,3,8,0,4,1,7,nan,nan,nan,nan,nan,nan,nan,nan,nan,nan,nan,nan,0.0,nan,nan,nan,nan,nan,nan,nan,nan,nan,nan,nan,nan,nan,nan,nan,nan,nan,nan,791.7600299009355,840.8198841540143,nan,nan,nan,nan,nan,nan
1,29,1,1,1.0,1.0,0.7538550005992875,0,nan,nan,nan,nan,nan,nan,nan,nan,nan,1,7,5,8,0,3,nan,nan,nan,nan,nan,nan,nan,nan,nan,nan,nan,nan,0.0,nan,nan,nan,nan,nan,nan,nan,nan,nan,nan,nan,nan,nan,nan,nan,nan,nan,nan,791.7600299009355,841.8450034168782,nan,842.5988584174775,nan,nan,nan,nan
1,30,1,1,1.0,1.0,0.744991357321851,0,nan,nan,nan,nan,nan,nan,nan,nan,nan,5,4,8,0,2,6,nan,nan,nan,nan,nan,nan,nan,nan,nan,nan,nan,nan,0.0,nan,nan,nan,nan,nan,nan,nan,nan,nan,nan,nan,nan,nan,nan,nan,nan,nan,nan,791.7600299009355,842.861836071359,nan,843.6068274286808,nan,nan,nan,nan
1,31,1,1,nan,nan,nan,0,nan,nan,nan,nan,nan,nan,nan,nan,nan,2,6,1,3,7,8,nan,nan,nan,nan,nan,nan,nan,nan,nan,nan,nan,nan,0.0,nan,nan,nan,nan,nan,nan,nan,nan,nan,nan,nan,nan,nan,nan,nan,nan,nan,nan,791.7600299009355,843.886939938995,nan,nan,nan,nan,nan,nan
1,32,1,1,1.0,1.0,0.783020349801518,0,nan,nan,nan,nan,nan,nan,nan,nan,nan,8,0,4,7,3,5,nan,nan,nan,nan,nan,nan,nan,nan,nan,nan,nan,nan,0.0,nan,nan,nan,nan,nan,nan,nan,nan,nan,nan,nan,nan,nan,nan,nan,nan,nan,nan,791.7600299009355,844.903750641155,nan,845.6867709909566,nan,nan,nan,nan
1,33,1,1,nan,nan,nan,0,nan,nan,nan,nan,nan,nan,nan,nan,nan,7,3,2,1,5,0,nan,nan,nan,nan,nan,nan,nan,nan,nan,nan,nan,nan,0.0,nan,nan,nan,nan,nan,nan,nan,nan,nan,nan,nan,nan,nan,nan,nan,nan,nan,nan,791.7600299009355,845.9289038304705,nan,nan,nan,nan,nan,nan
1,34,1,1,1.0,1.0,0.7887217052048072,0,nan,nan,nan,nan,nan,nan,nan,nan,nan,1,4,0,2,7,6,nan,nan,nan,nan,nan,nan,nan,nan,nan,nan,nan,nan,0.0,nan,nan,nan,nan,nan,nan,nan,nan,nan,nan,nan,nan,nan,nan,nan,nan,nan,nan,791.7600299009355,846.9540128299268,nan,847.7427345351316,nan,nan,nan,nan
1,35,1,1,1.0,1.0,0.723576350370422,0,nan,nan,nan,nan,nan,nan,nan,nan,nan,2,8,7,6,4,0,nan,nan,nan,nan,nan,nan,nan,nan,nan,nan,nan,nan,0.0,nan,nan,nan,nan,nan,nan,nan,nan,nan,nan,nan,nan,nan,nan,nan,nan,nan,nan,791.7600299009355,847.9791403606068,nan,848.7027167109773,nan,nan,nan,nan
1,36,1,1,1.0,1.0,0.7547228336334229,0,nan,nan,nan,nan,nan,nan,nan,nan,nan,4,6,2,8,7,5,nan,nan,nan,nan,nan,nan,nan,nan,nan,nan,nan,nan,0.0,nan,nan,nan,nan,nan,nan,nan,nan,nan,nan,nan,nan,nan,nan,nan,nan,nan,nan,791.7600299009355,848.9959647472715,nan,849.7506875809049,nan,nan,nan,nan
1,37,1,1,1.0,1.0,0.7219093923922628,0,nan,nan,nan,nan,nan,nan,nan,nan,nan,3,5,4,7,0,2,nan,nan,nan,nan,nan,nan,nan,nan,nan,nan,nan,nan,0.0,nan,nan,nan,nan,nan,nan,nan,nan,nan,nan,nan,nan,nan,nan,nan,nan,nan,nan,791.7600299009355,850.0127503608819,nan,850.7346597532742,nan,nan,nan,nan
1,38,1,1,1.0,1.0,0.753082959796302,0,nan,nan,nan,nan,nan,nan,nan,nan,nan,5,1,7,0,2,6,nan,nan,nan,nan,nan,nan,nan,nan,nan,nan,nan,nan,0.0,nan,nan,nan,nan,nan,nan,nan,nan,nan,nan,nan,nan,nan,nan,nan,nan,nan,nan,791.7600299009355,851.0295624884311,nan,851.7826454482274,nan,nan,nan,nan
1,39,1,1,1.0,1.0,0.6722285149153322,0,nan,nan,nan,nan,nan,nan,nan,nan,nan,1,8,5,4,6,0,nan,nan,nan,nan,nan,nan,nan,nan,nan,nan,nan,nan,0.0,nan,nan,nan,nan,nan,nan,nan,nan,nan,nan,nan,nan,nan,nan,nan,nan,nan,nan,791.7600299009355,852.0463974236045,nan,852.7186259385198,nan,nan,nan,nan
1,40,1,1,1.0,1.0,0.6394518511369824,0,nan,nan,nan,nan,nan,nan,nan,nan,nan,2,4,3,6,5,7,nan,nan,nan,nan,nan,nan,nan,nan,nan,nan,nan,nan,0.0,nan,nan,nan,nan,nan,nan,nan,nan,nan,nan,nan,nan,nan,nan,nan,nan,nan,nan,791.7600299009355,853.0631542424671,nan,853.7026060936041,nan,nan,nan,nan
1,41,1,1,1.0,1.0,0.6306358189322054,0,nan,nan,nan,nan,nan,nan,nan,nan,nan,5,3,7,1,4,6,nan,nan,nan,nan,nan,nan,nan,nan,nan,nan,nan,nan,0.0,nan,nan,nan,nan,nan,nan,nan,nan,nan,nan,nan,nan,nan,nan,nan,nan,nan,nan,791.7600299009355,854.0799395709764,nan,854.7105753899086,nan,nan,nan,nan
1,42,1,1,1.0,1.0,0.6218360371422023,0,nan,nan,nan,nan,nan,nan,nan,nan,nan,6,5,4,0,7,8,nan,nan,nan,nan,nan,nan,nan,nan,nan,nan,nan,nan,0.0,nan,nan,nan,nan,nan,nan,nan,nan,nan,nan,nan,nan,nan,nan,nan,nan,nan,nan,791.7600299009355,855.0967257547891,nan,855.7185617919313,nan,nan,nan,nan
1,43,1,1,1.0,1.0,0.6049714519176632,0,nan,nan,nan,nan,nan,nan,nan,nan,nan,5,2,8,7,4,6,nan,nan,nan,nan,nan,nan,nan,nan,nan,nan,nan,nan,0.0,nan,nan,nan,nan,nan,nan,nan,nan,nan,nan,nan,nan,nan,nan,nan,nan,nan,nan,791.7600299009355,856.1135555582587,nan,856.7185270101763,nan,nan,nan,nan
1,44,1,1,1.0,1.0,0.5478489912347868,0,nan,nan,nan,nan,nan,nan,nan,nan,nan,2,1,6,4,0,3,nan,nan,nan,nan,nan,nan,nan,nan,nan,nan,nan,nan,0.0,nan,nan,nan,nan,nan,nan,nan,nan,nan,nan,nan,nan,nan,nan,nan,nan,nan,nan,791.7600299009355,857.1386676938273,nan,857.6865166850621,nan,nan,nan,nan
1,45,1,1,1.0,1.0,0.46699312096461654,0,nan,nan,nan,nan,nan,nan,nan,nan,nan,1,6,8,7,4,5,nan,nan,nan,nan,nan,nan,nan,nan,nan,nan,nan,nan,0.0,nan,nan,nan,nan,nan,nan,nan,nan,nan,nan,nan,nan,nan,nan,nan,nan,nan,nan,791.7600299009355,858.1554940760834,nan,858.622487197048,nan,nan,nan,nan
1,46,1,1,1.0,1.0,0.4261681891512126,0,nan,nan,nan,nan,nan,nan,nan,nan,nan,8,1,4,2,5,0,nan,nan,nan,nan,nan,nan,nan,nan,nan,nan,nan,nan,0.0,nan,nan,nan,nan,nan,nan,nan,nan,nan,nan,nan,nan,nan,nan,nan,nan,nan,nan,791.7600299009355,859.172291378607,nan,859.5984595677583,nan,nan,nan,nan
1,47,1,1,1.0,1.0,0.4093654698226601,0,nan,nan,nan,nan,nan,nan,nan,nan,nan,6,7,2,0,4,3,nan,nan,nan,nan,nan,nan,nan,nan,nan,nan,nan,nan,0.0,nan,nan,nan,nan,nan,nan,nan,nan,nan,nan,nan,nan,nan,nan,nan,nan,nan,nan,791.7600299009355,860.1890821239213,nan,860.5984475937439,nan,nan,nan,nan
1,48,1,1,1.0,1.0,0.42452774511184543,0,nan,nan,nan,nan,nan,nan,nan,nan,nan,0,6,3,2,7,1,nan,nan,nan,nan,nan,nan,nan,nan,nan,nan,nan,nan,0.0,nan,nan,nan,nan,nan,nan,nan,nan,nan,nan,nan,nan,nan,nan,nan,nan,nan,nan,791.7600299009355,861.2058854135685,nan,861.6304131586803,nan,nan,nan,nan
1,49,1,1,1.0,1.0,0.3997106843162328,0,nan,nan,nan,nan,nan,nan,nan,nan,nan,1,2,7,0,8,5,nan,nan,nan,nan,nan,nan,nan,nan,nan,nan,nan,nan,0.0,nan,nan,nan,nan,nan,nan,nan,nan,nan,nan,nan,nan,nan,nan,nan,nan,nan,nan,791.7600299009355,862.2226892733015,nan,862.6223999576177,nan,nan,nan,nan
1,50,1,1,1.0,1.0,0.43888462346512824,0,nan,nan,nan,nan,nan,nan,nan,nan,nan,7,6,2,4,0,8,nan,nan,nan,nan,nan,nan,nan,nan,nan,nan,nan,nan,0.0,nan,nan,nan,nan,nan,nan,nan,nan,nan,nan,nan,nan,nan,nan,nan,nan,nan,nan,791.7600299009355,863.2394871460274,nan,863.6783717694925,nan,nan,nan,nan
1,51,1,1,1.0,1.0,0.518077242304571,0,nan,nan,nan,nan,nan,nan,nan,nan,nan,4,3,0,2,6,1,nan,nan,nan,nan,nan,nan,nan,nan,nan,nan,nan,nan,0.0,nan,nan,nan,nan,nan,nan,nan,nan,nan,nan,nan,nan,nan,nan,nan,nan,nan,nan,791.7600299009355,864.2562753254315,nan,864.7743525677361,nan,nan,nan,nan
1,52,1,1,1.0,1.0,0.5012423070147634,0,nan,nan,nan,nan,nan,nan,nan,nan,nan,0,2,4,1,5,7,nan,nan,nan,nan,nan,nan,nan,nan,nan,nan,nan,nan,0.0,nan,nan,nan,nan,nan,nan,nan,nan,nan,nan,nan,nan,nan,nan,nan,nan,nan,nan,791.7600299009355,865.2730837467825,nan,865.7743260537973,nan,nan,nan,nan
1,53,1,1,1.0,1.0,0.5004235104424879,0,nan,nan,nan,nan,nan,nan,nan,nan,nan,7,5,6,4,3,2,nan,nan,nan,nan,nan,nan,nan,nan,nan,nan,nan,nan,0.0,nan,nan,nan,nan,nan,nan,nan,nan,nan,nan,nan,nan,nan,nan,nan,nan,nan,nan,791.7600299009355,866.2898821897106,nan,866.7903057001531,nan,nan,nan,nan
1,54,1,1,1.0,1.0,0.571601502597332,0,nan,nan,nan,nan,nan,nan,nan,nan,nan,8,1,0,6,5,4,nan,nan,nan,nan,nan,nan,nan,nan,nan,nan,nan,nan,0.0,nan,nan,nan,nan,nan,nan,nan,nan,nan,nan,nan,nan,nan,nan,nan,nan,nan,nan,791.7600299009355,867.3066792071331,nan,867.8782807097305,nan,nan,nan,nan
1,55,1,1,1.0,1.0,0.7064292345894501,0,nan,nan,nan,nan,nan,nan,nan,nan,nan,5,3,6,7,1,2,nan,nan,nan,nan,nan,nan,nan,nan,nan,nan,nan,nan,0.0,nan,nan,nan,nan,nan,nan,nan,nan,nan,nan,nan,nan,nan,nan,nan,nan,nan,nan,791.7600299009355,868.3318084484199,nan,869.0382376830094,nan,nan,nan,nan
1,56,0,0,0.0,1.0,0.5776096216868609,0,nan,nan,nan,nan,nan,nan,nan,nan,nan,2,8,1,6,5,0,nan,nan,nan,nan,nan,nan,nan,nan,nan,nan,nan,nan,0.0,nan,nan,nan,nan,nan,nan,nan,nan,nan,nan,nan,nan,nan,nan,nan,nan,nan,nan,791.7600299009355,869.3486105975462,nan,869.9262202192331,nan,nan,nan,nan
1,57,1,1,1.0,1.0,0.5927907134173438,0,nan,nan,nan,nan,nan,nan,nan,nan,nan,4,3,6,7,2,1,nan,nan,nan,nan,nan,nan,nan,nan,nan,nan,nan,nan,0.0,nan,nan,nan,nan,nan,nan,nan,nan,nan,nan,nan,nan,nan,nan,nan,nan,nan,nan,791.7600299009355,870.3654150274815,nan,870.9582057408988,nan,nan,nan,nan
1,58,1,1,1.0,1.0,0.5596474156482145,0,nan,nan,nan,nan,nan,nan,nan,nan,nan,3,7,0,4,1,5,nan,nan,nan,nan,nan,nan,nan,nan,nan,nan,nan,nan,0.0,nan,nan,nan,nan,nan,nan,nan,nan,nan,nan,nan,nan,nan,nan,nan,nan,nan,nan,791.7600299009355,871.39053799666,nan,871.9501854123082,nan,nan,nan,nan
1,59,1,1,1.0,1.0,0.5904683191329241,0,nan,nan,nan,nan,nan,nan,nan,nan,nan,7,1,4,2,0,8,nan,nan,nan,nan,nan,nan,nan,nan,nan,nan,nan,nan,0.0,nan,nan,nan,nan,nan,nan,nan,nan,nan,nan,nan,nan,nan,nan,nan,nan,nan,nan,791.7600299009355,872.4156792119611,nan,873.006147531094,nan,nan,nan,nan
1,60,1,1,1.0,1.0,0.6856633919524029,0,nan,nan,nan,nan,nan,nan,nan,nan,nan,0,8,5,3,4,6,nan,nan,nan,nan,nan,nan,nan,nan,nan,nan,nan,nan,0.0,nan,nan,nan,nan,nan,nan,nan,nan,nan,nan,nan,nan,nan,nan,nan,nan,nan,nan,791.7600299009355,873.4324733783724,nan,874.1181367703248,nan,nan,nan,nan
1,61,1,1,1.0,1.0,0.7725059990771115,0,nan,nan,nan,nan,nan,nan,nan,nan,nan,5,6,3,8,1,7,nan,nan,nan,nan,nan,nan,nan,nan,nan,nan,nan,nan,0.0,nan,nan,nan,nan,nan,nan,nan,nan,nan,nan,nan,nan,nan,nan,nan,nan,nan,nan,791.7600299009355,874.4576060408726,nan,875.2301120399497,nan,nan,nan,nan
1,62,1,1,nan,nan,nan,0,nan,nan,nan,nan,nan,nan,nan,nan,nan,7,1,5,4,0,2,nan,nan,nan,nan,nan,nan,nan,nan,nan,nan,nan,nan,0.0,nan,nan,nan,nan,nan,nan,nan,nan,nan,nan,nan,nan,nan,nan,nan,nan,nan,nan,791.7600299009355,875.4827472561738,nan,nan,nan,nan,nan,nan
1,63,0,0,0.0,1.0,0.7461514140013605,0,nan,nan,nan,nan,nan,nan,nan,nan,nan,1,3,7,8,2,4,nan,nan,nan,nan,nan,nan,nan,nan,nan,nan,nan,nan,0.0,nan,nan,nan,nan,nan,nan,nan,nan,nan,nan,nan,nan,nan,nan,nan,nan,nan,nan,791.7600299009355,876.5079258191399,nan,877.2540772331413,nan,nan,nan,nan
1,64,1,1,1.0,1.0,0.7053438732400537,0,nan,nan,nan,nan,nan,nan,nan,nan,nan,3,8,2,5,0,7,nan,nan,nan,nan,nan,nan,nan,nan,nan,nan,nan,nan,0.0,nan,nan,nan,nan,nan,nan,nan,nan,nan,nan,nan,nan,nan,nan,nan,nan,nan,nan,791.7600299009355,877.524684633594,nan,878.2300285068341,nan,nan,nan,nan
1,65,1,1,nan,nan,nan,0,nan,nan,nan,nan,nan,nan,nan,nan,nan,0,4,1,7,5,2,nan,nan,nan,nan,nan,nan,nan,nan,nan,nan,nan,nan,0.0,nan,nan,nan,nan,nan,nan,nan,nan,nan,nan,nan,nan,nan,nan,nan,nan,nan,nan,791.7600299009355,878.5414862126345,nan,nan,nan,nan,nan,nan
1,66,0,0,nan,nan,nan,0,nan,nan,nan,nan,nan,nan,nan,nan,nan,1,0,7,8,6,4,nan,nan,nan,nan,nan,nan,nan,nan,nan,nan,nan,nan,0.0,nan,nan,nan,nan,nan,nan,nan,nan,nan,nan,nan,nan,nan,nan,nan,nan,nan,nan,791.7600299009355,879.5582886468619,nan,nan,nan,nan,nan,nan
1,67,1,1,1.0,1.0,0.7825448092771694,1,nan,nan,nan,nan,nan,nan,nan,nan,nan,8,3,4,6,7,5,1.0,1.0,1.0,1.0,1.0,1.0,0.0,1.0,1.0,0.0,1.0,0.0,3.0,0.0,3.0,4.0,8.0,7.0,1.0,3.0,2.0,1.0,6.0,5.0,4.0,4.86848708242178,2.6284870482049882,1.8054420318221673,7.946425562608056,7.210639108903706,5.86667529551778,791.7600299009355,880.5834036333254,881.3918203597423,881.3659484426025,890.3929824121296,891.399392801919,882.4086034074426,890.3846476224717
1,68,1,1,nan,nan,nan,0,nan,nan,nan,nan,nan,nan,nan,nan,nan,2,7,3,8,1,6,nan,nan,nan,nan,nan,nan,nan,nan,nan,nan,nan,nan,0.0,nan,nan,nan,nan,nan,nan,nan,nan,nan,nan,nan,nan,nan,nan,nan,nan,nan,nan,791.7600299009355,891.6181759710889,nan,nan,nan,nan,nan,nan
1,69,1,1,1.0,1.0,0.11472758906893432,1,nan,nan,nan,nan,nan,nan,nan,nan,nan,5,4,8,7,3,1,1.0,1.0,1.0,1.0,1.0,1.0,0.0,0.0,0.0,0.0,1.0,0.0,1.0,7.0,5.0,4.0,4.0,3.0,7.0,3.0,2.0,1.0,6.0,5.0,4.0,4.03140192956198,3.407427385216579,2.737322267377749,5.879056171630509,5.263681271462701,4.5997675894759595,791.7600299009355,892.6349732736126,893.4433919957373,892.7497008626815,900.3692931921687,901.3675612322986,894.4518667677185,900.3609629640123
1,70,1,1,1.0,1.0,0.571339784306474,0,nan,nan,nan,nan,nan,nan,nan,nan,nan,6,3,1,2,8,4,nan,nan,nan,nan,nan,nan,nan,nan,nan,nan,nan,nan,0.0,nan,nan,nan,nan,nan,nan,nan,nan,nan,nan,nan,nan,nan,nan,nan,nan,nan,nan,791.7600299009355,901.5861414128449,nan,902.1574811971514,nan,nan,nan,nan
1,71,0,0,0.0,1.0,0.5785028283717111,0,nan,nan,nan,nan,nan,nan,nan,nan,nan,3,5,4,7,1,2,nan,nan,nan,nan,nan,nan,nan,nan,nan,nan,nan,nan,0.0,nan,nan,nan,nan,nan,nan,nan,nan,nan,nan,nan,nan,nan,nan,nan,nan,nan,nan,791.7600299009355,902.6029395706719,nan,903.1814423990436,nan,nan,nan,nan
1,72,1,1,1.0,1.0,0.5616946921218187,0,nan,nan,nan,nan,nan,nan,nan,nan,nan,0,1,3,4,7,8,nan,nan,nan,nan,nan,nan,nan,nan,nan,nan,nan,nan,0.0,nan,nan,nan,nan,nan,nan,nan,nan,nan,nan,nan,nan,nan,nan,nan,nan,nan,nan,791.7600299009355,903.6197400093079,nan,904.1814347014297,nan,nan,nan,nan
1,73,1,1,1.0,1.0,0.5608616407262161,0,nan,nan,nan,nan,nan,nan,nan,nan,nan,7,8,2,0,4,5,nan,nan,nan,nan,nan,nan,nan,nan,nan,nan,nan,nan,0.0,nan,nan,nan,nan,nan,nan,nan,nan,nan,nan,nan,nan,nan,nan,nan,nan,nan,nan,791.7600299009355,904.6365450094454,nan,905.1974066501716,nan,nan,nan,nan
1,74,1,1,1.0,1.0,0.6080368070397526,0,nan,nan,nan,nan,nan,nan,nan,nan,nan,6,2,7,4,3,1,nan,nan,nan,nan,nan,nan,nan,nan,nan,nan,nan,nan,0.0,nan,nan,nan,nan,nan,nan,nan,nan,nan,nan,nan,nan,nan,nan,nan,nan,nan,nan,791.7600299009355,905.6533494393807,nan,906.2613862464204,nan,nan,nan,nan
1,75,1,1,1.0,1.0,0.5351964185247198,0,nan,nan,nan,nan,nan,nan,nan,nan,nan,7,1,8,5,4,6,nan,nan,nan,nan,nan,nan,nan,nan,nan,nan,nan,nan,0.0,nan,nan,nan,nan,nan,nan,nan,nan,nan,nan,nan,nan,nan,nan,nan,nan,nan,nan,791.7600299009355,906.670159571222,nan,907.2053559897467,nan,nan,nan,nan
1,76,1,1,1.0,1.0,0.5183968351921067,0,nan,nan,nan,nan,nan,nan,nan,nan,nan,2,5,4,0,3,8,nan,nan,nan,nan,nan,nan,nan,nan,nan,nan,nan,nan,0.0,nan,nan,nan,nan,nan,nan,nan,nan,nan,nan,nan,nan,nan,nan,nan,nan,nan,nan,791.7600299009355,907.6869394829264,nan,908.2053363181185,nan,nan,nan,nan
1,77,1,1,1.0,1.0,0.5095850793877617,0,nan,nan,nan,nan,nan,nan,nan,nan,nan,8,1,6,2,4,7,nan,nan,nan,nan,nan,nan,nan,nan,nan,nan,nan,nan,0.0,nan,nan,nan,nan,nan,nan,nan,nan,nan,nan,nan,nan,nan,nan,nan,nan,nan,nan,791.7600299009355,908.7037242412334,nan,909.2133093206212,nan,nan,nan,nan
1,78,1,1,1.0,1.0,0.5167478383518755,0,nan,nan,nan,nan,nan,nan,nan,nan,nan,5,7,1,4,8,2,nan,nan,nan,nan,nan,nan,nan,nan,nan,nan,nan,nan,0.0,nan,nan,nan,nan,nan,nan,nan,nan,nan,nan,nan,nan,nan,nan,nan,nan,nan,nan,791.7600299009355,909.7205377941718,nan,910.2372856325237,nan,nan,nan,nan
1,79,1,1,1.0,1.0,0.5799457004759461,0,nan,nan,nan,nan,nan,nan,nan,nan,nan,4,3,8,7,1,0,nan,nan,nan,nan,nan,nan,nan,nan,nan,nan,nan,nan,0.0,nan,nan,nan,nan,nan,nan,nan,nan,nan,nan,nan,nan,nan,nan,nan,nan,nan,nan,791.7600299009355,910.7373271140968,nan,911.3172728145728,nan,nan,nan,nan
1,80,1,1,1.0,1.0,0.523118884768337,0,nan,nan,nan,nan,nan,nan,nan,nan,nan,6,0,2,8,7,5,nan,nan,nan,nan,nan,nan,nan,nan,nan,nan,nan,nan,0.0,nan,nan,nan,nan,nan,nan,nan,nan,nan,nan,nan,nan,nan,nan,nan,nan,nan,nan,791.7600299009355,911.7541318291333,nan,912.2772507139016,nan,nan,nan,nan
1,81,1,1,1.0,1.0,0.45029588718898594,0,0.0,0.0,0.0,0.5721723645827665,0.12248047043629233,0.4496918941464742,0.6946528350190588,0.12248047043629233,0.517786824144423,8,4,0,7,6,2,nan,nan,nan,nan,nan,nan,nan,nan,nan,nan,nan,nan,0.0,nan,nan,nan,nan,nan,nan,nan,nan,nan,nan,nan,nan,nan,nan,nan,nan,nan,nan,791.7600299009355,912.7709314123495,nan,913.2212272995384,nan,nan,nan,nan
1,82,0,0,0.0,1.0,0.5294611366698518,0,0.0,0.0,0.0,0.5704312720485697,0.12245948639444687,0.4479717856541228,0.6928907584430166,0.12245948639444687,0.5009586362090582,5,6,4,2,3,8,nan,nan,nan,nan,nan,nan,nan,nan,nan,nan,nan,nan,0.0,nan,nan,nan,nan,nan,nan,nan,nan,nan,nan,nan,nan,nan,nan,nan,nan,nan,nan,791.7600299009355,913.7877298552776,nan,914.3171909919474,nan,nan,nan,nan
1,83,1,1,1.0,1.0,0.528290816466324,0,0.0,0.0,0.0,0.5698542278883061,0.12168984571008273,0.44816438217822335,0.6915440735983889,0.12168984571008273,0.5026826134417206,6,8,1,3,0,5,nan,nan,nan,nan,nan,nan,nan,nan,nan,nan,nan,nan,0.0,nan,nan,nan,nan,nan,nan,nan,nan,nan,nan,nan,nan,nan,nan,nan,nan,nan,nan,791.7600299009355,914.8128850403009,nan,915.3411758567672,nan,nan,nan,nan
1,84,1,1,1.0,1.0,0.5754870799137279,0,0.0,0.0,0.0,0.569276958285223,0.12093967968750785,0.4483372785977151,0.6902166379727308,0.12093967968750785,0.5444130110166346,4,7,0,5,1,8,nan,nan,nan,nan,nan,nan,nan,nan,nan,nan,nan,nan,0.0,nan,nan,nan,nan,nan,nan,nan,nan,nan,nan,nan,nan,nan,nan,nan,nan,nan,nan,791.7600299009355,915.829662100994,nan,916.4051491809078,nan,nan,nan,nan
1,85,1,1,1.0,1.0,0.6706410988699645,0,0.0,0.0,0.0,0.5693620284445176,0.12011063838940322,0.44925139005511433,0.6894726668339208,0.12011063838940322,0.5914729984166721,0,6,5,7,4,2,nan,nan,nan,nan,nan,nan,nan,nan,nan,nan,nan,nan,0.0,nan,nan,nan,nan,nan,nan,nan,nan,nan,nan,nan,nan,nan,nan,nan,nan,nan,nan,791.7600299009355,916.8464805006515,nan,917.5171215995215,nan,nan,nan,nan
1,86,1,1,1.0,1.0,0.7018217936856672,0,0.0,0.0,0.0,0.5707306645313479,0.11986806452502811,0.4508626000063198,0.690598729056376,0.11986806452502811,0.6493166574897865,6,8,4,1,3,0,nan,nan,nan,nan,nan,nan,nan,nan,nan,nan,nan,nan,0.0,nan,nan,nan,nan,nan,nan,nan,nan,nan,nan,nan,nan,nan,nan,nan,nan,nan,nan,791.7600299009355,917.8632675397675,nan,918.5650893334532,nan,nan,nan,nan
1,87,1,1,1.0,1.0,0.6289985108887777,0,0.0,0.0,0.0,0.5724785462534056,0.12001188088044328,0.45246666537296226,0.6924904271338488,0.12001188088044328,0.6671538011481365,2,0,6,3,5,1,nan,nan,nan,nan,nan,nan,nan,nan,nan,nan,nan,nan,0.0,nan,nan,nan,nan,nan,nan,nan,nan,nan,nan,nan,nan,nan,nan,nan,nan,nan,nan,791.7600299009355,918.8800665528979,nan,919.5090650637867,nan,nan,nan,nan
1,88,1,1,1.0,1.0,0.6281822803430259,0,0.0,0.0,0.0,0.5732222299986077,0.11939355200884973,0.453828677989758,0.6926157820074574,0.11939355200884973,0.6530008616391569,3,6,0,2,4,8,nan,nan,nan,nan,nan,nan,nan,nan,nan,nan,nan,nan,0.0,nan,nan,nan,nan,nan,nan,nan,nan,nan,nan,nan,nan,nan,nan,nan,nan,nan,nan,791.7600299009355,919.8968618597137,nan,920.5250441400567,nan,nan,nan,nan
1,89,1,1,1.0,1.0,0.6993525748839602,0,0.0,0.0,0.0,0.5739359968861977,0.11877883618867166,0.455157160697526,0.6927148330748694,0.11877883618867166,0.6521777887052546,4,2,1,3,8,0,nan,nan,nan,nan,nan,nan,nan,nan,nan,nan,nan,nan,0.0,nan,nan,nan,nan,nan,nan,nan,nan,nan,nan,nan,nan,nan,nan,nan,nan,nan,nan,791.7600299009355,920.9136645790422,nan,921.6130171539262,nan,nan,nan,nan
1,90,1,1,1.0,1.0,0.6505549256689847,0,0.0,0.0,0.0,0.5755439017323228,0.11885540549722375,0.4566884962350991,0.6943993072295466,0.11885540549722375,0.6593632602986569,6,1,8,7,0,3,nan,nan,nan,nan,nan,nan,nan,nan,nan,nan,nan,nan,0.0,nan,nan,nan,nan,nan,nan,nan,nan,nan,nan,nan,nan,nan,nan,nan,nan,nan,nan,791.7600299009355,921.9304624517681,nan,922.5810173774371,nan,nan,nan,nan
1,91,0,0,0.0,1.0,0.6417135199299082,0,0.0,0.0,0.0,0.5764934083644324,0.11839810599153604,0.45809530237289636,0.6948915143559684,0.11839810599153604,0.6638736734942844,1,5,7,4,3,8,nan,nan,nan,nan,nan,nan,nan,nan,nan,nan,nan,nan,0.0,nan,nan,nan,nan,nan,nan,nan,nan,nan,nan,nan,nan,nan,nan,nan,nan,nan,nan,791.7600299009355,922.9472691625124,nan,923.5889826824423,nan,nan,nan,nan
1,92,1,1,1.0,1.0,0.5608964225975797,0,0.0,0.0,0.0,0.5773086597590009,0.11787871419673077,0.4594299455622701,0.6951873739557317,0.11787871419673077,0.6177216227321575,2,4,1,8,7,0,nan,nan,nan,nan,nan,nan,nan,nan,nan,nan,nan,nan,0.0,nan,nan,nan,nan,nan,nan,nan,nan,nan,nan,nan,nan,nan,nan,nan,nan,nan,nan,791.7600299009355,923.9640601929277,nan,924.5249566155253,nan,nan,nan,nan
1,93,1,1,1.0,1.0,0.4880708589917049,0,0.0,0.0,0.0,0.5771060395471315,0.11716282523240863,0.45994321431472285,0.6942688647795401,0.11716282523240863,0.5635602671730643,7,1,8,4,5,2,nan,nan,nan,nan,nan,nan,nan,nan,nan,nan,nan,nan,0.0,nan,nan,nan,nan,nan,nan,nan,nan,nan,nan,nan,nan,nan,nan,nan,nan,nan,nan,791.7600299009355,924.9808583507547,nan,925.4689292097464,nan,nan,nan,nan
1,94,1,1,1.0,1.0,0.4472596117993817,0,0.0,0.0,0.0,0.5760202446623092,0.1168555459283037,0.45916469873400545,0.6928757905906129,0.1168555459283037,0.4987422977962221,5,8,2,3,0,6,nan,nan,nan,nan,nan,nan,nan,nan,nan,nan,nan,nan,0.0,nan,nan,nan,nan,nan,nan,nan,nan,nan,nan,nan,nan,nan,nan,nan,nan,nan,nan,791.7600299009355,925.9976533725858,nan,926.4449129843852,nan,nan,nan,nan
1,95,1,1,1.0,1.0,0.5824274637270719,0,0.0,0.0,0.0,0.5744689117362498,0.11699590541339348,0.4574730063228563,0.6914648171496433,0.11699590541339348,0.5059193115060528,6,2,0,8,5,1,nan,nan,nan,nan,nan,nan,nan,nan,nan,nan,nan,nan,0.0,nan,nan,nan,nan,nan,nan,nan,nan,nan,nan,nan,nan,nan,nan,nan,nan,nan,nan,791.7600299009355,927.0144683510298,nan,927.5968958147569,nan,nan,nan,nan
1,96,1,1,1.0,1.0,0.5656007962534204,0,0.0,0.0,0.0,0.5745636564028073,0.11630061933513962,0.45826303706766763,0.6908642757379468,0.11630061933513962,0.5317626239266247,3,0,5,4,7,8,nan,nan,nan,nan,nan,nan,nan,nan,nan,nan,nan,nan,0.0,nan,nan,nan,nan,nan,nan,nan,nan,nan,nan,nan,nan,nan,nan,nan,nan,nan,nan,791.7600299009355,928.0312573857373,nan,928.5968581819907,nan,nan,nan,nan
1,97,0,0,0.0,1.0,0.5487900942098349,0,0.0,0.0,0.0,0.5744582109892851,0.11561851310233073,0.45883969788695433,0.6900767240916158,0.11561851310233073,0.5656061180634424,4,3,0,6,1,7,nan,nan,nan,nan,nan,nan,nan,nan,nan,nan,nan,nan,0.0,nan,nan,nan,nan,nan,nan,nan,nan,nan,nan,nan,nan,nan,nan,nan,nan,nan,nan,791.7600299009355,929.0480566839688,nan,929.5968467781786,nan,nan,nan,nan
1,98,1,1,1.0,1.0,0.4759588286979124,0,0.0,0.0,0.0,0.5741597445151054,0.11497727984694155,0.45918246466816387,0.6891370243620469,0.11497727984694155,0.5301165730537226,0,4,5,1,8,6,nan,nan,nan,nan,nan,nan,nan,nan,nan,nan,nan,nan,0.0,nan,nan,nan,nan,nan,nan,nan,nan,nan,nan,nan,nan,nan,nan,nan,nan,nan,nan,791.7600299009355,930.0648616841063,nan,930.5408205128042,nan,nan,nan,nan
1,99,1,1,1.0,1.0,0.5231416925089434,0,0.0,0.0,0.0,0.5730309983562871,0.11479282766888421,0.4582381706874029,0.6878238260251713,0.11479282766888421,0.5159635384722302,5,7,6,4,2,1,nan,nan,nan,nan,nan,nan,nan,nan,nan,nan,nan,nan,0.0,nan,nan,nan,nan,nan,nan,nan,nan,nan,nan,nan,nan,nan,nan,nan,nan,nan,nan,791.7600299009355,931.081653569825,nan,931.6047952623339,nan,nan,nan,nan
1,100,1,1,1.0,1.0,0.586325014824979,0,0.0,0.0,0.0,0.5724640744262036,0.1142611579554193,0.4582029164707843,0.6867252323816229,0.1142611579554193,0.5284751786772782,1,3,7,0,6,5,nan,nan,nan,nan,nan,nan,nan,nan,nan,nan,nan,nan,0.0,nan,nan,nan,nan,nan,nan,nan,nan,nan,nan,nan,nan,nan,nan,nan,nan,nan,nan,791.7600299009355,932.098451727652,nan,932.684776742477,nan,nan,nan,nan
1,101,1,1,1.0,1.0,0.5534938976634294,0,0.0,0.0,0.0,0.5726198153295606,0.11362682080107117,0.45899299452848946,0.6862466361306319,0.11362682080107117,0.5543202016657839,7,5,3,6,4,1,nan,nan,nan,nan,nan,nan,nan,nan,nan,nan,nan,nan,0.0,nan,nan,nan,nan,nan,nan,nan,nan,nan,nan,nan,nan,nan,nan,nan,nan,nan,nan,791.7600299009355,933.1152544469805,nan,933.668748344644,nan,nan,nan,nan
1,102,1,1,1.0,1.0,0.5686652961885557,0,0.0,0.0,0.0,0.5724073051332703,0.11301158142966204,0.45939572370360826,0.6854188865629324,0.11301158142966204,0.5694947362256547,4,2,0,7,6,3,nan,nan,nan,nan,nan,nan,nan,nan,nan,nan,nan,nan,0.0,nan,nan,nan,nan,nan,nan,nan,nan,nan,nan,nan,nan,nan,nan,nan,nan,nan,nan,791.7600299009355,934.1320520346053,nan,934.7007173307939,nan,nan,nan,nan
1,103,1,1,1.0,1.0,0.5838187334593385,0,0.0,0.0,0.0,0.5723661841558558,0.11238960039033662,0.4599765837655192,0.6847557845461925,0.11238960039033662,0.5686593091037745,1,8,4,3,2,7,nan,nan,nan,nan,nan,nan,nan,nan,nan,nan,nan,nan,0.0,nan,nan,nan,nan,nan,nan,nan,nan,nan,nan,nan,nan,nan,nan,nan,nan,nan,nan,791.7600299009355,935.1488935271045,nan,935.7327122605639,nan,nan,nan,nan
1,104,1,1,1.0,1.0,0.5750206622760743,0,0.0,0.0,0.0,0.5724906683874155,0.11178342620066173,0.46070724218675374,0.6842740945880772,0.11178342620066173,0.5758348973079895,7,6,1,4,8,2,nan,nan,nan,nan,nan,nan,nan,nan,nan,nan,nan,nan,0.0,nan,nan,nan,nan,nan,nan,nan,nan,nan,nan,nan,nan,nan,nan,nan,nan,nan,nan,791.7600299009355,936.165652341675,nan,936.7406730039511,nan,nan,nan,nan
1,105,0,0,0.0,1.0,0.5342114109080285,0,0.0,0.0,0.0,0.5725178726227774,0.11118112193614506,0.4613367506866324,0.6836989945589225,0.11118112193614506,0.5643502688811471,0,8,2,1,5,3,nan,nan,nan,nan,nan,nan,nan,nan,nan,nan,nan,nan,0.0,nan,nan,nan,nan,nan,nan,nan,nan,nan,nan,nan,nan,nan,nan,nan,nan,nan,nan,791.7600299009355,937.1824519248912,nan,937.7166633357992,nan,nan,nan,nan
1,106,1,1,1.0,1.0,0.5253811238799244,0,0.0,0.0,0.0,0.5721103570726205,0.11065795819433187,0.4614523988782886,0.6827683152669524,0.11065795819433187,0.544871065688009,6,4,7,0,3,2,nan,nan,nan,nan,nan,nan,nan,nan,nan,nan,nan,nan,0.0,nan,nan,nan,nan,nan,nan,nan,nan,nan,nan,nan,nan,nan,nan,nan,nan,nan,nan,791.7600299009355,938.1992586356355,nan,938.7246397595154,nan,nan,nan,nan
1,107,1,1,1.0,1.0,0.5642115219961852,0,0.0,0.0,0.0,0.5716184704074342,0.11017726886830652,0.46144120153912765,0.6817957392757407,0.11017726886830652,0.541268018928046,8,1,3,4,0,5,nan,nan,nan,nan,nan,nan,nan,nan,nan,nan,nan,nan,0.0,nan,nan,nan,nan,nan,nan,nan,nan,nan,nan,nan,nan,nan,nan,nan,nan,nan,nan,791.7600299009355,939.2243961447384,nan,939.7886076667346,nan,nan,nan,nan
1,108,1,1,1.0,1.0,0.6593960463069379,0,0.0,0.0,0.0,0.5715413146948171,0.10960450663863665,0.4619368080561804,0.6811458213334537,0.10960450663863665,0.5829962307276825,4,0,2,6,7,8,nan,nan,nan,nan,nan,nan,nan,nan,nan,nan,nan,nan,0.0,nan,nan,nan,nan,nan,nan,nan,nan,nan,nan,nan,nan,nan,nan,nan,nan,nan,nan,791.7600299009355,940.2411928770598,nan,940.9005889233667,nan,nan,nan,nan
1,109,1,1,1.0,1.0,0.7305717576527968,0,0.0,0.0,0.0,0.5724470335774162,0.10939859392531974,0.46304843965209647,0.6818456275027359,0.10939859392531974,0.6513931086519733,2,3,4,8,5,7,nan,nan,nan,nan,nan,nan,nan,nan,nan,nan,nan,nan,0.0,nan,nan,nan,nan,nan,nan,nan,nan,nan,nan,nan,nan,nan,nan,nan,nan,nan,nan,791.7600299009355,941.2579719334608,nan,941.9885436911136,nan,nan,nan,nan
1,110,1,1,1.0,1.0,0.6977292366791517,1,0.0,1.0,1.0,0.5740605511700221,0.10999301320877033,0.4640675379612518,0.6840535643787924,0.10999301320877033,0.6958990135462955,6,1,2,0,4,5,1.0,1.0,1.0,1.0,1.0,1.0,1.0,1.0,1.0,0.0,0.0,0.0,3.0,6.0,1.0,2.0,7.0,5.0,3.0,3.0,2.0,1.0,6.0,5.0,4.0,3.6636320067336783,2.7282989701488987,1.7599395252764225,8.357845721184276,7.613687700359151,5.143279696232639,791.7600299009355,942.2747926138109,943.0831999320071,942.97252185049,952.4844250477618,953.486003340804,944.0916789805051,952.4760971004143
1,111,1,1,1.0,1.0,0.5026712096296251,0,0.0,0.0,0.0,0.5753097298115285,0.11013255690991165,0.46517717290161686,0.6854422867214401,0.11013255690991165,0.6436574013205245,1,4,8,2,6,0,nan,nan,nan,nan,nan,nan,nan,nan,nan,nan,nan,nan,0.0,nan,nan,nan,nan,nan,nan,nan,nan,nan,nan,nan,nan,nan,nan,nan,nan,nan,nan,791.7600299009355,953.7095972244861,nan,954.2122684341157,nan,nan,nan,nan
1,112,1,1,1.0,1.0,0.5018546938663349,0,0.0,0.0,0.0,0.5745833446097095,0.10981859679162051,0.46476474781808896,0.68440194140133,0.10981859679162051,0.5674183800583705,2,7,6,3,5,4,nan,nan,nan,nan,nan,nan,nan,nan,nan,nan,nan,nan,0.0,nan,nan,nan,nan,nan,nan,nan,nan,nan,nan,nan,nan,nan,nan,nan,nan,nan,nan,791.7600299009355,954.7264016544214,nan,955.2282563482877,nan,nan,nan,nan
1,113,1,1,1.0,1.0,0.5250093583017588,0,0.0,0.0,0.0,0.573863258958785,0.10951059019764962,0.46435266876113535,0.6833738491564346,0.10951059019764962,0.5098450872659063,3,1,2,5,6,0,nan,nan,nan,nan,nan,nan,nan,nan,nan,nan,nan,nan,0.0,nan,nan,nan,nan,nan,nan,nan,nan,nan,nan,nan,nan,nan,nan,nan,nan,nan,nan,791.7600299009355,955.7432060843566,nan,956.2682154426584,nan,nan,nan,nan
1,114,1,1,1.0,1.0,0.588175289798528,0,0.0,0.0,0.0,0.5733842991484219,0.1090787092354265,0.4643055899129954,0.6824630083838484,0.1090787092354265,0.5383464473222072,2,7,8,1,5,4,nan,nan,nan,nan,nan,nan,nan,nan,nan,nan,nan,nan,0.0,nan,nan,nan,nan,nan,nan,nan,nan,nan,nan,nan,nan,nan,nan,nan,nan,nan,nan,791.7600299009355,956.7600244840141,nan,957.3481997738127,nan,nan,nan,nan
1,115,1,1,1.0,1.0,0.515347445383668,0,0.0,0.0,0.0,0.5735279009993939,0.10855759778763154,0.46497030321176236,0.6820854987870254,0.10855759778763154,0.5428440311613182,5,0,3,7,4,6,nan,nan,nan,nan,nan,nan,nan,nan,nan,nan,nan,nan,0.0,nan,nan,nan,nan,nan,nan,nan,nan,nan,nan,nan,nan,nan,nan,nan,nan,nan,nan,791.7600299009355,957.7768240673468,nan,958.2921715127304,nan,nan,nan,nan
1,116,1,1,1.0,1.0,0.5465478119440377,0,0.0,0.0,0.0,0.5729684735415503,0.10818351029285903,0.46478496324869134,0.6811519838344093,0.10818351029285903,0.5500235157087445,3,8,4,0,7,1,nan,nan,nan,nan,nan,nan,nan,nan,nan,nan,nan,nan,0.0,nan,nan,nan,nan,nan,nan,nan,nan,nan,nan,nan,nan,nan,nan,nan,nan,nan,nan,791.7600299009355,958.7936048343545,nan,959.3401526462985,nan,nan,nan,nan
1,117,1,1,1.0,1.0,0.5697238584980369,0,0.0,0.0,0.0,0.5727168481930026,0.10769769333766849,0.4650191548553341,0.680414541530671,0.10769769333766849,0.5438730386085808,8,4,5,3,2,0,nan,nan,nan,nan,nan,nan,nan,nan,nan,nan,nan,nan,0.0,nan,nan,nan,nan,nan,nan,nan,nan,nan,nan,nan,nan,nan,nan,nan,nan,nan,nan,791.7600299009355,959.8104035623837,nan,960.3801274208818,nan,nan,nan,nan
1,118,1,1,1.0,1.0,0.5208957041613758,0,0.0,0.0,0.0,0.5726886124411633,0.10718887202234145,0.46549974041882186,0.6798774844635047,0.10718887202234145,0.5457224582011501,1,5,8,2,0,4,nan,nan,nan,nan,nan,nan,nan,nan,nan,nan,nan,nan,0.0,nan,nan,nan,nan,nan,nan,nan,nan,nan,nan,nan,nan,nan,nan,nan,nan,nan,nan,791.7600299009355,960.827208847506,nan,961.3481045516673,nan,nan,nan,nan
1,119,1,1,1.0,1.0,0.46406062063761055,0,0.0,0.0,0.0,0.5722045665693896,0.1068031462599396,0.46540142030945,0.6790077128293291,0.1068031462599396,0.5182267277656744,3,6,4,8,7,0,nan,nan,nan,nan,nan,nan,nan,nan,nan,nan,nan,nan,0.0,nan,nan,nan,nan,nan,nan,nan,nan,nan,nan,nan,nan,nan,nan,nan,nan,nan,nan,791.7600299009355,961.8440204048529,nan,962.3080810254905,nan,nan,nan,nan
1,120,1,1,1.0,1.0,0.4392466958379373,0,0.0,0.0,0.0,0.5712032337366879,0.10681094471668917,0.46439228901999874,0.6780141784533771,0.10681094471668917,0.47473434021230787,0,3,8,4,6,1,nan,nan,nan,nan,nan,nan,nan,nan,nan,nan,nan,nan,0.0,nan,nan,nan,nan,nan,nan,nan,nan,nan,nan,nan,nan,nan,nan,nan,nan,nan,nan,791.7600299009355,962.8608125756728,nan,963.3000592715107,nan,nan,nan,nan
1,121,1,1,1.0,1.0,0.4544246514560655,1,1.0,0.0,1.0,0.5699926232972499,0.1070616385245943,0.4629309847726556,0.6770542618218441,0.1070616385245943,0.4525773226438711,4,0,2,1,8,7,1.0,1.0,1.0,1.0,1.0,1.0,1.0,1.0,0.0,0.0,0.0,0.0,2.0,4.0,0.0,1.0,5.0,4.0,5.0,2.0,1.0,6.0,3.0,4.0,5.0,2.8354843372944742,1.8052444601198658,9.44236593414098,4.7244598637335,5.275269009754993,6.426975011592731,791.7600299009355,963.8776187162148,964.6860214729095,964.3320433676708,975.1790495859459,976.183476560982,965.6944865515688,975.1707185024861
1,122,1,1,1.0,1.0,0.47150448441971093,0,0.0,0.0,0.0,0.5689420053714209,0.10713685948703201,0.4618051458843889,0.6760788648584529,0.10713685948703201,0.4550586105712379,2,7,1,6,3,4,nan,nan,nan,nan,nan,nan,nan,nan,nan,nan,nan,nan,0.0,nan,nan,nan,nan,nan,nan,nan,nan,nan,nan,nan,nan,nan,nan,nan,nan,nan,nan,791.7600299009355,976.4042351621902,nan,976.8757396466099,nan,nan,nan,nan
1,123,1,1,1.0,1.0,0.5026791922282428,0,0.0,0.0,0.0,0.5680641898673514,0.10704980195749803,0.4610143879098534,0.6751139918248494,0.10704980195749803,0.47620277603467304,8,3,7,2,0,1,nan,nan,nan,nan,nan,nan,nan,nan,nan,nan,nan,nan,0.0,nan,nan,nan,nan,nan,nan,nan,nan,nan,nan,nan,nan,nan,nan,nan,nan,nan,nan,791.7600299009355,977.42104329844,nan,977.9237224906683,nan,nan,nan,nan
1,124,0,0,0.0,1.0,0.7018485928419977,0,0.0,0.0,0.0,0.5674803952455737,0.10674817234596326,0.46073222289961047,0.6742285675915369,0.10674817234596326,0.5586774231633171,1,5,4,6,7,8,nan,nan,nan,nan,nan,nan,nan,nan,nan,nan,nan,nan,0.0,nan,nan,nan,nan,nan,nan,nan,nan,nan,nan,nan,nan,nan,nan,nan,nan,nan,nan,791.7600299009355,978.4378374648513,nan,979.1396860576933,nan,nan,nan,nan
1,125,1,1,1.0,1.0,0.6130259919445962,0,0.0,0.0,0.0,0.5686694943393473,0.10701725660755024,0.4616522377317971,0.6756867509468976,0.10701725660755024,0.6058512590049455,5,4,1,8,2,3,nan,nan,nan,nan,nan,nan,nan,nan,nan,nan,nan,nan,0.0,nan,nan,nan,nan,nan,nan,nan,nan,nan,nan,nan,nan,nan,nan,nan,nan,nan,nan,791.7600299009355,979.4546393289929,nan,980.0676653209375,nan,nan,nan,nan
1,126,1,1,1.0,1.0,0.48421578702982515,0,0.0,0.0,0.0,0.569058586423604,0.10662709955777462,0.46243148686582936,0.6756856859813786,0.10662709955777462,0.599696790605473,3,0,2,1,5,6,nan,nan,nan,nan,nan,nan,nan,nan,nan,nan,nan,nan,0.0,nan,nan,nan,nan,nan,nan,nan,nan,nan,nan,nan,nan,nan,nan,nan,nan,nan,nan,791.7600299009355,980.471432070015,nan,980.9556478570448,nan,nan,nan,nan
1,127,1,1,1.0,1.0,0.5153896396514028,0,0.0,0.0,0.0,0.5683208229506146,0.10645432904148805,0.46186649390912654,0.6747751519921026,0.10645432904148805,0.5375438062086081,1,5,3,8,2,7,nan,nan,nan,nan,nan,nan,nan,nan,nan,nan,nan,nan,0.0,nan,nan,nan,nan,nan,nan,nan,nan,nan,nan,nan,nan,nan,nan,nan,nan,nan,nan,791.7600299009355,981.4882325085346,nan,982.003622148186,nan,nan,nan,nan
1,128,1,1,1.0,1.0,0.5385554227977991,0,0.0,0.0,0.0,0.567864519646311,0.1061073723117969,0.4617571473345141,0.6739718919581079,0.1061073723117969,0.5127202831596757,5,7,0,6,1,2,nan,nan,nan,nan,nan,nan,nan,nan,nan,nan,nan,nan,0.0,nan,nan,nan,nan,nan,nan,nan,nan,nan,nan,nan,nan,nan,nan,nan,nan,nan,nan,791.7600299009355,982.5050480572972,nan,983.043603480095,nan,nan,nan,nan
1,129,1,1,1.0,1.0,0.513712988467887,0,0.0,0.0,0.0,0.5676140145450417,0.10568739254449173,0.46192662200054996,0.6733014070895335,0.10568739254449173,0.5225526836390296,8,1,3,7,0,4,nan,nan,nan,nan,nan,nan,nan,nan,nan,nan,nan,nan,0.0,nan,nan,nan,nan,nan,nan,nan,nan,nan,nan,nan,nan,nan,nan,nan,nan,nan,nan,791.7600299009355,983.5218644612469,nan,984.0355774497148,nan,nan,nan,nan
1,130,1,1,1.0,1.0,0.5049169129924849,0,0.0,0.0,0.0,0.5671572261884555,0.10535453533169252,0.461802690856763,0.672511761520148,0.10535453533169252,0.5190617747527236,4,5,1,6,2,7,nan,nan,nan,nan,nan,nan,nan,nan,nan,nan,nan,nan,0.0,nan,nan,nan,nan,nan,nan,nan,nan,nan,nan,nan,nan,nan,nan,nan,nan,nan,nan,791.7600299009355,984.5386321137194,nan,985.0435490267118,nan,nan,nan,nan
1,131,1,1,1.0,1.0,0.5521094701252878,0,0.0,0.0,0.0,0.5666341983464727,0.10506466679077549,0.4615695315556972,0.6716988651372482,0.10506466679077549,0.5235797905285532,3,0,2,8,4,1,nan,nan,nan,nan,nan,nan,nan,nan,nan,nan,nan,nan,0.0,nan,nan,nan,nan,nan,nan,nan,nan,nan,nan,nan,nan,nan,nan,nan,nan,nan,nan,791.7600299009355,985.5554359734524,nan,986.1075454435777,nan,nan,nan,nan
1,132,1,1,1.0,1.0,0.5592679525725543,0,0.0,0.0,0.0,0.5665131589446294,0.10463431282329698,0.4618788461213324,0.6711474717679263,0.10463431282329698,0.5387647785634423,1,3,8,5,7,4,nan,nan,nan,nan,nan,nan,nan,nan,nan,nan,nan,nan,0.0,nan,nan,nan,nan,nan,nan,nan,nan,nan,nan,nan,nan,nan,nan,nan,nan,nan,nan,791.7600299009355,986.5722295697778,nan,987.1314975223504,nan,nan,nan,nan
1,133,0,0,0.0,1.0,0.5181134495651349,0,0.0,0.0,0.0,0.5664532812060172,0.10420310704228716,0.46225017416373004,0.6706563882483044,0.10420310704228716,0.5431636240876591,3,6,4,1,5,2,nan,nan,nan,nan,nan,nan,nan,nan,nan,nan,nan,nan,0.0,nan,nan,nan,nan,nan,nan,nan,nan,nan,nan,nan,nan,nan,nan,nan,nan,nan,nan,791.7600299009355,987.5973639427684,nan,988.1154773923336,nan,nan,nan,nan
1,134,1,1,1.0,1.0,0.461299178074114,0,0.0,0.0,0.0,0.5660570530778133,0.10386665376744662,0.46219039931036665,0.6699237068452599,0.10386665376744662,0.5128935267372677,5,1,8,6,4,3,nan,nan,nan,nan,nan,nan,nan,nan,nan,nan,nan,nan,0.0,nan,nan,nan,nan,nan,nan,nan,nan,nan,nan,nan,nan,nan,nan,nan,nan,nan,nan,791.7600299009355,988.6141618154943,nan,989.0754609935684,nan,nan,nan,nan
1,135,1,1,1.0,1.0,0.636466322815977,0,0.0,0.0,0.0,0.5652053630371329,0.10387043862379931,0.46133492441333357,0.6690758016609322,0.10387043862379931,0.5386263168184087,4,6,7,0,2,5,nan,nan,nan,nan,nan,nan,nan,nan,nan,nan,nan,nan,0.0,nan,nan,nan,nan,nan,nan,nan,nan,nan,nan,nan,nan,nan,nan,nan,nan,nan,nan,791.7600299009355,989.6309565522242,nan,990.2674228750402,nan,nan,nan,nan
1,136,0,0,0.0,1.0,0.6356532282661647,0,0.0,0.0,0.0,0.5657800481966396,0.10364690907036882,0.4621331391262708,0.6694269572670084,0.10364690907036882,0.5778062430520853,1,3,2,7,5,8,nan,nan,nan,nan,nan,nan,nan,nan,nan,nan,nan,nan,0.0,nan,nan,nan,nan,nan,nan,nan,nan,nan,nan,nan,nan,nan,nan,nan,nan,nan,nan,791.7600299009355,990.647757560946,nan,991.2834107892122,nan,nan,nan,nan
1,137,1,1,1.0,1.0,0.4748346940614283,0,0.0,0.0,0.0,0.5663390336371958,0.10341898245188862,0.4629200511853072,0.6697580160890845,0.10341898245188862,0.5823180817145234,2,8,4,6,7,3,nan,nan,nan,nan,nan,nan,nan,nan,nan,nan,nan,nan,0.0,nan,nan,nan,nan,nan,nan,nan,nan,nan,nan,nan,nan,nan,nan,nan,nan,nan,nan,791.7600299009355,991.6645656971959,nan,992.1394003912574,nan,nan,nan,nan
1,138,1,1,1.0,1.0,0.4660004157340154,0,0.0,0.0,0.0,0.5656128087199278,0.10332727834997116,0.4622855303699567,0.6689400870698989,0.10332727834997116,0.5254961126872028,3,1,0,8,2,5,nan,nan,nan,nan,nan,nan,nan,nan,nan,nan,nan,nan,0.0,nan,nan,nan,nan,nan,nan,nan,nan,nan,nan,nan,nan,nan,nan,nan,nan,nan,nan,791.7600299009355,992.6813587232027,nan,993.1473591389367,nan,nan,nan,nan
1,139,1,1,1.0,1.0,0.4811988982837647,0,0.0,0.0,0.0,0.5648284591688576,0.10329557127632608,0.46153288789253155,0.6681240304451836,0.10329557127632608,0.47401133602640283,1,8,6,3,4,0,nan,nan,nan,nan,nan,nan,nan,nan,nan,nan,nan,nan,0.0,nan,nan,nan,nan,nan,nan,nan,nan,nan,nan,nan,nan,nan,nan,nan,nan,nan,nan,791.7600299009355,993.6981537450338,nan,994.1793526433175,nan,nan,nan,nan
1,140,0,0,0.0,1.0,0.6003959416411817,0,0.0,0.0,0.0,0.5641751032244429,0.10315439332381393,0.46102070990062893,0.6673294965482568,0.10315439332381393,0.5158650852196539,8,7,5,0,3,4,nan,nan,nan,nan,nan,nan,nan,nan,nan,nan,nan,nan,0.0,nan,nan,nan,nan,nan,nan,nan,nan,nan,nan,nan,nan,nan,nan,nan,nan,nan,nan,791.7600299009355,994.7149325163336,nan,995.3153284579748,nan,nan,nan,nan
1,141,1,1,1.0,1.0,0.5111764868488535,0,0.0,0.0,0.0,0.5644558849175959,0.10280288481623985,0.46165300010135607,0.6672587697338358,0.10280288481623985,0.5309237755912667,3,2,4,7,6,1,nan,nan,nan,nan,nan,nan,nan,nan,nan,nan,nan,nan,0.0,nan,nan,nan,nan,nan,nan,nan,nan,nan,nan,nan,nan,nan,nan,nan,nan,nan,nan,791.7600299009355,995.7401073729852,nan,996.2512838598341,nan,nan,nan,nan
1,142,0,0,0.0,1.0,0.558384154108353,0,0.0,0.0,0.0,0.5640460433939901,0.10251246571375094,0.46153357768023917,0.6665585091077411,0.10251246571375094,0.5566521941994628,6,1,8,5,7,3,nan,nan,nan,nan,nan,nan,nan,nan,nan,nan,nan,nan,0.0,nan,nan,nan,nan,nan,nan,nan,nan,nan,nan,nan,nan,nan,nan,nan,nan,nan,nan,791.7600299009355,996.75689156109,nan,997.3152757151984,nan,nan,nan,nan
1,143,1,1,1.0,1.0,0.42954629485029727,0,0.0,0.0,0.0,0.5640028228650922,0.10212163619071173,0.46188118667438044,0.6661244590558039,0.10212163619071173,0.4997023119358346,8,3,6,2,0,7,nan,nan,nan,nan,nan,nan,nan,nan,nan,nan,nan,nan,0.0,nan,nan,nan,nan,nan,nan,nan,nan,nan,nan,nan,nan,nan,nan,nan,nan,nan,nan,791.7600299009355,997.7737039737403,nan,998.2032502685906,nan,nan,nan,nan
1,144,1,1,1.0,1.0,0.39641440112609416,0,0.0,0.0,0.0,0.562984212804374,0.10239991946710356,0.46058429333727047,0.6653841322714776,0.10239991946710356,0.46144828336158145,4,7,3,8,6,2,nan,nan,nan,nan,nan,nan,nan,nan,nan,nan,nan,nan,0.0,nan,nan,nan,nan,nan,nan,nan,nan,nan,nan,nan,nan,nan,nan,nan,nan,nan,nan,791.7600299009355,998.7988229515031,nan,999.1952373526292,nan,nan,nan,nan
1,145,1,1,1.0,1.0,0.45158452226314694,1,1.0,0.0,1.0,0.5617318082052892,0.103024014729871,0.45870779347541824,0.6647558229351602,0.103024014729871,0.42584840607984614,2,5,6,3,7,4,1.0,1.0,1.0,1.0,1.0,1.0,1.0,1.0,1.0,0.0,0.0,1.0,4.0,2.0,5.0,6.0,0.0,1.0,4.0,3.0,2.0,1.0,6.0,5.0,4.0,4.015390352462418,2.552158791804686,1.6087261699140072,6.479618039447814,5.575362492818385,4.744853370706551,791.7600299009355,999.815623105038,1000.6240423972486,1000.2672076273011,1008.1583484600997,1009.1611629305407,1001.6408511035843,1008.1500188021455
1,146,1,1,1.0,1.0,0.4434498702175915,0,0.0,0.0,0.0,0.5609098135340792,0.10307571903048854,0.4578340945035907,0.6639855325645677,0.10307571903048854,0.43048293120227754,3,4,2,0,1,8,nan,nan,nan,nan,nan,nan,nan,nan,nan,nan,nan,nan,0.0,nan,nan,nan,nan,nan,nan,nan,nan,nan,nan,nan,nan,nan,nan,nan,nan,nan,nan,791.7600299009355,1009.3835411637556,nan,1009.8269910339732,nan,nan,nan,nan
1,147,1,1,1.0,1.0,0.5862791143590584,0,0.0,0.0,0.0,0.560039739879883,0.10318597219731583,0.45685376768256714,0.6632257120771988,0.10318597219731583,0.49377116894659895,8,6,0,4,5,7,nan,nan,nan,nan,nan,nan,nan,nan,nan,nan,nan,nan,0.0,nan,nan,nan,nan,nan,nan,nan,nan,nan,nan,nan,nan,nan,nan,nan,nan,nan,nan,791.7600299009355,1010.408682949259,nan,1010.994962063618,nan,nan,nan,nan
1,148,1,1,1.0,1.0,0.6014616315951571,0,0.0,0.0,0.0,0.5602326764569358,0.10283034993838043,0.45740232651855534,0.6630630263953162,0.10283034993838043,0.5437302053906024,0,8,4,6,3,1,nan,nan,nan,nan,nan,nan,nan,nan,nan,nan,nan,nan,0.0,nan,nan,nan,nan,nan,nan,nan,nan,nan,nan,nan,nan,nan,nan,nan,nan,nan,nan,791.7600299009355,1011.4254659969592,nan,1012.0269276285544,nan,nan,nan,nan
1,149,1,1,1.0,1.0,0.6566317528486252,0,0.0,0.0,0.0,0.560533617735317,0.10251446105418432,0.45801915668113263,0.6630480787895012,0.10251446105418432,0.6147908329342803,2,3,8,7,6,0,nan,nan,nan,nan,nan,nan,nan,nan,nan,nan,nan,nan,0.0,nan,nan,nan,nan,nan,nan,nan,nan,nan,nan,nan,nan,nan,nan,nan,nan,nan,nan,791.7600299009355,1012.442271567299,nan,1013.0989033201477,nan,nan,nan,nan
1,150,1,1,1.0,1.0,0.5998140601441264,0,0.0,0.0,0.0,0.5612299810332395,0.1024670448865679,0.45876293614667163,0.6636970259198074,0.1024670448865679,0.6193024815293029,5,2,0,4,3,8,nan,nan,nan,nan,nan,nan,nan,nan,nan,nan,nan,nan,0.0,nan,nan,nan,nan,nan,nan,nan,nan,nan,nan,nan,nan,nan,nan,nan,nan,nan,nan,791.7600299009355,1013.4590657338267,nan,1014.0588797939708,nan,nan,nan,nan
1,151,1,1,1.0,1.0,0.5590076596708968,0,0.0,0.0,0.0,0.5615075643361955,0.10214985361758848,0.45935771071860704,0.663657417953784,0.10214985361758848,0.6051511575545495,4,1,3,0,5,7,nan,nan,nan,nan,nan,nan,nan,nan,nan,nan,nan,nan,0.0,nan,nan,nan,nan,nan,nan,nan,nan,nan,nan,nan,nan,nan,nan,nan,nan,nan,nan,791.7600299009355,1014.4758664574474,nan,1015.0348741171183,nan,nan,nan,nan
1,152,1,1,1.0,1.0,0.5581862973049283,0,0.0,0.0,0.0,0.5614897078743005,0.10178459662665262,0.4597051112476479,0.6632743045009531,0.10178459662665262,0.5723360057066506,7,2,5,6,0,8,nan,nan,nan,nan,nan,nan,nan,nan,nan,nan,nan,nan,0.0,nan,nan,nan,nan,nan,nan,nan,nan,nan,nan,nan,nan,nan,nan,nan,nan,nan,nan,791.7600299009355,1015.492663759971,nan,1016.050850057276,nan,nan,nan,nan
1,153,1,1,1.0,1.0,0.5173126141307876,0,0.0,0.0,0.0,0.5614662794305461,0.10142339493258042,0.46004288449796565,0.6628896743631265,0.10142339493258042,0.5448355237022042,3,8,0,5,4,7,nan,nan,nan,nan,nan,nan,nan,nan,nan,nan,nan,nan,0.0,nan,nan,nan,nan,nan,nan,nan,nan,nan,nan,nan,nan,nan,nan,nan,nan,nan,nan,791.7600299009355,1016.509475317318,nan,1017.0267879314488,nan,nan,nan,nan
1,154,1,1,1.0,1.0,0.6525152476970106,0,0.0,0.0,0.0,0.5611553381256182,0.10113306071050383,0.4600222774151144,0.6622883988361221,0.10113306071050383,0.5760047197109088,2,5,4,0,1,6,nan,nan,nan,nan,nan,nan,nan,nan,nan,nan,nan,nan,0.0,nan,nan,nan,nan,nan,nan,nan,nan,nan,nan,nan,nan,nan,nan,nan,nan,nan,nan,791.7600299009355,1017.5262674881378,nan,1018.1787827358348,nan,nan,nan,nan
1,155,1,1,1.0,1.0,0.6677017562324181,0,0.0,0.0,0.0,0.5617942186121314,0.10106597902281704,0.46072823958931436,0.6628601976349484,0.10106597902281704,0.6125098726867387,1,4,3,8,0,7,nan,nan,nan,nan,nan,nan,nan,nan,nan,nan,nan,nan,0.0,nan,nan,nan,nan,nan,nan,nan,nan,nan,nan,nan,nan,nan,nan,nan,nan,nan,nan,791.7600299009355,1018.5430613695644,nan,1019.2107631257968,nan,nan,nan,nan
1,156,1,1,nan,nan,nan,0,0.0,0.0,0.0,0.0,0.0,0.0,0.0,0.0,0.0,0,8,7,5,6,4,nan,nan,nan,nan,nan,nan,nan,nan,nan,nan,nan,nan,0.0,nan,nan,nan,nan,nan,nan,nan,nan,nan,nan,nan,nan,nan,nan,nan,nan,nan,nan,791.7600299009355,1019.5682065761648,nan,nan,nan,nan,nan,nan
1,157,1,1,1.0,1.0,0.7377205468947068,1,0.0,1.0,1.0,0.5625296876233834,0.10109772525253054,0.4614319623708529,0.663627412875914,0.10109772525253054,0.7027111515635625,6,1,4,0,8,5,1.0,1.0,1.0,1.0,1.0,1.0,1.0,1.0,1.0,0.0,0.0,1.0,4.0,6.0,1.0,4.0,4.0,3.0,5.0,3.0,2.0,1.0,6.0,5.0,4.0,3.7112827136879787,2.582952325930819,1.5433145350543782,6.374175465898588,5.869960174895823,4.8141046821838245,791.7600299009355,1020.5850030235015,1021.3934151883004,1021.3227235703962,1028.8110518712783,1029.8150785710895,1022.4018873943714,1028.802716511418
1,158,1,1,1.0,1.0,0.42224840039853007,0,0.0,0.0,0.0,0.5637379004459443,0.10178639488748377,0.46195150555846054,0.665524295333428,0.10178639488748377,0.5799844736466184,3,5,2,6,1,8,nan,nan,nan,nan,nan,nan,nan,nan,nan,nan,nan,nan,0.0,nan,nan,nan,nan,nan,nan,nan,nan,nan,nan,nan,nan,nan,nan,nan,nan,nan,nan,791.7600299009355,1030.0362536980538,nan,1030.4585020984523,nan,nan,nan,nan
1,159,1,1,1.0,1.0,0.5094590667868033,0,0.0,0.0,0.0,0.5627687942812359,0.10210625465474923,0.46066253962648673,0.6648750489359851,0.10210625465474923,0.5564760046933467,0,4,3,7,5,2,nan,nan,nan,nan,nan,nan,nan,nan,nan,nan,nan,nan,0.0,nan,nan,nan,nan,nan,nan,nan,nan,nan,nan,nan,nan,nan,nan,nan,nan,nan,nan,791.7600299009355,1031.0530264823465,nan,1031.5624855491333,nan,nan,nan,nan
1,160,1,1,1.0,1.0,0.3646350040799007,1,1.0,0.0,1.0,0.5624061430737909,0.10185266573988266,0.4605534773339082,0.6642588088136736,0.10185266573988266,0.43211415708841133,5,3,8,4,2,6,1.0,1.0,1.0,1.0,1.0,1.0,0.0,1.0,0.0,0.0,0.0,0.0,1.0,2.0,3.0,4.0,1.0,3.0,8.0,3.0,2.0,1.0,6.0,5.0,4.0,3.466244743205607,2.5289699158165604,1.529408393893391,7.048596371314488,5.944460679078475,4.921335949795321,791.7600299009355,1032.0698283463717,1032.8782553361962,1032.4344633504516,1040.979294597637,1041.982809264562,1033.8950660382397,1040.9709703564877
1,161,1,1,1.0,1.0,0.6057107064407319,0,0.0,0.0,0.0,0.5610698515941024,0.10279282742369296,0.45827702417040944,0.6638626790177954,0.10279282742369296,0.4932682591024786,1,6,5,0,3,8,nan,nan,nan,nan,nan,nan,nan,nan,nan,nan,nan,nan,0.0,nan,nan,nan,nan,nan,nan,nan,nan,nan,nan,nan,nan,nan,nan,nan,nan,nan,nan,791.7600299009355,1042.2045092538465,nan,1042.8102199602872,nan,nan,nan,nan
1,162,1,1,1.0,1.0,0.48490828601643443,0,0.0,0.0,0.0,0.5613694546467644,0.10251212094347464,0.45885733370328974,0.663881575590239,0.10251212094347464,0.4850846655123557,7,4,0,5,2,6,nan,nan,nan,nan,nan,nan,nan,nan,nan,nan,nan,nan,0.0,nan,nan,nan,nan,nan,nan,nan,nan,nan,nan,nan,nan,nan,nan,nan,nan,nan,nan,791.7600299009355,1043.221288310131,nan,1043.7061965961475,nan,nan,nan,nan
1,163,1,1,1.0,1.0,0.3720469371182844,0,0.0,0.0,0.0,0.5608597135225621,0.10235913380561491,0.45850057971694724,0.663218847328177,0.10235913380561491,0.48755530985848355,0,3,4,2,5,8,nan,nan,nan,nan,nan,nan,nan,nan,nan,nan,nan,nan,0.0,nan,nan,nan,nan,nan,nan,nan,nan,nan,nan,nan,nan,nan,nan,nan,nan,nan,nan,791.7600299009355,1044.2381221050164,nan,1044.6101690421347,nan,nan,nan,nan
1,164,1,1,1.0,1.0,0.4672776469960809,1,1.0,0.0,1.0,0.5596092977847854,0.10316267007609936,0.45644662770868605,0.6627719678608848,0.10316267007609936,0.4414109567102666,4,5,3,1,6,0,1.0,1.0,1.0,1.0,1.0,1.0,0.0,0.0,1.0,0.0,0.0,0.0,1.0,8.0,2.0,3.0,4.0,5.0,6.0,3.0,2.0,1.0,6.0,5.0,4.0,3.895685267401859,2.3926220504799858,1.4484096901724115,7.663178133545443,6.550961102358997,5.56008674914483,791.7600299009355,1045.2548786387779,1046.0633036328945,1045.722156285774,1054.7811036476633,1055.7885281249182,1047.0801043566316,1054.7727682876866
1,165,1,1,1.0,1.0,0.4595988638466224,0,0.0,0.0,0.0,0.5590018527138071,0.10309334229910769,0.4559085104146994,0.6620951950129148,0.10309334229910769,0.43297448265366256,7,6,8,4,5,2,nan,nan,nan,nan,nan,nan,nan,nan,nan,nan,nan,nan,0.0,nan,nan,nan,nan,nan,nan,nan,nan,nan,nan,nan,nan,nan,nan,nan,nan,nan,nan,791.7600299009355,1056.0062812411925,nan,1056.465880105039,nan,nan,nan,nan
1,166,1,1,1.0,1.0,0.45077199791558087,0,0.0,0.0,0.0,0.5583521599761131,0.1030676036537802,0.4552845563223329,0.6614197636298933,0.1030676036537802,0.45921616958609474,6,3,5,8,1,4,nan,nan,nan,nan,nan,nan,nan,nan,nan,nan,nan,nan,0.0,nan,nan,nan,nan,nan,nan,nan,nan,nan,nan,nan,nan,nan,nan,nan,nan,nan,nan,791.7600299009355,1057.0230796841206,nan,1057.4738516820362,nan,nan,nan,nan
1,167,1,1,1.0,1.0,0.47397028212435544,0,0.0,0.0,0.0,0.5576535874952006,0.1030951763624327,0.45455841113276785,0.6607487638576333,0.1030951763624327,0.4614470479621862,1,5,2,3,8,0,nan,nan,nan,nan,nan,nan,nan,nan,nan,nan,nan,nan,0.0,nan,nan,nan,nan,nan,nan,nan,nan,nan,nan,nan,nan,nan,nan,nan,nan,nan,nan,791.7600299009355,1058.0398852544604,nan,1058.5138555365847,nan,nan,nan,nan
1,168,1,1,1.0,1.0,0.5531603349372745,0,0.0,0.0,0.0,0.5571136952024854,0.10298025133453319,0.45413344386795224,0.6600939465370186,0.10298025133453319,0.49263420499240357,6,8,5,7,3,4,nan,nan,nan,nan,nan,nan,nan,nan,nan,nan,nan,nan,0.0,nan,nan,nan,nan,nan,nan,nan,nan,nan,nan,nan,nan,nan,nan,nan,nan,nan,nan,791.7600299009355,1059.056676855078,nan,1059.6098371900152,nan,nan,nan,nan
1,169,1,1,1.0,1.0,0.5363279655575752,0,0.0,0.0,0.0,0.5570883531495033,0.10265014064568413,0.4544382125038192,0.6597384937951875,0.10265014064568413,0.5211528608730683,2,7,3,8,0,5,nan,nan,nan,nan,nan,nan,nan,nan,nan,nan,nan,nan,0.0,nan,nan,nan,nan,nan,nan,nan,nan,nan,nan,nan,nan,nan,nan,nan,nan,nan,nan,791.7600299009355,1060.0734832807211,nan,1060.6098112462787,nan,nan,nan,nan
1,170,1,1,1.0,1.0,0.5195494794752449,0,0.0,0.0,0.0,0.5569561213814018,0.10233603517426228,0.45462008620713956,0.6592921565556641,0.10233603517426228,0.5363459266566982,0,1,7,6,4,2,nan,nan,nan,nan,nan,nan,nan,nan,nan,nan,nan,nan,0.0,nan,nan,nan,nan,nan,nan,nan,nan,nan,nan,nan,nan,nan,nan,nan,nan,nan,nan,791.7600299009355,1061.0902429504786,nan,1061.6097924299538,nan,nan,nan,nan
1,171,1,1,1.0,1.0,0.5186964713502675,0,0.0,0.0,0.0,0.5567193704832616,0.10205479614462523,0.4546645743386364,0.6587741666278868,0.10205479614462523,0.5248579721276959,5,6,3,4,1,7,nan,nan,nan,nan,nan,nan,nan,nan,nan,nan,nan,nan,0.0,nan,nan,nan,nan,nan,nan,nan,nan,nan,nan,nan,nan,nan,nan,nan,nan,nan,nan,791.7600299009355,1062.1070753198583,nan,1062.6257717912085,nan,nan,nan,nan
1,172,1,1,1.0,1.0,0.4058462412795052,0,0.0,0.0,0.0,0.5564802327528654,0.10177776109461574,0.4547024716582497,0.6582579938474812,0.10177776109461574,0.48136406403500587,1,0,2,8,7,4,nan,nan,nan,nan,nan,nan,nan,nan,nan,nan,nan,nan,0.0,nan,nan,nan,nan,nan,nan,nan,nan,nan,nan,nan,nan,nan,nan,nan,nan,nan,nan,791.7600299009355,1063.1238957152236,nan,1063.5297419565031,nan,nan,nan,nan
1,173,1,1,1.0,1.0,0.5090225845342502,0,0.0,0.0,0.0,0.555538770306157,0.10215136119494511,0.45338740911121184,0.6576901315011021,0.10215136119494511,0.4778550990546743,0,4,8,2,3,6,nan,nan,nan,nan,nan,nan,nan,nan,nan,nan,nan,nan,0.0,nan,nan,nan,nan,nan,nan,nan,nan,nan,nan,nan,nan,nan,nan,nan,nan,nan,nan,791.7600299009355,1064.1406918773428,nan,1064.649714461877,nan,nan,nan,nan
1,174,1,1,1.0,1.0,0.49221330787986517,0,0.0,0.0,0.0,0.5552498498976358,0.10189918325092781,0.453350666646708,0.6571490331485637,0.10189918325092781,0.4690273778978735,3,1,6,7,5,2,nan,nan,nan,nan,nan,nan,nan,nan,nan,nan,nan,nan,0.0,nan,nan,nan,nan,nan,nan,nan,nan,nan,nan,nan,nan,nan,nan,nan,nan,nan,nan,791.7600299009355,1065.1574860438704,nan,1065.6496993517503,nan,nan,nan,nan
1,175,1,1,1.0,1.0,0.5073852764908224,0,0.0,0.0,0.0,0.554860735440736,0.1017041062908444,0.4531566291498916,0.6565648417315804,0.1017041062908444,0.5028737229683126,2,8,7,4,1,0,nan,nan,nan,nan,nan,nan,nan,nan,nan,nan,nan,nan,0.0,nan,nan,nan,nan,nan,nan,nan,nan,nan,nan,nan,nan,nan,nan,nan,nan,nan,nan,791.7600299009355,1066.1742819208885,nan,1066.6816671973793,nan,nan,nan,nan
1,176,1,1,1.0,1.0,0.5305653144605458,0,0.0,0.0,0.0,0.5545694749563806,0.10145939922887934,0.4531100757275013,0.65602887418526,0.10145939922887934,0.5100546329437444,8,7,6,2,4,1,nan,nan,nan,nan,nan,nan,nan,nan,nan,nan,nan,nan,0.0,nan,nan,nan,nan,nan,nan,nan,nan,nan,nan,nan,nan,nan,nan,nan,nan,nan,nan,791.7600299009355,1067.1910820744233,nan,1067.7216473888839,nan,nan,nan,nan
1,177,1,1,1.0,1.0,0.46574154833797365,0,0.0,0.0,0.0,0.554423108124089,0.10116685885105525,0.45325624927303376,0.6555899669751443,0.10116685885105525,0.5012307130964473,1,5,7,0,3,6,nan,nan,nan,nan,nan,nan,nan,nan,nan,nan,nan,nan,0.0,nan,nan,nan,nan,nan,nan,nan,nan,nan,nan,nan,nan,nan,nan,nan,nan,nan,nan,791.7600299009355,1068.207880517235,nan,1068.673622065573,nan,nan,nan,nan
1,178,1,1,1.0,1.0,0.4009226285852492,0,0.0,0.0,0.0,0.5538856441253852,0.10109440598334883,0.45279123814203637,0.6549800501087341,0.10109440598334883,0.4657431637945895,8,6,4,7,2,1,nan,nan,nan,nan,nan,nan,nan,nan,nan,nan,nan,nan,0.0,nan,nan,nan,nan,nan,nan,nan,nan,nan,nan,nan,nan,nan,nan,nan,nan,nan,nan,791.7600299009355,1069.22468323668,nan,1069.6256058652652,nan,nan,nan,nan
1,179,0,0,0.0,1.0,0.5360941867111251,0,0.0,0.0,0.0,0.5529641801763483,0.10148208210903187,0.45148209806731643,0.6544462622853802,0.10148208210903187,0.4675861212114493,1,7,3,5,8,6,nan,nan,nan,nan,nan,nan,nan,nan,nan,nan,nan,nan,0.0,nan,nan,nan,nan,nan,nan,nan,nan,nan,nan,nan,nan,nan,nan,nan,nan,nan,nan,791.7600299009355,1070.2414831049973,nan,1070.7775772917084,nan,nan,nan,nan
1,180,1,1,1.0,1.0,0.4872731596697122,0,0.0,0.0,0.0,0.5528631622514069,0.10118615821862276,0.4516770040327841,0.6540493204700296,0.10118615821862276,0.4747633249886955,5,6,7,0,3,4,nan,nan,nan,nan,nan,nan,nan,nan,nan,nan,nan,nan,0.0,nan,nan,nan,nan,nan,nan,nan,nan,nan,nan,nan,nan,nan,nan,nan,nan,nan,nan,791.7600299009355,1071.2582738503115,nan,1071.7455470099812,nan,nan,nan,nan
1,181,1,1,1.0,1.0,0.48644638038240373,0,0.0,0.0,0.0,0.552472745569373,0.1010106397542882,0.4514621058150848,0.6534833853236612,0.1010106397542882,0.5032712422544137,0,3,4,8,2,7,nan,nan,nan,nan,nan,nan,nan,nan,nan,nan,nan,nan,0.0,nan,nan,nan,nan,nan,nan,nan,nan,nan,nan,nan,nan,nan,nan,nan,nan,nan,nan,791.7600299009355,1072.2750734336441,nan,1072.7615198140265,nan,nan,nan,nan
1,182,1,1,1.0,1.0,0.41330977680627257,0,0.0,0.0,0.0,0.5520820570179708,0.10083857786700874,0.451243479150962,0.6529206348849795,0.10083857786700874,0.46234310561946285,1,8,6,5,4,3,nan,nan,nan,nan,nan,nan,nan,nan,nan,nan,nan,nan,0.0,nan,nan,nan,nan,nan,nan,nan,nan,nan,nan,nan,nan,nan,nan,nan,nan,nan,nan,791.7600299009355,1073.3002046706388,nan,1073.713514447445,nan,nan,nan,nan
1,183,1,1,1.0,1.0,0.3964788329321891,1,1.0,0.0,1.0,0.5512657494873137,0.10110004479467394,0.4501657046926397,0.6523657942819876,0.10110004479467394,0.43207833004028845,7,5,2,3,6,0,1.0,1.0,1.0,1.0,1.0,1.0,0.0,0.0,0.0,1.0,0.0,0.0,1.0,4.0,4.0,4.0,3.0,7.0,4.0,3.0,2.0,1.0,6.0,5.0,4.0,3.6641605753684416,3.018755343859084,1.7948680960107595,5.696542951045558,4.993154268246144,4.28865912661422,791.7600299009355,1074.3170051091583,1075.1254252567887,1074.7134839420905,1081.8762921632733,1082.8850953661604,1076.1422313972143,1081.8679645009106
1,184,1,1,1.0,1.0,0.5397648012731224,0,0.0,0.0,0.0,0.5503605628407925,0.10149254915351885,0.44886801368727364,0.6518531119943114,0.10149254915351885,0.44985113700386137,1,2,7,0,8,3,nan,nan,nan,nan,nan,nan,nan,nan,nan,nan,nan,nan,0.0,nan,nan,nan,nan,nan,nan,nan,nan,nan,nan,nan,nan,nan,nan,nan,nan,nan,nan,791.7600299009355,1083.1014937049476,nan,1083.6412585062208,nan,nan,nan,nan
1,185,0,0,0.0,1.0,0.5149768202099949,0,0.0,0.0,0.0,0.5502989595758642,0.10120028884992088,0.4490986707259433,0.6514992484257851,0.10120028884992088,0.4837401514717688,8,1,5,4,0,2,nan,nan,nan,nan,nan,nan,nan,nan,nan,nan,nan,nan,0.0,nan,nan,nan,nan,nan,nan,nan,nan,nan,nan,nan,nan,nan,nan,nan,nan,nan,nan,791.7600299009355,1084.1182699103374,nan,1084.6332467305474,nan,nan,nan,nan
1,186,1,1,1.0,1.0,0.44214698032010347,0,0.0,0.0,0.0,0.5500947853598765,0.10094290085601007,0.44915188450386645,0.6510376862158866,0.10094290085601007,0.49896286726774025,0,3,6,2,4,5,nan,nan,nan,nan,nan,nan,nan,nan,nan,nan,nan,nan,0.0,nan,nan,nan,nan,nan,nan,nan,nan,nan,nan,nan,nan,nan,nan,nan,nan,nan,nan,791.7600299009355,1085.1350789017742,nan,1085.5772258820944,nan,nan,nan,nan
1,187,1,1,1.0,1.0,0.7693137760506943,0,0.0,0.0,0.0,0.5494743956757399,0.10098264151095927,0.4484917541647806,0.6504570371866991,0.10098264151095927,0.5754791921935976,1,2,8,0,7,4,nan,nan,nan,nan,nan,nan,nan,nan,nan,nan,nan,nan,0.0,nan,nan,nan,nan,nan,nan,nan,nan,nan,nan,nan,nan,nan,nan,nan,nan,nan,nan,791.7600299009355,1086.1518816212192,nan,1086.92119539727,nan,nan,nan,nan
1,188,0,0,0.0,1.0,0.528511481010355,0,0.0,0.0,0.0,0.550730620706454,0.10204808731147037,0.4486825333949836,0.6527787080179244,0.10204808731147037,0.5799907457937176,6,5,0,4,8,1,nan,nan,nan,nan,nan,nan,nan,nan,nan,nan,nan,nan,0.0,nan,nan,nan,nan,nan,nan,nan,nan,nan,nan,nan,nan,nan,nan,nan,nan,nan,nan,791.7600299009355,1087.1686774982372,nan,1087.6971889792476,nan,nan,nan,nan
1,189,1,1,1.0,1.0,0.3676983636105433,0,0.0,0.0,0.0,0.5506043755945442,0.1017714687759339,0.4488329068186103,0.6523758443704781,0.1017714687759339,0.5551745402238643,5,7,8,6,0,4,nan,nan,nan,nan,nan,nan,nan,nan,nan,nan,nan,nan,0.0,nan,nan,nan,nan,nan,nan,nan,nan,nan,nan,nan,nan,nan,nan,nan,nan,nan,nan,791.7600299009355,1088.1854690988548,nan,1088.5531674624654,nan,nan,nan,nan
1,190,1,1,1.0,1.0,0.46284183394163847,0,0.0,0.0,0.0,0.5495710082951997,0.10240535404123442,0.44716565425396526,0.6519763623364341,0.10240535404123442,0.4530172261875123,3,1,0,8,4,5,nan,nan,nan,nan,nan,nan,nan,nan,nan,nan,nan,nan,0.0,nan,nan,nan,nan,nan,nan,nan,nan,nan,nan,nan,nan,nan,nan,nan,nan,nan,nan,791.7600299009355,1089.202288924018,nan,1089.6651307579596,nan,nan,nan,nan
1,191,1,1,1.0,1.0,0.4060378259746358,1,1.0,0.0,1.0,0.5490837657426515,0.10232283396650366,0.44676093177614784,0.6514065997091552,0.10232283396650366,0.4121926745089392,7,8,4,5,6,3,1.0,1.0,1.0,1.0,1.0,1.0,1.0,1.0,0.0,0.0,0.0,0.0,2.0,7.0,8.0,5.0,4.0,7.0,5.0,1.0,2.0,3.0,4.0,5.0,6.0,1.5559765161015093,2.6434990778798237,3.4745453213108703,4.378981904126704,5.426898890873417,6.306558896554634,791.7600299009355,1090.2190836606314,1091.027493829839,1090.625121486606,1098.3784553311998,1099.3895344577031,1092.035963755101,1098.3701216819463
1,192,1,1,1.0,1.0,0.6689191173063591,0,0.0,0.0,0.0,0.5482846264143386,0.10259213397582174,0.4456924924385169,0.6508767603901604,0.10259213397582174,0.5125995924075445,6,0,1,3,2,4,nan,nan,nan,nan,nan,nan,nan,nan,nan,nan,nan,nan,0.0,nan,nan,nan,nan,nan,nan,nan,nan,nan,nan,nan,nan,nan,nan,nan,nan,nan,nan,791.7600299009355,1099.611979118432,nan,1100.2808982357383,nan,nan,nan,nan
1,193,1,1,1.0,1.0,0.4120978325372562,0,0.0,0.0,0.0,0.5489548180304054,0.10269893859353584,0.4462558794368695,0.6516537566239412,0.10269893859353584,0.4956849252727504,1,5,3,2,4,7,nan,nan,nan,nan,nan,nan,nan,nan,nan,nan,nan,nan,0.0,nan,nan,nan,nan,nan,nan,nan,nan,nan,nan,nan,nan,nan,nan,nan,nan,nan,nan,791.7600299009355,1100.6287675829371,nan,1101.0408654154744,nan,nan,nan,nan
1,194,1,1,1.0,1.0,0.4352610497735441,0,0.0,0.0,0.0,0.5481987020884542,0.10291602843805618,0.44528267365039803,0.6511147305265104,0.10291602843805618,0.5054259998723865,2,7,5,6,0,3,nan,nan,nan,nan,nan,nan,nan,nan,nan,nan,nan,nan,0.0,nan,nan,nan,nan,nan,nan,nan,nan,nan,nan,nan,nan,nan,nan,nan,nan,nan,nan,791.7600299009355,1101.6455959610175,nan,1102.080857010791,nan,nan,nan,nan
1,195,1,1,1.0,1.0,0.40243249852210283,1,1.0,0.0,1.0,0.5475781655372735,0.10297188733978875,0.4446062781974847,0.6505500528770622,0.10297188733978875,0.416597126944301,8,6,7,3,5,0,1.0,1.0,1.0,1.0,1.0,1.0,1.0,1.0,0.0,0.0,0.0,0.0,2.0,8.0,6.0,8.0,2.0,1.0,3.0,3.0,2.0,1.0,6.0,5.0,4.0,5.550731599796563,4.2485366720939055,1.160692521603778,9.36609726282768,8.343096835538745,7.471218532882631,791.7600299009355,1102.6623898423277,1103.4707871822175,1103.0648223408498,1113.888759423513,1114.8955800668336,1104.48757080012,1113.880438888562
1,196,1,1,1.0,1.0,0.6065409069415182,0,0.0,0.0,0.0,0.5467850198158791,0.10324611920544928,0.44353890061042983,0.6500311390213284,0.10324611920544928,0.481411485079055,1,3,8,2,0,7,nan,nan,nan,nan,nan,nan,nan,nan,nan,nan,nan,nan,0.0,nan,nan,nan,nan,nan,nan,nan,nan,nan,nan,nan,nan,nan,nan,nan,nan,nan,nan,791.7600299009355,1115.1139854834182,nan,1115.7205263903597,nan,nan,nan,nan
1,197,0,0,0.0,1.0,0.6536941207014024,0,0.0,0.0,0.0,0.5471097800719967,0.10305885946662623,0.4440509206053705,0.6501686395386229,0.10305885946662623,0.5542225087216744,6,4,1,0,2,3,nan,nan,nan,nan,nan,nan,nan,nan,nan,nan,nan,nan,0.0,nan,nan,nan,nan,nan,nan,nan,nan,nan,nan,nan,nan,nan,nan,nan,nan,nan,nan,791.7600299009355,1116.1308087297948,nan,1116.7845028504962,nan,nan,nan,nan
1,198,1,1,1.0,1.0,0.5648806429235265,0,0.0,0.0,0.0,0.5476859116429664,0.10307663015979047,0.44460928148317597,0.6507625418027569,0.10307663015979047,0.6083718901888157,0,3,7,4,8,6,nan,nan,nan,nan,nan,nan,nan,nan,nan,nan,nan,nan,0.0,nan,nan,nan,nan,nan,nan,nan,nan,nan,nan,nan,nan,nan,nan,nan,nan,nan,nan,791.7600299009355,1117.1475934881018,nan,1117.7124741310254,nan,nan,nan,nan
1,199,1,1,1.0,1.0,0.5876430149655789,0,0.0,0.0,0.0,0.5477783564347974,0.10280685855754527,0.44497149787725215,0.6505852149923427,0.10280685855754527,0.6020725928635026,8,7,5,1,3,4,nan,nan,nan,nan,nan,nan,nan,nan,nan,nan,nan,nan,0.0,nan,nan,nan,nan,nan,nan,nan,nan,nan,nan,nan,nan,nan,nan,nan,nan,nan,nan,791.7600299009355,1118.1728093986167,nan,1118.7604524135822,nan,nan,nan,nan
1,200,1,1,1.0,1.0,0.546919007319957,0,0.0,0.0,0.0,0.5479915364269407,0.10257281810493606,0.4454187183220046,0.6505643545318767,0.10257281810493606,0.5664808884030208,2,1,6,0,4,8,nan,nan,nan,nan,nan,nan,nan,nan,nan,nan,nan,nan,0.0,nan,nan,nan,nan,nan,nan,nan,nan,nan,nan,nan,nan,nan,nan,nan,nan,nan,nan,791.7600299009355,1119.1895240232116,nan,1119.7364430305315,nan,nan,nan,nan
1,201,1,1,1.0,1.0,0.5060952159110457,0,0.0,0.0,0.0,0.5479858314848822,0.10229968406951333,0.4456861474153689,0.6502855155543955,0.10229968406951333,0.5468857460655272,8,7,4,3,6,0,nan,nan,nan,nan,nan,nan,nan,nan,nan,nan,nan,nan,0.0,nan,nan,nan,nan,nan,nan,nan,nan,nan,nan,nan,nan,nan,nan,nan,nan,nan,nan,791.7600299009355,1120.2063236065442,nan,1120.7124188224552,nan,nan,nan,nan
1,202,0,0,0.0,1.0,0.5772677911445498,0,0.0,0.0,0.0,0.5477641880162376,0.10207394110878323,0.4456902469074544,0.6498381291250208,0.10207394110878323,0.5434273381251842,7,6,8,5,2,1,nan,nan,nan,nan,nan,nan,nan,nan,nan,nan,nan,nan,0.0,nan,nan,nan,nan,nan,nan,nan,nan,nan,nan,nan,nan,nan,nan,nan,nan,nan,nan,791.7600299009355,1121.2231354489923,nan,1121.8004032401368,nan,nan,nan,nan
1,203,1,1,1.0,1.0,0.760454124188982,0,0.0,0.0,0.0,0.5479194701379655,0.10182735099236036,0.44609211914560515,0.6497468211303259,0.10182735099236036,0.6146057104148591,3,4,7,0,1,5,nan,nan,nan,nan,nan,nan,nan,nan,nan,nan,nan,nan,0.0,nan,nan,nan,nan,nan,nan,nan,nan,nan,nan,nan,nan,nan,nan,nan,nan,nan,nan,791.7600299009355,1122.239917356288,nan,1123.000371480477,nan,nan,nan,nan
1,204,1,1,1.0,1.0,0.6476264166412875,1,0.0,1.0,1.0,0.5490322170178138,0.1027121293586849,0.4463200876591289,0.6517443463764987,0.1027121293586849,0.6617827773249397,1,5,3,7,6,4,1.0,1.0,1.0,1.0,1.0,1.0,0.0,0.0,1.0,1.0,0.0,0.0,2.0,3.0,2.0,3.0,7.0,4.0,3.0,4.0,3.0,2.0,1.0,6.0,5.0,6.187442250200547,5.34061735321302,3.7407978761475533,2.339791144244373,8.091410134686157,7.108007584698498,791.7600299009355,1123.2567300540395,1124.0651385126403,1123.9043564706808,1133.2163293454796,1134.2235565361334,1125.0819463636726,1133.207995126024
1,205,1,1,1.0,1.0,0.44659305666573346,0,0.0,0.0,0.0,0.549545728474186,0.10268982566779179,0.44685590280639426,0.6522355541419779,0.10268982566779179,0.6182245324986676,7,8,1,4,2,3,nan,nan,nan,nan,nan,nan,nan,nan,nan,nan,nan,nan,0.0,nan,nan,nan,nan,nan,nan,nan,nan,nan,nan,nan,nan,nan,nan,nan,nan,nan,nan,791.7600299009355,1134.4415083646309,nan,1134.8881014212966,nan,nan,nan,nan
1,206,0,0,0.0,1.0,0.5577315686969087,0,0.0,0.0,0.0,0.5490122949414997,0.10268980381843666,0.44632249112306305,0.6517020987599363,0.10268980381843666,0.5506503473346432,1,4,2,3,5,6,nan,nan,nan,nan,nan,nan,nan,nan,nan,nan,nan,nan,0.0,nan,nan,nan,nan,nan,nan,nan,nan,nan,nan,nan,nan,nan,nan,nan,nan,nan,nan,791.7600299009355,1135.4583116541617,nan,1136.0160432228586,nan,nan,nan,nan
1,207,1,1,1.0,1.0,0.5485794079722837,0,0.0,0.0,0.0,0.5490572396515792,0.10242670059144254,0.4466305390601366,0.6514839402430217,0.10242670059144254,0.5176346777783086,7,6,0,4,1,3,nan,nan,nan,nan,nan,nan,nan,nan,nan,nan,nan,nan,0.0,nan,nan,nan,nan,nan,nan,nan,nan,nan,nan,nan,nan,nan,nan,nan,nan,nan,nan,791.7600299009355,1136.4834582862677,nan,1137.03203769424,nan,nan,nan,nan
1,208,1,1,1.0,1.0,0.6117835423210636,0,0.0,0.0,0.0,0.549054789232711,0.10216373615233428,0.44689105308037674,0.6512185253850453,0.10216373615233428,0.572698172996752,8,4,1,3,0,5,nan,nan,nan,nan,nan,nan,nan,nan,nan,nan,nan,nan,0.0,nan,nan,nan,nan,nan,nan,nan,nan,nan,nan,nan,nan,nan,nan,nan,nan,nan,nan,791.7600299009355,1137.500230215257,nan,1138.112013757578,nan,nan,nan,nan
1,209,1,1,1.0,1.0,0.5149414683692157,0,0.0,0.0,0.0,0.549374833891325,0.10200073710366386,0.44737409678766116,0.6513755709949889,0.10200073710366386,0.5584348062208543,2,1,5,7,4,8,nan,nan,nan,nan,nan,nan,nan,nan,nan,nan,nan,nan,0.0,nan,nan,nan,nan,nan,nan,nan,nan,nan,nan,nan,nan,nan,nan,nan,nan,nan,nan,791.7600299009355,1138.517053176416,nan,1139.0319946447853,nan,nan,nan,nan
1,210,1,1,1.0,1.0,0.48212403571233153,0,0.0,0.0,0.0,0.5492000452338524,0.10177094592421163,0.4474290993096407,0.650970991158064,0.10177094592421163,0.536283015467537,7,5,2,0,8,4,nan,nan,nan,nan,nan,nan,nan,nan,nan,nan,nan,nan,0.0,nan,nan,nan,nan,nan,nan,nan,nan,nan,nan,nan,nan,nan,nan,nan,nan,nan,nan,791.7600299009355,1139.5338470578426,nan,1140.015971093555,nan,nan,nan,nan
1,211,1,1,1.0,1.0,0.456913256784901,0,0.0,0.0,0.0,0.5488612775089963,0.10162491886077812,0.44723635864821815,0.6504861963697743,0.10162491886077812,0.4846595869554828,5,7,1,8,6,0,nan,nan,nan,nan,nan,nan,nan,nan,nan,nan,nan,nan,0.0,nan,nan,nan,nan,nan,nan,nan,nan,nan,nan,nan,nan,nan,nan,nan,nan,nan,nan,791.7600299009355,1140.5590321780182,nan,1141.0159454348031,nan,nan,nan,nan
1,212,1,1,1.0,1.0,0.45614121621474624,0,0.0,0.0,0.0,0.5483992271535988,0.1015775450080953,0.4468216821455035,0.649976772161694,0.1015775450080953,0.46505950290399295,1,8,4,3,2,7,nan,nan,nan,nan,nan,nan,nan,nan,nan,nan,nan,nan,0.0,nan,nan,nan,nan,nan,nan,nan,nan,nan,nan,nan,nan,nan,nan,nan,nan,nan,nan,791.7600299009355,1141.5757966943784,nan,1142.0319379105931,nan,nan,nan,nan
1,213,1,1,1.0,1.0,0.3993354976410046,1,1.0,0.0,1.0,0.5479379370989045,0.10153202734122703,0.44640590975767747,0.6494699644401315,0.10153202734122703,0.43746332354688394,8,4,2,5,1,6,1.0,1.0,1.0,1.0,1.0,1.0,0.0,1.0,1.0,0.0,0.0,0.0,2.0,6.0,4.0,2.0,1.0,5.0,3.0,3.0,2.0,1.0,6.0,5.0,4.0,4.8435480003245175,3.6451580530265346,2.5069556364323944,8.850551105337217,6.858802646864206,6.130827831220813,791.7600299009355,1142.5925731848693,1143.4009944727877,1142.9919086825103,1153.3189392023487,1154.3159308664035,1144.4261342626996,1153.3106121103046
1,214,1,1,1.0,1.0,0.583803053246811,0,0.0,0.0,0.0,0.547198621479711,0.10181739913554815,0.44538122234416283,0.6490160206152591,0.10181739913554815,0.47975992236752063,0,2,3,8,5,4,nan,nan,nan,nan,nan,nan,nan,nan,nan,nan,nan,nan,0.0,nan,nan,nan,nan,nan,nan,nan,nan,nan,nan,nan,nan,nan,nan,nan,nan,nan,nan,791.7600299009355,1154.5357993971556,nan,1155.1196024504025,nan,nan,nan,nan
1,215,0,0,0.0,1.0,0.6306637582601979,0,0.0,0.0,0.0,0.547379831537964,0.10159755072879052,0.4457822808091735,0.6489773822667545,0.10159755072879052,0.5379341030493379,2,1,7,0,8,3,nan,nan,nan,nan,nan,nan,nan,nan,nan,nan,nan,nan,0.0,nan,nan,nan,nan,nan,nan,nan,nan,nan,nan,nan,nan,nan,nan,nan,nan,nan,nan,791.7600299009355,1155.5609058307018,nan,1156.191569588962,nan,nan,nan,nan
1,216,1,1,1.0,1.0,0.4698212759103626,0,0.0,0.0,0.0,0.5477900971868419,0.10151460452968317,0.4462754926571587,0.6493047017165251,0.10151460452968317,0.5614293624724572,6,5,3,1,4,2,nan,nan,nan,nan,nan,nan,nan,nan,nan,nan,nan,nan,0.0,nan,nan,nan,nan,nan,nan,nan,nan,nan,nan,nan,nan,nan,nan,nan,nan,nan,nan,791.7600299009355,1156.5777538804105,nan,1157.0475751563208,nan,nan,nan,nan
1,217,1,1,1.0,1.0,0.43699386494699866,0,0.0,0.0,0.0,0.5474078970825454,0.1014117980712668,0.4459960990112787,0.6488196951538122,0.1014117980712668,0.5124929663725197,2,0,5,7,6,1,nan,nan,nan,nan,nan,nan,nan,nan,nan,nan,nan,nan,0.0,nan,nan,nan,nan,nan,nan,nan,nan,nan,nan,nan,nan,nan,nan,nan,nan,nan,nan,791.7600299009355,1157.5945719949668,nan,1158.0315658599138,nan,nan,nan,nan
1,218,1,1,1.0,1.0,0.5481697246432304,0,0.0,0.0,0.0,0.5468692920477379,0.10145622046828691,0.44541307157945104,0.6483255125160249,0.10145622046828691,0.4849949551668639,4,7,2,1,3,0,nan,nan,nan,nan,nan,nan,nan,nan,nan,nan,nan,nan,0.0,nan,nan,nan,nan,nan,nan,nan,nan,nan,nan,nan,nan,nan,nan,nan,nan,nan,nan,791.7600299009355,1158.6113553277683,nan,1159.1595250524115,nan,nan,nan,nan
1,219,1,1,1.0,1.0,0.49136999307665974,0,0.0,0.0,0.0,0.5468756048273277,0.10120970828697366,0.445665896540354,0.6480853131143013,0.10120970828697366,0.4921778608889629,3,4,1,5,6,8,nan,nan,nan,nan,nan,nan,nan,nan,nan,nan,nan,nan,0.0,nan,nan,nan,nan,nan,nan,nan,nan,nan,nan,nan,nan,nan,nan,nan,nan,nan,nan,791.7600299009355,1159.628131248057,nan,1160.1195012411335,nan,nan,nan,nan
1,220,1,1,1.0,1.0,0.5785424567293376,0,0.0,0.0,0.0,0.5466074617753921,0.10103826773264793,0.4455691940427442,0.64764572950804,0.10103826773264793,0.5393607248164093,4,0,2,1,8,3,nan,nan,nan,nan,nan,nan,nan,nan,nan,nan,nan,nan,0.0,nan,nan,nan,nan,nan,nan,nan,nan,nan,nan,nan,nan,nan,nan,nan,nan,nan,nan,791.7600299009355,1160.6449413798982,nan,1161.2234838366276,nan,nan,nan,nan
1,221,1,1,1.0,1.0,0.5937224080553278,0,0.0,0.0,0.0,0.5467609954049784,0.10081929690985718,0.44594169849512116,0.6475802923148355,0.10081929690985718,0.5545449526204417,0,2,7,8,4,5,nan,nan,nan,nan,nan,nan,nan,nan,nan,nan,nan,nan,0.0,nan,nan,nan,nan,nan,nan,nan,nan,nan,nan,nan,nan,nan,nan,nan,nan,nan,nan,791.7600299009355,1161.6617287041154,nan,1162.2554511121707,nan,nan,nan,nan
1,222,1,1,1.0,1.0,0.6009059789357707,0,0.0,0.0,0.0,0.5469856911592863,0.10063000573094864,0.44635568542833765,0.6476156968902349,0.10063000573094864,0.5910569479068121,3,8,0,4,5,7,nan,nan,nan,nan,nan,nan,nan,nan,nan,nan,nan,nan,0.0,nan,nan,nan,nan,nan,nan,nan,nan,nan,nan,nan,nan,nan,nan,nan,nan,nan,nan,791.7600299009355,1162.6785302830394,nan,1163.2794362619752,nan,nan,nan,nan
1,223,1,1,1.0,1.0,0.56802439969033,0,0.0,0.0,0.0,0.5472424544344124,0.10045872750839051,0.4467837269260219,0.6477011819428029,0.10045872750839051,0.5875509288938096,5,6,4,0,1,3,nan,nan,nan,nan,nan,nan,nan,nan,nan,nan,nan,nan,0.0,nan,nan,nan,nan,nan,nan,nan,nan,nan,nan,nan,nan,nan,nan,nan,nan,nan,nan,791.7600299009355,1163.695375766838,nan,1164.2634001665283,nan,nan,nan,nan
1,224,1,1,1.0,1.0,0.4628783264197409,0,0.0,0.0,0.0,0.547340947065957,0.10023055385084638,0.44711039321511065,0.6475715009168034,0.10023055385084638,0.5439362350152805,7,4,2,3,8,6,nan,nan,nan,nan,nan,nan,nan,nan,nan,nan,nan,nan,0.0,nan,nan,nan,nan,nan,nan,nan,nan,nan,nan,nan,nan,nan,nan,nan,nan,nan,nan,791.7600299009355,1164.7205027273158,nan,1165.1833810537355,nan,nan,nan,nan
1,225,1,1,1.0,1.0,0.4301122110337019,0,0.0,0.0,0.0,0.5469425384780032,0.1001612113723964,0.4467813271056068,0.6471037498503996,0.1001612113723964,0.4870049790479243,1,3,7,6,5,0,nan,nan,nan,nan,nan,nan,nan,nan,nan,nan,nan,nan,0.0,nan,nan,nan,nan,nan,nan,nan,nan,nan,nan,nan,nan,nan,nan,nan,nan,nan,nan,791.7600299009355,1165.7372589760926,nan,1166.1673711871263,nan,nan,nan,nan
1,226,1,1,1.0,1.0,0.3652570842532441,1,1.0,0.0,1.0,0.5463940392881238,0.10024444573729939,0.4461495935508244,0.6466384850254232,0.10024444573729939,0.41941587390222895,5,0,8,4,6,7,1.0,1.0,1.0,1.0,1.0,1.0,0.0,0.0,0.0,0.0,0.0,0.0,0.0,1.0,5.0,0.0,7.0,5.0,2.0,6.0,1.0,2.0,3.0,4.0,5.0,8.385500060277991,2.6030353631358594,3.9064949778839946,5.761734206462279,6.849558115005493,7.690187869942747,791.7600299009355,1166.7540847881464,1167.5624781366205,1167.1193418723997,1176.9970372794196,1177.9962028026348,1168.5709474917967,1176.9887050556717
1,227,1,1,1.0,1.0,0.6011745396535844,0,0.0,0.0,0.0,0.5455476049188019,0.10077001185465313,0.4447775930641488,0.6463176167734551,0.10077001185465313,0.46551461164684343,2,7,4,3,1,5,nan,nan,nan,nan,nan,nan,nan,nan,nan,nan,nan,nan,0.0,nan,nan,nan,nan,nan,nan,nan,nan,nan,nan,nan,nan,nan,nan,nan,nan,nan,nan,791.7600299009355,1178.2138971891254,nan,1178.815071728779,nan,nan,nan,nan
1,228,1,1,1.0,1.0,0.5043527074158192,0,0.0,0.0,0.0,0.545806334847801,0.10060661024565669,0.44519972460214424,0.6464129450934576,0.10060661024565669,0.4902614437742159,4,5,6,7,8,2,nan,nan,nan,nan,nan,nan,nan,nan,nan,nan,nan,nan,0.0,nan,nan,nan,nan,nan,nan,nan,nan,nan,nan,nan,nan,nan,nan,nan,nan,nan,nan,791.7600299009355,1179.2306924960576,nan,1179.7350452034734,nan,nan,nan,nan
1,229,1,1,1.0,1.0,0.5595721503486857,0,0.0,0.0,0.0,0.5456144199059862,0.10041289303785132,0.4452015268681349,0.6460273129438375,0.10041289303785132,0.5550331324726964,7,3,1,2,4,0,nan,nan,nan,nan,nan,nan,nan,nan,nan,nan,nan,nan,0.0,nan,nan,nan,nan,nan,nan,nan,nan,nan,nan,nan,nan,nan,nan,nan,nan,nan,nan,791.7600299009355,1180.24747098214,nan,1180.8070431324886,nan,nan,nan,nan
1,230,1,1,1.0,1.0,0.6303954827599227,0,0.0,0.0,0.0,0.5456787412444318,0.10018571978773992,0.4454930214566919,0.6458644610321718,0.10018571978773992,0.5647734468414759,8,2,4,6,3,7,nan,nan,nan,nan,nan,nan,nan,nan,nan,nan,nan,nan,0.0,nan,nan,nan,nan,nan,nan,nan,nan,nan,nan,nan,nan,nan,nan,nan,nan,nan,nan,791.7600299009355,1181.2725999383256,nan,1181.9029954210855,nan,nan,nan,nan
1,231,1,1,1.0,1.0,0.5575659277383238,0,0.0,0.0,0.0,0.5460673501504663,0.10011946369098261,0.44594788645948363,0.6461868138414488,0.10011946369098261,0.5825111869489774,0,6,3,2,4,8,nan,nan,nan,nan,nan,nan,nan,nan,nan,nan,nan,nan,0.0,nan,nan,nan,nan,nan,nan,nan,nan,nan,nan,nan,nan,nan,nan,nan,nan,nan,nan,791.7600299009355,1182.2894140615826,nan,1182.846979989321,nan,nan,nan,nan
1,232,1,1,1.0,1.0,0.44473964581266046,0,0.0,0.0,0.0,0.5461198550709587,0.09989362702405263,0.4462262280469061,0.6460134820950114,0.09989362702405263,0.544233685436969,1,3,4,7,8,2,nan,nan,nan,nan,nan,nan,nan,nan,nan,nan,nan,nan,0.0,nan,nan,nan,nan,nan,nan,nan,nan,nan,nan,nan,nan,nan,nan,nan,nan,nan,nan,791.7600299009355,1183.3062142151175,nan,1183.7509538609302,nan,nan,nan,nan
1,233,1,1,1.0,1.0,0.46790599916130304,0,0.0,0.0,0.0,0.5456590359379664,0.09989937142794383,0.4457596645100226,0.6455584073659102,0.09989937142794383,0.4900705242374291,0,4,1,2,7,5,nan,nan,nan,nan,nan,nan,nan,nan,nan,nan,nan,nan,0.0,nan,nan,nan,nan,nan,nan,nan,nan,nan,nan,nan,nan,nan,nan,nan,nan,nan,nan,791.7600299009355,1184.3230217810487,nan,1184.79092778021,nan,nan,nan,nan
1,234,1,1,1.0,1.0,0.4430994869908318,0,0.0,0.0,0.0,0.5453072122421444,0.09980960947989302,0.44549760276225137,0.6451168217220374,0.09980960947989302,0.4519150439882651,4,6,2,3,1,7,nan,nan,nan,nan,nan,nan,nan,nan,nan,nan,nan,nan,0.0,nan,nan,nan,nan,nan,nan,nan,nan,nan,nan,nan,nan,nan,nan,nan,nan,nan,nan,791.7600299009355,1185.339812811464,nan,1185.782912298455,nan,nan,nan,nan
1,235,1,1,1.0,1.0,0.5302671038080007,0,0.0,0.0,0.0,0.5448468170833547,0.09981947924822797,0.4450273378351267,0.6446662963315827,0.09981947924822797,0.4804241966533785,1,5,7,8,0,4,nan,nan,nan,nan,nan,nan,nan,nan,nan,nan,nan,nan,0.0,nan,nan,nan,nan,nan,nan,nan,nan,nan,nan,nan,nan,nan,nan,nan,nan,nan,nan,791.7600299009355,1186.3566138203023,nan,1186.8868809241103,nan,nan,nan,nan
1,236,1,1,1.0,1.0,0.5214487909106538,0,0.0,0.0,0.0,0.5447814372031962,0.09960018117114132,0.44518125603205483,0.6443816183743375,0.09960018117114132,0.49827179390316206,6,0,5,7,8,3,nan,nan,nan,nan,nan,nan,nan,nan,nan,nan,nan,nan,0.0,nan,nan,nan,nan,nan,nan,nan,nan,nan,nan,nan,nan,nan,nan,nan,nan,nan,nan,791.7600299009355,1187.3734156843275,nan,1187.8948644752381,nan,nan,nan,nan
1,237,1,1,1.0,1.0,0.47262833395507187,0,0.0,0.0,0.0,0.5446772736036759,0.09938978348909101,0.4452874901145849,0.6440670570927669,0.09938978348909101,0.5081147428912421,0,3,2,5,7,6,nan,nan,nan,nan,nan,nan,nan,nan,nan,nan,nan,nan,0.0,nan,nan,nan,nan,nan,nan,nan,nan,nan,nan,nan,nan,nan,nan,nan,nan,nan,nan,791.7600299009355,1188.3902075700462,nan,1188.8628359040013,nan,nan,nan,nan
1,238,1,1,1.0,1.0,0.5677988884272054,0,0.0,0.0,0.0,0.5443570560941265,0.09928441050867391,0.4450726455854526,0.6436414666028004,0.09928441050867391,0.5206253377643103,4,7,6,8,0,1,nan,nan,nan,nan,nan,nan,nan,nan,nan,nan,nan,nan,0.0,nan,nan,nan,nan,nan,nan,nan,nan,nan,nan,nan,nan,nan,nan,nan,nan,nan,nan,791.7600299009355,1189.4070088639855,nan,1189.9748077524127,nan,nan,nan,nan
1,239,0,0,0.0,1.0,0.6309713772498071,0,0.0,0.0,0.0,0.5444607810159543,0.09907672847373718,0.44538405254221713,0.6435375094896915,0.09907672847373718,0.5571328665440282,7,6,3,2,1,8,nan,nan,nan,nan,nan,nan,nan,nan,nan,nan,nan,nan,0.0,nan,nan,nan,nan,nan,nan,nan,nan,nan,nan,nan,nan,nan,nan,nan,nan,nan,nan,791.7600299009355,1190.4238073067972,nan,1191.054778684047,nan,nan,nan,nan
1,240,1,1,1.0,1.0,0.5261477477615699,0,0.0,0.0,0.0,0.5448418849641211,0.09902413468986136,0.44581775027425974,0.6438660196539825,0.09902413468986136,0.5749726711461941,2,7,5,8,6,3,nan,nan,nan,nan,nan,nan,nan,nan,nan,nan,nan,nan,0.0,nan,nan,nan,nan,nan,nan,nan,nan,nan,nan,nan,nan,nan,nan,nan,nan,nan,nan,791.7600299009355,1191.4406131622382,nan,1191.9667609099997,nan,nan,nan,nan
1,241,1,1,1.0,1.0,0.5253406402189285,0,0.0,0.0,0.0,0.5447598931342853,0.09881445992970508,0.44594543320458024,0.6435743530639904,0.09881445992970508,0.5608199217434352,3,4,8,0,5,6,nan,nan,nan,nan,nan,nan,nan,nan,nan,nan,nan,nan,0.0,nan,nan,nan,nan,nan,nan,nan,nan,nan,nan,nan,nan,nan,nan,nan,nan,nan,nan,791.7600299009355,1192.4574124604696,nan,1192.9827531006886,nan,nan,nan,nan
1,242,1,1,1.0,1.0,0.6045050343964249,0,0.0,0.0,0.0,0.5446750929032139,0.09860678578871335,0.4460683071145006,0.6432818786919272,0.09860678578871335,0.5519978074589744,0,1,3,2,7,8,nan,nan,nan,nan,nan,nan,nan,nan,nan,nan,nan,nan,0.0,nan,nan,nan,nan,nan,nan,nan,nan,nan,nan,nan,nan,nan,nan,nan,nan,nan,nan,791.7600299009355,1193.4742214519065,nan,1194.078726486303,nan,nan,nan,nan
1,243,1,1,1.0,1.0,0.6676441667368636,0,0.0,0.0,0.0,0.5449352230836192,0.09847090382323055,0.44646431926038865,0.6434061269068497,0.09847090382323055,0.599163280450739,6,7,4,5,8,0,nan,nan,nan,nan,nan,nan,nan,nan,nan,nan,nan,nan,0.0,nan,nan,nan,nan,nan,nan,nan,nan,nan,nan,nan,nan,nan,nan,nan,nan,nan,nan,791.7600299009355,1194.491044698283,nan,1195.15868886502,nan,nan,nan,nan
1,244,1,1,1.0,1.0,0.6509084450080991,0,0.0,0.0,0.0,0.5454664306319016,0.0985872423953606,0.446879188236541,0.6440536730272621,0.0985872423953606,0.6410192153804625,8,3,0,1,4,2,nan,nan,nan,nan,nan,nan,nan,nan,nan,nan,nan,nan,0.0,nan,nan,nan,nan,nan,nan,nan,nan,nan,nan,nan,nan,nan,nan,nan,nan,nan,nan,791.7600299009355,1195.5077655949863,nan,1196.1586740399944,nan,nan,nan,nan
1,245,1,1,1.0,1.0,0.7060263935709372,1,0.0,1.0,1.0,0.5459209220731783,0.09861676397549636,0.447304158097682,0.6445376860486747,0.09861676397549636,0.6748596684386333,7,1,2,8,0,6,1.0,1.0,1.0,1.0,1.0,1.0,0.0,0.0,0.0,1.0,0.0,1.0,2.0,2.0,0.0,1.0,8.0,8.0,6.0,4.0,5.0,6.0,1.0,2.0,3.0,9.925764065119438,10.909932383685373,12.357611087034456,2.303908641450107,3.413930716458708,4.255208210088313,791.7600299009355,1196.5246122191893,1197.333012695075,1197.2306386127602,1210.7430986030959,1211.753824780346,1198.3498305245303,1210.7347732215421
1,246,1,1,1.0,1.0,0.4856925858184695,0,0.0,0.0,0.0,0.5466080700195206,0.098959945285922,0.4476481247335986,0.6455680153054426,0.098959945285922,0.6142091414658353,8,6,7,5,4,0,nan,nan,nan,nan,nan,nan,nan,nan,nan,nan,nan,nan,0.0,nan,nan,nan,nan,nan,nan,nan,nan,nan,nan,nan,nan,nan,nan,nan,nan,nan,nan,791.7600299009355,1211.9765992974862,nan,1212.4622918833047,nan,nan,nan,nan
1,247,1,1,1.0,1.0,0.6208487487165257,0,0.0,0.0,0.0,0.5463477474374648,0.09882818398356703,0.4475195634538978,0.6451759314210319,0.09882818398356703,0.6041892427019775,1,5,0,2,7,8,nan,nan,nan,nan,nan,nan,nan,nan,nan,nan,nan,nan,0.0,nan,nan,nan,nan,nan,nan,nan,nan,nan,nan,nan,nan,nan,nan,nan,nan,nan,nan,791.7600299009355,1212.9934168418404,nan,1213.614265590557,nan,nan,nan,nan
1,248,1,1,1.0,1.0,0.5720294321654364,0,0.0,0.0,0.0,0.5466647729748226,0.09873685441514078,0.44792791855968184,0.6454016273899634,0.09873685441514078,0.5595235889001439,4,0,5,1,6,7,nan,nan,nan,nan,nan,nan,nan,nan,nan,nan,nan,nan,0.0,nan,nan,nan,nan,nan,nan,nan,nan,nan,nan,nan,nan,nan,nan,nan,nan,nan,nan,791.7600299009355,1214.0102135741618,nan,1214.5822430063272,nan,nan,nan,nan
1,249,1,1,1.0,1.0,0.5152088885661215,0,0.0,0.0,0.0,0.5467722503442743,0.0985412188655778,0.44823103147869653,0.6453134692098521,0.0985412188655778,0.5693623564826945,3,2,7,8,1,5,nan,nan,nan,nan,nan,nan,nan,nan,nan,nan,nan,nan,0.0,nan,nan,nan,nan,nan,nan,nan,nan,nan,nan,nan,nan,nan,nan,nan,nan,nan,nan,791.7600299009355,1215.027014583,nan,1215.542223471566,nan,nan,nan,nan
1,250,1,1,1.0,1.0,0.4743768294574693,0,0.0,0.0,0.0,0.5466390716025944,0.09835438787753409,0.4482846837250603,0.6449934594801285,0.09835438787753409,0.5205383833963424,1,3,6,2,8,0,nan,nan,nan,nan,nan,nan,nan,nan,nan,nan,nan,nan,0.0,nan,nan,nan,nan,nan,nan,nan,nan,nan,nan,nan,nan,nan,nan,nan,nan,nan,nan,791.7600299009355,1216.04382186383,nan,1216.5181986932876,nan,nan,nan,nan
1,251,1,1,1.0,1.0,0.5055506819626316,0,0.0,0.0,0.0,0.5463354487364384,0.09825878372586055,0.4480766650105778,0.6445942324622989,0.09825878372586055,0.49837879999540746,0,2,1,6,5,8,nan,nan,nan,nan,nan,nan,nan,nan,nan,nan,nan,nan,0.0,nan,nan,nan,nan,nan,nan,nan,nan,nan,nan,nan,nan,nan,nan,nan,nan,nan,nan,791.7600299009355,1217.0606157452567,nan,1217.5661664272193,nan,nan,nan,nan
1,252,1,1,1.0,1.0,0.47271329269278795,0,0.0,0.0,0.0,0.5461648011767154,0.09808834117613252,0.4480764600005829,0.6442531423528479,0.09808834117613252,0.484213601370963,7,3,8,1,4,0,nan,nan,nan,nan,nan,nan,nan,nan,nan,nan,nan,nan,0.0,nan,nan,nan,nan,nan,nan,nan,nan,nan,nan,nan,nan,nan,nan,nan,nan,nan,nan,791.7600299009355,1218.077436995809,nan,1218.5501502885018,nan,nan,nan,nan
1,253,1,1,1.0,1.0,0.47956358606461436,0,0.0,0.0,0.0,0.545858753224699,0.09799806043286063,0.4478606927918384,0.6438568136575596,0.09799806043286063,0.48594252024001133,4,6,2,8,3,7,nan,nan,nan,nan,nan,nan,nan,nan,nan,nan,nan,nan,0.0,nan,nan,nan,nan,nan,nan,nan,nan,nan,nan,nan,nan,nan,nan,nan,nan,nan,nan,791.7600299009355,1219.1025585394818,nan,1219.5821221255464,nan,nan,nan,nan
1,254,1,1,1.0,1.0,0.47873595159035176,0,0.0,0.0,0.0,0.5455836695435368,0.09788734265052695,0.4476963268930098,0.6434710121940637,0.09788734265052695,0.47700427678258467,5,3,7,6,4,0,nan,nan,nan,nan,nan,nan,nan,nan,nan,nan,nan,nan,0.0,nan,nan,nan,nan,nan,nan,nan,nan,nan,nan,nan,nan,nan,nan,nan,nan,nan,nan,791.7600299009355,1220.1193575526122,nan,1220.5980935042026,nan,nan,nan,nan
1,255,1,1,1.0,1.0,0.5338972348254174,0,0.0,0.0,0.0,0.5453074393040608,0.09777896578231678,0.447528473521744,0.6430864050863776,0.09777896578231678,0.4973989241601278,0,2,4,3,6,8,nan,nan,nan,nan,nan,nan,nan,nan,nan,nan,nan,nan,0.0,nan,nan,nan,nan,nan,nan,nan,nan,nan,nan,nan,nan,nan,nan,nan,nan,nan,nan,791.7600299009355,1221.1361904921941,nan,1221.6700877270196,nan,nan,nan,nan
1,256,1,1,1.0,1.0,0.5091391889145598,0,0.0,0.0,0.0,0.5452604837300746,0.09758030111287193,0.4476801826172027,0.6428407848429466,0.09758030111287193,0.5072574584434429,4,6,7,0,5,2,nan,nan,nan,nan,nan,nan,nan,nan,nan,nan,nan,nan,0.0,nan,nan,nan,nan,nan,nan,nan,nan,nan,nan,nan,nan,nan,nan,nan,nan,nan,nan,791.7600299009355,1222.1529324860312,nan,1222.6620716749458,nan,nan,nan,nan
1,257,1,1,1.0,1.0,0.5319568695267662,0,0.0,0.0,0.0,0.5451124456365685,0.09740747576618768,0.4477049698703808,0.6425199214027562,0.09740747576618768,0.5249977644222478,7,3,0,6,4,1,nan,nan,nan,nan,nan,nan,nan,nan,nan,nan,nan,nan,0.0,nan,nan,nan,nan,nan,nan,nan,nan,nan,nan,nan,nan,nan,nan,nan,nan,nan,nan,791.7600299009355,1223.1780819691485,nan,1223.7100388386752,nan,nan,nan,nan
1,258,1,1,1.0,1.0,0.46708435169421136,0,0.0,0.0,0.0,0.5450587494075488,0.09721210029142609,0.44784664911612276,0.642270849698975,0.09721210029142609,0.5027268033785125,5,2,7,4,6,8,nan,nan,nan,nan,nan,nan,nan,nan,nan,nan,nan,nan,0.0,nan,nan,nan,nan,nan,nan,nan,nan,nan,nan,nan,nan,nan,nan,nan,nan,nan,nan,791.7600299009355,1224.194918615045,nan,1224.6620029667392,nan,nan,nan,nan
1,259,1,1,1.0,1.0,0.4423052086494863,0,0.0,0.0,0.0,0.5447417803111532,0.0971410934240096,0.44760068688714355,0.6418828737351627,0.0971410934240096,0.4804488099568213,6,8,0,5,2,4,nan,nan,nan,nan,nan,nan,nan,nan,nan,nan,nan,nan,0.0,nan,nan,nan,nan,nan,nan,nan,nan,nan,nan,nan,nan,nan,nan,nan,nan,nan,nan,791.7600299009355,1225.2116779997014,nan,1225.6539832083508,nan,nan,nan,nan
1,260,1,1,1.0,1.0,0.4734693680657074,0,0.0,0.0,0.0,0.5443270573489601,0.0971622293825687,0.44716482796639145,0.6414892867315288,0.0971622293825687,0.46095297613646835,0,1,6,8,3,7,nan,nan,nan,nan,nan,nan,nan,nan,nan,nan,nan,nan,0.0,nan,nan,nan,nan,nan,nan,nan,nan,nan,nan,nan,nan,nan,nan,nan,nan,nan,nan,791.7600299009355,1226.2284872762393,nan,1226.701956644305,nan,nan,nan,nan
1,261,1,1,1.0,1.0,0.6006545240525156,0,0.0,0.0,0.0,0.5440413408599148,0.09707005649214565,0.44697128436776923,0.6411113973520605,0.09707005649214565,0.5054763669225698,6,5,1,4,7,3,nan,nan,nan,nan,nan,nan,nan,nan,nan,nan,nan,nan,0.0,nan,nan,nan,nan,nan,nan,nan,nan,nan,nan,nan,nan,nan,nan,nan,nan,nan,nan,791.7600299009355,1227.2452800172614,nan,1227.845934541314,nan,nan,nan,nan
1,262,1,1,1.0,1.0,0.5358313278993592,0,0.0,0.0,0.0,0.5442687030414112,0.09694108582117004,0.4473276172202411,0.6412097888625812,0.09694108582117004,0.5366517400058607,0,2,4,1,6,8,nan,nan,nan,nan,nan,nan,nan,nan,nan,nan,nan,nan,0.0,nan,nan,nan,nan,nan,nan,nan,nan,nan,nan,nan,nan,nan,nan,nan,nan,nan,nan,791.7600299009355,1228.2620733284857,nan,1228.797904656385,nan,nan,nan,nan
1,263,0,0,1.0,0.0,0.6070178729714826,0,0.0,0.0,0.0,0.544234953540843,0.09674847513979262,0.4474864784010503,0.6409834286806355,0.09674847513979262,0.5811679083077858,8,6,7,3,0,4,nan,nan,nan,nan,nan,nan,nan,nan,nan,nan,nan,nan,0.0,nan,nan,nan,nan,nan,nan,nan,nan,nan,nan,nan,nan,nan,nan,nan,nan,nan,nan,791.7600299009355,1229.2788737671217,nan,1229.8858916400932,nan,nan,nan,nan
1,264,1,1,1.0,1.0,0.718189456150867,0,0.0,0.0,0.0,0.5444850846939531,0.09663651969186003,0.447848565002093,0.6411216043858131,0.09663651969186003,0.6203462190072363,2,8,6,0,5,3,nan,nan,nan,nan,nan,nan,nan,nan,nan,nan,nan,nan,0.0,nan,nan,nan,nan,nan,nan,nan,nan,nan,nan,nan,nan,nan,nan,nan,nan,nan,nan,791.7600299009355,1230.295667933533,nan,1231.0138573896838,nan,nan,nan,nan
1,265,0,0,0.0,1.0,0.5973633725661784,0,0.0,0.0,0.0,0.54517438775529,0.09706090227653413,0.4481134854787559,0.6422352900318242,0.09706090227653413,0.6408569005628427,7,6,1,2,8,5,nan,nan,nan,nan,nan,nan,nan,nan,nan,nan,nan,nan,0.0,nan,nan,nan,nan,nan,nan,nan,nan,nan,nan,nan,nan,nan,nan,nan,nan,nan,nan,791.7600299009355,1231.3124760697829,nan,1231.909839442349,nan,nan,nan,nan
1,266,1,1,1.0,1.0,0.508537920890376,0,0.0,0.0,0.0,0.5453806683276651,0.09692422470656598,0.4484564436210991,0.642304893034231,0.09692422470656598,0.6080302498691404,3,7,5,0,1,2,nan,nan,nan,nan,nan,nan,nan,nan,nan,nan,nan,nan,0.0,nan,nan,nan,nan,nan,nan,nan,nan,nan,nan,nan,nan,nan,nan,nan,nan,nan,nan,791.7600299009355,1232.329275652999,nan,1232.8378135738894,nan,nan,nan,nan
1,267,0,0,0.0,1.0,0.4997398495906964,0,0.0,0.0,0.0,0.5452356181409042,0.09676075076565963,0.44847486737524456,0.6419963689065638,0.09676075076565963,0.5352137143490836,2,5,4,1,6,8,nan,nan,nan,nan,nan,nan,nan,nan,nan,nan,nan,nan,0.0,nan,nan,nan,nan,nan,nan,nan,nan,nan,nan,nan,nan,nan,nan,nan,nan,nan,nan,791.7600299009355,1233.3460698195267,nan,1233.8458096691174,nan,nan,nan,nan
1,268,1,1,1.0,1.0,0.4269316769205034,0,0.0,0.0,0.0,0.5450572033622758,0.09661269030387669,0.4484445130583991,0.6416698936661525,0.09661269030387669,0.47840314913385856,1,4,0,2,3,6,nan,nan,nan,nan,nan,nan,nan,nan,nan,nan,nan,nan,0.0,nan,nan,nan,nan,nan,nan,nan,nan,nan,nan,nan,nan,nan,nan,nan,nan,nan,nan,791.7600299009355,1234.3628725388553,nan,1234.7898042157758,nan,nan,nan,nan
1,269,1,1,1.0,1.0,0.5380835884716362,0,0.0,0.0,0.0,0.5445957755246127,0.09670493490122148,0.44789084062339124,0.6413007104258341,0.09670493490122148,0.48825170499427867,2,6,3,7,1,4,nan,nan,nan,nan,nan,nan,nan,nan,nan,nan,nan,nan,0.0,nan,nan,nan,nan,nan,nan,nan,nan,nan,nan,nan,nan,nan,nan,nan,nan,nan,nan,791.7600299009355,1235.3796675606864,nan,1235.917751149158,nan,nan,nan,nan
1,270,1,1,1.0,1.0,0.5452511941548437,0,0.0,0.0,0.0,0.5445704362753793,0.09651746114749683,0.44805297512788245,0.6410878974228761,0.09651746114749683,0.5034221531823277,4,8,1,0,2,7,nan,nan,nan,nan,nan,nan,nan,nan,nan,nan,nan,nan,0.0,nan,nan,nan,nan,nan,nan,nan,nan,nan,nan,nan,nan,nan,nan,nan,nan,nan,nan,791.7600299009355,1236.3964725607075,nan,1236.9417237548623,nan,nan,nan,nan
1,271,1,1,1.0,1.0,0.5444298317888752,0,0.0,0.0,0.0,0.5445730748718114,0.0963302394899477,0.4482428353818637,0.6409033143617591,0.0963302394899477,0.5425882048051184,2,0,6,8,4,5,nan,nan,nan,nan,nan,nan,nan,nan,nan,nan,nan,nan,0.0,nan,nan,nan,nan,nan,nan,nan,nan,nan,nan,nan,nan,nan,nan,nan,nan,nan,nan,791.7600299009355,1237.4132704334334,nan,1237.9577002652222,nan,nan,nan,nan
1,272,1,1,1.0,1.0,0.5195774188032374,0,0.0,0.0,0.0,0.544572521809715,0.09614409433609898,0.44842842747361605,0.640716616145814,0.09614409433609898,0.5364194815823188,7,1,4,3,6,2,nan,nan,nan,nan,nan,nan,nan,nan,nan,nan,nan,nan,0.0,nan,nan,nan,nan,nan,nan,nan,nan,nan,nan,nan,nan,nan,nan,nan,nan,nan,nan,791.7600299009355,1238.4300942500122,nan,1238.9496716688154,nan,nan,nan,nan
1,273,1,1,1.0,1.0,0.4707734974799678,0,0.0,0.0,0.0,0.5444763867981517,0.09597149522881865,0.44850489156933304,0.6404478820269703,0.09597149522881865,0.5115935826906934,3,4,2,8,7,0,nan,nan,nan,nan,nan,nan,nan,nan,nan,nan,nan,nan,0.0,nan,nan,nan,nan,nan,nan,nan,nan,nan,nan,nan,nan,nan,nan,nan,nan,nan,nan,791.7600299009355,1239.4468715958064,nan,1239.9176450932864,nan,nan,nan,nan
1,274,0,0,0.0,1.0,0.5179609230253845,0,0.0,0.0,0.0,0.5441940002490399,0.09589562805442463,0.4482983721946152,0.6400896283034645,0.09589562805442463,0.5027706131028632,5,8,0,6,2,7,nan,nan,nan,nan,nan,nan,nan,nan,nan,nan,nan,nan,0.0,nan,nan,nan,nan,nan,nan,nan,nan,nan,nan,nan,nan,nan,nan,nan,nan,nan,nan,791.7600299009355,1240.4636651920155,nan,1240.9816261150409,nan,nan,nan,nan
